»»»»»»»»»»»»»»»»»»»»»»»»»»»»»»»»»»»» Hysteresis ««««««««««««««««««««««««««««««««««««
»»»  Executed Version:	5.48.1
»»»  Vision Version:	5.48.4 (R)
»»»  Vision Compiled:	9/18/24
»»»  Driver Version:	5.47.0
»»»  Windows Version:	Windows 8 or 8.1
»»»  Processor Information:	x86 (AMD or Intel) - 32 Processors
»»»  Tester Name:	PMF21124-494 (100V)
»»»  Tester S/N:	PMF21124-494
»»»  Internal Amp Type:	100V RevK 270k
»»»  Internal Amp S/N:	iAB2-596/K     
»»»  Execution Count:	1
»»»»»»»»»»»»»»»»»»»»»»»»»»»»»»»»»»»»»»»»»»««««««««««««««««««««««««««««««««««««««««««

Stored:	6/18/2025 - 15:13:43
Configured:	06/18/25 09:47:30 AM
Executed:	06/18/25 03:13:01 PM

»»»»»»»»»»»»»»»»»»»»»»»»»»»»»»»»»»» Sample Info ««««««««««««««««««««««««««««««««««««
Sample Name:	
Lot Name:	
Wafer Name:	
Die Row/Column:	0/0
Capacitor Number:	0
Sample Area (cm2):	1.00e-04
Sample Thickness (microns):	3.00e-01

Amplifier:	Internal

»»»»»»»»»»»»»»»»»»»»»»»»»»»»»»»»»»» Tester Info «««««««««««««««««««««««««««««««««««
Tester Name:	PMF21124-494 (100V)
Tester Serial Number:	PMF21124-494
Return Signal Amp. Level:	0.19 [Index: 3]

»»»»»»»»»»»»»»»»»»»»»»»»»»»»»»»» Hysteresis Info ««««««««««««««««««««««««««««««««««
Task Name:	Hyst-554
Volts:	20.00
Field:	666.67 (kV/cm)
DCBias:	0.00
DCField:	0.00 (kV/cm)
Hysteresis Period (ms):	2.00e+02
Preset:	Enabled
Preset Delay (ms):	1.00e+03
Profile:	Standard Bipolar

»»»»»»»»»»»»»»»»»»»»»»»»»»»»»»»»»»»»»» Data «««««««««««««««««««««««««««««««««««««««
Points:	2009

Valid Data

Point	Time (ms)	Drive Voltage	Measured Polarization (uC/cm2)	Capacitance (uF)	Normalized Capacitance (uF/cm2)	Dielectric Constant	Instantaneous Current (mA)
   1	0.0000e+00	0.0064	-13.435588	0.000476	4.763571	1.613942	0.000191
   2	9.9500e-02	0.0321	-13.245842	0.000476	4.763571	1.613942	0.000191
   3	1.9900e-01	0.0770	-13.003614	0.000608	6.081155	2.060351	0.000243
   4	2.9850e-01	0.1187	-12.781572	0.000557	5.574392	1.888655	0.000223
   5	3.9800e-01	0.1636	-12.486861	0.000740	7.398739	2.506760	0.000296
   6	4.9750e-01	0.1925	-12.184076	0.000760	7.601444	2.575439	0.000304
   7	5.9700e-01	0.2342	-11.941848	0.000608	6.081155	2.060351	0.000243
   8	6.9650e-01	0.2775	-11.675397	0.000669	6.689270	2.266386	0.000268
   9	7.9600e-01	0.3048	-11.421057	0.000639	6.385213	2.163369	0.000256
  10	8.9550e-01	0.3626	-11.142495	0.000699	6.993328	2.369404	0.000280
  11	9.9500e-01	0.3914	-10.916415	0.000568	5.675745	1.922994	0.000227
  12	1.0945e+00	0.4283	-10.690335	0.000568	5.675745	1.922994	0.000227
  13	1.1940e+00	0.4732	-10.379476	0.000780	7.804149	2.644117	0.000312
  14	1.2935e+00	0.5166	-10.092839	0.000720	7.196033	2.438082	0.000288
  15	1.3930e+00	0.5551	-9.854648	0.000598	5.979802	2.026012	0.000239
  16	1.4925e+00	0.5984	-9.588197	0.000669	6.689270	2.266386	0.000268
  17	1.5920e+00	0.6401	-9.337895	0.000628	6.283860	2.129029	0.000252
  18	1.6915e+00	0.6770	-9.039147	0.000750	7.500091	2.541100	0.000300
  19	1.7910e+00	0.7139	-8.760585	0.000699	6.993328	2.369404	0.000280
  20	1.8905e+00	0.7492	-8.530468	0.000578	5.777097	1.957334	0.000231
  21	1.9900e+00	0.7941	-8.251905	0.000699	6.993328	2.369404	0.000280
  22	2.0895e+00	0.8358	-7.945083	0.000770	7.702796	2.609778	0.000308
  23	2.1890e+00	0.8727	-7.710929	0.000588	5.878450	1.991673	0.000235
  24	2.2885e+00	0.9096	-7.408144	0.000760	7.601444	2.575439	0.000304
  25	2.3880e+00	0.9529	-7.186102	0.000557	5.574392	1.888655	0.000223
  26	2.4875e+00	0.9946	-6.883316	0.000760	7.601444	2.575439	0.000304
  27	2.5870e+00	1.0331	-6.604754	0.000699	6.993328	2.369404	0.000280
  28	2.6865e+00	1.0668	-6.358489	0.000618	6.182508	2.094690	0.000248
  29	2.7860e+00	1.1117	-6.071852	0.000720	7.196033	2.438082	0.000288
  30	2.8855e+00	1.1599	-5.813475	0.000649	6.486565	2.197708	0.000260
  31	2.9850e+00	1.1903	-5.526839	0.000720	7.196033	2.438082	0.000288
  32	3.0845e+00	1.2256	-5.292685	0.000588	5.878450	1.991673	0.000235
  33	3.1840e+00	1.2738	-4.997974	0.000740	7.398739	2.506760	0.000296
  34	3.2835e+00	1.3155	-4.731523	0.000669	6.689270	2.266386	0.000268
  35	3.3830e+00	1.3508	-4.416626	0.000791	7.905501	2.678456	0.000316
  36	3.4825e+00	1.3893	-4.174398	0.000608	6.081155	2.060351	0.000243
  37	3.5820e+00	1.4294	-3.903910	0.000679	6.790623	2.300725	0.000272
  38	3.6815e+00	1.4663	-3.605162	0.000750	7.500091	2.541100	0.000300
  39	3.7810e+00	1.5112	-3.342748	0.000659	6.587918	2.232047	0.000264
  40	3.8805e+00	1.5497	-3.052075	0.000730	7.297386	2.472421	0.000292
  41	3.9800e+00	1.5914	-2.781587	0.000679	6.790623	2.300725	0.000272
  42	4.0795e+00	1.6331	-2.494950	0.000720	7.196033	2.438082	0.000288
  43	4.1790e+00	1.6652	-2.248685	0.000618	6.182508	2.094690	0.000248
  44	4.2785e+00	1.7149	-1.941862	0.000770	7.702796	2.609778	0.000308
  45	4.3780e+00	1.7518	-1.671374	0.000679	6.790623	2.300725	0.000272
  46	4.4775e+00	1.7887	-1.392812	0.000699	6.993328	2.369404	0.000280
  47	4.5770e+00	1.8352	-1.110212	0.000709	7.094681	2.403743	0.000284
  48	4.6765e+00	1.8657	-0.791279	0.000801	8.006854	2.712796	0.000321
  49	4.7760e+00	1.9090	-0.545013	0.000618	6.182508	2.094690	0.000248
  50	4.8755e+00	1.9459	-0.290674	0.000639	6.385213	2.163369	0.000256
  51	4.9750e+00	1.9876	-0.016149	0.000689	6.891976	2.335065	0.000276
  52	5.0745e+00	2.0245	0.286637	0.000760	7.601444	2.575439	0.000304
  53	5.1740e+00	2.0695	0.593459	0.000770	7.702796	2.609778	0.000308
  54	5.2735e+00	2.1080	0.827613	0.000588	5.878450	1.991673	0.000235
  55	5.3730e+00	2.1417	1.142509	0.000791	7.905501	2.678456	0.000316
  56	5.4725e+00	2.1930	1.421072	0.000699	6.993328	2.369404	0.000280
  57	5.5720e+00	2.2315	1.727894	0.000770	7.702796	2.609778	0.000308
  58	5.6715e+00	2.2700	1.982234	0.000639	6.385213	2.163369	0.000256
  59	5.7710e+00	2.2957	2.285019	0.000760	7.601444	2.575439	0.000304
  60	5.8705e+00	2.3470	2.579730	0.000740	7.398739	2.506760	0.000296
  61	5.9700e+00	2.3855	2.850218	0.000679	6.790623	2.300725	0.000272
  62	6.0695e+00	2.4336	3.120706	0.000679	6.790623	2.300725	0.000272
  63	6.1690e+00	2.4689	3.415417	0.000740	7.398739	2.506760	0.000296
  64	6.2685e+00	2.5058	3.681868	0.000669	6.689270	2.266386	0.000268
  65	6.3680e+00	2.5523	3.940244	0.000649	6.486565	2.197708	0.000260
  66	6.4675e+00	2.5892	4.247067	0.000770	7.702796	2.609778	0.000308
  67	6.5670e+00	2.6229	4.541778	0.000740	7.398739	2.506760	0.000296
  68	6.6665e+00	2.6582	4.824377	0.000709	7.094681	2.403743	0.000284
  69	6.7660e+00	2.6935	5.115051	0.000730	7.297386	2.472421	0.000292
  70	6.8655e+00	2.7464	5.385539	0.000679	6.790623	2.300725	0.000272
  71	6.9650e+00	2.7898	5.704473	0.000801	8.006854	2.712796	0.000321
  72	7.0645e+00	2.8234	5.983035	0.000699	6.993328	2.369404	0.000280
  73	7.1640e+00	2.8700	6.241412	0.000649	6.486565	2.197708	0.000260
  74	7.2635e+00	2.9101	6.519974	0.000699	6.993328	2.369404	0.000280
  75	7.3630e+00	2.9438	6.842945	0.000811	8.108207	2.747135	0.000325
  76	7.4625e+00	2.9807	7.097285	0.000639	6.385213	2.163369	0.000256
  77	7.5620e+00	3.0320	7.367773	0.000679	6.790623	2.300725	0.000272
  78	7.6615e+00	3.0657	7.666521	0.000750	7.500091	2.541100	0.000300
  79	7.7610e+00	3.1106	7.920860	0.000639	6.385213	2.163369	0.000256
  80	7.8605e+00	3.1539	8.280165	0.000902	9.020380	3.056187	0.000361
  81	7.9600e+00	3.1892	8.534505	0.000639	6.385213	2.163369	0.000256
  82	8.0595e+00	3.2213	8.796919	0.000659	6.587918	2.232047	0.000264
  83	8.1590e+00	3.2662	9.115852	0.000801	8.006854	2.712796	0.000321
  84	8.2585e+00	3.3031	9.402489	0.000720	7.196033	2.438082	0.000288
  85	8.3580e+00	3.3432	9.721423	0.000801	8.006854	2.712796	0.000321
  86	8.4575e+00	3.3881	9.983837	0.000659	6.587918	2.232047	0.000264
  87	8.5570e+00	3.4202	10.266436	0.000709	7.094681	2.403743	0.000284
  88	8.6565e+00	3.4619	10.544999	0.000699	6.993328	2.369404	0.000280
  89	8.7560e+00	3.5052	10.859895	0.000791	7.905501	2.678456	0.000316
  90	8.8555e+00	3.5389	11.150569	0.000730	7.297386	2.472421	0.000292
  91	8.9550e+00	3.5758	11.404908	0.000639	6.385213	2.163369	0.000256
  92	9.0545e+00	3.6208	11.707694	0.000760	7.601444	2.575439	0.000304
  93	9.1540e+00	3.6577	12.006442	0.000750	7.500091	2.541100	0.000300
  94	9.2535e+00	3.6978	12.301153	0.000740	7.398739	2.506760	0.000296
  95	9.3530e+00	3.7491	12.591826	0.000730	7.297386	2.472421	0.000292
  96	9.4525e+00	3.7860	12.890574	0.000750	7.500091	2.541100	0.000300
  97	9.5520e+00	3.8213	13.185285	0.000740	7.398739	2.506760	0.000296
  98	9.6515e+00	3.8646	13.459811	0.000689	6.891976	2.335065	0.000276
  99	9.7510e+00	3.9031	13.726262	0.000669	6.689270	2.266386	0.000268
 100	9.8505e+00	3.9400	14.061344	0.000841	8.412264	2.850152	0.000337
 101	9.9500e+00	3.9785	14.327795	0.000669	6.689270	2.266386	0.000268
 102	1.0050e+01	4.0138	14.606357	0.000699	6.993328	2.369404	0.000280
 103	1.0149e+01	4.0619	14.921254	0.000791	7.905501	2.678456	0.000316
 104	1.0248e+01	4.0892	15.175593	0.000639	6.385213	2.163369	0.000256
 105	1.0348e+01	4.1373	15.514713	0.000851	8.513617	2.884491	0.000341
 106	1.0447e+01	4.1758	15.777126	0.000659	6.587918	2.232047	0.000264
 107	1.0547e+01	4.2191	16.075875	0.000750	7.500091	2.541100	0.000300
 108	1.0646e+01	4.2608	16.370585	0.000740	7.398739	2.506760	0.000296
 109	1.0746e+01	4.2977	16.661259	0.000730	7.297386	2.472421	0.000292
 110	1.0845e+01	4.3459	16.939822	0.000699	6.993328	2.369404	0.000280
 111	1.0945e+01	4.3844	17.254718	0.000791	7.905501	2.678456	0.000316
 112	1.1044e+01	4.4293	17.529243	0.000689	6.891976	2.335065	0.000276
 113	1.1144e+01	4.4550	17.803769	0.000689	6.891976	2.335065	0.000276
 114	1.1243e+01	4.4983	18.150962	0.000872	8.716322	2.953170	0.000349
 115	1.1343e+01	4.5384	18.393190	0.000608	6.081155	2.060351	0.000243
 116	1.1443e+01	4.5849	18.675790	0.000709	7.094681	2.403743	0.000284
 117	1.1542e+01	4.6186	18.982612	0.000770	7.702796	2.609778	0.000308
 118	1.1642e+01	4.6523	19.257137	0.000689	6.891976	2.335065	0.000276
 119	1.1741e+01	4.7020	19.543774	0.000720	7.196033	2.438082	0.000288
 120	1.1841e+01	4.7341	19.870782	0.000821	8.209559	2.781474	0.000329
 121	1.1940e+01	4.7758	20.145307	0.000689	6.891976	2.335065	0.000276
 122	1.2040e+01	4.8175	20.452130	0.000770	7.702796	2.609778	0.000308
 123	1.2139e+01	4.8528	20.710506	0.000649	6.486565	2.197708	0.000260
 124	1.2239e+01	4.8993	21.021366	0.000780	7.804149	2.644117	0.000312
 125	1.2338e+01	4.9362	21.312040	0.000730	7.297386	2.472421	0.000292
 126	1.2438e+01	4.9811	21.594639	0.000709	7.094681	2.403743	0.000284
 127	1.2537e+01	5.0148	21.869164	0.000689	6.891976	2.335065	0.000276
 128	1.2636e+01	5.0565	22.123504	0.000639	6.385213	2.163369	0.000256
 129	1.2736e+01	5.1015	22.442438	0.000801	8.006854	2.712796	0.000321
 130	1.2835e+01	5.1368	22.725037	0.000709	7.094681	2.403743	0.000284
 131	1.2935e+01	5.1737	23.015711	0.000730	7.297386	2.472421	0.000292
 132	1.3034e+01	5.2218	23.318496	0.000760	7.601444	2.575439	0.000304
 133	1.3134e+01	5.2555	23.641467	0.000811	8.108207	2.747135	0.000325
 134	1.3233e+01	5.2908	23.891769	0.000628	6.283860	2.129029	0.000252
 135	1.3333e+01	5.3421	24.190517	0.000750	7.500091	2.541100	0.000300
 136	1.3432e+01	5.3838	24.469080	0.000699	6.993328	2.369404	0.000280
 137	1.3532e+01	5.4223	24.796088	0.000821	8.209559	2.781474	0.000329
 138	1.3632e+01	5.4496	25.030242	0.000588	5.878450	1.991673	0.000235
 139	1.3731e+01	5.4849	25.324952	0.000740	7.398739	2.506760	0.000296
 140	1.3831e+01	5.5346	25.623701	0.000750	7.500091	2.541100	0.000300
 141	1.3930e+01	5.5843	25.914374	0.000730	7.297386	2.472421	0.000292
 142	1.4030e+01	5.6132	26.213122	0.000750	7.500091	2.541100	0.000300
 143	1.4129e+01	5.6565	26.499759	0.000720	7.196033	2.438082	0.000288
 144	1.4229e+01	5.6950	26.737950	0.000598	5.979802	2.026012	0.000239
 145	1.4328e+01	5.7367	27.081107	0.000861	8.614969	2.918831	0.000345
 146	1.4428e+01	5.7736	27.323335	0.000608	6.081155	2.060351	0.000243
 147	1.4527e+01	5.8218	27.650343	0.000821	8.209559	2.781474	0.000329
 148	1.4627e+01	5.8571	27.916794	0.000669	6.689270	2.266386	0.000268
 149	1.4726e+01	5.8907	28.259950	0.000861	8.614969	2.918831	0.000345
 150	1.4825e+01	5.9292	28.498141	0.000598	5.979802	2.026012	0.000239
 151	1.4925e+01	5.9742	28.804963	0.000770	7.702796	2.609778	0.000308
 152	1.5024e+01	6.0159	29.095637	0.000730	7.297386	2.472421	0.000292
 153	1.5124e+01	6.0447	29.382274	0.000720	7.196033	2.438082	0.000288
 154	1.5223e+01	6.0865	29.648725	0.000669	6.689270	2.266386	0.000268
 155	1.5323e+01	6.1346	29.987844	0.000851	8.513617	2.884491	0.000341
 156	1.5422e+01	6.1779	30.246221	0.000649	6.486565	2.197708	0.000260
 157	1.5522e+01	6.2052	30.512672	0.000669	6.689270	2.266386	0.000268
 158	1.5621e+01	6.2517	30.799309	0.000720	7.196033	2.438082	0.000288
 159	1.5721e+01	6.2918	31.114205	0.000791	7.905501	2.678456	0.000316
 160	1.5820e+01	6.3399	31.416990	0.000760	7.601444	2.575439	0.000304
 161	1.5920e+01	6.3752	31.703627	0.000720	7.196033	2.438082	0.000288
 162	1.6020e+01	6.4185	31.917595	0.000537	5.371687	1.819977	0.000215
 163	1.6119e+01	6.4602	32.256715	0.000851	8.513617	2.884491	0.000341
 164	1.6218e+01	6.4923	32.511054	0.000639	6.385213	2.163369	0.000256
 165	1.6318e+01	6.5228	32.817876	0.000770	7.702796	2.609778	0.000308
 166	1.6418e+01	6.5693	33.092402	0.000689	6.891976	2.335065	0.000276
 167	1.6517e+01	6.6143	33.379038	0.000720	7.196033	2.438082	0.000288
 168	1.6616e+01	6.6528	33.649526	0.000679	6.790623	2.300725	0.000272
 169	1.6716e+01	6.6977	33.928089	0.000699	6.993328	2.369404	0.000280
 170	1.6816e+01	6.7265	34.214725	0.000720	7.196033	2.438082	0.000288
 171	1.6915e+01	6.7667	34.485213	0.000679	6.790623	2.300725	0.000272
 172	1.7015e+01	6.8068	34.804147	0.000801	8.006854	2.712796	0.000321
 173	1.7114e+01	6.8501	35.106932	0.000760	7.601444	2.575439	0.000304
 174	1.7213e+01	6.8934	35.369346	0.000659	6.587918	2.232047	0.000264
 175	1.7313e+01	6.9367	35.607537	0.000598	5.979802	2.026012	0.000239
 176	1.7413e+01	6.9608	35.946657	0.000851	8.513617	2.884491	0.000341
 177	1.7512e+01	7.0025	36.221182	0.000689	6.891976	2.335065	0.000276
 178	1.7611e+01	7.0506	36.487633	0.000669	6.689270	2.266386	0.000268
 179	1.7711e+01	7.0923	36.790418	0.000760	7.601444	2.575439	0.000304
 180	1.7811e+01	7.1308	37.073017	0.000709	7.094681	2.403743	0.000284
 181	1.7910e+01	7.1709	37.351580	0.000699	6.993328	2.369404	0.000280
 182	1.8009e+01	7.2062	37.638216	0.000720	7.196033	2.438082	0.000288
 183	1.8109e+01	7.2431	37.961187	0.000811	8.108207	2.747135	0.000325
 184	1.8209e+01	7.2864	38.191304	0.000578	5.777097	1.957334	0.000231
 185	1.8308e+01	7.3265	38.514275	0.000811	8.108207	2.747135	0.000325
 186	1.8407e+01	7.3666	38.796874	0.000709	7.094681	2.403743	0.000284
 187	1.8507e+01	7.4148	39.083511	0.000720	7.196033	2.438082	0.000288
 188	1.8607e+01	7.4452	39.362073	0.000699	6.993328	2.369404	0.000280
 189	1.8706e+01	7.4950	39.636599	0.000689	6.891976	2.335065	0.000276
 190	1.8805e+01	7.5319	39.959570	0.000811	8.108207	2.747135	0.000325
 191	1.8905e+01	7.5704	40.201798	0.000608	6.081155	2.060351	0.000243
 192	1.9005e+01	7.6073	40.520731	0.000801	8.006854	2.712796	0.000321
 193	1.9104e+01	7.6410	40.783145	0.000659	6.587918	2.232047	0.000264
 194	1.9203e+01	7.6907	41.118227	0.000841	8.412264	2.850152	0.000337
 195	1.9303e+01	7.7276	41.340270	0.000557	5.574392	1.888655	0.000223
 196	1.9402e+01	7.7613	41.667278	0.000821	8.209559	2.781474	0.000329
 197	1.9502e+01	7.8174	41.901432	0.000588	5.878450	1.991673	0.000235
 198	1.9602e+01	7.8527	42.200180	0.000750	7.500091	2.541100	0.000300
 199	1.9701e+01	7.8896	42.519114	0.000801	8.006854	2.712796	0.000321
 200	1.9800e+01	7.9185	42.753267	0.000588	5.878450	1.991673	0.000235
 201	1.9900e+01	7.9522	43.064127	0.000780	7.804149	2.644117	0.000312
 202	2.0000e+01	8.0067	43.322504	0.000649	6.486565	2.197708	0.000260
 203	2.0099e+01	8.0468	43.637400	0.000791	7.905501	2.678456	0.000316
 204	2.0198e+01	8.0837	43.915963	0.000699	6.993328	2.369404	0.000280
 205	2.0298e+01	8.1222	44.182414	0.000669	6.689270	2.266386	0.000268
 206	2.0398e+01	8.1688	44.465013	0.000709	7.094681	2.403743	0.000284
 207	2.0497e+01	8.2008	44.800095	0.000841	8.412264	2.850152	0.000337
 208	2.0596e+01	8.2474	45.058472	0.000649	6.486565	2.197708	0.000260
 209	2.0696e+01	8.2843	45.357220	0.000750	7.500091	2.541100	0.000300
 210	2.0796e+01	8.3212	45.627708	0.000679	6.790623	2.300725	0.000272
 211	2.0895e+01	8.3597	45.906270	0.000699	6.993328	2.369404	0.000280
 212	2.0994e+01	8.4014	46.217130	0.000780	7.804149	2.644117	0.000312
 213	2.1094e+01	8.4431	46.459358	0.000608	6.081155	2.060351	0.000243
 214	2.1194e+01	8.4848	46.794440	0.000841	8.412264	2.850152	0.000337
 215	2.1293e+01	8.5281	47.060891	0.000669	6.689270	2.266386	0.000268
 216	2.1392e+01	8.5522	47.375788	0.000791	7.905501	2.678456	0.000316
 217	2.1492e+01	8.6083	47.613979	0.000598	5.979802	2.026012	0.000239
 218	2.1591e+01	8.6388	47.920801	0.000770	7.702796	2.609778	0.000308
 219	2.1691e+01	8.6821	48.223586	0.000760	7.601444	2.575439	0.000304
 220	2.1791e+01	8.7158	48.502149	0.000699	6.993328	2.369404	0.000280
 221	2.1890e+01	8.7687	48.756488	0.000639	6.385213	2.163369	0.000256
 222	2.1989e+01	8.8072	49.063311	0.000770	7.702796	2.609778	0.000308
 223	2.2089e+01	8.8377	49.325724	0.000659	6.587918	2.232047	0.000264
 224	2.2189e+01	8.8842	49.620435	0.000740	7.398739	2.506760	0.000296
 225	2.2288e+01	8.9131	49.898998	0.000699	6.993328	2.369404	0.000280
 226	2.2387e+01	8.9500	50.173523	0.000689	6.891976	2.335065	0.000276
 227	2.2487e+01	8.9997	50.448048	0.000689	6.891976	2.335065	0.000276
 228	2.2587e+01	9.0382	50.766982	0.000801	8.006854	2.712796	0.000321
 229	2.2686e+01	9.0735	51.013247	0.000618	6.182508	2.094690	0.000248
 230	2.2785e+01	9.1281	51.303921	0.000730	7.297386	2.472421	0.000292
 231	2.2885e+01	9.1521	51.590558	0.000720	7.196033	2.438082	0.000288
 232	2.2985e+01	9.2067	51.881231	0.000730	7.297386	2.472421	0.000292
 233	2.3084e+01	9.2324	52.188054	0.000770	7.702796	2.609778	0.000308
 234	2.3183e+01	9.2917	52.482765	0.000740	7.398739	2.506760	0.000296
 235	2.3283e+01	9.3254	52.757290	0.000689	6.891976	2.335065	0.000276
 236	2.3383e+01	9.3543	53.043926	0.000720	7.196033	2.438082	0.000288
 237	2.3482e+01	9.3992	53.318452	0.000689	6.891976	2.335065	0.000276
 238	2.3581e+01	9.4345	53.580866	0.000659	6.587918	2.232047	0.000264
 239	2.3681e+01	9.4762	53.879614	0.000750	7.500091	2.541100	0.000300
 240	2.3780e+01	9.5243	54.182399	0.000760	7.601444	2.575439	0.000304
 241	2.3880e+01	9.5612	54.412515	0.000578	5.777097	1.957334	0.000231
 242	2.3980e+01	9.5933	54.759709	0.000872	8.716322	2.953170	0.000349
 243	2.4079e+01	9.6382	55.030197	0.000679	6.790623	2.300725	0.000272
 244	2.4178e+01	9.6799	55.284537	0.000639	6.385213	2.163369	0.000256
 245	2.4278e+01	9.7136	55.555025	0.000679	6.790623	2.300725	0.000272
 246	2.4378e+01	9.7585	55.877996	0.000811	8.108207	2.747135	0.000325
 247	2.4477e+01	9.7970	56.148484	0.000679	6.790623	2.300725	0.000272
 248	2.4576e+01	9.8372	56.390712	0.000608	6.081155	2.060351	0.000243
 249	2.4676e+01	9.8757	56.713683	0.000811	8.108207	2.747135	0.000325
 250	2.4776e+01	9.9158	56.968022	0.000639	6.385213	2.163369	0.000256
 251	2.4875e+01	9.9462	57.274845	0.000770	7.702796	2.609778	0.000308
 252	2.4974e+01	9.9880	57.484776	0.000527	5.270334	1.785638	0.000211
 253	2.5074e+01	10.0425	57.827932	0.000861	8.614969	2.918831	0.000345
 254	2.5174e+01	10.0730	58.102458	0.000689	6.891976	2.335065	0.000276
 255	2.5273e+01	10.1131	58.413317	0.000780	7.804149	2.644117	0.000312
 256	2.5372e+01	10.1596	58.667657	0.000639	6.385213	2.163369	0.000256
 257	2.5472e+01	10.1965	58.982553	0.000791	7.905501	2.678456	0.000316
 258	2.5572e+01	10.2318	59.253041	0.000679	6.790623	2.300725	0.000272
 259	2.5671e+01	10.2767	59.547752	0.000740	7.398739	2.506760	0.000296
 260	2.5770e+01	10.3152	59.802092	0.000639	6.385213	2.163369	0.000256
 261	2.5870e+01	10.3521	60.060468	0.000649	6.486565	2.197708	0.000260
 262	2.5970e+01	10.3970	60.399588	0.000851	8.513617	2.884491	0.000341
 263	2.6069e+01	10.4291	60.666039	0.000669	6.689270	2.266386	0.000268
 264	2.6169e+01	10.4788	60.936527	0.000679	6.790623	2.300725	0.000272
 265	2.6268e+01	10.5109	61.223163	0.000720	7.196033	2.438082	0.000288
 266	2.6367e+01	10.5526	61.534023	0.000780	7.804149	2.644117	0.000312
 267	2.6467e+01	10.5927	61.739917	0.000517	5.168982	1.751298	0.000207
 268	2.6567e+01	10.6329	62.038665	0.000750	7.500091	2.541100	0.000300
 269	2.6666e+01	10.6698	62.333376	0.000740	7.398739	2.506760	0.000296
 270	2.6765e+01	10.7243	62.611938	0.000699	6.993328	2.369404	0.000280
 271	2.6865e+01	10.7516	62.918760	0.000770	7.702796	2.609778	0.000308
 272	2.6965e+01	10.7901	63.189249	0.000679	6.790623	2.300725	0.000272
 273	2.7064e+01	10.8350	63.483959	0.000740	7.398739	2.506760	0.000296
 274	2.7163e+01	10.8639	63.758485	0.000689	6.891976	2.335065	0.000276
 275	2.7263e+01	10.9136	63.996676	0.000598	5.979802	2.026012	0.000239
 276	2.7363e+01	10.9569	64.299461	0.000760	7.601444	2.575439	0.000304
 277	2.7462e+01	10.9954	64.590135	0.000730	7.297386	2.472421	0.000292
 278	2.7561e+01	11.0387	64.824289	0.000588	5.878450	1.991673	0.000235
 279	2.7661e+01	11.0676	65.155334	0.000831	8.310912	2.815813	0.000333
 280	2.7761e+01	11.1093	65.421785	0.000669	6.689270	2.266386	0.000268
 281	2.7860e+01	11.1494	65.704384	0.000709	7.094681	2.403743	0.000284
 282	2.7959e+01	11.1879	65.966798	0.000659	6.587918	2.232047	0.000264
 283	2.8059e+01	11.2377	66.196915	0.000578	5.777097	1.957334	0.000231
 284	2.8159e+01	11.2745	66.540071	0.000861	8.614969	2.918831	0.000345
 285	2.8258e+01	11.3195	66.802485	0.000659	6.587918	2.232047	0.000264
 286	2.8358e+01	11.3548	67.081047	0.000699	6.993328	2.369404	0.000280
 287	2.8457e+01	11.3965	67.375758	0.000740	7.398739	2.506760	0.000296
 288	2.8556e+01	11.4350	67.613949	0.000598	5.979802	2.026012	0.000239
 289	2.8656e+01	11.4655	67.896549	0.000709	7.094681	2.403743	0.000284
 290	2.8756e+01	11.5072	68.187223	0.000730	7.297386	2.472421	0.000292
 291	2.8855e+01	11.5489	68.477896	0.000730	7.297386	2.472421	0.000292
 292	2.8954e+01	11.5922	68.724162	0.000618	6.182508	2.094690	0.000248
 293	2.9054e+01	11.6323	68.978501	0.000639	6.385213	2.163369	0.000256
 294	2.9154e+01	11.6660	69.269175	0.000730	7.297386	2.472421	0.000292
 295	2.9253e+01	11.7093	69.551774	0.000709	7.094681	2.403743	0.000284
 296	2.9352e+01	11.7494	69.838411	0.000720	7.196033	2.438082	0.000288
 297	2.9452e+01	11.7911	70.084676	0.000618	6.182508	2.094690	0.000248
 298	2.9552e+01	11.8344	70.419759	0.000841	8.412264	2.850152	0.000337
 299	2.9651e+01	11.8761	70.666024	0.000618	6.182508	2.094690	0.000248
 300	2.9750e+01	11.9082	70.920364	0.000639	6.385213	2.163369	0.000256
 301	2.9850e+01	11.9483	71.223149	0.000760	7.601444	2.575439	0.000304
 302	2.9950e+01	11.9932	71.505748	0.000709	7.094681	2.403743	0.000284
 303	3.0049e+01	12.0317	71.756051	0.000628	6.283860	2.129029	0.000252
 304	3.0148e+01	12.0654	72.022502	0.000669	6.689270	2.266386	0.000268
 305	3.0248e+01	12.0959	72.329324	0.000770	7.702796	2.609778	0.000308
 306	3.0348e+01	12.1489	72.587701	0.000649	6.486565	2.197708	0.000260
 307	3.0447e+01	12.1858	72.854152	0.000669	6.689270	2.266386	0.000268
 308	3.0547e+01	12.2210	73.112528	0.000649	6.486565	2.197708	0.000260
 309	3.0646e+01	12.2676	73.395128	0.000709	7.094681	2.403743	0.000284
 310	3.0745e+01	12.3125	73.661579	0.000669	6.689270	2.266386	0.000268
 311	3.0845e+01	12.3478	73.960327	0.000750	7.500091	2.541100	0.000300
 312	3.0945e+01	12.3863	74.174295	0.000537	5.371687	1.819977	0.000215
 313	3.1044e+01	12.4168	74.473043	0.000750	7.500091	2.541100	0.000300
 314	3.1143e+01	12.4633	74.759680	0.000720	7.196033	2.438082	0.000288
 315	3.1243e+01	12.5082	74.977685	0.000547	5.473039	1.854316	0.000219
 316	3.1343e+01	12.5483	75.272396	0.000740	7.398739	2.506760	0.000296
 317	3.1442e+01	12.5852	75.563070	0.000730	7.297386	2.472421	0.000292
 318	3.1541e+01	12.6269	75.825483	0.000659	6.587918	2.232047	0.000264
 319	3.1641e+01	12.6686	76.087897	0.000659	6.587918	2.232047	0.000264
 320	3.1741e+01	12.7071	76.378571	0.000730	7.297386	2.472421	0.000292
 321	3.1840e+01	12.7408	76.649059	0.000679	6.790623	2.300725	0.000272
 322	3.1939e+01	12.7777	76.911473	0.000659	6.587918	2.232047	0.000264
 323	3.2039e+01	12.8242	77.206184	0.000740	7.398739	2.506760	0.000296
 324	3.2139e+01	12.8724	77.456486	0.000628	6.283860	2.129029	0.000252
 325	3.2238e+01	12.9157	77.731012	0.000689	6.891976	2.335065	0.000276
 326	3.2337e+01	12.9494	77.977277	0.000618	6.182508	2.094690	0.000248
 327	3.2437e+01	12.9895	78.267951	0.000730	7.297386	2.472421	0.000292
 328	3.2536e+01	13.0296	78.498067	0.000578	5.777097	1.957334	0.000231
 329	3.2636e+01	13.0569	78.812964	0.000791	7.905501	2.678456	0.000316
 330	3.2736e+01	13.1050	79.087489	0.000689	6.891976	2.335065	0.000276
 331	3.2835e+01	13.1435	79.390274	0.000760	7.601444	2.575439	0.000304
 332	3.2934e+01	13.1836	79.624428	0.000588	5.878450	1.991673	0.000235
 333	3.3034e+01	13.2205	79.878768	0.000639	6.385213	2.163369	0.000256
 334	3.3133e+01	13.2606	80.141182	0.000659	6.587918	2.232047	0.000264
 335	3.3233e+01	13.3087	80.411670	0.000679	6.790623	2.300725	0.000272
 336	3.3333e+01	13.3440	80.674083	0.000659	6.587918	2.232047	0.000264
 337	3.3432e+01	13.3825	80.960720	0.000720	7.196033	2.438082	0.000288
 338	3.3532e+01	13.4242	81.251394	0.000730	7.297386	2.472421	0.000292
 339	3.3631e+01	13.4723	81.485548	0.000588	5.878450	1.991673	0.000235
 340	3.3730e+01	13.5044	81.756036	0.000679	6.790623	2.300725	0.000272
 341	3.3830e+01	13.5365	82.038635	0.000709	7.094681	2.403743	0.000284
 342	3.3929e+01	13.5734	82.349495	0.000780	7.804149	2.644117	0.000312
 343	3.4029e+01	13.6119	82.599797	0.000628	6.283860	2.129029	0.000252
 344	3.4129e+01	13.6616	82.817803	0.000547	5.473039	1.854316	0.000219
 345	3.4228e+01	13.6985	83.088291	0.000679	6.790623	2.300725	0.000272
 346	3.4328e+01	13.7419	83.411261	0.000811	8.108207	2.747135	0.000325
 347	3.4427e+01	13.7804	83.669638	0.000649	6.486565	2.197708	0.000260
 348	3.4526e+01	13.8221	83.952238	0.000709	7.094681	2.403743	0.000284
 349	3.4626e+01	13.8590	84.214651	0.000659	6.587918	2.232047	0.000264
 350	3.4725e+01	13.8911	84.481102	0.000669	6.689270	2.266386	0.000268
 351	3.4825e+01	13.9456	84.723331	0.000608	6.081155	2.060351	0.000243
 352	3.4925e+01	13.9857	85.038227	0.000791	7.905501	2.678456	0.000316
 353	3.5024e+01	14.0242	85.288530	0.000628	6.283860	2.129029	0.000252
 354	3.5123e+01	14.0595	85.550943	0.000659	6.587918	2.232047	0.000264
 355	3.5223e+01	14.0964	85.801246	0.000628	6.283860	2.129029	0.000252
 356	3.5322e+01	14.1381	86.116142	0.000791	7.905501	2.678456	0.000316
 357	3.5422e+01	14.1782	86.342222	0.000568	5.675745	1.922994	0.000227
 358	3.5522e+01	14.2119	86.616747	0.000689	6.891976	2.335065	0.000276
 359	3.5621e+01	14.2568	86.887235	0.000679	6.790623	2.300725	0.000272
 360	3.5721e+01	14.2873	87.181946	0.000740	7.398739	2.506760	0.000296
 361	3.5820e+01	14.3418	87.444360	0.000659	6.587918	2.232047	0.000264
 362	3.5919e+01	14.3803	87.726960	0.000709	7.094681	2.403743	0.000284
 363	3.6019e+01	14.4204	87.957076	0.000578	5.777097	1.957334	0.000231
 364	3.6118e+01	14.4541	88.255824	0.000750	7.500091	2.541100	0.000300
 365	3.6218e+01	14.5023	88.502090	0.000618	6.182508	2.094690	0.000248
 366	3.6318e+01	14.5392	88.816986	0.000791	7.905501	2.678456	0.000316
 367	3.6417e+01	14.5825	89.026917	0.000527	5.270334	1.785638	0.000211
 368	3.6517e+01	14.6210	89.325665	0.000750	7.500091	2.541100	0.000300
 369	3.6616e+01	14.6515	89.620376	0.000740	7.398739	2.506760	0.000296
 370	3.6715e+01	14.6980	89.902976	0.000709	7.094681	2.403743	0.000284
 371	3.6815e+01	14.7317	90.161352	0.000649	6.486565	2.197708	0.000260
 372	3.6914e+01	14.7798	90.447989	0.000720	7.196033	2.438082	0.000288
 373	3.7014e+01	14.8167	90.718477	0.000679	6.790623	2.300725	0.000272
 374	3.7114e+01	14.8504	90.980891	0.000659	6.587918	2.232047	0.000264
 375	3.7213e+01	14.9033	91.239268	0.000649	6.486565	2.197708	0.000260
 376	3.7313e+01	14.9354	91.517830	0.000699	6.993328	2.369404	0.000280
 377	3.7412e+01	14.9803	91.768132	0.000628	6.283860	2.129029	0.000252
 378	3.7511e+01	15.0156	92.066881	0.000750	7.500091	2.541100	0.000300
 379	3.7611e+01	15.0461	92.333331	0.000669	6.689270	2.266386	0.000268
 380	3.7711e+01	15.0974	92.611894	0.000699	6.993328	2.369404	0.000280
 381	3.7810e+01	15.1391	92.870271	0.000649	6.486565	2.197708	0.000260
 382	3.7910e+01	15.1664	93.128647	0.000649	6.486565	2.197708	0.000260
 383	3.8009e+01	15.2178	93.411247	0.000709	7.094681	2.403743	0.000284
 384	3.8108e+01	15.2530	93.693846	0.000709	7.094681	2.403743	0.000284
 385	3.8208e+01	15.2883	93.928000	0.000588	5.878450	1.991673	0.000235
 386	3.8307e+01	15.3365	94.283268	0.000892	8.919027	3.021848	0.000357
 387	3.8407e+01	15.3782	94.501273	0.000547	5.473039	1.854316	0.000219
 388	3.8507e+01	15.4135	94.787910	0.000720	7.196033	2.438082	0.000288
 389	3.8606e+01	15.4472	95.050324	0.000659	6.587918	2.232047	0.000264
 390	3.8706e+01	15.4937	95.357146	0.000770	7.702796	2.609778	0.000308
 391	3.8805e+01	15.5386	95.595337	0.000598	5.979802	2.026012	0.000239
 392	3.8904e+01	15.5755	95.865825	0.000679	6.790623	2.300725	0.000272
 393	3.9004e+01	15.6156	96.132276	0.000669	6.689270	2.266386	0.000268
 394	3.9103e+01	15.6509	96.431024	0.000750	7.500091	2.541100	0.000300
 395	3.9203e+01	15.6910	96.697475	0.000669	6.689270	2.266386	0.000268
 396	3.9303e+01	15.7407	96.947778	0.000628	6.283860	2.129029	0.000252
 397	3.9402e+01	15.7728	97.230377	0.000709	7.094681	2.403743	0.000284
 398	3.9502e+01	15.8113	97.500865	0.000679	6.790623	2.300725	0.000272
 399	3.9601e+01	15.8418	97.747130	0.000618	6.182508	2.094690	0.000248
 400	3.9700e+01	15.8963	98.053953	0.000770	7.702796	2.609778	0.000308
 401	3.9800e+01	15.9348	98.312329	0.000649	6.486565	2.197708	0.000260
 402	3.9900e+01	15.9766	98.574743	0.000659	6.587918	2.232047	0.000264
 403	3.9999e+01	16.0102	98.865417	0.000730	7.297386	2.472421	0.000292
 404	4.0099e+01	16.0552	99.156091	0.000730	7.297386	2.472421	0.000292
 405	4.0198e+01	16.1001	99.386208	0.000578	5.777097	1.957334	0.000231
 406	4.0297e+01	16.1257	99.672844	0.000720	7.196033	2.438082	0.000288
 407	4.0397e+01	16.1691	99.955444	0.000709	7.094681	2.403743	0.000284
 408	4.0496e+01	16.2108	100.213820	0.000649	6.486565	2.197708	0.000260
 409	4.0596e+01	16.2461	100.419714	0.000517	5.168982	1.751298	0.000207
 410	4.0696e+01	16.2878	100.726537	0.000770	7.702796	2.609778	0.000308
 411	4.0795e+01	16.3263	101.001062	0.000689	6.891976	2.335065	0.000276
 412	4.0895e+01	16.3696	101.267513	0.000669	6.689270	2.266386	0.000268
 413	4.0994e+01	16.4113	101.570298	0.000760	7.601444	2.575439	0.000304
 414	4.1093e+01	16.4450	101.856935	0.000720	7.196033	2.438082	0.000288
 415	4.1193e+01	16.4915	102.091089	0.000588	5.878450	1.991673	0.000235
 416	4.1292e+01	16.5268	102.353502	0.000659	6.587918	2.232047	0.000264
 417	4.1392e+01	16.5701	102.623990	0.000679	6.790623	2.300725	0.000272
 418	4.1492e+01	16.6054	102.862181	0.000598	5.979802	2.026012	0.000239
 419	4.1591e+01	16.6503	103.193227	0.000831	8.310912	2.815813	0.000333
 420	4.1691e+01	16.6904	103.471789	0.000699	6.993328	2.369404	0.000280
 421	4.1790e+01	16.7225	103.718054	0.000618	6.182508	2.094690	0.000248
 422	4.1889e+01	16.7658	103.956245	0.000598	5.979802	2.026012	0.000239
 423	4.1989e+01	16.8027	104.230770	0.000689	6.891976	2.335065	0.000276
 424	4.2089e+01	16.8460	104.513370	0.000709	7.094681	2.403743	0.000284
 425	4.2188e+01	16.8862	104.795969	0.000709	7.094681	2.403743	0.000284
 426	4.2288e+01	16.9311	105.070495	0.000689	6.891976	2.335065	0.000276
 427	4.2387e+01	16.9680	105.320797	0.000628	6.283860	2.129029	0.000252
 428	4.2486e+01	17.0049	105.607434	0.000720	7.196033	2.438082	0.000288
 429	4.2586e+01	17.0418	105.853699	0.000618	6.182508	2.094690	0.000248
 430	4.2685e+01	17.0867	106.128224	0.000689	6.891976	2.335065	0.000276
 431	4.2785e+01	17.1188	106.431009	0.000760	7.601444	2.575439	0.000304
 432	4.2885e+01	17.1701	106.689386	0.000649	6.486565	2.197708	0.000260
 433	4.2984e+01	17.2022	106.980060	0.000730	7.297386	2.472421	0.000292
 434	4.3084e+01	17.2391	107.242474	0.000659	6.587918	2.232047	0.000264
 435	4.3183e+01	17.2808	107.504888	0.000659	6.587918	2.232047	0.000264
 436	4.3282e+01	17.3193	107.779413	0.000689	6.891976	2.335065	0.000276
 437	4.3382e+01	17.3690	108.037789	0.000649	6.486565	2.197708	0.000260
 438	4.3481e+01	17.4091	108.304240	0.000669	6.689270	2.266386	0.000268
 439	4.3581e+01	17.4557	108.611063	0.000770	7.702796	2.609778	0.000308
 440	4.3681e+01	17.4845	108.877514	0.000669	6.689270	2.266386	0.000268
 441	4.3780e+01	17.5214	109.164150	0.000720	7.196033	2.438082	0.000288
 442	4.3880e+01	17.5647	109.426564	0.000659	6.587918	2.232047	0.000264
 443	4.3979e+01	17.6113	109.697052	0.000679	6.790623	2.300725	0.000272
 444	4.4078e+01	17.6401	109.931206	0.000588	5.878450	1.991673	0.000235
 445	4.4178e+01	17.6883	110.201694	0.000679	6.790623	2.300725	0.000272
 446	4.4278e+01	17.7252	110.500442	0.000750	7.500091	2.541100	0.000300
 447	4.4377e+01	17.7685	110.770930	0.000679	6.790623	2.300725	0.000272
 448	4.4477e+01	17.7958	111.025270	0.000639	6.385213	2.163369	0.000256
 449	4.4576e+01	17.8455	111.251350	0.000568	5.675745	1.922994	0.000227
 450	4.4675e+01	17.8856	111.550098	0.000750	7.500091	2.541100	0.000300
 451	4.4775e+01	17.9305	111.820586	0.000679	6.790623	2.300725	0.000272
 452	4.4874e+01	17.9578	112.082999	0.000659	6.587918	2.232047	0.000264
 453	4.4974e+01	18.0091	112.397896	0.000791	7.905501	2.678456	0.000316
 454	4.5074e+01	18.0444	112.648198	0.000628	6.283860	2.129029	0.000252
 455	4.5173e+01	18.0829	112.930798	0.000709	7.094681	2.403743	0.000284
 456	4.5273e+01	18.1262	113.140729	0.000527	5.270334	1.785638	0.000211
 457	4.5372e+01	18.1744	113.415254	0.000689	6.891976	2.335065	0.000276
 458	4.5471e+01	18.2064	113.673631	0.000649	6.486565	2.197708	0.000260
 459	4.5571e+01	18.2433	113.968342	0.000740	7.398739	2.506760	0.000296
 460	4.5670e+01	18.2850	114.230756	0.000659	6.587918	2.232047	0.000264
 461	4.5770e+01	18.3316	114.452798	0.000557	5.574392	1.888655	0.000223
 462	4.5870e+01	18.3604	114.779806	0.000821	8.209559	2.781474	0.000329
 463	4.5969e+01	18.4118	115.022034	0.000608	6.081155	2.060351	0.000243
 464	4.6069e+01	18.4439	115.280411	0.000649	6.486565	2.197708	0.000260
 465	4.6168e+01	18.4679	115.526676	0.000618	6.182508	2.094690	0.000248
 466	4.6267e+01	18.5257	115.776979	0.000628	6.283860	2.129029	0.000252
 467	4.6367e+01	18.5610	116.055541	0.000699	6.993328	2.369404	0.000280
 468	4.6467e+01	18.6027	116.305843	0.000628	6.283860	2.129029	0.000252
 469	4.6566e+01	18.6380	116.600554	0.000740	7.398739	2.506760	0.000296
 470	4.6666e+01	18.6877	116.858931	0.000649	6.486565	2.197708	0.000260
 471	4.6765e+01	18.7310	117.121345	0.000659	6.587918	2.232047	0.000264
 472	4.6864e+01	18.7567	117.383759	0.000659	6.587918	2.232047	0.000264
 473	4.6964e+01	18.7984	117.638098	0.000639	6.385213	2.163369	0.000256
 474	4.7063e+01	18.8481	117.928772	0.000730	7.297386	2.472421	0.000292
 475	4.7163e+01	18.8690	118.166963	0.000598	5.979802	2.026012	0.000239
 476	4.7263e+01	18.9123	118.421303	0.000639	6.385213	2.163369	0.000256
 477	4.7362e+01	18.9476	118.711976	0.000730	7.297386	2.472421	0.000292
 478	4.7462e+01	19.0005	118.966316	0.000639	6.385213	2.163369	0.000256
 479	4.7561e+01	19.0390	119.248915	0.000709	7.094681	2.403743	0.000284
 480	4.7660e+01	19.0823	119.523441	0.000689	6.891976	2.335065	0.000276
 481	4.7760e+01	19.1176	119.765669	0.000608	6.081155	2.060351	0.000243
 482	4.7859e+01	19.1545	119.999823	0.000588	5.878450	1.991673	0.000235
 483	4.7959e+01	19.1979	120.314719	0.000791	7.905501	2.678456	0.000316
 484	4.8059e+01	19.2540	120.528687	0.000537	5.371687	1.819977	0.000215
 485	4.8158e+01	19.2797	120.815324	0.000720	7.196033	2.438082	0.000288
 486	4.8258e+01	19.3214	121.073701	0.000649	6.486565	2.197708	0.000260
 487	4.8357e+01	19.3551	121.319966	0.000618	6.182508	2.094690	0.000248
 488	4.8456e+01	19.4000	121.594491	0.000689	6.891976	2.335065	0.000276
 489	4.8556e+01	19.4369	121.840757	0.000618	6.182508	2.094690	0.000248
 490	4.8656e+01	19.4738	122.103170	0.000659	6.587918	2.232047	0.000264
 491	4.8755e+01	19.5203	122.397881	0.000740	7.398739	2.506760	0.000296
 492	4.8855e+01	19.5588	122.632035	0.000588	5.878450	1.991673	0.000235
 493	4.8954e+01	19.5989	122.926746	0.000740	7.398739	2.506760	0.000296
 494	4.9053e+01	19.6390	123.189160	0.000659	6.587918	2.232047	0.000264
 495	4.9153e+01	19.6759	123.471759	0.000709	7.094681	2.403743	0.000284
 496	4.9252e+01	19.7144	123.709950	0.000598	5.979802	2.026012	0.000239
 497	4.9352e+01	19.7625	123.996587	0.000720	7.196033	2.438082	0.000288
 498	4.9452e+01	19.7994	124.271112	0.000689	6.891976	2.335065	0.000276
 499	4.9551e+01	19.8379	124.513340	0.000608	6.081155	2.060351	0.000243
 500	4.9651e+01	19.8797	124.775754	0.000659	6.587918	2.232047	0.000264
 501	4.9750e+01	19.9037	125.046242	0.000679	6.790623	2.300725	0.000272
 502	4.9849e+01	19.9551	125.353065	0.000770	7.702796	2.609778	0.000308
 503	4.9949e+01	19.9984	125.591256	0.000598	5.979802	2.026012	0.000239
 504	5.0048e+01	19.9567	125.425733	0.000416	4.155456	1.407907	-0.000166
 505	5.0148e+01	19.9085	125.284433	0.000355	3.547340	1.201871	-0.000142
 506	5.0248e+01	19.8732	125.098725	0.000466	4.662219	1.579602	-0.000187
 507	5.0347e+01	19.8460	124.949351	0.000375	3.750046	1.270550	-0.000150
 508	5.0447e+01	19.7914	124.804014	0.000365	3.648693	1.236211	-0.000146
 509	5.0546e+01	19.7561	124.638492	0.000416	4.155456	1.407907	-0.000166
 510	5.0645e+01	19.7289	124.456821	0.000456	4.560866	1.545263	-0.000183
 511	5.0745e+01	19.6823	124.287261	0.000426	4.256808	1.442246	-0.000170
 512	5.0844e+01	19.6326	124.053107	0.000588	5.878450	1.991673	-0.000235
 513	5.0944e+01	19.5973	123.919881	0.000334	3.344635	1.133193	-0.000134
 514	5.1044e+01	19.5492	123.734173	0.000466	4.662219	1.579602	-0.000187
 515	5.1143e+01	19.5251	123.572688	0.000405	4.054103	1.373567	-0.000162
 516	5.1242e+01	19.4706	123.362757	0.000527	5.270334	1.785638	-0.000211
 517	5.1342e+01	19.4401	123.185123	0.000446	4.459514	1.510924	-0.000179
 518	5.1441e+01	19.3968	122.999415	0.000466	4.662219	1.579602	-0.000187
 519	5.1541e+01	19.3583	122.817743	0.000456	4.560866	1.545263	-0.000183
 520	5.1641e+01	19.3182	122.644147	0.000436	4.358161	1.476585	-0.000174
 521	5.1740e+01	19.2813	122.446327	0.000497	4.966277	1.682620	-0.000199
 522	5.1840e+01	19.2428	122.292916	0.000385	3.851398	1.304889	-0.000154
 523	5.1939e+01	19.2059	122.111245	0.000456	4.560866	1.545263	-0.000183
 524	5.2038e+01	19.1658	121.905351	0.000517	5.168982	1.751298	-0.000207
 525	5.2138e+01	19.1176	121.727717	0.000446	4.459514	1.510924	-0.000179
 526	5.2237e+01	19.0807	121.529897	0.000497	4.966277	1.682620	-0.000199
 527	5.2337e+01	19.0519	121.380523	0.000375	3.750046	1.270550	-0.000150
 528	5.2437e+01	19.0086	121.150406	0.000578	5.777097	1.957334	-0.000231
 529	5.2536e+01	18.9620	120.956624	0.000486	4.864924	1.648281	-0.000195
 530	5.2636e+01	18.9251	120.795138	0.000405	4.054103	1.373567	-0.000162
 531	5.2735e+01	18.8770	120.589244	0.000517	5.168982	1.751298	-0.000207
 532	5.2834e+01	18.8449	120.387388	0.000507	5.067629	1.716959	-0.000203
 533	5.2934e+01	18.7904	120.225902	0.000405	4.054103	1.373567	-0.000162
 534	5.3033e+01	18.7631	120.052305	0.000436	4.358161	1.476585	-0.000174
 535	5.3133e+01	18.7150	119.842374	0.000527	5.270334	1.785638	-0.000211
 536	5.3233e+01	18.6765	119.656666	0.000466	4.662219	1.579602	-0.000187
 537	5.3332e+01	18.6460	119.458846	0.000497	4.966277	1.682620	-0.000199
 538	5.3431e+01	18.5995	119.265064	0.000486	4.864924	1.648281	-0.000195
 539	5.3531e+01	18.5658	119.075319	0.000476	4.763571	1.613942	-0.000191
 540	5.3630e+01	18.5225	118.893647	0.000456	4.560866	1.545263	-0.000183
 541	5.3730e+01	18.4776	118.655456	0.000598	5.979802	2.026012	-0.000239
 542	5.3830e+01	18.4503	118.530305	0.000314	3.141930	1.064515	-0.000126
 543	5.3929e+01	18.4038	118.292114	0.000598	5.979802	2.026012	-0.000239
 544	5.4029e+01	18.3637	118.122555	0.000426	4.256808	1.442246	-0.000170
 545	5.4128e+01	18.3300	117.916661	0.000517	5.168982	1.751298	-0.000207
 546	5.4227e+01	18.2850	117.674432	0.000608	6.081155	2.060351	-0.000243
 547	5.4327e+01	18.2465	117.484687	0.000476	4.763571	1.613942	-0.000191
 548	5.4426e+01	18.2000	117.303016	0.000456	4.560866	1.545263	-0.000183
 549	5.4526e+01	18.1663	117.117308	0.000466	4.662219	1.579602	-0.000187
 550	5.4626e+01	18.1230	116.927562	0.000476	4.763571	1.613942	-0.000191
 551	5.4725e+01	18.0829	116.701483	0.000568	5.675745	1.922994	-0.000227
 552	5.4825e+01	18.0476	116.503663	0.000497	4.966277	1.682620	-0.000199
 553	5.4924e+01	17.9979	116.313918	0.000476	4.763571	1.613942	-0.000191
 554	5.5023e+01	17.9770	116.059578	0.000639	6.385213	2.163369	-0.000256
 555	5.5123e+01	17.9273	115.894056	0.000416	4.155456	1.407907	-0.000166
 556	5.5222e+01	17.8904	115.688162	0.000517	5.168982	1.751298	-0.000207
 557	5.5322e+01	17.8375	115.474194	0.000537	5.371687	1.819977	-0.000215
 558	5.5422e+01	17.8054	115.272337	0.000507	5.067629	1.716959	-0.000203
 559	5.5521e+01	17.7621	115.082591	0.000476	4.763571	1.613942	-0.000191
 560	5.5620e+01	17.7188	114.900920	0.000456	4.560866	1.545263	-0.000183
 561	5.5720e+01	17.6851	114.695026	0.000517	5.168982	1.751298	-0.000207
 562	5.5819e+01	17.6434	114.472984	0.000557	5.574392	1.888655	-0.000223
 563	5.5919e+01	17.6081	114.279201	0.000486	4.864924	1.648281	-0.000195
 564	5.6019e+01	17.5696	114.036973	0.000608	6.081155	2.060351	-0.000243
 565	5.6118e+01	17.5311	113.855302	0.000456	4.560866	1.545263	-0.000183
 566	5.6218e+01	17.4829	113.637297	0.000547	5.473039	1.854316	-0.000219
 567	5.6317e+01	17.4524	113.435440	0.000507	5.067629	1.716959	-0.000203
 568	5.6416e+01	17.4027	113.229546	0.000517	5.168982	1.751298	-0.000207
 569	5.6516e+01	17.3626	113.039801	0.000476	4.763571	1.613942	-0.000191
 570	5.6615e+01	17.3257	112.805647	0.000588	5.878450	1.991673	-0.000235
 571	5.6715e+01	17.2952	112.632050	0.000436	4.358161	1.476585	-0.000174
 572	5.6815e+01	17.2423	112.385785	0.000618	6.182508	2.094690	-0.000248
 573	5.6914e+01	17.2006	112.200076	0.000466	4.662219	1.579602	-0.000187
 574	5.7014e+01	17.1637	111.998220	0.000507	5.067629	1.716959	-0.000203
 575	5.7113e+01	17.1268	111.812511	0.000466	4.662219	1.579602	-0.000187
 576	5.7212e+01	17.0835	111.598543	0.000537	5.371687	1.819977	-0.000215
 577	5.7312e+01	17.0418	111.364389	0.000588	5.878450	1.991673	-0.000235
 578	5.7411e+01	17.0049	111.154458	0.000527	5.270334	1.785638	-0.000211
 579	5.7511e+01	16.9664	110.928379	0.000568	5.675745	1.922994	-0.000227
 580	5.7611e+01	16.9279	110.779005	0.000375	3.750046	1.270550	-0.000150
 581	5.7710e+01	16.8846	110.536777	0.000608	6.081155	2.060351	-0.000243
 582	5.7809e+01	16.8541	110.302623	0.000588	5.878450	1.991673	-0.000235
 583	5.7909e+01	16.8043	110.080580	0.000557	5.574392	1.888655	-0.000223
 584	5.8008e+01	16.7674	109.894872	0.000466	4.662219	1.579602	-0.000187
 585	5.8108e+01	16.7273	109.697052	0.000497	4.966277	1.682620	-0.000199
 586	5.8208e+01	16.6872	109.466936	0.000578	5.777097	1.957334	-0.000231
 587	5.8307e+01	16.6391	109.232782	0.000588	5.878450	1.991673	-0.000235
 588	5.8407e+01	16.6118	109.038999	0.000486	4.864924	1.648281	-0.000195
 589	5.8506e+01	16.5685	108.837142	0.000507	5.067629	1.716959	-0.000203
 590	5.8605e+01	16.5252	108.643360	0.000486	4.864924	1.648281	-0.000195
 591	5.8705e+01	16.4851	108.380946	0.000659	6.587918	2.232047	-0.000264
 592	5.8804e+01	16.4546	108.199275	0.000456	4.560866	1.545263	-0.000183
 593	5.8904e+01	16.3937	107.985307	0.000537	5.371687	1.819977	-0.000215
 594	5.9004e+01	16.3776	107.743079	0.000608	6.081155	2.060351	-0.000243
 595	5.9103e+01	16.3295	107.565445	0.000446	4.459514	1.510924	-0.000179
 596	5.9203e+01	16.2894	107.343402	0.000557	5.574392	1.888655	-0.000223
 597	5.9302e+01	16.2509	107.089063	0.000639	6.385213	2.163369	-0.000256
 598	5.9401e+01	16.1995	106.931614	0.000395	3.952751	1.339228	-0.000158
 599	5.9501e+01	16.1723	106.693423	0.000598	5.979802	2.026012	-0.000239
 600	5.9600e+01	16.1241	106.435047	0.000649	6.486565	2.197708	-0.000260
 601	5.9700e+01	16.0937	106.269524	0.000416	4.155456	1.407907	-0.000166
 602	5.9800e+01	16.0471	106.015184	0.000639	6.385213	2.163369	-0.000256
 603	5.9899e+01	16.0118	105.841588	0.000436	4.358161	1.476585	-0.000174
 604	5.9998e+01	15.9814	105.603397	0.000598	5.979802	2.026012	-0.000239
 605	6.0098e+01	15.9364	105.409614	0.000486	4.864924	1.648281	-0.000195
 606	6.0197e+01	15.8947	105.171423	0.000598	5.979802	2.026012	-0.000239
 607	6.0297e+01	15.8514	104.945344	0.000568	5.675745	1.922994	-0.000227
 608	6.0397e+01	15.8097	104.727338	0.000547	5.473039	1.854316	-0.000219
 609	6.0496e+01	15.7728	104.513370	0.000537	5.371687	1.819977	-0.000215
 610	6.0596e+01	15.7439	104.323625	0.000476	4.763571	1.613942	-0.000191
 611	6.0695e+01	15.6990	104.077359	0.000618	6.182508	2.094690	-0.000248
 612	6.0794e+01	15.6557	103.871465	0.000517	5.168982	1.751298	-0.000207
 613	6.0894e+01	15.6076	103.645386	0.000568	5.675745	1.922994	-0.000227
 614	6.0993e+01	15.5723	103.431418	0.000537	5.371687	1.819977	-0.000215
 615	6.1093e+01	15.5290	103.225524	0.000517	5.168982	1.751298	-0.000207
 616	6.1193e+01	15.4905	103.003481	0.000557	5.574392	1.888655	-0.000223
 617	6.1292e+01	15.4552	102.769327	0.000588	5.878450	1.991673	-0.000235
 618	6.1392e+01	15.4103	102.523062	0.000618	6.182508	2.094690	-0.000248
 619	6.1491e+01	15.3750	102.329280	0.000486	4.864924	1.648281	-0.000195
 620	6.1590e+01	15.3284	102.095126	0.000588	5.878450	1.991673	-0.000235
 621	6.1690e+01	15.2948	101.869046	0.000568	5.675745	1.922994	-0.000227
 622	6.1789e+01	15.2530	101.634892	0.000588	5.878450	1.991673	-0.000235
 623	6.1889e+01	15.2129	101.449184	0.000466	4.662219	1.579602	-0.000187
 624	6.1989e+01	15.1728	101.210993	0.000598	5.979802	2.026012	-0.000239
 625	6.2088e+01	15.1424	100.956653	0.000639	6.385213	2.163369	-0.000256
 626	6.2188e+01	15.0926	100.730574	0.000568	5.675745	1.922994	-0.000227
 627	6.2287e+01	15.0573	100.516606	0.000537	5.371687	1.819977	-0.000215
 628	6.2386e+01	15.0252	100.270340	0.000618	6.182508	2.094690	-0.000248
 629	6.2486e+01	14.9723	100.044261	0.000568	5.675745	1.922994	-0.000227
 630	6.2586e+01	14.9386	99.806070	0.000598	5.979802	2.026012	-0.000239
 631	6.2685e+01	14.8921	99.600176	0.000517	5.168982	1.751298	-0.000207
 632	6.2785e+01	14.8568	99.361985	0.000598	5.979802	2.026012	-0.000239
 633	6.2884e+01	14.8119	99.168202	0.000486	4.864924	1.648281	-0.000195
 634	6.2983e+01	14.7814	98.930011	0.000598	5.979802	2.026012	-0.000239
 635	6.3083e+01	14.7413	98.712006	0.000547	5.473039	1.854316	-0.000219
 636	6.3182e+01	14.6948	98.453629	0.000649	6.486565	2.197708	-0.000260
 637	6.3282e+01	14.6611	98.263884	0.000476	4.763571	1.613942	-0.000191
 638	6.3382e+01	14.6258	98.025693	0.000598	5.979802	2.026012	-0.000239
 639	6.3481e+01	14.5777	97.771353	0.000639	6.385213	2.163369	-0.000256
 640	6.3581e+01	14.5408	97.541237	0.000578	5.777097	1.957334	-0.000231
 641	6.3680e+01	14.4975	97.307083	0.000588	5.878450	1.991673	-0.000235
 642	6.3779e+01	14.4622	97.060817	0.000618	6.182508	2.094690	-0.000248
 643	6.3879e+01	14.4140	96.850886	0.000527	5.270334	1.785638	-0.000211
 644	6.3978e+01	14.3739	96.628844	0.000557	5.574392	1.888655	-0.000223
 645	6.4078e+01	14.3354	96.386616	0.000608	6.081155	2.060351	-0.000243
 646	6.4177e+01	14.3001	96.128239	0.000649	6.486565	2.197708	-0.000260
 647	6.4277e+01	14.2584	95.886011	0.000608	6.081155	2.060351	-0.000243
 648	6.4376e+01	14.2263	95.680117	0.000517	5.168982	1.751298	-0.000207
 649	6.4476e+01	14.1718	95.429815	0.000628	6.283860	2.129029	-0.000252
 650	6.4576e+01	14.1413	95.211809	0.000547	5.473039	1.854316	-0.000219
 651	6.4675e+01	14.0948	94.973618	0.000598	5.979802	2.026012	-0.000239
 652	6.4775e+01	14.0531	94.767724	0.000517	5.168982	1.751298	-0.000207
 653	6.4874e+01	14.0210	94.481088	0.000720	7.196033	2.438082	-0.000288
 654	6.4974e+01	13.9793	94.275194	0.000517	5.168982	1.751298	-0.000207
 655	6.5073e+01	13.9344	94.049114	0.000568	5.675745	1.922994	-0.000227
 656	6.5172e+01	13.9007	93.786700	0.000659	6.587918	2.232047	-0.000264
 657	6.5272e+01	13.8542	93.556584	0.000578	5.777097	1.957334	-0.000231
 658	6.5371e+01	13.8221	93.290133	0.000669	6.689270	2.266386	-0.000268
 659	6.5471e+01	13.7836	93.080202	0.000527	5.270334	1.785638	-0.000211
 660	6.5570e+01	13.7386	92.858159	0.000557	5.574392	1.888655	-0.000223
 661	6.5670e+01	13.6985	92.603820	0.000639	6.385213	2.163369	-0.000256
 662	6.5769e+01	13.6616	92.373703	0.000578	5.777097	1.957334	-0.000231
 663	6.5869e+01	13.6183	92.123400	0.000628	6.283860	2.129029	-0.000252
 664	6.5969e+01	13.5782	91.873098	0.000628	6.283860	2.129029	-0.000252
 665	6.6068e+01	13.5397	91.638944	0.000588	5.878450	1.991673	-0.000235
 666	6.6168e+01	13.5028	91.392679	0.000618	6.182508	2.094690	-0.000248
 667	6.6267e+01	13.4691	91.174674	0.000547	5.473039	1.854316	-0.000219
 668	6.6367e+01	13.4242	90.896111	0.000699	6.993328	2.369404	-0.000280
 669	6.6466e+01	13.3793	90.718477	0.000446	4.459514	1.510924	-0.000179
 670	6.6566e+01	13.3488	90.407618	0.000780	7.804149	2.644117	-0.000312
 671	6.6665e+01	13.3023	90.185575	0.000557	5.574392	1.888655	-0.000223
 672	6.6764e+01	13.2622	89.991793	0.000486	4.864924	1.648281	-0.000195
 673	6.6864e+01	13.2253	89.689008	0.000760	7.601444	2.575439	-0.000304
 674	6.6963e+01	13.1804	89.446779	0.000608	6.081155	2.060351	-0.000243
 675	6.7063e+01	13.1371	89.216663	0.000578	5.777097	1.957334	-0.000231
 676	6.7162e+01	13.1034	88.978472	0.000598	5.979802	2.026012	-0.000239
 677	6.7262e+01	13.0585	88.732206	0.000618	6.182508	2.094690	-0.000248
 678	6.7362e+01	13.0232	88.498053	0.000588	5.878450	1.991673	-0.000235
 679	6.7461e+01	12.9847	88.251787	0.000618	6.182508	2.094690	-0.000248
 680	6.7561e+01	12.9510	88.021670	0.000578	5.777097	1.957334	-0.000231
 681	6.7660e+01	12.9012	87.791554	0.000578	5.777097	1.957334	-0.000231
 682	6.7760e+01	12.8659	87.529140	0.000659	6.587918	2.232047	-0.000264
 683	6.7859e+01	12.8242	87.270763	0.000649	6.486565	2.197708	-0.000260
 684	6.7959e+01	12.7809	87.101204	0.000426	4.256808	1.442246	-0.000170
 685	6.8058e+01	12.7472	86.818604	0.000709	7.094681	2.403743	-0.000284
 686	6.8157e+01	12.7216	86.536005	0.000709	7.094681	2.403743	-0.000284
 687	6.8257e+01	12.6638	86.313962	0.000557	5.574392	1.888655	-0.000223
 688	6.8356e+01	12.6317	86.071734	0.000608	6.081155	2.060351	-0.000243
 689	6.8456e+01	12.5852	85.789134	0.000709	7.094681	2.403743	-0.000284
 690	6.8555e+01	12.5499	85.571129	0.000547	5.473039	1.854316	-0.000219
 691	6.8655e+01	12.5082	85.316790	0.000639	6.385213	2.163369	-0.000256
 692	6.8754e+01	12.4681	85.050339	0.000669	6.689270	2.266386	-0.000268
 693	6.8854e+01	12.4296	84.840408	0.000527	5.270334	1.785638	-0.000211
 694	6.8954e+01	12.3959	84.582031	0.000649	6.486565	2.197708	-0.000260
 695	6.9053e+01	12.3478	84.343840	0.000598	5.979802	2.026012	-0.000239
 696	6.9153e+01	12.3029	84.089500	0.000639	6.385213	2.163369	-0.000256
 697	6.9252e+01	12.2756	83.851309	0.000598	5.979802	2.026012	-0.000239
 698	6.9352e+01	12.2259	83.588895	0.000659	6.587918	2.232047	-0.000264
 699	6.9451e+01	12.1793	83.346667	0.000608	6.081155	2.060351	-0.000243
 700	6.9550e+01	12.1537	83.108476	0.000598	5.979802	2.026012	-0.000239
 701	6.9650e+01	12.1136	82.866248	0.000608	6.081155	2.060351	-0.000243
 702	6.9749e+01	12.0686	82.611909	0.000639	6.385213	2.163369	-0.000256
 703	6.9849e+01	12.0366	82.353532	0.000649	6.486565	2.197708	-0.000260
 704	6.9948e+01	11.9852	82.103230	0.000628	6.283860	2.129029	-0.000252
 705	7.0048e+01	11.9531	81.869076	0.000588	5.878450	1.991673	-0.000235
 706	7.0147e+01	11.9146	81.614736	0.000639	6.385213	2.163369	-0.000256
 707	7.0247e+01	11.8713	81.348285	0.000669	6.689270	2.266386	-0.000268
 708	7.0347e+01	11.8296	81.122206	0.000568	5.675745	1.922994	-0.000227
 709	7.0446e+01	11.7943	80.916312	0.000517	5.168982	1.751298	-0.000207
 710	7.0546e+01	11.7430	80.597378	0.000801	8.006854	2.712796	-0.000321
 711	7.0645e+01	11.7045	80.371298	0.000568	5.675745	1.922994	-0.000227
 712	7.0745e+01	11.6740	80.125033	0.000618	6.182508	2.094690	-0.000248
 713	7.0844e+01	11.6259	79.874731	0.000628	6.283860	2.129029	-0.000252
 714	7.0944e+01	11.5810	79.612317	0.000659	6.587918	2.232047	-0.000264
 715	7.1043e+01	11.5537	79.345866	0.000669	6.689270	2.266386	-0.000268
 716	7.1142e+01	11.5088	79.127860	0.000547	5.473039	1.854316	-0.000219
 717	7.1242e+01	11.4735	78.873521	0.000639	6.385213	2.163369	-0.000256
 718	7.1341e+01	11.4286	78.590921	0.000709	7.094681	2.403743	-0.000284
 719	7.1441e+01	11.3917	78.393102	0.000497	4.966277	1.682620	-0.000199
 720	7.1540e+01	11.3596	78.110502	0.000709	7.094681	2.403743	-0.000284
 721	7.1640e+01	11.3163	77.872311	0.000598	5.979802	2.026012	-0.000239
 722	7.1740e+01	11.2681	77.605860	0.000669	6.689270	2.266386	-0.000268
 723	7.1839e+01	11.2264	77.375744	0.000578	5.777097	1.957334	-0.000231
 724	7.1939e+01	11.1911	77.141590	0.000588	5.878450	1.991673	-0.000235
 725	7.2038e+01	11.1478	76.907436	0.000588	5.878450	1.991673	-0.000235
 726	7.2138e+01	11.1077	76.600613	0.000770	7.702796	2.609778	-0.000308
 727	7.2237e+01	11.0676	76.366460	0.000588	5.878450	1.991673	-0.000235
 728	7.2337e+01	11.0339	76.116157	0.000628	6.283860	2.129029	-0.000252
 729	7.2436e+01	10.9906	75.865855	0.000628	6.283860	2.129029	-0.000252
 730	7.2535e+01	10.9553	75.615552	0.000628	6.283860	2.129029	-0.000252
 731	7.2635e+01	10.9136	75.369287	0.000618	6.182508	2.094690	-0.000248
 732	7.2734e+01	10.8703	75.114948	0.000639	6.385213	2.163369	-0.000256
 733	7.2834e+01	10.8446	74.868682	0.000618	6.182508	2.094690	-0.000248
 734	7.2933e+01	10.7997	74.602231	0.000669	6.689270	2.266386	-0.000268
 735	7.3033e+01	10.7612	74.400375	0.000507	5.067629	1.716959	-0.000203
 736	7.3132e+01	10.7115	74.081441	0.000801	8.006854	2.712796	-0.000321
 737	7.3232e+01	10.6746	73.843250	0.000598	5.979802	2.026012	-0.000239
 738	7.3332e+01	10.6377	73.617170	0.000568	5.675745	1.922994	-0.000227
 739	7.3431e+01	10.6008	73.338608	0.000699	6.993328	2.369404	-0.000280
 740	7.3531e+01	10.5591	73.104454	0.000588	5.878450	1.991673	-0.000235
 741	7.3630e+01	10.5109	72.854152	0.000628	6.283860	2.129029	-0.000252
 742	7.3730e+01	10.4869	72.583663	0.000679	6.790623	2.300725	-0.000272
 743	7.3829e+01	10.4387	72.337398	0.000618	6.182508	2.094690	-0.000248
 744	7.3928e+01	10.3970	72.066910	0.000679	6.790623	2.300725	-0.000272
 745	7.4028e+01	10.3553	71.828719	0.000598	5.979802	2.026012	-0.000239
 746	7.4127e+01	10.3136	71.558231	0.000679	6.790623	2.300725	-0.000272
 747	7.4227e+01	10.2783	71.307929	0.000628	6.283860	2.129029	-0.000252
 748	7.4326e+01	10.2382	71.033403	0.000689	6.891976	2.335065	-0.000276
 749	7.4426e+01	10.2013	70.819435	0.000537	5.371687	1.819977	-0.000215
 750	7.4525e+01	10.1596	70.540873	0.000699	6.993328	2.369404	-0.000280
 751	7.4625e+01	10.1227	70.286533	0.000639	6.385213	2.163369	-0.000256
 752	7.4725e+01	10.0810	70.064491	0.000557	5.574392	1.888655	-0.000223
 753	7.4824e+01	10.0361	69.794003	0.000679	6.790623	2.300725	-0.000272
 754	7.4924e+01	9.9880	69.523515	0.000679	6.790623	2.300725	-0.000272
 755	7.5023e+01	9.9446	69.301472	0.000557	5.574392	1.888655	-0.000223
 756	7.5123e+01	9.9077	69.014835	0.000720	7.196033	2.438082	-0.000288
 757	7.5222e+01	9.8741	68.752422	0.000659	6.587918	2.232047	-0.000264
 758	7.5322e+01	9.8307	68.538453	0.000537	5.371687	1.819977	-0.000215
 759	7.5421e+01	9.7987	68.251817	0.000720	7.196033	2.438082	-0.000288
 760	7.5520e+01	9.7489	67.981329	0.000679	6.790623	2.300725	-0.000272
 761	7.5620e+01	9.7152	67.718915	0.000659	6.587918	2.232047	-0.000264
 762	7.5719e+01	9.6815	67.484761	0.000588	5.878450	1.991673	-0.000235
 763	7.5819e+01	9.6414	67.230421	0.000639	6.385213	2.163369	-0.000256
 764	7.5918e+01	9.5837	66.959933	0.000679	6.790623	2.300725	-0.000272
 765	7.6018e+01	9.5612	66.709631	0.000628	6.283860	2.129029	-0.000252
 766	7.6118e+01	9.5195	66.467403	0.000608	6.081155	2.060351	-0.000243
 767	7.6217e+01	9.4826	66.204989	0.000659	6.587918	2.232047	-0.000264
 768	7.6317e+01	9.4329	65.954687	0.000628	6.283860	2.129029	-0.000252
 769	7.6416e+01	9.4024	65.708421	0.000618	6.182508	2.094690	-0.000248
 770	7.6516e+01	9.3543	65.413710	0.000740	7.398739	2.506760	-0.000296
 771	7.6615e+01	9.3238	65.131111	0.000709	7.094681	2.403743	-0.000284
 772	7.6715e+01	9.2805	64.900994	0.000578	5.777097	1.957334	-0.000231
 773	7.6814e+01	9.2372	64.654729	0.000618	6.182508	2.094690	-0.000248
 774	7.6913e+01	9.2019	64.335795	0.000801	8.006854	2.712796	-0.000321
 775	7.7013e+01	9.1602	64.105678	0.000578	5.777097	1.957334	-0.000231
 776	7.7112e+01	9.1249	63.879599	0.000568	5.675745	1.922994	-0.000227
 777	7.7212e+01	9.0800	63.588925	0.000730	7.297386	2.472421	-0.000292
 778	7.7311e+01	9.0431	63.383031	0.000517	5.168982	1.751298	-0.000207
 779	7.7411e+01	9.0030	63.088320	0.000740	7.398739	2.506760	-0.000296
 780	7.7510e+01	8.9580	62.825906	0.000659	6.587918	2.232047	-0.000264
 781	7.7610e+01	8.9243	62.575604	0.000628	6.283860	2.129029	-0.000252
 782	7.7710e+01	8.8794	62.313190	0.000659	6.587918	2.232047	-0.000264
 783	7.7809e+01	8.8409	62.030591	0.000709	7.094681	2.403743	-0.000284
 784	7.7909e+01	8.8056	61.780288	0.000628	6.283860	2.129029	-0.000252
 785	7.8008e+01	8.7591	61.505763	0.000689	6.891976	2.335065	-0.000276
 786	7.8108e+01	8.7110	61.255461	0.000628	6.283860	2.129029	-0.000252
 787	7.8207e+01	8.6853	60.984972	0.000679	6.790623	2.300725	-0.000272
 788	7.8306e+01	8.6452	60.734670	0.000628	6.283860	2.129029	-0.000252
 789	7.8406e+01	8.6083	60.484368	0.000628	6.283860	2.129029	-0.000252
 790	7.8505e+01	8.5666	60.213880	0.000679	6.790623	2.300725	-0.000272
 791	7.8605e+01	8.5233	59.919169	0.000740	7.398739	2.506760	-0.000296
 792	7.8704e+01	8.4768	59.701163	0.000547	5.473039	1.854316	-0.000219
 793	7.8804e+01	8.4447	59.434712	0.000669	6.689270	2.266386	-0.000268
 794	7.8903e+01	8.3950	59.131927	0.000760	7.601444	2.575439	-0.000304
 795	7.9003e+01	8.3581	58.873550	0.000649	6.486565	2.197708	-0.000260
 796	7.9103e+01	8.3212	58.603062	0.000679	6.790623	2.300725	-0.000272
 797	7.9202e+01	8.2794	58.360834	0.000608	6.081155	2.060351	-0.000243
 798	7.9302e+01	8.2425	58.074198	0.000720	7.196033	2.438082	-0.000288
 799	7.9401e+01	8.2057	57.827932	0.000618	6.182508	2.094690	-0.000248
 800	7.9501e+01	8.1639	57.541296	0.000720	7.196033	2.438082	-0.000288
 801	7.9600e+01	8.1319	57.295030	0.000618	6.182508	2.094690	-0.000248
 802	7.9700e+01	8.0837	57.000319	0.000740	7.398739	2.506760	-0.000296
 803	7.9799e+01	8.0420	56.758091	0.000608	6.081155	2.060351	-0.000243
 804	7.9898e+01	8.0147	56.455306	0.000760	7.601444	2.575439	-0.000304
 805	7.9998e+01	7.9682	56.261524	0.000486	4.864924	1.648281	-0.000195
 806	8.0097e+01	7.9265	55.946627	0.000791	7.905501	2.678456	-0.000316
 807	8.0197e+01	7.8864	55.696325	0.000628	6.283860	2.129029	-0.000252
 808	8.0296e+01	7.8447	55.413725	0.000709	7.094681	2.403743	-0.000284
 809	8.0396e+01	7.8046	55.143237	0.000679	6.790623	2.300725	-0.000272
 810	8.0496e+01	7.7693	54.901009	0.000608	6.081155	2.060351	-0.000243
 811	8.0595e+01	7.7276	54.586112	0.000791	7.905501	2.678456	-0.000316
 812	8.0695e+01	7.6907	54.360033	0.000568	5.675745	1.922994	-0.000227
 813	8.0794e+01	7.6458	54.081470	0.000699	6.993328	2.369404	-0.000280
 814	8.0894e+01	7.6009	53.823094	0.000649	6.486565	2.197708	-0.000260
 815	8.0993e+01	7.5672	53.512234	0.000780	7.804149	2.644117	-0.000312
 816	8.1093e+01	7.5287	53.261932	0.000628	6.283860	2.129029	-0.000252
 817	8.1192e+01	7.4805	52.979332	0.000709	7.094681	2.403743	-0.000284
 818	8.1291e+01	7.4452	52.708844	0.000679	6.790623	2.300725	-0.000272
 819	8.1391e+01	7.4083	52.430282	0.000699	6.993328	2.369404	-0.000280
 820	8.1490e+01	7.3586	52.115385	0.000791	7.905501	2.678456	-0.000316
 821	8.1590e+01	7.3346	51.921603	0.000486	4.864924	1.648281	-0.000195
 822	8.1689e+01	7.2848	51.622855	0.000750	7.500091	2.541100	-0.000300
 823	8.1789e+01	7.2463	51.348329	0.000689	6.891976	2.335065	-0.000276
 824	8.1888e+01	7.2078	51.077841	0.000679	6.790623	2.300725	-0.000272
 825	8.1988e+01	7.1629	50.807353	0.000679	6.790623	2.300725	-0.000272
 826	8.2088e+01	7.1292	50.548977	0.000649	6.486565	2.197708	-0.000260
 827	8.2187e+01	7.0843	50.270414	0.000699	6.993328	2.369404	-0.000280
 828	8.2287e+01	7.0458	49.999926	0.000679	6.790623	2.300725	-0.000272
 829	8.2386e+01	7.0089	49.709252	0.000730	7.297386	2.472421	-0.000292
 830	8.2486e+01	6.9848	49.458950	0.000628	6.283860	2.129029	-0.000252
 831	8.2585e+01	6.9255	49.160202	0.000750	7.500091	2.541100	-0.000300
 832	8.2684e+01	6.8902	48.881640	0.000699	6.993328	2.369404	-0.000280
 833	8.2784e+01	6.8485	48.586929	0.000740	7.398739	2.506760	-0.000296
 834	8.2883e+01	6.8084	48.328552	0.000649	6.486565	2.197708	-0.000260
 835	8.2983e+01	6.7715	48.049990	0.000699	6.993328	2.369404	-0.000280
 836	8.3082e+01	6.7378	47.787576	0.000659	6.587918	2.232047	-0.000264
 837	8.3182e+01	6.6913	47.533236	0.000639	6.385213	2.163369	-0.000256
 838	8.3281e+01	6.6511	47.214302	0.000801	8.006854	2.712796	-0.000321
 839	8.3381e+01	6.5998	46.980149	0.000588	5.878450	1.991673	-0.000235
 840	8.3481e+01	6.5709	46.681401	0.000750	7.500091	2.541100	-0.000300
 841	8.3580e+01	6.5276	46.427061	0.000639	6.385213	2.163369	-0.000256
 842	8.3680e+01	6.4939	46.140424	0.000720	7.196033	2.438082	-0.000288
 843	8.3779e+01	6.4442	45.861862	0.000699	6.993328	2.369404	-0.000280
 844	8.3879e+01	6.4121	45.611560	0.000628	6.283860	2.129029	-0.000252
 845	8.3978e+01	6.3640	45.292626	0.000801	8.006854	2.712796	-0.000321
 846	8.4078e+01	6.3335	45.038286	0.000639	6.385213	2.163369	-0.000256
 847	8.4177e+01	6.2918	44.787984	0.000628	6.283860	2.129029	-0.000252
 848	8.4276e+01	6.2437	44.501347	0.000720	7.196033	2.438082	-0.000288
 849	8.4376e+01	6.2116	44.218748	0.000709	7.094681	2.403743	-0.000284
 850	8.4475e+01	6.1747	43.960371	0.000649	6.486565	2.197708	-0.000260
 851	8.4575e+01	6.1330	43.653549	0.000770	7.702796	2.609778	-0.000308
 852	8.4674e+01	6.0961	43.407283	0.000618	6.182508	2.094690	-0.000248
 853	8.4774e+01	6.0624	43.112573	0.000740	7.398739	2.506760	-0.000296
 854	8.4874e+01	6.0095	42.821899	0.000730	7.297386	2.472421	-0.000292
 855	8.4973e+01	5.9774	42.523151	0.000750	7.500091	2.541100	-0.000300
 856	8.5073e+01	5.9341	42.280923	0.000608	6.081155	2.060351	-0.000243
 857	8.5172e+01	5.8956	41.974100	0.000770	7.702796	2.609778	-0.000308
 858	8.5272e+01	5.8474	41.691501	0.000709	7.094681	2.403743	-0.000284
 859	8.5371e+01	5.8218	41.457347	0.000588	5.878450	1.991673	-0.000235
 860	8.5471e+01	5.7704	41.186859	0.000679	6.790623	2.300725	-0.000272
 861	8.5570e+01	5.7255	40.875999	0.000780	7.804149	2.644117	-0.000312
 862	8.5669e+01	5.6950	40.629734	0.000618	6.182508	2.094690	-0.000248
 863	8.5769e+01	5.6517	40.322912	0.000770	7.702796	2.609778	-0.000308
 864	8.5868e+01	5.6164	40.032238	0.000730	7.297386	2.472421	-0.000292
 865	8.5968e+01	5.5779	39.765787	0.000669	6.689270	2.266386	-0.000268
 866	8.6067e+01	5.5394	39.454928	0.000780	7.804149	2.644117	-0.000312
 867	8.6167e+01	5.4945	39.180402	0.000689	6.891976	2.335065	-0.000276
 868	8.6266e+01	5.4528	38.930100	0.000628	6.283860	2.129029	-0.000252
 869	8.6366e+01	5.4255	38.643463	0.000720	7.196033	2.438082	-0.000288
 870	8.6466e+01	5.3694	38.385087	0.000649	6.486565	2.197708	-0.000260
 871	8.6565e+01	5.3405	38.094413	0.000730	7.297386	2.472421	-0.000292
 872	8.6665e+01	5.2956	37.827962	0.000669	6.689270	2.266386	-0.000268
 873	8.6764e+01	5.2635	37.553437	0.000689	6.891976	2.335065	-0.000276
 874	8.6864e+01	5.2154	37.242577	0.000780	7.804149	2.644117	-0.000312
 875	8.6963e+01	5.1817	36.964015	0.000699	6.993328	2.369404	-0.000280
 876	8.7063e+01	5.1384	36.713712	0.000628	6.283860	2.129029	-0.000252
 877	8.7162e+01	5.0950	36.447261	0.000669	6.689270	2.266386	-0.000268
 878	8.7261e+01	5.0517	36.148513	0.000750	7.500091	2.541100	-0.000300
 879	8.7361e+01	5.0196	35.817468	0.000831	8.310912	2.815813	-0.000333
 880	8.7460e+01	4.9731	35.555054	0.000659	6.587918	2.232047	-0.000264
 881	8.7560e+01	4.9426	35.312826	0.000608	6.081155	2.060351	-0.000243
 882	8.7659e+01	4.8961	35.022153	0.000730	7.297386	2.472421	-0.000292
 883	8.7759e+01	4.8672	34.731479	0.000730	7.297386	2.472421	-0.000292
 884	8.7859e+01	4.8223	34.469065	0.000659	6.587918	2.232047	-0.000264
 885	8.7958e+01	4.7726	34.158205	0.000780	7.804149	2.644117	-0.000312
 886	8.8058e+01	4.7373	33.887717	0.000679	6.790623	2.300725	-0.000272
 887	8.8157e+01	4.7004	33.613192	0.000689	6.891976	2.335065	-0.000276
 888	8.8257e+01	4.6571	33.338667	0.000689	6.891976	2.335065	-0.000276
 889	8.8356e+01	4.6122	33.076253	0.000659	6.587918	2.232047	-0.000264
 890	8.8456e+01	4.5769	32.773468	0.000760	7.601444	2.575439	-0.000304
 891	8.8555e+01	4.5384	32.531240	0.000608	6.081155	2.060351	-0.000243
 892	8.8654e+01	4.4983	32.264789	0.000669	6.689270	2.266386	-0.000268
 893	8.8754e+01	4.4566	31.966041	0.000750	7.500091	2.541100	-0.000300
 894	8.8853e+01	4.4181	31.695553	0.000679	6.790623	2.300725	-0.000272
 895	8.8953e+01	4.3844	31.412953	0.000709	7.094681	2.403743	-0.000284
 896	8.9052e+01	4.3394	31.118242	0.000740	7.398739	2.506760	-0.000296
 897	8.9152e+01	4.3009	30.843717	0.000689	6.891976	2.335065	-0.000276
 898	8.9251e+01	4.2576	30.605526	0.000598	5.979802	2.026012	-0.000239
 899	8.9351e+01	4.2239	30.262369	0.000861	8.614969	2.918831	-0.000345
 900	8.9451e+01	4.1694	30.016104	0.000618	6.182508	2.094690	-0.000248
 901	8.9550e+01	4.1421	29.741579	0.000689	6.891976	2.335065	-0.000276
 902	8.9650e+01	4.1020	29.458979	0.000709	7.094681	2.403743	-0.000284
 903	8.9749e+01	4.0619	29.144083	0.000791	7.905501	2.678456	-0.000316
 904	8.9849e+01	4.0218	28.909929	0.000588	5.878450	1.991673	-0.000235
 905	8.9948e+01	3.9833	28.595032	0.000791	7.905501	2.678456	-0.000316
 906	9.0047e+01	3.9464	28.284173	0.000780	7.804149	2.644117	-0.000312
 907	9.0147e+01	3.9047	27.977351	0.000770	7.702796	2.609778	-0.000308
 908	9.0246e+01	3.8614	27.759345	0.000547	5.473039	1.854316	-0.000219
 909	9.0346e+01	3.8213	27.496932	0.000659	6.587918	2.232047	-0.000264
 910	9.0445e+01	3.7796	27.186072	0.000780	7.804149	2.644117	-0.000312
 911	9.0545e+01	3.7411	26.927695	0.000649	6.486565	2.197708	-0.000260
 912	9.0644e+01	3.6945	26.612799	0.000791	7.905501	2.678456	-0.000316
 913	9.0744e+01	3.6625	26.350385	0.000659	6.587918	2.232047	-0.000264
 914	9.0844e+01	3.6191	26.071823	0.000699	6.993328	2.369404	-0.000280
 915	9.0943e+01	3.5855	25.809409	0.000659	6.587918	2.232047	-0.000264
 916	9.1043e+01	3.5389	25.510661	0.000750	7.500091	2.541100	-0.000300
 917	9.1142e+01	3.4956	25.219987	0.000730	7.297386	2.472421	-0.000292
 918	9.1242e+01	3.4700	24.897016	0.000811	8.108207	2.747135	-0.000325
 919	9.1341e+01	3.4266	24.650751	0.000618	6.182508	2.094690	-0.000248
 920	9.1441e+01	3.3833	24.372188	0.000699	6.993328	2.369404	-0.000280
 921	9.1540e+01	3.3480	24.073440	0.000750	7.500091	2.541100	-0.000300
 922	9.1639e+01	3.3111	23.774692	0.000750	7.500091	2.541100	-0.000300
 923	9.1739e+01	3.2662	23.536501	0.000598	5.979802	2.026012	-0.000239
 924	9.1838e+01	3.2181	23.257939	0.000699	6.993328	2.369404	-0.000280
 925	9.1938e+01	3.1812	22.939005	0.000801	8.006854	2.712796	-0.000321
 926	9.2037e+01	3.1459	22.680629	0.000649	6.486565	2.197708	-0.000260
 927	9.2137e+01	3.1074	22.393992	0.000720	7.196033	2.438082	-0.000288
 928	9.2237e+01	3.0593	22.131578	0.000659	6.587918	2.232047	-0.000264
 929	9.2336e+01	3.0288	21.848979	0.000709	7.094681	2.403743	-0.000284
 930	9.2436e+01	2.9759	21.574453	0.000689	6.891976	2.335065	-0.000276
 931	9.2535e+01	2.9438	21.316077	0.000649	6.486565	2.197708	-0.000260
 932	9.2635e+01	2.9053	21.025403	0.000730	7.297386	2.472421	-0.000292
 933	9.2734e+01	2.8684	20.726655	0.000750	7.500091	2.541100	-0.000300
 934	9.2834e+01	2.8347	20.435981	0.000730	7.297386	2.472421	-0.000292
 935	9.2933e+01	2.7898	20.161456	0.000689	6.891976	2.335065	-0.000276
 936	9.3032e+01	2.7432	19.899042	0.000659	6.587918	2.232047	-0.000264
 937	9.3132e+01	2.7144	19.580108	0.000801	8.006854	2.712796	-0.000321
 938	9.3231e+01	2.6630	19.329806	0.000628	6.283860	2.129029	-0.000252
 939	9.3331e+01	2.6245	19.027021	0.000760	7.601444	2.575439	-0.000304
 940	9.3430e+01	2.5940	18.732310	0.000740	7.398739	2.506760	-0.000296
 941	9.3530e+01	2.5363	18.433562	0.000750	7.500091	2.541100	-0.000300
 942	9.3629e+01	2.5154	18.154999	0.000699	6.993328	2.369404	-0.000280
 943	9.3729e+01	2.4593	17.892586	0.000659	6.587918	2.232047	-0.000264
 944	9.3829e+01	2.4256	17.614023	0.000699	6.993328	2.369404	-0.000280
 945	9.3928e+01	2.3839	17.335461	0.000699	6.993328	2.369404	-0.000280
 946	9.4028e+01	2.3422	17.016527	0.000801	8.006854	2.712796	-0.000321
 947	9.4127e+01	2.2989	16.766225	0.000628	6.283860	2.129029	-0.000252
 948	9.4227e+01	2.2684	16.475551	0.000730	7.297386	2.472421	-0.000292
 949	9.4326e+01	2.2251	16.156617	0.000801	8.006854	2.712796	-0.000321
 950	9.4425e+01	2.1882	15.914389	0.000608	6.081155	2.060351	-0.000243
 951	9.4525e+01	2.1449	15.635827	0.000699	6.993328	2.369404	-0.000280
 952	9.4624e+01	2.1176	15.304782	0.000831	8.310912	2.815813	-0.000333
 953	9.4724e+01	2.0727	15.066591	0.000598	5.979802	2.026012	-0.000239
 954	9.4823e+01	2.0278	14.743620	0.000811	8.108207	2.747135	-0.000325
 955	9.4923e+01	1.9892	14.481206	0.000659	6.587918	2.232047	-0.000264
 956	9.5022e+01	1.9459	14.146124	0.000841	8.412264	2.850152	-0.000337
 957	9.5122e+01	1.9122	13.907933	0.000598	5.979802	2.026012	-0.000239
 958	9.5222e+01	1.8625	13.588999	0.000801	8.006854	2.712796	-0.000321
 959	9.5321e+01	1.8304	13.354845	0.000588	5.878450	1.991673	-0.000235
 960	9.5421e+01	1.7903	13.048023	0.000770	7.702796	2.609778	-0.000308
 961	9.5520e+01	1.7534	12.741200	0.000770	7.702796	2.609778	-0.000308
 962	9.5620e+01	1.7117	12.458601	0.000709	7.094681	2.403743	-0.000284
 963	9.5719e+01	1.6668	12.188113	0.000679	6.790623	2.300725	-0.000272
 964	9.5819e+01	1.6299	11.873216	0.000791	7.905501	2.678456	-0.000316
 965	9.5918e+01	1.5866	11.590617	0.000709	7.094681	2.403743	-0.000284
 966	9.6017e+01	1.5481	11.303980	0.000720	7.196033	2.438082	-0.000288
 967	9.6117e+01	1.5064	11.021381	0.000709	7.094681	2.403743	-0.000284
 968	9.6216e+01	1.4679	10.750892	0.000679	6.790623	2.300725	-0.000272
 969	9.6316e+01	1.4262	10.427922	0.000811	8.108207	2.747135	-0.000325
 970	9.6415e+01	1.3877	10.141285	0.000720	7.196033	2.438082	-0.000288
 971	9.6515e+01	1.3492	9.890983	0.000628	6.283860	2.129029	-0.000252
 972	9.6615e+01	1.3107	9.580123	0.000780	7.804149	2.644117	-0.000312
 973	9.6714e+01	1.2657	9.265227	0.000791	7.905501	2.678456	-0.000316
 974	9.6814e+01	1.2321	8.982627	0.000709	7.094681	2.403743	-0.000284
 975	9.6913e+01	1.1935	8.716176	0.000669	6.689270	2.266386	-0.000268
 976	9.7013e+01	1.1599	8.453762	0.000659	6.587918	2.232047	-0.000264
 977	9.7112e+01	1.1021	8.150977	0.000760	7.601444	2.575439	-0.000304
 978	9.7212e+01	1.0668	7.840118	0.000780	7.804149	2.644117	-0.000312
 979	9.7311e+01	1.0347	7.577704	0.000659	6.587918	2.232047	-0.000264
 980	9.7410e+01	0.9930	7.287030	0.000730	7.297386	2.472421	-0.000292
 981	9.7510e+01	0.9465	6.935799	0.000882	8.817675	2.987509	-0.000353
 982	9.7609e+01	0.9128	6.721831	0.000537	5.371687	1.819977	-0.000215
 983	9.7709e+01	0.8647	6.423083	0.000750	7.500091	2.541100	-0.000300
 984	9.7808e+01	0.8342	6.100112	0.000811	8.108207	2.747135	-0.000325
 985	9.7908e+01	0.7957	5.845773	0.000639	6.385213	2.163369	-0.000256
 986	9.8007e+01	0.7572	5.547025	0.000750	7.500091	2.541100	-0.000300
 987	9.8107e+01	0.7091	5.256351	0.000730	7.297386	2.472421	-0.000292
 988	9.8207e+01	0.6818	4.937417	0.000801	8.006854	2.712796	-0.000321
 989	9.8306e+01	0.6321	4.687115	0.000628	6.283860	2.129029	-0.000252
 990	9.8406e+01	0.5904	4.404515	0.000709	7.094681	2.403743	-0.000284
 991	9.8505e+01	0.5535	4.065396	0.000851	8.513617	2.884491	-0.000341
 992	9.8605e+01	0.5166	3.871613	0.000486	4.864924	1.648281	-0.000195
 993	9.8704e+01	0.4716	3.500197	0.000932	9.324438	3.159205	-0.000373
 994	9.8803e+01	0.4299	3.221634	0.000699	6.993328	2.369404	-0.000280
 995	9.8903e+01	0.3962	2.939035	0.000709	7.094681	2.403743	-0.000284
 996	9.9002e+01	0.3626	2.648361	0.000730	7.297386	2.472421	-0.000292
 997	9.9102e+01	0.3192	2.333464	0.000791	7.905501	2.678456	-0.000316
 998	9.9201e+01	0.2791	2.050865	0.000709	7.094681	2.403743	-0.000284
 999	9.9301e+01	0.2294	1.731931	0.000801	8.006854	2.712796	-0.000321
1000	9.9400e+01	0.1973	1.473555	0.000649	6.486565	2.197708	-0.000260
1001	9.9500e+01	0.1524	1.174806	0.000750	7.500091	2.541100	-0.000300
1002	9.9600e+01	0.1091	0.888170	0.000720	7.196033	2.438082	-0.000288
1003	9.9699e+01	0.0834	0.601533	0.000720	7.196033	2.438082	-0.000288
1004	9.9799e+01	0.0465	0.302785	0.000750	7.500091	2.541100	-0.000300
1005	9.9898e+01	0.0080	0.068631	0.000588	5.878450	1.991673	-0.000235
1006	9.9998e+01	-0.0353	-0.189745	0.000649	6.486565	2.197708	-0.000260
1007	1.0010e+02	-0.0818	-0.512716	0.000811	8.108207	2.747135	-0.000325
1008	1.0020e+02	-0.1219	-0.795316	0.000709	7.094681	2.403743	-0.000284
1009	1.0030e+02	-0.1652	-1.106175	0.000780	7.804149	2.644117	-0.000312
1010	1.0040e+02	-0.1989	-1.360515	0.000639	6.385213	2.163369	-0.000256
1011	1.0050e+02	-0.2358	-1.643114	0.000709	7.094681	2.403743	-0.000284
1012	1.0059e+02	-0.2775	-1.998382	0.000892	8.919027	3.021848	-0.000357
1013	1.0069e+02	-0.3176	-2.264833	0.000669	6.689270	2.266386	-0.000268
1014	1.0079e+02	-0.3529	-2.559544	0.000740	7.398739	2.506760	-0.000296
1015	1.0089e+02	-0.3930	-2.838106	0.000699	6.993328	2.369404	-0.000280
1016	1.0099e+02	-0.4331	-3.136854	0.000750	7.500091	2.541100	-0.000300
1017	1.0109e+02	-0.4749	-3.415417	0.000699	6.993328	2.369404	-0.000280
1018	1.0119e+02	-0.5085	-3.726276	0.000780	7.804149	2.644117	-0.000312
1019	1.0129e+02	-0.5567	-4.012913	0.000720	7.196033	2.438082	-0.000288
1020	1.0139e+02	-0.5904	-4.295512	0.000709	7.094681	2.403743	-0.000284
1021	1.0149e+02	-0.6433	-4.582149	0.000720	7.196033	2.438082	-0.000288
1022	1.0159e+02	-0.6786	-4.860711	0.000699	6.993328	2.369404	-0.000280
1023	1.0169e+02	-0.7171	-5.159459	0.000750	7.500091	2.541100	-0.000300
1024	1.0179e+02	-0.7540	-5.446096	0.000720	7.196033	2.438082	-0.000288
1025	1.0189e+02	-0.7893	-5.744844	0.000750	7.500091	2.541100	-0.000300
1026	1.0199e+02	-0.8374	-6.043592	0.000750	7.500091	2.541100	-0.000300
1027	1.0209e+02	-0.8727	-6.338303	0.000740	7.398739	2.506760	-0.000296
1028	1.0219e+02	-0.9144	-6.637051	0.000750	7.500091	2.541100	-0.000300
1029	1.0229e+02	-0.9529	-6.919651	0.000709	7.094681	2.403743	-0.000284
1030	1.0239e+02	-1.0026	-7.218399	0.000750	7.500091	2.541100	-0.000300
1031	1.0248e+02	-1.0331	-7.505035	0.000720	7.196033	2.438082	-0.000288
1032	1.0258e+02	-1.0732	-7.763412	0.000649	6.486565	2.197708	-0.000260
1033	1.0268e+02	-1.1117	-8.086383	0.000811	8.108207	2.747135	-0.000325
1034	1.0278e+02	-1.1502	-8.352834	0.000669	6.689270	2.266386	-0.000268
1035	1.0288e+02	-1.1984	-8.655619	0.000760	7.601444	2.575439	-0.000304
1036	1.0298e+02	-1.2321	-8.926107	0.000679	6.790623	2.300725	-0.000272
1037	1.0308e+02	-1.2722	-9.249078	0.000811	8.108207	2.747135	-0.000325
1038	1.0318e+02	-1.3123	-9.531677	0.000709	7.094681	2.403743	-0.000284
1039	1.0328e+02	-1.3572	-9.802166	0.000679	6.790623	2.300725	-0.000272
1040	1.0338e+02	-1.3941	-10.117062	0.000791	7.905501	2.678456	-0.000316
1041	1.0348e+02	-1.4310	-10.427922	0.000780	7.804149	2.644117	-0.000312
1042	1.0358e+02	-1.4791	-10.690335	0.000659	6.587918	2.232047	-0.000264
1043	1.0368e+02	-1.5080	-10.976972	0.000720	7.196033	2.438082	-0.000288
1044	1.0378e+02	-1.5561	-11.283794	0.000770	7.702796	2.609778	-0.000308
1045	1.0388e+02	-1.5802	-11.509874	0.000568	5.675745	1.922994	-0.000227
1046	1.0398e+02	-1.6219	-11.820733	0.000780	7.804149	2.644117	-0.000312
1047	1.0408e+02	-1.6716	-12.119481	0.000750	7.500091	2.541100	-0.000300
1048	1.0418e+02	-1.7037	-12.398044	0.000699	6.993328	2.369404	-0.000280
1049	1.0428e+02	-1.7470	-12.688718	0.000730	7.297386	2.472421	-0.000292
1050	1.0438e+02	-1.7823	-12.963243	0.000689	6.891976	2.335065	-0.000276
1051	1.0447e+02	-1.8288	-13.249879	0.000720	7.196033	2.438082	-0.000288
1052	1.0457e+02	-1.8770	-13.556702	0.000770	7.702796	2.609778	-0.000308
1053	1.0467e+02	-1.9106	-13.823153	0.000669	6.689270	2.266386	-0.000268
1054	1.0477e+02	-1.9540	-14.113827	0.000730	7.297386	2.472421	-0.000292
1055	1.0487e+02	-1.9973	-14.392389	0.000699	6.993328	2.369404	-0.000280
1056	1.0497e+02	-2.0326	-14.699211	0.000770	7.702796	2.609778	-0.000308
1057	1.0507e+02	-2.0646	-14.977774	0.000699	6.993328	2.369404	-0.000280
1058	1.0517e+02	-2.1015	-15.264410	0.000720	7.196033	2.438082	-0.000288
1059	1.0527e+02	-2.1465	-15.555084	0.000730	7.297386	2.472421	-0.000292
1060	1.0537e+02	-2.1898	-15.825572	0.000679	6.790623	2.300725	-0.000272
1061	1.0547e+02	-2.2203	-16.100097	0.000689	6.891976	2.335065	-0.000276
1062	1.0557e+02	-2.2620	-16.398845	0.000750	7.500091	2.541100	-0.000300
1063	1.0567e+02	-2.3117	-16.689519	0.000730	7.297386	2.472421	-0.000292
1064	1.0577e+02	-2.3390	-16.980193	0.000730	7.297386	2.472421	-0.000292
1065	1.0587e+02	-2.3855	-17.266830	0.000720	7.196033	2.438082	-0.000288
1066	1.0597e+02	-2.4192	-17.569615	0.000760	7.601444	2.575439	-0.000304
1067	1.0607e+02	-2.4657	-17.787620	0.000547	5.473039	1.854316	-0.000219
1068	1.0617e+02	-2.5090	-18.118665	0.000831	8.310912	2.815813	-0.000333
1069	1.0627e+02	-2.5459	-18.368968	0.000628	6.283860	2.129029	-0.000252
1070	1.0637e+02	-2.5844	-18.691938	0.000811	8.108207	2.747135	-0.000325
1071	1.0647e+02	-2.6325	-18.962427	0.000679	6.790623	2.300725	-0.000272
1072	1.0656e+02	-2.6662	-19.232915	0.000679	6.790623	2.300725	-0.000272
1073	1.0666e+02	-2.7128	-19.511477	0.000699	6.993328	2.369404	-0.000280
1074	1.0676e+02	-2.7464	-19.802151	0.000730	7.297386	2.472421	-0.000292
1075	1.0686e+02	-2.7914	-20.088787	0.000720	7.196033	2.438082	-0.000288
1076	1.0696e+02	-2.8347	-20.371387	0.000709	7.094681	2.403743	-0.000284
1077	1.0706e+02	-2.8620	-20.641875	0.000679	6.790623	2.300725	-0.000272
1078	1.0716e+02	-2.9053	-20.964846	0.000811	8.108207	2.747135	-0.000325
1079	1.0726e+02	-2.9518	-21.211111	0.000618	6.182508	2.094690	-0.000248
1080	1.0736e+02	-2.9903	-21.497748	0.000720	7.196033	2.438082	-0.000288
1081	1.0746e+02	-3.0272	-21.784384	0.000720	7.196033	2.438082	-0.000288
1082	1.0756e+02	-3.0673	-22.071021	0.000720	7.196033	2.438082	-0.000288
1083	1.0766e+02	-3.1090	-22.313249	0.000608	6.081155	2.060351	-0.000243
1084	1.0776e+02	-3.1459	-22.620072	0.000770	7.702796	2.609778	-0.000308
1085	1.0786e+02	-3.1892	-22.890560	0.000679	6.790623	2.300725	-0.000272
1086	1.0796e+02	-3.2245	-23.201419	0.000780	7.804149	2.644117	-0.000312
1087	1.0806e+02	-3.2646	-23.411350	0.000527	5.270334	1.785638	-0.000211
1088	1.0816e+02	-3.3063	-23.722210	0.000780	7.804149	2.644117	-0.000312
1089	1.0826e+02	-3.3416	-24.029032	0.000770	7.702796	2.609778	-0.000308
1090	1.0836e+02	-3.3817	-24.283371	0.000639	6.385213	2.163369	-0.000256
1091	1.0845e+02	-3.4250	-24.565971	0.000709	7.094681	2.403743	-0.000284
1092	1.0855e+02	-3.4603	-24.840496	0.000689	6.891976	2.335065	-0.000276
1093	1.0865e+02	-3.5069	-25.131170	0.000730	7.297386	2.472421	-0.000292
1094	1.0875e+02	-3.5421	-25.381472	0.000628	6.283860	2.129029	-0.000252
1095	1.0885e+02	-3.5774	-25.647923	0.000669	6.689270	2.266386	-0.000268
1096	1.0895e+02	-3.6304	-25.954746	0.000770	7.702796	2.609778	-0.000308
1097	1.0905e+02	-3.6609	-26.233308	0.000699	6.993328	2.369404	-0.000280
1098	1.0915e+02	-3.6994	-26.511870	0.000699	6.993328	2.369404	-0.000280
1099	1.0925e+02	-3.7443	-26.794470	0.000709	7.094681	2.403743	-0.000284
1100	1.0935e+02	-3.7860	-27.077069	0.000709	7.094681	2.403743	-0.000284
1101	1.0945e+02	-3.8213	-27.363706	0.000720	7.196033	2.438082	-0.000288
1102	1.0955e+02	-3.8502	-27.609971	0.000618	6.182508	2.094690	-0.000248
1103	1.0965e+02	-3.9095	-27.912756	0.000760	7.601444	2.575439	-0.000304
1104	1.0975e+02	-3.9416	-28.175170	0.000659	6.587918	2.232047	-0.000264
1105	1.0985e+02	-3.9817	-28.425473	0.000628	6.283860	2.129029	-0.000252
1106	1.0995e+02	-4.0250	-28.764592	0.000851	8.513617	2.884491	-0.000341
1107	1.1005e+02	-4.0491	-29.022969	0.000649	6.486565	2.197708	-0.000260
1108	1.1015e+02	-4.1020	-29.265197	0.000608	6.081155	2.060351	-0.000243
1109	1.1025e+02	-4.1405	-29.620465	0.000892	8.919027	3.021848	-0.000357
1110	1.1035e+02	-4.1806	-29.846545	0.000568	5.675745	1.922994	-0.000227
1111	1.1044e+02	-4.2223	-30.141255	0.000740	7.398739	2.506760	-0.000296
1112	1.1054e+02	-4.2657	-30.391558	0.000628	6.283860	2.129029	-0.000252
1113	1.1064e+02	-4.2977	-30.645897	0.000639	6.385213	2.163369	-0.000256
1114	1.1074e+02	-4.3459	-30.956757	0.000780	7.804149	2.644117	-0.000312
1115	1.1084e+02	-4.3844	-31.219171	0.000659	6.587918	2.232047	-0.000264
1116	1.1094e+02	-4.4229	-31.453325	0.000588	5.878450	1.991673	-0.000235
1117	1.1104e+02	-4.4646	-31.776295	0.000811	8.108207	2.747135	-0.000325
1118	1.1114e+02	-4.4983	-32.050821	0.000689	6.891976	2.335065	-0.000276
1119	1.1124e+02	-4.5400	-32.309197	0.000649	6.486565	2.197708	-0.000260
1120	1.1134e+02	-4.5897	-32.620057	0.000780	7.804149	2.644117	-0.000312
1121	1.1144e+02	-4.6186	-32.866322	0.000618	6.182508	2.094690	-0.000248
1122	1.1154e+02	-4.6571	-33.177181	0.000780	7.804149	2.644117	-0.000312
1123	1.1164e+02	-4.7036	-33.423447	0.000618	6.182508	2.094690	-0.000248
1124	1.1174e+02	-4.7437	-33.649526	0.000568	5.675745	1.922994	-0.000227
1125	1.1184e+02	-4.7774	-33.972497	0.000811	8.108207	2.747135	-0.000325
1126	1.1194e+02	-4.8127	-34.238948	0.000669	6.689270	2.266386	-0.000268
1127	1.1204e+02	-4.8496	-34.501362	0.000659	6.587918	2.232047	-0.000264
1128	1.1214e+02	-4.9106	-34.808184	0.000770	7.702796	2.609778	-0.000308
1129	1.1224e+02	-4.9410	-35.098858	0.000730	7.297386	2.472421	-0.000292
1130	1.1234e+02	-4.9699	-35.353198	0.000639	6.385213	2.163369	-0.000256
1131	1.1244e+02	-5.0196	-35.639834	0.000720	7.196033	2.438082	-0.000288
1132	1.1253e+02	-5.0533	-35.886100	0.000618	6.182508	2.094690	-0.000248
1133	1.1263e+02	-5.0918	-36.160625	0.000689	6.891976	2.335065	-0.000276
1134	1.1273e+02	-5.1368	-36.471484	0.000780	7.804149	2.644117	-0.000312
1135	1.1283e+02	-5.1801	-36.713712	0.000608	6.081155	2.060351	-0.000243
1136	1.1293e+02	-5.2170	-37.024572	0.000780	7.804149	2.644117	-0.000312
1137	1.1303e+02	-5.2587	-37.266800	0.000608	6.081155	2.060351	-0.000243
1138	1.1313e+02	-5.2908	-37.517102	0.000628	6.283860	2.129029	-0.000252
1139	1.1323e+02	-5.3421	-37.836036	0.000801	8.006854	2.712796	-0.000321
1140	1.1333e+02	-5.3838	-38.110561	0.000689	6.891976	2.335065	-0.000276
1141	1.1343e+02	-5.4303	-38.377012	0.000669	6.689270	2.266386	-0.000268
1142	1.1353e+02	-5.4496	-38.647500	0.000679	6.790623	2.300725	-0.000272
1143	1.1363e+02	-5.4881	-38.917989	0.000679	6.790623	2.300725	-0.000272
1144	1.1373e+02	-5.5394	-39.216737	0.000750	7.500091	2.541100	-0.000300
1145	1.1383e+02	-5.5827	-39.503373	0.000720	7.196033	2.438082	-0.000288
1146	1.1393e+02	-5.6132	-39.721379	0.000547	5.473039	1.854316	-0.000219
1147	1.1403e+02	-5.6533	-40.016089	0.000740	7.398739	2.506760	-0.000296
1148	1.1413e+02	-5.6966	-40.290615	0.000689	6.891976	2.335065	-0.000276
1149	1.1423e+02	-5.7351	-40.573214	0.000709	7.094681	2.403743	-0.000284
1150	1.1433e+02	-5.7833	-40.819479	0.000618	6.182508	2.094690	-0.000248
1151	1.1442e+02	-5.8089	-41.098042	0.000699	6.993328	2.369404	-0.000280
1152	1.1452e+02	-5.8538	-41.344307	0.000618	6.182508	2.094690	-0.000248
1153	1.1462e+02	-5.8988	-41.626907	0.000709	7.094681	2.403743	-0.000284
1154	1.1472e+02	-5.9325	-41.917580	0.000730	7.297386	2.472421	-0.000292
1155	1.1482e+02	-5.9774	-42.163846	0.000618	6.182508	2.094690	-0.000248
1156	1.1492e+02	-6.0175	-42.498928	0.000841	8.412264	2.850152	-0.000337
1157	1.1502e+02	-6.0624	-42.737119	0.000598	5.979802	2.026012	-0.000239
1158	1.1512e+02	-6.1009	-43.015681	0.000699	6.993328	2.369404	-0.000280
1159	1.1522e+02	-6.1314	-43.274058	0.000649	6.486565	2.197708	-0.000260
1160	1.1532e+02	-6.1667	-43.524360	0.000628	6.283860	2.129029	-0.000252
1161	1.1542e+02	-6.2196	-43.847331	0.000811	8.108207	2.747135	-0.000325
1162	1.1552e+02	-6.2613	-44.073411	0.000568	5.675745	1.922994	-0.000227
1163	1.1562e+02	-6.2982	-44.364085	0.000730	7.297386	2.472421	-0.000292
1164	1.1572e+02	-6.3239	-44.610350	0.000618	6.182508	2.094690	-0.000248
1165	1.1582e+02	-6.3768	-44.909098	0.000750	7.500091	2.541100	-0.000300
1166	1.1592e+02	-6.4137	-45.155363	0.000618	6.182508	2.094690	-0.000248
1167	1.1602e+02	-6.4490	-45.466223	0.000780	7.804149	2.644117	-0.000312
1168	1.1612e+02	-6.4779	-45.672117	0.000517	5.168982	1.751298	-0.000207
1169	1.1622e+02	-6.5276	-45.926456	0.000639	6.385213	2.163369	-0.000256
1170	1.1632e+02	-6.5709	-46.225204	0.000750	7.500091	2.541100	-0.000300
1171	1.1642e+02	-6.6110	-46.519915	0.000740	7.398739	2.506760	-0.000296
1172	1.1651e+02	-6.6431	-46.786366	0.000669	6.689270	2.266386	-0.000268
1173	1.1661e+02	-6.6832	-47.004371	0.000547	5.473039	1.854316	-0.000219
1174	1.1671e+02	-6.7249	-47.286971	0.000709	7.094681	2.403743	-0.000284
1175	1.1681e+02	-6.7683	-47.549385	0.000659	6.587918	2.232047	-0.000264
1176	1.1691e+02	-6.8148	-47.844096	0.000740	7.398739	2.506760	-0.000296
1177	1.1701e+02	-6.8533	-48.126695	0.000709	7.094681	2.403743	-0.000284
1178	1.1711e+02	-6.8870	-48.360849	0.000588	5.878450	1.991673	-0.000235
1179	1.1721e+02	-6.9255	-48.655560	0.000740	7.398739	2.506760	-0.000296
1180	1.1731e+02	-6.9608	-48.889714	0.000588	5.878450	1.991673	-0.000235
1181	1.1741e+02	-7.0041	-49.152128	0.000659	6.587918	2.232047	-0.000264
1182	1.1751e+02	-7.0474	-49.406467	0.000639	6.385213	2.163369	-0.000256
1183	1.1761e+02	-7.0811	-49.725401	0.000801	8.006854	2.712796	-0.000321
1184	1.1771e+02	-7.1260	-49.955518	0.000578	5.777097	1.957334	-0.000231
1185	1.1781e+02	-7.1645	-50.234080	0.000699	6.993328	2.369404	-0.000280
1186	1.1791e+02	-7.1998	-50.496494	0.000659	6.587918	2.232047	-0.000264
1187	1.1801e+02	-7.2495	-50.742759	0.000618	6.182508	2.094690	-0.000248
1188	1.1811e+02	-7.2736	-51.009210	0.000669	6.689270	2.266386	-0.000268
1189	1.1821e+02	-7.3362	-51.295847	0.000720	7.196033	2.438082	-0.000288
1190	1.1831e+02	-7.3618	-51.570372	0.000689	6.891976	2.335065	-0.000276
1191	1.1841e+02	-7.4051	-51.840860	0.000679	6.790623	2.300725	-0.000272
1192	1.1850e+02	-7.4517	-52.087125	0.000618	6.182508	2.094690	-0.000248
1193	1.1860e+02	-7.4886	-52.369725	0.000709	7.094681	2.403743	-0.000284
1194	1.1870e+02	-7.5271	-52.624064	0.000639	6.385213	2.163369	-0.000256
1195	1.1880e+02	-7.5624	-52.894552	0.000679	6.790623	2.300725	-0.000272
1196	1.1890e+02	-7.6041	-53.104483	0.000527	5.270334	1.785638	-0.000211
1197	1.1900e+02	-7.6410	-53.423417	0.000801	8.006854	2.712796	-0.000321
1198	1.1910e+02	-7.6827	-53.657571	0.000588	5.878450	1.991673	-0.000235
1199	1.1920e+02	-7.7276	-53.924022	0.000669	6.689270	2.266386	-0.000268
1200	1.1930e+02	-7.7597	-54.190473	0.000669	6.689270	2.266386	-0.000268
1201	1.1940e+02	-7.8078	-54.469035	0.000699	6.993328	2.369404	-0.000280
1202	1.1950e+02	-7.8511	-54.719338	0.000628	6.283860	2.129029	-0.000252
1203	1.1960e+02	-7.8848	-54.977714	0.000649	6.486565	2.197708	-0.000260
1204	1.1970e+02	-7.9217	-55.232054	0.000639	6.385213	2.163369	-0.000256
1205	1.1980e+02	-7.9650	-55.502542	0.000679	6.790623	2.300725	-0.000272
1206	1.1990e+02	-8.0051	-55.797253	0.000740	7.398739	2.506760	-0.000296
1207	1.2000e+02	-8.0484	-56.035444	0.000598	5.979802	2.026012	-0.000239
1208	1.2010e+02	-8.0869	-56.281709	0.000618	6.182508	2.094690	-0.000248
1209	1.2020e+02	-8.1206	-56.572383	0.000730	7.297386	2.472421	-0.000292
1210	1.2030e+02	-8.1639	-56.806537	0.000588	5.878450	1.991673	-0.000235
1211	1.2039e+02	-8.2073	-57.044728	0.000598	5.979802	2.026012	-0.000239
1212	1.2049e+02	-8.2393	-57.295030	0.000628	6.283860	2.129029	-0.000252
1213	1.2059e+02	-8.2843	-57.569556	0.000689	6.891976	2.335065	-0.000276
1214	1.2069e+02	-8.3308	-57.864267	0.000740	7.398739	2.506760	-0.000296
1215	1.2079e+02	-8.3661	-58.110532	0.000618	6.182508	2.094690	-0.000248
1216	1.2089e+02	-8.4078	-58.304314	0.000486	4.864924	1.648281	-0.000195
1217	1.2099e+02	-8.4383	-58.603062	0.000750	7.500091	2.541100	-0.000300
1218	1.2109e+02	-8.4832	-58.869513	0.000669	6.689270	2.266386	-0.000268
1219	1.2119e+02	-8.5281	-59.127890	0.000649	6.486565	2.197708	-0.000260
1220	1.2129e+02	-8.5506	-59.333784	0.000517	5.168982	1.751298	-0.000207
1221	1.2139e+02	-8.6083	-59.620421	0.000720	7.196033	2.438082	-0.000288
1222	1.2149e+02	-8.6420	-59.850537	0.000578	5.777097	1.957334	-0.000231
1223	1.2159e+02	-8.6693	-60.125063	0.000689	6.891976	2.335065	-0.000276
1224	1.2169e+02	-8.7238	-60.383439	0.000649	6.486565	2.197708	-0.000260
1225	1.2179e+02	-8.7655	-60.645853	0.000659	6.587918	2.232047	-0.000264
1226	1.2189e+02	-8.7976	-60.843673	0.000497	4.966277	1.682620	-0.000199
1227	1.2199e+02	-8.8377	-61.134346	0.000730	7.297386	2.472421	-0.000292
1228	1.2209e+02	-8.8746	-61.396760	0.000659	6.587918	2.232047	-0.000264
1229	1.2219e+02	-8.9179	-61.606691	0.000527	5.270334	1.785638	-0.000211
1230	1.2229e+02	-8.9677	-61.877179	0.000679	6.790623	2.300725	-0.000272
1231	1.2239e+02	-8.9949	-62.159779	0.000709	7.094681	2.403743	-0.000284
1232	1.2248e+02	-9.0415	-62.430267	0.000679	6.790623	2.300725	-0.000272
1233	1.2258e+02	-9.0832	-62.672495	0.000608	6.081155	2.060351	-0.000243
1234	1.2268e+02	-9.1233	-62.926835	0.000639	6.385213	2.163369	-0.000256
1235	1.2278e+02	-9.1602	-63.185211	0.000649	6.486565	2.197708	-0.000260
1236	1.2288e+02	-9.1923	-63.391105	0.000517	5.168982	1.751298	-0.000207
1237	1.2298e+02	-9.2452	-63.653519	0.000659	6.587918	2.232047	-0.000264
1238	1.2308e+02	-9.2757	-63.879599	0.000568	5.675745	1.922994	-0.000227
1239	1.2318e+02	-9.3270	-64.137975	0.000649	6.486565	2.197708	-0.000260
1240	1.2328e+02	-9.3591	-64.392315	0.000639	6.385213	2.163369	-0.000256
1241	1.2338e+02	-9.3960	-64.678952	0.000720	7.196033	2.438082	-0.000288
1242	1.2348e+02	-9.4361	-64.913106	0.000588	5.878450	1.991673	-0.000235
1243	1.2358e+02	-9.4778	-65.159371	0.000618	6.182508	2.094690	-0.000248
1244	1.2368e+02	-9.5147	-65.401599	0.000608	6.081155	2.060351	-0.000243
1245	1.2378e+02	-9.5532	-65.659976	0.000649	6.486565	2.197708	-0.000260
1246	1.2388e+02	-9.6045	-65.890092	0.000578	5.777097	1.957334	-0.000231
1247	1.2398e+02	-9.6398	-66.132321	0.000608	6.081155	2.060351	-0.000243
1248	1.2408e+02	-9.6783	-66.410883	0.000699	6.993328	2.369404	-0.000280
1249	1.2418e+02	-9.7184	-66.624851	0.000537	5.371687	1.819977	-0.000215
1250	1.2428e+02	-9.7569	-66.875154	0.000628	6.283860	2.129029	-0.000252
1251	1.2438e+02	-9.8051	-67.157753	0.000709	7.094681	2.403743	-0.000284
1252	1.2447e+02	-9.8275	-67.395944	0.000598	5.979802	2.026012	-0.000239
1253	1.2457e+02	-9.8773	-67.597801	0.000507	5.067629	1.716959	-0.000203
1254	1.2467e+02	-9.9142	-67.880400	0.000709	7.094681	2.403743	-0.000284
1255	1.2477e+02	-9.9559	-68.122628	0.000608	6.081155	2.060351	-0.000243
1256	1.2487e+02	-9.9992	-68.352745	0.000578	5.777097	1.957334	-0.000231
1257	1.2497e+02	-10.0393	-68.590936	0.000598	5.979802	2.026012	-0.000239
1258	1.2507e+02	-10.0666	-68.849313	0.000649	6.486565	2.197708	-0.000260
1259	1.2517e+02	-10.1227	-69.135950	0.000720	7.196033	2.438082	-0.000288
1260	1.2527e+02	-10.1612	-69.362029	0.000568	5.675745	1.922994	-0.000227
1261	1.2537e+02	-10.1933	-69.571960	0.000527	5.270334	1.785638	-0.000211
1262	1.2547e+02	-10.2318	-69.838411	0.000669	6.689270	2.266386	-0.000268
1263	1.2557e+02	-10.2767	-70.076602	0.000598	5.979802	2.026012	-0.000239
1264	1.2567e+02	-10.3152	-70.326905	0.000628	6.283860	2.129029	-0.000252
1265	1.2577e+02	-10.3569	-70.544910	0.000547	5.473039	1.854316	-0.000219
1266	1.2587e+02	-10.3970	-70.791175	0.000618	6.182508	2.094690	-0.000248
1267	1.2597e+02	-10.4355	-71.049552	0.000649	6.486565	2.197708	-0.000260
1268	1.2607e+02	-10.4708	-71.243334	0.000486	4.864924	1.648281	-0.000195
1269	1.2617e+02	-10.5174	-71.534008	0.000730	7.297386	2.472421	-0.000292
1270	1.2627e+02	-10.5575	-71.743939	0.000527	5.270334	1.785638	-0.000211
1271	1.2636e+02	-10.5960	-71.990204	0.000618	6.182508	2.094690	-0.000248
1272	1.2646e+02	-10.6377	-72.256655	0.000669	6.689270	2.266386	-0.000268
1273	1.2656e+02	-10.6778	-72.446401	0.000476	4.763571	1.613942	-0.000191
1274	1.2666e+02	-10.7099	-72.741112	0.000740	7.398739	2.506760	-0.000296
1275	1.2676e+02	-10.7548	-72.947006	0.000517	5.168982	1.751298	-0.000207
1276	1.2686e+02	-10.7917	-73.221531	0.000689	6.891976	2.335065	-0.000276
1277	1.2696e+02	-10.8366	-73.455685	0.000588	5.878450	1.991673	-0.000235
1278	1.2706e+02	-10.8671	-73.742321	0.000720	7.196033	2.438082	-0.000288
1279	1.2716e+02	-10.9120	-73.895733	0.000385	3.851398	1.304889	-0.000154
1280	1.2726e+02	-10.9537	-74.174295	0.000699	6.993328	2.369404	-0.000280
1281	1.2736e+02	-10.9938	-74.400375	0.000568	5.675745	1.922994	-0.000227
1282	1.2746e+02	-11.0323	-74.634528	0.000588	5.878450	1.991673	-0.000235
1283	1.2756e+02	-11.0756	-74.900979	0.000669	6.689270	2.266386	-0.000268
1284	1.2766e+02	-11.1221	-75.123022	0.000557	5.574392	1.888655	-0.000223
1285	1.2776e+02	-11.1526	-75.345064	0.000557	5.574392	1.888655	-0.000223
1286	1.2786e+02	-11.1927	-75.627664	0.000709	7.094681	2.403743	-0.000284
1287	1.2796e+02	-11.2360	-75.837595	0.000527	5.270334	1.785638	-0.000211
1288	1.2806e+02	-11.2697	-76.083860	0.000618	6.182508	2.094690	-0.000248
1289	1.2816e+02	-11.3130	-76.301865	0.000547	5.473039	1.854316	-0.000219
1290	1.2826e+02	-11.3467	-76.572354	0.000679	6.790623	2.300725	-0.000272
1291	1.2835e+02	-11.3965	-76.794396	0.000557	5.574392	1.888655	-0.000223
1292	1.2845e+02	-11.4237	-77.076996	0.000709	7.094681	2.403743	-0.000284
1293	1.2855e+02	-11.4783	-77.315187	0.000598	5.979802	2.026012	-0.000239
1294	1.2865e+02	-11.5007	-77.492820	0.000446	4.459514	1.510924	-0.000179
1295	1.2875e+02	-11.5569	-77.759271	0.000669	6.689270	2.266386	-0.000268
1296	1.2885e+02	-11.5922	-77.989388	0.000578	5.777097	1.957334	-0.000231
1297	1.2895e+02	-11.6307	-78.231616	0.000608	6.081155	2.060351	-0.000243
1298	1.2905e+02	-11.6612	-78.453659	0.000557	5.574392	1.888655	-0.000223
1299	1.2915e+02	-11.7077	-78.720110	0.000669	6.689270	2.266386	-0.000268
1300	1.2925e+02	-11.7542	-78.958301	0.000598	5.979802	2.026012	-0.000239
1301	1.2935e+02	-11.7895	-79.216677	0.000649	6.486565	2.197708	-0.000260
1302	1.2945e+02	-11.8264	-79.386237	0.000426	4.256808	1.442246	-0.000170
1303	1.2955e+02	-11.8777	-79.632502	0.000618	6.182508	2.094690	-0.000248
1304	1.2965e+02	-11.9162	-79.898953	0.000669	6.689270	2.266386	-0.000268
1305	1.2975e+02	-11.9563	-80.129070	0.000578	5.777097	1.957334	-0.000231
1306	1.2985e+02	-11.9868	-80.359187	0.000578	5.777097	1.957334	-0.000231
1307	1.2995e+02	-12.0334	-80.597378	0.000598	5.979802	2.026012	-0.000239
1308	1.3005e+02	-12.0686	-80.835569	0.000598	5.979802	2.026012	-0.000239
1309	1.3015e+02	-12.1071	-81.106057	0.000679	6.790623	2.300725	-0.000272
1310	1.3025e+02	-12.1537	-81.352322	0.000618	6.182508	2.094690	-0.000248
1311	1.3034e+02	-12.1874	-81.570328	0.000547	5.473039	1.854316	-0.000219
1312	1.3044e+02	-12.2371	-81.796407	0.000568	5.675745	1.922994	-0.000227
1313	1.3054e+02	-12.2708	-82.026524	0.000578	5.777097	1.957334	-0.000231
1314	1.3064e+02	-12.3077	-82.256641	0.000578	5.777097	1.957334	-0.000231
1315	1.3074e+02	-12.3430	-82.515017	0.000649	6.486565	2.197708	-0.000260
1316	1.3084e+02	-12.3927	-82.773394	0.000649	6.486565	2.197708	-0.000260
1317	1.3094e+02	-12.4200	-82.959102	0.000466	4.662219	1.579602	-0.000187
1318	1.3104e+02	-12.4697	-83.213442	0.000639	6.385213	2.163369	-0.000256
1319	1.3114e+02	-12.5018	-83.447596	0.000588	5.878450	1.991673	-0.000235
1320	1.3124e+02	-12.5499	-83.705972	0.000649	6.486565	2.197708	-0.000260
1321	1.3134e+02	-12.5868	-83.867458	0.000405	4.054103	1.373567	-0.000162
1322	1.3144e+02	-12.6269	-84.158132	0.000730	7.297386	2.472421	-0.000292
1323	1.3154e+02	-12.6606	-84.380174	0.000557	5.574392	1.888655	-0.000223
1324	1.3164e+02	-12.7023	-84.646625	0.000669	6.689270	2.266386	-0.000268
1325	1.3174e+02	-12.7408	-84.880779	0.000588	5.878450	1.991673	-0.000235
1326	1.3184e+02	-12.7954	-85.070524	0.000476	4.763571	1.613942	-0.000191
1327	1.3194e+02	-12.8226	-85.324864	0.000639	6.385213	2.163369	-0.000256
1328	1.3204e+02	-12.8611	-85.575166	0.000628	6.283860	2.129029	-0.000252
1329	1.3214e+02	-12.9061	-85.772986	0.000497	4.966277	1.682620	-0.000199
1330	1.3224e+02	-12.9430	-86.015214	0.000608	6.081155	2.060351	-0.000243
1331	1.3234e+02	-12.9782	-86.225145	0.000527	5.270334	1.785638	-0.000211
1332	1.3243e+02	-13.0312	-86.455262	0.000578	5.777097	1.957334	-0.000231
1333	1.3253e+02	-13.0601	-86.709601	0.000639	6.385213	2.163369	-0.000256
1334	1.3263e+02	-13.1082	-86.980089	0.000679	6.790623	2.300725	-0.000272
1335	1.3273e+02	-13.1435	-87.185983	0.000517	5.168982	1.751298	-0.000207
1336	1.3283e+02	-13.1820	-87.420137	0.000588	5.878450	1.991673	-0.000235
1337	1.3293e+02	-13.2253	-87.650254	0.000578	5.777097	1.957334	-0.000231
1338	1.3303e+02	-13.2638	-87.900556	0.000628	6.283860	2.129029	-0.000252
1339	1.3313e+02	-13.3007	-88.138747	0.000598	5.979802	2.026012	-0.000239
1340	1.3323e+02	-13.3392	-88.360790	0.000557	5.574392	1.888655	-0.000223
1341	1.3333e+02	-13.3825	-88.558610	0.000497	4.966277	1.682620	-0.000199
1342	1.3343e+02	-13.4162	-88.800838	0.000608	6.081155	2.060351	-0.000243
1343	1.3353e+02	-13.4707	-89.063252	0.000659	6.587918	2.232047	-0.000264
1344	1.3363e+02	-13.4900	-89.236848	0.000436	4.358161	1.476585	-0.000174
1345	1.3373e+02	-13.5477	-89.527522	0.000730	7.297386	2.472421	-0.000292
1346	1.3383e+02	-13.5798	-89.745527	0.000547	5.473039	1.854316	-0.000219
1347	1.3393e+02	-13.6167	-89.991793	0.000618	6.182508	2.094690	-0.000248
1348	1.3403e+02	-13.6568	-90.189612	0.000497	4.966277	1.682620	-0.000199
1349	1.3413e+02	-13.6905	-90.443952	0.000639	6.385213	2.163369	-0.000256
1350	1.3423e+02	-13.7306	-90.657920	0.000537	5.371687	1.819977	-0.000215
1351	1.3432e+02	-13.7772	-90.908223	0.000628	6.283860	2.129029	-0.000252
1352	1.3442e+02	-13.8237	-91.142376	0.000588	5.878450	1.991673	-0.000235
1353	1.3452e+02	-13.8590	-91.336159	0.000486	4.864924	1.648281	-0.000195
1354	1.3462e+02	-13.9007	-91.582424	0.000618	6.182508	2.094690	-0.000248
1355	1.3472e+02	-13.9440	-91.768132	0.000466	4.662219	1.579602	-0.000187
1356	1.3482e+02	-13.9761	-92.066881	0.000750	7.500091	2.541100	-0.000300
1357	1.3492e+02	-14.0194	-92.268737	0.000507	5.067629	1.716959	-0.000203
1358	1.3502e+02	-14.0595	-92.474631	0.000517	5.168982	1.751298	-0.000207
1359	1.3512e+02	-14.1028	-92.724934	0.000628	6.283860	2.129029	-0.000252
1360	1.3522e+02	-14.1381	-92.938902	0.000537	5.371687	1.819977	-0.000215
1361	1.3532e+02	-14.1718	-93.177093	0.000598	5.979802	2.026012	-0.000239
1362	1.3542e+02	-14.2215	-93.427395	0.000628	6.283860	2.129029	-0.000252
1363	1.3552e+02	-14.2552	-93.661549	0.000588	5.878450	1.991673	-0.000235
1364	1.3562e+02	-14.3017	-93.903777	0.000608	6.081155	2.060351	-0.000243
1365	1.3572e+02	-14.3402	-94.085448	0.000456	4.560866	1.545263	-0.000183
1366	1.3582e+02	-14.3739	-94.347862	0.000659	6.587918	2.232047	-0.000264
1367	1.3592e+02	-14.4092	-94.561830	0.000537	5.371687	1.819977	-0.000215
1368	1.3602e+02	-14.4557	-94.816170	0.000639	6.385213	2.163369	-0.000256
1369	1.3612e+02	-14.5039	-94.993804	0.000446	4.459514	1.510924	-0.000179
1370	1.3622e+02	-14.5327	-95.240069	0.000618	6.182508	2.094690	-0.000248
1371	1.3631e+02	-14.5761	-95.482297	0.000608	6.081155	2.060351	-0.000243
1372	1.3641e+02	-14.6130	-95.688191	0.000517	5.168982	1.751298	-0.000207
1373	1.3651e+02	-14.6499	-95.934457	0.000618	6.182508	2.094690	-0.000248
1374	1.3661e+02	-14.6900	-96.160536	0.000568	5.675745	1.922994	-0.000227
1375	1.3671e+02	-14.7365	-96.374504	0.000537	5.371687	1.819977	-0.000215
1376	1.3681e+02	-14.7766	-96.600584	0.000568	5.675745	1.922994	-0.000227
1377	1.3691e+02	-14.8135	-96.770144	0.000426	4.256808	1.442246	-0.000170
1378	1.3701e+02	-14.8648	-97.012372	0.000608	6.081155	2.060351	-0.000243
1379	1.3711e+02	-14.8985	-97.254600	0.000608	6.081155	2.060351	-0.000243
1380	1.3721e+02	-14.9386	-97.460494	0.000517	5.168982	1.751298	-0.000207
1381	1.3731e+02	-14.9723	-97.706759	0.000618	6.182508	2.094690	-0.000248
1382	1.3741e+02	-15.0220	-97.916690	0.000527	5.270334	1.785638	-0.000211
1383	1.3751e+02	-15.0525	-98.166993	0.000628	6.283860	2.129029	-0.000252
1384	1.3761e+02	-15.0862	-98.405184	0.000598	5.979802	2.026012	-0.000239
1385	1.3771e+02	-15.1311	-98.590892	0.000466	4.662219	1.579602	-0.000187
1386	1.3781e+02	-15.1793	-98.825046	0.000588	5.878450	1.991673	-0.000235
1387	1.3791e+02	-15.2145	-99.018828	0.000486	4.864924	1.648281	-0.000195
1388	1.3801e+02	-15.2579	-99.257019	0.000598	5.979802	2.026012	-0.000239
1389	1.3811e+02	-15.2980	-99.491173	0.000588	5.878450	1.991673	-0.000235
1390	1.3821e+02	-15.3284	-99.705141	0.000537	5.371687	1.819977	-0.000215
1391	1.3831e+02	-15.3734	-99.906998	0.000507	5.067629	1.716959	-0.000203
1392	1.3840e+02	-15.4199	-100.173449	0.000669	6.689270	2.266386	-0.000268
1393	1.3850e+02	-15.4664	-100.363194	0.000476	4.763571	1.613942	-0.000191
1394	1.3860e+02	-15.4969	-100.561014	0.000497	4.966277	1.682620	-0.000199
1395	1.3870e+02	-15.5386	-100.799205	0.000598	5.979802	2.026012	-0.000239
1396	1.3880e+02	-15.5771	-101.029322	0.000578	5.777097	1.957334	-0.000231
1397	1.3890e+02	-15.6188	-101.215030	0.000466	4.662219	1.579602	-0.000187
1398	1.3900e+02	-15.6557	-101.469370	0.000639	6.385213	2.163369	-0.000256
1399	1.3910e+02	-15.7006	-101.719672	0.000628	6.283860	2.129029	-0.000252
1400	1.3920e+02	-15.7375	-101.937677	0.000547	5.473039	1.854316	-0.000219
1401	1.3930e+02	-15.7728	-102.131460	0.000486	4.864924	1.648281	-0.000195
1402	1.3940e+02	-15.8129	-102.341391	0.000527	5.270334	1.785638	-0.000211
1403	1.3950e+02	-15.8562	-102.543248	0.000507	5.067629	1.716959	-0.000203
1404	1.3960e+02	-15.8835	-102.737030	0.000486	4.864924	1.648281	-0.000195
1405	1.3970e+02	-15.9364	-102.979258	0.000608	6.081155	2.060351	-0.000243
1406	1.3980e+02	-15.9621	-103.189189	0.000527	5.270334	1.785638	-0.000211
1407	1.3990e+02	-16.0167	-103.431418	0.000608	6.081155	2.060351	-0.000243
1408	1.4000e+02	-16.0616	-103.649423	0.000547	5.473039	1.854316	-0.000219
1409	1.4010e+02	-16.0953	-103.851280	0.000507	5.067629	1.716959	-0.000203
1410	1.4020e+02	-16.1290	-104.053137	0.000507	5.067629	1.716959	-0.000203
1411	1.4029e+02	-16.1723	-104.254993	0.000507	5.067629	1.716959	-0.000203
1412	1.4039e+02	-16.2172	-104.501259	0.000618	6.182508	2.094690	-0.000248
1413	1.4049e+02	-16.2557	-104.723301	0.000557	5.574392	1.888655	-0.000223
1414	1.4059e+02	-16.2958	-104.933232	0.000527	5.270334	1.785638	-0.000211
1415	1.4069e+02	-16.3311	-105.175460	0.000608	6.081155	2.060351	-0.000243
1416	1.4079e+02	-16.3712	-105.345020	0.000426	4.256808	1.442246	-0.000170
1417	1.4089e+02	-16.4081	-105.599359	0.000639	6.385213	2.163369	-0.000256
1418	1.4099e+02	-16.4626	-105.801216	0.000507	5.067629	1.716959	-0.000203
1419	1.4109e+02	-16.4803	-106.023259	0.000557	5.574392	1.888655	-0.000223
1420	1.4119e+02	-16.5268	-106.233190	0.000527	5.270334	1.785638	-0.000211
1421	1.4129e+02	-16.5701	-106.483492	0.000628	6.283860	2.129029	-0.000252
1422	1.4139e+02	-16.6134	-106.685349	0.000507	5.067629	1.716959	-0.000203
1423	1.4149e+02	-16.6487	-106.842797	0.000395	3.952751	1.339228	-0.000158
1424	1.4159e+02	-16.6920	-107.064840	0.000557	5.574392	1.888655	-0.000223
1425	1.4169e+02	-16.7241	-107.298994	0.000588	5.878450	1.991673	-0.000235
1426	1.4179e+02	-16.7674	-107.529110	0.000578	5.777097	1.957334	-0.000231
1427	1.4189e+02	-16.8027	-107.751153	0.000557	5.574392	1.888655	-0.000223
1428	1.4199e+02	-16.8525	-107.973195	0.000557	5.574392	1.888655	-0.000223
1429	1.4209e+02	-16.8894	-108.162941	0.000476	4.763571	1.613942	-0.000191
1430	1.4219e+02	-16.9231	-108.389020	0.000568	5.675745	1.922994	-0.000227
1431	1.4228e+02	-16.9728	-108.594914	0.000517	5.168982	1.751298	-0.000207
1432	1.4238e+02	-17.0017	-108.804845	0.000527	5.270334	1.785638	-0.000211
1433	1.4248e+02	-17.0370	-109.018813	0.000537	5.371687	1.819977	-0.000215
1434	1.4258e+02	-17.0851	-109.212596	0.000486	4.864924	1.648281	-0.000195
1435	1.4268e+02	-17.1332	-109.438676	0.000568	5.675745	1.922994	-0.000227
1436	1.4278e+02	-17.1653	-109.652644	0.000537	5.371687	1.819977	-0.000215
1437	1.4288e+02	-17.2070	-109.890835	0.000598	5.979802	2.026012	-0.000239
1438	1.4298e+02	-17.2439	-110.092692	0.000507	5.067629	1.716959	-0.000203
1439	1.4308e+02	-17.2904	-110.310697	0.000547	5.473039	1.854316	-0.000219
1440	1.4318e+02	-17.3273	-110.508517	0.000497	4.966277	1.682620	-0.000199
1441	1.4328e+02	-17.3722	-110.730559	0.000557	5.574392	1.888655	-0.000223
1442	1.4338e+02	-17.4011	-110.992973	0.000659	6.587918	2.232047	-0.000264
1443	1.4348e+02	-17.4428	-111.150421	0.000395	3.952751	1.339228	-0.000158
1444	1.4358e+02	-17.4861	-111.388612	0.000598	5.979802	2.026012	-0.000239
1445	1.4368e+02	-17.5278	-111.602580	0.000537	5.371687	1.819977	-0.000215
1446	1.4378e+02	-17.5663	-111.812511	0.000527	5.270334	1.785638	-0.000211
1447	1.4388e+02	-17.6000	-112.022442	0.000527	5.270334	1.785638	-0.000211
1448	1.4398e+02	-17.6450	-112.220262	0.000497	4.966277	1.682620	-0.000199
1449	1.4408e+02	-17.6851	-112.442305	0.000557	5.574392	1.888655	-0.000223
1450	1.4418e+02	-17.7284	-112.656273	0.000537	5.371687	1.819977	-0.000215
1451	1.4428e+02	-17.7573	-112.825832	0.000426	4.256808	1.442246	-0.000170
1452	1.4437e+02	-17.7942	-113.088246	0.000659	6.587918	2.232047	-0.000264
1453	1.4447e+02	-17.8439	-113.306252	0.000547	5.473039	1.854316	-0.000219
1454	1.4457e+02	-17.8840	-113.487923	0.000456	4.560866	1.545263	-0.000183
1455	1.4467e+02	-17.9193	-113.750337	0.000659	6.587918	2.232047	-0.000264
1456	1.4477e+02	-17.9610	-113.972379	0.000557	5.574392	1.888655	-0.000223
1457	1.4487e+02	-18.0155	-114.194421	0.000557	5.574392	1.888655	-0.000223
1458	1.4497e+02	-18.0428	-114.372055	0.000446	4.459514	1.510924	-0.000179
1459	1.4507e+02	-18.0749	-114.622358	0.000628	6.283860	2.129029	-0.000252
1460	1.4517e+02	-18.1246	-114.804029	0.000456	4.560866	1.545263	-0.000183
1461	1.4527e+02	-18.1631	-115.054331	0.000628	6.283860	2.129029	-0.000252
1462	1.4537e+02	-18.2032	-115.288485	0.000588	5.878450	1.991673	-0.000235
1463	1.4547e+02	-18.2481	-115.494379	0.000517	5.168982	1.751298	-0.000207
1464	1.4557e+02	-18.2786	-115.720459	0.000568	5.675745	1.922994	-0.000227
1465	1.4567e+02	-18.3187	-115.910204	0.000476	4.763571	1.613942	-0.000191
1466	1.4577e+02	-18.3620	-116.176655	0.000669	6.689270	2.266386	-0.000268
1467	1.4587e+02	-18.4070	-116.378512	0.000507	5.067629	1.716959	-0.000203
1468	1.4597e+02	-18.4471	-116.592480	0.000537	5.371687	1.819977	-0.000215
1469	1.4607e+02	-18.4776	-116.818560	0.000568	5.675745	1.922994	-0.000227
1470	1.4617e+02	-18.5257	-117.072899	0.000639	6.385213	2.163369	-0.000256
1471	1.4626e+02	-18.5642	-117.327239	0.000639	6.385213	2.163369	-0.000256
1472	1.4636e+02	-18.6011	-117.472576	0.000365	3.648693	1.236211	-0.000146
1473	1.4646e+02	-18.6316	-117.726915	0.000639	6.385213	2.163369	-0.000256
1474	1.4656e+02	-18.6845	-117.904549	0.000446	4.459514	1.510924	-0.000179
1475	1.4666e+02	-18.7182	-118.166963	0.000659	6.587918	2.232047	-0.000264
1476	1.4676e+02	-18.7583	-118.397080	0.000578	5.777097	1.957334	-0.000231
1477	1.4686e+02	-18.8064	-118.607011	0.000527	5.270334	1.785638	-0.000211
1478	1.4696e+02	-18.8353	-118.816942	0.000527	5.270334	1.785638	-0.000211
1479	1.4706e+02	-18.8738	-119.071281	0.000639	6.385213	2.163369	-0.000256
1480	1.4716e+02	-18.9219	-119.269101	0.000497	4.966277	1.682620	-0.000199
1481	1.4726e+02	-18.9572	-119.551701	0.000709	7.094681	2.403743	-0.000284
1482	1.4736e+02	-19.0037	-119.769706	0.000547	5.473039	1.854316	-0.000219
1483	1.4746e+02	-19.0438	-119.979637	0.000527	5.270334	1.785638	-0.000211
1484	1.4756e+02	-19.0743	-120.205717	0.000568	5.675745	1.922994	-0.000227
1485	1.4766e+02	-19.1209	-120.435833	0.000578	5.777097	1.957334	-0.000231
1486	1.4776e+02	-19.1529	-120.682099	0.000618	6.182508	2.094690	-0.000248
1487	1.4786e+02	-19.2027	-120.912215	0.000578	5.777097	1.957334	-0.000231
1488	1.4796e+02	-19.2331	-121.130221	0.000547	5.473039	1.854316	-0.000219
1489	1.4806e+02	-19.2749	-121.368412	0.000598	5.979802	2.026012	-0.000239
1490	1.4816e+02	-19.3262	-121.590454	0.000557	5.574392	1.888655	-0.000223
1491	1.4825e+02	-19.3567	-121.812497	0.000557	5.574392	1.888655	-0.000223
1492	1.4835e+02	-19.3920	-122.050688	0.000598	5.979802	2.026012	-0.000239
1493	1.4845e+02	-19.4417	-122.280804	0.000578	5.777097	1.957334	-0.000231
1494	1.4855e+02	-19.4802	-122.482661	0.000507	5.067629	1.716959	-0.000203
1495	1.4865e+02	-19.5251	-122.737001	0.000639	6.385213	2.163369	-0.000256
1496	1.4875e+02	-19.5588	-122.991340	0.000639	6.385213	2.163369	-0.000256
1497	1.4885e+02	-19.6037	-123.229531	0.000598	5.979802	2.026012	-0.000239
1498	1.4895e+02	-19.6406	-123.479834	0.000628	6.283860	2.129029	-0.000252
1499	1.4905e+02	-19.6839	-123.697839	0.000547	5.473039	1.854316	-0.000219
1500	1.4915e+02	-19.7112	-123.927956	0.000578	5.777097	1.957334	-0.000231
1501	1.4925e+02	-19.7593	-124.166147	0.000598	5.979802	2.026012	-0.000239
1502	1.4935e+02	-19.8026	-124.424523	0.000649	6.486565	2.197708	-0.000260
1503	1.4945e+02	-19.8379	-124.666752	0.000608	6.081155	2.060351	-0.000243
1504	1.4955e+02	-19.8668	-124.880720	0.000537	5.371687	1.819977	-0.000215
1505	1.4965e+02	-19.9230	-125.147171	0.000669	6.689270	2.266386	-0.000268
1506	1.4975e+02	-19.9518	-125.369213	0.000557	5.574392	1.888655	-0.000223
1507	1.4985e+02	-19.9968	-125.591256	0.000557	5.574392	1.888655	-0.000223
1508	1.4995e+02	-19.9486	-125.522624	0.000172	1.722994	0.583766	0.000069
1509	1.5005e+02	-19.9182	-125.441882	0.000203	2.027052	0.686784	0.000081
1510	1.5015e+02	-19.8652	-125.312693	0.000324	3.243283	1.098854	0.000130
1511	1.5025e+02	-19.8299	-125.211765	0.000253	2.533815	0.858480	0.000101
1512	1.5034e+02	-19.7914	-125.118911	0.000233	2.331109	0.789801	0.000093
1513	1.5044e+02	-19.7593	-125.005871	0.000284	2.837872	0.961497	0.000114
1514	1.5054e+02	-19.7192	-124.868608	0.000345	3.445988	1.167532	0.000138
1515	1.5064e+02	-19.6775	-124.755569	0.000284	2.837872	0.961497	0.000114
1516	1.5074e+02	-19.6374	-124.678863	0.000193	1.925699	0.652445	0.000077
1517	1.5084e+02	-19.6117	-124.517378	0.000405	4.054103	1.373567	0.000162
1518	1.5094e+02	-19.5556	-124.436635	0.000203	2.027052	0.686784	0.000081
1519	1.5104e+02	-19.5235	-124.238815	0.000497	4.966277	1.682620	0.000199
1520	1.5114e+02	-19.4786	-124.129813	0.000274	2.736520	0.927158	0.000110
1521	1.5124e+02	-19.4353	-124.036958	0.000233	2.331109	0.789801	0.000093
1522	1.5134e+02	-19.3855	-123.911807	0.000314	3.141930	1.064515	0.000126
1523	1.5144e+02	-19.3567	-123.742248	0.000426	4.256808	1.442246	0.000170
1524	1.5154e+02	-19.3294	-123.633245	0.000274	2.736520	0.927158	0.000110
1525	1.5164e+02	-19.2797	-123.512131	0.000304	3.040577	1.030176	0.000122
1526	1.5174e+02	-19.2460	-123.374868	0.000345	3.445988	1.167532	0.000138
1527	1.5184e+02	-19.2027	-123.241643	0.000334	3.344635	1.133193	0.000134
1528	1.5194e+02	-19.1561	-123.112454	0.000324	3.243283	1.098854	0.000130
1529	1.5204e+02	-19.1257	-122.975192	0.000345	3.445988	1.167532	0.000138
1530	1.5214e+02	-19.0807	-122.817743	0.000395	3.952751	1.339228	0.000158
1531	1.5224e+02	-19.0358	-122.672407	0.000365	3.648693	1.236211	0.000146
1532	1.5233e+02	-18.9989	-122.494773	0.000446	4.459514	1.510924	0.000179
1533	1.5243e+02	-18.9588	-122.385770	0.000274	2.736520	0.927158	0.000110
1534	1.5253e+02	-18.9187	-122.260619	0.000314	3.141930	1.064515	0.000126
1535	1.5263e+02	-18.8850	-122.058762	0.000507	5.067629	1.716959	0.000203
1536	1.5273e+02	-18.8369	-121.969945	0.000223	2.229757	0.755462	0.000089
1537	1.5283e+02	-18.8048	-121.776162	0.000486	4.864924	1.648281	0.000195
1538	1.5293e+02	-18.7583	-121.659085	0.000294	2.939225	0.995836	0.000118
1539	1.5303e+02	-18.7118	-121.558157	0.000253	2.533815	0.858480	0.000101
1540	1.5313e+02	-18.6701	-121.368412	0.000476	4.763571	1.613942	0.000191
1541	1.5323e+02	-18.6380	-121.231149	0.000345	3.445988	1.167532	0.000138
1542	1.5333e+02	-18.5979	-121.041404	0.000476	4.763571	1.613942	0.000191
1543	1.5343e+02	-18.5658	-120.904141	0.000345	3.445988	1.167532	0.000138
1544	1.5353e+02	-18.5241	-120.766878	0.000345	3.445988	1.167532	0.000138
1545	1.5363e+02	-18.4824	-120.601356	0.000416	4.155456	1.407907	0.000166
1546	1.5373e+02	-18.4358	-120.415648	0.000466	4.662219	1.579602	0.000187
1547	1.5383e+02	-18.3989	-120.242051	0.000436	4.358161	1.476585	0.000174
1548	1.5393e+02	-18.3604	-120.116900	0.000314	3.141930	1.064515	0.000126
1549	1.5403e+02	-18.3316	-119.975600	0.000355	3.547340	1.201871	0.000142
1550	1.5413e+02	-18.2818	-119.806040	0.000426	4.256808	1.442246	0.000170
1551	1.5422e+02	-18.2433	-119.596109	0.000527	5.270334	1.785638	0.000211
1552	1.5432e+02	-18.2096	-119.479032	0.000294	2.939225	0.995836	0.000118
1553	1.5442e+02	-18.1663	-119.353881	0.000314	3.141930	1.064515	0.000126
1554	1.5452e+02	-18.1118	-119.095504	0.000649	6.486565	2.197708	0.000260
1555	1.5462e+02	-18.0781	-118.942093	0.000385	3.851398	1.304889	0.000154
1556	1.5472e+02	-18.0444	-118.820979	0.000304	3.040577	1.030176	0.000122
1557	1.5482e+02	-18.0043	-118.639308	0.000456	4.560866	1.545263	0.000183
1558	1.5492e+02	-17.9706	-118.498008	0.000355	3.547340	1.201871	0.000142
1559	1.5502e+02	-17.9113	-118.308263	0.000476	4.763571	1.613942	0.000191
1560	1.5512e+02	-17.8824	-118.130629	0.000446	4.459514	1.510924	0.000179
1561	1.5522e+02	-17.8519	-118.005478	0.000314	3.141930	1.064515	0.000126
1562	1.5532e+02	-17.8022	-117.860141	0.000365	3.648693	1.236211	0.000146
1563	1.5542e+02	-17.7685	-117.642135	0.000547	5.473039	1.854316	0.000219
1564	1.5552e+02	-17.7204	-117.448353	0.000486	4.864924	1.648281	0.000195
1565	1.5562e+02	-17.6851	-117.315127	0.000334	3.344635	1.133193	0.000134
1566	1.5572e+02	-17.6482	-117.214199	0.000253	2.533815	0.858480	0.000101
1567	1.5582e+02	-17.6113	-116.959859	0.000639	6.385213	2.163369	0.000256
1568	1.5592e+02	-17.5599	-116.814523	0.000365	3.648693	1.236211	0.000146
1569	1.5602e+02	-17.5311	-116.612666	0.000507	5.067629	1.716959	0.000203
1570	1.5612e+02	-17.4926	-116.487515	0.000314	3.141930	1.064515	0.000126
1571	1.5622e+02	-17.4492	-116.273546	0.000537	5.371687	1.819977	0.000215
1572	1.5631e+02	-17.4027	-116.128210	0.000365	3.648693	1.236211	0.000146
1573	1.5641e+02	-17.3658	-115.914241	0.000537	5.371687	1.819977	0.000215
1574	1.5651e+02	-17.3257	-115.764867	0.000375	3.750046	1.270550	0.000150
1575	1.5661e+02	-17.2920	-115.595308	0.000426	4.256808	1.442246	0.000170
1576	1.5671e+02	-17.2519	-115.421711	0.000436	4.358161	1.476585	0.000174
1577	1.5681e+02	-17.2102	-115.260225	0.000405	4.054103	1.373567	0.000162
1578	1.5691e+02	-17.1701	-115.082591	0.000446	4.459514	1.510924	0.000179
1579	1.5701e+02	-17.1172	-114.892846	0.000476	4.763571	1.613942	0.000191
1580	1.5711e+02	-17.0819	-114.719249	0.000436	4.358161	1.476585	0.000174
1581	1.5721e+02	-17.0434	-114.541615	0.000446	4.459514	1.510924	0.000179
1582	1.5731e+02	-17.0033	-114.380130	0.000405	4.054103	1.373567	0.000162
1583	1.5741e+02	-16.9728	-114.170199	0.000527	5.270334	1.785638	0.000211
1584	1.5751e+02	-16.9198	-114.024862	0.000365	3.648693	1.236211	0.000146
1585	1.5761e+02	-16.8862	-113.810894	0.000537	5.371687	1.819977	0.000215
1586	1.5771e+02	-16.8460	-113.661520	0.000375	3.750046	1.270550	0.000150
1587	1.5781e+02	-16.8124	-113.447551	0.000537	5.371687	1.819977	0.000215
1588	1.5791e+02	-16.7610	-113.290103	0.000395	3.952751	1.339228	0.000158
1589	1.5801e+02	-16.7209	-113.092283	0.000497	4.966277	1.682620	0.000199
1590	1.5811e+02	-16.6872	-112.930798	0.000405	4.054103	1.373567	0.000162
1591	1.5821e+02	-16.6487	-112.753164	0.000446	4.459514	1.510924	0.000179
1592	1.5830e+02	-16.6038	-112.571493	0.000456	4.560866	1.545263	0.000183
1593	1.5840e+02	-16.5733	-112.410007	0.000405	4.054103	1.373567	0.000162
1594	1.5850e+02	-16.5188	-112.192002	0.000547	5.473039	1.854316	0.000219
1595	1.5860e+02	-16.4835	-112.042628	0.000375	3.750046	1.270550	0.000150
1596	1.5870e+02	-16.4498	-111.844808	0.000497	4.966277	1.682620	0.000199
1597	1.5880e+02	-16.4145	-111.626803	0.000547	5.473039	1.854316	0.000219
1598	1.5890e+02	-16.3744	-111.489541	0.000345	3.445988	1.167532	0.000138
1599	1.5900e+02	-16.3295	-111.275572	0.000537	5.371687	1.819977	0.000215
1600	1.5910e+02	-16.2878	-111.134273	0.000355	3.547340	1.201871	0.000142
1601	1.5920e+02	-16.2445	-110.940490	0.000486	4.864924	1.648281	0.000195
1602	1.5930e+02	-16.2060	-110.766893	0.000436	4.358161	1.476585	0.000174
1603	1.5940e+02	-16.1707	-110.573111	0.000486	4.864924	1.648281	0.000195
1604	1.5950e+02	-16.1338	-110.383365	0.000476	4.763571	1.613942	0.000191
1605	1.5960e+02	-16.0921	-110.205731	0.000446	4.459514	1.510924	0.000179
1606	1.5970e+02	-16.0503	-110.020023	0.000466	4.662219	1.579602	0.000187
1607	1.5980e+02	-16.0118	-109.810092	0.000527	5.270334	1.785638	0.000211
1608	1.5990e+02	-15.9653	-109.628421	0.000456	4.560866	1.545263	0.000183
1609	1.6000e+02	-15.9364	-109.434638	0.000486	4.864924	1.648281	0.000195
1610	1.6010e+02	-15.8979	-109.204522	0.000578	5.777097	1.957334	0.000231
1611	1.6019e+02	-15.8546	-109.059185	0.000365	3.648693	1.236211	0.000146
1612	1.6029e+02	-15.8065	-108.873477	0.000466	4.662219	1.579602	0.000187
1613	1.6039e+02	-15.7776	-108.691805	0.000456	4.560866	1.545263	0.000183
1614	1.6049e+02	-15.7359	-108.514172	0.000446	4.459514	1.510924	0.000179
1615	1.6059e+02	-15.6958	-108.312315	0.000507	5.067629	1.716959	0.000203
1616	1.6069e+02	-15.6509	-108.126606	0.000466	4.662219	1.579602	0.000187
1617	1.6079e+02	-15.6092	-107.924750	0.000507	5.067629	1.716959	0.000203
1618	1.6089e+02	-15.5659	-107.718856	0.000517	5.168982	1.751298	0.000207
1619	1.6099e+02	-15.5386	-107.565445	0.000385	3.851398	1.304889	0.000154
1620	1.6109e+02	-15.5001	-107.379736	0.000466	4.662219	1.579602	0.000187
1621	1.6119e+02	-15.4488	-107.153657	0.000568	5.675745	1.922994	0.000227
1622	1.6129e+02	-15.4151	-106.971986	0.000456	4.560866	1.545263	0.000183
1623	1.6139e+02	-15.3653	-106.786277	0.000466	4.662219	1.579602	0.000187
1624	1.6149e+02	-15.3349	-106.584421	0.000507	5.067629	1.716959	0.000203
1625	1.6159e+02	-15.2948	-106.422935	0.000405	4.054103	1.373567	0.000162
1626	1.6169e+02	-15.2530	-106.221078	0.000507	5.067629	1.716959	0.000203
1627	1.6179e+02	-15.2161	-106.007110	0.000537	5.371687	1.819977	0.000215
1628	1.6189e+02	-15.1809	-105.865810	0.000355	3.547340	1.201871	0.000142
1629	1.6199e+02	-15.1375	-105.659917	0.000517	5.168982	1.751298	0.000207
1630	1.6209e+02	-15.0958	-105.466134	0.000486	4.864924	1.648281	0.000195
1631	1.6219e+02	-15.0605	-105.256203	0.000527	5.270334	1.785638	0.000211
1632	1.6228e+02	-15.0092	-105.094718	0.000405	4.054103	1.373567	0.000162
1633	1.6238e+02	-14.9755	-104.900935	0.000486	4.864924	1.648281	0.000195
1634	1.6248e+02	-14.9402	-104.731375	0.000426	4.256808	1.442246	0.000170
1635	1.6258e+02	-14.8953	-104.481073	0.000628	6.283860	2.129029	0.000252
1636	1.6268e+02	-14.8520	-104.323625	0.000395	3.952751	1.339228	0.000158
1637	1.6278e+02	-14.8071	-104.121768	0.000507	5.067629	1.716959	0.000203
1638	1.6288e+02	-14.7750	-103.923948	0.000497	4.966277	1.682620	0.000199
1639	1.6298e+02	-14.7317	-103.758426	0.000416	4.155456	1.407907	0.000166
1640	1.6308e+02	-14.6996	-103.548495	0.000527	5.270334	1.785638	0.000211
1641	1.6318e+02	-14.6611	-103.350675	0.000497	4.966277	1.682620	0.000199
1642	1.6328e+02	-14.6242	-103.209375	0.000355	3.547340	1.201871	0.000142
1643	1.6338e+02	-14.5729	-102.955036	0.000639	6.385213	2.163369	0.000256
1644	1.6348e+02	-14.5360	-102.793550	0.000405	4.054103	1.373567	0.000162
1645	1.6358e+02	-14.5007	-102.603805	0.000476	4.763571	1.613942	0.000191
1646	1.6368e+02	-14.4541	-102.385799	0.000547	5.473039	1.854316	0.000219
1647	1.6378e+02	-14.4221	-102.179906	0.000517	5.168982	1.751298	0.000207
1648	1.6388e+02	-14.3707	-102.006309	0.000436	4.358161	1.476585	0.000174
1649	1.6398e+02	-14.3402	-101.784266	0.000557	5.574392	1.888655	0.000223
1650	1.6408e+02	-14.3049	-101.614707	0.000426	4.256808	1.442246	0.000170
1651	1.6418e+02	-14.2600	-101.428998	0.000466	4.662219	1.579602	0.000187
1652	1.6427e+02	-14.2215	-101.239253	0.000476	4.763571	1.613942	0.000191
1653	1.6437e+02	-14.1830	-101.041433	0.000497	4.966277	1.682620	0.000199
1654	1.6447e+02	-14.1445	-100.883985	0.000395	3.952751	1.339228	0.000158
1655	1.6457e+02	-14.0996	-100.686165	0.000497	4.966277	1.682620	0.000199
1656	1.6467e+02	-14.0595	-100.423751	0.000659	6.587918	2.232047	0.000264
1657	1.6477e+02	-14.0130	-100.266303	0.000395	3.952751	1.339228	0.000158
1658	1.6487e+02	-13.9745	-100.064446	0.000507	5.067629	1.716959	0.000203
1659	1.6497e+02	-13.9344	-99.826255	0.000598	5.979802	2.026012	0.000239
1660	1.6507e+02	-13.8959	-99.648621	0.000446	4.459514	1.510924	0.000179
1661	1.6517e+02	-13.8574	-99.462913	0.000466	4.662219	1.579602	0.000187
1662	1.6527e+02	-13.8301	-99.277205	0.000466	4.662219	1.579602	0.000187
1663	1.6537e+02	-13.7755	-99.079385	0.000497	4.966277	1.682620	0.000199
1664	1.6547e+02	-13.7386	-98.861380	0.000547	5.473039	1.854316	0.000219
1665	1.6557e+02	-13.6953	-98.643375	0.000547	5.473039	1.854316	0.000219
1666	1.6567e+02	-13.6600	-98.510149	0.000334	3.344635	1.133193	0.000134
1667	1.6577e+02	-13.6215	-98.267921	0.000608	6.081155	2.060351	0.000243
1668	1.6587e+02	-13.5798	-98.086250	0.000456	4.560866	1.545263	0.000183
1669	1.6597e+02	-13.5349	-97.888430	0.000497	4.966277	1.682620	0.000199
1670	1.6607e+02	-13.5012	-97.718871	0.000426	4.256808	1.442246	0.000170
1671	1.6616e+02	-13.4707	-97.480680	0.000598	5.979802	2.026012	0.000239
1672	1.6626e+02	-13.4226	-97.278823	0.000507	5.067629	1.716959	0.000203
1673	1.6636e+02	-13.3713	-97.097152	0.000456	4.560866	1.545263	0.000183
1674	1.6646e+02	-13.3376	-96.907406	0.000476	4.763571	1.613942	0.000191
1675	1.6656e+02	-13.3007	-96.649030	0.000649	6.486565	2.197708	0.000260
1676	1.6666e+02	-13.2638	-96.495618	0.000385	3.851398	1.304889	0.000154
1677	1.6676e+02	-13.2157	-96.281650	0.000537	5.371687	1.819977	0.000215
1678	1.6686e+02	-13.1916	-96.079793	0.000507	5.067629	1.716959	0.000203
1679	1.6696e+02	-13.1387	-95.857751	0.000557	5.574392	1.888655	0.000223
1680	1.6706e+02	-13.0970	-95.692228	0.000416	4.155456	1.407907	0.000166
1681	1.6716e+02	-13.0552	-95.530743	0.000405	4.054103	1.373567	0.000162
1682	1.6726e+02	-13.0280	-95.308701	0.000557	5.574392	1.888655	0.000223
1683	1.6736e+02	-12.9750	-95.078584	0.000578	5.777097	1.957334	0.000231
1684	1.6746e+02	-12.9365	-94.880764	0.000497	4.966277	1.682620	0.000199
1685	1.6756e+02	-12.8996	-94.662759	0.000547	5.473039	1.854316	0.000219
1686	1.6766e+02	-12.8579	-94.525496	0.000345	3.445988	1.167532	0.000138
1687	1.6776e+02	-12.8146	-94.271157	0.000639	6.385213	2.163369	0.000256
1688	1.6786e+02	-12.7938	-94.117745	0.000385	3.851398	1.304889	0.000154
1689	1.6796e+02	-12.7360	-93.895703	0.000557	5.574392	1.888655	0.000223
1690	1.6806e+02	-12.7007	-93.665586	0.000578	5.777097	1.957334	0.000231
1691	1.6816e+02	-12.6670	-93.512175	0.000385	3.851398	1.304889	0.000154
1692	1.6825e+02	-12.6237	-93.233613	0.000699	6.993328	2.369404	0.000280
1693	1.6835e+02	-12.5948	-93.072127	0.000405	4.054103	1.373567	0.000162
1694	1.6845e+02	-12.5483	-92.866233	0.000517	5.168982	1.751298	0.000207
1695	1.6855e+02	-12.5130	-92.636117	0.000578	5.777097	1.957334	0.000231
1696	1.6865e+02	-12.4665	-92.506928	0.000324	3.243283	1.098854	0.000130
1697	1.6875e+02	-12.4248	-92.264700	0.000608	6.081155	2.060351	0.000243
1698	1.6885e+02	-12.3879	-92.010361	0.000639	6.385213	2.163369	0.000256
1699	1.6895e+02	-12.3494	-91.860987	0.000375	3.750046	1.270550	0.000150
1700	1.6905e+02	-12.3045	-91.606647	0.000639	6.385213	2.163369	0.000256
1701	1.6915e+02	-12.2660	-91.420939	0.000466	4.662219	1.579602	0.000187
1702	1.6925e+02	-12.2178	-91.202933	0.000547	5.473039	1.854316	0.000219
1703	1.6935e+02	-12.1938	-91.009151	0.000486	4.864924	1.648281	0.000195
1704	1.6945e+02	-12.1473	-90.855740	0.000385	3.851398	1.304889	0.000154
1705	1.6955e+02	-12.1039	-90.593326	0.000659	6.587918	2.232047	0.000264
1706	1.6965e+02	-12.0622	-90.403581	0.000476	4.763571	1.613942	0.000191
1707	1.6975e+02	-12.0221	-90.169427	0.000588	5.878450	1.991673	0.000235
1708	1.6985e+02	-11.9868	-89.927199	0.000608	6.081155	2.060351	0.000243
1709	1.6995e+02	-11.9483	-89.745527	0.000456	4.560866	1.545263	0.000183
1710	1.7005e+02	-11.9146	-89.559819	0.000466	4.662219	1.579602	0.000187
1711	1.7015e+02	-11.8633	-89.337777	0.000557	5.574392	1.888655	0.000223
1712	1.7024e+02	-11.8280	-89.123809	0.000537	5.371687	1.819977	0.000215
1713	1.7034e+02	-11.7847	-88.930026	0.000486	4.864924	1.648281	0.000195
1714	1.7044e+02	-11.7574	-88.699909	0.000578	5.777097	1.957334	0.000231
1715	1.7054e+02	-11.7109	-88.510164	0.000476	4.763571	1.613942	0.000191
1716	1.7064e+02	-11.6676	-88.288121	0.000557	5.574392	1.888655	0.000223
1717	1.7074e+02	-11.6243	-88.033782	0.000639	6.385213	2.163369	0.000256
1718	1.7084e+02	-11.6002	-87.860185	0.000436	4.358161	1.476585	0.000174
1719	1.7094e+02	-11.5537	-87.678514	0.000456	4.560866	1.545263	0.000183
1720	1.7104e+02	-11.5088	-87.408026	0.000679	6.790623	2.300725	0.000272
1721	1.7114e+02	-11.4783	-87.234429	0.000436	4.358161	1.476585	0.000174
1722	1.7124e+02	-11.4286	-87.008349	0.000568	5.675745	1.922994	0.000227
1723	1.7134e+02	-11.3933	-86.790344	0.000547	5.473039	1.854316	0.000219
1724	1.7144e+02	-11.3516	-86.584450	0.000517	5.168982	1.751298	0.000207
1725	1.7154e+02	-11.3243	-86.366445	0.000547	5.473039	1.854316	0.000219
1726	1.7164e+02	-11.2681	-86.128254	0.000598	5.979802	2.026012	0.000239
1727	1.7174e+02	-11.2328	-85.914286	0.000537	5.371687	1.819977	0.000215
1728	1.7184e+02	-11.1959	-85.700317	0.000537	5.371687	1.819977	0.000215
1729	1.7194e+02	-11.1590	-85.494424	0.000517	5.168982	1.751298	0.000207
1730	1.7204e+02	-11.1045	-85.280455	0.000537	5.371687	1.819977	0.000215
1731	1.7213e+02	-11.0756	-85.054376	0.000568	5.675745	1.922994	0.000227
1732	1.7223e+02	-11.0307	-84.816185	0.000598	5.979802	2.026012	0.000239
1733	1.7233e+02	-10.9890	-84.634514	0.000456	4.560866	1.545263	0.000183
1734	1.7243e+02	-10.9521	-84.396323	0.000598	5.979802	2.026012	0.000239
1735	1.7253e+02	-10.9072	-84.186392	0.000527	5.270334	1.785638	0.000211
1736	1.7263e+02	-10.8831	-83.984535	0.000507	5.067629	1.716959	0.000203
1737	1.7273e+02	-10.8414	-83.758455	0.000568	5.675745	1.922994	0.000227
1738	1.7283e+02	-10.7933	-83.544487	0.000537	5.371687	1.819977	0.000215
1739	1.7293e+02	-10.7452	-83.282073	0.000659	6.587918	2.232047	0.000264
1740	1.7303e+02	-10.7163	-83.072142	0.000527	5.270334	1.785638	0.000211
1741	1.7313e+02	-10.6746	-82.842025	0.000578	5.777097	1.957334	0.000231
1742	1.7323e+02	-10.6313	-82.644206	0.000497	4.966277	1.682620	0.000199
1743	1.7333e+02	-10.5895	-82.389866	0.000639	6.385213	2.163369	0.000256
1744	1.7343e+02	-10.5446	-82.200121	0.000476	4.763571	1.613942	0.000191
1745	1.7353e+02	-10.5125	-81.941744	0.000649	6.486565	2.197708	0.000260
1746	1.7363e+02	-10.4740	-81.715664	0.000568	5.675745	1.922994	0.000227
1747	1.7373e+02	-10.4339	-81.513808	0.000507	5.067629	1.716959	0.000203
1748	1.7383e+02	-10.3954	-81.303877	0.000527	5.270334	1.785638	0.000211
1749	1.7393e+02	-10.3601	-81.089908	0.000537	5.371687	1.819977	0.000215
1750	1.7403e+02	-10.3184	-80.875940	0.000537	5.371687	1.819977	0.000215
1751	1.7413e+02	-10.2751	-80.645824	0.000578	5.777097	1.957334	0.000231
1752	1.7422e+02	-10.2350	-80.411670	0.000588	5.878450	1.991673	0.000235
1753	1.7432e+02	-10.1933	-80.145219	0.000669	6.689270	2.266386	0.000268
1754	1.7442e+02	-10.1516	-79.979696	0.000416	4.155456	1.407907	0.000166
1755	1.7452e+02	-10.1131	-79.745542	0.000588	5.878450	1.991673	0.000235
1756	1.7462e+02	-10.0810	-79.487166	0.000649	6.486565	2.197708	0.000260
1757	1.7472e+02	-10.0393	-79.273197	0.000537	5.371687	1.819977	0.000215
1758	1.7482e+02	-9.9944	-79.026932	0.000618	6.182508	2.094690	0.000248
1759	1.7492e+02	-9.9543	-78.845261	0.000456	4.560866	1.545263	0.000183
1760	1.7502e+02	-9.9126	-78.590921	0.000639	6.385213	2.163369	0.000256
1761	1.7512e+02	-9.8805	-78.332545	0.000649	6.486565	2.197708	0.000260
1762	1.7522e+02	-9.8323	-78.126651	0.000517	5.168982	1.751298	0.000207
1763	1.7532e+02	-9.7987	-77.932868	0.000486	4.864924	1.648281	0.000195
1764	1.7542e+02	-9.7553	-77.698714	0.000588	5.878450	1.991673	0.000235
1765	1.7552e+02	-9.7168	-77.432263	0.000669	6.689270	2.266386	0.000268
1766	1.7562e+02	-9.6783	-77.230407	0.000507	5.067629	1.716959	0.000203
1767	1.7572e+02	-9.6366	-76.988179	0.000608	6.081155	2.060351	0.000243
1768	1.7582e+02	-9.6045	-76.758062	0.000578	5.777097	1.957334	0.000231
1769	1.7592e+02	-9.5596	-76.568316	0.000476	4.763571	1.613942	0.000191
1770	1.7602e+02	-9.5147	-76.269568	0.000750	7.500091	2.541100	0.000300
1771	1.7612e+02	-9.4714	-76.104046	0.000416	4.155456	1.407907	0.000166
1772	1.7621e+02	-9.4361	-75.882003	0.000557	5.574392	1.888655	0.000223
1773	1.7631e+02	-9.4072	-75.663998	0.000547	5.473039	1.854316	0.000219
1774	1.7641e+02	-9.3511	-75.373324	0.000730	7.297386	2.472421	0.000292
1775	1.7651e+02	-9.3142	-75.167430	0.000517	5.168982	1.751298	0.000207
1776	1.7661e+02	-9.2757	-74.933276	0.000588	5.878450	1.991673	0.000235
1777	1.7671e+02	-9.2452	-74.703160	0.000578	5.777097	1.957334	0.000231
1778	1.7681e+02	-9.2019	-74.448820	0.000639	6.385213	2.163369	0.000256
1779	1.7691e+02	-9.1634	-74.299446	0.000375	3.750046	1.270550	0.000150
1780	1.7701e+02	-9.1169	-73.984550	0.000791	7.905501	2.678456	0.000316
1781	1.7711e+02	-9.0767	-73.774618	0.000527	5.270334	1.785638	0.000211
1782	1.7721e+02	-9.0447	-73.544502	0.000578	5.777097	1.957334	0.000231
1783	1.7731e+02	-8.9965	-73.334571	0.000527	5.270334	1.785638	0.000211
1784	1.7741e+02	-8.9645	-73.064083	0.000679	6.790623	2.300725	0.000272
1785	1.7751e+02	-8.9243	-72.842040	0.000557	5.574392	1.888655	0.000223
1786	1.7761e+02	-8.8778	-72.595775	0.000618	6.182508	2.094690	0.000248
1787	1.7771e+02	-8.8393	-72.397955	0.000497	4.966277	1.682620	0.000199
1788	1.7781e+02	-8.7960	-72.107281	0.000730	7.297386	2.472421	0.000292
1789	1.7791e+02	-8.7607	-71.901387	0.000517	5.168982	1.751298	0.000207
1790	1.7801e+02	-8.7238	-71.643011	0.000649	6.486565	2.197708	0.000260
1791	1.7810e+02	-8.6773	-71.433080	0.000527	5.270334	1.785638	0.000211
1792	1.7820e+02	-8.6324	-71.235260	0.000497	4.966277	1.682620	0.000199
1793	1.7830e+02	-8.6035	-70.952661	0.000709	7.094681	2.403743	0.000284
1794	1.7840e+02	-8.5554	-70.779064	0.000436	4.358161	1.476585	0.000174
1795	1.7850e+02	-8.5201	-70.480316	0.000750	7.500091	2.541100	0.000300
1796	1.7860e+02	-8.4832	-70.270385	0.000527	5.270334	1.785638	0.000211
1797	1.7870e+02	-8.4495	-70.020082	0.000628	6.283860	2.129029	0.000252
1798	1.7880e+02	-8.3917	-69.777854	0.000608	6.081155	2.060351	0.000243
1799	1.7890e+02	-8.3597	-69.563886	0.000537	5.371687	1.819977	0.000215
1800	1.7900e+02	-8.3244	-69.321658	0.000608	6.081155	2.060351	0.000243
1801	1.7910e+02	-8.2810	-69.099615	0.000557	5.574392	1.888655	0.000223
1802	1.7920e+02	-8.2490	-68.841239	0.000649	6.486565	2.197708	0.000260
1803	1.7930e+02	-8.2024	-68.619196	0.000557	5.574392	1.888655	0.000223
1804	1.7940e+02	-8.1607	-68.376968	0.000608	6.081155	2.060351	0.000243
1805	1.7950e+02	-8.1222	-68.171074	0.000517	5.168982	1.751298	0.000207
1806	1.7960e+02	-8.0821	-67.920772	0.000628	6.283860	2.129029	0.000252
1807	1.7970e+02	-8.0436	-67.718915	0.000507	5.067629	1.716959	0.000203
1808	1.7980e+02	-8.0131	-67.448427	0.000679	6.790623	2.300725	0.000272
1809	1.7990e+02	-7.9698	-67.177939	0.000679	6.790623	2.300725	0.000272
1810	1.8000e+02	-7.9233	-66.931673	0.000618	6.182508	2.094690	0.000248
1811	1.8009e+02	-7.8848	-66.733854	0.000497	4.966277	1.682620	0.000199
1812	1.8019e+02	-7.8479	-66.495663	0.000598	5.979802	2.026012	0.000239
1813	1.8029e+02	-7.7998	-66.229212	0.000669	6.689270	2.266386	0.000268
1814	1.8039e+02	-7.7613	-66.015244	0.000537	5.371687	1.819977	0.000215
1815	1.8049e+02	-7.7260	-65.797238	0.000547	5.473039	1.854316	0.000219
1816	1.8059e+02	-7.6923	-65.522713	0.000689	6.891976	2.335065	0.000276
1817	1.8069e+02	-7.6522	-65.292596	0.000578	5.777097	1.957334	0.000231
1818	1.8079e+02	-7.6025	-65.050368	0.000608	6.081155	2.060351	0.000243
1819	1.8089e+02	-7.5752	-64.824289	0.000568	5.675745	1.922994	0.000227
1820	1.8099e+02	-7.5335	-64.598209	0.000568	5.675745	1.922994	0.000227
1821	1.8109e+02	-7.4870	-64.347907	0.000628	6.283860	2.129029	0.000252
1822	1.8119e+02	-7.4452	-64.109716	0.000598	5.979802	2.026012	0.000239
1823	1.8129e+02	-7.4051	-63.871525	0.000598	5.979802	2.026012	0.000239
1824	1.8139e+02	-7.3634	-63.657556	0.000537	5.371687	1.819977	0.000215
1825	1.8149e+02	-7.3281	-63.378994	0.000699	6.993328	2.369404	0.000280
1826	1.8159e+02	-7.2880	-63.120617	0.000649	6.486565	2.197708	0.000260
1827	1.8169e+02	-7.2463	-62.934909	0.000466	4.662219	1.579602	0.000187
1828	1.8179e+02	-7.2078	-62.684607	0.000628	6.283860	2.129029	0.000252
1829	1.8189e+02	-7.1581	-62.454490	0.000578	5.777097	1.957334	0.000231
1830	1.8199e+02	-7.1292	-62.171890	0.000709	7.094681	2.403743	0.000284
1831	1.8209e+02	-7.0843	-61.921588	0.000628	6.283860	2.129029	0.000252
1832	1.8218e+02	-7.0490	-61.695508	0.000568	5.675745	1.922994	0.000227
1833	1.8228e+02	-7.0009	-61.420983	0.000689	6.891976	2.335065	0.000276
1834	1.8238e+02	-6.9688	-61.170681	0.000628	6.283860	2.129029	0.000252
1835	1.8248e+02	-6.9207	-60.956713	0.000537	5.371687	1.819977	0.000215
1836	1.8258e+02	-6.8934	-60.726596	0.000578	5.777097	1.957334	0.000231
1837	1.8268e+02	-6.8501	-60.452071	0.000689	6.891976	2.335065	0.000276
1838	1.8278e+02	-6.8019	-60.246177	0.000517	5.168982	1.751298	0.000207
1839	1.8288e+02	-6.7683	-59.963577	0.000709	7.094681	2.403743	0.000284
1840	1.8298e+02	-6.7314	-59.733460	0.000578	5.777097	1.957334	0.000231
1841	1.8308e+02	-6.6864	-59.495269	0.000598	5.979802	2.026012	0.000239
1842	1.8318e+02	-6.6560	-59.309561	0.000466	4.662219	1.579602	0.000187
1843	1.8328e+02	-6.6110	-59.035036	0.000689	6.891976	2.335065	0.000276
1844	1.8338e+02	-6.5709	-58.744362	0.000730	7.297386	2.472421	0.000292
1845	1.8348e+02	-6.5308	-58.494060	0.000628	6.283860	2.129029	0.000252
1846	1.8358e+02	-6.4763	-58.276054	0.000547	5.473039	1.854316	0.000219
1847	1.8368e+02	-6.4474	-58.058049	0.000547	5.473039	1.854316	0.000219
1848	1.8378e+02	-6.4169	-57.840044	0.000547	5.473039	1.854316	0.000219
1849	1.8388e+02	-6.3736	-57.573593	0.000669	6.689270	2.266386	0.000268
1850	1.8398e+02	-6.3367	-57.286956	0.000720	7.196033	2.438082	0.000288
1851	1.8407e+02	-6.2998	-57.081062	0.000517	5.168982	1.751298	0.000207
1852	1.8417e+02	-6.2549	-56.867094	0.000537	5.371687	1.819977	0.000215
1853	1.8427e+02	-6.2052	-56.584495	0.000709	7.094681	2.403743	0.000284
1854	1.8437e+02	-6.1651	-56.346303	0.000598	5.979802	2.026012	0.000239
1855	1.8447e+02	-6.1394	-56.091964	0.000639	6.385213	2.163369	0.000256
1856	1.8457e+02	-6.0897	-55.825513	0.000669	6.689270	2.266386	0.000268
1857	1.8467e+02	-6.0512	-55.579248	0.000618	6.182508	2.094690	0.000248
1858	1.8477e+02	-6.0111	-55.324908	0.000639	6.385213	2.163369	0.000256
1859	1.8487e+02	-5.9742	-55.066531	0.000649	6.486565	2.197708	0.000260
1860	1.8497e+02	-5.9373	-54.840452	0.000568	5.675745	1.922994	0.000227
1861	1.8507e+02	-5.9004	-54.602261	0.000598	5.979802	2.026012	0.000239
1862	1.8517e+02	-5.8522	-54.339847	0.000659	6.587918	2.232047	0.000264
1863	1.8527e+02	-5.8137	-54.073396	0.000669	6.689270	2.266386	0.000268
1864	1.8537e+02	-5.7736	-53.823094	0.000628	6.283860	2.129029	0.000252
1865	1.8547e+02	-5.7271	-53.609125	0.000537	5.371687	1.819977	0.000215
1866	1.8557e+02	-5.6934	-53.342675	0.000669	6.689270	2.266386	0.000268
1867	1.8567e+02	-5.6581	-53.076224	0.000669	6.689270	2.266386	0.000268
1868	1.8577e+02	-5.6164	-52.850144	0.000568	5.675745	1.922994	0.000227
1869	1.8587e+02	-5.5747	-52.555433	0.000740	7.398739	2.506760	0.000296
1870	1.8597e+02	-5.5410	-52.317242	0.000598	5.979802	2.026012	0.000239
1871	1.8606e+02	-5.4945	-52.087125	0.000578	5.777097	1.957334	0.000231
1872	1.8616e+02	-5.4560	-51.832786	0.000639	6.385213	2.163369	0.000256
1873	1.8626e+02	-5.4127	-51.578446	0.000639	6.385213	2.163369	0.000256
1874	1.8636e+02	-5.3822	-51.348329	0.000578	5.777097	1.957334	0.000231
1875	1.8646e+02	-5.3325	-51.061693	0.000720	7.196033	2.438082	0.000288
1876	1.8656e+02	-5.3004	-50.799279	0.000659	6.587918	2.232047	0.000264
1877	1.8666e+02	-5.2490	-50.528791	0.000679	6.790623	2.300725	0.000272
1878	1.8676e+02	-5.2105	-50.298674	0.000578	5.777097	1.957334	0.000231
1879	1.8686e+02	-5.1753	-50.064520	0.000588	5.878450	1.991673	0.000235
1880	1.8696e+02	-5.1351	-49.798069	0.000669	6.689270	2.266386	0.000268
1881	1.8706e+02	-5.1031	-49.503358	0.000740	7.398739	2.506760	0.000296
1882	1.8716e+02	-5.0501	-49.281316	0.000557	5.574392	1.888655	0.000223
1883	1.8726e+02	-5.0116	-49.014865	0.000669	6.689270	2.266386	0.000268
1884	1.8736e+02	-4.9779	-48.744377	0.000679	6.790623	2.300725	0.000272
1885	1.8746e+02	-4.9330	-48.477926	0.000669	6.689270	2.266386	0.000268
1886	1.8756e+02	-4.8993	-48.243772	0.000588	5.878450	1.991673	0.000235
1887	1.8766e+02	-4.8592	-47.977321	0.000669	6.689270	2.266386	0.000268
1888	1.8776e+02	-4.8223	-47.751242	0.000568	5.675745	1.922994	0.000227
1889	1.8786e+02	-4.7758	-47.452493	0.000750	7.500091	2.541100	0.000300
1890	1.8796e+02	-4.7437	-47.198154	0.000639	6.385213	2.163369	0.000256
1891	1.8806e+02	-4.7084	-46.939777	0.000649	6.486565	2.197708	0.000260
1892	1.8815e+02	-4.6603	-46.693512	0.000618	6.182508	2.094690	0.000248
1893	1.8825e+02	-4.6170	-46.374578	0.000801	8.006854	2.712796	0.000321
1894	1.8835e+02	-4.5689	-46.140424	0.000588	5.878450	1.991673	0.000235
1895	1.8845e+02	-4.5432	-45.914345	0.000568	5.675745	1.922994	0.000227
1896	1.8855e+02	-4.5031	-45.635782	0.000699	6.993328	2.369404	0.000280
1897	1.8865e+02	-4.4630	-45.361257	0.000689	6.891976	2.335065	0.000276
1898	1.8875e+02	-4.4116	-45.074621	0.000720	7.196033	2.438082	0.000288
1899	1.8885e+02	-4.3828	-44.824318	0.000628	6.283860	2.129029	0.000252
1900	1.8895e+02	-4.3282	-44.569979	0.000639	6.385213	2.163369	0.000256
1901	1.8905e+02	-4.3009	-44.311602	0.000649	6.486565	2.197708	0.000260
1902	1.8915e+02	-4.2576	-44.065337	0.000618	6.182508	2.094690	0.000248
1903	1.8925e+02	-4.2175	-43.823108	0.000608	6.081155	2.060351	0.000243
1904	1.8935e+02	-4.1854	-43.504175	0.000801	8.006854	2.712796	0.000321
1905	1.8945e+02	-4.1437	-43.225612	0.000699	6.993328	2.369404	0.000280
1906	1.8955e+02	-4.1004	-42.975310	0.000628	6.283860	2.129029	0.000252
1907	1.8965e+02	-4.0651	-42.749230	0.000568	5.675745	1.922994	0.000227
1908	1.8975e+02	-4.0202	-42.474705	0.000689	6.891976	2.335065	0.000276
1909	1.8985e+02	-3.9769	-42.167883	0.000770	7.702796	2.609778	0.000308
1910	1.8995e+02	-3.9480	-41.937766	0.000578	5.777097	1.957334	0.000231
1911	1.9004e+02	-3.8967	-41.626907	0.000780	7.804149	2.644117	0.000312
1912	1.9014e+02	-3.8534	-41.376604	0.000628	6.283860	2.129029	0.000252
1913	1.9024e+02	-3.8213	-41.162636	0.000537	5.371687	1.819977	0.000215
1914	1.9034e+02	-3.7796	-40.835628	0.000821	8.209559	2.781474	0.000329
1915	1.9044e+02	-3.7427	-40.577251	0.000649	6.486565	2.197708	0.000260
1916	1.9054e+02	-3.7074	-40.286578	0.000730	7.297386	2.472421	0.000292
1917	1.9064e+02	-3.6753	-40.016089	0.000679	6.790623	2.300725	0.000272
1918	1.9074e+02	-3.6256	-39.769824	0.000618	6.182508	2.094690	0.000248
1919	1.9084e+02	-3.5790	-39.511447	0.000649	6.486565	2.197708	0.000260
1920	1.9094e+02	-3.5502	-39.224811	0.000720	7.196033	2.438082	0.000288
1921	1.9104e+02	-3.4988	-38.942211	0.000709	7.094681	2.403743	0.000284
1922	1.9114e+02	-3.4667	-38.671723	0.000679	6.790623	2.300725	0.000272
1923	1.9124e+02	-3.4218	-38.409309	0.000659	6.587918	2.232047	0.000264
1924	1.9134e+02	-3.3817	-38.122673	0.000720	7.196033	2.438082	0.000288
1925	1.9144e+02	-3.3416	-37.876407	0.000618	6.182508	2.094690	0.000248
1926	1.9154e+02	-3.3031	-37.585734	0.000730	7.297386	2.472421	0.000292
1927	1.9164e+02	-3.2614	-37.327357	0.000649	6.486565	2.197708	0.000260
1928	1.9174e+02	-3.2277	-37.016498	0.000780	7.804149	2.644117	0.000312
1929	1.9184e+02	-3.1860	-36.786381	0.000578	5.777097	1.957334	0.000231
1930	1.9194e+02	-3.1427	-36.532041	0.000639	6.385213	2.163369	0.000256
1931	1.9203e+02	-3.0978	-36.213108	0.000801	8.006854	2.712796	0.000321
1932	1.9213e+02	-3.0641	-35.987028	0.000568	5.675745	1.922994	0.000227
1933	1.9223e+02	-3.0304	-35.684243	0.000760	7.601444	2.575439	0.000304
1934	1.9233e+02	-2.9919	-35.393569	0.000730	7.297386	2.472421	0.000292
1935	1.9243e+02	-2.9470	-35.143267	0.000628	6.283860	2.129029	0.000252
1936	1.9253e+02	-2.9069	-34.848556	0.000740	7.398739	2.506760	0.000296
1937	1.9263e+02	-2.8764	-34.561919	0.000720	7.196033	2.438082	0.000288
1938	1.9273e+02	-2.8267	-34.319691	0.000608	6.081155	2.060351	0.000243
1939	1.9283e+02	-2.7866	-34.033054	0.000720	7.196033	2.438082	0.000288
1940	1.9293e+02	-2.7400	-33.758529	0.000689	6.891976	2.335065	0.000276
1941	1.9303e+02	-2.7079	-33.484004	0.000689	6.891976	2.335065	0.000276
1942	1.9313e+02	-2.6630	-33.209479	0.000689	6.891976	2.335065	0.000276
1943	1.9323e+02	-2.6277	-32.914768	0.000740	7.398739	2.506760	0.000296
1944	1.9333e+02	-2.5876	-32.632168	0.000709	7.094681	2.403743	0.000284
1945	1.9343e+02	-2.5363	-32.373791	0.000649	6.486565	2.197708	0.000260
1946	1.9353e+02	-2.5122	-32.107341	0.000669	6.689270	2.266386	0.000268
1947	1.9363e+02	-2.4673	-31.836852	0.000679	6.790623	2.300725	0.000272
1948	1.9373e+02	-2.4368	-31.513882	0.000811	8.108207	2.747135	0.000325
1949	1.9383e+02	-2.3919	-31.259542	0.000639	6.385213	2.163369	0.000256
1950	1.9393e+02	-2.3534	-30.972905	0.000720	7.196033	2.438082	0.000288
1951	1.9403e+02	-2.3053	-30.718566	0.000639	6.385213	2.163369	0.000256
1952	1.9412e+02	-2.2652	-30.444041	0.000689	6.891976	2.335065	0.000276
1953	1.9422e+02	-2.2267	-30.161441	0.000709	7.094681	2.403743	0.000284
1954	1.9432e+02	-2.1850	-29.911139	0.000628	6.283860	2.129029	0.000252
1955	1.9442e+02	-2.1513	-29.604316	0.000770	7.702796	2.609778	0.000308
1956	1.9452e+02	-2.1080	-29.321717	0.000709	7.094681	2.403743	0.000284
1957	1.9462e+02	-2.0775	-29.055266	0.000669	6.689270	2.266386	0.000268
1958	1.9472e+02	-2.0261	-28.716147	0.000851	8.513617	2.884491	0.000341
1959	1.9482e+02	-1.9764	-28.465844	0.000628	6.283860	2.129029	0.000252
1960	1.9492e+02	-1.9507	-28.191319	0.000689	6.891976	2.335065	0.000276
1961	1.9502e+02	-1.9171	-27.904682	0.000720	7.196033	2.438082	0.000288
1962	1.9512e+02	-1.8689	-27.630157	0.000689	6.891976	2.335065	0.000276
1963	1.9522e+02	-1.8352	-27.347557	0.000709	7.094681	2.403743	0.000284
1964	1.9532e+02	-1.7919	-27.085144	0.000659	6.587918	2.232047	0.000264
1965	1.9542e+02	-1.7502	-26.798507	0.000720	7.196033	2.438082	0.000288
1966	1.9552e+02	-1.7037	-26.511870	0.000720	7.196033	2.438082	0.000288
1967	1.9562e+02	-1.6716	-26.237345	0.000689	6.891976	2.335065	0.000276
1968	1.9572e+02	-1.6251	-25.946671	0.000730	7.297386	2.472421	0.000292
1969	1.9582e+02	-1.5978	-25.664072	0.000709	7.094681	2.403743	0.000284
1970	1.9592e+02	-1.5593	-25.401658	0.000659	6.587918	2.232047	0.000264
1971	1.9601e+02	-1.5208	-25.179616	0.000557	5.574392	1.888655	0.000223
1972	1.9611e+02	-1.4647	-24.844533	0.000841	8.412264	2.850152	0.000337
1973	1.9621e+02	-1.4310	-24.610379	0.000588	5.878450	1.991673	0.000235
1974	1.9631e+02	-1.3877	-24.299520	0.000780	7.804149	2.644117	0.000312
1975	1.9641e+02	-1.3476	-24.000772	0.000750	7.500091	2.541100	0.000300
1976	1.9651e+02	-1.3139	-23.742395	0.000649	6.486565	2.197708	0.000260
1977	1.9661e+02	-1.2754	-23.479981	0.000659	6.587918	2.232047	0.000264
1978	1.9671e+02	-1.2272	-23.161048	0.000801	8.006854	2.712796	0.000321
1979	1.9681e+02	-1.2000	-22.882485	0.000699	6.993328	2.369404	0.000280
1980	1.9691e+02	-1.1454	-22.587774	0.000740	7.398739	2.506760	0.000296
1981	1.9701e+02	-1.1165	-22.289026	0.000750	7.500091	2.541100	0.000300
1982	1.9711e+02	-1.0732	-22.058910	0.000578	5.777097	1.957334	0.000231
1983	1.9721e+02	-1.0331	-21.780347	0.000699	6.993328	2.369404	0.000280
1984	1.9731e+02	-0.9978	-21.469488	0.000780	7.804149	2.644117	0.000312
1985	1.9741e+02	-0.9545	-21.186888	0.000709	7.094681	2.403743	0.000284
1986	1.9751e+02	-0.9032	-20.888140	0.000750	7.500091	2.541100	0.000300
1987	1.9761e+02	-0.8695	-20.625726	0.000659	6.587918	2.232047	0.000264
1988	1.9771e+02	-0.8374	-20.335053	0.000730	7.297386	2.472421	0.000292
1989	1.9781e+02	-0.7925	-20.064565	0.000679	6.790623	2.300725	0.000272
1990	1.9791e+02	-0.7556	-19.757742	0.000770	7.702796	2.609778	0.000308
1991	1.9800e+02	-0.7155	-19.483217	0.000689	6.891976	2.335065	0.000276
1992	1.9810e+02	-0.6770	-19.176395	0.000770	7.702796	2.609778	0.000308
1993	1.9820e+02	-0.6305	-18.942241	0.000588	5.878450	1.991673	0.000235
1994	1.9830e+02	-0.5904	-18.655604	0.000720	7.196033	2.438082	0.000288
1995	1.9840e+02	-0.5454	-18.340708	0.000791	7.905501	2.678456	0.000316
1996	1.9850e+02	-0.5182	-18.094442	0.000618	6.182508	2.094690	0.000248
1997	1.9860e+02	-0.4700	-17.787620	0.000770	7.702796	2.609778	0.000308
1998	1.9870e+02	-0.4412	-17.500983	0.000720	7.196033	2.438082	0.000288
1999	1.9880e+02	-0.3946	-17.226458	0.000689	6.891976	2.335065	0.000276
2000	1.9890e+02	-0.3529	-16.947896	0.000699	6.993328	2.369404	0.000280
2001	1.9900e+02	-0.3160	-16.653185	0.000740	7.398739	2.506760	0.000296
2002	1.9910e+02	-0.2727	-16.394808	0.000649	6.486565	2.197708	0.000260
2003	1.9920e+02	-0.2390	-16.083949	0.000780	7.804149	2.644117	0.000312
2004	1.9930e+02	-0.1973	-15.797312	0.000720	7.196033	2.438082	0.000288
2005	1.9940e+02	-0.1508	-15.514713	0.000709	7.094681	2.403743	0.000284
2006	1.9950e+02	-0.1155	-15.252299	0.000659	6.587918	2.232047	0.000264
2007	1.9960e+02	-0.0706	-14.965662	0.000720	7.196033	2.438082	0.000288
2008	1.9970e+02	-0.0337	-14.679026	0.000720	7.196033	2.438082	0.000288
2009	1.9980e+02	0.0000	-14.347980	0.000720	7.196033	2.438082	0.000333

PMax (uC/cm2):	1.39e+02
Pr (uC/cm2):	1.34e+01
-Pr (uC/cm2):	-9.33e-01
PLoss (uC/cm2):	-9.12e-01
-Vc:	-1.85e+00
C (Max-Eff) (nF):	6.95e-01
K (Eff):	2.36e+03
Vert. (+/-Pr) Shift (uC/cm2):	6.25e+00
Offset (uC/cm2):	1.34e+01

A (Loop Area - uC/cm2·Volts):	2.19e-02



Hysteresis Version: 5.48.1 - Radiant Technologies, Inc., 1999 - 9/12/24

