»»»»»»»»»»»»»»»»»»»»»»»»»»»»»»»»»»»» Hysteresis ««««««««««««««««««««««««««««««««««««
»»»  Executed Version:	5.48.1
»»»  Vision Version:	5.48.4 (R)
»»»  Vision Compiled:	9/18/24
»»»  Driver Version:	5.47.0
»»»  Windows Version:	Windows 8 or 8.1
»»»  Processor Information:	x86 (AMD or Intel) - 32 Processors
»»»  Tester Name:	PMF21124-494 (100V)
»»»  Tester S/N:	PMF21124-494
»»»  Internal Amp Type:	100V RevK 270k
»»»  Internal Amp S/N:	iAB2-596/K     
»»»  Execution Count:	1
»»»»»»»»»»»»»»»»»»»»»»»»»»»»»»»»»»»»»»»»»»««««««««««««««««««««««««««««««««««««««««««

Stored:	6/18/2025 - 15:12:51
Configured:	06/18/25 09:47:30 AM
Executed:	06/18/25 03:12:10 PM

»»»»»»»»»»»»»»»»»»»»»»»»»»»»»»»»»»» Sample Info ««««««««««««««««««««««««««««««««««««
Sample Name:	
Lot Name:	
Wafer Name:	
Die Row/Column:	0/0
Capacitor Number:	0
Sample Area (cm2):	1.00e-04
Sample Thickness (microns):	3.00e-01

Amplifier:	Internal

»»»»»»»»»»»»»»»»»»»»»»»»»»»»»»»»»»» Tester Info «««««««««««««««««««««««««««««««««««
Tester Name:	PMF21124-494 (100V)
Tester Serial Number:	PMF21124-494
Return Signal Amp. Level:	0.19 [Index: 3]

»»»»»»»»»»»»»»»»»»»»»»»»»»»»»»»» Hysteresis Info ««««««««««««««««««««««««««««««««««
Task Name:	Hyst-554
Volts:	20.00
Field:	666.67 (kV/cm)
DCBias:	0.00
DCField:	0.00 (kV/cm)
Hysteresis Period (ms):	1.00e+00
Preset:	Enabled
Preset Delay (ms):	1.00e+03
Profile:	Standard Bipolar

»»»»»»»»»»»»»»»»»»»»»»»»»»»»»»»»»»»»»» Data «««««««««««««««««««««««««««««««««««««««
Points:	2001

Valid Data

Point	Time (ms)	Drive Voltage	Measured Polarization (uC/cm2)	Capacitance (uF)	Normalized Capacitance (uF/cm2)	Dielectric Constant	Instantaneous Current (mA)
   1	0.0000e+00	0.0128	-10.619149	0.001162	11.617540	3.936129	0.092761
   2	5.0000e-04	0.0273	-10.155342	0.001162	11.617540	3.936129	0.092761
   3	1.0000e-03	0.0674	-10.211806	-0.000141	-1.414309	-0.479181	-0.011293
   4	1.5000e-03	0.0979	-10.102912	0.000273	2.727596	0.924135	0.021779
   5	2.0000e-03	0.1235	-9.897224	0.000515	5.152127	1.745588	0.041138
   6	2.5000e-03	0.1765	-9.421318	0.001192	11.920607	4.038811	0.095181
   7	3.0000e-03	0.2182	-9.276127	0.000364	3.636795	1.232180	0.029038
   8	3.5000e-03	0.2503	-8.973644	0.000758	7.576657	2.567041	0.060496
   9	4.0000e-03	0.2984	-8.828453	0.000364	3.636795	1.232180	0.029038
  10	4.5000e-03	0.3369	-8.469507	0.000899	8.990966	3.046222	0.071789
  11	5.0000e-03	0.3770	-8.255753	0.000535	5.354171	1.814042	0.042751
  12	5.5000e-03	0.4107	-7.989568	0.000667	6.667458	2.258996	0.053237
  13	6.0000e-03	0.4476	-7.662887	0.000818	8.182789	2.772404	0.065336
  14	6.5000e-03	0.4925	-7.364438	0.000748	7.475635	2.532814	0.059690
  15	7.0000e-03	0.5246	-7.203114	0.000404	4.040884	1.369088	0.032265
  16	7.5000e-03	0.5711	-6.940963	0.000657	6.566436	2.224769	0.052430
  17	8.0000e-03	0.6112	-6.650580	0.000727	7.273591	2.464359	0.058077
  18	8.5000e-03	0.6529	-6.311799	0.000849	8.485856	2.875086	0.067756
  19	9.0000e-03	0.6850	-6.223071	0.000222	2.222486	0.752999	0.017746
  20	9.5000e-03	0.7396	-5.977052	0.000616	6.162348	2.087860	0.049204
  21	1.0000e-02	0.7781	-5.795563	0.000455	4.545994	1.540224	0.036298
  22	1.0500e-02	0.8166	-5.464849	0.000828	8.283811	2.806631	0.066143
  23	1.1000e-02	0.8502	-5.109936	0.000889	8.889944	3.011995	0.070983
  24	1.1500e-02	0.8936	-4.835685	0.000687	6.869502	2.327450	0.054850
  25	1.2000e-02	0.9353	-4.521104	0.000788	7.879723	2.669722	0.062916
  26	1.2500e-02	0.9754	-4.230720	0.000727	7.273591	2.464359	0.058077
  27	1.3000e-02	1.0091	-4.049231	0.000455	4.545994	1.540224	0.036298
  28	1.3500e-02	1.0588	-3.706418	0.000859	8.586878	2.909313	0.068563
  29	1.4000e-02	1.0845	-3.730616	-0.000061	-0.606133	-0.205363	-0.004840
  30	1.4500e-02	1.1438	-3.472498	0.000647	6.465414	2.190542	0.051624
  31	1.5000e-02	1.1615	-2.972394	0.001253	12.526739	4.244174	0.100021
  32	1.5500e-02	1.2192	-2.641680	0.000828	8.283811	2.806631	0.066143
  33	1.6000e-02	1.2465	-2.528753	0.000283	2.828619	0.958362	0.022585
  34	1.6500e-02	1.2930	-2.222237	0.000768	7.677679	2.601268	0.061303
  35	1.7000e-02	1.3395	-2.048814	0.000434	4.343950	1.471770	0.034685
  36	1.7500e-02	1.3764	-1.851192	0.000495	4.950082	1.677133	0.039524
  37	1.8000e-02	1.4117	-1.548710	0.000758	7.576657	2.567041	0.060496
  38	1.8500e-02	1.4502	-1.322856	0.000566	5.657237	1.916724	0.045171
  39	1.9000e-02	1.4807	-0.980043	0.000859	8.586878	2.909313	0.068563
  40	1.9500e-02	1.5336	-0.701759	0.000697	6.970524	2.361678	0.055657
  41	2.0000e-02	1.5705	-0.274251	0.001071	10.708342	3.628084	0.085502
  42	2.0500e-02	1.6139	0.000000	0.000687	6.869502	2.327450	0.054850
  43	2.1000e-02	1.6492	0.153258	0.000384	3.838839	1.300634	0.030652
  44	2.1500e-02	1.6860	0.290383	0.000343	3.434751	1.163725	0.027425
  45	2.2000e-02	1.7278	0.657395	0.000919	9.193010	3.114676	0.073402
  46	2.2500e-02	1.7759	0.980043	0.000808	8.081767	2.738177	0.064530
  47	2.3000e-02	1.8064	1.250261	0.000677	6.768480	2.293223	0.054044
  48	2.3500e-02	1.8593	1.209930	-0.000101	-1.010221	-0.342272	-0.008066
  49	2.4000e-02	1.8930	1.750365	0.001354	13.536960	4.586446	0.108087
  50	2.4500e-02	1.9299	1.822961	0.000182	1.818398	0.616090	0.014519
  51	2.5000e-02	1.9684	2.101244	0.000697	6.970524	2.361678	0.055657
  52	2.5500e-02	2.0069	2.581183	0.001202	12.021629	4.073038	0.095988
  53	2.6000e-02	2.0454	2.940129	0.000899	8.990966	3.046222	0.071789
  54	2.6500e-02	2.0887	3.178082	0.000596	5.960303	2.019405	0.047591
  55	2.7000e-02	2.1336	3.315207	0.000343	3.434751	1.163725	0.027425
  56	2.7500e-02	2.1705	3.698351	0.000960	9.597099	3.251585	0.076629
  57	2.8000e-02	2.2138	3.871775	0.000434	4.343950	1.471770	0.034685
  58	2.8500e-02	2.2507	4.404144	0.001333	13.334916	4.517992	0.106474
  59	2.9000e-02	2.2860	4.569501	0.000414	4.141906	1.403316	0.033071
  60	2.9500e-02	2.3213	4.759056	0.000475	4.748038	1.608679	0.037911
  61	3.0000e-02	2.3695	5.005075	0.000616	6.162348	2.087860	0.049204
  62	3.0500e-02	2.4031	5.432584	0.001071	10.708342	3.628084	0.085502
  63	3.1000e-02	2.4513	5.759265	0.000818	8.182789	2.772404	0.065336
  64	3.1500e-02	2.4850	6.053681	0.000737	7.374613	2.498586	0.058883
  65	3.2000e-02	2.5363	6.178707	0.000313	3.131685	1.061044	0.025005
  66	3.2500e-02	2.5764	6.384395	0.000515	5.152127	1.745588	0.041138
  67	3.3000e-02	2.6197	6.646546	0.000657	6.566436	2.224769	0.052430
  68	3.3500e-02	2.6502	6.811904	0.000414	4.141906	1.403316	0.033071
  69	3.4000e-02	2.6903	7.102287	0.000727	7.273591	2.464359	0.058077
  70	3.4500e-02	2.7240	7.574159	0.001182	11.819585	4.004584	0.094375
  71	3.5000e-02	2.7817	7.848410	0.000687	6.869502	2.327450	0.054850
  72	3.5500e-02	2.8122	8.037966	0.000475	4.748038	1.608679	0.037911
  73	3.6000e-02	2.8443	8.421110	0.000960	9.597099	3.251585	0.076629
  74	3.6500e-02	2.9037	8.417077	-0.000010	-0.101022	-0.034227	-0.000807
  75	3.7000e-02	2.9357	8.840552	0.001061	10.607320	3.593857	0.084695
  76	3.7500e-02	2.9759	9.074472	0.000586	5.859281	1.985178	0.046784
  77	3.8000e-02	3.0031	9.417285	0.000859	8.586878	2.909313	0.068563
  78	3.8500e-02	3.0545	9.804463	0.000970	9.698121	3.285812	0.077435
  79	3.9000e-02	3.0930	9.917389	0.000283	2.828619	0.958362	0.022585
  80	3.9500e-02	3.1283	10.066614	0.000374	3.737817	1.266407	0.029845
  81	4.0000e-02	3.1828	10.417494	0.000879	8.788922	2.977767	0.070176
  82	4.0500e-02	3.2181	10.695777	0.000697	6.970524	2.361678	0.055657
  83	4.1000e-02	3.2470	11.002293	0.000768	7.677679	2.601268	0.061303
  84	4.1500e-02	3.2919	11.199915	0.000495	4.950082	1.677133	0.039524
  85	4.2000e-02	3.3288	11.526596	0.000818	8.182789	2.772404	0.065336
  86	4.2500e-02	3.3689	11.942005	0.001041	10.405275	3.525403	0.083082
  87	4.3000e-02	3.4074	12.284818	0.000859	8.586878	2.909313	0.068563
  88	4.3500e-02	3.4571	12.361447	0.000192	1.919420	0.650317	0.015326
  89	4.4000e-02	3.4940	12.595367	0.000586	5.859281	1.985178	0.046784
  90	4.4500e-02	3.5421	12.865585	0.000677	6.768480	2.293223	0.054044
  91	4.5000e-02	3.5742	13.099504	0.000586	5.859281	1.985178	0.046784
  92	4.5500e-02	3.6095	13.289060	0.000475	4.748038	1.608679	0.037911
  93	4.6000e-02	3.6577	13.547178	0.000647	6.465414	2.190542	0.051624
  94	4.6500e-02	3.6881	14.059382	0.001283	12.829806	4.346856	0.102441
  95	4.7000e-02	3.7411	14.365897	0.000768	7.677679	2.601268	0.061303
  96	4.7500e-02	3.7764	14.515122	0.000374	3.737817	1.266407	0.029845
  97	4.8000e-02	3.8165	14.853902	0.000849	8.485856	2.875086	0.067756
  98	4.8500e-02	3.8534	15.228980	0.000940	9.395054	3.183131	0.075016
  99	4.9000e-02	3.8855	15.507264	0.000697	6.970524	2.361678	0.055657
 100	4.9500e-02	3.9288	15.765382	0.000647	6.465414	2.190542	0.051624
 101	5.0000e-02	3.9769	15.745217	-0.000051	-0.505110	-0.171136	-0.004033
 102	5.0500e-02	4.0106	16.241288	0.001243	12.425717	4.209947	0.099214
 103	5.1000e-02	4.0491	16.418744	0.000444	4.444972	1.505997	0.035491
 104	5.1500e-02	4.0924	16.559903	0.000354	3.535773	1.197952	0.028232
 105	5.2000e-02	4.1293	16.934981	0.000940	9.395054	3.183131	0.075016
 106	5.2500e-02	4.1758	17.548012	0.001536	15.355358	5.202536	0.122606
 107	5.3000e-02	4.2143	17.656906	0.000273	2.727596	0.924135	0.021779
 108	5.3500e-02	4.2624	17.975520	0.000798	7.980745	2.703950	0.063723
 109	5.4000e-02	4.2849	18.132811	0.000394	3.939862	1.334861	0.031458
 110	5.4500e-02	4.3282	18.669213	0.001344	13.435938	4.552219	0.107280
 111	5.5000e-02	4.3651	18.939431	0.000677	6.768480	2.293223	0.054044
 112	5.5500e-02	4.4148	19.020093	0.000202	2.020442	0.684544	0.016132
 113	5.6000e-02	4.4550	19.379039	0.000899	8.990966	3.046222	0.071789
 114	5.6500e-02	4.4967	19.407270	0.000071	0.707155	0.239590	0.005646
 115	5.7000e-02	4.5352	19.834779	0.001071	10.708342	3.628084	0.085502
 116	5.7500e-02	4.5737	20.145328	0.000778	7.778701	2.635495	0.062110
 117	5.8000e-02	4.6186	20.359082	0.000535	5.354171	1.814042	0.042751
 118	5.8500e-02	4.6491	20.641399	0.000707	7.071546	2.395905	0.056463
 119	5.9000e-02	4.6908	20.867252	0.000566	5.657237	1.916724	0.045171
 120	5.9500e-02	4.7277	21.322992	0.001142	11.415496	3.867675	0.091148
 121	6.0000e-02	4.7694	21.625475	0.000758	7.576657	2.567041	0.060496
 122	6.0500e-02	4.8159	22.093314	0.001172	11.718563	3.970356	0.093568
 123	6.1000e-02	4.8560	22.073149	-0.000051	-0.505110	-0.171136	-0.004033
 124	6.1500e-02	4.9009	22.335300	0.000657	6.566436	2.224769	0.052430
 125	6.2000e-02	4.9282	22.561154	0.000566	5.657237	1.916724	0.045171
 126	6.2500e-02	4.9827	22.903967	0.000859	8.586878	2.909313	0.068563
 127	6.3000e-02	5.0068	23.178218	0.000687	6.869502	2.327450	0.054850
 128	6.3500e-02	5.0549	23.319376	0.000354	3.535773	1.197952	0.028232
 129	6.4000e-02	5.0870	23.730752	0.001030	10.304253	3.491176	0.082275
 130	6.4500e-02	5.1335	24.105830	0.000940	9.395054	3.183131	0.075016
 131	6.5000e-02	5.1704	24.436544	0.000828	8.283811	2.806631	0.066143
 132	6.5500e-02	5.2105	24.714828	0.000697	6.970524	2.361678	0.055657
 133	6.6000e-02	5.2651	24.972947	0.000647	6.465414	2.190542	0.051624
 134	6.6500e-02	5.2876	25.287528	0.000788	7.879723	2.669722	0.062916
 135	6.7000e-02	5.3357	25.331892	0.000111	1.111243	0.376499	0.008873
 136	6.7500e-02	5.3726	25.634375	0.000758	7.576657	2.567041	0.060496
 137	6.8000e-02	5.4111	25.985254	0.000879	8.788922	2.977767	0.070176
 138	6.8500e-02	5.4624	26.041718	0.000141	1.414309	0.479181	0.011293
 139	6.9000e-02	5.4881	26.747510	0.001768	17.678866	5.989762	0.141158
 140	6.9500e-02	5.5394	26.884635	0.000343	3.434751	1.163725	0.027425
 141	7.0000e-02	5.5811	27.312144	0.001071	10.708342	3.628084	0.085502
 142	7.0500e-02	5.6116	27.558163	0.000616	6.162348	2.087860	0.049204
 143	7.1000e-02	5.6501	27.775950	0.000546	5.455193	1.848269	0.043557
 144	7.1500e-02	5.6966	28.126830	0.000879	8.788922	2.977767	0.070176
 145	7.2000e-02	5.7271	28.344617	0.000546	5.455193	1.848269	0.043557
 146	7.2500e-02	5.7704	28.566437	0.000556	5.556215	1.882497	0.044364
 147	7.3000e-02	5.8121	28.768092	0.000505	5.051105	1.711361	0.040331
 148	7.3500e-02	5.8506	29.147204	0.000950	9.496077	3.217358	0.075822
 149	7.4000e-02	5.8907	29.562613	0.001041	10.405275	3.525403	0.083082
 150	7.4500e-02	5.9308	29.635209	0.000182	1.818398	0.616090	0.014519
 151	7.5000e-02	5.9726	29.760235	0.000313	3.131685	1.061044	0.025005
 152	7.5500e-02	6.0143	30.244206	0.001212	12.122651	4.107265	0.096794
 153	7.6000e-02	6.0528	30.353100	0.000273	2.727596	0.924135	0.021779
 154	7.6500e-02	6.0961	30.671715	0.000798	7.980745	2.703950	0.063723
 155	7.7000e-02	6.1394	31.095190	0.001061	10.607320	3.593857	0.084695
 156	7.7500e-02	6.1795	31.409772	0.000788	7.879723	2.669722	0.062916
 157	7.8000e-02	6.2116	31.591261	0.000455	4.545994	1.540224	0.036298
 158	7.8500e-02	6.2533	32.006671	0.001041	10.405275	3.525403	0.083082
 159	7.9000e-02	6.2950	32.252690	0.000616	6.162348	2.087860	0.049204
 160	7.9500e-02	6.3255	32.575337	0.000808	8.081767	2.738177	0.064530
 161	8.0000e-02	6.3704	32.724562	0.000374	3.737817	1.266407	0.029845
 162	8.0500e-02	6.4137	33.164170	0.001101	11.011408	3.730766	0.087922
 163	8.1000e-02	6.4602	33.753002	0.001475	14.749225	4.997173	0.117766
 164	8.1500e-02	6.4939	33.833664	0.000202	2.020442	0.684544	0.016132
 165	8.2000e-02	6.5324	33.805432	-0.000071	-0.707155	-0.239590	-0.005646
 166	8.2500e-02	6.5741	34.220842	0.001041	10.405275	3.525403	0.083082
 167	8.3000e-02	6.6062	34.539456	0.000798	7.980745	2.703950	0.063723
 168	8.3500e-02	6.6528	34.793542	0.000636	6.364392	2.156314	0.050817
 169	8.4000e-02	6.6929	34.926634	0.000333	3.333729	1.129498	0.026618
 170	8.4500e-02	6.7282	35.350109	0.001061	10.607320	3.593857	0.084695
 171	8.5000e-02	6.7683	35.628393	0.000697	6.970524	2.361678	0.055657
 172	8.5500e-02	6.8116	35.882478	0.000636	6.364392	2.156314	0.050817
 173	8.6000e-02	6.8581	35.983306	0.000253	2.525552	0.855680	0.020165
 174	8.6500e-02	6.8886	36.430980	0.001121	11.213452	3.799220	0.089535
 175	8.7000e-02	6.9335	36.648767	0.000546	5.455193	1.848269	0.043557
 176	8.7500e-02	6.9656	36.898819	0.000626	6.263370	2.122087	0.050010
 177	8.8000e-02	7.0137	37.136772	0.000596	5.960303	2.019405	0.047591
 178	8.8500e-02	7.0506	37.661075	0.001313	13.132872	4.449537	0.104861
 179	8.9000e-02	7.0843	38.112782	0.001131	11.314474	3.833448	0.090341
 180	8.9500e-02	7.1260	38.245874	0.000333	3.333729	1.129498	0.026618
 181	9.0000e-02	7.1709	38.451562	0.000515	5.152127	1.745588	0.041138
 182	9.0500e-02	7.2110	38.584654	0.000333	3.333729	1.129498	0.026618
 183	9.1000e-02	7.2431	39.036361	0.001131	11.314474	3.833448	0.090341
 184	9.1500e-02	7.2928	39.229950	0.000485	4.849060	1.642906	0.038718
 185	9.2000e-02	7.3394	39.484035	0.000636	6.364392	2.156314	0.050817
 186	9.2500e-02	7.3827	40.012371	0.001323	13.233894	4.483765	0.105667
 187	9.3000e-02	7.4051	40.040603	0.000071	0.707155	0.239590	0.005646
 188	9.3500e-02	7.4517	40.266456	0.000566	5.657237	1.916724	0.045171
 189	9.4000e-02	7.4886	40.673799	0.001020	10.203231	3.456948	0.081469
 190	9.4500e-02	7.5271	40.758494	0.000212	2.121464	0.718771	0.016939
 191	9.5000e-02	7.5640	41.028712	0.000677	6.768480	2.293223	0.054044
 192	9.5500e-02	7.6057	41.573180	0.001364	13.637982	4.620673	0.108894
 193	9.6000e-02	7.6570	41.807100	0.000586	5.859281	1.985178	0.046784
 194	9.6500e-02	7.6955	42.210410	0.001010	10.102209	3.422721	0.080662
 195	9.7000e-02	7.7388	42.331403	0.000303	3.030663	1.026816	0.024199
 196	9.7500e-02	7.7757	42.670183	0.000849	8.485856	2.875086	0.067756
 197	9.8000e-02	7.8062	43.049294	0.000950	9.496077	3.217358	0.075822
 198	9.8500e-02	7.8447	43.428406	0.000950	9.496077	3.217358	0.075822
 199	9.9000e-02	7.8992	43.634094	0.000515	5.152127	1.745588	0.041138
 200	9.9500e-02	7.9217	43.714756	0.000202	2.020442	0.684544	0.016132
 201	1.0000e-01	7.9586	44.097900	0.000960	9.597099	3.251585	0.076629
 202	1.0050e-01	8.0164	44.412482	0.000788	7.879723	2.669722	0.062916
 203	1.0100e-01	8.0581	44.561706	0.000374	3.737817	1.266407	0.029845
 204	1.0150e-01	8.0901	44.819825	0.000647	6.465414	2.190542	0.051624
 205	1.0200e-01	8.1238	45.223135	0.001010	10.102209	3.422721	0.080662
 206	1.0250e-01	8.1688	45.493352	0.000677	6.768480	2.293223	0.054044
 207	1.0300e-01	8.2105	45.590147	0.000242	2.424530	0.821453	0.019359
 208	1.0350e-01	8.2602	45.965225	0.000940	9.395054	3.183131	0.075016
 209	1.0400e-01	8.3003	46.138648	0.000434	4.343950	1.471770	0.034685
 210	1.0450e-01	8.3276	46.505660	0.000919	9.193010	3.114676	0.073402
 211	1.0500e-01	8.3741	46.731514	0.000566	5.657237	1.916724	0.045171
 212	1.0550e-01	8.4142	47.134823	0.001010	10.102209	3.422721	0.080662
 213	1.0600e-01	8.4495	47.267916	0.000333	3.333729	1.129498	0.026618
 214	1.0650e-01	8.4928	47.723656	0.001142	11.415496	3.867675	0.091148
 215	1.0700e-01	8.5297	48.098734	0.000940	9.395054	3.183131	0.075016
 216	1.0750e-01	8.5762	48.139065	0.000101	1.010221	0.342272	0.008066
 217	1.0800e-01	8.6099	48.614971	0.001192	11.920607	4.038811	0.095181
 218	1.0850e-01	8.6580	48.986016	0.000929	9.294032	3.148903	0.074209
 219	1.0900e-01	8.6885	49.111042	0.000313	3.131685	1.061044	0.025005
 220	1.0950e-01	8.7302	49.453855	0.000859	8.586878	2.909313	0.068563
 221	1.1000e-01	8.7671	49.776503	0.000808	8.081767	2.738177	0.064530
 222	1.1050e-01	8.8233	50.006390	0.000576	5.758259	1.950951	0.045977
 223	1.1100e-01	8.8554	50.228210	0.000556	5.556215	1.882497	0.044364
 224	1.1150e-01	8.8955	50.437931	0.000525	5.253149	1.779815	0.041944
 225	1.1200e-01	8.9356	50.788811	0.000879	8.788922	2.977767	0.070176
 226	1.1250e-01	8.9677	50.913837	0.000313	3.131685	1.061044	0.025005
 227	1.1300e-01	9.0142	51.337312	0.001061	10.607320	3.593857	0.084695
 228	1.1350e-01	9.0479	51.736589	0.001000	10.001187	3.388494	0.079855
 229	1.1400e-01	9.0912	52.031005	0.000737	7.374613	2.498586	0.058883
 230	1.1450e-01	9.1425	52.184263	0.000384	3.838839	1.300634	0.030652
 231	1.1500e-01	9.1778	52.196362	0.000030	0.303066	0.102682	0.002420
 232	1.1550e-01	9.2163	52.635970	0.001101	11.011408	3.730766	0.087922
 233	1.1600e-01	9.2612	52.918287	0.000707	7.071546	2.395905	0.056463
 234	1.1650e-01	9.2885	53.184471	0.000667	6.667458	2.258996	0.053237
 235	1.1700e-01	9.3350	53.547450	0.000909	9.091988	3.080449	0.072596
 236	1.1750e-01	9.3735	53.765237	0.000546	5.455193	1.848269	0.043557
 237	1.1800e-01	9.4152	54.075786	0.000778	7.778701	2.635495	0.062110
 238	1.1850e-01	9.4521	54.350037	0.000687	6.869502	2.327450	0.054850
 239	1.1900e-01	9.4762	54.527493	0.000444	4.444972	1.505997	0.035491
 240	1.1950e-01	9.5243	54.858207	0.000828	8.283811	2.806631	0.066143
 241	1.2000e-01	9.5644	55.108259	0.000626	6.263370	2.122087	0.050010
 242	1.2050e-01	9.6110	55.640628	0.001333	13.334916	4.517992	0.106474
 243	1.2100e-01	9.6527	55.870515	0.000576	5.758259	1.950951	0.045977
 244	1.2150e-01	9.7024	56.056037	0.000465	4.647016	1.574452	0.037105
 245	1.2200e-01	9.7329	56.221395	0.000414	4.141906	1.403316	0.033071
 246	1.2250e-01	9.7746	56.616638	0.000990	9.900165	3.354267	0.079049
 247	1.2300e-01	9.8115	56.886856	0.000677	6.768480	2.293223	0.054044
 248	1.2350e-01	9.8468	57.128842	0.000606	6.061325	2.053633	0.048397
 249	1.2400e-01	9.8869	57.524085	0.000990	9.900165	3.354267	0.079049
 250	1.2450e-01	9.9334	57.616847	0.000232	2.323508	0.787226	0.018552
 251	1.2500e-01	9.9719	57.854799	0.000596	5.960303	2.019405	0.047591
 252	1.2550e-01	10.0104	58.040322	0.000465	4.647016	1.574452	0.037105
 253	1.2600e-01	10.0425	58.375069	0.000838	8.384834	2.840859	0.066949
 254	1.2650e-01	10.0954	58.588823	0.000535	5.354171	1.814042	0.042751
 255	1.2700e-01	10.1323	58.814677	0.000566	5.657237	1.916724	0.045171
 256	1.2750e-01	10.1724	59.201854	0.000970	9.698121	3.285812	0.077435
 257	1.2800e-01	10.2174	59.387377	0.000465	4.647016	1.574452	0.037105
 258	1.2850e-01	10.2462	59.798753	0.001030	10.304253	3.491176	0.082275
 259	1.2900e-01	10.2928	60.060904	0.000657	6.566436	2.224769	0.052430
 260	1.2950e-01	10.3297	60.314990	0.000636	6.364392	2.156314	0.050817
 261	1.3000e-01	10.3746	60.601340	0.000717	7.172568	2.430132	0.057270
 262	1.3050e-01	10.4083	60.915921	0.000788	7.879723	2.669722	0.062916
 263	1.3100e-01	10.4420	61.238569	0.000808	8.081767	2.738177	0.064530
 264	1.3150e-01	10.4965	61.286966	0.000121	1.212265	0.410727	0.009679
 265	1.3200e-01	10.5238	61.553151	0.000667	6.667458	2.258996	0.053237
 266	1.3250e-01	10.5735	62.016957	0.001162	11.617540	3.936129	0.092761
 267	1.3300e-01	10.6184	62.396068	0.000950	9.496077	3.217358	0.075822
 268	1.3350e-01	10.6649	62.500929	0.000263	2.626574	0.889907	0.020972
 269	1.3400e-01	10.6922	62.831643	0.000828	8.283811	2.806631	0.066143
 270	1.3450e-01	10.7323	63.259152	0.001071	10.708342	3.628084	0.085502
 271	1.3500e-01	10.7644	63.597932	0.000849	8.485856	2.875086	0.067756
 272	1.3550e-01	10.8141	63.678594	0.000202	2.020442	0.684544	0.016132
 273	1.3600e-01	10.8558	63.900414	0.000556	5.556215	1.882497	0.044364
 274	1.3650e-01	10.8959	64.307757	0.001020	10.203231	3.456948	0.081469
 275	1.3700e-01	10.9328	64.428750	0.000303	3.030663	1.026816	0.024199
 276	1.3750e-01	10.9633	64.832060	0.001010	10.102209	3.422721	0.080662
 277	1.3800e-01	11.0050	65.049847	0.000546	5.455193	1.848269	0.043557
 278	1.3850e-01	11.0532	65.271668	0.000556	5.556215	1.882497	0.044364
 279	1.3900e-01	11.0997	65.574150	0.000758	7.576657	2.567041	0.060496
 280	1.3950e-01	11.1318	65.816136	0.000606	6.061325	2.053633	0.048397
 281	1.4000e-01	11.1735	66.090387	0.000687	6.869502	2.327450	0.054850
 282	1.4050e-01	11.2088	66.449333	0.000899	8.990966	3.046222	0.071789
 283	1.4100e-01	11.2601	66.578392	0.000323	3.232707	1.095271	0.025812
 284	1.4150e-01	11.2954	66.953470	0.000940	9.395054	3.183131	0.075016
 285	1.4200e-01	11.3291	67.118827	0.000414	4.141906	1.403316	0.033071
 286	1.4250e-01	11.3756	67.550368	0.001081	10.809364	3.662312	0.086308
 287	1.4300e-01	11.4141	68.042407	0.001232	12.324695	4.175720	0.098408
 288	1.4350e-01	11.4414	67.994009	-0.000121	-1.212265	-0.410727	-0.009679
 289	1.4400e-01	11.4863	68.227929	0.000586	5.859281	1.985178	0.046784
 290	1.4450e-01	11.5296	68.582842	0.000889	8.889944	3.011995	0.070983
 291	1.4500e-01	11.5777	68.655438	0.000182	1.818398	0.616090	0.014519
 292	1.4550e-01	11.6114	69.191840	0.001344	13.435938	4.552219	0.107280
 293	1.4600e-01	11.6564	69.320899	0.000323	3.232707	1.095271	0.025812
 294	1.4650e-01	11.7013	69.796804	0.001192	11.920607	4.038811	0.095181
 295	1.4700e-01	11.7253	69.998459	0.000505	5.051105	1.711361	0.040331
 296	1.4750e-01	11.7670	70.111386	0.000283	2.828619	0.958362	0.022585
 297	1.4800e-01	11.8200	70.321107	0.000525	5.253149	1.779815	0.041944
 298	1.4850e-01	11.8521	70.542928	0.000556	5.556215	1.882497	0.044364
 299	1.4900e-01	11.8906	70.817178	0.000687	6.869502	2.327450	0.054850
 300	1.4950e-01	11.9323	71.168058	0.000879	8.788922	2.977767	0.070176
 301	1.5000e-01	11.9676	71.575401	0.001020	10.203231	3.456948	0.081469
 302	1.5050e-01	12.0141	71.974678	0.001000	10.001187	3.388494	0.079855
 303	1.5100e-01	12.0430	72.293292	0.000798	7.980745	2.703950	0.063723
 304	1.5150e-01	12.0975	72.285226	-0.000020	-0.202044	-0.068454	-0.001613
 305	1.5200e-01	12.1312	72.535278	0.000626	6.263370	2.122087	0.050010
 306	1.5250e-01	12.1729	72.809529	0.000687	6.869502	2.327450	0.054850
 307	1.5300e-01	12.2066	73.031349	0.000556	5.556215	1.882497	0.044364
 308	1.5350e-01	12.2547	73.511288	0.001202	12.021629	4.073038	0.095988
 309	1.5400e-01	12.2868	73.785539	0.000687	6.869502	2.327450	0.054850
 310	1.5450e-01	12.3205	73.987194	0.000505	5.051105	1.711361	0.040331
 311	1.5500e-01	12.3783	74.160617	0.000434	4.343950	1.471770	0.034685
 312	1.5550e-01	12.4152	74.249345	0.000222	2.222486	0.752999	0.017746
 313	1.5600e-01	12.4472	74.616357	0.000919	9.193010	3.114676	0.073402
 314	1.5650e-01	12.5002	75.047899	0.001081	10.809364	3.662312	0.086308
 315	1.5700e-01	12.5339	75.265686	0.000546	5.455193	1.848269	0.043557
 316	1.5750e-01	12.5756	75.527838	0.000657	6.566436	2.224769	0.052430
 317	1.5800e-01	12.6141	75.898883	0.000929	9.294032	3.148903	0.074209
 318	1.5850e-01	12.6542	76.052140	0.000384	3.838839	1.300634	0.030652
 319	1.5900e-01	12.6895	76.455450	0.001010	10.102209	3.422721	0.080662
 320	1.5950e-01	12.7440	76.689370	0.000586	5.859281	1.985178	0.046784
 321	1.6000e-01	12.7697	76.798264	0.000273	2.727596	0.924135	0.021779
 322	1.6050e-01	12.8050	77.084614	0.000717	7.172568	2.430132	0.057270
 323	1.6100e-01	12.8531	77.616983	0.001333	13.334916	4.517992	0.106474
 324	1.6150e-01	12.8916	77.943664	0.000818	8.182789	2.772404	0.065336
 325	1.6200e-01	12.9381	78.109021	0.000414	4.141906	1.403316	0.033071
 326	1.6250e-01	12.9718	78.290510	0.000455	4.545994	1.540224	0.036298
 327	1.6300e-01	13.0103	78.379238	0.000222	2.222486	0.752999	0.017746
 328	1.6350e-01	13.0488	78.794647	0.001041	10.405275	3.525403	0.083082
 329	1.6400e-01	13.0905	79.093097	0.000748	7.475635	2.532814	0.059690
 330	1.6450e-01	13.1194	78.992269	-0.000253	-2.525552	-0.855680	-0.020165
 331	1.6500e-01	13.1659	79.403645	0.001030	10.304253	3.491176	0.082275
 332	1.6550e-01	13.2141	79.782757	0.000950	9.496077	3.217358	0.075822
 333	1.6600e-01	13.2478	79.964246	0.000455	4.545994	1.540224	0.036298
 334	1.6650e-01	13.2927	80.545012	0.001455	14.547181	4.928718	0.116153
 335	1.6700e-01	13.3280	80.863627	0.000798	7.980745	2.703950	0.063723
 336	1.6750e-01	13.3729	80.859594	-0.000010	-0.101022	-0.034227	-0.000807
 337	1.6800e-01	13.3969	80.984620	0.000313	3.131685	1.061044	0.025005
 338	1.6850e-01	13.4403	81.359698	0.000940	9.395054	3.183131	0.075016
 339	1.6900e-01	13.4916	81.577485	0.000546	5.455193	1.848269	0.043557
 340	1.6950e-01	13.5333	81.779140	0.000505	5.051105	1.711361	0.040331
 341	1.7000e-01	13.5718	81.996928	0.000546	5.455193	1.848269	0.043557
 342	1.7050e-01	13.6023	82.452668	0.001142	11.415496	3.867675	0.091148
 343	1.7100e-01	13.6488	82.718852	0.000667	6.667458	2.258996	0.053237
 344	1.7150e-01	13.6937	82.960838	0.000606	6.061325	2.053633	0.048397
 345	1.7200e-01	13.7242	83.154427	0.000485	4.849060	1.642906	0.038718
 346	1.7250e-01	13.7707	83.339950	0.000465	4.647016	1.574452	0.037105
 347	1.7300e-01	13.8060	83.831988	0.001232	12.324695	4.175720	0.098408
 348	1.7350e-01	13.8542	84.029609	0.000495	4.950082	1.677133	0.039524
 349	1.7400e-01	13.8862	84.348224	0.000798	7.980745	2.703950	0.063723
 350	1.7450e-01	13.9263	84.578111	0.000576	5.758259	1.950951	0.045977
 351	1.7500e-01	13.9713	84.961255	0.000960	9.597099	3.251585	0.076629
 352	1.7550e-01	14.0130	85.154844	0.000485	4.849060	1.642906	0.038718
 353	1.7600e-01	14.0483	85.404896	0.000626	6.263370	2.122087	0.050010
 354	1.7650e-01	14.0852	85.711411	0.000768	7.677679	2.601268	0.061303
 355	1.7700e-01	14.1285	85.852570	0.000354	3.535773	1.197952	0.028232
 356	1.7750e-01	14.1782	85.840471	-0.000030	-0.303066	-0.102682	-0.002420
 357	1.7800e-01	14.2151	86.215549	0.000940	9.395054	3.183131	0.075016
 358	1.7850e-01	14.2424	86.489800	0.000687	6.869502	2.327450	0.054850
 359	1.7900e-01	14.2921	86.840679	0.000879	8.788922	2.977767	0.070176
 360	1.7950e-01	14.3322	87.098797	0.000647	6.465414	2.190542	0.051624
 361	1.8000e-01	14.3739	87.300452	0.000505	5.051105	1.711361	0.040331
 362	1.8050e-01	14.4092	87.477909	0.000444	4.444972	1.505997	0.035491
 363	1.8100e-01	14.4590	87.820722	0.000859	8.586878	2.909313	0.068563
 364	1.8150e-01	14.4910	88.228065	0.001020	10.203231	3.456948	0.081469
 365	1.8200e-01	14.5327	88.457952	0.000576	5.758259	1.950951	0.045977
 366	1.8250e-01	14.5793	88.643474	0.000465	4.647016	1.574452	0.037105
 367	1.8300e-01	14.6194	88.675739	0.000081	0.808177	0.273818	0.006453
 368	1.8350e-01	14.6547	88.929824	0.000636	6.364392	2.156314	0.050817
 369	1.8400e-01	14.6916	89.329101	0.001000	10.001187	3.388494	0.079855
 370	1.8450e-01	14.7301	89.817106	0.001222	12.223673	4.141493	0.097601
 371	1.8500e-01	14.7718	89.869536	0.000131	1.313287	0.444954	0.010486
 372	1.8550e-01	14.8103	90.151853	0.000707	7.071546	2.395905	0.056463
 373	1.8600e-01	14.8424	90.498700	0.000869	8.687900	2.943540	0.069369
 374	1.8650e-01	14.8889	90.857645	0.000899	8.990966	3.046222	0.071789
 375	1.8700e-01	14.9226	91.091565	0.000586	5.859281	1.985178	0.046784
 376	1.8750e-01	14.9611	91.228690	0.000343	3.434751	1.163725	0.027425
 377	1.8800e-01	15.0172	91.478742	0.000626	6.263370	2.122087	0.050010
 378	1.8850e-01	15.0413	91.886085	0.001020	10.203231	3.456948	0.081469
 379	1.8900e-01	15.0894	91.974814	0.000222	2.222486	0.752999	0.017746
 380	1.8950e-01	15.1391	92.309561	0.000838	8.384834	2.840859	0.066949
 381	1.9000e-01	15.1712	92.539447	0.000576	5.758259	1.950951	0.045977
 382	1.9050e-01	15.2097	92.890327	0.000879	8.788922	2.977767	0.070176
 383	1.9100e-01	15.2579	93.091982	0.000505	5.051105	1.711361	0.040331
 384	1.9150e-01	15.2867	93.249273	0.000394	3.939862	1.334861	0.031458
 385	1.9200e-01	15.3300	93.406564	0.000394	3.939862	1.334861	0.031458
 386	1.9250e-01	15.3718	93.878436	0.001182	11.819585	4.004584	0.094375
 387	1.9300e-01	15.4135	94.092190	0.000535	5.354171	1.814042	0.042751
 388	1.9350e-01	15.4456	94.120422	0.000071	0.707155	0.239590	0.005646
 389	1.9400e-01	15.5001	94.640692	0.001303	13.031850	4.415310	0.104054
 390	1.9450e-01	15.5354	94.959307	0.000798	7.980745	2.703950	0.063723
 391	1.9500e-01	15.5707	95.217425	0.000647	6.465414	2.190542	0.051624
 392	1.9550e-01	15.6108	95.386815	0.000424	4.242928	1.437543	0.033878
 393	1.9600e-01	15.6445	95.471510	0.000212	2.121464	0.718771	0.016939
 394	1.9650e-01	15.6894	95.911118	0.001101	11.011408	3.730766	0.087922
 395	1.9700e-01	15.7247	96.088574	0.000444	4.444972	1.505997	0.035491
 396	1.9750e-01	15.7712	96.306362	0.000546	5.455193	1.848269	0.043557
 397	1.9800e-01	15.8081	96.689506	0.000960	9.597099	3.251585	0.076629
 398	1.9850e-01	15.8562	96.774201	0.000212	2.121464	0.718771	0.016939
 399	1.9900e-01	15.8915	97.084750	0.000778	7.778701	2.635495	0.062110
 400	1.9950e-01	15.9348	97.258173	0.000434	4.343950	1.471770	0.034685
 401	2.0000e-01	15.9830	97.625185	0.000919	9.193010	3.114676	0.073402
 402	2.0050e-01	16.0118	97.923634	0.000748	7.475635	2.532814	0.059690
 403	2.0100e-01	16.0407	98.254348	0.000828	8.283811	2.806631	0.066143
 404	2.0150e-01	16.0889	98.363242	0.000273	2.727596	0.924135	0.021779
 405	2.0200e-01	16.1290	98.843181	0.001202	12.021629	4.073038	0.095988
 406	2.0250e-01	16.1610	99.044835	0.000505	5.051105	1.711361	0.040331
 407	2.0300e-01	16.2092	99.185994	0.000354	3.535773	1.197952	0.028232
 408	2.0350e-01	16.2525	99.327152	0.000354	3.535773	1.197952	0.028232
 409	2.0400e-01	16.2958	99.536874	0.000525	5.253149	1.779815	0.041944
 410	2.0450e-01	16.3311	99.754661	0.000546	5.455193	1.848269	0.043557
 411	2.0500e-01	16.3680	100.133772	0.000950	9.496077	3.217358	0.075822
 412	2.0550e-01	16.4065	100.658075	0.001313	13.132872	4.449537	0.104861
 413	2.0600e-01	16.4482	100.686307	0.000071	0.707155	0.239590	0.005646
 414	2.0650e-01	16.4899	101.125914	0.001101	11.011408	3.730766	0.087922
 415	2.0700e-01	16.5364	101.250940	0.000313	3.131685	1.061044	0.025005
 416	2.0750e-01	16.5814	101.412264	0.000404	4.040884	1.369088	0.032265
 417	2.0800e-01	16.6070	101.670383	0.000647	6.465414	2.190542	0.051624
 418	2.0850e-01	16.6503	101.993031	0.000808	8.081767	2.738177	0.064530
 419	2.0900e-01	16.6936	102.206785	0.000535	5.354171	1.814042	0.042751
 420	2.0950e-01	16.7257	102.440704	0.000586	5.859281	1.985178	0.046784
 421	2.1000e-01	16.7723	102.775452	0.000838	8.384834	2.840859	0.066949
 422	2.1050e-01	16.8188	103.005338	0.000576	5.758259	1.950951	0.045977
 423	2.1100e-01	16.8509	103.223126	0.000546	5.455193	1.848269	0.043557
 424	2.1150e-01	16.8862	103.412681	0.000475	4.748038	1.608679	0.037911
 425	2.1200e-01	16.9343	103.553840	0.000354	3.535773	1.197952	0.028232
 426	2.1250e-01	16.9712	103.916819	0.000909	9.091988	3.080449	0.072596
 427	2.1300e-01	17.0081	104.057977	0.000354	3.535773	1.197952	0.028232
 428	2.1350e-01	17.0498	104.477419	0.001051	10.506297	3.559630	0.083888
 429	2.1400e-01	17.0899	104.779902	0.000758	7.576657	2.567041	0.060496
 430	2.1450e-01	17.1364	104.921060	0.000354	3.535773	1.197952	0.028232
 431	2.1500e-01	17.1733	105.078351	0.000394	3.939862	1.334861	0.031458
 432	2.1550e-01	17.2118	105.376800	0.000748	7.475635	2.532814	0.059690
 433	2.1600e-01	17.2455	105.703481	0.000818	8.182789	2.772404	0.065336
 434	2.1650e-01	17.2968	106.026129	0.000808	8.081767	2.738177	0.064530
 435	2.1700e-01	17.3257	106.219718	0.000485	4.849060	1.642906	0.038718
 436	2.1750e-01	17.3706	106.381042	0.000404	4.040884	1.369088	0.032265
 437	2.1800e-01	17.4172	106.623028	0.000606	6.061325	2.053633	0.048397
 438	2.1850e-01	17.4557	106.921477	0.000748	7.475635	2.532814	0.059690
 439	2.1900e-01	17.4829	107.215893	0.000737	7.374613	2.498586	0.058883
 440	2.1950e-01	17.5295	107.558707	0.000859	8.586878	2.909313	0.068563
 441	2.2000e-01	17.5744	107.820858	0.000657	6.566436	2.224769	0.052430
 442	2.2050e-01	17.6097	108.062844	0.000606	6.061325	2.053633	0.048397
 443	2.2100e-01	17.6466	108.183837	0.000303	3.030663	1.026816	0.024199
 444	2.2150e-01	17.6915	108.482286	0.000748	7.475635	2.532814	0.059690
 445	2.2200e-01	17.7332	108.692007	0.000525	5.253149	1.779815	0.041944
 446	2.2250e-01	17.7669	108.933993	0.000606	6.061325	2.053633	0.048397
 447	2.2300e-01	17.8102	109.196145	0.000657	6.566436	2.224769	0.052430
 448	2.2350e-01	17.8519	109.490561	0.000737	7.374613	2.498586	0.058883
 449	2.2400e-01	17.8888	109.619620	0.000323	3.232707	1.095271	0.025812
 450	2.2450e-01	17.9273	110.002764	0.000960	9.597099	3.251585	0.076629
 451	2.2500e-01	17.9642	110.531100	0.001323	13.233894	4.483765	0.105667
 452	2.2550e-01	18.0139	110.470604	-0.000152	-1.515331	-0.513408	-0.012099
 453	2.2600e-01	18.0508	110.877947	0.001020	10.203231	3.456948	0.081469
 454	2.2650e-01	18.0925	111.027171	0.000374	3.737817	1.266407	0.029845
 455	2.2700e-01	18.1407	111.228826	0.000505	5.051105	1.711361	0.040331
 456	2.2750e-01	18.1792	111.442581	0.000535	5.354171	1.814042	0.042751
 457	2.2800e-01	18.2177	111.680533	0.000596	5.960303	2.019405	0.047591
 458	2.2850e-01	18.2514	111.922519	0.000606	6.061325	2.053633	0.048397
 459	2.2900e-01	18.2899	112.075777	0.000384	3.838839	1.300634	0.030652
 460	2.2950e-01	18.3332	112.241134	0.000414	4.141906	1.403316	0.033071
 461	2.3000e-01	18.3733	112.672676	0.001081	10.809364	3.662312	0.086308
 462	2.3050e-01	18.4102	113.063886	0.000980	9.799143	3.320039	0.078242
 463	2.3100e-01	18.4503	113.277640	0.000535	5.354171	1.814042	0.042751
 464	2.3150e-01	18.4920	113.467196	0.000475	4.748038	1.608679	0.037911
 465	2.3200e-01	18.5369	113.705149	0.000596	5.960303	2.019405	0.047591
 466	2.3250e-01	18.5674	114.019731	0.000788	7.879723	2.669722	0.062916
 467	2.3300e-01	18.6155	114.172988	0.000384	3.838839	1.300634	0.030652
 468	2.3350e-01	18.6540	114.431107	0.000647	6.465414	2.190542	0.051624
 469	2.3400e-01	18.6877	114.689225	0.000647	6.465414	2.190542	0.051624
 470	2.3450e-01	18.7294	114.886847	0.000495	4.950082	1.677133	0.039524
 471	2.3500e-01	18.7695	115.177230	0.000727	7.273591	2.464359	0.058077
 472	2.3550e-01	18.8193	115.507944	0.000828	8.283811	2.806631	0.066143
 473	2.3600e-01	18.8594	115.588606	0.000202	2.020442	0.684544	0.016132
 474	2.3650e-01	18.8898	115.983850	0.000990	9.900165	3.354267	0.079049
 475	2.3700e-01	18.9316	116.439590	0.001142	11.415496	3.867675	0.091148
 476	2.3750e-01	18.9701	116.379093	-0.000152	-1.515331	-0.513408	-0.012099
 477	2.3800e-01	19.0182	116.641245	0.000657	6.566436	2.224769	0.052430
 478	2.3850e-01	19.0503	116.746105	0.000263	2.626574	0.889907	0.020972
 479	2.3900e-01	19.0888	116.951793	0.000515	5.152127	1.745588	0.041138
 480	2.3950e-01	19.1289	117.302673	0.000879	8.788922	2.977767	0.070176
 481	2.4000e-01	19.1658	117.855207	0.001384	13.840027	4.689128	0.110507
 482	2.4050e-01	19.2187	117.903605	0.000121	1.212265	0.410727	0.009679
 483	2.4100e-01	19.2572	118.210120	0.000768	7.677679	2.601268	0.061303
 484	2.4150e-01	19.2925	118.339179	0.000323	3.232707	1.095271	0.025812
 485	2.4200e-01	19.3358	118.504536	0.000414	4.141906	1.403316	0.033071
 486	2.4250e-01	19.3743	118.980442	0.001192	11.920607	4.038811	0.095181
 487	2.4300e-01	19.4128	119.073203	0.000232	2.323508	0.787226	0.018552
 488	2.4350e-01	19.4545	119.121600	0.000121	1.212265	0.410727	0.009679
 489	2.4400e-01	19.4834	119.577340	0.001142	11.415496	3.867675	0.091148
 490	2.4450e-01	19.5331	119.637837	0.000152	1.515331	0.513408	0.012099
 491	2.4500e-01	19.5748	120.113743	0.001192	11.920607	4.038811	0.095181
 492	2.4550e-01	19.6037	120.412192	0.000748	7.475635	2.532814	0.059690
 493	2.4600e-01	19.6502	120.573516	0.000404	4.040884	1.369088	0.032265
 494	2.4650e-01	19.6871	120.924395	0.000879	8.788922	2.977767	0.070176
 495	2.4700e-01	19.7256	120.984892	0.000152	1.515331	0.513408	0.012099
 496	2.4750e-01	19.7738	121.150249	0.000414	4.141906	1.403316	0.033071
 497	2.4800e-01	19.8091	121.392235	0.000606	6.061325	2.053633	0.048397
 498	2.4850e-01	19.8444	121.658419	0.000667	6.667458	2.258996	0.053237
 499	2.4900e-01	19.8877	121.964935	0.000768	7.677679	2.601268	0.061303
 500	2.4950e-01	19.9326	122.202888	0.000596	5.960303	2.019405	0.047591
 501	2.5000e-01	19.9727	122.396476	0.000485	4.849060	1.642906	0.038718
 502	2.5050e-01	19.9823	122.493271	0.000242	2.424530	0.821453	0.019359
 503	2.5100e-01	19.9567	122.344046	0.000374	3.737817	1.266407	-0.029845
 504	2.5150e-01	19.9198	122.073828	0.000677	6.768480	2.293223	-0.054044
 505	2.5200e-01	19.8732	121.973001	0.000253	2.525552	0.855680	-0.020165
 506	2.5250e-01	19.8363	122.077862	-0.000263	-2.626574	-0.889907	0.020972
 507	2.5300e-01	19.7994	121.908471	0.000424	4.242928	1.437543	-0.033878
 508	2.5350e-01	19.7561	121.779412	0.000323	3.232707	1.095271	-0.025812
 509	2.5400e-01	19.7208	121.521294	0.000647	6.465414	2.190542	-0.051624
 510	2.5450e-01	19.6839	121.029256	0.001232	12.324695	4.175720	-0.098408
 511	2.5500e-01	19.6438	121.085719	-0.000141	-1.414309	-0.479181	0.011293
 512	2.5550e-01	19.5989	120.694509	0.000980	9.799143	3.320039	-0.078242
 513	2.5600e-01	19.5588	120.525119	0.000424	4.242928	1.437543	-0.033878
 514	2.5650e-01	19.5139	120.404126	0.000303	3.030663	1.026816	-0.024199
 515	2.5700e-01	19.4818	120.323464	0.000202	2.020442	0.684544	-0.016132
 516	2.5750e-01	19.4401	119.960485	0.000909	9.091988	3.080449	-0.072596
 517	2.5800e-01	19.4032	119.371652	0.001475	14.749225	4.997173	-0.117766
 518	2.5850e-01	19.3647	119.420050	-0.000121	-1.212265	-0.410727	0.009679
 519	2.5900e-01	19.3182	119.367619	0.000131	1.313287	0.444954	-0.010486
 520	2.5950e-01	19.2797	119.153865	0.000535	5.354171	1.814042	-0.042751
 521	2.6000e-01	19.2476	118.835250	0.000798	7.980745	2.703950	-0.063723
 522	2.6050e-01	19.1995	118.762655	0.000182	1.818398	0.616090	-0.014519
 523	2.6100e-01	19.1674	118.339179	0.001061	10.607320	3.593857	-0.084695
 524	2.6150e-01	19.1160	118.040730	0.000748	7.475635	2.532814	-0.059690
 525	2.6200e-01	19.0759	117.931836	0.000273	2.727596	0.924135	-0.021779
 526	2.6250e-01	19.0390	117.818909	0.000283	2.828619	0.958362	-0.022585
 527	2.6300e-01	18.9909	117.556758	0.000657	6.566436	2.224769	-0.052430
 528	2.6350e-01	18.9604	117.451897	0.000263	2.626574	0.889907	-0.020972
 529	2.6400e-01	18.9219	117.016323	0.001091	10.910386	3.696539	-0.087115
 530	2.6450e-01	18.8834	116.887264	0.000323	3.232707	1.095271	-0.025812
 531	2.6500e-01	18.8385	116.854999	0.000081	0.808177	0.273818	-0.006453
 532	2.6550e-01	18.7984	116.705774	0.000374	3.737817	1.266407	-0.029845
 533	2.6600e-01	18.7647	116.318597	0.000970	9.698121	3.285812	-0.077435
 534	2.6650e-01	18.7198	116.100809	0.000546	5.455193	1.848269	-0.043557
 535	2.6700e-01	18.6733	115.697500	0.001010	10.102209	3.422721	-0.080662
 536	2.6750e-01	18.6396	115.564407	0.000333	3.333729	1.129498	-0.026618
 537	2.6800e-01	18.5882	115.560374	0.000010	0.101022	0.034227	-0.000807
 538	2.6850e-01	18.5513	115.314355	0.000616	6.162348	2.087860	-0.049204
 539	2.6900e-01	18.5177	115.068336	0.000616	6.162348	2.087860	-0.049204
 540	2.6950e-01	18.4792	114.798119	0.000677	6.768480	2.293223	-0.054044
 541	2.7000e-01	18.4487	114.463371	0.000838	8.384834	2.840859	-0.066949
 542	2.7050e-01	18.4006	114.253650	0.000525	5.253149	1.779815	-0.041944
 543	2.7100e-01	18.3637	114.172988	0.000202	2.020442	0.684544	-0.016132
 544	2.7150e-01	18.3300	114.088293	0.000212	2.121464	0.718771	-0.016939
 545	2.7200e-01	18.2786	113.753546	0.000838	8.384834	2.840859	-0.066949
 546	2.7250e-01	18.2465	113.563990	0.000475	4.748038	1.608679	-0.037911
 547	2.7300e-01	18.2064	113.334104	0.000576	5.758259	1.950951	-0.045977
 548	2.7350e-01	18.1503	113.184879	0.000374	3.737817	1.266407	-0.029845
 549	2.7400e-01	18.1198	112.971125	0.000535	5.354171	1.814042	-0.042751
 550	2.7450e-01	18.0797	112.644444	0.000818	8.182789	2.772404	-0.065336
 551	2.7500e-01	18.0428	112.458921	0.000465	4.647016	1.574452	-0.037105
 552	2.7550e-01	18.0011	112.337928	0.000303	3.030663	1.026816	-0.024199
 553	2.7600e-01	17.9658	112.031413	0.000768	7.677679	2.601268	-0.061303
 554	2.7650e-01	17.9161	111.712798	0.000798	7.980745	2.703950	-0.063723
 555	2.7700e-01	17.8776	111.523243	0.000475	4.748038	1.608679	-0.037911
 556	2.7750e-01	17.8439	111.253025	0.000677	6.768480	2.293223	-0.054044
 557	2.7800e-01	17.7990	111.027171	0.000566	5.657237	1.916724	-0.045171
 558	2.7850e-01	17.7556	110.720656	0.000768	7.677679	2.601268	-0.061303
 559	2.7900e-01	17.7204	110.652093	0.000172	1.717376	0.581863	-0.013713
 560	2.7950e-01	17.6835	110.369776	0.000707	7.071546	2.395905	-0.056463
 561	2.8000e-01	17.6482	110.111658	0.000647	6.465414	2.190542	-0.051624
 562	2.8050e-01	17.5984	109.974533	0.000343	3.434751	1.163725	-0.027425
 563	2.8100e-01	17.5583	109.837407	0.000343	3.434751	1.163725	-0.027425
 564	2.8150e-01	17.5134	109.655918	0.000455	4.545994	1.540224	-0.036298
 565	2.8200e-01	17.4749	109.547024	0.000273	2.727596	0.924135	-0.021779
 566	2.8250e-01	17.4316	109.301005	0.000616	6.162348	2.087860	-0.049204
 567	2.8300e-01	17.4091	108.998523	0.000758	7.576657	2.567041	-0.060496
 568	2.8350e-01	17.3530	108.808967	0.000475	4.748038	1.608679	-0.037911
 569	2.8400e-01	17.3113	108.558915	0.000626	6.263370	2.122087	-0.050010
 570	2.8450e-01	17.2744	108.341128	0.000546	5.455193	1.848269	-0.043557
 571	2.8500e-01	17.2327	108.240300	0.000253	2.525552	0.855680	-0.020165
 572	2.8550e-01	17.2006	107.836990	0.001010	10.102209	3.422721	-0.080662
 573	2.8600e-01	17.1573	107.655501	0.000455	4.545994	1.540224	-0.036298
 574	2.8650e-01	17.1156	107.482078	0.000434	4.343950	1.471770	-0.034685
 575	2.8700e-01	17.0787	107.195728	0.000717	7.172568	2.430132	-0.057270
 576	2.8750e-01	17.0337	106.994073	0.000505	5.051105	1.711361	-0.040331
 577	2.8800e-01	16.9985	106.723855	0.000677	6.768480	2.293223	-0.054044
 578	2.8850e-01	16.9583	106.485902	0.000596	5.960303	2.019405	-0.047591
 579	2.8900e-01	16.9231	106.268115	0.000546	5.455193	1.848269	-0.043557
 580	2.8950e-01	16.8733	106.066460	0.000505	5.051105	1.711361	-0.040331
 581	2.9000e-01	16.8444	105.989831	0.000192	1.919420	0.650317	-0.015326
 582	2.9050e-01	16.7915	105.647018	0.000859	8.586878	2.909313	-0.068563
 583	2.9100e-01	16.7594	105.392933	0.000636	6.364392	2.156314	-0.050817
 584	2.9150e-01	16.7257	105.163046	0.000576	5.758259	1.950951	-0.045977
 585	2.9200e-01	16.6744	104.876696	0.000717	7.172568	2.430132	-0.057270
 586	2.9250e-01	16.6343	104.735538	0.000354	3.535773	1.197952	-0.028232
 587	2.9300e-01	16.5990	104.477419	0.000647	6.465414	2.190542	-0.051624
 588	2.9350e-01	16.5605	104.191069	0.000717	7.172568	2.430132	-0.057270
 589	2.9400e-01	16.5316	103.844223	0.000869	8.687900	2.943540	-0.069369
 590	2.9450e-01	16.4771	103.719197	0.000313	3.131685	1.061044	-0.025005
 591	2.9500e-01	16.4434	103.626435	0.000232	2.323508	0.787226	-0.018552
 592	2.9550e-01	16.4001	103.360251	0.000667	6.667458	2.258996	-0.053237
 593	2.9600e-01	16.3487	103.098100	0.000657	6.566436	2.224769	-0.052430
 594	2.9650e-01	16.3167	102.944842	0.000384	3.838839	1.300634	-0.030652
 595	2.9700e-01	16.2782	102.714955	0.000576	5.758259	1.950951	-0.045977
 596	2.9750e-01	16.2332	102.372142	0.000859	8.586878	2.909313	-0.068563
 597	2.9800e-01	16.1899	102.138222	0.000586	5.859281	1.985178	-0.046784
 598	2.9850e-01	16.1578	101.888170	0.000626	6.263370	2.122087	-0.050010
 599	2.9900e-01	16.1225	101.682482	0.000515	5.152127	1.745588	-0.041138
 600	2.9950e-01	16.0696	101.626019	0.000141	1.414309	0.479181	-0.011293
 601	3.0000e-01	16.0311	101.222709	0.001010	10.102209	3.422721	-0.080662
 602	3.0050e-01	16.0022	100.831498	0.000980	9.799143	3.320039	-0.078242
 603	3.0100e-01	15.9557	100.879895	-0.000121	-1.212265	-0.410727	0.009679
 604	3.0150e-01	15.9188	100.569347	0.000778	7.778701	2.635495	-0.062110
 605	3.0200e-01	15.8755	100.472552	0.000242	2.424530	0.821453	-0.019359
 606	3.0250e-01	15.8402	100.210401	0.000657	6.566436	2.224769	-0.052430
 607	3.0300e-01	15.7953	99.782893	0.001071	10.708342	3.628084	-0.085502
 608	3.0350e-01	15.7616	99.379583	0.001010	10.102209	3.422721	-0.080662
 609	3.0400e-01	15.7199	99.355384	0.000061	0.606133	0.205363	-0.004840
 610	3.0450e-01	15.6830	99.194060	0.000404	4.040884	1.369088	-0.032265
 611	3.0500e-01	15.6365	98.931909	0.000657	6.566436	2.224769	-0.052430
 612	3.0550e-01	15.5947	98.794783	0.000343	3.434751	1.163725	-0.027425
 613	3.0600e-01	15.5530	98.536665	0.000647	6.465414	2.190542	-0.051624
 614	3.0650e-01	15.5177	98.193852	0.000859	8.586878	2.909313	-0.068563
 615	3.0700e-01	15.4825	98.024462	0.000424	4.242928	1.437543	-0.033878
 616	3.0750e-01	15.4391	97.713913	0.000778	7.778701	2.635495	-0.062110
 617	3.0800e-01	15.3926	97.459828	0.000636	6.364392	2.156314	-0.050817
 618	3.0850e-01	15.3573	97.213809	0.000616	6.162348	2.087860	-0.049204
 619	3.0900e-01	15.3140	97.048452	0.000414	4.141906	1.403316	-0.033071
 620	3.0950e-01	15.2707	96.846797	0.000505	5.051105	1.711361	-0.040331
 621	3.1000e-01	15.2370	96.645142	0.000505	5.051105	1.711361	-0.040331
 622	3.1050e-01	15.2001	96.270064	0.000940	9.395054	3.183131	-0.075016
 623	3.1100e-01	15.1600	95.907085	0.000909	9.091988	3.080449	-0.072596
 624	3.1150e-01	15.1215	95.653000	0.000636	6.364392	2.156314	-0.050817
 625	3.1200e-01	15.0718	95.540073	0.000283	2.828619	0.958362	-0.022585
 626	3.1250e-01	15.0301	95.411014	0.000323	3.232707	1.095271	-0.025812
 627	3.1300e-01	14.9996	95.128697	0.000707	7.071546	2.395905	-0.056463
 628	3.1350e-01	14.9531	94.927042	0.000505	5.051105	1.711361	-0.040331
 629	3.1400e-01	14.9162	94.951240	-0.000061	-0.606133	-0.205363	0.004840
 630	3.1450e-01	14.8712	94.592295	0.000899	8.990966	3.046222	-0.071789
 631	3.1500e-01	14.8408	94.209150	0.000960	9.597099	3.251585	-0.076629
 632	3.1550e-01	14.7894	94.305945	-0.000242	-2.424530	-0.821453	0.019359
 633	3.1600e-01	14.7541	93.797774	0.001273	12.728784	4.312629	-0.101634
 634	3.1650e-01	14.7124	93.523523	0.000687	6.869502	2.327450	-0.054850
 635	3.1700e-01	14.6723	93.233140	0.000727	7.273591	2.464359	-0.058077
 636	3.1750e-01	14.6370	93.112147	0.000303	3.030663	1.026816	-0.024199
 637	3.1800e-01	14.5969	92.942757	0.000424	4.242928	1.437543	-0.033878
 638	3.1850e-01	14.5520	92.587845	0.000889	8.889944	3.011995	-0.070983
 639	3.1900e-01	14.5119	92.402322	0.000465	4.647016	1.574452	-0.037105
 640	3.1950e-01	14.4734	92.269230	0.000333	3.333729	1.129498	-0.026618
 641	3.2000e-01	14.4365	91.857854	0.001030	10.304253	3.491176	-0.082275
 642	3.2050e-01	14.3964	91.559404	0.000748	7.475635	2.532814	-0.059690
 643	3.2100e-01	14.3579	91.410180	0.000374	3.737817	1.266407	-0.029845
 644	3.2150e-01	14.3178	91.051234	0.000899	8.990966	3.046222	-0.071789
 645	3.2200e-01	14.2713	90.849579	0.000505	5.051105	1.711361	-0.040331
 646	3.2250e-01	14.2344	90.559196	0.000727	7.273591	2.464359	-0.058077
 647	3.2300e-01	14.2007	90.409971	0.000374	3.737817	1.266407	-0.029845
 648	3.2350e-01	14.1558	90.176052	0.000586	5.859281	1.985178	-0.046784
 649	3.2400e-01	14.1140	89.833238	0.000859	8.586878	2.909313	-0.068563
 650	3.2450e-01	14.0836	89.607385	0.000566	5.657237	1.916724	-0.045171
 651	3.2500e-01	14.0402	89.494458	0.000283	2.828619	0.958362	-0.022585
 652	3.2550e-01	14.0001	89.240373	0.000636	6.364392	2.156314	-0.050817
 653	3.2600e-01	13.9665	89.123413	0.000293	2.929641	0.992589	-0.023392
 654	3.2650e-01	13.9103	88.808831	0.000788	7.879723	2.669722	-0.062916
 655	3.2700e-01	13.8911	88.445852	0.000909	9.091988	3.080449	-0.072596
 656	3.2750e-01	13.8413	88.377290	0.000172	1.717376	0.581863	-0.013713
 657	3.2800e-01	13.7948	88.320826	0.000141	1.414309	0.479181	-0.011293
 658	3.2850e-01	13.7579	88.018344	0.000758	7.576657	2.567041	-0.060496
 659	3.2900e-01	13.7130	87.558571	0.001152	11.516518	3.901902	-0.091955
 660	3.2950e-01	13.6745	87.288353	0.000677	6.768480	2.293223	-0.054044
 661	3.3000e-01	13.6376	87.062500	0.000566	5.657237	1.916724	-0.045171
 662	3.3050e-01	13.5975	86.751951	0.000778	7.778701	2.635495	-0.062110
 663	3.3100e-01	13.5574	86.493833	0.000647	6.465414	2.190542	-0.051624
 664	3.3150e-01	13.5221	86.223615	0.000677	6.768480	2.293223	-0.054044
 665	3.3200e-01	13.4723	86.126821	0.000242	2.424530	0.821453	-0.019359
 666	3.3250e-01	13.4387	86.074390	0.000131	1.313287	0.444954	-0.010486
 667	3.3300e-01	13.4002	85.650915	0.001061	10.607320	3.593857	-0.084695
 668	3.3350e-01	13.3552	85.425061	0.000566	5.657237	1.916724	-0.045171
 669	3.3400e-01	13.3151	85.219373	0.000515	5.152127	1.745588	-0.041138
 670	3.3450e-01	13.2718	84.755567	0.001162	11.617540	3.936129	-0.092761
 671	3.3500e-01	13.2365	84.707170	0.000121	1.212265	0.410727	-0.009679
 672	3.3550e-01	13.1980	84.517614	0.000475	4.748038	1.608679	-0.037911
 673	3.3600e-01	13.1627	84.315959	0.000505	5.051105	1.711361	-0.040331
 674	3.3650e-01	13.1082	84.005411	0.000778	7.778701	2.635495	-0.062110
 675	3.3700e-01	13.0857	83.513373	0.001232	12.324695	4.175720	-0.098408
 676	3.3750e-01	13.0440	83.122162	0.000980	9.799143	3.320039	-0.078242
 677	3.3800e-01	12.9895	83.065699	0.000141	1.414309	0.479181	-0.011293
 678	3.3850e-01	12.9542	82.940673	0.000313	3.131685	1.061044	-0.025005
 679	3.3900e-01	12.9237	82.432502	0.001273	12.728784	4.312629	-0.101634
 680	3.3950e-01	12.8740	82.396204	0.000091	0.909199	0.308045	-0.007260
 681	3.4000e-01	12.8419	82.117921	0.000697	6.970524	2.361678	-0.055657
 682	3.4050e-01	12.8018	81.904166	0.000535	5.354171	1.814042	-0.042751
 683	3.4100e-01	12.7569	81.884001	0.000051	0.505110	0.171136	-0.004033
 684	3.4150e-01	12.7200	81.553287	0.000828	8.283811	2.806631	-0.066143
 685	3.4200e-01	12.6734	81.254838	0.000748	7.475635	2.532814	-0.059690
 686	3.4250e-01	12.6430	81.024951	0.000576	5.758259	1.950951	-0.045977
 687	3.4300e-01	12.6077	80.718435	0.000768	7.677679	2.601268	-0.061303
 688	3.4350e-01	12.5660	80.436119	0.000707	7.071546	2.395905	-0.056463
 689	3.4400e-01	12.5194	80.399821	0.000091	0.909199	0.308045	-0.007260
 690	3.4450e-01	12.4745	80.194133	0.000515	5.152127	1.745588	-0.041138
 691	3.4500e-01	12.4424	79.855352	0.000849	8.485856	2.875086	-0.067756
 692	3.4550e-01	12.3975	79.597234	0.000647	6.465414	2.190542	-0.051624
 693	3.4600e-01	12.3542	79.189891	0.001020	10.203231	3.456948	-0.081469
 694	3.4650e-01	12.3093	79.040666	0.000374	3.737817	1.266407	-0.029845
 695	3.4700e-01	12.2932	78.492165	0.001374	13.739004	4.654901	-0.109700
 696	3.4750e-01	12.2467	78.431669	0.000152	1.515331	0.513408	-0.012099
 697	3.4800e-01	12.1970	78.298576	0.000333	3.333729	1.129498	-0.026618
 698	3.4850e-01	12.1537	78.278411	0.000051	0.505110	0.171136	-0.004033
 699	3.4900e-01	12.1200	77.883167	0.000990	9.900165	3.354267	-0.079049
 700	3.4950e-01	12.0831	77.451626	0.001081	10.809364	3.662312	-0.086308
 701	3.5000e-01	12.0301	77.326600	0.000313	3.131685	1.061044	-0.025005
 702	3.5050e-01	11.9997	77.007985	0.000798	7.980745	2.703950	-0.063723
 703	3.5100e-01	11.9515	76.955554	0.000131	1.313287	0.444954	-0.010486
 704	3.5150e-01	11.9211	76.584509	0.000929	9.294032	3.148903	-0.074209
 705	3.5200e-01	11.8793	76.390921	0.000485	4.849060	1.642906	-0.038718
 706	3.5250e-01	11.8360	76.148935	0.000606	6.061325	2.053633	-0.048397
 707	3.5300e-01	11.7959	75.725459	0.001061	10.607320	3.593857	-0.084695
 708	3.5350e-01	11.7687	75.439109	0.000717	7.172568	2.430132	-0.057270
 709	3.5400e-01	11.7173	75.354414	0.000212	2.121464	0.718771	-0.016939
 710	3.5450e-01	11.6740	75.076130	0.000697	6.970524	2.361678	-0.055657
 711	3.5500e-01	11.6467	74.801880	0.000687	6.869502	2.327450	-0.054850
 712	3.5550e-01	11.6018	74.644589	0.000394	3.939862	1.334861	-0.031458
 713	3.5600e-01	11.5569	74.217080	0.001071	10.708342	3.628084	-0.085502
 714	3.5650e-01	11.5216	74.051723	0.000414	4.141906	1.403316	-0.033071
 715	3.5700e-01	11.4751	73.999293	0.000131	1.313287	0.444954	-0.010486
 716	3.5750e-01	11.4334	73.636314	0.000909	9.091988	3.080449	-0.072596
 717	3.5800e-01	11.3917	73.329799	0.000768	7.677679	2.601268	-0.061303
 718	3.5850e-01	11.3548	73.027316	0.000758	7.576657	2.567041	-0.060496
 719	3.5900e-01	11.3227	72.676437	0.000879	8.788922	2.977767	-0.070176
 720	3.5950e-01	11.2729	72.470749	0.000515	5.152127	1.745588	-0.041138
 721	3.6000e-01	11.2425	72.220697	0.000626	6.263370	2.122087	-0.050010
 722	3.6050e-01	11.2024	71.966611	0.000636	6.364392	2.156314	-0.050817
 723	3.6100e-01	11.1606	71.781089	0.000465	4.647016	1.574452	-0.037105
 724	3.6150e-01	11.1173	71.712526	0.000172	1.717376	0.581863	-0.013713
 725	3.6200e-01	11.0692	71.575401	0.000343	3.434751	1.163725	-0.027425
 726	3.6250e-01	11.0467	71.010767	0.001414	14.143093	4.791810	-0.112927
 727	3.6300e-01	11.0098	70.760715	0.000626	6.263370	2.122087	-0.050010
 728	3.6350e-01	10.9585	70.708285	0.000131	1.313287	0.444954	-0.010486
 729	3.6400e-01	10.9152	70.256578	0.001131	11.314474	3.833448	-0.090341
 730	3.6450e-01	10.8783	70.022658	0.000586	5.859281	1.985178	-0.046784
 731	3.6500e-01	10.8462	69.780672	0.000606	6.061325	2.053633	-0.048397
 732	3.6550e-01	10.8045	69.470123	0.000778	7.778701	2.635495	-0.062110
 733	3.6600e-01	10.7532	69.224104	0.000616	6.162348	2.087860	-0.049204
 734	3.6650e-01	10.7243	69.018416	0.000515	5.152127	1.745588	-0.041138
 735	3.6700e-01	10.6970	68.760298	0.000647	6.465414	2.190542	-0.051624
 736	3.6750e-01	10.6409	68.490080	0.000677	6.768480	2.293223	-0.054044
 737	3.6800e-01	10.5976	68.377154	0.000283	2.828619	0.958362	-0.022585
 738	3.6850e-01	10.5575	67.792354	0.001465	14.648203	4.962946	-0.116960
 739	3.6900e-01	10.5302	67.546335	0.000616	6.162348	2.087860	-0.049204
 740	3.6950e-01	10.4708	67.445508	0.000253	2.525552	0.855680	-0.020165
 741	3.7000e-01	10.4339	67.296283	0.000374	3.737817	1.266407	-0.029845
 742	3.7050e-01	10.4051	66.925238	0.000929	9.294032	3.148903	-0.074209
 743	3.7100e-01	10.3537	66.905073	0.000051	0.505110	0.171136	-0.004033
 744	3.7150e-01	10.3232	66.582425	0.000808	8.081767	2.738177	-0.064530
 745	3.7200e-01	10.2815	66.199280	0.000960	9.597099	3.251585	-0.076629
 746	3.7250e-01	10.2334	65.953261	0.000616	6.162348	2.087860	-0.049204
 747	3.7300e-01	10.1933	65.687077	0.000667	6.667458	2.258996	-0.053237
 748	3.7350e-01	10.1612	65.420892	0.000667	6.667458	2.258996	-0.053237
 749	3.7400e-01	10.1211	65.320065	0.000253	2.525552	0.855680	-0.020165
 750	3.7450e-01	10.0762	65.041781	0.000697	6.970524	2.361678	-0.055657
 751	3.7500e-01	10.0345	64.658637	0.000960	9.597099	3.251585	-0.076629
 752	3.7550e-01	9.9928	64.561842	0.000242	2.424530	0.821453	-0.019359
 753	3.7600e-01	9.9527	63.981076	0.001455	14.547181	4.928718	-0.116153
 754	3.7650e-01	9.9142	63.787487	0.000485	4.849060	1.642906	-0.038718
 755	3.7700e-01	9.8837	63.585833	0.000505	5.051105	1.711361	-0.040331
 756	3.7750e-01	9.8420	63.218821	0.000919	9.193010	3.114676	-0.073402
 757	3.7800e-01	9.7987	63.218821	-0.000000	-0.000000	-0.000000	0.000000
 758	3.7850e-01	9.7553	62.972802	0.000616	6.162348	2.087860	-0.049204
 759	3.7900e-01	9.7184	62.625955	0.000869	8.687900	2.943540	-0.069369
 760	3.7950e-01	9.6751	62.327506	0.000748	7.475635	2.532814	-0.059690
 761	3.8000e-01	9.6334	62.125851	0.000505	5.051105	1.711361	-0.040331
 762	3.8050e-01	9.6029	61.774971	0.000879	8.788922	2.977767	-0.070176
 763	3.8100e-01	9.5628	61.653978	0.000303	3.030663	1.026816	-0.024199
 764	3.8150e-01	9.5259	61.282933	0.000929	9.294032	3.148903	-0.074209
 765	3.8200e-01	9.4666	61.049014	0.000586	5.859281	1.985178	-0.046784
 766	3.8250e-01	9.4441	60.831226	0.000546	5.455193	1.848269	-0.043557
 767	3.8300e-01	9.4056	60.423883	0.001020	10.203231	3.456948	-0.081469
 768	3.8350e-01	9.3543	60.157699	0.000667	6.667458	2.258996	-0.053237
 769	3.8400e-01	9.3238	60.073004	0.000212	2.121464	0.718771	-0.016939
 770	3.8450e-01	9.2805	59.697926	0.000940	9.395054	3.183131	-0.075016
 771	3.8500e-01	9.2308	59.681793	0.000040	0.404088	0.136909	-0.003226
 772	3.8550e-01	9.2035	59.205887	0.001192	11.920607	4.038811	-0.095181
 773	3.8600e-01	9.1538	58.988100	0.000546	5.455193	1.848269	-0.043557
 774	3.8650e-01	9.1185	58.681585	0.000768	7.677679	2.601268	-0.061303
 775	3.8700e-01	9.0832	58.399268	0.000707	7.071546	2.395905	-0.056463
 776	3.8750e-01	9.0399	58.120984	0.000697	6.970524	2.361678	-0.055657
 777	3.8800e-01	8.9997	58.028223	0.000232	2.323508	0.787226	-0.018552
 778	3.8850e-01	8.9580	57.713641	0.000788	7.879723	2.669722	-0.062916
 779	3.8900e-01	8.9179	57.390993	0.000808	8.081767	2.738177	-0.064530
 780	3.8950e-01	8.8666	57.213537	0.000444	4.444972	1.505997	-0.035491
 781	3.9000e-01	8.8249	56.882823	0.000828	8.283811	2.806631	-0.066143
 782	3.9050e-01	8.7992	56.777962	0.000263	2.626574	0.889907	-0.020972
 783	3.9100e-01	8.7607	56.427083	0.000879	8.788922	2.977767	-0.070176
 784	3.9150e-01	8.7254	56.104435	0.000808	8.081767	2.738177	-0.064530
 785	3.9200e-01	8.6789	55.713224	0.000980	9.799143	3.320039	-0.078242
 786	3.9250e-01	8.6388	55.515602	0.000495	4.950082	1.677133	-0.039524
 787	3.9300e-01	8.5939	55.213120	0.000758	7.576657	2.567041	-0.060496
 788	3.9350e-01	8.5570	55.047763	0.000414	4.141906	1.403316	-0.033071
 789	3.9400e-01	8.5281	54.660585	0.000970	9.698121	3.285812	-0.077435
 790	3.9450e-01	8.4720	54.511361	0.000374	3.737817	1.266407	-0.029845
 791	3.9500e-01	8.4318	54.273408	0.000596	5.960303	2.019405	-0.047591
 792	3.9550e-01	8.4014	54.055621	0.000546	5.455193	1.848269	-0.043557
 793	3.9600e-01	8.3613	53.737006	0.000798	7.980745	2.703950	-0.063723
 794	3.9650e-01	8.3196	53.369994	0.000919	9.193010	3.114676	-0.073402
 795	3.9700e-01	8.2827	53.107842	0.000657	6.566436	2.224769	-0.052430
 796	3.9750e-01	8.2361	52.821492	0.000717	7.172568	2.430132	-0.057270
 797	3.9800e-01	8.1992	52.535142	0.000717	7.172568	2.430132	-0.057270
 798	3.9850e-01	8.1639	52.426249	0.000273	2.727596	0.924135	-0.021779
 799	3.9900e-01	8.1254	52.212495	0.000535	5.354171	1.814042	-0.042751
 800	3.9950e-01	8.0821	51.732556	0.001202	12.021629	4.073038	-0.095988
 801	4.0000e-01	8.0436	51.369577	0.000909	9.091988	3.080449	-0.072596
 802	4.0050e-01	7.9939	50.917870	0.001131	11.314474	3.833448	-0.090341
 803	4.0100e-01	7.9650	50.813009	0.000263	2.626574	0.889907	-0.020972
 804	4.0150e-01	7.9153	50.829142	-0.000040	-0.404088	-0.136909	0.003226
 805	4.0200e-01	7.8800	50.744447	0.000212	2.121464	0.718771	-0.016939
 806	4.0250e-01	7.8431	50.155614	0.001475	14.749225	4.997173	-0.117766
 807	4.0300e-01	7.8014	49.929761	0.000566	5.657237	1.916724	-0.045171
 808	4.0350e-01	7.7565	49.651477	0.000697	6.970524	2.361678	-0.055657
 809	4.0400e-01	7.7228	49.413524	0.000596	5.960303	2.019405	-0.047591
 810	4.0450e-01	7.6811	49.244134	0.000424	4.242928	1.437543	-0.033878
 811	4.0500e-01	7.6426	48.804526	0.001101	11.011408	3.730766	-0.087922
 812	4.0550e-01	7.5944	48.530275	0.000687	6.869502	2.327450	-0.054850
 813	4.0600e-01	7.5575	48.485911	0.000111	1.111243	0.376499	-0.008873
 814	4.0650e-01	7.5142	47.989840	0.001243	12.425717	4.209947	-0.099214
 815	4.0700e-01	7.4789	47.973708	0.000040	0.404088	0.136909	-0.003226
 816	4.0750e-01	7.4468	47.582497	0.000980	9.799143	3.320039	-0.078242
 817	4.0800e-01	7.4019	47.308247	0.000687	6.869502	2.327450	-0.054850
 818	4.0850e-01	7.3586	46.957367	0.000879	8.788922	2.977767	-0.070176
 819	4.0900e-01	7.3249	46.703282	0.000636	6.364392	2.156314	-0.050817
 820	4.0950e-01	7.2784	46.473395	0.000576	5.758259	1.950951	-0.045977
 821	4.1000e-01	7.2415	46.352402	0.000303	3.030663	1.026816	-0.024199
 822	4.1050e-01	7.1998	45.920861	0.001081	10.809364	3.662312	-0.086308
 823	4.1100e-01	7.1613	45.739371	0.000455	4.545994	1.540224	-0.036298
 824	4.1150e-01	7.1196	45.380425	0.000899	8.990966	3.046222	-0.071789
 825	4.1200e-01	7.0731	45.311863	0.000172	1.717376	0.581863	-0.013713
 826	4.1250e-01	7.0458	45.057778	0.000636	6.364392	2.156314	-0.050817
 827	4.1300e-01	7.0041	44.747229	0.000778	7.778701	2.635495	-0.062110
 828	4.1350e-01	6.9592	44.339886	0.001020	10.203231	3.456948	-0.081469
 829	4.1400e-01	6.9126	44.295522	0.000111	1.111243	0.376499	-0.008873
 830	4.1450e-01	6.8806	43.710723	0.001465	14.648203	4.962946	-0.116960
 831	4.1500e-01	6.8324	43.613928	0.000242	2.424530	0.821453	-0.019359
 832	4.1550e-01	6.7987	43.146089	0.001172	11.718563	3.970356	-0.093568
 833	4.1600e-01	6.7634	42.843606	0.000758	7.576657	2.567041	-0.060496
 834	4.1650e-01	6.7185	42.678249	0.000414	4.141906	1.403316	-0.033071
 835	4.1700e-01	6.6800	42.383833	0.000737	7.374613	2.498586	-0.058883
 836	4.1750e-01	6.6367	42.166046	0.000546	5.455193	1.848269	-0.043557
 837	4.1800e-01	6.6014	41.903894	0.000657	6.566436	2.224769	-0.052430
 838	4.1850e-01	6.5565	41.633677	0.000677	6.768480	2.293223	-0.054044
 839	4.1900e-01	6.5164	41.383625	0.000626	6.263370	2.122087	-0.050010
 840	4.1950e-01	6.4699	40.653634	0.001828	18.284999	6.195125	-0.145998
 841	4.2000e-01	6.4282	40.629435	0.000061	0.606133	0.205363	-0.004840
 842	4.2050e-01	6.4057	40.556840	0.000182	1.818398	0.616090	-0.014519
 843	4.2100e-01	6.3624	40.423747	0.000333	3.333729	1.129498	-0.026618
 844	4.2150e-01	6.3239	40.076901	0.000869	8.687900	2.943540	-0.069369
 845	4.2200e-01	6.2886	39.746187	0.000828	8.283811	2.806631	-0.066143
 846	4.2250e-01	6.2389	39.613094	0.000333	3.333729	1.129498	-0.026618
 847	4.2300e-01	6.1988	39.294480	0.000798	7.980745	2.703950	-0.063723
 848	4.2350e-01	6.1603	38.830673	0.001162	11.617540	3.936129	-0.092761
 849	4.2400e-01	6.1234	38.387032	0.001111	11.112430	3.764993	-0.088728
 850	4.2450e-01	6.0816	38.358801	0.000071	0.707155	0.239590	-0.005646
 851	4.2500e-01	6.0351	38.096649	0.000657	6.566436	2.224769	-0.052430
 852	4.2550e-01	5.9870	38.092616	0.000010	0.101022	0.034227	-0.000807
 853	4.2600e-01	5.9581	37.648975	0.001111	11.112430	3.764993	-0.088728
 854	4.2650e-01	5.9148	37.455387	0.000485	4.849060	1.642906	-0.038718
 855	4.2700e-01	5.8811	36.943183	0.001283	12.829806	4.346856	-0.102441
 856	4.2750e-01	5.8394	36.608436	0.000838	8.384834	2.840859	-0.066949
 857	4.2800e-01	5.8041	36.350318	0.000647	6.465414	2.190542	-0.051624
 858	4.2850e-01	5.7608	36.221259	0.000323	3.232707	1.095271	-0.025812
 859	4.2900e-01	5.7223	36.055902	0.000414	4.141906	1.403316	-0.033071
 860	4.2950e-01	5.6838	35.636459	0.001051	10.506297	3.559630	-0.083888
 861	4.3000e-01	5.6405	35.305745	0.000828	8.283811	2.806631	-0.066143
 862	4.3050e-01	5.6004	35.100057	0.000515	5.152127	1.745588	-0.041138
 863	4.3100e-01	5.5635	34.761277	0.000849	8.485856	2.875086	-0.067756
 864	4.3150e-01	5.5266	34.587854	0.000434	4.343950	1.471770	-0.034685
 865	4.3200e-01	5.4736	34.406364	0.000455	4.545994	1.540224	-0.036298
 866	4.3250e-01	5.4287	34.107915	0.000748	7.475635	2.532814	-0.059690
 867	4.3300e-01	5.4031	33.890128	0.000546	5.455193	1.848269	-0.043557
 868	4.3350e-01	5.3613	33.434387	0.001142	11.415496	3.867675	-0.091148
 869	4.3400e-01	5.3164	33.160137	0.000687	6.869502	2.327450	-0.054850
 870	4.3450e-01	5.2779	32.978647	0.000455	4.545994	1.540224	-0.036298
 871	4.3500e-01	5.2410	32.696330	0.000707	7.071546	2.395905	-0.056463
 872	4.3550e-01	5.1993	32.337385	0.000899	8.990966	3.046222	-0.071789
 873	4.3600e-01	5.1544	32.159928	0.000444	4.444972	1.505997	-0.035491
 874	4.3650e-01	5.1063	31.889711	0.000677	6.768480	2.293223	-0.054044
 875	4.3700e-01	5.0854	31.603361	0.000717	7.172568	2.430132	-0.057270
 876	4.3750e-01	5.0453	31.212150	0.000980	9.799143	3.320039	-0.078242
 877	4.3800e-01	4.9972	30.941932	0.000677	6.768480	2.293223	-0.054044
 878	4.3850e-01	4.9619	30.716079	0.000566	5.657237	1.916724	-0.045171
 879	4.3900e-01	4.9186	30.562821	0.000384	3.838839	1.300634	-0.030652
 880	4.3950e-01	4.8865	30.074816	0.001222	12.223673	4.141493	-0.097601
 881	4.4000e-01	4.8416	30.034485	0.000101	1.010221	0.342272	-0.008066
 882	4.4050e-01	4.8063	29.643275	0.000980	9.799143	3.320039	-0.078242
 883	4.4100e-01	4.7598	29.340792	0.000758	7.576657	2.567041	-0.060496
 884	4.4150e-01	4.7164	29.207700	0.000333	3.333729	1.129498	-0.026618
 885	4.4200e-01	4.6812	28.776159	0.001081	10.809364	3.662312	-0.086308
 886	4.4250e-01	4.6362	28.187326	0.001475	14.749225	4.997173	-0.117766
 887	4.4300e-01	4.6041	27.997770	0.000475	4.748038	1.608679	-0.037911
 888	4.4350e-01	4.5608	27.832413	0.000414	4.141906	1.403316	-0.033071
 889	4.4400e-01	4.5239	27.900976	-0.000172	-1.717376	-0.581863	0.013713
 890	4.4450e-01	4.4854	27.598494	0.000758	7.576657	2.567041	-0.060496
 891	4.4500e-01	4.4405	27.255680	0.000859	8.586878	2.909313	-0.068563
 892	4.4550e-01	4.3988	26.719278	0.001344	13.435938	4.552219	-0.107280
 893	4.4600e-01	4.3587	26.372432	0.000869	8.687900	2.943540	-0.069369
 894	4.4650e-01	4.3154	26.190942	0.000455	4.545994	1.540224	-0.036298
 895	4.4700e-01	4.2673	26.021552	0.000424	4.242928	1.437543	-0.033878
 896	4.4750e-01	4.2480	25.799732	0.000556	5.556215	1.882497	-0.044364
 897	4.4800e-01	4.2031	25.719070	0.000202	2.020442	0.684544	-0.016132
 898	4.4850e-01	4.1566	25.291561	0.001071	10.708342	3.628084	-0.085502
 899	4.4900e-01	4.1165	24.940682	0.000879	8.788922	2.977767	-0.070176
 900	4.4950e-01	4.0780	24.553504	0.000970	9.698121	3.285812	-0.077435
 901	4.5000e-01	4.0346	24.234890	0.000798	7.980745	2.703950	-0.063723
 902	4.5050e-01	3.9977	24.182459	0.000131	1.313287	0.444954	-0.010486
 903	4.5100e-01	3.9641	23.775116	0.001020	10.203231	3.456948	-0.081469
 904	4.5150e-01	3.9223	23.484733	0.000727	7.273591	2.464359	-0.058077
 905	4.5200e-01	3.8887	23.041092	0.001111	11.112430	3.764993	-0.088728
 906	4.5250e-01	3.8421	22.968497	0.000182	1.818398	0.616090	-0.014519
 907	4.5300e-01	3.8068	22.484525	0.001212	12.122651	4.107265	-0.096794
 908	4.5350e-01	3.7491	22.347399	0.000343	3.434751	1.163725	-0.027425
 909	4.5400e-01	3.7138	22.153811	0.000485	4.849060	1.642906	-0.038718
 910	4.5450e-01	3.6833	21.819063	0.000838	8.384834	2.840859	-0.066949
 911	4.5500e-01	3.6432	21.448018	0.000929	9.294032	3.148903	-0.074209
 912	4.5550e-01	3.6047	21.181834	0.000667	6.667458	2.258996	-0.053237
 913	4.5600e-01	3.5646	20.798689	0.000960	9.597099	3.251585	-0.076629
 914	4.5650e-01	3.5149	20.681730	0.000293	2.929641	0.992589	-0.023392
 915	4.5700e-01	3.4812	20.633332	0.000121	1.212265	0.410727	-0.009679
 916	4.5750e-01	3.4459	20.113063	0.001303	13.031850	4.415310	-0.104054
 917	4.5800e-01	3.4010	19.858978	0.000636	6.364392	2.156314	-0.050817
 918	4.5850e-01	3.3609	19.600859	0.000647	6.465414	2.190542	-0.051624
 919	4.5900e-01	3.3143	19.233847	0.000919	9.193010	3.114676	-0.073402
 920	4.5950e-01	3.2710	19.096722	0.000343	3.434751	1.163725	-0.027425
 921	4.6000e-01	3.2389	18.479658	0.001546	15.456380	5.236763	-0.123413
 922	4.6050e-01	3.2020	18.193308	0.000717	7.172568	2.430132	-0.057270
 923	4.6100e-01	3.1668	18.193308	-0.000000	-0.000000	-0.000000	0.000000
 924	4.6150e-01	3.1154	18.052149	0.000354	3.535773	1.197952	-0.028232
 925	4.6200e-01	3.0849	17.785965	0.000667	6.667458	2.258996	-0.053237
 926	4.6250e-01	3.0400	17.257629	0.001323	13.233894	4.483765	-0.105667
 927	4.6300e-01	2.9919	17.164868	0.000232	2.323508	0.787226	-0.018552
 928	4.6350e-01	2.9550	16.818021	0.000869	8.687900	2.943540	-0.069369
 929	4.6400e-01	2.9197	16.386480	0.001081	10.809364	3.662312	-0.086308
 930	4.6450e-01	2.8764	16.261454	0.000313	3.131685	1.061044	-0.025005
 931	4.6500e-01	2.8379	15.813780	0.001121	11.213452	3.799220	-0.089535
 932	4.6550e-01	2.7946	15.547595	0.000667	6.667458	2.258996	-0.053237
 933	4.6600e-01	2.7673	15.103954	0.001111	11.112430	3.764993	-0.088728
 934	4.6650e-01	2.7192	14.954730	0.000374	3.737817	1.266407	-0.029845
 935	4.6700e-01	2.6775	14.878101	0.000192	1.919420	0.650317	-0.015326
 936	4.6750e-01	2.6422	14.619982	0.000647	6.465414	2.190542	-0.051624
 937	4.6800e-01	2.6005	14.539320	0.000202	2.020442	0.684544	-0.016132
 938	4.6850e-01	2.5652	13.877892	0.001657	16.567623	5.613263	-0.132286
 939	4.6900e-01	2.5138	13.660105	0.000546	5.455193	1.848269	-0.043557
 940	4.6950e-01	2.4801	13.289060	0.000929	9.294032	3.148903	-0.074209
 941	4.7000e-01	2.4400	12.994644	0.000737	7.374613	2.498586	-0.058883
 942	4.7050e-01	2.4031	12.635698	0.000899	8.990966	3.046222	-0.071789
 943	4.7100e-01	2.3582	12.353381	0.000707	7.071546	2.395905	-0.056463
 944	4.7150e-01	2.3149	12.071064	0.000707	7.071546	2.395905	-0.056463
 945	4.7200e-01	2.2780	11.958137	0.000283	2.828619	0.958362	-0.022585
 946	4.7250e-01	2.2395	11.683887	0.000687	6.869502	2.327450	-0.054850
 947	4.7300e-01	2.1978	11.333007	0.000879	8.788922	2.977767	-0.070176
 948	4.7350e-01	2.1609	10.965995	0.000919	9.193010	3.114676	-0.073402
 949	4.7400e-01	2.1320	10.744175	0.000556	5.556215	1.882497	-0.044364
 950	4.7450e-01	2.0855	10.494123	0.000626	6.263370	2.122087	-0.050010
 951	4.7500e-01	2.0342	10.268269	0.000566	5.657237	1.916724	-0.045171
 952	4.7550e-01	1.9973	10.082747	0.000465	4.647016	1.574452	-0.037105
 953	4.7600e-01	1.9588	9.747999	0.000838	8.384834	2.840859	-0.066949
 954	4.7650e-01	1.9187	9.453583	0.000737	7.374613	2.498586	-0.058883
 955	4.7700e-01	1.8705	9.255961	0.000495	4.950082	1.677133	-0.039524
 956	4.7750e-01	1.8417	8.796188	0.001152	11.516518	3.901902	-0.091955
 957	4.7800e-01	1.7951	8.417077	0.000950	9.496077	3.217358	-0.075822
 958	4.7850e-01	1.7534	8.288018	0.000323	3.232707	1.095271	-0.025812
 959	4.7900e-01	1.7229	7.912939	0.000940	9.395054	3.183131	-0.075016
 960	4.7950e-01	1.6877	7.767748	0.000364	3.636795	1.232180	-0.029038
 961	4.8000e-01	1.6427	7.219246	0.001374	13.739004	4.654901	-0.109700
 962	4.8050e-01	1.5914	7.158750	0.000152	1.515331	0.513408	-0.012099
 963	4.8100e-01	1.5609	6.920797	0.000596	5.960303	2.019405	-0.047591
 964	4.8150e-01	1.5192	6.614282	0.000768	7.677679	2.601268	-0.061303
 965	4.8200e-01	1.4727	6.202906	0.001030	10.304253	3.491176	-0.082275
 966	4.8250e-01	1.4454	5.815728	0.000970	9.698121	3.285812	-0.077435
 967	4.8300e-01	1.3957	5.670537	0.000364	3.636795	1.232180	-0.029038
 968	4.8350e-01	1.3556	5.364021	0.000768	7.677679	2.601268	-0.061303
 969	4.8400e-01	1.3171	4.924413	0.001101	11.011408	3.730766	-0.087922
 970	4.8450e-01	1.2754	4.775189	0.000374	3.737817	1.266407	-0.029845
 971	4.8500e-01	1.2353	4.460607	0.000788	7.879723	2.669722	-0.062916
 972	4.8550e-01	1.1984	4.388011	0.000182	1.818398	0.616090	-0.014519
 973	4.8600e-01	1.1583	3.984701	0.001010	10.102209	3.422721	-0.080662
 974	4.8650e-01	1.1198	3.682219	0.000758	7.576657	2.567041	-0.060496
 975	4.8700e-01	1.0796	3.416035	0.000667	6.667458	2.258996	-0.053237
 976	4.8750e-01	1.0331	2.972394	0.001111	11.112430	3.764993	-0.088728
 977	4.8800e-01	0.9978	2.786871	0.000465	4.647016	1.574452	-0.037105
 978	4.8850e-01	0.9577	2.686044	0.000253	2.525552	0.855680	-0.020165
 979	4.8900e-01	0.9240	2.363396	0.000808	8.081767	2.738177	-0.064530
 980	4.8950e-01	0.8871	2.282734	0.000202	2.020442	0.684544	-0.016132
 981	4.9000e-01	0.8358	1.742299	0.001354	13.536960	4.586446	-0.108087
 982	4.9050e-01	0.7973	1.613239	0.000323	3.232707	1.095271	-0.025812
 983	4.9100e-01	0.7588	1.258327	0.000889	8.889944	3.011995	-0.070983
 984	4.9150e-01	0.7155	0.899381	0.000899	8.990966	3.046222	-0.071789
 985	4.9200e-01	0.6818	0.540435	0.000899	8.990966	3.046222	-0.071789
 986	4.9250e-01	0.6401	0.205688	0.000838	8.384834	2.840859	-0.066949
 987	4.9300e-01	0.5984	-0.278284	0.001212	12.122651	4.107265	-0.096794
 988	4.9350e-01	0.5631	-0.391211	0.000283	2.828619	0.958362	-0.022585
 989	4.9400e-01	0.5150	-0.504137	0.000283	2.828619	0.958362	-0.022585
 990	4.9450e-01	0.4732	-0.790487	0.000717	7.172568	2.430132	-0.057270
 991	4.9500e-01	0.4267	-1.076837	0.000717	7.172568	2.430132	-0.057270
 992	4.9550e-01	0.3914	-1.318823	0.000606	6.061325	2.053633	-0.048397
 993	4.9600e-01	0.3610	-1.609206	0.000727	7.273591	2.464359	-0.058077
 994	4.9650e-01	0.3273	-1.956053	0.000869	8.687900	2.943540	-0.069369
 995	4.9700e-01	0.2759	-2.270635	0.000788	7.879723	2.669722	-0.062916
 996	4.9750e-01	0.2438	-2.500521	0.000576	5.758259	1.950951	-0.045977
 997	4.9800e-01	0.1893	-2.891732	0.000980	9.799143	3.320039	-0.078242
 998	4.9850e-01	0.1620	-3.238578	0.000869	8.687900	2.943540	-0.069369
 999	4.9900e-01	0.1139	-3.476531	0.000596	5.960303	2.019405	-0.047591
1000	4.9950e-01	0.0802	-3.730616	0.000636	6.364392	2.156314	-0.050817
1001	5.0000e-01	0.0369	-4.166191	0.001091	10.910386	3.696539	-0.087115
1002	5.0050e-01	0.0032	-4.250886	0.000212	2.121464	0.718771	-0.016939
1003	5.0100e-01	-0.0401	-4.412210	0.000404	4.040884	1.369088	-0.032265
1004	5.0150e-01	-0.0818	-4.984910	0.001435	14.345137	4.860264	-0.114540
1005	5.0200e-01	-0.1187	-5.025241	0.000101	1.010221	0.342272	-0.008066
1006	5.0250e-01	-0.1588	-5.283359	0.000647	6.465414	2.190542	-0.051624
1007	5.0300e-01	-0.1877	-5.533411	0.000626	6.263370	2.122087	-0.050010
1008	5.0350e-01	-0.2358	-5.920589	0.000970	9.698121	3.285812	-0.077435
1009	5.0400e-01	-0.2711	-6.291634	0.000929	9.294032	3.148903	-0.074209
1010	5.0450e-01	-0.3032	-6.638480	0.000869	8.687900	2.943540	-0.069369
1011	5.0500e-01	-0.3561	-6.791738	0.000384	3.838839	1.300634	-0.030652
1012	5.0550e-01	-0.3995	-7.005492	0.000535	5.354171	1.814042	-0.042751
1013	5.0600e-01	-0.4315	-7.291842	0.000717	7.172568	2.430132	-0.057270
1014	5.0650e-01	-0.4829	-7.566093	0.000687	6.869502	2.327450	-0.054850
1015	5.0700e-01	-0.5101	-7.908906	0.000859	8.586878	2.909313	-0.068563
1016	5.0750e-01	-0.5583	-8.203323	0.000737	7.374613	2.498586	-0.058883
1017	5.0800e-01	-0.6016	-8.380779	0.000444	4.444972	1.505997	-0.035491
1018	5.0850e-01	-0.6353	-8.562268	0.000455	4.545994	1.540224	-0.036298
1019	5.0900e-01	-0.6770	-8.941380	0.000950	9.496077	3.217358	-0.075822
1020	5.0950e-01	-0.7107	-9.288226	0.000869	8.687900	2.943540	-0.069369
1021	5.1000e-01	-0.7588	-9.409219	0.000303	3.030663	1.026816	-0.024199
1022	5.1050e-01	-0.7957	-9.961754	0.001384	13.840027	4.689128	-0.110507
1023	5.1100e-01	-0.8310	-10.187607	0.000566	5.657237	1.916724	-0.045171
1024	5.1150e-01	-0.8727	-10.465891	0.000697	6.970524	2.361678	-0.055657
1025	5.1200e-01	-0.9160	-10.683678	0.000546	5.455193	1.848269	-0.043557
1026	5.1250e-01	-0.9497	-11.203948	0.001303	13.031850	4.415310	-0.104054
1027	5.1300e-01	-0.9946	-11.292676	0.000222	2.222486	0.752999	-0.017746
1028	5.1350e-01	-1.0347	-11.627423	0.000838	8.384834	2.840859	-0.066949
1029	5.1400e-01	-1.0764	-11.768582	0.000354	3.535773	1.197952	-0.028232
1030	5.1450e-01	-1.1198	-12.188024	0.001051	10.506297	3.559630	-0.083888
1031	5.1500e-01	-1.1534	-12.337249	0.000374	3.737817	1.266407	-0.029845
1032	5.1550e-01	-1.1984	-12.643764	0.000768	7.677679	2.601268	-0.061303
1033	5.1600e-01	-1.2385	-13.006743	0.000909	9.091988	3.080449	-0.072596
1034	5.1650e-01	-1.2609	-13.248729	0.000606	6.061325	2.053633	-0.048397
1035	5.1700e-01	-1.3123	-13.401987	0.000384	3.838839	1.300634	-0.030652
1036	5.1750e-01	-1.3540	-13.543145	0.000354	3.535773	1.197952	-0.028232
1037	5.1800e-01	-1.3925	-13.950488	0.001020	10.203231	3.456948	-0.081469
1038	5.1850e-01	-1.4406	-14.220706	0.000677	6.768480	2.293223	-0.054044
1039	5.1900e-01	-1.4727	-14.462692	0.000606	6.061325	2.053633	-0.048397
1040	5.1950e-01	-1.5144	-14.861968	0.001000	10.001187	3.388494	-0.079855
1041	5.2000e-01	-1.5561	-15.257212	0.000990	9.900165	3.354267	-0.079049
1042	5.2050e-01	-1.5866	-15.378205	0.000303	3.030663	1.026816	-0.024199
1043	5.2100e-01	-1.6395	-15.729085	0.000879	8.788922	2.977767	-0.070176
1044	5.2150e-01	-1.6780	-16.015435	0.000717	7.172568	2.430132	-0.057270
1045	5.2200e-01	-1.7149	-16.100130	0.000212	2.121464	0.718771	-0.016939
1046	5.2250e-01	-1.7598	-16.475208	0.000940	9.395054	3.183131	-0.075016
1047	5.2300e-01	-1.7951	-16.822054	0.000869	8.687900	2.943540	-0.069369
1048	5.2350e-01	-1.8304	-17.124537	0.000758	7.576657	2.567041	-0.060496
1049	5.2400e-01	-1.8770	-17.600442	0.001192	11.920607	4.038811	-0.095181
1050	5.2450e-01	-1.9171	-17.664972	0.000162	1.616353	0.547635	-0.012906
1051	5.2500e-01	-1.9524	-17.939223	0.000687	6.869502	2.327450	-0.054850
1052	5.2550e-01	-1.9941	-18.185242	0.000616	6.162348	2.087860	-0.049204
1053	5.2600e-01	-2.0326	-18.657114	0.001182	11.819585	4.004584	-0.094375
1054	5.2650e-01	-2.0743	-18.939431	0.000707	7.071546	2.395905	-0.056463
1055	5.2700e-01	-2.1112	-19.128987	0.000475	4.748038	1.608679	-0.037911
1056	5.2750e-01	-2.1609	-19.358873	0.000576	5.758259	1.950951	-0.045977
1057	5.2800e-01	-2.1930	-19.669422	0.000778	7.778701	2.635495	-0.062110
1058	5.2850e-01	-2.2267	-19.810580	0.000354	3.535773	1.197952	-0.028232
1059	5.2900e-01	-2.2716	-20.165493	0.000889	8.889944	3.011995	-0.070983
1060	5.2950e-01	-2.3053	-20.597035	0.001081	10.809364	3.662312	-0.086308
1061	5.3000e-01	-2.3614	-20.746259	0.000374	3.737817	1.266407	-0.029845
1062	5.3050e-01	-2.3967	-20.984212	0.000596	5.960303	2.019405	-0.047591
1063	5.3100e-01	-2.4352	-21.222165	0.000596	5.960303	2.019405	-0.047591
1064	5.3150e-01	-2.4753	-21.585144	0.000909	9.091988	3.080449	-0.072596
1065	5.3200e-01	-2.5186	-21.669839	0.000212	2.121464	0.718771	-0.016939
1066	5.3250e-01	-2.5588	-21.992487	0.000808	8.081767	2.738177	-0.064530
1067	5.3300e-01	-2.5892	-22.395797	0.001010	10.102209	3.422721	-0.080662
1068	5.3350e-01	-2.6229	-22.956397	0.001404	14.042071	4.757582	-0.112120
1069	5.3400e-01	-2.6694	-22.851537	-0.000263	-2.626574	-0.889907	0.020972
1070	5.3450e-01	-2.7128	-23.166118	0.000788	7.879723	2.669722	-0.062916
1071	5.3500e-01	-2.7513	-23.666223	0.001253	12.526739	4.244174	-0.100021
1072	5.3550e-01	-2.8026	-23.827547	0.000404	4.040884	1.369088	-0.032265
1073	5.3600e-01	-2.8331	-23.819480	-0.000020	-0.202044	-0.068454	0.001613
1074	5.3650e-01	-2.8812	-24.238923	0.001051	10.506297	3.559630	-0.083888
1075	5.3700e-01	-2.9117	-24.549471	0.000778	7.778701	2.635495	-0.062110
1076	5.3750e-01	-2.9534	-24.722894	0.000434	4.343950	1.471770	-0.034685
1077	5.3800e-01	-2.9855	-24.904384	0.000455	4.545994	1.540224	-0.036298
1078	5.3850e-01	-3.0320	-25.408521	0.001263	12.627761	4.278401	-0.100827
1079	5.3900e-01	-3.0817	-25.638408	0.000576	5.758259	1.950951	-0.045977
1080	5.3950e-01	-3.1138	-25.896526	0.000647	6.465414	2.190542	-0.051624
1081	5.4000e-01	-3.1475	-26.186909	0.000727	7.273591	2.464359	-0.058077
1082	5.4050e-01	-3.1940	-26.662815	0.001192	11.920607	4.038811	-0.095181
1083	5.4100e-01	-3.2341	-26.856404	0.000485	4.849060	1.642906	-0.038718
1084	5.4150e-01	-3.2758	-26.896735	0.000101	1.010221	0.342272	-0.008066
1085	5.4200e-01	-3.3159	-27.336342	0.001101	11.011408	3.730766	-0.087922
1086	5.4250e-01	-3.3480	-27.606560	0.000677	6.768480	2.293223	-0.054044
1087	5.4300e-01	-3.3946	-27.900976	0.000737	7.374613	2.498586	-0.058883
1088	5.4350e-01	-3.4282	-28.159094	0.000647	6.465414	2.190542	-0.051624
1089	5.4400e-01	-3.4684	-28.312352	0.000384	3.838839	1.300634	-0.030652
1090	5.4450e-01	-3.5197	-28.453511	0.000354	3.535773	1.197952	-0.028232
1091	5.4500e-01	-3.5534	-28.957648	0.001263	12.627761	4.278401	-0.100827
1092	5.4550e-01	-3.5919	-29.143171	0.000465	4.647016	1.574452	-0.037105
1093	5.4600e-01	-3.6416	-29.401289	0.000647	6.465414	2.190542	-0.051624
1094	5.4650e-01	-3.6769	-29.913492	0.001283	12.829806	4.346856	-0.102441
1095	5.4700e-01	-3.7250	-30.014320	0.000253	2.525552	0.855680	-0.020165
1096	5.4750e-01	-3.7667	-30.115147	0.000253	2.525552	0.855680	-0.020165
1097	5.4800e-01	-3.7972	-30.433762	0.000798	7.980745	2.703950	-0.063723
1098	5.4850e-01	-3.8261	-30.780609	0.000869	8.687900	2.943540	-0.069369
1099	5.4900e-01	-3.8710	-31.070992	0.000727	7.273591	2.464359	-0.058077
1100	5.4950e-01	-3.9175	-31.498500	0.001071	10.708342	3.628084	-0.085502
1101	5.5000e-01	-3.9641	-31.587228	0.000222	2.222486	0.752999	-0.017746
1102	5.5050e-01	-3.9913	-31.881644	0.000737	7.374613	2.498586	-0.058883
1103	5.5100e-01	-4.0330	-32.030869	0.000374	3.737817	1.266407	-0.029845
1104	5.5150e-01	-4.0764	-32.357550	0.000818	8.182789	2.772404	-0.065336
1105	5.5200e-01	-4.1197	-32.627768	0.000677	6.768480	2.293223	-0.054044
1106	5.5250e-01	-4.1518	-33.180302	0.001384	13.840027	4.689128	-0.110507
1107	5.5300e-01	-4.2063	-33.014945	-0.000414	-4.141906	-1.403316	0.033071
1108	5.5350e-01	-4.2320	-33.333560	0.000798	7.980745	2.703950	-0.063723
1109	5.5400e-01	-4.2721	-33.607811	0.000687	6.869502	2.327450	-0.054850
1110	5.5450e-01	-4.3202	-34.091782	0.001212	12.122651	4.107265	-0.096794
1111	5.5500e-01	-4.3635	-34.204709	0.000283	2.828619	0.958362	-0.022585
1112	5.5550e-01	-4.3988	-34.579787	0.000940	9.395054	3.183131	-0.075016
1113	5.5600e-01	-4.4405	-34.898402	0.000798	7.980745	2.703950	-0.063723
1114	5.5650e-01	-4.4838	-35.176686	0.000697	6.970524	2.361678	-0.055657
1115	5.5700e-01	-4.5175	-35.160554	-0.000040	-0.404088	-0.136909	0.003226
1116	5.5750e-01	-4.5528	-35.656625	0.001243	12.425717	4.209947	-0.099214
1117	5.5800e-01	-4.6025	-35.902644	0.000616	6.162348	2.087860	-0.049204
1118	5.5850e-01	-4.6346	-36.152696	0.000626	6.263370	2.122087	-0.050010
1119	5.5900e-01	-4.6747	-36.426947	0.000687	6.869502	2.327450	-0.054850
1120	5.5950e-01	-4.7293	-36.773793	0.000869	8.687900	2.943540	-0.069369
1121	5.6000e-01	-4.7517	-36.906885	0.000333	3.333729	1.129498	-0.026618
1122	5.6050e-01	-4.8079	-37.039978	0.000333	3.333729	1.129498	-0.026618
1123	5.6100e-01	-4.8400	-37.515883	0.001192	11.920607	4.038811	-0.095181
1124	5.6150e-01	-4.8865	-37.745770	0.000576	5.758259	1.950951	-0.045977
1125	5.6200e-01	-4.9154	-38.092616	0.000869	8.687900	2.943540	-0.069369
1126	5.6250e-01	-4.9571	-38.310404	0.000546	5.455193	1.848269	-0.043557
1127	5.6300e-01	-4.9956	-38.645151	0.000838	8.384834	2.840859	-0.066949
1128	5.6350e-01	-5.0469	-38.871004	0.000566	5.657237	1.916724	-0.045171
1129	5.6400e-01	-5.0710	-39.242049	0.000929	9.294032	3.148903	-0.074209
1130	5.6450e-01	-5.1159	-39.350943	0.000273	2.727596	0.924135	-0.021779
1131	5.6500e-01	-5.1560	-39.536466	0.000465	4.647016	1.574452	-0.037105
1132	5.6550e-01	-5.2057	-39.887345	0.000879	8.788922	2.977767	-0.070176
1133	5.6600e-01	-5.2394	-39.980106	0.000232	2.323508	0.787226	-0.018552
1134	5.6650e-01	-5.2667	-40.258390	0.000697	6.970524	2.361678	-0.055657
1135	5.6700e-01	-5.3196	-40.552806	0.000737	7.374613	2.498586	-0.058883
1136	5.6750e-01	-5.3597	-40.814958	0.000657	6.566436	2.224769	-0.052430
1137	5.6800e-01	-5.3998	-41.210202	0.000990	9.900165	3.354267	-0.079049
1138	5.6850e-01	-5.4351	-41.488485	0.000697	6.970524	2.361678	-0.055657
1139	5.6900e-01	-5.4817	-41.653842	0.000414	4.141906	1.403316	-0.033071
1140	5.6950e-01	-5.5121	-41.778868	0.000313	3.131685	1.061044	-0.025005
1141	5.7000e-01	-5.5619	-42.049086	0.000677	6.768480	2.293223	-0.054044
1142	5.7050e-01	-5.5940	-42.383833	0.000838	8.384834	2.840859	-0.066949
1143	5.7100e-01	-5.6389	-42.803275	0.001051	10.506297	3.559630	-0.083888
1144	5.7150e-01	-5.6710	-42.984765	0.000455	4.545994	1.540224	-0.036298
1145	5.7200e-01	-5.7143	-43.396141	0.001030	10.304253	3.491176	-0.082275
1146	5.7250e-01	-5.7432	-43.428406	0.000081	0.808177	0.273818	-0.006453
1147	5.7300e-01	-5.7913	-43.799451	0.000929	9.294032	3.148903	-0.074209
1148	5.7350e-01	-5.8378	-44.194694	0.000990	9.900165	3.354267	-0.079049
1149	5.7400e-01	-5.8763	-44.279390	0.000212	2.121464	0.718771	-0.016939
1150	5.7450e-01	-5.9116	-44.666567	0.000970	9.698121	3.285812	-0.077435
1151	5.7500e-01	-5.9549	-45.009380	0.000859	8.586878	2.909313	-0.068563
1152	5.7550e-01	-5.9998	-45.033579	0.000061	0.606133	0.205363	-0.004840
1153	5.7600e-01	-6.0399	-45.360260	0.000818	8.182789	2.772404	-0.065336
1154	5.7650e-01	-6.0800	-45.327995	-0.000081	-0.808177	-0.273818	0.006453
1155	5.7700e-01	-6.1201	-45.723239	0.000990	9.900165	3.354267	-0.079049
1156	5.7750e-01	-6.1651	-46.074118	0.000879	8.788922	2.977767	-0.070176
1157	5.7800e-01	-6.2036	-46.352402	0.000697	6.970524	2.361678	-0.055657
1158	5.7850e-01	-6.2340	-46.513726	0.000404	4.040884	1.369088	-0.032265
1159	5.7900e-01	-6.2613	-46.792010	0.000697	6.970524	2.361678	-0.055657
1160	5.7950e-01	-6.3207	-47.005764	0.000535	5.354171	1.814042	-0.042751
1161	5.8000e-01	-6.3528	-47.316313	0.000778	7.778701	2.635495	-0.062110
1162	5.8050e-01	-6.3929	-47.578464	0.000657	6.566436	2.224769	-0.052430
1163	5.8100e-01	-6.4362	-48.106800	0.001323	13.233894	4.483765	-0.105667
1164	5.8150e-01	-6.4731	-48.264091	0.000394	3.939862	1.334861	-0.031458
1165	5.8200e-01	-6.5052	-48.453647	0.000475	4.748038	1.608679	-0.037911
1166	5.8250e-01	-6.5517	-48.703699	0.000626	6.263370	2.122087	-0.050010
1167	5.8300e-01	-6.6014	-48.804526	0.000253	2.525552	0.855680	-0.020165
1168	5.8350e-01	-6.6271	-49.127174	0.000808	8.081767	2.738177	-0.064530
1169	5.8400e-01	-6.6752	-49.361094	0.000586	5.859281	1.985178	-0.046784
1170	5.8450e-01	-6.7153	-49.534517	0.000434	4.343950	1.471770	-0.034685
1171	5.8500e-01	-6.7667	-49.752304	0.000546	5.455193	1.848269	-0.043557
1172	5.8550e-01	-6.7923	-50.111250	0.000899	8.990966	3.046222	-0.071789
1173	5.8600e-01	-6.8228	-50.333071	0.000556	5.556215	1.882497	-0.044364
1174	5.8650e-01	-6.8677	-50.720248	0.000970	9.698121	3.285812	-0.077435
1175	5.8700e-01	-6.9223	-51.063061	0.000859	8.586878	2.909313	-0.068563
1176	5.8750e-01	-6.9543	-51.325213	0.000657	6.566436	2.224769	-0.052430
1177	5.8800e-01	-6.9961	-51.405875	0.000202	2.020442	0.684544	-0.016132
1178	5.8850e-01	-7.0330	-51.478471	0.000182	1.818398	0.616090	-0.014519
1179	5.8900e-01	-7.0731	-51.639795	0.000404	4.040884	1.369088	-0.032265
1180	5.8950e-01	-7.1148	-52.139899	0.001253	12.526739	4.244174	-0.100021
1181	5.9000e-01	-7.1549	-52.357686	0.000546	5.455193	1.848269	-0.043557
1182	5.9050e-01	-7.1998	-52.631937	0.000687	6.869502	2.327450	-0.054850
1183	5.9100e-01	-7.2415	-52.849724	0.000546	5.455193	1.848269	-0.043557
1184	5.9150e-01	-7.2720	-53.119942	0.000677	6.768480	2.293223	-0.054044
1185	5.9200e-01	-7.3185	-53.297398	0.000444	4.444972	1.505997	-0.035491
1186	5.9250e-01	-7.3522	-53.559549	0.000657	6.566436	2.224769	-0.052430
1187	5.9300e-01	-7.3987	-53.753138	0.000485	4.849060	1.642906	-0.038718
1188	5.9350e-01	-7.4292	-54.059654	0.000768	7.677679	2.601268	-0.061303
1189	5.9400e-01	-7.4661	-54.660585	0.001505	15.052292	5.099854	-0.120186
1190	5.9450e-01	-7.5158	-54.854174	0.000485	4.849060	1.642906	-0.038718
1191	5.9500e-01	-7.5463	-54.995333	0.000354	3.535773	1.197952	-0.028232
1192	5.9550e-01	-7.5960	-55.168756	0.000434	4.343950	1.471770	-0.034685
1193	5.9600e-01	-7.6297	-55.382510	0.000535	5.354171	1.814042	-0.042751
1194	5.9650e-01	-7.6666	-55.705158	0.000808	8.081767	2.738177	-0.064530
1195	5.9700e-01	-7.7244	-56.132666	0.001071	10.708342	3.628084	-0.085502
1196	5.9750e-01	-7.7517	-56.128633	-0.000010	-0.101022	-0.034227	0.000807
1197	5.9800e-01	-7.7998	-56.427083	0.000748	7.475635	2.532814	-0.059690
1198	5.9850e-01	-7.8319	-56.519844	0.000232	2.323508	0.787226	-0.018552
1199	5.9900e-01	-7.8704	-56.717466	0.000495	4.950082	1.677133	-0.039524
1200	5.9950e-01	-7.9105	-57.217570	0.001253	12.526739	4.244174	-0.100021
1201	6.0000e-01	-7.9586	-57.253868	0.000091	0.909199	0.308045	-0.007260
1202	6.0050e-01	-7.9875	-57.649111	0.000990	9.900165	3.354267	-0.079049
1203	6.0100e-01	-8.0436	-57.753972	0.000263	2.626574	0.889907	-0.020972
1204	6.0150e-01	-8.0741	-58.125017	0.000929	9.294032	3.148903	-0.074209
1205	6.0200e-01	-8.1206	-58.512195	0.000970	9.698121	3.285812	-0.077435
1206	6.0250e-01	-8.1559	-58.629154	0.000293	2.929641	0.992589	-0.023392
1207	6.0300e-01	-8.1912	-58.875173	0.000616	6.162348	2.087860	-0.049204
1208	6.0350e-01	-8.2329	-58.951802	0.000192	1.919420	0.650317	-0.015326
1209	6.0400e-01	-8.2666	-59.298649	0.000869	8.687900	2.943540	-0.069369
1210	6.0450e-01	-8.3163	-59.669694	0.000929	9.294032	3.148903	-0.074209
1211	6.0500e-01	-8.3564	-59.770521	0.000253	2.525552	0.855680	-0.020165
1212	6.0550e-01	-8.3998	-59.859249	0.000222	2.222486	0.752999	-0.017746
1213	6.0600e-01	-8.4286	-60.335155	0.001192	11.920607	4.038811	-0.095181
1214	6.0650e-01	-8.4623	-60.415817	0.000202	2.020442	0.684544	-0.016132
1215	6.0700e-01	-8.5217	-60.807028	0.000980	9.799143	3.320039	-0.078242
1216	6.0750e-01	-8.5554	-60.932054	0.000313	3.131685	1.061044	-0.025005
1217	6.0800e-01	-8.5923	-61.129676	0.000495	4.950082	1.677133	-0.039524
1218	6.0850e-01	-8.6324	-61.444257	0.000788	7.879723	2.669722	-0.062916
1219	6.0900e-01	-8.6757	-61.730607	0.000717	7.172568	2.430132	-0.057270
1220	6.0950e-01	-8.7142	-62.093586	0.000909	9.091988	3.080449	-0.072596
1221	6.1000e-01	-8.7479	-62.319440	0.000566	5.657237	1.916724	-0.045171
1222	6.1050e-01	-8.7816	-62.654187	0.000838	8.384834	2.840859	-0.066949
1223	6.1100e-01	-8.8409	-62.791312	0.000343	3.434751	1.163725	-0.027425
1224	6.1150e-01	-8.8794	-63.033298	0.000606	6.061325	2.053633	-0.048397
1225	6.1200e-01	-8.9195	-63.226887	0.000485	4.849060	1.642906	-0.038718
1226	6.1250e-01	-8.9468	-63.404343	0.000444	4.444972	1.505997	-0.035491
1227	6.1300e-01	-9.0046	-63.795554	0.000980	9.799143	3.320039	-0.078242
1228	6.1350e-01	-9.0318	-63.751190	-0.000111	-1.111243	-0.376499	0.008873
1229	6.1400e-01	-9.0784	-64.065771	0.000788	7.879723	2.669722	-0.062916
1230	6.1450e-01	-9.1120	-64.255327	0.000475	4.748038	1.608679	-0.037911
1231	6.1500e-01	-9.1602	-64.529578	0.000687	6.869502	2.327450	-0.054850
1232	6.1550e-01	-9.1906	-64.803828	0.000687	6.869502	2.327450	-0.054850
1233	6.1600e-01	-9.2292	-65.146642	0.000859	8.586878	2.909313	-0.068563
1234	6.1650e-01	-9.2805	-65.195039	0.000121	1.212265	0.410727	-0.009679
1235	6.1700e-01	-9.3078	-65.340230	0.000364	3.636795	1.232180	-0.029038
1236	6.1750e-01	-9.3511	-65.816136	0.001192	11.920607	4.038811	-0.095181
1237	6.1800e-01	-9.3832	-66.017791	0.000505	5.051105	1.711361	-0.040331
1238	6.1850e-01	-9.4297	-66.340439	0.000808	8.081767	2.738177	-0.064530
1239	6.1900e-01	-9.4746	-66.485630	0.000364	3.636795	1.232180	-0.029038
1240	6.1950e-01	-9.5195	-66.816345	0.000828	8.283811	2.806631	-0.066143
1241	6.2000e-01	-9.5628	-67.066397	0.000626	6.263370	2.122087	-0.050010
1242	6.2050e-01	-9.5949	-67.231754	0.000414	4.141906	1.403316	-0.033071
1243	6.2100e-01	-9.6302	-67.756057	0.001313	13.132872	4.449537	-0.104861
1244	6.2150e-01	-9.6848	-67.764123	0.000020	0.202044	0.068454	-0.001613
1245	6.2200e-01	-9.7152	-67.921414	0.000394	3.939862	1.334861	-0.031458
1246	6.2250e-01	-9.7569	-68.223896	0.000758	7.576657	2.567041	-0.060496
1247	6.2300e-01	-9.7906	-68.433617	0.000525	5.253149	1.779815	-0.041944
1248	6.2350e-01	-9.8372	-68.736099	0.000758	7.576657	2.567041	-0.060496
1249	6.2400e-01	-9.8789	-68.844993	0.000273	2.727596	0.924135	-0.021779
1250	6.2450e-01	-9.9126	-69.260402	0.001041	10.405275	3.525403	-0.083082
1251	6.2500e-01	-9.9430	-69.462057	0.000505	5.051105	1.711361	-0.040331
1252	6.2550e-01	-9.9912	-69.639514	0.000444	4.444972	1.505997	-0.035491
1253	6.2600e-01	-10.0409	-69.897632	0.000647	6.465414	2.190542	-0.051624
1254	6.2650e-01	-10.0682	-70.075088	0.000444	4.444972	1.505997	-0.035491
1255	6.2700e-01	-10.1179	-70.325140	0.000626	6.263370	2.122087	-0.050010
1256	6.2750e-01	-10.1532	-70.716351	0.000980	9.799143	3.320039	-0.078242
1257	6.2800e-01	-10.1901	-70.728450	0.000030	0.303066	0.102682	-0.002420
1258	6.2850e-01	-10.2398	-71.038999	0.000778	7.778701	2.635495	-0.062110
1259	6.2900e-01	-10.2751	-71.176124	0.000343	3.434751	1.163725	-0.027425
1260	6.2950e-01	-10.3104	-71.522971	0.000869	8.687900	2.943540	-0.069369
1261	6.3000e-01	-10.3537	-71.684295	0.000404	4.040884	1.369088	-0.032265
1262	6.3050e-01	-10.3922	-71.700427	0.000040	0.404088	0.136909	-0.003226
1263	6.3100e-01	-10.4371	-71.966611	0.000667	6.667458	2.258996	-0.053237
1264	6.3150e-01	-10.4708	-72.325557	0.000899	8.990966	3.046222	-0.071789
1265	6.3200e-01	-10.5125	-72.696602	0.000929	9.294032	3.148903	-0.074209
1266	6.3250e-01	-10.5542	-73.011184	0.000788	7.879723	2.669722	-0.062916
1267	6.3300e-01	-10.5960	-73.333832	0.000808	8.081767	2.738177	-0.064530
1268	6.3350e-01	-10.6232	-73.265269	-0.000172	-1.717376	-0.581863	0.013713
1269	6.3400e-01	-10.6794	-73.575818	0.000778	7.778701	2.635495	-0.062110
1270	6.3450e-01	-10.7131	-73.761340	0.000465	4.647016	1.574452	-0.037105
1271	6.3500e-01	-10.7596	-73.922664	0.000404	4.040884	1.369088	-0.032265
1272	6.3550e-01	-10.7933	-74.317908	0.000990	9.900165	3.354267	-0.079049
1273	6.3600e-01	-10.8366	-74.511497	0.000485	4.849060	1.642906	-0.038718
1274	6.3650e-01	-10.8639	-74.701052	0.000475	4.748038	1.608679	-0.037911
1275	6.3700e-01	-10.9056	-74.822045	0.000303	3.030663	1.026816	-0.024199
1276	6.3750e-01	-10.9521	-75.092263	0.000677	6.768480	2.293223	-0.054044
1277	6.3800e-01	-11.0018	-75.322149	0.000576	5.758259	1.950951	-0.045977
1278	6.3850e-01	-11.0339	-75.584301	0.000657	6.566436	2.224769	-0.052430
1279	6.3900e-01	-11.0772	-75.693195	0.000273	2.727596	0.924135	-0.021779
1280	6.3950e-01	-11.1157	-76.011809	0.000798	7.980745	2.703950	-0.063723
1281	6.4000e-01	-11.1542	-76.165067	0.000384	3.838839	1.300634	-0.030652
1282	6.4050e-01	-11.1799	-76.491748	0.000818	8.182789	2.772404	-0.065336
1283	6.4100e-01	-11.2328	-76.620807	0.000323	3.232707	1.095271	-0.025812
1284	6.4150e-01	-11.2762	-77.092680	0.001182	11.819585	4.004584	-0.094375
1285	6.4200e-01	-11.3179	-77.237871	0.000364	3.636795	1.232180	-0.029038
1286	6.4250e-01	-11.3516	-77.294335	0.000141	1.414309	0.479181	-0.011293
1287	6.4300e-01	-11.3981	-77.588751	0.000737	7.374613	2.498586	-0.058883
1288	6.4350e-01	-11.4366	-77.746042	0.000394	3.939862	1.334861	-0.031458
1289	6.4400e-01	-11.4751	-78.161451	0.001041	10.405275	3.525403	-0.083082
1290	6.4450e-01	-11.5136	-78.338907	0.000444	4.444972	1.505997	-0.035491
1291	6.4500e-01	-11.5585	-78.431669	0.000232	2.323508	0.787226	-0.018552
1292	6.4550e-01	-11.5970	-78.818846	0.000970	9.698121	3.285812	-0.077435
1293	6.4600e-01	-11.6307	-79.101163	0.000707	7.071546	2.395905	-0.056463
1294	6.4650e-01	-11.6708	-79.331050	0.000576	5.758259	1.950951	-0.045977
1295	6.4700e-01	-11.7221	-79.452042	0.000303	3.030663	1.026816	-0.024199
1296	6.4750e-01	-11.7558	-79.847286	0.000990	9.900165	3.354267	-0.079049
1297	6.4800e-01	-11.7911	-80.012643	0.000414	4.141906	1.403316	-0.033071
1298	6.4850e-01	-11.8312	-80.089272	0.000192	1.919420	0.650317	-0.015326
1299	6.4900e-01	-11.8713	-80.335291	0.000616	6.162348	2.087860	-0.049204
1300	6.4950e-01	-11.9146	-80.464350	0.000323	3.232707	1.095271	-0.025812
1301	6.5000e-01	-11.9531	-80.774899	0.000778	7.778701	2.635495	-0.062110
1302	6.5050e-01	-11.9965	-81.008819	0.000586	5.859281	1.985178	-0.046784
1303	6.5100e-01	-12.0317	-81.258871	0.000626	6.263370	2.122087	-0.050010
1304	6.5150e-01	-12.0735	-81.331466	0.000182	1.818398	0.616090	-0.014519
1305	6.5200e-01	-12.1120	-81.682346	0.000879	8.788922	2.977767	-0.070176
1306	6.5250e-01	-12.1537	-81.952564	0.000677	6.768480	2.293223	-0.054044
1307	6.5300e-01	-12.1858	-82.182450	0.000576	5.758259	1.950951	-0.045977
1308	6.5350e-01	-12.2339	-82.339741	0.000394	3.939862	1.334861	-0.031458
1309	6.5400e-01	-12.2708	-82.545429	0.000515	5.152127	1.745588	-0.041138
1310	6.5450e-01	-12.3061	-82.864044	0.000798	7.980745	2.703950	-0.063723
1311	6.5500e-01	-12.3606	-83.101997	0.000596	5.960303	2.019405	-0.047591
1312	6.5550e-01	-12.3959	-83.182659	0.000202	2.020442	0.684544	-0.016132
1313	6.5600e-01	-12.4392	-83.303652	0.000303	3.030663	1.026816	-0.024199
1314	6.5650e-01	-12.4777	-83.569836	0.000667	6.667458	2.258996	-0.053237
1315	6.5700e-01	-12.5146	-83.957014	0.000970	9.698121	3.285812	-0.077435
1316	6.5750e-01	-12.5579	-84.199000	0.000606	6.061325	2.053633	-0.048397
1317	6.5800e-01	-12.6045	-84.291761	0.000232	2.323508	0.787226	-0.018552
1318	6.5850e-01	-12.6349	-84.582144	0.000727	7.273591	2.464359	-0.058077
1319	6.5900e-01	-12.6847	-84.844295	0.000657	6.566436	2.224769	-0.052430
1320	6.5950e-01	-12.7103	-85.054016	0.000525	5.253149	1.779815	-0.041944
1321	6.6000e-01	-12.7569	-85.400863	0.000869	8.687900	2.943540	-0.069369
1322	6.6050e-01	-12.7857	-85.529922	0.000323	3.232707	1.095271	-0.025812
1323	6.6100e-01	-12.8355	-85.445227	-0.000212	-2.121464	-0.718771	0.016939
1324	6.6150e-01	-12.8772	-85.957431	0.001283	12.829806	4.346856	-0.102441
1325	6.6200e-01	-12.9125	-86.280078	0.000808	8.081767	2.738177	-0.064530
1326	6.6250e-01	-12.9558	-86.332509	0.000131	1.313287	0.444954	-0.010486
1327	6.6300e-01	-12.9959	-86.655157	0.000808	8.081767	2.738177	-0.064530
1328	6.6350e-01	-13.0344	-86.772116	0.000293	2.929641	0.992589	-0.023392
1329	6.6400e-01	-13.0713	-86.909242	0.000343	3.434751	1.163725	-0.027425
1330	6.6450e-01	-13.1114	-87.280287	0.000929	9.294032	3.148903	-0.074209
1331	6.6500e-01	-13.1611	-87.494041	0.000535	5.354171	1.814042	-0.042751
1332	6.6550e-01	-13.2012	-87.788457	0.000737	7.374613	2.498586	-0.058883
1333	6.6600e-01	-13.2381	-88.014311	0.000566	5.657237	1.916724	-0.045171
1334	6.6650e-01	-13.2734	-88.094973	0.000202	2.020442	0.684544	-0.016132
1335	6.6700e-01	-13.3087	-88.228065	0.000333	3.333729	1.129498	-0.026618
1336	6.6750e-01	-13.3568	-88.506349	0.000697	6.970524	2.361678	-0.055657
1337	6.6800e-01	-13.3921	-88.691871	0.000465	4.647016	1.574452	-0.037105
1338	6.6850e-01	-13.4274	-89.087115	0.000990	9.900165	3.354267	-0.079049
1339	6.6900e-01	-13.4691	-89.191976	0.000263	2.626574	0.889907	-0.020972
1340	6.6950e-01	-13.5076	-89.470259	0.000697	6.970524	2.361678	-0.055657
1341	6.7000e-01	-13.5574	-89.587219	0.000293	2.929641	0.992589	-0.023392
1342	6.7050e-01	-13.6023	-89.684014	0.000242	2.424530	0.821453	-0.019359
1343	6.7100e-01	-13.6392	-89.946165	0.000657	6.566436	2.224769	-0.052430
1344	6.7150e-01	-13.6777	-90.188151	0.000606	6.061325	2.053633	-0.048397
1345	6.7200e-01	-13.7242	-90.252681	0.000162	1.616353	0.547635	-0.012906
1346	6.7250e-01	-13.7531	-90.530964	0.000697	6.970524	2.361678	-0.055657
1347	6.7300e-01	-13.7964	-90.724553	0.000485	4.849060	1.642906	-0.038718
1348	6.7350e-01	-13.8365	-91.139962	0.001041	10.405275	3.525403	-0.083082
1349	6.7400e-01	-13.8846	-91.309352	0.000424	4.242928	1.437543	-0.033878
1350	6.7450e-01	-13.9183	-91.555371	0.000616	6.162348	2.087860	-0.049204
1351	6.7500e-01	-13.9584	-91.769126	0.000535	5.354171	1.814042	-0.042751
1352	6.7550e-01	-13.9841	-91.886085	0.000293	2.929641	0.992589	-0.023392
1353	6.7600e-01	-14.0290	-92.120005	0.000586	5.859281	1.985178	-0.046784
1354	6.7650e-01	-14.0787	-92.321660	0.000505	5.051105	1.711361	-0.040331
1355	6.7700e-01	-14.1108	-92.636242	0.000788	7.879723	2.669722	-0.062916
1356	6.7750e-01	-14.1477	-92.910493	0.000687	6.869502	2.327450	-0.054850
1357	6.7800e-01	-14.1943	-93.075850	0.000414	4.141906	1.403316	-0.033071
1358	6.7850e-01	-14.2344	-93.370266	0.000737	7.374613	2.498586	-0.058883
1359	6.7900e-01	-14.2697	-93.495292	0.000313	3.131685	1.061044	-0.025005
1360	6.7950e-01	-14.3162	-93.850204	0.000889	8.889944	3.011995	-0.070983
1361	6.8000e-01	-14.3531	-93.785675	-0.000162	-1.616353	-0.547635	0.012906
1362	6.8050e-01	-14.3868	-94.112356	0.000818	8.182789	2.772404	-0.065336
1363	6.8100e-01	-14.4285	-94.382573	0.000677	6.768480	2.293223	-0.054044
1364	6.8150e-01	-14.4782	-94.459202	0.000192	1.919420	0.650317	-0.015326
1365	6.8200e-01	-14.5135	-94.713288	0.000636	6.364392	2.156314	-0.050817
1366	6.8250e-01	-14.5504	-94.995604	0.000707	7.071546	2.395905	-0.056463
1367	6.8300e-01	-14.5937	-95.064167	0.000172	1.717376	0.581863	-0.013713
1368	6.8350e-01	-14.6290	-95.209359	0.000364	3.636795	1.232180	-0.029038
1369	6.8400e-01	-14.6723	-95.479576	0.000677	6.768480	2.293223	-0.054044
1370	6.8450e-01	-14.7172	-95.709463	0.000576	5.758259	1.950951	-0.045977
1371	6.8500e-01	-14.7509	-95.737695	0.000071	0.707155	0.239590	-0.005646
1372	6.8550e-01	-14.7894	-96.116806	0.000950	9.496077	3.217358	-0.075822
1373	6.8600e-01	-14.8359	-96.524149	0.001020	10.203231	3.456948	-0.081469
1374	6.8650e-01	-14.8696	-96.741936	0.000546	5.455193	1.848269	-0.043557
1375	6.8700e-01	-14.9178	-96.975856	0.000586	5.859281	1.985178	-0.046784
1376	6.8750e-01	-14.9514	-97.096849	0.000303	3.030663	1.026816	-0.024199
1377	6.8800e-01	-14.9980	-97.157345	0.000152	1.515331	0.513408	-0.012099
1378	6.8850e-01	-15.0285	-97.246073	0.000222	2.222486	0.752999	-0.017746
1379	6.8900e-01	-15.0750	-97.673582	0.001071	10.708342	3.628084	-0.085502
1380	6.8950e-01	-15.1103	-97.782476	0.000273	2.727596	0.924135	-0.021779
1381	6.9000e-01	-15.1520	-97.855071	0.000182	1.818398	0.616090	-0.014519
1382	6.9050e-01	-15.1889	-98.177719	0.000808	8.081767	2.738177	-0.064530
1383	6.9100e-01	-15.2338	-98.544731	0.000919	9.193010	3.114676	-0.073402
1384	6.9150e-01	-15.2835	-98.839147	0.000737	7.374613	2.498586	-0.058883
1385	6.9200e-01	-15.3108	-98.996438	0.000394	3.939862	1.334861	-0.031458
1386	6.9250e-01	-15.3525	-98.996438	-0.000000	-0.000000	-0.000000	0.000000
1387	6.9300e-01	-15.3926	-99.246490	0.000626	6.263370	2.122087	-0.050010
1388	6.9350e-01	-15.4327	-99.432013	0.000465	4.647016	1.574452	-0.037105
1389	6.9400e-01	-15.4744	-99.641734	0.000525	5.253149	1.779815	-0.041944
1390	6.9450e-01	-15.5193	-99.794992	0.000384	3.838839	1.300634	-0.030652
1391	6.9500e-01	-15.5466	-100.036978	0.000606	6.061325	2.053633	-0.048397
1392	6.9550e-01	-15.6012	-100.234600	0.000495	4.950082	1.677133	-0.039524
1393	6.9600e-01	-15.6365	-100.484652	0.000626	6.263370	2.122087	-0.050010
1394	6.9650e-01	-15.6669	-100.706472	0.000556	5.556215	1.882497	-0.044364
1395	6.9700e-01	-15.7199	-100.972657	0.000667	6.667458	2.258996	-0.053237
1396	6.9750e-01	-15.7552	-101.146080	0.000434	4.343950	1.471770	-0.034685
1397	6.9800e-01	-15.7985	-101.444529	0.000748	7.475635	2.532814	-0.059690
1398	6.9850e-01	-15.8322	-101.581654	0.000343	3.434751	1.163725	-0.027425
1399	6.9900e-01	-15.8691	-101.779276	0.000495	4.950082	1.677133	-0.039524
1400	6.9950e-01	-15.9092	-102.097891	0.000798	7.980745	2.703950	-0.063723
1401	7.0000e-01	-15.9541	-102.287447	0.000475	4.748038	1.608679	-0.037911
1402	7.0050e-01	-15.9958	-102.400374	0.000283	2.828619	0.958362	-0.022585
1403	7.0100e-01	-16.0359	-102.779485	0.000950	9.496077	3.217358	-0.075822
1404	7.0150e-01	-16.0792	-102.920643	0.000354	3.535773	1.197952	-0.028232
1405	7.0200e-01	-16.1129	-103.219093	0.000748	7.475635	2.532814	-0.059690
1406	7.0250e-01	-16.1610	-103.275556	0.000141	1.414309	0.479181	-0.011293
1407	7.0300e-01	-16.1899	-103.477211	0.000505	5.051105	1.711361	-0.040331
1408	7.0350e-01	-16.2300	-103.586105	0.000273	2.727596	0.924135	-0.021779
1409	7.0400e-01	-16.2814	-103.936984	0.000879	8.788922	2.977767	-0.070176
1410	7.0450e-01	-16.3199	-104.203169	0.000667	6.667458	2.258996	-0.053237
1411	7.0500e-01	-16.3584	-104.271731	0.000172	1.717376	0.581863	-0.013713
1412	7.0550e-01	-16.3921	-104.594379	0.000808	8.081767	2.738177	-0.064530
1413	7.0600e-01	-16.4273	-104.739571	0.000364	3.636795	1.232180	-0.029038
1414	7.0650e-01	-16.4674	-104.921060	0.000455	4.545994	1.540224	-0.036298
1415	7.0700e-01	-16.5076	-105.167079	0.000616	6.162348	2.087860	-0.049204
1416	7.0750e-01	-16.5573	-105.235642	0.000172	1.717376	0.581863	-0.013713
1417	7.0800e-01	-16.5958	-105.570389	0.000838	8.384834	2.840859	-0.066949
1418	7.0850e-01	-16.6247	-105.695415	0.000313	3.131685	1.061044	-0.025005
1419	7.0900e-01	-16.6760	-105.772044	0.000192	1.919420	0.650317	-0.015326
1420	7.0950e-01	-16.7145	-106.074526	0.000758	7.576657	2.567041	-0.060496
1421	7.1000e-01	-16.7626	-106.328612	0.000636	6.364392	2.156314	-0.050817
1422	7.1050e-01	-16.7835	-106.590763	0.000657	6.566436	2.224769	-0.052430
1423	7.1100e-01	-16.8348	-106.659326	0.000172	1.717376	0.581863	-0.013713
1424	7.1150e-01	-16.8749	-106.865014	0.000515	5.152127	1.745588	-0.041138
1425	7.1200e-01	-16.9102	-107.163463	0.000748	7.475635	2.532814	-0.059690
1426	7.1250e-01	-16.9471	-107.191695	0.000071	0.707155	0.239590	-0.005646
1427	7.1300e-01	-16.9936	-107.409482	0.000546	5.455193	1.848269	-0.043557
1428	7.1350e-01	-17.0257	-107.748262	0.000849	8.485856	2.875086	-0.067756
1429	7.1400e-01	-17.0738	-107.869255	0.000303	3.030663	1.026816	-0.024199
1430	7.1450e-01	-17.1172	-108.099142	0.000576	5.758259	1.950951	-0.045977
1431	7.1500e-01	-17.1525	-108.506485	0.001020	10.203231	3.456948	-0.081469
1432	7.1550e-01	-17.1829	-108.510518	0.000010	0.101022	0.034227	-0.000807
1433	7.1600e-01	-17.2327	-108.748471	0.000596	5.960303	2.019405	-0.047591
1434	7.1650e-01	-17.2776	-109.079185	0.000828	8.283811	2.806631	-0.066143
1435	7.1700e-01	-17.3129	-109.208244	0.000323	3.232707	1.095271	-0.025812
1436	7.1750e-01	-17.3562	-109.542991	0.000838	8.384834	2.840859	-0.066949
1437	7.1800e-01	-17.4011	-109.631719	0.000222	2.222486	0.752999	-0.017746
1438	7.1850e-01	-17.4332	-109.849507	0.000546	5.455193	1.848269	-0.043557
1439	7.1900e-01	-17.4701	-109.962433	0.000283	2.828619	0.958362	-0.022585
1440	7.1950e-01	-17.5102	-110.035029	0.000182	1.818398	0.616090	-0.014519
1441	7.2000e-01	-17.5455	-110.309280	0.000687	6.869502	2.327450	-0.054850
1442	7.2050e-01	-17.5968	-110.539166	0.000576	5.758259	1.950951	-0.045977
1443	7.2100e-01	-17.6321	-110.575464	0.000091	0.909199	0.308045	-0.007260
1444	7.2150e-01	-17.6674	-110.938443	0.000909	9.091988	3.080449	-0.072596
1445	7.2200e-01	-17.7171	-111.277224	0.000849	8.485856	2.875086	-0.067756
1446	7.2250e-01	-17.7573	-111.329654	0.000131	1.313287	0.444954	-0.010486
1447	7.2300e-01	-17.8022	-111.567607	0.000596	5.960303	2.019405	-0.047591
1448	7.2350e-01	-17.8294	-111.765228	0.000495	4.950082	1.677133	-0.039524
1449	7.2400e-01	-17.8679	-111.970916	0.000515	5.152127	1.745588	-0.041138
1450	7.2450e-01	-17.9177	-112.188704	0.000546	5.455193	1.848269	-0.043557
1451	7.2500e-01	-17.9466	-112.616212	0.001071	10.708342	3.628084	-0.085502
1452	7.2550e-01	-17.9883	-112.547650	-0.000172	-1.717376	-0.581863	0.013713
1453	7.2600e-01	-18.0316	-112.793669	0.000616	6.162348	2.087860	-0.049204
1454	7.2650e-01	-18.0701	-112.971125	0.000444	4.444972	1.505997	-0.035491
1455	7.2700e-01	-18.1134	-113.221177	0.000626	6.263370	2.122087	-0.050010
1456	7.2750e-01	-18.1535	-113.584156	0.000909	9.091988	3.080449	-0.072596
1457	7.2800e-01	-18.2032	-113.580123	-0.000010	-0.101022	-0.034227	0.000807
1458	7.2850e-01	-18.2273	-113.676917	0.000242	2.424530	0.821453	-0.019359
1459	7.2900e-01	-18.2834	-113.898738	0.000556	5.556215	1.882497	-0.044364
1460	7.2950e-01	-18.3155	-114.100393	0.000505	5.051105	1.711361	-0.040331
1461	7.3000e-01	-18.3492	-114.217352	0.000293	2.929641	0.992589	-0.023392
1462	7.3050e-01	-18.3925	-114.531934	0.000788	7.879723	2.669722	-0.062916
1463	7.3100e-01	-18.4374	-114.665026	0.000333	3.333729	1.129498	-0.026618
1464	7.3150e-01	-18.4776	-114.898946	0.000586	5.859281	1.985178	-0.046784
1465	7.3200e-01	-18.5241	-115.302256	0.001010	10.102209	3.422721	-0.080662
1466	7.3250e-01	-18.5497	-115.427282	0.000313	3.131685	1.061044	-0.025005
1467	7.3300e-01	-18.5915	-115.681367	0.000636	6.364392	2.156314	-0.050817
1468	7.3350e-01	-18.6300	-115.685400	0.000010	0.101022	0.034227	-0.000807
1469	7.3400e-01	-18.6749	-115.955618	0.000677	6.768480	2.293223	-0.054044
1470	7.3450e-01	-18.7118	-116.399259	0.001111	11.112430	3.764993	-0.088728
1471	7.3500e-01	-18.7647	-116.395226	-0.000010	-0.101022	-0.034227	0.000807
1472	7.3550e-01	-18.7952	-116.600914	0.000515	5.152127	1.745588	-0.041138
1473	7.3600e-01	-18.8385	-116.770304	0.000424	4.242928	1.437543	-0.033878
1474	7.3650e-01	-18.8722	-117.012290	0.000606	6.061325	2.053633	-0.048397
1475	7.3700e-01	-18.9235	-117.169581	0.000394	3.939862	1.334861	-0.031458
1476	7.3750e-01	-18.9556	-117.387368	0.000546	5.455193	1.848269	-0.043557
1477	7.3800e-01	-18.9909	-117.524493	0.000343	3.434751	1.163725	-0.027425
1478	7.3850e-01	-19.0310	-117.831009	0.000768	7.677679	2.601268	-0.061303
1479	7.3900e-01	-19.0727	-117.899571	0.000172	1.717376	0.581863	-0.013713
1480	7.3950e-01	-19.1144	-117.863274	-0.000091	-0.909199	-0.308045	0.007260
1481	7.4000e-01	-19.1529	-118.290782	0.001071	10.708342	3.628084	-0.085502
1482	7.4050e-01	-19.2043	-118.653761	0.000909	9.091988	3.080449	-0.072596
1483	7.4100e-01	-19.2331	-118.686026	0.000081	0.808177	0.273818	-0.006453
1484	7.4150e-01	-19.2716	-119.036905	0.000879	8.788922	2.977767	-0.070176
1485	7.4200e-01	-19.3053	-119.702367	0.001667	16.668645	5.647490	-0.133092
1486	7.4250e-01	-19.3551	-119.508778	-0.000485	-4.849060	-1.642906	0.038718
1487	7.4300e-01	-19.3936	-119.460381	-0.000121	-1.212265	-0.410727	0.009679
1488	7.4350e-01	-19.4337	-119.823359	0.000909	9.091988	3.080449	-0.072596
1489	7.4400e-01	-19.4722	-120.109709	0.000717	7.172568	2.430132	-0.057270
1490	7.4450e-01	-19.5155	-120.045180	-0.000162	-1.616353	-0.547635	0.012906
1491	7.4500e-01	-19.5540	-120.311364	0.000667	6.667458	2.258996	-0.053237
1492	7.4550e-01	-19.5877	-120.734840	0.001061	10.607320	3.593857	-0.084695
1493	7.4600e-01	-19.6390	-120.771138	0.000091	0.909199	0.308045	-0.007260
1494	7.4650e-01	-19.6647	-120.811469	0.000101	1.010221	0.342272	-0.008066
1495	7.4700e-01	-19.7016	-121.210745	0.001000	10.001187	3.388494	-0.079855
1496	7.4750e-01	-19.7577	-121.331738	0.000303	3.030663	1.026816	-0.024199
1497	7.4800e-01	-19.7946	-121.444665	0.000283	2.828619	0.958362	-0.022585
1498	7.4850e-01	-19.8219	-121.573724	0.000323	3.232707	1.095271	-0.025812
1499	7.4900e-01	-19.8813	-121.989133	0.001041	10.405275	3.525403	-0.083082
1500	7.4950e-01	-19.9085	-122.376311	0.000970	9.698121	3.285812	-0.077435
1501	7.5000e-01	-19.9534	-122.493271	0.000293	2.929641	0.992589	-0.023392
1502	7.5050e-01	-19.9551	-122.348079	-0.000364	-3.636795	-1.232180	0.029038
1503	7.5100e-01	-19.9358	-122.267417	0.000202	2.020442	0.684544	0.016132
1504	7.5150e-01	-19.8973	-122.380344	-0.000283	-2.828619	-0.958362	-0.022585
1505	7.5200e-01	-19.8604	-122.138358	0.000606	6.061325	2.053633	0.048397
1506	7.5250e-01	-19.8187	-121.896372	0.000606	6.061325	2.053633	0.048397
1507	7.5300e-01	-19.7834	-121.936703	-0.000101	-1.010221	-0.342272	-0.008066
1508	7.5350e-01	-19.7401	-121.493062	0.001111	11.112430	3.764993	0.088728
1509	7.5400e-01	-19.7080	-121.444665	0.000121	1.212265	0.410727	0.009679
1510	7.5450e-01	-19.6599	-121.626155	-0.000455	-4.545994	-1.540224	-0.036298
1511	7.5500e-01	-19.6294	-121.364003	0.000657	6.566436	2.224769	0.052430
1512	7.5550e-01	-19.5700	-121.158315	0.000515	5.152127	1.745588	0.041138
1513	7.5600e-01	-19.5380	-120.843733	0.000788	7.879723	2.669722	0.062916
1514	7.5650e-01	-19.5011	-120.613847	0.000576	5.758259	1.950951	0.045977
1515	7.5700e-01	-19.4674	-120.581582	0.000081	0.808177	0.273818	0.006453
1516	7.5750e-01	-19.4208	-120.404126	0.000444	4.444972	1.505997	0.035491
1517	7.5800e-01	-19.3711	-120.303298	0.000253	2.525552	0.855680	0.020165
1518	7.5850e-01	-19.3390	-119.956452	0.000869	8.687900	2.943540	0.069369
1519	7.5900e-01	-19.2989	-120.137941	-0.000455	-4.545994	-1.540224	-0.036298
1520	7.5950e-01	-19.2652	-120.029048	0.000273	2.727596	0.924135	0.021779
1521	7.6000e-01	-19.2155	-119.948386	0.000202	2.020442	0.684544	0.016132
1522	7.6050e-01	-19.1802	-119.670102	0.000697	6.970524	2.361678	0.055657
1523	7.6100e-01	-19.1417	-119.516844	0.000384	3.838839	1.300634	0.030652
1524	7.6150e-01	-19.1016	-119.303090	0.000535	5.354171	1.814042	0.042751
1525	7.6200e-01	-19.0631	-119.117567	0.000465	4.647016	1.574452	0.037105
1526	7.6250e-01	-19.0262	-118.831217	0.000717	7.172568	2.430132	0.057270
1527	7.6300e-01	-18.9877	-118.754588	0.000192	1.919420	0.650317	0.015326
1528	7.6350e-01	-18.9396	-118.625529	0.000323	3.232707	1.095271	0.025812
1529	7.6400e-01	-18.9027	-118.379510	0.000616	6.162348	2.087860	0.049204
1530	7.6450e-01	-18.8578	-118.339179	0.000101	1.010221	0.342272	0.008066
1531	7.6500e-01	-18.8177	-118.105259	0.000586	5.859281	1.985178	0.046784
1532	7.6550e-01	-18.7824	-118.072995	0.000081	0.808177	0.273818	0.006453
1533	7.6600e-01	-18.7503	-117.701950	0.000929	9.294032	3.148903	0.074209
1534	7.6650e-01	-18.6989	-117.488195	0.000535	5.354171	1.814042	0.042751
1535	7.6700e-01	-18.6604	-117.459964	0.000071	0.707155	0.239590	0.005646
1536	7.6750e-01	-18.6219	-117.282507	0.000444	4.444972	1.505997	0.035491
1537	7.6800e-01	-18.5818	-117.096985	0.000465	4.647016	1.574452	0.037105
1538	7.6850e-01	-18.5433	-117.004224	0.000232	2.323508	0.787226	0.018552
1539	7.6900e-01	-18.4984	-116.762238	0.000606	6.061325	2.053633	0.048397
1540	7.6950e-01	-18.4631	-116.633178	0.000323	3.232707	1.095271	0.025812
1541	7.7000e-01	-18.4182	-116.318597	0.000788	7.879723	2.669722	0.062916
1542	7.7050e-01	-18.3877	-116.104843	0.000535	5.354171	1.814042	0.042751
1543	7.7100e-01	-18.3380	-116.137107	-0.000081	-0.808177	-0.273818	-0.006453
1544	7.7150e-01	-18.3091	-115.951585	0.000465	4.647016	1.574452	0.037105
1545	7.7200e-01	-18.2642	-115.770095	0.000455	4.545994	1.540224	0.036298
1546	7.7250e-01	-18.2225	-115.794294	-0.000061	-0.606133	-0.205363	-0.004840
1547	7.7300e-01	-18.1872	-115.487778	0.000768	7.677679	2.601268	0.061303
1548	7.7350e-01	-18.1375	-115.326455	0.000404	4.040884	1.369088	0.032265
1549	7.7400e-01	-18.0974	-114.995740	0.000828	8.283811	2.806631	0.066143
1550	7.7450e-01	-18.0556	-114.963476	0.000081	0.808177	0.273818	0.006453
1551	7.7500e-01	-18.0252	-114.915078	0.000121	1.212265	0.410727	0.009679
1552	7.7550e-01	-17.9770	-114.894913	0.000051	0.505110	0.171136	0.004033
1553	7.7600e-01	-17.9401	-114.479504	0.001041	10.405275	3.525403	0.083082
1554	7.7650e-01	-17.9064	-114.326246	0.000384	3.838839	1.300634	0.030652
1555	7.7700e-01	-17.8599	-114.281882	0.000111	1.111243	0.376499	0.008873
1556	7.7750e-01	-17.8327	-113.926969	0.000889	8.889944	3.011995	0.070983
1557	7.7800e-01	-17.7797	-113.939069	-0.000030	-0.303066	-0.102682	-0.002420
1558	7.7850e-01	-17.7428	-113.519626	0.001051	10.506297	3.559630	0.083888
1559	7.7900e-01	-17.7059	-113.386534	0.000333	3.333729	1.129498	0.026618
1560	7.7950e-01	-17.6626	-113.326038	0.000152	1.515331	0.513408	0.012099
1561	7.8000e-01	-17.6225	-113.172780	0.000384	3.838839	1.300634	0.030652
1562	7.8050e-01	-17.5840	-113.100184	0.000182	1.818398	0.616090	0.014519
1563	7.8100e-01	-17.5471	-112.713007	0.000970	9.698121	3.285812	0.077435
1564	7.8150e-01	-17.5006	-112.640411	0.000182	1.818398	0.616090	0.014519
1565	7.8200e-01	-17.4573	-112.430690	0.000525	5.253149	1.779815	0.041944
1566	7.8250e-01	-17.4172	-112.257266	0.000434	4.343950	1.471770	0.034685
1567	7.8300e-01	-17.3835	-112.273399	-0.000040	-0.404088	-0.136909	-0.003226
1568	7.8350e-01	-17.3418	-111.914453	0.000899	8.990966	3.046222	0.071789
1569	7.8400e-01	-17.3065	-111.849924	0.000162	1.616353	0.547635	0.012906
1570	7.8450e-01	-17.2615	-111.640202	0.000525	5.253149	1.779815	0.041944
1571	7.8500e-01	-17.2150	-111.446614	0.000485	4.849060	1.642906	0.038718
1572	7.8550e-01	-17.1781	-111.293356	0.000384	3.838839	1.300634	0.030652
1573	7.8600e-01	-17.1476	-111.232859	0.000152	1.515331	0.513408	0.012099
1574	7.8650e-01	-17.1027	-110.881980	0.000879	8.788922	2.977767	0.070176
1575	7.8700e-01	-17.0690	-110.756954	0.000313	3.131685	1.061044	0.025005
1576	7.8750e-01	-17.0193	-110.426240	0.000828	8.283811	2.806631	0.066143
1577	7.8800e-01	-16.9840	-110.115691	0.000778	7.778701	2.635495	0.062110
1578	7.8850e-01	-16.9423	-110.051162	0.000162	1.616353	0.547635	0.012906
1579	7.8900e-01	-16.9022	-109.978566	0.000182	1.818398	0.616090	0.014519
1580	7.8950e-01	-16.8557	-109.861606	0.000293	2.929641	0.992589	0.023392
1581	7.9000e-01	-16.8204	-109.627686	0.000586	5.859281	1.985178	0.046784
1582	7.9050e-01	-16.7739	-109.611554	0.000040	0.404088	0.136909	0.003226
1583	7.9100e-01	-16.7354	-109.434097	0.000444	4.444972	1.505997	0.035491
1584	7.9150e-01	-16.6920	-109.103383	0.000828	8.283811	2.806631	0.066143
1585	7.9200e-01	-16.6616	-108.825100	0.000697	6.970524	2.361678	0.055657
1586	7.9250e-01	-16.6231	-108.603279	0.000556	5.556215	1.882497	0.044364
1587	7.9300e-01	-16.5814	-108.663776	-0.000152	-1.515331	-0.513408	-0.012099
1588	7.9350e-01	-16.5445	-108.280631	0.000960	9.597099	3.251585	0.076629
1589	7.9400e-01	-16.5011	-108.381459	-0.000253	-2.525552	-0.855680	-0.020165
1590	7.9450e-01	-16.4610	-108.066877	0.000788	7.879723	2.669722	0.062916
1591	7.9500e-01	-16.4177	-107.756328	0.000778	7.778701	2.635495	0.062110
1592	7.9550e-01	-16.3824	-107.699865	0.000141	1.414309	0.479181	0.011293
1593	7.9600e-01	-16.3391	-107.619203	0.000202	2.020442	0.684544	0.016132
1594	7.9650e-01	-16.2990	-107.272357	0.000869	8.687900	2.943540	0.069369
1595	7.9700e-01	-16.2621	-107.252191	0.000051	0.505110	0.171136	0.004033
1596	7.9750e-01	-16.2156	-107.050536	0.000505	5.051105	1.711361	0.040331
1597	7.9800e-01	-16.1867	-106.788385	0.000657	6.566436	2.224769	0.052430
1598	7.9850e-01	-16.1354	-106.348777	0.001101	11.011408	3.730766	0.087922
1599	7.9900e-01	-16.1113	-106.328612	0.000051	0.505110	0.171136	0.004033
1600	7.9950e-01	-16.0600	-106.304413	0.000061	0.606133	0.205363	0.004840
1601	8.0000e-01	-16.0102	-106.163255	0.000354	3.535773	1.197952	0.028232
1602	8.0050e-01	-15.9669	-105.844640	0.000798	7.980745	2.703950	0.063723
1603	8.0100e-01	-15.9397	-105.638952	0.000515	5.152127	1.745588	0.041138
1604	8.0150e-01	-15.9044	-105.509893	0.000323	3.232707	1.095271	0.025812
1605	8.0200e-01	-15.8659	-105.304205	0.000515	5.152127	1.745588	0.041138
1606	8.0250e-01	-15.8225	-105.009788	0.000737	7.374613	2.498586	0.058883
1607	8.0300e-01	-15.7840	-105.009788	0.000000	0.000000	0.000000	0.000000
1608	8.0350e-01	-15.7504	-104.787968	0.000556	5.556215	1.882497	0.044364
1609	8.0400e-01	-15.7038	-104.763769	0.000061	0.606133	0.205363	0.004840
1610	8.0450e-01	-15.6605	-104.328195	0.001091	10.910386	3.696539	0.087115
1611	8.0500e-01	-15.6252	-104.191069	0.000343	3.434751	1.163725	0.027425
1612	8.0550e-01	-15.5739	-104.106374	0.000212	2.121464	0.718771	0.016939
1613	8.0600e-01	-15.5418	-103.936984	0.000424	4.242928	1.437543	0.033878
1614	8.0650e-01	-15.5033	-103.521575	0.001041	10.405275	3.525403	0.083082
1615	8.0700e-01	-15.4616	-103.404615	0.000293	2.929641	0.992589	0.023392
1616	8.0750e-01	-15.4199	-103.291688	0.000283	2.828619	0.958362	0.022585
1617	8.0800e-01	-15.3846	-102.856114	0.001091	10.910386	3.696539	0.087115
1618	8.0850e-01	-15.3445	-102.694790	0.000404	4.040884	1.369088	0.032265
1619	8.0900e-01	-15.2915	-102.686724	0.000020	0.202044	0.068454	0.001613
1620	8.0950e-01	-15.2659	-102.606062	0.000202	2.020442	0.684544	0.016132
1621	8.1000e-01	-15.2178	-102.416506	0.000475	4.748038	1.608679	0.037911
1622	8.1050e-01	-15.1760	-102.109990	0.000768	7.677679	2.601268	0.061303
1623	8.1100e-01	-15.1456	-101.984964	0.000313	3.131685	1.061044	0.025005
1624	8.1150e-01	-15.1006	-101.835740	0.000374	3.737817	1.266407	0.029845
1625	8.1200e-01	-15.0557	-101.638118	0.000495	4.950082	1.677133	0.039524
1626	8.1250e-01	-15.0252	-101.259007	0.000950	9.496077	3.217358	0.075822
1627	8.1300e-01	-14.9755	-101.194477	0.000162	1.616353	0.547635	0.012906
1628	8.1350e-01	-14.9466	-100.932326	0.000657	6.566436	2.224769	0.052430
1629	8.1400e-01	-14.8985	-100.847631	0.000212	2.121464	0.718771	0.016939
1630	8.1450e-01	-14.8504	-100.896028	-0.000121	-1.212265	-0.410727	-0.009679
1631	8.1500e-01	-14.8295	-100.456420	0.001101	11.011408	3.730766	0.087922
1632	8.1550e-01	-14.7862	-100.166037	0.000727	7.273591	2.464359	0.058077
1633	8.1600e-01	-14.7349	-99.996647	0.000424	4.242928	1.437543	0.033878
1634	8.1650e-01	-14.6980	-99.924051	0.000182	1.818398	0.616090	0.014519
1635	8.1700e-01	-14.6659	-99.698197	0.000566	5.657237	1.916724	0.045171
1636	8.1750e-01	-14.6178	-99.427980	0.000677	6.768480	2.293223	0.054044
1637	8.1800e-01	-14.5729	-99.282788	0.000364	3.636795	1.232180	0.029038
1638	8.1850e-01	-14.5440	-99.173895	0.000273	2.727596	0.924135	0.021779
1639	8.1900e-01	-14.5039	-98.927876	0.000616	6.162348	2.087860	0.049204
1640	8.1950e-01	-14.4573	-98.774618	0.000384	3.838839	1.300634	0.030652
1641	8.2000e-01	-14.4204	-98.476169	0.000748	7.475635	2.532814	0.059690
1642	8.2050e-01	-14.3836	-98.363242	0.000283	2.828619	0.958362	0.022585
1643	8.2100e-01	-14.3354	-98.044627	0.000798	7.980745	2.703950	0.063723
1644	8.2150e-01	-14.3017	-98.048660	-0.000010	-0.101022	-0.034227	-0.000807
1645	8.2200e-01	-14.2504	-97.887336	0.000404	4.040884	1.369088	0.032265
1646	8.2250e-01	-14.2167	-97.379166	0.001273	12.728784	4.312629	0.101634
1647	8.2300e-01	-14.1814	-97.197676	0.000455	4.545994	1.540224	0.036298
1648	8.2350e-01	-14.1413	-97.383199	-0.000465	-4.647016	-1.574452	-0.037105
1649	8.2400e-01	-14.1076	-97.173478	0.000525	5.253149	1.779815	0.041944
1650	8.2450e-01	-14.0563	-96.987955	0.000465	4.647016	1.574452	0.037105
1651	8.2500e-01	-14.0322	-96.729837	0.000647	6.465414	2.190542	0.051624
1652	8.2550e-01	-13.9841	-96.411222	0.000798	7.980745	2.703950	0.063723
1653	8.2600e-01	-13.9424	-96.072442	0.000849	8.485856	2.875086	0.067756
1654	8.2650e-01	-13.9007	-95.725595	0.000869	8.687900	2.943540	0.069369
1655	8.2700e-01	-13.8670	-95.931283	-0.000515	-5.152127	-1.745588	-0.041138
1656	8.2750e-01	-13.8253	-95.681231	0.000626	6.263370	2.122087	0.050010
1657	8.2800e-01	-13.7788	-95.374716	0.000768	7.677679	2.601268	0.061303
1658	8.2850e-01	-13.7403	-95.173061	0.000505	5.051105	1.711361	0.040331
1659	8.2900e-01	-13.7018	-95.140796	0.000081	0.808177	0.273818	0.006453
1660	8.2950e-01	-13.6633	-94.906876	0.000586	5.859281	1.985178	0.046784
1661	8.3000e-01	-13.6135	-94.906876	0.000000	0.000000	0.000000	0.000000
1662	8.3050e-01	-13.5862	-94.439037	0.001172	11.718563	3.970356	0.093568
1663	8.3100e-01	-13.5365	-94.249481	0.000475	4.748038	1.608679	0.037911
1664	8.3150e-01	-13.5108	-94.011528	0.000596	5.960303	2.019405	0.047591
1665	8.3200e-01	-13.4579	-93.878436	0.000333	3.333729	1.129498	0.026618
1666	8.3250e-01	-13.4178	-93.854238	0.000061	0.606133	0.205363	0.004840
1667	8.3300e-01	-13.3825	-93.511424	0.000859	8.586878	2.909313	0.068563
1668	8.3350e-01	-13.3440	-93.108114	0.001010	10.102209	3.422721	0.080662
1669	8.3400e-01	-13.3023	-93.176677	-0.000172	-1.717376	-0.581863	-0.013713
1670	8.3450e-01	-13.2622	-93.003254	0.000434	4.343950	1.471770	0.034685
1671	8.3500e-01	-13.2285	-92.672540	0.000828	8.283811	2.806631	0.066143
1672	8.3550e-01	-13.1916	-92.325693	0.000869	8.687900	2.943540	0.069369
1673	8.3600e-01	-13.1387	-92.285362	0.000101	1.010221	0.342272	0.008066
1674	8.3650e-01	-13.0986	-92.055476	0.000576	5.758259	1.950951	0.045977
1675	8.3700e-01	-13.0569	-91.869953	0.000465	4.647016	1.574452	0.037105
1676	8.3750e-01	-13.0216	-91.418246	0.001131	11.314474	3.833448	0.090341
1677	8.3800e-01	-12.9734	-91.398081	0.000051	0.505110	0.171136	0.004033
1678	8.3850e-01	-12.9301	-91.394047	0.000010	0.101022	0.034227	0.000807
1679	8.3900e-01	-12.9028	-90.926208	0.001172	11.718563	3.970356	0.093568
1680	8.3950e-01	-12.8627	-90.974605	-0.000121	-1.212265	-0.410727	-0.009679
1681	8.4000e-01	-12.8114	-90.660023	0.000788	7.879723	2.669722	0.062916
1682	8.4050e-01	-12.7761	-90.405938	0.000636	6.364392	2.156314	0.050817
1683	8.4100e-01	-12.7520	-90.143787	0.000657	6.566436	2.224769	0.052430
1684	8.4150e-01	-12.6975	-89.897768	0.000616	6.162348	2.087860	0.049204
1685	8.4200e-01	-12.6638	-89.692080	0.000515	5.152127	1.745588	0.041138
1686	8.4250e-01	-12.6253	-89.442028	0.000626	6.263370	2.122087	0.050010
1687	8.4300e-01	-12.5820	-89.486392	-0.000111	-1.111243	-0.376499	-0.008873
1688	8.4350e-01	-12.5355	-89.478326	0.000020	0.202044	0.068454	0.001613
1689	8.4400e-01	-12.5066	-89.232307	0.000616	6.162348	2.087860	0.049204
1690	8.4450e-01	-12.4553	-89.070983	0.000404	4.040884	1.369088	0.032265
1691	8.4500e-01	-12.4184	-88.639441	0.001081	10.809364	3.662312	0.086308
1692	8.4550e-01	-12.3847	-88.599110	0.000101	1.010221	0.342272	0.008066
1693	8.4600e-01	-12.3398	-88.074807	0.001313	13.132872	4.449537	0.104861
1694	8.4650e-01	-12.2948	-87.969947	0.000263	2.626574	0.889907	0.020972
1695	8.4700e-01	-12.2692	-87.808623	0.000404	4.040884	1.369088	0.032265
1696	8.4750e-01	-12.2130	-87.667464	0.000354	3.535773	1.197952	0.028232
1697	8.4800e-01	-12.1906	-87.352883	0.000788	7.879723	2.669722	0.062916
1698	8.4850e-01	-12.1489	-87.106864	0.000616	6.162348	2.087860	0.049204
1699	8.4900e-01	-12.0975	-87.018135	0.000222	2.222486	0.752999	0.017746
1700	8.4950e-01	-12.0574	-86.917308	0.000253	2.525552	0.855680	0.020165
1701	8.5000e-01	-12.0269	-86.526097	0.000980	9.799143	3.320039	0.078242
1702	8.5050e-01	-11.9836	-86.445435	0.000202	2.020442	0.684544	0.016132
1703	8.5100e-01	-11.9387	-86.288145	0.000394	3.939862	1.334861	0.031458
1704	8.5150e-01	-11.9082	-85.888868	0.001000	10.001187	3.388494	0.079855
1705	8.5200e-01	-11.8633	-85.735610	0.000384	3.838839	1.300634	0.030652
1706	8.5250e-01	-11.8136	-85.485558	0.000626	6.263370	2.122087	0.050010
1707	8.5300e-01	-11.7783	-85.300035	0.000465	4.647016	1.574452	0.037105
1708	8.5350e-01	-11.7414	-85.102414	0.000495	4.950082	1.677133	0.039524
1709	8.5400e-01	-11.7061	-84.884626	0.000546	5.455193	1.848269	0.043557
1710	8.5450e-01	-11.6644	-84.727335	0.000394	3.939862	1.334861	0.031458
1711	8.5500e-01	-11.6211	-84.521647	0.000515	5.152127	1.745588	0.041138
1712	8.5550e-01	-11.5906	-84.199000	0.000808	8.081767	2.738177	0.064530
1713	8.5600e-01	-11.5425	-84.049775	0.000374	3.737817	1.266407	0.029845
1714	8.5650e-01	-11.5040	-83.807789	0.000606	6.061325	2.053633	0.048397
1715	8.5700e-01	-11.4655	-83.602101	0.000515	5.152127	1.745588	0.041138
1716	8.5750e-01	-11.4270	-83.618233	-0.000040	-0.404088	-0.136909	-0.003226
1717	8.5800e-01	-11.3804	-83.299619	0.000798	7.980745	2.703950	0.063723
1718	8.5850e-01	-11.3419	-83.154427	0.000364	3.636795	1.232180	0.029038
1719	8.5900e-01	-11.2938	-82.823713	0.000828	8.283811	2.806631	0.066143
1720	8.5950e-01	-11.2585	-82.670455	0.000384	3.838839	1.300634	0.030652
1721	8.6000e-01	-11.2216	-82.609959	0.000152	1.515331	0.513408	0.012099
1722	8.6050e-01	-11.1863	-82.202616	0.001020	10.203231	3.456948	0.081469
1723	8.6100e-01	-11.1446	-81.827538	0.000940	9.395054	3.183131	0.075016
1724	8.6150e-01	-11.1013	-81.605717	0.000556	5.556215	1.882497	0.044364
1725	8.6200e-01	-11.0580	-81.464559	0.000354	3.535773	1.197952	0.028232
1726	8.6250e-01	-11.0243	-81.170142	0.000737	7.374613	2.498586	0.058883
1727	8.6300e-01	-10.9922	-81.105613	0.000162	1.616353	0.547635	0.012906
1728	8.6350e-01	-10.9377	-81.061249	0.000111	1.111243	0.376499	0.008873
1729	8.6400e-01	-10.8943	-80.932190	0.000323	3.232707	1.095271	0.025812
1730	8.6450e-01	-10.8655	-80.686171	0.000616	6.162348	2.087860	0.049204
1731	8.6500e-01	-10.8270	-80.367556	0.000798	7.980745	2.703950	0.063723
1732	8.6550e-01	-10.7853	-80.040875	0.000818	8.182789	2.772404	0.065336
1733	8.6600e-01	-10.7484	-79.770657	0.000677	6.768480	2.293223	0.054044
1734	8.6650e-01	-10.6986	-79.710161	0.000152	1.515331	0.513408	0.012099
1735	8.6700e-01	-10.6617	-79.496407	0.000535	5.354171	1.814042	0.042751
1736	8.6750e-01	-10.6232	-79.085030	0.001030	10.304253	3.491176	0.082275
1737	8.6800e-01	-10.5799	-78.822879	0.000657	6.566436	2.224769	0.052430
1738	8.6850e-01	-10.5414	-78.818846	0.000010	0.101022	0.034227	0.000807
1739	8.6900e-01	-10.5013	-78.564761	0.000636	6.364392	2.156314	0.050817
1740	8.6950e-01	-10.4596	-78.463933	0.000253	2.525552	0.855680	0.020165
1741	8.7000e-01	-10.4227	-78.088855	0.000940	9.395054	3.183131	0.075016
1742	8.7050e-01	-10.3746	-78.000127	0.000222	2.222486	0.752999	0.017746
1743	8.7100e-01	-10.3409	-77.701678	0.000748	7.475635	2.532814	0.059690
1744	8.7150e-01	-10.2960	-77.621016	0.000202	2.020442	0.684544	0.016132
1745	8.7200e-01	-10.2559	-77.415328	0.000515	5.152127	1.745588	0.041138
1746	8.7250e-01	-10.2318	-76.999919	0.001041	10.405275	3.525403	0.083082
1747	8.7300e-01	-10.1821	-76.838595	0.000404	4.040884	1.369088	0.032265
1748	8.7350e-01	-10.1420	-76.645006	0.000485	4.849060	1.642906	0.038718
1749	8.7400e-01	-10.0986	-76.455450	0.000475	4.748038	1.608679	0.037911
1750	8.7450e-01	-10.0585	-76.031975	0.001061	10.607320	3.593857	0.084695
1751	8.7500e-01	-10.0136	-76.003743	0.000071	0.707155	0.239590	0.005646
1752	8.7550e-01	-9.9767	-75.822254	0.000455	4.545994	1.540224	0.036298
1753	8.7600e-01	-9.9382	-75.572202	0.000626	6.263370	2.122087	0.050010
1754	8.7650e-01	-9.8981	-75.362480	0.000525	5.253149	1.779815	0.041944
1755	8.7700e-01	-9.8660	-74.987402	0.000940	9.395054	3.183131	0.075016
1756	8.7750e-01	-9.8243	-74.797847	0.000475	4.748038	1.608679	0.037911
1757	8.7800e-01	-9.7874	-74.628457	0.000424	4.242928	1.437543	0.033878
1758	8.7850e-01	-9.7377	-74.281610	0.000869	8.687900	2.943540	0.069369
1759	8.7900e-01	-9.7072	-74.088021	0.000485	4.849060	1.642906	0.038718
1760	8.7950e-01	-9.6543	-73.898466	0.000475	4.748038	1.608679	0.037911
1761	8.8000e-01	-9.6222	-73.866201	0.000081	0.808177	0.273818	0.006453
1762	8.8050e-01	-9.5789	-73.612116	0.000636	6.364392	2.156314	0.050817
1763	8.8100e-01	-9.5436	-73.345931	0.000667	6.667458	2.258996	0.053237
1764	8.8150e-01	-9.4971	-73.192673	0.000384	3.838839	1.300634	0.030652
1765	8.8200e-01	-9.4650	-73.051515	0.000354	3.535773	1.197952	0.028232
1766	8.8250e-01	-9.4152	-72.700635	0.000879	8.788922	2.977767	0.070176
1767	8.8300e-01	-9.3783	-72.636106	0.000162	1.616353	0.547635	0.012906
1768	8.8350e-01	-9.3414	-72.067439	0.001424	14.244115	4.826037	0.113733
1769	8.8400e-01	-9.2997	-71.885949	0.000455	4.545994	1.540224	0.036298
1770	8.8450e-01	-9.2580	-71.688328	0.000495	4.950082	1.677133	0.039524
1771	8.8500e-01	-9.2275	-71.442309	0.000616	6.162348	2.087860	0.049204
1772	8.8550e-01	-9.1810	-71.434242	0.000020	0.202044	0.068454	0.001613
1773	8.8600e-01	-9.1425	-71.115628	0.000798	7.980745	2.703950	0.063723
1774	8.8650e-01	-9.0960	-70.784914	0.000828	8.283811	2.806631	0.066143
1775	8.8700e-01	-9.0575	-70.752649	0.000081	0.808177	0.273818	0.006453
1776	8.8750e-01	-9.0158	-70.494530	0.000647	6.465414	2.190542	0.051624
1777	8.8800e-01	-8.9821	-70.240445	0.000636	6.364392	2.156314	0.050817
1778	8.8850e-01	-8.9420	-70.228346	0.000030	0.303066	0.102682	0.002420
1779	8.8900e-01	-8.9019	-69.917797	0.000778	7.778701	2.635495	0.062110
1780	8.8950e-01	-8.8554	-69.498355	0.001051	10.506297	3.559630	0.083888
1781	8.9000e-01	-8.8233	-69.240237	0.000647	6.465414	2.190542	0.051624
1782	8.9050e-01	-8.7800	-69.018416	0.000556	5.556215	1.882497	0.044364
1783	8.9100e-01	-8.7415	-68.929688	0.000222	2.222486	0.752999	0.017746
1784	8.9150e-01	-8.6949	-68.748199	0.000455	4.545994	1.540224	0.036298
1785	8.9200e-01	-8.6613	-68.417485	0.000828	8.283811	2.806631	0.066143
1786	8.9250e-01	-8.6195	-68.010142	0.001020	10.203231	3.456948	0.081469
1787	8.9300e-01	-8.5794	-68.006109	0.000010	0.101022	0.034227	0.000807
1788	8.9350e-01	-8.5393	-67.756057	0.000626	6.263370	2.122087	0.050010
1789	8.9400e-01	-8.5056	-67.526170	0.000576	5.758259	1.950951	0.045977
1790	8.9450e-01	-8.4559	-67.284184	0.000606	6.061325	2.053633	0.048397
1791	8.9500e-01	-8.4302	-67.050264	0.000586	5.859281	1.985178	0.046784
1792	8.9550e-01	-8.3725	-66.876841	0.000434	4.343950	1.471770	0.034685
1793	8.9600e-01	-8.3372	-66.578392	0.000748	7.475635	2.532814	0.059690
1794	8.9650e-01	-8.2987	-66.187181	0.000980	9.799143	3.320039	0.078242
1795	8.9700e-01	-8.2618	-66.195247	-0.000020	-0.202044	-0.068454	-0.001613
1796	8.9750e-01	-8.2265	-65.804037	0.000980	9.799143	3.320039	0.078242
1797	8.9800e-01	-8.1816	-65.719342	0.000212	2.121464	0.718771	0.016939
1798	8.9850e-01	-8.1447	-65.449124	0.000677	6.768480	2.293223	0.054044
1799	8.9900e-01	-8.1062	-65.219237	0.000576	5.758259	1.950951	0.045977
1800	8.9950e-01	-8.0629	-64.819961	0.001000	10.001187	3.388494	0.079855
1801	9.0000e-01	-8.0131	-64.799795	0.000051	0.505110	0.171136	0.004033
1802	9.0050e-01	-7.9891	-64.461015	0.000849	8.485856	2.875086	0.067756
1803	9.0100e-01	-7.9458	-64.303724	0.000394	3.939862	1.334861	0.031458
1804	9.0150e-01	-7.9073	-64.085937	0.000546	5.455193	1.848269	0.043557
1805	9.0200e-01	-7.8607	-63.823785	0.000657	6.566436	2.224769	0.052430
1806	9.0250e-01	-7.8238	-63.581799	0.000606	6.061325	2.053633	0.048397
1807	9.0300e-01	-7.7757	-63.243019	0.000849	8.485856	2.875086	0.067756
1808	9.0350e-01	-7.7372	-63.259152	-0.000040	-0.404088	-0.136909	-0.003226
1809	9.0400e-01	-7.6987	-62.880040	0.000950	9.496077	3.217358	0.075822
1810	9.0450e-01	-7.6570	-62.694518	0.000465	4.647016	1.574452	0.037105
1811	9.0500e-01	-7.6249	-62.476730	0.000546	5.455193	1.848269	0.043557
1812	9.0550e-01	-7.5784	-62.133917	0.000859	8.586878	2.909313	0.068563
1813	9.0600e-01	-7.5463	-61.936295	0.000495	4.950082	1.677133	0.039524
1814	9.0650e-01	-7.4998	-61.815302	0.000303	3.030663	1.026816	0.024199
1815	9.0700e-01	-7.4581	-61.436191	0.000950	9.496077	3.217358	0.075822
1816	9.0750e-01	-7.4228	-61.311165	0.000313	3.131685	1.061044	0.025005
1817	9.0800e-01	-7.3731	-60.907855	0.001010	10.102209	3.422721	0.080662
1818	9.0850e-01	-7.3458	-60.766697	0.000354	3.535773	1.197952	0.028232
1819	9.0900e-01	-7.3009	-60.653770	0.000283	2.828619	0.958362	0.022585
1820	9.0950e-01	-7.2575	-60.573108	0.000202	2.020442	0.684544	0.016132
1821	9.1000e-01	-7.2190	-60.306923	0.000667	6.667458	2.258996	0.053237
1822	9.1050e-01	-7.1805	-59.960077	0.000869	8.687900	2.943540	0.069369
1823	9.1100e-01	-7.1469	-59.383344	0.001445	14.446159	4.894491	0.115347
1824	9.1150e-01	-7.0971	-59.419642	-0.000091	-0.909199	-0.308045	-0.007260
1825	9.1200e-01	-7.0554	-59.105060	0.000788	7.879723	2.669722	0.062916
1826	9.1250e-01	-7.0201	-58.923571	0.000455	4.545994	1.540224	0.036298
1827	9.1300e-01	-6.9816	-58.637221	0.000717	7.172568	2.430132	0.057270
1828	9.1350e-01	-6.9399	-58.645287	-0.000020	-0.202044	-0.068454	-0.001613
1829	9.1400e-01	-6.8998	-58.254076	0.000980	9.799143	3.320039	0.078242
1830	9.1450e-01	-6.8613	-57.818502	0.001091	10.910386	3.696539	0.087115
1831	9.1500e-01	-6.8228	-57.584582	0.000586	5.859281	1.985178	0.046784
1832	9.1550e-01	-6.7811	-57.507953	0.000192	1.919420	0.650317	0.015326
1833	9.1600e-01	-6.7394	-57.257901	0.000626	6.263370	2.122087	0.050010
1834	9.1650e-01	-6.6977	-57.108676	0.000374	3.737817	1.266407	0.029845
1835	9.1700e-01	-6.6624	-56.717466	0.000980	9.799143	3.320039	0.078242
1836	9.1750e-01	-6.6175	-56.640837	0.000192	1.919420	0.650317	0.015326
1837	9.1800e-01	-6.5709	-56.277858	0.000909	9.091988	3.080449	0.072596
1838	9.1850e-01	-6.5469	-56.064104	0.000535	5.354171	1.814042	0.042751
1839	9.1900e-01	-6.5084	-55.834217	0.000576	5.758259	1.950951	0.045977
1840	9.1950e-01	-6.4635	-55.382510	0.001131	11.314474	3.833448	0.090341
1841	9.2000e-01	-6.4314	-55.168756	0.000535	5.354171	1.814042	0.042751
1842	9.2050e-01	-6.3784	-55.075995	0.000232	2.323508	0.787226	0.018552
1843	9.2100e-01	-6.3479	-54.813843	0.000657	6.566436	2.224769	0.052430
1844	9.2150e-01	-6.3046	-54.462964	0.000879	8.788922	2.977767	0.070176
1845	9.2200e-01	-6.2677	-54.370202	0.000232	2.323508	0.787226	0.018552
1846	9.2250e-01	-6.2292	-54.116117	0.000636	6.364392	2.156314	0.050817
1847	9.2300e-01	-6.1875	-53.785403	0.000828	8.283811	2.806631	0.066143
1848	9.2350e-01	-6.1442	-53.547450	0.000596	5.960303	2.019405	0.047591
1849	9.2400e-01	-6.1057	-53.454689	0.000232	2.323508	0.787226	0.018552
1850	9.2450e-01	-6.0576	-53.047346	0.001020	10.203231	3.456948	0.081469
1851	9.2500e-01	-6.0175	-52.966684	0.000202	2.020442	0.684544	0.016132
1852	9.2550e-01	-5.9854	-52.724698	0.000606	6.061325	2.053633	0.048397
1853	9.2600e-01	-5.9469	-52.353653	0.000929	9.294032	3.148903	0.074209
1854	9.2650e-01	-5.9052	-52.216528	0.000343	3.434751	1.163725	0.027425
1855	9.2700e-01	-5.8603	-52.107634	0.000273	2.727596	0.924135	0.021779
1856	9.2750e-01	-5.8234	-51.607530	0.001253	12.526739	4.244174	0.100021
1857	9.2800e-01	-5.7833	-51.474437	0.000333	3.333729	1.129498	0.026618
1858	9.2850e-01	-5.7480	-51.204220	0.000677	6.768480	2.293223	0.054044
1859	9.2900e-01	-5.7063	-50.921903	0.000707	7.071546	2.395905	0.056463
1860	9.2950e-01	-5.6597	-50.728314	0.000485	4.849060	1.642906	0.038718
1861	9.3000e-01	-5.6244	-50.393567	0.000838	8.384834	2.840859	0.066949
1862	9.3050e-01	-5.5779	-50.320971	0.000182	1.818398	0.616090	0.014519
1863	9.3100e-01	-5.5474	-49.994290	0.000818	8.182789	2.772404	0.065336
1864	9.3150e-01	-5.5009	-49.595014	0.001000	10.001187	3.388494	0.079855
1865	9.3200e-01	-5.4624	-49.478054	0.000293	2.929641	0.992589	0.023392
1866	9.3250e-01	-5.4143	-49.163472	0.000788	7.879723	2.669722	0.062916
1867	9.3300e-01	-5.3854	-48.881155	0.000707	7.071546	2.395905	0.056463
1868	9.3350e-01	-5.3421	-48.643202	0.000596	5.960303	2.019405	0.047591
1869	9.3400e-01	-5.3036	-48.530275	0.000283	2.828619	0.958362	0.022585
1870	9.3450e-01	-5.2651	-48.251992	0.000697	6.970524	2.361678	0.055657
1871	9.3500e-01	-5.2234	-47.929344	0.000808	8.081767	2.738177	0.064530
1872	9.3550e-01	-5.1737	-47.655093	0.000687	6.869502	2.327450	0.054850
1873	9.3600e-01	-5.1416	-47.421173	0.000586	5.859281	1.985178	0.046784
1874	9.3650e-01	-5.1015	-47.324379	0.000242	2.424530	0.821453	0.019359
1875	9.3700e-01	-5.0694	-46.973499	0.000879	8.788922	2.977767	0.070176
1876	9.3750e-01	-5.0148	-46.844440	0.000323	3.232707	1.095271	0.025812
1877	9.3800e-01	-4.9876	-46.493561	0.000879	8.788922	2.977767	0.070176
1878	9.3850e-01	-4.9378	-46.348369	0.000364	3.636795	1.232180	0.029038
1879	9.3900e-01	-4.9106	-46.126549	0.000556	5.556215	1.882497	0.044364
1880	9.3950e-01	-4.8624	-45.836166	0.000727	7.273591	2.464359	0.058077
1881	9.4000e-01	-4.8143	-45.731305	0.000263	2.626574	0.889907	0.020972
1882	9.4050e-01	-4.7822	-45.505452	0.000566	5.657237	1.916724	0.045171
1883	9.4100e-01	-4.7389	-44.936785	0.001424	14.244115	4.826037	0.113733
1884	9.4150e-01	-4.7036	-44.751262	0.000465	4.647016	1.574452	0.037105
1885	9.4200e-01	-4.6603	-44.593971	0.000394	3.939862	1.334861	0.031458
1886	9.4250e-01	-4.6234	-44.243092	0.000879	8.788922	2.977767	0.070176
1887	9.4300e-01	-4.5833	-44.049503	0.000485	4.849060	1.642906	0.038718
1888	9.4350e-01	-4.5368	-43.722822	0.000818	8.182789	2.772404	0.065336
1889	9.4400e-01	-4.4983	-43.509068	0.000535	5.354171	1.814042	0.042751
1890	9.4450e-01	-4.4710	-43.178354	0.000828	8.283811	2.806631	0.066143
1891	9.4500e-01	-4.4277	-42.843606	0.000838	8.384834	2.840859	0.066949
1892	9.4550e-01	-4.3844	-42.524992	0.000798	7.980745	2.703950	0.063723
1893	9.4600e-01	-4.3394	-42.218476	0.000768	7.677679	2.601268	0.061303
1894	9.4650e-01	-4.3138	-42.222509	-0.000010	-0.101022	-0.034227	-0.000807
1895	9.4700e-01	-4.2641	-41.819199	0.001010	10.102209	3.422721	0.080662
1896	9.4750e-01	-4.2320	-41.581247	0.000596	5.960303	2.019405	0.047591
1897	9.4800e-01	-4.1742	-41.302963	0.000697	6.970524	2.361678	0.055657
1898	9.4850e-01	-4.1453	-41.254566	0.000121	1.212265	0.410727	0.009679
1899	9.4900e-01	-4.0972	-40.923852	0.000828	8.283811	2.806631	0.066143
1900	9.4950e-01	-4.0683	-40.589104	0.000838	8.384834	2.840859	0.066949
1901	9.5000e-01	-4.0218	-40.177728	0.001030	10.304253	3.491176	0.082275
1902	9.5050e-01	-3.9785	-40.060768	0.000293	2.929641	0.992589	0.023392
1903	9.5100e-01	-3.9400	-39.895411	0.000414	4.141906	1.403316	0.033071
1904	9.5150e-01	-3.9063	-39.536466	0.000899	8.990966	3.046222	0.071789
1905	9.5200e-01	-3.8662	-39.250116	0.000717	7.172568	2.430132	0.057270
1906	9.5250e-01	-3.8133	-39.157354	0.000232	2.323508	0.787226	0.018552
1907	9.5300e-01	-3.7828	-38.754044	0.001010	10.102209	3.422721	0.080662
1908	9.5350e-01	-3.7443	-38.503992	0.000626	6.263370	2.122087	0.050010
1909	9.5400e-01	-3.7026	-38.141013	0.000909	9.091988	3.080449	0.072596
1910	9.5450e-01	-3.6689	-38.032120	0.000273	2.727596	0.924135	0.021779
1911	9.5500e-01	-3.6240	-37.729637	0.000758	7.576657	2.567041	0.060496
1912	9.5550e-01	-3.5871	-37.560247	0.000424	4.242928	1.437543	0.033878
1913	9.5600e-01	-3.5470	-37.221467	0.000849	8.485856	2.875086	0.067756
1914	9.5650e-01	-3.4908	-36.947216	0.000687	6.869502	2.327450	0.054850
1915	9.5700e-01	-3.4523	-36.838323	0.000273	2.727596	0.924135	0.021779
1916	9.5750e-01	-3.4250	-36.660866	0.000444	4.444972	1.505997	0.035491
1917	9.5800e-01	-3.3881	-36.201093	0.001152	11.516518	3.901902	0.091955
1918	9.5850e-01	-3.3400	-36.100266	0.000253	2.525552	0.855680	0.020165
1919	9.5900e-01	-3.2983	-35.797783	0.000758	7.576657	2.567041	0.060496
1920	9.5950e-01	-3.2566	-35.430771	0.000919	9.193010	3.114676	0.073402
1921	9.6000e-01	-3.2293	-35.035528	0.000990	9.900165	3.354267	0.079049
1922	9.6050e-01	-3.1876	-34.991163	0.000111	1.111243	0.376499	0.008873
1923	9.6100e-01	-3.1475	-34.761277	0.000576	5.758259	1.950951	0.045977
1924	9.6150e-01	-3.1010	-34.386199	0.000940	9.395054	3.183131	0.075016
1925	9.6200e-01	-3.0705	-33.938525	0.001121	11.213452	3.799220	0.089535
1926	9.6250e-01	-3.0192	-33.801399	0.000343	3.434751	1.163725	0.027425
1927	9.6300e-01	-2.9742	-33.515049	0.000717	7.172568	2.430132	0.057270
1928	9.6350e-01	-2.9422	-33.523116	-0.000020	-0.202044	-0.068454	-0.001613
1929	9.6400e-01	-2.9037	-33.180302	0.000859	8.586878	2.909313	0.068563
1930	9.6450e-01	-2.8523	-32.885886	0.000737	7.374613	2.498586	0.058883
1931	9.6500e-01	-2.8218	-32.522907	0.000909	9.091988	3.080449	0.072596
1932	9.6550e-01	-2.7817	-32.381749	0.000354	3.535773	1.197952	0.028232
1933	9.6600e-01	-2.7368	-31.877611	0.001263	12.627761	4.278401	0.100827
1934	9.6650e-01	-2.7031	-31.897777	-0.000051	-0.505110	-0.171136	-0.004033
1935	9.6700e-01	-2.6662	-31.409772	0.001222	12.223673	4.141493	0.097601
1936	9.6750e-01	-2.6293	-31.288779	0.000303	3.030663	1.026816	0.024199
1937	9.6800e-01	-2.5908	-31.034694	0.000636	6.364392	2.156314	0.050817
1938	9.6850e-01	-2.5379	-30.820940	0.000535	5.354171	1.814042	0.042751
1939	9.6900e-01	-2.5010	-30.591053	0.000576	5.758259	1.950951	0.045977
1940	9.6950e-01	-2.4577	-30.207909	0.000960	9.597099	3.251585	0.076629
1941	9.7000e-01	-2.4160	-29.715871	0.001232	12.324695	4.175720	0.098408
1942	9.7050e-01	-2.3775	-29.578745	0.000343	3.434751	1.163725	0.027425
1943	9.7100e-01	-2.3486	-29.296428	0.000707	7.071546	2.395905	0.056463
1944	9.7150e-01	-2.3005	-29.227866	0.000172	1.717376	0.581863	0.013713
1945	9.7200e-01	-2.2523	-28.917317	0.000778	7.778701	2.635495	0.062110
1946	9.7250e-01	-2.2203	-28.489809	0.001071	10.708342	3.628084	0.085502
1947	9.7300e-01	-2.1850	-28.292187	0.000495	4.950082	1.677133	0.039524
1948	9.7350e-01	-2.1320	-27.997770	0.000737	7.374613	2.498586	0.058883
1949	9.7400e-01	-2.0951	-27.848546	0.000374	3.737817	1.266407	0.029845
1950	9.7450e-01	-2.0598	-27.465401	0.000960	9.597099	3.251585	0.076629
1951	9.7500e-01	-2.0117	-27.296011	0.000424	4.242928	1.437543	0.033878
1952	9.7550e-01	-1.9876	-27.203250	0.000232	2.323508	0.787226	0.018552
1953	9.7600e-01	-1.9411	-26.723311	0.001202	12.021629	4.073038	0.095988
1954	9.7650e-01	-1.8962	-26.481325	0.000606	6.061325	2.053633	0.048397
1955	9.7700e-01	-1.8609	-26.412763	0.000172	1.717376	0.581863	0.013713
1956	9.7750e-01	-1.8240	-25.827963	0.001465	14.648203	4.962946	0.116960
1957	9.7800e-01	-1.7919	-25.485150	0.000859	8.586878	2.909313	0.068563
1958	9.7850e-01	-1.7406	-25.352058	0.000333	3.333729	1.129498	0.026618
1959	9.7900e-01	-1.7069	-25.162502	0.000475	4.748038	1.608679	0.037911
1960	9.7950e-01	-1.6604	-24.799523	0.000909	9.091988	3.080449	0.072596
1961	9.8000e-01	-1.6219	-24.533339	0.000667	6.667458	2.258996	0.053237
1962	9.8050e-01	-1.5721	-24.372015	0.000404	4.040884	1.369088	0.032265
1963	9.8100e-01	-1.5369	-24.025168	0.000869	8.687900	2.943540	0.069369
1964	9.8150e-01	-1.5064	-23.940473	0.000212	2.121464	0.718771	0.016939
1965	9.8200e-01	-1.4599	-23.666223	0.000687	6.869502	2.327450	0.054850
1966	9.8250e-01	-1.4230	-23.154019	0.001283	12.829806	4.346856	0.102441
1967	9.8300e-01	-1.3796	-23.154019	0.000000	0.000000	0.000000	0.000000
1968	9.8350e-01	-1.3508	-22.823305	0.000828	8.283811	2.806631	0.066143
1969	9.8400e-01	-1.3010	-22.520823	0.000758	7.576657	2.567041	0.060496
1970	9.8450e-01	-1.2689	-22.109447	0.001030	10.304253	3.491176	0.082275
1971	9.8500e-01	-1.2192	-21.891659	0.000546	5.455193	1.848269	0.043557
1972	9.8550e-01	-1.1855	-21.520614	0.000929	9.294032	3.148903	0.074209
1973	9.8600e-01	-1.1438	-21.318959	0.000505	5.051105	1.711361	0.040331
1974	9.8650e-01	-1.0973	-20.964047	0.000889	8.889944	3.011995	0.070983
1975	9.8700e-01	-1.0636	-20.726094	0.000596	5.960303	2.019405	0.047591
1976	9.8750e-01	-1.0219	-20.516373	0.000525	5.253149	1.779815	0.041944
1977	9.8800e-01	-0.9722	-20.270354	0.000616	6.162348	2.087860	0.049204
1978	9.8850e-01	-0.9289	-19.971904	0.000748	7.475635	2.532814	0.059690
1979	9.8900e-01	-0.9064	-19.528263	0.001111	11.112430	3.764993	0.088728
1980	9.8950e-01	-0.8518	-19.379039	0.000374	3.737817	1.266407	0.029845
1981	9.9000e-01	-0.8214	-18.975729	0.001010	10.102209	3.422721	0.080662
1982	9.9050e-01	-0.7781	-18.882968	0.000232	2.323508	0.787226	0.018552
1983	9.9100e-01	-0.7315	-18.653081	0.000576	5.758259	1.950951	0.045977
1984	9.9150e-01	-0.7027	-18.265904	0.000970	9.698121	3.285812	0.077435
1985	9.9200e-01	-0.6593	-17.939223	0.000818	8.182789	2.772404	0.065336
1986	9.9250e-01	-0.6208	-17.749667	0.000475	4.748038	1.608679	0.037911
1987	9.9300e-01	-0.5775	-17.519780	0.000576	5.758259	1.950951	0.045977
1988	9.9350e-01	-0.5374	-17.233430	0.000717	7.172568	2.430132	0.057270
1989	9.9400e-01	-0.4909	-17.060007	0.000434	4.343950	1.471770	0.034685
1990	9.9450e-01	-0.4620	-16.652664	0.001020	10.203231	3.456948	0.081469
1991	9.9500e-01	-0.4315	-16.168692	0.001212	12.122651	4.107265	0.096794
1992	9.9550e-01	-0.3866	-16.063832	0.000263	2.626574	0.889907	0.020972
1993	9.9600e-01	-0.3385	-15.628257	0.001091	10.910386	3.696539	0.087115
1994	9.9650e-01	-0.3000	-15.450801	0.000444	4.444972	1.505997	0.035491
1995	9.9700e-01	-0.2583	-15.228980	0.000556	5.556215	1.882497	0.044364
1996	9.9750e-01	-0.2198	-15.019259	0.000525	5.253149	1.779815	0.041944
1997	9.9800e-01	-0.1845	-14.793406	0.000566	5.657237	1.916724	0.045171
1998	9.9850e-01	-0.1428	-14.648214	0.000364	3.636795	1.232180	0.029038
1999	9.9900e-01	-0.1043	-14.269103	0.000950	9.496077	3.217358	0.075822
2000	9.9950e-01	-0.0610	-14.091647	0.000444	4.444972	1.505997	0.035491
2001	1.0000e+00	-0.0160	-13.680270	0.000444	4.444972	1.505997	0.082275

PMax (uC/cm2):	1.33e+02
Pr (uC/cm2):	6.25e+00
-Pr (uC/cm2):	-3.17e+00
PLoss (uC/cm2):	-3.06e+00
-Vc:	-8.82e-01
C (Max-Eff) (nF):	6.66e-01
K (Eff):	2.26e+03
Vert. (+/-Pr) Shift (uC/cm2):	1.54e+00
Offset (uC/cm2):	1.05e+01

A (Loop Area - uC/cm2·Volts):	-4.06e-02



Hysteresis Version: 5.48.1 - Radiant Technologies, Inc., 1999 - 9/12/24

