»»»»»»»»»»»»»»»»»»»»»»»»»»»»»»»»»»»» Hysteresis ««««««««««««««««««««««««««««««««««««
»»»  Executed Version:	5.48.1
»»»  Vision Version:	5.48.4 (R)
»»»  Vision Compiled:	9/18/24
»»»  Driver Version:	5.47.0
»»»  Windows Version:	Windows 8 or 8.1
»»»  Processor Information:	x86 (AMD or Intel) - 32 Processors
»»»  Tester Name:	PMF21124-494 (100V)
»»»  Tester S/N:	PMF21124-494
»»»  Internal Amp Type:	100V RevK 270k
»»»  Internal Amp S/N:	iAB2-596/K     
»»»  Execution Count:	1
»»»»»»»»»»»»»»»»»»»»»»»»»»»»»»»»»»»»»»»»»»««««««««««««««««««««««««««««««««««««««««««

Stored:	6/18/2025 - 15:44:14
Configured:	06/18/25 09:47:30 AM
Executed:	06/18/25 03:43:42 PM

»»»»»»»»»»»»»»»»»»»»»»»»»»»»»»»»»»» Sample Info ««««««««««««««««««««««««««««««««««««
Sample Name:	
Lot Name:	
Wafer Name:	
Die Row/Column:	0/0
Capacitor Number:	0
Sample Area (cm2):	1.00e-04
Sample Thickness (microns):	3.00e-01

Amplifier:	Internal

»»»»»»»»»»»»»»»»»»»»»»»»»»»»»»»»»»» Tester Info «««««««««««««««««««««««««««««««««««
Tester Name:	PMF21124-494 (100V)
Tester Serial Number:	PMF21124-494
Return Signal Amp. Level:	0.19 [Index: 3]

»»»»»»»»»»»»»»»»»»»»»»»»»»»»»»»» Hysteresis Info ««««««««««««««««««««««««««««««««««
Task Name:	Hyst-554
Volts:	20.00
Field:	666.67 (kV/cm)
DCBias:	0.00
DCField:	0.00 (kV/cm)
Hysteresis Period (ms):	2.00e+02
Preset:	Enabled
Preset Delay (ms):	1.00e+03
Profile:	Standard Bipolar

»»»»»»»»»»»»»»»»»»»»»»»»»»»»»»»»»»»»»» Data «««««««««««««««««««««««««««««««««««««««
Points:	2009

Valid Data

Point	Time (ms)	Drive Voltage	Measured Polarization (uC/cm2)	Capacitance (uF)	Normalized Capacitance (uF/cm2)	Dielectric Constant	Instantaneous Current (mA)
   1	0.0000e+00	0.0096	-6.180855	0.000395	3.951403	1.338772	0.000158
   2	9.9500e-02	0.0369	-6.023407	0.000395	3.951403	1.338772	0.000158
   3	1.9900e-01	0.0738	-5.720621	0.000760	7.598853	2.574561	0.000304
   4	2.9850e-01	0.1059	-5.498579	0.000557	5.572492	1.888011	0.000223
   5	3.9800e-01	0.1540	-5.228091	0.000679	6.788308	2.299941	0.000272
   6	4.9750e-01	0.1941	-5.026234	0.000507	5.065902	1.716374	0.000203
   7	5.9700e-01	0.2374	-4.751709	0.000689	6.889626	2.334269	0.000276
   8	6.9650e-01	0.2727	-4.590223	0.000405	4.052721	1.373099	0.000162
   9	7.9600e-01	0.3096	-4.352032	0.000598	5.977764	2.025321	0.000239
  10	8.9550e-01	0.3706	-4.077507	0.000689	6.889626	2.334269	0.000276
  11	9.9500e-01	0.3995	-3.871613	0.000517	5.167220	1.750701	0.000207
  12	1.0945e+00	0.4347	-3.629385	0.000608	6.079082	2.059649	0.000243
  13	1.1940e+00	0.4749	-3.379083	0.000628	6.281718	2.128304	0.000252
  14	1.2935e+00	0.5053	-3.132817	0.000618	6.180400	2.093976	0.000248
  15	1.3930e+00	0.5486	-2.922886	0.000527	5.268538	1.785029	0.000211
  16	1.4925e+00	0.5839	-2.688732	0.000588	5.876446	1.990994	0.000235
  17	1.5920e+00	0.6305	-2.381910	0.000770	7.700171	2.608888	0.000308
  18	1.6915e+00	0.6866	-2.167942	0.000537	5.369856	1.819356	0.000215
  19	1.7910e+00	0.7059	-1.905528	0.000659	6.585672	2.231286	0.000264
  20	1.8905e+00	0.7556	-1.663300	0.000608	6.079082	2.059649	0.000243
  21	1.9900e+00	0.7957	-1.384738	0.000699	6.990944	2.368596	0.000280
  22	2.0895e+00	0.8262	-1.138472	0.000618	6.180400	2.093976	0.000248
  23	2.1890e+00	0.8711	-0.876058	0.000659	6.585672	2.231286	0.000264
  24	2.2885e+00	0.9160	-0.625756	0.000628	6.281718	2.128304	0.000252
  25	2.3880e+00	0.9481	-0.379491	0.000618	6.180400	2.093976	0.000248
  26	2.4875e+00	0.9978	-0.145337	0.000588	5.876446	1.990994	0.000235
  27	2.5870e+00	1.0331	0.088817	0.000588	5.876446	1.990994	0.000235
  28	2.6865e+00	1.0700	0.314897	0.000567	5.673810	1.922339	0.000227
  29	2.7860e+00	1.1117	0.589422	0.000689	6.889626	2.334269	0.000276
  30	2.8855e+00	1.1567	0.807427	0.000547	5.471174	1.853684	0.000219
  31	2.9850e+00	1.1952	1.090027	0.000709	7.092263	2.402924	0.000284
  32	3.0845e+00	1.2288	1.348403	0.000648	6.484354	2.196959	0.000260
  33	3.1840e+00	1.2706	1.578520	0.000578	5.775128	1.956666	0.000231
  34	3.2835e+00	1.3074	1.820748	0.000608	6.079082	2.059649	0.000243
  35	3.3830e+00	1.3492	2.075088	0.000638	6.383036	2.162631	0.000256
  36	3.4825e+00	1.3893	2.353650	0.000699	6.990944	2.368596	0.000280
  37	3.5820e+00	1.4262	2.620101	0.000669	6.686990	2.265614	0.000268
  38	3.6815e+00	1.4695	2.878478	0.000648	6.484354	2.196959	0.000260
  39	3.7810e+00	1.5096	3.112632	0.000588	5.876446	1.990994	0.000235
  40	3.8805e+00	1.5593	3.395231	0.000709	7.092263	2.402924	0.000284
  41	3.9800e+00	1.5930	3.677831	0.000709	7.092263	2.402924	0.000284
  42	4.0795e+00	1.6283	3.968504	0.000729	7.294899	2.471579	0.000292
  43	4.1790e+00	1.6668	4.170361	0.000507	5.065902	1.716374	0.000203
  44	4.2785e+00	1.7165	4.444886	0.000689	6.889626	2.334269	0.000276
  45	4.3780e+00	1.7534	4.687115	0.000608	6.079082	2.059649	0.000243
  46	4.4775e+00	1.7935	4.909157	0.000557	5.572492	1.888011	0.000223
  47	4.5770e+00	1.8320	5.163497	0.000638	6.383036	2.162631	0.000256
  48	4.6765e+00	1.8673	5.417836	0.000638	6.383036	2.162631	0.000256
  49	4.7760e+00	1.9042	5.651990	0.000588	5.876446	1.990994	0.000235
  50	4.8755e+00	1.9507	5.954775	0.000760	7.598853	2.574561	0.000304
  51	4.9750e+00	1.9941	6.197003	0.000608	6.079082	2.059649	0.000243
  52	5.0745e+00	2.0294	6.483640	0.000719	7.193581	2.437251	0.000288
  53	5.1740e+00	2.0630	6.701645	0.000547	5.471174	1.853684	0.000219
  54	5.2735e+00	2.1015	6.980208	0.000699	6.990944	2.368596	0.000280
  55	5.3730e+00	2.1513	7.238584	0.000648	6.484354	2.196959	0.000260
  56	5.4725e+00	2.1769	7.553481	0.000790	7.902807	2.677543	0.000316
  57	5.5720e+00	2.2251	7.795709	0.000608	6.079082	2.059649	0.000243
  58	5.6715e+00	2.2652	8.122717	0.000821	8.206761	2.780526	0.000329
  59	5.7710e+00	2.3101	8.348797	0.000567	5.673810	1.922339	0.000227
  60	5.8705e+00	2.3502	8.619285	0.000679	6.788308	2.299941	0.000272
  61	5.9700e+00	2.3887	8.861513	0.000608	6.079082	2.059649	0.000243
  62	6.0695e+00	2.4320	9.148150	0.000719	7.193581	2.437251	0.000288
  63	6.1690e+00	2.4657	9.382303	0.000588	5.876446	1.990994	0.000235
  64	6.2685e+00	2.5138	9.596272	0.000537	5.369856	1.819356	0.000215
  65	6.3680e+00	2.5475	9.903094	0.000770	7.700171	2.608888	0.000308
  66	6.4675e+00	2.6005	10.141285	0.000598	5.977764	2.025321	0.000239
  67	6.5670e+00	2.6293	10.472330	0.000831	8.308079	2.814853	0.000333
  68	6.6665e+00	2.6694	10.682261	0.000527	5.268538	1.785029	0.000211
  69	6.7660e+00	2.7047	10.928526	0.000618	6.180400	2.093976	0.000248
  70	6.8655e+00	2.7416	11.231312	0.000760	7.598853	2.574561	0.000304
  71	6.9650e+00	2.7914	11.501800	0.000679	6.788308	2.299941	0.000272
  72	7.0645e+00	2.8234	11.756139	0.000638	6.383036	2.162631	0.000256
  73	7.1640e+00	2.8668	12.030664	0.000689	6.889626	2.334269	0.000276
  74	7.2635e+00	2.9069	12.297115	0.000669	6.686990	2.265614	0.000268
  75	7.3630e+00	2.9454	12.603938	0.000770	7.700171	2.608888	0.000308
  76	7.4625e+00	2.9871	12.878463	0.000689	6.889626	2.334269	0.000276
  77	7.5620e+00	3.0224	13.165100	0.000719	7.193581	2.437251	0.000288
  78	7.6615e+00	3.0657	13.423476	0.000648	6.484354	2.196959	0.000260
  79	7.7610e+00	3.1010	13.693964	0.000679	6.788308	2.299941	0.000272
  80	7.8605e+00	3.1491	13.936193	0.000608	6.079082	2.059649	0.000243
  81	7.9600e+00	3.1860	14.186495	0.000628	6.281718	2.128304	0.000252
  82	8.0595e+00	3.2245	14.465057	0.000699	6.990944	2.368596	0.000280
  83	8.1590e+00	3.2662	14.691137	0.000567	5.673810	1.922339	0.000227
  84	8.2585e+00	3.3047	14.961625	0.000679	6.788308	2.299941	0.000272
  85	8.3580e+00	3.3528	15.228076	0.000669	6.686990	2.265614	0.000268
  86	8.4575e+00	3.3978	15.478378	0.000628	6.281718	2.128304	0.000252
  87	8.5570e+00	3.4282	15.813461	0.000841	8.409397	2.849181	0.000337
  88	8.6565e+00	3.4651	16.092023	0.000699	6.990944	2.368596	0.000280
  89	8.7560e+00	3.4988	16.342325	0.000628	6.281718	2.128304	0.000252
  90	8.8555e+00	3.5470	16.576479	0.000588	5.876446	1.990994	0.000235
  91	8.9550e+00	3.5839	16.879265	0.000760	7.598853	2.574561	0.000304
  92	9.0545e+00	3.6175	17.173975	0.000740	7.396217	2.505906	0.000296
  93	9.1540e+00	3.6593	17.484835	0.000780	7.801489	2.643216	0.000312
  94	9.2535e+00	3.6978	17.714952	0.000578	5.775128	1.956666	0.000231
  95	9.3530e+00	3.7411	18.009663	0.000740	7.396217	2.505906	0.000296
  96	9.4525e+00	3.7844	18.264002	0.000638	6.383036	2.162631	0.000256
  97	9.5520e+00	3.8293	18.591010	0.000821	8.206761	2.780526	0.000329
  98	9.6515e+00	3.8566	18.825164	0.000588	5.876446	1.990994	0.000235
  99	9.7510e+00	3.9063	19.103726	0.000699	6.990944	2.368596	0.000280
 100	9.8505e+00	3.9336	19.337880	0.000588	5.876446	1.990994	0.000235
 101	9.9500e+00	3.9865	19.628554	0.000729	7.294899	2.471579	0.000292
 102	1.0050e+01	4.0218	19.890968	0.000659	6.585672	2.231286	0.000264
 103	1.0149e+01	4.0587	20.169530	0.000699	6.990944	2.368596	0.000280
 104	1.0248e+01	4.1149	20.427907	0.000648	6.484354	2.196959	0.000260
 105	1.0348e+01	4.1502	20.734729	0.000770	7.700171	2.608888	0.000308
 106	1.0447e+01	4.1758	20.997143	0.000659	6.585672	2.231286	0.000264
 107	1.0547e+01	4.2255	21.291854	0.000740	7.396217	2.505906	0.000296
 108	1.0646e+01	4.2608	21.554268	0.000659	6.585672	2.231286	0.000264
 109	1.0746e+01	4.2977	21.877239	0.000811	8.105443	2.746198	0.000325
 110	1.0845e+01	4.3411	22.123504	0.000618	6.180400	2.093976	0.000248
 111	1.0945e+01	4.3828	22.454549	0.000831	8.308079	2.814853	0.000333
 112	1.1044e+01	4.4261	22.729074	0.000689	6.889626	2.334269	0.000276
 113	1.1144e+01	4.4614	23.007637	0.000699	6.990944	2.368596	0.000280
 114	1.1243e+01	4.5031	23.342719	0.000841	8.409397	2.849181	0.000337
 115	1.1343e+01	4.5368	23.593021	0.000628	6.281718	2.128304	0.000252
 116	1.1443e+01	4.5769	23.843324	0.000628	6.281718	2.128304	0.000252
 117	1.1542e+01	4.6186	24.117849	0.000689	6.889626	2.334269	0.000276
 118	1.1642e+01	4.6699	24.388337	0.000679	6.788308	2.299941	0.000272
 119	1.1741e+01	4.7036	24.642677	0.000638	6.383036	2.162631	0.000256
 120	1.1841e+01	4.7341	24.909128	0.000669	6.686990	2.265614	0.000268
 121	1.1940e+01	4.7854	25.232098	0.000811	8.105443	2.746198	0.000325
 122	1.2040e+01	4.8191	25.450104	0.000547	5.471174	1.853684	0.000219
 123	1.2139e+01	4.8624	25.769037	0.000800	8.004125	2.711871	0.000321
 124	1.2239e+01	4.9025	26.039526	0.000679	6.788308	2.299941	0.000272
 125	1.2338e+01	4.9298	26.301939	0.000659	6.585672	2.231286	0.000264
 126	1.2438e+01	4.9827	26.576465	0.000689	6.889626	2.334269	0.000276
 127	1.2537e+01	5.0180	26.871175	0.000740	7.396217	2.505906	0.000296
 128	1.2636e+01	5.0565	27.173961	0.000760	7.598853	2.574561	0.000304
 129	1.2736e+01	5.0918	27.460597	0.000719	7.193581	2.437251	0.000288
 130	1.2835e+01	5.1368	27.763382	0.000760	7.598853	2.574561	0.000304
 131	1.2935e+01	5.1720	28.058093	0.000740	7.396217	2.505906	0.000296
 132	1.3034e+01	5.2266	28.320507	0.000659	6.585672	2.231286	0.000264
 133	1.3134e+01	5.2651	28.607144	0.000719	7.193581	2.437251	0.000288
 134	1.3233e+01	5.3004	28.885706	0.000699	6.990944	2.368596	0.000280
 135	1.3333e+01	5.3405	29.176380	0.000729	7.294899	2.471579	0.000292
 136	1.3432e+01	5.3694	29.382274	0.000517	5.167220	1.750701	0.000207
 137	1.3532e+01	5.4063	29.681022	0.000750	7.497535	2.540234	0.000300
 138	1.3632e+01	5.4608	29.971696	0.000729	7.294899	2.471579	0.000292
 139	1.3731e+01	5.5009	30.238147	0.000669	6.686990	2.265614	0.000268
 140	1.3831e+01	5.5474	30.553043	0.000790	7.902807	2.677543	0.000316
 141	1.3930e+01	5.5795	30.811420	0.000648	6.484354	2.196959	0.000260
 142	1.4030e+01	5.6052	31.061722	0.000628	6.281718	2.128304	0.000252
 143	1.4129e+01	5.6629	31.356433	0.000740	7.396217	2.505906	0.000296
 144	1.4229e+01	5.6998	31.663256	0.000770	7.700171	2.608888	0.000308
 145	1.4328e+01	5.7383	31.953929	0.000729	7.294899	2.471579	0.000292
 146	1.4428e+01	5.7704	32.208269	0.000638	6.383036	2.162631	0.000256
 147	1.4527e+01	5.8105	32.478757	0.000679	6.788308	2.299941	0.000272
 148	1.4627e+01	5.8522	32.797691	0.000800	8.004125	2.711871	0.000321
 149	1.4726e+01	5.8875	33.088365	0.000729	7.294899	2.471579	0.000292
 150	1.4825e+01	5.9389	33.439595	0.000881	8.814669	2.986491	0.000353
 151	1.4925e+01	5.9774	33.689898	0.000628	6.281718	2.128304	0.000252
 152	1.5024e+01	6.0127	33.936163	0.000618	6.180400	2.093976	0.000248
 153	1.5124e+01	6.0576	34.247022	0.000780	7.801489	2.643216	0.000312
 154	1.5223e+01	6.0977	34.521548	0.000689	6.889626	2.334269	0.000276
 155	1.5323e+01	6.1346	34.767813	0.000618	6.180400	2.093976	0.000248
 156	1.5422e+01	6.1651	35.026190	0.000648	6.484354	2.196959	0.000260
 157	1.5522e+01	6.2164	35.337049	0.000780	7.801489	2.643216	0.000312
 158	1.5621e+01	6.2533	35.607537	0.000679	6.788308	2.299941	0.000272
 159	1.5721e+01	6.2934	35.926471	0.000800	8.004125	2.711871	0.000321
 160	1.5820e+01	6.3287	36.188885	0.000659	6.585672	2.231286	0.000264
 161	1.5920e+01	6.3720	36.475521	0.000719	7.193581	2.437251	0.000288
 162	1.6020e+01	6.4121	36.750047	0.000689	6.889626	2.334269	0.000276
 163	1.6119e+01	6.4538	37.028609	0.000699	6.990944	2.368596	0.000280
 164	1.6218e+01	6.4955	37.278911	0.000628	6.281718	2.128304	0.000252
 165	1.6318e+01	6.5356	37.581697	0.000760	7.598853	2.574561	0.000304
 166	1.6418e+01	6.5645	37.872370	0.000729	7.294899	2.471579	0.000292
 167	1.6517e+01	6.6078	38.167081	0.000740	7.396217	2.505906	0.000296
 168	1.6616e+01	6.6592	38.502164	0.000841	8.409397	2.849181	0.000337
 169	1.6716e+01	6.6929	38.776689	0.000689	6.889626	2.334269	0.000276
 170	1.6816e+01	6.7153	39.067363	0.000729	7.294899	2.471579	0.000292
 171	1.6915e+01	6.7731	39.305554	0.000598	5.977764	2.025321	0.000239
 172	1.7015e+01	6.8148	39.604302	0.000750	7.497535	2.540234	0.000300
 173	1.7114e+01	6.8453	39.846530	0.000608	6.079082	2.059649	0.000243
 174	1.7213e+01	6.8838	40.153352	0.000770	7.700171	2.608888	0.000308
 175	1.7313e+01	6.9303	40.415766	0.000659	6.585672	2.231286	0.000264
 176	1.7413e+01	6.9672	40.702403	0.000719	7.193581	2.437251	0.000288
 177	1.7512e+01	7.0073	40.972891	0.000679	6.788308	2.299941	0.000272
 178	1.7611e+01	7.0490	41.247416	0.000689	6.889626	2.334269	0.000276
 179	1.7711e+01	7.0923	41.538090	0.000729	7.294899	2.471579	0.000292
 180	1.7811e+01	7.1308	41.824726	0.000719	7.193581	2.437251	0.000288
 181	1.7910e+01	7.1709	42.123474	0.000750	7.497535	2.540234	0.000300
 182	1.8009e+01	7.2126	42.357628	0.000588	5.876446	1.990994	0.000235
 183	1.8109e+01	7.2527	42.652339	0.000740	7.396217	2.505906	0.000296
 184	1.8209e+01	7.2848	42.971273	0.000800	8.004125	2.711871	0.000321
 185	1.8308e+01	7.3265	43.274058	0.000760	7.598853	2.574561	0.000304
 186	1.8407e+01	7.3666	43.544546	0.000679	6.788308	2.299941	0.000272
 187	1.8507e+01	7.4003	43.843294	0.000750	7.497535	2.540234	0.000300
 188	1.8607e+01	7.4485	44.117819	0.000689	6.889626	2.334269	0.000276
 189	1.8706e+01	7.4886	44.436753	0.000800	8.004125	2.711871	0.000321
 190	1.8805e+01	7.5319	44.691093	0.000638	6.383036	2.162631	0.000256
 191	1.8905e+01	7.5656	44.957544	0.000669	6.686990	2.265614	0.000268
 192	1.9005e+01	7.6105	45.223995	0.000669	6.686990	2.265614	0.000268
 193	1.9104e+01	7.6474	45.498520	0.000689	6.889626	2.334269	0.000276
 194	1.9203e+01	7.6843	45.781119	0.000709	7.092263	2.402924	0.000284
 195	1.9303e+01	7.7260	46.011236	0.000578	5.775128	1.956666	0.000231
 196	1.9402e+01	7.7613	46.318058	0.000770	7.700171	2.608888	0.000308
 197	1.9502e+01	7.8110	46.588546	0.000679	6.788308	2.299941	0.000272
 198	1.9602e+01	7.8511	46.887294	0.000750	7.497535	2.540234	0.000300
 199	1.9701e+01	7.8848	47.173931	0.000719	7.193581	2.437251	0.000288
 200	1.9800e+01	7.9233	47.420196	0.000618	6.180400	2.093976	0.000248
 201	1.9900e+01	7.9666	47.763353	0.000861	8.612033	2.917836	0.000345
 202	2.0000e+01	7.9971	48.049990	0.000719	7.193581	2.437251	0.000288
 203	2.0099e+01	8.0500	48.360849	0.000780	7.801489	2.643216	0.000312
 204	2.0198e+01	8.0901	48.607114	0.000618	6.180400	2.093976	0.000248
 205	2.0298e+01	8.1270	48.917974	0.000780	7.801489	2.643216	0.000312
 206	2.0398e+01	8.1655	49.216722	0.000750	7.497535	2.540234	0.000300
 207	2.0497e+01	8.2057	49.475098	0.000648	6.484354	2.196959	0.000260
 208	2.0596e+01	8.2361	49.733475	0.000648	6.484354	2.196959	0.000260
 209	2.0696e+01	8.2778	50.016075	0.000709	7.092263	2.402924	0.000284
 210	2.0796e+01	8.3244	50.278488	0.000659	6.585672	2.231286	0.000264
 211	2.0895e+01	8.3677	50.540902	0.000659	6.585672	2.231286	0.000264
 212	2.0994e+01	8.4094	50.843687	0.000760	7.598853	2.574561	0.000304
 213	2.1094e+01	8.4447	51.114176	0.000679	6.788308	2.299941	0.000272
 214	2.1194e+01	8.4800	51.388701	0.000689	6.889626	2.334269	0.000276
 215	2.1293e+01	8.5169	51.663226	0.000689	6.889626	2.334269	0.000276
 216	2.1392e+01	8.5618	51.974085	0.000780	7.801489	2.643216	0.000312
 217	2.1492e+01	8.6035	52.264759	0.000729	7.294899	2.471579	0.000292
 218	2.1591e+01	8.6372	52.535247	0.000679	6.788308	2.299941	0.000272
 219	2.1691e+01	8.6805	52.825921	0.000729	7.294899	2.471579	0.000292
 220	2.1791e+01	8.7190	53.088335	0.000659	6.585672	2.231286	0.000264
 221	2.1890e+01	8.7623	53.447640	0.000902	9.017305	3.055146	0.000361
 222	2.1989e+01	8.7960	53.730240	0.000709	7.092263	2.402924	0.000284
 223	2.2089e+01	8.8361	53.984579	0.000638	6.383036	2.162631	0.000256
 224	2.2189e+01	8.8810	54.267179	0.000709	7.092263	2.402924	0.000284
 225	2.2288e+01	8.9227	54.606298	0.000851	8.510715	2.883508	0.000341
 226	2.2387e+01	8.9500	54.844489	0.000598	5.977764	2.025321	0.000239
 227	2.2487e+01	9.0030	55.171497	0.000821	8.206761	2.780526	0.000329
 228	2.2587e+01	9.0511	55.389502	0.000547	5.471174	1.853684	0.000219
 229	2.2686e+01	9.0880	55.655953	0.000669	6.686990	2.265614	0.000268
 230	2.2785e+01	9.1249	55.914330	0.000648	6.484354	2.196959	0.000260
 231	2.2885e+01	9.1538	56.217115	0.000760	7.598853	2.574561	0.000304
 232	2.2985e+01	9.2051	56.487603	0.000679	6.788308	2.299941	0.000272
 233	2.3084e+01	9.2468	56.786351	0.000750	7.497535	2.540234	0.000300
 234	2.3183e+01	9.2805	57.093174	0.000770	7.700171	2.608888	0.000308
 235	2.3283e+01	9.3254	57.339439	0.000618	6.180400	2.093976	0.000248
 236	2.3383e+01	9.3607	57.622038	0.000709	7.092263	2.402924	0.000284
 237	2.3482e+01	9.3992	57.924824	0.000760	7.598853	2.574561	0.000304
 238	2.3581e+01	9.4425	58.219534	0.000740	7.396217	2.505906	0.000296
 239	2.3681e+01	9.4826	58.538468	0.000800	8.004125	2.711871	0.000321
 240	2.3780e+01	9.5227	58.792808	0.000638	6.383036	2.162631	0.000256
 241	2.3880e+01	9.5644	59.063296	0.000679	6.788308	2.299941	0.000272
 242	2.3980e+01	9.5965	59.402415	0.000851	8.510715	2.883508	0.000341
 243	2.4079e+01	9.6366	59.680978	0.000699	6.990944	2.368596	0.000280
 244	2.4178e+01	9.6848	59.955503	0.000689	6.889626	2.334269	0.000276
 245	2.4278e+01	9.7152	60.201768	0.000618	6.180400	2.093976	0.000248
 246	2.4378e+01	9.7650	60.500516	0.000750	7.497535	2.540234	0.000300
 247	2.4477e+01	9.7938	60.750819	0.000628	6.281718	2.128304	0.000252
 248	2.4576e+01	9.8388	61.033418	0.000709	7.092263	2.402924	0.000284
 249	2.4676e+01	9.8789	61.275646	0.000608	6.079082	2.059649	0.000243
 250	2.4776e+01	9.9142	61.550171	0.000689	6.889626	2.334269	0.000276
 251	2.4875e+01	9.9575	61.869105	0.000800	8.004125	2.711871	0.000321
 252	2.4974e+01	9.9912	62.119408	0.000628	6.281718	2.128304	0.000252
 253	2.5074e+01	10.0425	62.410081	0.000729	7.294899	2.471579	0.000292
 254	2.5174e+01	10.0874	62.648272	0.000598	5.977764	2.025321	0.000239
 255	2.5273e+01	10.1131	62.995466	0.000871	8.713351	2.952163	0.000349
 256	2.5372e+01	10.1516	63.257880	0.000659	6.585672	2.231286	0.000264
 257	2.5472e+01	10.1997	63.568739	0.000780	7.801489	2.643216	0.000312
 258	2.5572e+01	10.2414	63.851339	0.000709	7.092263	2.402924	0.000284
 259	2.5671e+01	10.2815	64.142013	0.000729	7.294899	2.471579	0.000292
 260	2.5770e+01	10.3152	64.420575	0.000699	6.990944	2.368596	0.000280
 261	2.5870e+01	10.3537	64.715286	0.000740	7.396217	2.505906	0.000296
 262	2.5970e+01	10.4018	64.993848	0.000699	6.990944	2.368596	0.000280
 263	2.6069e+01	10.4371	65.280485	0.000719	7.193581	2.437251	0.000288
 264	2.6169e+01	10.4756	65.563084	0.000709	7.092263	2.402924	0.000284
 265	2.6268e+01	10.5254	65.861832	0.000750	7.497535	2.540234	0.000300
 266	2.6367e+01	10.5542	66.095986	0.000588	5.876446	1.990994	0.000235
 267	2.6467e+01	10.5927	66.342252	0.000618	6.180400	2.093976	0.000248
 268	2.6567e+01	10.6329	66.653111	0.000780	7.801489	2.643216	0.000312
 269	2.6666e+01	10.6810	66.931673	0.000699	6.990944	2.368596	0.000280
 270	2.6765e+01	10.7066	67.210236	0.000699	6.990944	2.368596	0.000280
 271	2.6865e+01	10.7468	67.517058	0.000770	7.700171	2.608888	0.000308
 272	2.6965e+01	10.7949	67.771398	0.000638	6.383036	2.162631	0.000256
 273	2.7064e+01	10.8254	68.090331	0.000800	8.004125	2.711871	0.000321
 274	2.7163e+01	10.8703	68.376968	0.000719	7.193581	2.437251	0.000288
 275	2.7263e+01	10.9152	68.687827	0.000780	7.801489	2.643216	0.000312
 276	2.7363e+01	10.9537	68.994650	0.000770	7.700171	2.608888	0.000308
 277	2.7462e+01	10.9922	69.248989	0.000638	6.383036	2.162631	0.000256
 278	2.7561e+01	11.0339	69.531589	0.000709	7.092263	2.402924	0.000284
 279	2.7661e+01	11.0692	69.798040	0.000669	6.686990	2.265614	0.000268
 280	2.7761e+01	11.1173	70.112936	0.000790	7.902807	2.677543	0.000316
 281	2.7860e+01	11.1462	70.383424	0.000679	6.788308	2.299941	0.000272
 282	2.7959e+01	11.1927	70.702358	0.000800	8.004125	2.711871	0.000321
 283	2.8059e+01	11.2393	70.936512	0.000588	5.876446	1.990994	0.000235
 284	2.8159e+01	11.2713	71.198926	0.000659	6.585672	2.231286	0.000264
 285	2.8258e+01	11.3163	71.461340	0.000659	6.585672	2.231286	0.000264
 286	2.8358e+01	11.3499	71.727791	0.000669	6.686990	2.265614	0.000268
 287	2.8457e+01	11.3884	72.038650	0.000780	7.801489	2.643216	0.000312
 288	2.8556e+01	11.4382	72.284915	0.000618	6.180400	2.093976	0.000248
 289	2.8656e+01	11.4799	72.563478	0.000699	6.990944	2.368596	0.000280
 290	2.8756e+01	11.5136	72.866263	0.000760	7.598853	2.574561	0.000304
 291	2.8855e+01	11.5521	73.169048	0.000760	7.598853	2.574561	0.000304
 292	2.8954e+01	11.5842	73.435499	0.000669	6.686990	2.265614	0.000268
 293	2.9054e+01	11.6275	73.738284	0.000760	7.598853	2.574561	0.000304
 294	2.9154e+01	11.6692	74.020884	0.000709	7.092263	2.402924	0.000284
 295	2.9253e+01	11.7141	74.327706	0.000770	7.700171	2.608888	0.000308
 296	2.9352e+01	11.7558	74.606268	0.000699	6.990944	2.368596	0.000280
 297	2.9452e+01	11.7895	74.896942	0.000729	7.294899	2.471579	0.000292
 298	2.9552e+01	11.8296	75.179542	0.000709	7.092263	2.402924	0.000284
 299	2.9651e+01	11.8745	75.474253	0.000740	7.396217	2.505906	0.000296
 300	2.9750e+01	11.9162	75.768964	0.000740	7.396217	2.505906	0.000296
 301	2.9850e+01	11.9531	76.003117	0.000588	5.876446	1.990994	0.000235
 302	2.9950e+01	11.9997	76.249383	0.000618	6.180400	2.093976	0.000248
 303	3.0049e+01	12.0285	76.523908	0.000689	6.889626	2.334269	0.000276
 304	3.0148e+01	12.0638	76.758062	0.000588	5.876446	1.990994	0.000235
 305	3.0248e+01	12.1039	77.064884	0.000770	7.700171	2.608888	0.000308
 306	3.0348e+01	12.1473	77.339409	0.000689	6.889626	2.334269	0.000276
 307	3.0447e+01	12.1858	77.642195	0.000760	7.598853	2.574561	0.000304
 308	3.0547e+01	12.2307	77.949017	0.000770	7.700171	2.608888	0.000308
 309	3.0646e+01	12.2772	78.207394	0.000648	6.484354	2.196959	0.000260
 310	3.0745e+01	12.3077	78.506142	0.000750	7.497535	2.540234	0.000300
 311	3.0845e+01	12.3542	78.808927	0.000760	7.598853	2.574561	0.000304
 312	3.0945e+01	12.3943	79.067303	0.000648	6.484354	2.196959	0.000260
 313	3.1044e+01	12.4200	79.366051	0.000750	7.497535	2.540234	0.000300
 314	3.1143e+01	12.4665	79.628465	0.000659	6.585672	2.231286	0.000264
 315	3.1243e+01	12.5066	79.923176	0.000740	7.396217	2.505906	0.000296
 316	3.1343e+01	12.5531	80.205776	0.000709	7.092263	2.402924	0.000284
 317	3.1442e+01	12.5756	80.480301	0.000689	6.889626	2.334269	0.000276
 318	3.1541e+01	12.6205	80.758863	0.000699	6.990944	2.368596	0.000280
 319	3.1641e+01	12.6783	81.045500	0.000719	7.193581	2.437251	0.000288
 320	3.1741e+01	12.7071	81.279654	0.000588	5.876446	1.990994	0.000235
 321	3.1840e+01	12.7520	81.542068	0.000659	6.585672	2.231286	0.000264
 322	3.1939e+01	12.7873	81.812556	0.000679	6.788308	2.299941	0.000272
 323	3.2039e+01	12.8323	82.087081	0.000689	6.889626	2.334269	0.000276
 324	3.2139e+01	12.8692	82.365643	0.000699	6.990944	2.368596	0.000280
 325	3.2238e+01	12.9109	82.648243	0.000709	7.092263	2.402924	0.000284
 326	3.2337e+01	12.9446	82.942954	0.000740	7.396217	2.505906	0.000296
 327	3.2437e+01	12.9766	83.193256	0.000628	6.281718	2.128304	0.000252
 328	3.2536e+01	13.0280	83.516227	0.000811	8.105443	2.746198	0.000325
 329	3.2636e+01	13.0536	83.766529	0.000628	6.281718	2.128304	0.000252
 330	3.2736e+01	13.1034	84.097575	0.000831	8.308079	2.814853	0.000333
 331	3.2835e+01	13.1483	84.384211	0.000719	7.193581	2.437251	0.000288
 332	3.2934e+01	13.1884	84.666811	0.000709	7.092263	2.402924	0.000284
 333	3.3034e+01	13.2237	84.921150	0.000638	6.383036	2.162631	0.000256
 334	3.3133e+01	13.2718	85.240084	0.000800	8.004125	2.711871	0.000321
 335	3.3233e+01	13.2943	85.478275	0.000598	5.977764	2.025321	0.000239
 336	3.3333e+01	13.3344	85.764912	0.000719	7.193581	2.437251	0.000288
 337	3.3432e+01	13.3953	86.051548	0.000719	7.193581	2.437251	0.000288
 338	3.3532e+01	13.4226	86.322036	0.000679	6.788308	2.299941	0.000272
 339	3.3631e+01	13.4563	86.560227	0.000598	5.977764	2.025321	0.000239
 340	3.3730e+01	13.5012	86.802456	0.000608	6.079082	2.059649	0.000243
 341	3.3830e+01	13.5413	87.064869	0.000659	6.585672	2.231286	0.000264
 342	3.3929e+01	13.5814	87.391877	0.000821	8.206761	2.780526	0.000329
 343	3.4029e+01	13.6215	87.626031	0.000588	5.876446	1.990994	0.000235
 344	3.4129e+01	13.6681	87.965151	0.000851	8.510715	2.883508	0.000341
 345	3.4228e+01	13.6969	88.179119	0.000537	5.369856	1.819356	0.000215
 346	3.4328e+01	13.7419	88.489978	0.000780	7.801489	2.643216	0.000312
 347	3.4427e+01	13.7788	88.841209	0.000881	8.814669	2.986491	0.000353
 348	3.4526e+01	13.8221	89.099586	0.000648	6.484354	2.196959	0.000260
 349	3.4626e+01	13.8638	89.353925	0.000638	6.383036	2.162631	0.000256
 350	3.4725e+01	13.9087	89.640562	0.000719	7.193581	2.437251	0.000288
 351	3.4825e+01	13.9408	89.923161	0.000709	7.092263	2.402924	0.000284
 352	3.4925e+01	13.9825	90.205761	0.000709	7.092263	2.402924	0.000284
 353	3.5024e+01	14.0194	90.488360	0.000709	7.092263	2.402924	0.000284
 354	3.5123e+01	14.0563	90.730589	0.000608	6.079082	2.059649	0.000243
 355	3.5223e+01	14.0964	91.017225	0.000719	7.193581	2.437251	0.000288
 356	3.5322e+01	14.1365	91.267528	0.000628	6.281718	2.128304	0.000252
 357	3.5422e+01	14.1734	91.542053	0.000689	6.889626	2.334269	0.000276
 358	3.5522e+01	14.2311	91.768132	0.000567	5.673810	1.922339	0.000227
 359	3.5621e+01	14.2584	92.018435	0.000628	6.281718	2.128304	0.000252
 360	3.5721e+01	14.2969	92.309109	0.000729	7.294899	2.471579	0.000292
 361	3.5820e+01	14.3418	92.583634	0.000689	6.889626	2.334269	0.000276
 362	3.5919e+01	14.3787	92.813751	0.000578	5.775128	1.956666	0.000231
 363	3.6019e+01	14.4108	93.144796	0.000831	8.308079	2.814853	0.000333
 364	3.6118e+01	14.4606	93.403172	0.000648	6.484354	2.196959	0.000260
 365	3.6218e+01	14.4926	93.746329	0.000861	8.612033	2.917836	0.000345
 366	3.6318e+01	14.5295	94.008743	0.000659	6.585672	2.231286	0.000264
 367	3.6417e+01	14.5777	94.279231	0.000679	6.788308	2.299941	0.000272
 368	3.6517e+01	14.6114	94.577979	0.000750	7.497535	2.540234	0.000300
 369	3.6616e+01	14.6595	94.800021	0.000557	5.572492	1.888011	0.000223
 370	3.6715e+01	14.6932	95.135104	0.000841	8.409397	2.849181	0.000337
 371	3.6815e+01	14.7365	95.369258	0.000588	5.876446	1.990994	0.000235
 372	3.6914e+01	14.7734	95.700303	0.000831	8.308079	2.814853	0.000333
 373	3.7014e+01	14.8199	95.942531	0.000608	6.079082	2.059649	0.000243
 374	3.7114e+01	14.8552	96.196870	0.000638	6.383036	2.162631	0.000256
 375	3.7213e+01	14.9033	96.435061	0.000598	5.977764	2.025321	0.000239
 376	3.7313e+01	14.9322	96.709587	0.000689	6.889626	2.334269	0.000276
 377	3.7412e+01	14.9835	96.959889	0.000628	6.281718	2.128304	0.000252
 378	3.7511e+01	15.0172	97.242489	0.000709	7.092263	2.402924	0.000284
 379	3.7611e+01	15.0573	97.533162	0.000729	7.294899	2.471579	0.000292
 380	3.7711e+01	15.1022	97.787502	0.000638	6.383036	2.162631	0.000256
 381	3.7810e+01	15.1263	98.078176	0.000729	7.294899	2.471579	0.000292
 382	3.7910e+01	15.1760	98.384998	0.000770	7.700171	2.608888	0.000308
 383	3.8009e+01	15.2210	98.667597	0.000709	7.092263	2.402924	0.000284
 384	3.8108e+01	15.2530	98.921937	0.000638	6.383036	2.162631	0.000256
 385	3.8208e+01	15.2980	99.220685	0.000750	7.497535	2.540234	0.000300
 386	3.8307e+01	15.3317	99.495210	0.000689	6.889626	2.334269	0.000276
 387	3.8407e+01	15.3750	99.822218	0.000821	8.206761	2.780526	0.000329
 388	3.8507e+01	15.4183	100.080595	0.000648	6.484354	2.196959	0.000260
 389	3.8606e+01	15.4600	100.310712	0.000578	5.775128	1.956666	0.000231
 390	3.8706e+01	15.4937	100.605423	0.000740	7.396217	2.505906	0.000296
 391	3.8805e+01	15.5402	100.871874	0.000669	6.686990	2.265614	0.000268
 392	3.8904e+01	15.5771	101.142362	0.000679	6.788308	2.299941	0.000272
 393	3.9004e+01	15.6124	101.372478	0.000578	5.775128	1.956666	0.000231
 394	3.9103e+01	15.6573	101.618744	0.000618	6.180400	2.093976	0.000248
 395	3.9203e+01	15.7022	101.929603	0.000780	7.801489	2.643216	0.000312
 396	3.9303e+01	15.7391	102.192017	0.000659	6.585672	2.231286	0.000264
 397	3.9402e+01	15.7712	102.474616	0.000709	7.092263	2.402924	0.000284
 398	3.9502e+01	15.8081	102.712807	0.000598	5.977764	2.025321	0.000239
 399	3.9601e+01	15.8530	103.023667	0.000780	7.801489	2.643216	0.000312
 400	3.9700e+01	15.8996	103.310304	0.000719	7.193581	2.437251	0.000288
 401	3.9800e+01	15.9284	103.605014	0.000740	7.396217	2.505906	0.000296
 402	3.9900e+01	15.9685	103.899725	0.000740	7.396217	2.505906	0.000296
 403	3.9999e+01	16.0070	104.198473	0.000750	7.497535	2.540234	0.000300
 404	4.0099e+01	16.0520	104.432627	0.000588	5.876446	1.990994	0.000235
 405	4.0198e+01	16.0824	104.727338	0.000740	7.396217	2.505906	0.000296
 406	4.0297e+01	16.1290	104.985715	0.000648	6.484354	2.196959	0.000260
 407	4.0397e+01	16.1707	105.244092	0.000648	6.484354	2.196959	0.000260
 408	4.0496e+01	16.2124	105.518617	0.000689	6.889626	2.334269	0.000276
 409	4.0596e+01	16.2509	105.833513	0.000790	7.902807	2.677543	0.000316
 410	4.0696e+01	16.2958	106.047482	0.000537	5.369856	1.819356	0.000215
 411	4.0795e+01	16.3311	106.317970	0.000679	6.788308	2.299941	0.000272
 412	4.0895e+01	16.3680	106.535975	0.000547	5.471174	1.853684	0.000219
 413	4.0994e+01	16.4097	106.826649	0.000729	7.294899	2.471579	0.000292
 414	4.1093e+01	16.4450	107.117323	0.000729	7.294899	2.471579	0.000292
 415	4.1193e+01	16.4851	107.371662	0.000638	6.383036	2.162631	0.000256
 416	4.1292e+01	16.5300	107.650224	0.000699	6.990944	2.368596	0.000280
 417	4.1392e+01	16.5685	107.904564	0.000638	6.383036	2.162631	0.000256
 418	4.1492e+01	16.6102	108.235609	0.000831	8.308079	2.814853	0.000333
 419	4.1591e+01	16.6551	108.502060	0.000669	6.686990	2.265614	0.000268
 420	4.1691e+01	16.6953	108.760437	0.000648	6.484354	2.196959	0.000260
 421	4.1790e+01	16.7418	109.047073	0.000719	7.193581	2.437251	0.000288
 422	4.1889e+01	16.7706	109.325636	0.000699	6.990944	2.368596	0.000280
 423	4.1989e+01	16.8059	109.628421	0.000760	7.598853	2.574561	0.000304
 424	4.2089e+01	16.8493	109.858538	0.000578	5.775128	1.956666	0.000231
 425	4.2188e+01	16.8781	110.181509	0.000811	8.105443	2.746198	0.000325
 426	4.2288e+01	16.9295	110.387402	0.000517	5.167220	1.750701	0.000207
 427	4.2387e+01	16.9616	110.694225	0.000770	7.700171	2.608888	0.000308
 428	4.2486e+01	17.0001	110.984899	0.000729	7.294899	2.471579	0.000292
 429	4.2586e+01	17.0514	111.210978	0.000567	5.673810	1.922339	0.000227
 430	4.2685e+01	17.1011	111.469355	0.000648	6.484354	2.196959	0.000260
 431	4.2785e+01	17.1252	111.747917	0.000699	6.990944	2.368596	0.000280
 432	4.2885e+01	17.1701	112.042628	0.000740	7.396217	2.505906	0.000296
 433	4.2984e+01	17.1974	112.305042	0.000659	6.585672	2.231286	0.000264
 434	4.3084e+01	17.2423	112.567456	0.000659	6.585672	2.231286	0.000264
 435	4.3183e+01	17.2872	112.841981	0.000689	6.889626	2.334269	0.000276
 436	4.3282e+01	17.3337	113.104395	0.000659	6.585672	2.231286	0.000264
 437	4.3382e+01	17.3642	113.395069	0.000729	7.294899	2.471579	0.000292
 438	4.3481e+01	17.4011	113.693817	0.000750	7.497535	2.540234	0.000300
 439	4.3581e+01	17.4508	114.000639	0.000770	7.700171	2.608888	0.000308
 440	4.3681e+01	17.4797	114.307461	0.000770	7.700171	2.608888	0.000308
 441	4.3780e+01	17.5343	114.590061	0.000709	7.092263	2.402924	0.000284
 442	4.3880e+01	17.5663	114.840363	0.000628	6.281718	2.128304	0.000252
 443	4.3979e+01	17.6097	115.147186	0.000770	7.700171	2.608888	0.000308
 444	4.4078e+01	17.6450	115.393451	0.000618	6.180400	2.093976	0.000248
 445	4.4178e+01	17.6915	115.672013	0.000699	6.990944	2.368596	0.000280
 446	4.4278e+01	17.7220	115.974798	0.000760	7.598853	2.574561	0.000304
 447	4.4377e+01	17.7749	116.156469	0.000456	4.559312	1.544737	0.000183
 448	4.4477e+01	17.8086	116.414846	0.000648	6.484354	2.196959	0.000260
 449	4.4576e+01	17.8439	116.713594	0.000750	7.497535	2.540234	0.000300
 450	4.4675e+01	17.8808	116.971971	0.000648	6.484354	2.196959	0.000260
 451	4.4775e+01	17.9145	117.222273	0.000628	6.281718	2.128304	0.000252
 452	4.4874e+01	17.9674	117.529096	0.000770	7.700171	2.608888	0.000308
 453	4.4974e+01	18.0059	117.751138	0.000557	5.572492	1.888011	0.000223
 454	4.5074e+01	18.0428	118.070072	0.000800	8.004125	2.711871	0.000321
 455	4.5173e+01	18.0861	118.332486	0.000659	6.585672	2.231286	0.000264
 456	4.5273e+01	18.1214	118.663531	0.000831	8.308079	2.814853	0.000333
 457	4.5372e+01	18.1679	118.913833	0.000628	6.281718	2.128304	0.000252
 458	4.5471e+01	18.2113	119.212581	0.000750	7.497535	2.540234	0.000300
 459	4.5571e+01	18.2401	119.491144	0.000699	6.990944	2.368596	0.000280
 460	4.5670e+01	18.2802	119.757595	0.000669	6.686990	2.265614	0.000268
 461	4.5770e+01	18.3219	120.011934	0.000638	6.383036	2.162631	0.000256
 462	4.5870e+01	18.3653	120.290496	0.000699	6.990944	2.368596	0.000280
 463	4.5969e+01	18.4022	120.569059	0.000699	6.990944	2.368596	0.000280
 464	4.6069e+01	18.4471	120.819361	0.000628	6.281718	2.128304	0.000252
 465	4.6168e+01	18.4872	121.073701	0.000638	6.383036	2.162631	0.000256
 466	4.6267e+01	18.5193	121.311892	0.000598	5.977764	2.025321	0.000239
 467	4.6367e+01	18.5626	121.554120	0.000608	6.079082	2.059649	0.000243
 468	4.6467e+01	18.6059	121.840757	0.000719	7.193581	2.437251	0.000288
 469	4.6566e+01	18.6396	122.107208	0.000669	6.686990	2.265614	0.000268
 470	4.6666e+01	18.6861	122.422104	0.000790	7.902807	2.677543	0.000316
 471	4.6765e+01	18.7166	122.668369	0.000618	6.180400	2.093976	0.000248
 472	4.6864e+01	18.7583	122.959043	0.000729	7.294899	2.471579	0.000292
 473	4.6964e+01	18.8064	123.261828	0.000760	7.598853	2.574561	0.000304
 474	4.7063e+01	18.8497	123.516168	0.000638	6.383036	2.162631	0.000256
 475	4.7163e+01	18.8786	123.835102	0.000800	8.004125	2.711871	0.000321
 476	4.7263e+01	18.9219	124.097515	0.000659	6.585672	2.231286	0.000264
 477	4.7362e+01	18.9684	124.359929	0.000659	6.585672	2.231286	0.000264
 478	4.7462e+01	19.0021	124.610232	0.000628	6.281718	2.128304	0.000252
 479	4.7561e+01	19.0294	124.892831	0.000709	7.092263	2.402924	0.000284
 480	4.7660e+01	19.0823	125.167356	0.000689	6.889626	2.334269	0.000276
 481	4.7760e+01	19.1080	125.409585	0.000608	6.079082	2.059649	0.000243
 482	4.7859e+01	19.1610	125.696221	0.000719	7.193581	2.437251	0.000288
 483	4.7959e+01	19.2075	125.946524	0.000628	6.281718	2.128304	0.000252
 484	4.8059e+01	19.2412	126.192789	0.000618	6.180400	2.093976	0.000248
 485	4.8158e+01	19.2797	126.447128	0.000638	6.383036	2.162631	0.000256
 486	4.8258e+01	19.3182	126.733765	0.000719	7.193581	2.437251	0.000288
 487	4.8357e+01	19.3567	126.951770	0.000547	5.471174	1.853684	0.000219
 488	4.8456e+01	19.4032	127.250518	0.000750	7.497535	2.540234	0.000300
 489	4.8556e+01	19.4353	127.525044	0.000689	6.889626	2.334269	0.000276
 490	4.8656e+01	19.4754	127.803606	0.000699	6.990944	2.368596	0.000280
 491	4.8755e+01	19.5171	128.138688	0.000841	8.409397	2.849181	0.000337
 492	4.8855e+01	19.5508	128.388991	0.000628	6.281718	2.128304	0.000252
 493	4.8954e+01	19.5973	128.639293	0.000628	6.281718	2.128304	0.000252
 494	4.9053e+01	19.6246	128.925930	0.000719	7.193581	2.437251	0.000288
 495	4.9153e+01	19.6775	129.236789	0.000780	7.801489	2.643216	0.000312
 496	4.9252e+01	19.7064	129.474980	0.000598	5.977764	2.025321	0.000239
 497	4.9352e+01	19.7529	129.777765	0.000760	7.598853	2.574561	0.000304
 498	4.9452e+01	19.7962	130.015956	0.000598	5.977764	2.025321	0.000239
 499	4.9551e+01	19.8363	130.290482	0.000689	6.889626	2.334269	0.000276
 500	4.9651e+01	19.8684	130.577118	0.000719	7.193581	2.437251	0.000288
 501	4.9750e+01	19.9230	130.778975	0.000507	5.065902	1.716374	0.000203
 502	4.9849e+01	19.9583	131.081760	0.000760	7.598853	2.574561	0.000304
 503	4.9949e+01	20.0016	131.291691	0.000527	5.268538	1.785029	0.000211
 504	5.0048e+01	19.9647	131.134243	0.000395	3.951403	1.338772	-0.000158
 505	5.0148e+01	19.9149	130.964683	0.000426	4.255358	1.441754	-0.000170
 506	5.0248e+01	19.8748	130.815309	0.000375	3.748767	1.270117	-0.000150
 507	5.0347e+01	19.8412	130.637675	0.000446	4.457994	1.510409	-0.000179
 508	5.0447e+01	19.7962	130.516561	0.000304	3.039541	1.029824	-0.000122
 509	5.0546e+01	19.7561	130.359113	0.000395	3.951403	1.338772	-0.000158
 510	5.0645e+01	19.7208	130.161293	0.000496	4.964584	1.682047	-0.000199
 511	5.0745e+01	19.6839	129.987696	0.000436	4.356676	1.476082	-0.000174
 512	5.0844e+01	19.6342	129.818137	0.000426	4.255358	1.441754	-0.000170
 513	5.0944e+01	19.6134	129.640503	0.000446	4.457994	1.510409	-0.000179
 514	5.1044e+01	19.5636	129.426535	0.000537	5.369856	1.819356	-0.000215
 515	5.1143e+01	19.5123	129.236789	0.000476	4.761948	1.613392	-0.000191
 516	5.1242e+01	19.4786	129.010710	0.000567	5.673810	1.922339	-0.000227
 517	5.1342e+01	19.4273	128.905744	0.000263	2.634269	0.892514	-0.000105
 518	5.1441e+01	19.3968	128.683702	0.000557	5.572492	1.888011	-0.000223
 519	5.1541e+01	19.3663	128.481845	0.000507	5.065902	1.716374	-0.000203
 520	5.1641e+01	19.3198	128.243654	0.000598	5.977764	2.025321	-0.000239
 521	5.1740e+01	19.2829	128.021611	0.000557	5.572492	1.888011	-0.000223
 522	5.1840e+01	19.2380	127.843977	0.000446	4.457994	1.510409	-0.000179
 523	5.1939e+01	19.1962	127.638083	0.000517	5.167220	1.750701	-0.000207
 524	5.2038e+01	19.1610	127.436227	0.000507	5.065902	1.716374	-0.000203
 525	5.2138e+01	19.1192	127.254556	0.000456	4.559312	1.544737	-0.000183
 526	5.2237e+01	19.0823	127.068847	0.000466	4.660630	1.579064	-0.000187
 527	5.2337e+01	19.0390	126.854879	0.000537	5.369856	1.819356	-0.000215
 528	5.2437e+01	18.9941	126.665134	0.000476	4.761948	1.613392	-0.000191
 529	5.2536e+01	18.9668	126.475388	0.000476	4.761948	1.613392	-0.000191
 530	5.2636e+01	18.9235	126.253346	0.000557	5.572492	1.888011	-0.000223
 531	5.2735e+01	18.8770	126.075712	0.000446	4.457994	1.510409	-0.000179
 532	5.2834e+01	18.8353	125.877892	0.000496	4.964584	1.682047	-0.000199
 533	5.2934e+01	18.8016	125.647776	0.000578	5.775128	1.956666	-0.000231
 534	5.3033e+01	18.7535	125.421696	0.000567	5.673810	1.922339	-0.000227
 535	5.3133e+01	18.7230	125.260211	0.000405	4.052721	1.373099	-0.000162
 536	5.3233e+01	18.6877	125.046242	0.000537	5.369856	1.819356	-0.000215
 537	5.3332e+01	18.6412	124.836311	0.000527	5.268538	1.785029	-0.000211
 538	5.3431e+01	18.6011	124.598120	0.000598	5.977764	2.025321	-0.000239
 539	5.3531e+01	18.5626	124.368004	0.000578	5.775128	1.956666	-0.000231
 540	5.3630e+01	18.5305	124.125775	0.000608	6.079082	2.059649	-0.000243
 541	5.3730e+01	18.4872	123.923919	0.000507	5.065902	1.716374	-0.000203
 542	5.3830e+01	18.4471	123.722062	0.000507	5.065902	1.716374	-0.000203
 543	5.3929e+01	18.4118	123.540391	0.000456	4.559312	1.544737	-0.000183
 544	5.4029e+01	18.3604	123.330460	0.000527	5.268538	1.785029	-0.000211
 545	5.4128e+01	18.3235	123.112454	0.000547	5.471174	1.853684	-0.000219
 546	5.4227e+01	18.2818	122.926746	0.000466	4.660630	1.579064	-0.000187
 547	5.4327e+01	18.2401	122.684518	0.000608	6.079082	2.059649	-0.000243
 548	5.4426e+01	18.2113	122.482661	0.000507	5.065902	1.716374	-0.000203
 549	5.4526e+01	18.1615	122.252544	0.000578	5.775128	1.956666	-0.000231
 550	5.4626e+01	18.1166	122.030502	0.000557	5.572492	1.888011	-0.000223
 551	5.4725e+01	18.0877	121.832682	0.000496	4.964584	1.682047	-0.000199
 552	5.4825e+01	18.0380	121.614677	0.000547	5.471174	1.853684	-0.000219
 553	5.4924e+01	18.0075	121.408783	0.000517	5.167220	1.750701	-0.000207
 554	5.5023e+01	17.9610	121.198852	0.000527	5.268538	1.785029	-0.000211
 555	5.5123e+01	17.9273	120.960661	0.000598	5.977764	2.025321	-0.000239
 556	5.5222e+01	17.8760	120.754767	0.000517	5.167220	1.750701	-0.000207
 557	5.5322e+01	17.8487	120.504465	0.000628	6.281718	2.128304	-0.000252
 558	5.5422e+01	17.8134	120.229939	0.000689	6.889626	2.334269	-0.000276
 559	5.5521e+01	17.7589	120.024045	0.000517	5.167220	1.750701	-0.000207
 560	5.5620e+01	17.7171	119.785854	0.000598	5.977764	2.025321	-0.000239
 561	5.5720e+01	17.6915	119.628406	0.000395	3.951403	1.338772	-0.000158
 562	5.5819e+01	17.6466	119.434624	0.000486	4.863266	1.647719	-0.000195
 563	5.5919e+01	17.6129	119.244878	0.000476	4.761948	1.613392	-0.000191
 564	5.6019e+01	17.5680	118.974390	0.000679	6.788308	2.299941	-0.000272
 565	5.6118e+01	17.5262	118.784645	0.000476	4.761948	1.613392	-0.000191
 566	5.6218e+01	17.4861	118.534342	0.000628	6.281718	2.128304	-0.000252
 567	5.6317e+01	17.4444	118.332486	0.000507	5.065902	1.716374	-0.000203
 568	5.6416e+01	17.4043	118.082183	0.000628	6.281718	2.128304	-0.000252
 569	5.6516e+01	17.3610	117.900512	0.000456	4.559312	1.544737	-0.000183
 570	5.6615e+01	17.3305	117.658284	0.000608	6.079082	2.059649	-0.000243
 571	5.6715e+01	17.2904	117.407982	0.000628	6.281718	2.128304	-0.000252
 572	5.6815e+01	17.2503	117.210162	0.000496	4.964584	1.682047	-0.000199
 573	5.6914e+01	17.2070	116.984082	0.000567	5.673810	1.922339	-0.000227
 574	5.7014e+01	17.1605	116.762040	0.000557	5.572492	1.888011	-0.000223
 575	5.7113e+01	17.1364	116.560183	0.000507	5.065902	1.716374	-0.000203
 576	5.7212e+01	17.0915	116.289695	0.000679	6.788308	2.299941	-0.000272
 577	5.7312e+01	17.0498	116.015170	0.000689	6.889626	2.334269	-0.000276
 578	5.7411e+01	17.0097	115.813313	0.000507	5.065902	1.716374	-0.000203
 579	5.7511e+01	16.9712	115.607419	0.000517	5.167220	1.750701	-0.000207
 580	5.7611e+01	16.9375	115.393451	0.000537	5.369856	1.819356	-0.000215
 581	5.7710e+01	16.8846	115.191594	0.000507	5.065902	1.716374	-0.000203
 582	5.7809e+01	16.8460	114.917069	0.000689	6.889626	2.334269	-0.000276
 583	5.7909e+01	16.8124	114.699063	0.000547	5.471174	1.853684	-0.000219
 584	5.8008e+01	16.7594	114.509318	0.000476	4.761948	1.613392	-0.000191
 585	5.8108e+01	16.7321	114.259016	0.000628	6.281718	2.128304	-0.000252
 586	5.8208e+01	16.6824	114.028899	0.000578	5.775128	1.956666	-0.000231
 587	5.8307e+01	16.6471	113.823005	0.000517	5.167220	1.750701	-0.000207
 588	5.8407e+01	16.6134	113.600963	0.000557	5.572492	1.888011	-0.000223
 589	5.8506e+01	16.5749	113.338549	0.000659	6.585672	2.231286	-0.000264
 590	5.8605e+01	16.5348	113.128618	0.000527	5.268538	1.785029	-0.000211
 591	5.8705e+01	16.4867	112.894464	0.000588	5.876446	1.990994	-0.000235
 592	5.8804e+01	16.4562	112.676458	0.000547	5.471174	1.853684	-0.000219
 593	5.8904e+01	16.4113	112.422119	0.000638	6.383036	2.162631	-0.000256
 594	5.9004e+01	16.3648	112.196039	0.000567	5.673810	1.922339	-0.000227
 595	5.9103e+01	16.3247	111.949774	0.000618	6.180400	2.093976	-0.000248
 596	5.9203e+01	16.2894	111.707546	0.000608	6.079082	2.059649	-0.000243
 597	5.9302e+01	16.2525	111.493578	0.000537	5.369856	1.819356	-0.000215
 598	5.9401e+01	16.2156	111.275572	0.000547	5.471174	1.853684	-0.000219
 599	5.9501e+01	16.1642	111.029307	0.000618	6.180400	2.093976	-0.000248
 600	5.9600e+01	16.1306	110.843599	0.000466	4.660630	1.579064	-0.000187
 601	5.9700e+01	16.0808	110.621556	0.000557	5.572492	1.888011	-0.000223
 602	5.9800e+01	16.0439	110.383365	0.000598	5.977764	2.025321	-0.000239
 603	5.9899e+01	16.0183	110.161323	0.000557	5.572492	1.888011	-0.000223
 604	5.9998e+01	15.9750	109.943318	0.000547	5.471174	1.853684	-0.000219
 605	6.0098e+01	15.9300	109.701089	0.000608	6.079082	2.059649	-0.000243
 606	6.0197e+01	15.8947	109.454824	0.000618	6.180400	2.093976	-0.000248
 607	6.0297e+01	15.8514	109.257004	0.000496	4.964584	1.682047	-0.000199
 608	6.0397e+01	15.8145	109.018813	0.000598	5.977764	2.025321	-0.000239
 609	6.0496e+01	15.7728	108.772548	0.000618	6.180400	2.093976	-0.000248
 610	6.0596e+01	15.7375	108.550506	0.000557	5.572492	1.888011	-0.000223
 611	6.0695e+01	15.6958	108.324426	0.000567	5.673810	1.922339	-0.000227
 612	6.0794e+01	15.6493	108.078161	0.000618	6.180400	2.093976	-0.000248
 613	6.0894e+01	15.6140	107.775376	0.000760	7.598853	2.574561	-0.000304
 614	6.0993e+01	15.5723	107.553333	0.000557	5.572492	1.888011	-0.000223
 615	6.1093e+01	15.5434	107.335328	0.000547	5.471174	1.853684	-0.000219
 616	6.1193e+01	15.5033	107.137508	0.000496	4.964584	1.682047	-0.000199
 617	6.1292e+01	15.4520	106.907391	0.000578	5.775128	1.956666	-0.000231
 618	6.1392e+01	15.4103	106.653052	0.000638	6.383036	2.162631	-0.000256
 619	6.1491e+01	15.3798	106.455232	0.000496	4.964584	1.682047	-0.000199
 620	6.1590e+01	15.3397	106.200893	0.000638	6.383036	2.162631	-0.000256
 621	6.1690e+01	15.2851	106.003073	0.000496	4.964584	1.682047	-0.000199
 622	6.1789e+01	15.2466	105.740659	0.000659	6.585672	2.231286	-0.000264
 623	6.1889e+01	15.2178	105.530728	0.000527	5.268538	1.785029	-0.000211
 624	6.1989e+01	15.1648	105.280426	0.000628	6.281718	2.128304	-0.000252
 625	6.2088e+01	15.1359	105.018012	0.000659	6.585672	2.231286	-0.000264
 626	6.2188e+01	15.0926	104.791932	0.000567	5.673810	1.922339	-0.000227
 627	6.2287e+01	15.0557	104.577964	0.000537	5.369856	1.819356	-0.000215
 628	6.2386e+01	15.0172	104.323625	0.000638	6.383036	2.162631	-0.000256
 629	6.2486e+01	14.9819	104.081396	0.000608	6.079082	2.059649	-0.000243
 630	6.2586e+01	14.9370	103.835131	0.000618	6.180400	2.093976	-0.000248
 631	6.2685e+01	14.8905	103.556569	0.000699	6.990944	2.368596	-0.000280
 632	6.2785e+01	14.8472	103.350675	0.000517	5.167220	1.750701	-0.000207
 633	6.2884e+01	14.8215	103.112484	0.000598	5.977764	2.025321	-0.000239
 634	6.2983e+01	14.7846	102.902553	0.000527	5.268538	1.785029	-0.000211
 635	6.3083e+01	14.7317	102.628028	0.000689	6.889626	2.334269	-0.000276
 636	6.3182e+01	14.7012	102.426171	0.000507	5.065902	1.716374	-0.000203
 637	6.3282e+01	14.6627	102.183943	0.000608	6.079082	2.059649	-0.000243
 638	6.3382e+01	14.6081	101.941715	0.000608	6.079082	2.059649	-0.000243
 639	6.3481e+01	14.5841	101.679301	0.000659	6.585672	2.231286	-0.000264
 640	6.3581e+01	14.5376	101.497630	0.000456	4.559312	1.544737	-0.000183
 641	6.3680e+01	14.5023	101.219067	0.000699	6.990944	2.368596	-0.000280
 642	6.3779e+01	14.4606	100.976839	0.000608	6.079082	2.059649	-0.000243
 643	6.3879e+01	14.4204	100.787094	0.000476	4.761948	1.613392	-0.000191
 644	6.3978e+01	14.3771	100.516606	0.000679	6.788308	2.299941	-0.000272
 645	6.4078e+01	14.3434	100.282452	0.000588	5.876446	1.990994	-0.000235
 646	6.4177e+01	14.2969	100.011964	0.000679	6.788308	2.299941	-0.000272
 647	6.4277e+01	14.2584	99.773773	0.000598	5.977764	2.025321	-0.000239
 648	6.4376e+01	14.2247	99.523470	0.000628	6.281718	2.128304	-0.000252
 649	6.4476e+01	14.1862	99.285279	0.000598	5.977764	2.025321	-0.000239
 650	6.4576e+01	14.1365	99.014791	0.000679	6.788308	2.299941	-0.000272
 651	6.4675e+01	14.0996	98.808897	0.000517	5.167220	1.750701	-0.000207
 652	6.4775e+01	14.0595	98.562632	0.000618	6.180400	2.093976	-0.000248
 653	6.4874e+01	14.0194	98.296181	0.000669	6.686990	2.265614	-0.000268
 654	6.4974e+01	13.9745	98.082213	0.000537	5.369856	1.819356	-0.000215
 655	6.5073e+01	13.9424	97.835947	0.000618	6.180400	2.093976	-0.000248
 656	6.5172e+01	13.8927	97.597756	0.000598	5.977764	2.025321	-0.000239
 657	6.5272e+01	13.8638	97.363603	0.000588	5.876446	1.990994	-0.000235
 658	6.5371e+01	13.8189	97.109263	0.000638	6.383036	2.162631	-0.000256
 659	6.5471e+01	13.7788	96.875109	0.000588	5.876446	1.990994	-0.000235
 660	6.5570e+01	13.7322	96.632881	0.000608	6.079082	2.059649	-0.000243
 661	6.5670e+01	13.6985	96.382579	0.000628	6.281718	2.128304	-0.000252
 662	6.5769e+01	13.6665	96.160536	0.000557	5.572492	1.888011	-0.000223
 663	6.5869e+01	13.6215	95.910234	0.000628	6.281718	2.128304	-0.000252
 664	6.5969e+01	13.5750	95.643783	0.000669	6.686990	2.265614	-0.000268
 665	6.6068e+01	13.5429	95.413666	0.000578	5.775128	1.956666	-0.000231
 666	6.6168e+01	13.5060	95.143178	0.000679	6.788308	2.299941	-0.000272
 667	6.6267e+01	13.4595	94.941321	0.000507	5.065902	1.716374	-0.000203
 668	6.6367e+01	13.4306	94.662759	0.000699	6.990944	2.368596	-0.000280
 669	6.6466e+01	13.3857	94.464939	0.000496	4.964584	1.682047	-0.000199
 670	6.6566e+01	13.3456	94.194451	0.000679	6.788308	2.299941	-0.000272
 671	6.6665e+01	13.3007	93.948186	0.000618	6.180400	2.093976	-0.000248
 672	6.6764e+01	13.2574	93.681735	0.000669	6.686990	2.265614	-0.000268
 673	6.6864e+01	13.2173	93.451618	0.000578	5.775128	1.956666	-0.000231
 674	6.6963e+01	13.1724	93.233613	0.000547	5.471174	1.853684	-0.000219
 675	6.7063e+01	13.1403	92.946976	0.000719	7.193581	2.437251	-0.000288
 676	6.7162e+01	13.1002	92.720896	0.000567	5.673810	1.922339	-0.000227
 677	6.7262e+01	13.0649	92.478668	0.000608	6.079082	2.059649	-0.000243
 678	6.7362e+01	13.0328	92.220292	0.000648	6.484354	2.196959	-0.000260
 679	6.7461e+01	12.9831	91.969989	0.000628	6.281718	2.128304	-0.000252
 680	6.7561e+01	12.9413	91.743910	0.000567	5.673810	1.922339	-0.000227
 681	6.7660e+01	12.9125	91.497644	0.000618	6.180400	2.093976	-0.000248
 682	6.7760e+01	12.8627	91.267528	0.000578	5.775128	1.956666	-0.000231
 683	6.7859e+01	12.8258	90.972817	0.000740	7.396217	2.505906	-0.000296
 684	6.7959e+01	12.7873	90.722514	0.000628	6.281718	2.128304	-0.000252
 685	6.8058e+01	12.7520	90.439915	0.000709	7.092263	2.402924	-0.000284
 686	6.8157e+01	12.7039	90.238058	0.000507	5.065902	1.716374	-0.000203
 687	6.8257e+01	12.6622	89.943347	0.000740	7.396217	2.505906	-0.000296
 688	6.8356e+01	12.6269	89.721305	0.000557	5.572492	1.888011	-0.000223
 689	6.8456e+01	12.5900	89.479076	0.000608	6.079082	2.059649	-0.000243
 690	6.8555e+01	12.5483	89.232811	0.000618	6.180400	2.093976	-0.000248
 691	6.8655e+01	12.5098	88.954249	0.000699	6.990944	2.368596	-0.000280
 692	6.8754e+01	12.4633	88.699909	0.000638	6.383036	2.162631	-0.000256
 693	6.8854e+01	12.4248	88.485941	0.000537	5.369856	1.819356	-0.000215
 694	6.8954e+01	12.4007	88.247750	0.000598	5.977764	2.025321	-0.000239
 695	6.9053e+01	12.3430	87.977262	0.000679	6.788308	2.299941	-0.000272
 696	6.9153e+01	12.3013	87.702737	0.000689	6.889626	2.334269	-0.000276
 697	6.9252e+01	12.2676	87.452434	0.000628	6.281718	2.128304	-0.000252
 698	6.9352e+01	12.2355	87.173872	0.000699	6.990944	2.368596	-0.000280
 699	6.9451e+01	12.1874	86.959904	0.000537	5.369856	1.819356	-0.000215
 700	6.9550e+01	12.1440	86.685379	0.000689	6.889626	2.334269	-0.000276
 701	6.9650e+01	12.1071	86.439113	0.000618	6.180400	2.093976	-0.000248
 702	6.9749e+01	12.0670	86.180737	0.000648	6.484354	2.196959	-0.000260
 703	6.9849e+01	12.0205	85.946583	0.000588	5.876446	1.990994	-0.000235
 704	6.9948e+01	11.9932	85.724540	0.000557	5.572492	1.888011	-0.000223
 705	7.0048e+01	11.9499	85.494424	0.000578	5.775128	1.956666	-0.000231
 706	7.0147e+01	11.9178	85.167416	0.000821	8.206761	2.780526	-0.000329
 707	7.0247e+01	11.8745	84.933262	0.000588	5.876446	1.990994	-0.000235
 708	7.0347e+01	11.8328	84.654699	0.000699	6.990944	2.368596	-0.000280
 709	7.0446e+01	11.7847	84.412471	0.000608	6.079082	2.059649	-0.000243
 710	7.0546e+01	11.7382	84.154094	0.000648	6.484354	2.196959	-0.000260
 711	7.0645e+01	11.7173	83.895718	0.000648	6.484354	2.196959	-0.000260
 712	7.0745e+01	11.6724	83.605044	0.000729	7.294899	2.471579	-0.000292
 713	7.0844e+01	11.6291	83.407224	0.000496	4.964584	1.682047	-0.000199
 714	7.0944e+01	11.5922	83.140773	0.000669	6.686990	2.265614	-0.000268
 715	7.1043e+01	11.5521	82.898545	0.000608	6.079082	2.059649	-0.000243
 716	7.1142e+01	11.5104	82.632094	0.000669	6.686990	2.265614	-0.000268
 717	7.1242e+01	11.4671	82.410052	0.000557	5.572492	1.888011	-0.000223
 718	7.1341e+01	11.4318	82.099192	0.000780	7.801489	2.643216	-0.000312
 719	7.1441e+01	11.3997	81.913484	0.000466	4.660630	1.579064	-0.000187
 720	7.1540e+01	11.3516	81.630885	0.000709	7.092263	2.402924	-0.000284
 721	7.1640e+01	11.3050	81.340211	0.000729	7.294899	2.471579	-0.000292
 722	7.1740e+01	11.2681	81.122206	0.000547	5.471174	1.853684	-0.000219
 723	7.1839e+01	11.2280	80.867866	0.000638	6.383036	2.162631	-0.000256
 724	7.1939e+01	11.1911	80.561044	0.000770	7.700171	2.608888	-0.000308
 725	7.2038e+01	11.1526	80.330927	0.000578	5.775128	1.956666	-0.000231
 726	7.2138e+01	11.1189	80.068513	0.000659	6.585672	2.231286	-0.000264
 727	7.2237e+01	11.0708	79.838396	0.000578	5.775128	1.956666	-0.000231
 728	7.2337e+01	11.0307	79.571945	0.000669	6.686990	2.265614	-0.000268
 729	7.2436e+01	10.9954	79.289346	0.000709	7.092263	2.402924	-0.000284
 730	7.2535e+01	10.9521	79.051155	0.000598	5.977764	2.025321	-0.000239
 731	7.2635e+01	10.9200	78.788741	0.000659	6.585672	2.231286	-0.000264
 732	7.2734e+01	10.8671	78.506142	0.000709	7.092263	2.402924	-0.000284
 733	7.2834e+01	10.8398	78.288136	0.000547	5.471174	1.853684	-0.000219
 734	7.2933e+01	10.7917	78.021685	0.000669	6.686990	2.265614	-0.000268
 735	7.3033e+01	10.7564	77.759271	0.000659	6.585672	2.231286	-0.000264
 736	7.3132e+01	10.7115	77.500895	0.000648	6.484354	2.196959	-0.000260
 737	7.3232e+01	10.6778	77.258667	0.000608	6.079082	2.059649	-0.000243
 738	7.3332e+01	10.6264	77.004327	0.000638	6.383036	2.162631	-0.000256
 739	7.3431e+01	10.5992	76.713653	0.000729	7.294899	2.471579	-0.000292
 740	7.3531e+01	10.5559	76.463351	0.000628	6.281718	2.128304	-0.000252
 741	7.3630e+01	10.5222	76.233234	0.000578	5.775128	1.956666	-0.000231
 742	7.3730e+01	10.4724	75.970820	0.000659	6.585672	2.231286	-0.000264
 743	7.3829e+01	10.4387	75.672072	0.000750	7.497535	2.540234	-0.000300
 744	7.3928e+01	10.3954	75.421770	0.000628	6.281718	2.128304	-0.000252
 745	7.4028e+01	10.3585	75.135133	0.000719	7.193581	2.437251	-0.000288
 746	7.4127e+01	10.3104	74.892905	0.000608	6.079082	2.059649	-0.000243
 747	7.4227e+01	10.2783	74.622417	0.000679	6.788308	2.299941	-0.000272
 748	7.4326e+01	10.2350	74.368077	0.000638	6.383036	2.162631	-0.000256
 749	7.4426e+01	10.1965	74.137961	0.000578	5.775128	1.956666	-0.000231
 750	7.4525e+01	10.1436	73.827101	0.000780	7.801489	2.643216	-0.000312
 751	7.4625e+01	10.1099	73.588910	0.000598	5.977764	2.025321	-0.000239
 752	7.4725e+01	10.0778	73.314385	0.000689	6.889626	2.334269	-0.000276
 753	7.4824e+01	10.0345	73.076194	0.000598	5.977764	2.025321	-0.000239
 754	7.4924e+01	9.9928	72.793594	0.000709	7.092263	2.402924	-0.000284
 755	7.5023e+01	9.9607	72.539255	0.000638	6.383036	2.162631	-0.000256
 756	7.5123e+01	9.9142	72.309138	0.000578	5.775128	1.956666	-0.000231
 757	7.5222e+01	9.8773	72.018464	0.000729	7.294899	2.471579	-0.000292
 758	7.5322e+01	9.8436	71.752013	0.000669	6.686990	2.265614	-0.000268
 759	7.5421e+01	9.8099	71.501711	0.000628	6.281718	2.128304	-0.000252
 760	7.5520e+01	9.7569	71.267557	0.000588	5.876446	1.990994	-0.000235
 761	7.5620e+01	9.7217	70.988995	0.000699	6.990944	2.368596	-0.000280
 762	7.5719e+01	9.6799	70.670061	0.000800	8.004125	2.711871	-0.000321
 763	7.5819e+01	9.6366	70.411684	0.000648	6.484354	2.196959	-0.000260
 764	7.5918e+01	9.6045	70.153308	0.000648	6.484354	2.196959	-0.000260
 765	7.6018e+01	9.5548	69.935302	0.000547	5.471174	1.853684	-0.000219
 766	7.6118e+01	9.5275	69.644629	0.000729	7.294899	2.471579	-0.000292
 767	7.6217e+01	9.4746	69.398363	0.000618	6.180400	2.093976	-0.000248
 768	7.6317e+01	9.4377	69.148061	0.000628	6.281718	2.128304	-0.000252
 769	7.6416e+01	9.3912	68.873536	0.000689	6.889626	2.334269	-0.000276
 770	7.6516e+01	9.3639	68.590936	0.000709	7.092263	2.402924	-0.000284
 771	7.6615e+01	9.3174	68.332560	0.000648	6.484354	2.196959	-0.000260
 772	7.6715e+01	9.2853	68.114554	0.000547	5.471174	1.853684	-0.000219
 773	7.6814e+01	9.2372	67.856177	0.000648	6.484354	2.196959	-0.000260
 774	7.6913e+01	9.2051	67.561467	0.000740	7.396217	2.505906	-0.000296
 775	7.7013e+01	9.1554	67.290978	0.000679	6.788308	2.299941	-0.000272
 776	7.7112e+01	9.1185	67.000305	0.000729	7.294899	2.471579	-0.000292
 777	7.7212e+01	9.0944	66.774225	0.000567	5.673810	1.922339	-0.000227
 778	7.7311e+01	9.0382	66.536034	0.000598	5.977764	2.025321	-0.000239
 779	7.7411e+01	9.0030	66.277657	0.000648	6.484354	2.196959	-0.000260
 780	7.7510e+01	8.9548	65.974872	0.000760	7.598853	2.574561	-0.000304
 781	7.7610e+01	8.9195	65.700347	0.000689	6.889626	2.334269	-0.000276
 782	7.7710e+01	8.8826	65.470230	0.000578	5.775128	1.956666	-0.000231
 783	7.7809e+01	8.8506	65.167445	0.000760	7.598853	2.574561	-0.000304
 784	7.7909e+01	8.8056	64.913106	0.000638	6.383036	2.162631	-0.000256
 785	7.8008e+01	8.7543	64.658766	0.000638	6.383036	2.162631	-0.000256
 786	7.8108e+01	8.7206	64.396352	0.000659	6.585672	2.231286	-0.000264
 787	7.8207e+01	8.6805	64.154124	0.000608	6.079082	2.059649	-0.000243
 788	7.8306e+01	8.6452	63.867487	0.000719	7.193581	2.437251	-0.000288
 789	7.8406e+01	8.6051	63.592962	0.000689	6.889626	2.334269	-0.000276
 790	7.8505e+01	8.5618	63.342660	0.000628	6.281718	2.128304	-0.000252
 791	7.8605e+01	8.5281	63.056023	0.000719	7.193581	2.437251	-0.000288
 792	7.8704e+01	8.4832	62.813795	0.000608	6.079082	2.059649	-0.000243
 793	7.8804e+01	8.4318	62.543307	0.000679	6.788308	2.299941	-0.000272
 794	7.8903e+01	8.4030	62.321264	0.000557	5.572492	1.888011	-0.000223
 795	7.9003e+01	8.3661	62.091148	0.000578	5.775128	1.956666	-0.000231
 796	7.9103e+01	8.3276	61.824697	0.000669	6.686990	2.265614	-0.000268
 797	7.9202e+01	8.2875	61.489614	0.000841	8.409397	2.849181	-0.000337
 798	7.9302e+01	8.2393	61.219126	0.000679	6.788308	2.299941	-0.000272
 799	7.9401e+01	8.2040	60.940564	0.000699	6.990944	2.368596	-0.000280
 800	7.9501e+01	8.1639	60.649890	0.000729	7.294899	2.471579	-0.000292
 801	7.9600e+01	8.1270	60.395551	0.000638	6.383036	2.162631	-0.000256
 802	7.9700e+01	8.0837	60.149285	0.000618	6.180400	2.093976	-0.000248
 803	7.9799e+01	8.0436	59.878797	0.000679	6.788308	2.299941	-0.000272
 804	7.9898e+01	8.0083	59.604272	0.000689	6.889626	2.334269	-0.000276
 805	7.9998e+01	7.9682	59.333784	0.000679	6.788308	2.299941	-0.000272
 806	8.0097e+01	7.9153	59.095593	0.000598	5.977764	2.025321	-0.000239
 807	8.0197e+01	7.8752	58.776659	0.000800	8.004125	2.711871	-0.000321
 808	8.0296e+01	7.8399	58.522320	0.000638	6.383036	2.162631	-0.000256
 809	8.0396e+01	7.7998	58.267980	0.000638	6.383036	2.162631	-0.000256
 810	8.0496e+01	7.7709	58.009603	0.000648	6.484354	2.196959	-0.000260
 811	8.0595e+01	7.7260	57.743152	0.000669	6.686990	2.265614	-0.000268
 812	8.0695e+01	7.6795	57.504961	0.000598	5.977764	2.025321	-0.000239
 813	8.0794e+01	7.6506	57.218325	0.000719	7.193581	2.437251	-0.000288
 814	8.0894e+01	7.6201	56.935725	0.000709	7.092263	2.402924	-0.000284
 815	8.0993e+01	7.5656	56.673311	0.000659	6.585672	2.231286	-0.000264
 816	8.1093e+01	7.5287	56.354378	0.000800	8.004125	2.711871	-0.000321
 817	8.1192e+01	7.4854	56.104075	0.000628	6.281718	2.128304	-0.000252
 818	8.1291e+01	7.4517	55.833587	0.000679	6.788308	2.299941	-0.000272
 819	8.1391e+01	7.4051	55.559062	0.000689	6.889626	2.334269	-0.000276
 820	8.1490e+01	7.3682	55.268388	0.000729	7.294899	2.471579	-0.000292
 821	8.1590e+01	7.3313	55.034234	0.000588	5.876446	1.990994	-0.000235
 822	8.1689e+01	7.2880	54.747598	0.000719	7.193581	2.437251	-0.000288
 823	8.1789e+01	7.2479	54.448850	0.000750	7.497535	2.540234	-0.000300
 824	8.1888e+01	7.2062	54.198547	0.000628	6.281718	2.128304	-0.000252
 825	8.1988e+01	7.1645	53.948245	0.000628	6.281718	2.128304	-0.000252
 826	8.2088e+01	7.1340	53.693905	0.000638	6.383036	2.162631	-0.000256
 827	8.2187e+01	7.0875	53.387083	0.000770	7.700171	2.608888	-0.000308
 828	8.2287e+01	7.0426	53.144855	0.000608	6.079082	2.059649	-0.000243
 829	8.2386e+01	7.0025	52.878404	0.000669	6.686990	2.265614	-0.000268
 830	8.2486e+01	6.9720	52.624064	0.000638	6.383036	2.162631	-0.000256
 831	8.2585e+01	6.9335	52.361651	0.000659	6.585672	2.231286	-0.000264
 832	8.2684e+01	6.8902	52.079051	0.000709	7.092263	2.402924	-0.000284
 833	8.2784e+01	6.8517	51.748006	0.000831	8.308079	2.814853	-0.000333
 834	8.2883e+01	6.8164	51.509815	0.000598	5.977764	2.025321	-0.000239
 835	8.2983e+01	6.7650	51.219141	0.000729	7.294899	2.471579	-0.000292
 836	8.3082e+01	6.7378	50.936542	0.000709	7.092263	2.402924	-0.000284
 837	8.3182e+01	6.6913	50.662016	0.000689	6.889626	2.334269	-0.000276
 838	8.3281e+01	6.6544	50.419788	0.000608	6.079082	2.059649	-0.000243
 839	8.3381e+01	6.6046	50.149300	0.000679	6.788308	2.299941	-0.000272
 840	8.3481e+01	6.5725	49.862664	0.000719	7.193581	2.437251	-0.000288
 841	8.3580e+01	6.5292	49.567953	0.000740	7.396217	2.505906	-0.000296
 842	8.3680e+01	6.4971	49.301502	0.000669	6.686990	2.265614	-0.000268
 843	8.3779e+01	6.4522	49.063311	0.000598	5.977764	2.025321	-0.000239
 844	8.3879e+01	6.4057	48.796860	0.000669	6.686990	2.265614	-0.000268
 845	8.3978e+01	6.3688	48.502149	0.000740	7.396217	2.505906	-0.000296
 846	8.4078e+01	6.3367	48.247809	0.000638	6.383036	2.162631	-0.000256
 847	8.4177e+01	6.2966	47.953098	0.000740	7.396217	2.505906	-0.000296
 848	8.4276e+01	6.2501	47.714907	0.000598	5.977764	2.025321	-0.000239
 849	8.4376e+01	6.2164	47.460568	0.000638	6.383036	2.162631	-0.000256
 850	8.4475e+01	6.1715	47.177968	0.000709	7.092263	2.402924	-0.000284
 851	8.4575e+01	6.1442	46.895369	0.000709	7.092263	2.402924	-0.000284
 852	8.4674e+01	6.0881	46.592584	0.000760	7.598853	2.574561	-0.000304
 853	8.4774e+01	6.0480	46.273650	0.000800	8.004125	2.711871	-0.000321
 854	8.4874e+01	6.0127	45.978939	0.000740	7.396217	2.505906	-0.000296
 855	8.4973e+01	5.9726	45.736711	0.000608	6.079082	2.059649	-0.000243
 856	8.5073e+01	5.9357	45.446037	0.000729	7.294899	2.471579	-0.000292
 857	8.5172e+01	5.8956	45.183623	0.000659	6.585672	2.231286	-0.000264
 858	8.5272e+01	5.8538	44.872764	0.000780	7.801489	2.643216	-0.000312
 859	8.5371e+01	5.8137	44.634573	0.000598	5.977764	2.025321	-0.000239
 860	8.5471e+01	5.7817	44.360047	0.000689	6.889626	2.334269	-0.000276
 861	8.5570e+01	5.7303	44.081485	0.000699	6.990944	2.368596	-0.000280
 862	8.5669e+01	5.6886	43.786774	0.000740	7.396217	2.505906	-0.000296
 863	8.5769e+01	5.6565	43.536472	0.000628	6.281718	2.128304	-0.000252
 864	8.5868e+01	5.6148	43.229649	0.000770	7.700171	2.608888	-0.000308
 865	8.5968e+01	5.5651	42.979347	0.000628	6.281718	2.128304	-0.000252
 866	8.6067e+01	5.5362	42.716933	0.000659	6.585672	2.231286	-0.000264
 867	8.6167e+01	5.4977	42.446445	0.000679	6.788308	2.299941	-0.000272
 868	8.6266e+01	5.4560	42.143660	0.000760	7.598853	2.574561	-0.000304
 869	8.6366e+01	5.4223	41.865098	0.000699	6.990944	2.368596	-0.000280
 870	8.6466e+01	5.3694	41.566350	0.000750	7.497535	2.540234	-0.000300
 871	8.6565e+01	5.3421	41.251453	0.000790	7.902807	2.677543	-0.000316
 872	8.6665e+01	5.2972	41.029411	0.000557	5.572492	1.888011	-0.000223
 873	8.6764e+01	5.2699	40.718551	0.000780	7.801489	2.643216	-0.000312
 874	8.6864e+01	5.2170	40.452100	0.000669	6.686990	2.265614	-0.000268
 875	8.6963e+01	5.1720	40.177575	0.000689	6.889626	2.334269	-0.000276
 876	8.7063e+01	5.1271	39.907087	0.000679	6.788308	2.299941	-0.000272
 877	8.7162e+01	5.0886	39.604302	0.000760	7.598853	2.574561	-0.000304
 878	8.7261e+01	5.0598	39.325739	0.000699	6.990944	2.368596	-0.000280
 879	8.7361e+01	5.0148	39.063325	0.000659	6.585672	2.231286	-0.000264
 880	8.7460e+01	4.9795	38.748429	0.000790	7.902807	2.677543	-0.000316
 881	8.7560e+01	4.9378	38.494089	0.000638	6.383036	2.162631	-0.000256
 882	8.7659e+01	4.8977	38.191304	0.000760	7.598853	2.574561	-0.000304
 883	8.7759e+01	4.8512	37.961187	0.000578	5.775128	1.956666	-0.000231
 884	8.7859e+01	4.8271	37.702811	0.000648	6.484354	2.196959	-0.000260
 885	8.7958e+01	4.7774	37.444434	0.000648	6.484354	2.196959	-0.000260
 886	8.8058e+01	4.7421	37.141649	0.000760	7.598853	2.574561	-0.000304
 887	8.8157e+01	4.6988	36.790418	0.000881	8.814669	2.986491	-0.000353
 888	8.8257e+01	4.6555	36.536078	0.000638	6.383036	2.162631	-0.000256
 889	8.8356e+01	4.6154	36.273665	0.000659	6.585672	2.231286	-0.000264
 890	8.8456e+01	4.5801	35.962805	0.000780	7.801489	2.643216	-0.000312
 891	8.8555e+01	4.5416	35.688280	0.000689	6.889626	2.334269	-0.000276
 892	8.8654e+01	4.5031	35.425866	0.000659	6.585672	2.231286	-0.000264
 893	8.8754e+01	4.4598	35.127118	0.000750	7.497535	2.540234	-0.000300
 894	8.8853e+01	4.4181	34.848556	0.000699	6.990944	2.368596	-0.000280
 895	8.8953e+01	4.3828	34.557882	0.000729	7.294899	2.471579	-0.000292
 896	8.9052e+01	4.3443	34.283357	0.000689	6.889626	2.334269	-0.000276
 897	8.9152e+01	4.3074	33.996720	0.000719	7.193581	2.437251	-0.000288
 898	8.9251e+01	4.2528	33.750455	0.000618	6.180400	2.093976	-0.000248
 899	8.9351e+01	4.2191	33.451707	0.000750	7.497535	2.540234	-0.000300
 900	8.9451e+01	4.1790	33.181219	0.000679	6.788308	2.299941	-0.000272
 901	8.9550e+01	4.1373	32.910731	0.000679	6.788308	2.299941	-0.000272
 902	8.9650e+01	4.1020	32.636205	0.000689	6.889626	2.334269	-0.000276
 903	8.9749e+01	4.0587	32.357643	0.000699	6.990944	2.368596	-0.000280
 904	8.9849e+01	4.0170	32.075043	0.000709	7.092263	2.402924	-0.000284
 905	8.9948e+01	3.9833	31.788407	0.000719	7.193581	2.437251	-0.000288
 906	9.0047e+01	3.9416	31.485622	0.000760	7.598853	2.574561	-0.000304
 907	9.0147e+01	3.8983	31.203022	0.000709	7.092263	2.402924	-0.000284
 908	9.0246e+01	3.8630	30.920423	0.000709	7.092263	2.402924	-0.000284
 909	9.0346e+01	3.8245	30.645897	0.000689	6.889626	2.334269	-0.000276
 910	9.0445e+01	3.7828	30.355224	0.000729	7.294899	2.471579	-0.000292
 911	9.0545e+01	3.7282	30.068587	0.000719	7.193581	2.437251	-0.000288
 912	9.0644e+01	3.7010	29.753690	0.000790	7.902807	2.677543	-0.000316
 913	9.0744e+01	3.6641	29.515499	0.000598	5.977764	2.025321	-0.000239
 914	9.0844e+01	3.6224	29.224826	0.000729	7.294899	2.471579	-0.000292
 915	9.0943e+01	3.5823	28.922040	0.000760	7.598853	2.574561	-0.000304
 916	9.1043e+01	3.5389	28.631367	0.000729	7.294899	2.471579	-0.000292
 917	9.1142e+01	3.5085	28.356841	0.000689	6.889626	2.334269	-0.000276
 918	9.1242e+01	3.4635	28.082316	0.000689	6.889626	2.334269	-0.000276
 919	9.1341e+01	3.4202	27.819902	0.000659	6.585672	2.231286	-0.000264
 920	9.1441e+01	3.3801	27.525191	0.000740	7.396217	2.505906	-0.000296
 921	9.1540e+01	3.3480	27.234518	0.000729	7.294899	2.471579	-0.000292
 922	9.1639e+01	3.3031	27.000364	0.000588	5.876446	1.990994	-0.000235
 923	9.1739e+01	3.2662	26.693541	0.000770	7.700171	2.608888	-0.000308
 924	9.1838e+01	3.2245	26.366534	0.000821	8.206761	2.780526	-0.000329
 925	9.1938e+01	3.1796	26.096045	0.000679	6.788308	2.299941	-0.000272
 926	9.2037e+01	3.1443	25.801335	0.000740	7.396217	2.505906	-0.000296
 927	9.2137e+01	3.1122	25.470289	0.000831	8.308079	2.814853	-0.000333
 928	9.2237e+01	3.0689	25.207876	0.000659	6.585672	2.231286	-0.000264
 929	9.2336e+01	3.0240	24.909128	0.000750	7.497535	2.540234	-0.000300
 930	9.2436e+01	2.9887	24.646714	0.000659	6.585672	2.231286	-0.000264
 931	9.2535e+01	2.9470	24.347966	0.000750	7.497535	2.540234	-0.000300
 932	9.2635e+01	2.8972	24.125923	0.000557	5.572492	1.888011	-0.000223
 933	9.2734e+01	2.8684	23.794878	0.000831	8.308079	2.814853	-0.000333
 934	9.2834e+01	2.8186	23.552650	0.000608	6.079082	2.059649	-0.000243
 935	9.2933e+01	2.7866	23.282162	0.000679	6.788308	2.299941	-0.000272
 936	9.3032e+01	2.7432	22.971302	0.000780	7.801489	2.643216	-0.000312
 937	9.3132e+01	2.6967	22.696777	0.000689	6.889626	2.334269	-0.000276
 938	9.3231e+01	2.6694	22.490883	0.000517	5.167220	1.750701	-0.000207
 939	9.3331e+01	2.6358	22.200209	0.000729	7.294899	2.471579	-0.000292
 940	9.3430e+01	2.5844	21.893387	0.000770	7.700171	2.608888	-0.000308
 941	9.3530e+01	2.5459	21.570416	0.000811	8.105443	2.746198	-0.000325
 942	9.3629e+01	2.5106	21.303965	0.000669	6.686990	2.265614	-0.000268
 943	9.3729e+01	2.4689	20.985032	0.000800	8.004125	2.711871	-0.000321
 944	9.3829e+01	2.4224	20.702432	0.000709	7.092263	2.402924	-0.000284
 945	9.3928e+01	2.3839	20.415795	0.000719	7.193581	2.437251	-0.000288
 946	9.4028e+01	2.3566	20.169530	0.000618	6.180400	2.093976	-0.000248
 947	9.4127e+01	2.3069	19.866745	0.000760	7.598853	2.574561	-0.000304
 948	9.4227e+01	2.2748	19.572034	0.000740	7.396217	2.505906	-0.000296
 949	9.4326e+01	2.2267	19.273286	0.000750	7.497535	2.540234	-0.000300
 950	9.4425e+01	2.1882	19.039132	0.000588	5.876446	1.990994	-0.000235
 951	9.4525e+01	2.1400	18.744421	0.000740	7.396217	2.505906	-0.000296
 952	9.4624e+01	2.1096	18.449710	0.000740	7.396217	2.505906	-0.000296
 953	9.4724e+01	2.0695	18.167111	0.000709	7.092263	2.402924	-0.000284
 954	9.4823e+01	2.0342	17.908734	0.000648	6.484354	2.196959	-0.000260
 955	9.4923e+01	1.9796	17.609986	0.000750	7.497535	2.540234	-0.000300
 956	9.5022e+01	1.9524	17.355647	0.000638	6.383036	2.162631	-0.000256
 957	9.5122e+01	1.9090	17.101307	0.000638	6.383036	2.162631	-0.000256
 958	9.5222e+01	1.8609	16.786410	0.000790	7.902807	2.677543	-0.000316
 959	9.5321e+01	1.8224	16.503811	0.000709	7.092263	2.402924	-0.000284
 960	9.5421e+01	1.7999	16.217174	0.000719	7.193581	2.437251	-0.000288
 961	9.5520e+01	1.7502	15.922463	0.000740	7.396217	2.505906	-0.000296
 962	9.5620e+01	1.7101	15.631790	0.000729	7.294899	2.471579	-0.000292
 963	9.5719e+01	1.6732	15.341116	0.000729	7.294899	2.471579	-0.000292
 964	9.5819e+01	1.6299	15.042368	0.000750	7.497535	2.540234	-0.000300
 965	9.5918e+01	1.5962	14.747657	0.000740	7.396217	2.505906	-0.000296
 966	9.6017e+01	1.5481	14.452946	0.000740	7.396217	2.505906	-0.000296
 967	9.6117e+01	1.5160	14.230903	0.000557	5.572492	1.888011	-0.000223
 968	9.6216e+01	1.4647	13.920044	0.000780	7.801489	2.643216	-0.000312
 969	9.6316e+01	1.4326	13.621296	0.000750	7.497535	2.540234	-0.000300
 970	9.6415e+01	1.3812	13.318511	0.000760	7.598853	2.574561	-0.000304
 971	9.6515e+01	1.3540	13.035911	0.000709	7.092263	2.402924	-0.000284
 972	9.6615e+01	1.3171	12.749275	0.000719	7.193581	2.437251	-0.000288
 973	9.6714e+01	1.2706	12.494935	0.000638	6.383036	2.162631	-0.000256
 974	9.6814e+01	1.2240	12.220410	0.000689	6.889626	2.334269	-0.000276
 975	9.6913e+01	1.1919	11.941848	0.000699	6.990944	2.368596	-0.000280
 976	9.7013e+01	1.1534	11.683471	0.000648	6.484354	2.196959	-0.000260
 977	9.7112e+01	1.1069	11.340314	0.000861	8.612033	2.917836	-0.000345
 978	9.7212e+01	1.0764	11.110198	0.000578	5.775128	1.956666	-0.000231
 979	9.7311e+01	1.0283	10.763004	0.000871	8.713351	2.952163	-0.000349
 980	9.7410e+01	0.9818	10.484442	0.000699	6.990944	2.368596	-0.000280
 981	9.7510e+01	0.9529	10.153396	0.000831	8.308079	2.814853	-0.000333
 982	9.7609e+01	0.9112	9.882908	0.000679	6.788308	2.299941	-0.000272
 983	9.7709e+01	0.8727	9.624532	0.000648	6.484354	2.196959	-0.000260
 984	9.7808e+01	0.8342	9.325784	0.000750	7.497535	2.540234	-0.000300
 985	9.7908e+01	0.7957	9.063370	0.000659	6.585672	2.231286	-0.000264
 986	9.8007e+01	0.7540	8.736362	0.000821	8.206761	2.780526	-0.000329
 987	9.8107e+01	0.7091	8.437614	0.000750	7.497535	2.540234	-0.000300
 988	9.8207e+01	0.6770	8.155014	0.000709	7.092263	2.402924	-0.000284
 989	9.8306e+01	0.6353	7.848192	0.000770	7.700171	2.608888	-0.000308
 990	9.8406e+01	0.5920	7.618075	0.000578	5.775128	1.956666	-0.000231
 991	9.8505e+01	0.5438	7.327401	0.000729	7.294899	2.471579	-0.000292
 992	9.8605e+01	0.5182	7.081136	0.000618	6.180400	2.093976	-0.000248
 993	9.8704e+01	0.4716	6.814685	0.000669	6.686990	2.265614	-0.000268
 994	9.8803e+01	0.4347	6.475566	0.000851	8.510715	2.883508	-0.000341
 995	9.8903e+01	0.3930	6.188929	0.000719	7.193581	2.437251	-0.000288
 996	9.9002e+01	0.3642	5.954775	0.000588	5.876446	1.990994	-0.000235
 997	9.9102e+01	0.3160	5.656027	0.000750	7.497535	2.540234	-0.000300
 998	9.9201e+01	0.2759	5.353242	0.000760	7.598853	2.574561	-0.000304
 999	9.9301e+01	0.2374	5.046420	0.000770	7.700171	2.608888	-0.000308
1000	9.9400e+01	0.2005	4.727486	0.000800	8.004125	2.711871	-0.000321
1001	9.9500e+01	0.1572	4.461035	0.000669	6.686990	2.265614	-0.000268
1002	9.9600e+01	0.1235	4.174398	0.000719	7.193581	2.437251	-0.000288
1003	9.9699e+01	0.0786	3.891799	0.000709	7.092263	2.402924	-0.000284
1004	9.9799e+01	0.0337	3.605162	0.000719	7.193581	2.437251	-0.000288
1005	9.9898e+01	0.0016	3.375045	0.000578	5.775128	1.956666	-0.000231
1006	9.9998e+01	-0.0337	3.096483	0.000699	6.990944	2.368596	-0.000280
1007	1.0010e+02	-0.0770	2.842144	0.000638	6.383036	2.162631	-0.000256
1008	1.0020e+02	-0.1155	2.470727	0.000932	9.321259	3.158128	-0.000373
1009	1.0030e+02	-0.1508	2.272907	0.000496	4.964584	1.682047	-0.000199
1010	1.0040e+02	-0.1989	2.026642	0.000618	6.180400	2.093976	-0.000248
1011	1.0050e+02	-0.2310	1.752117	0.000689	6.889626	2.334269	-0.000276
1012	1.0059e+02	-0.2775	1.449332	0.000760	7.598853	2.574561	-0.000304
1013	1.0069e+02	-0.3096	1.138472	0.000780	7.801489	2.643216	-0.000312
1014	1.0079e+02	-0.3449	0.855873	0.000709	7.092263	2.402924	-0.000284
1015	1.0089e+02	-0.3914	0.532902	0.000811	8.105443	2.746198	-0.000325
1016	1.0099e+02	-0.4331	0.222042	0.000780	7.801489	2.643216	-0.000312
1017	1.0109e+02	-0.4716	-0.060557	0.000709	7.092263	2.402924	-0.000284
1018	1.0119e+02	-0.5101	-0.351231	0.000729	7.294899	2.471579	-0.000292
1019	1.0129e+02	-0.5567	-0.654016	0.000760	7.598853	2.574561	-0.000304
1020	1.0139e+02	-0.5968	-0.956801	0.000760	7.598853	2.574561	-0.000304
1021	1.0149e+02	-0.6321	-1.211141	0.000638	6.383036	2.162631	-0.000256
1022	1.0159e+02	-0.6882	-1.534112	0.000811	8.105443	2.746198	-0.000325
1023	1.0169e+02	-0.7091	-1.824785	0.000729	7.294899	2.471579	-0.000292
1024	1.0179e+02	-0.7540	-2.071051	0.000618	6.180400	2.093976	-0.000248
1025	1.0189e+02	-0.7941	-2.385947	0.000790	7.902807	2.677543	-0.000316
1026	1.0199e+02	-0.8390	-2.644324	0.000648	6.484354	2.196959	-0.000260
1027	1.0209e+02	-0.8743	-2.886552	0.000608	6.079082	2.059649	-0.000243
1028	1.0219e+02	-0.9176	-3.144929	0.000648	6.484354	2.196959	-0.000260
1029	1.0229e+02	-0.9577	-3.463862	0.000800	8.004125	2.711871	-0.000321
1030	1.0239e+02	-0.9994	-3.750499	0.000719	7.193581	2.437251	-0.000288
1031	1.0248e+02	-1.0379	-4.061359	0.000780	7.801489	2.643216	-0.000312
1032	1.0258e+02	-1.0700	-4.323772	0.000659	6.585672	2.231286	-0.000264
1033	1.0268e+02	-1.1117	-4.622520	0.000750	7.497535	2.540234	-0.000300
1034	1.0278e+02	-1.1550	-4.945491	0.000811	8.105443	2.746198	-0.000325
1035	1.0288e+02	-1.1952	-5.248276	0.000760	7.598853	2.574561	-0.000304
1036	1.0298e+02	-1.2321	-5.547025	0.000750	7.497535	2.540234	-0.000300
1037	1.0308e+02	-1.2722	-5.805401	0.000648	6.484354	2.196959	-0.000260
1038	1.0318e+02	-1.3026	-6.128372	0.000811	8.105443	2.746198	-0.000325
1039	1.0328e+02	-1.3508	-6.415009	0.000719	7.193581	2.437251	-0.000288
1040	1.0338e+02	-1.3845	-6.693571	0.000699	6.990944	2.368596	-0.000280
1041	1.0348e+02	-1.4310	-6.960022	0.000669	6.686990	2.265614	-0.000268
1042	1.0358e+02	-1.4695	-7.278956	0.000800	8.004125	2.711871	-0.000321
1043	1.0368e+02	-1.5112	-7.529258	0.000628	6.281718	2.128304	-0.000252
1044	1.0378e+02	-1.5577	-7.852229	0.000811	8.105443	2.746198	-0.000325
1045	1.0388e+02	-1.5866	-8.086383	0.000588	5.876446	1.990994	-0.000235
1046	1.0398e+02	-1.6331	-8.352834	0.000669	6.686990	2.265614	-0.000268
1047	1.0408e+02	-1.6700	-8.619285	0.000669	6.686990	2.265614	-0.000268
1048	1.0418e+02	-1.7085	-8.885736	0.000669	6.686990	2.265614	-0.000268
1049	1.0428e+02	-1.7406	-9.208707	0.000811	8.105443	2.746198	-0.000325
1050	1.0438e+02	-1.7903	-9.491306	0.000709	7.092263	2.402924	-0.000284
1051	1.0447e+02	-1.8320	-9.806203	0.000790	7.902807	2.677543	-0.000316
1052	1.0457e+02	-1.8625	-10.076691	0.000679	6.788308	2.299941	-0.000272
1053	1.0467e+02	-1.9058	-10.367365	0.000729	7.294899	2.471579	-0.000292
1054	1.0477e+02	-1.9443	-10.690335	0.000811	8.105443	2.746198	-0.000325
1055	1.0487e+02	-1.9876	-10.956786	0.000669	6.686990	2.265614	-0.000268
1056	1.0497e+02	-2.0278	-11.259572	0.000760	7.598853	2.574561	-0.000304
1057	1.0507e+02	-2.0679	-11.546208	0.000719	7.193581	2.437251	-0.000288
1058	1.0517e+02	-2.1031	-11.828808	0.000709	7.092263	2.402924	-0.000284
1059	1.0527e+02	-2.1497	-12.147741	0.000800	8.004125	2.711871	-0.000321
1060	1.0537e+02	-2.1753	-12.394007	0.000618	6.180400	2.093976	-0.000248
1061	1.0547e+02	-2.2219	-12.644309	0.000628	6.281718	2.128304	-0.000252
1062	1.0557e+02	-2.2748	-12.947094	0.000760	7.598853	2.574561	-0.000304
1063	1.0567e+02	-2.3037	-13.201434	0.000638	6.383036	2.162631	-0.000256
1064	1.0577e+02	-2.3486	-13.484033	0.000709	7.092263	2.402924	-0.000284
1065	1.0587e+02	-2.3807	-13.758559	0.000689	6.889626	2.334269	-0.000276
1066	1.0597e+02	-2.4224	-14.045195	0.000719	7.193581	2.437251	-0.000288
1067	1.0607e+02	-2.4641	-14.356055	0.000780	7.801489	2.643216	-0.000312
1068	1.0617e+02	-2.5122	-14.630580	0.000689	6.889626	2.334269	-0.000276
1069	1.0627e+02	-2.5347	-14.945477	0.000790	7.902807	2.677543	-0.000316
1070	1.0637e+02	-2.5876	-15.252299	0.000770	7.700171	2.608888	-0.000308
1071	1.0647e+02	-2.6181	-15.514713	0.000659	6.585672	2.231286	-0.000264
1072	1.0656e+02	-2.6759	-15.821535	0.000770	7.700171	2.608888	-0.000308
1073	1.0666e+02	-2.6967	-16.096060	0.000689	6.889626	2.334269	-0.000276
1074	1.0676e+02	-2.7448	-16.398845	0.000760	7.598853	2.574561	-0.000304
1075	1.0686e+02	-2.7978	-16.649148	0.000628	6.281718	2.128304	-0.000252
1076	1.0696e+02	-2.8347	-16.923673	0.000689	6.889626	2.334269	-0.000276
1077	1.0706e+02	-2.8668	-17.218384	0.000740	7.396217	2.505906	-0.000296
1078	1.0716e+02	-2.9085	-17.521169	0.000760	7.598853	2.574561	-0.000304
1079	1.0726e+02	-2.9486	-17.795694	0.000689	6.889626	2.334269	-0.000276
1080	1.0736e+02	-2.9807	-17.997551	0.000507	5.065902	1.716374	-0.000203
1081	1.0746e+02	-3.0256	-18.316485	0.000800	8.004125	2.711871	-0.000321
1082	1.0756e+02	-3.0641	-18.615233	0.000750	7.497535	2.540234	-0.000300
1083	1.0766e+02	-3.1058	-18.869572	0.000638	6.383036	2.162631	-0.000256
1084	1.0776e+02	-3.1427	-19.180432	0.000780	7.801489	2.643216	-0.000312
1085	1.0786e+02	-3.1812	-19.450920	0.000679	6.788308	2.299941	-0.000272
1086	1.0796e+02	-3.2293	-19.737557	0.000719	7.193581	2.437251	-0.000288
1087	1.0806e+02	-3.2726	-20.080713	0.000861	8.612033	2.917836	-0.000345
1088	1.0816e+02	-3.2999	-20.363313	0.000709	7.092263	2.402924	-0.000284
1089	1.0826e+02	-3.3400	-20.670135	0.000770	7.700171	2.608888	-0.000308
1090	1.0836e+02	-3.3817	-20.904289	0.000588	5.876446	1.990994	-0.000235
1091	1.0845e+02	-3.4250	-21.190925	0.000719	7.193581	2.437251	-0.000288
1092	1.0855e+02	-3.4732	-21.469488	0.000699	6.990944	2.368596	-0.000280
1093	1.0865e+02	-3.4988	-21.780347	0.000780	7.801489	2.643216	-0.000312
1094	1.0875e+02	-3.5438	-22.050835	0.000679	6.788308	2.299941	-0.000272
1095	1.0885e+02	-3.5903	-22.341509	0.000729	7.294899	2.471579	-0.000292
1096	1.0895e+02	-3.6272	-22.636220	0.000740	7.396217	2.505906	-0.000296
1097	1.0905e+02	-3.6609	-22.890560	0.000638	6.383036	2.162631	-0.000256
1098	1.0915e+02	-3.7074	-23.165085	0.000689	6.889626	2.334269	-0.000276
1099	1.0925e+02	-3.7507	-23.387127	0.000557	5.572492	1.888011	-0.000223
1100	1.0935e+02	-3.7908	-23.677801	0.000729	7.294899	2.471579	-0.000292
1101	1.0945e+02	-3.8245	-23.992698	0.000790	7.902807	2.677543	-0.000316
1102	1.0955e+02	-3.8582	-24.243000	0.000628	6.281718	2.128304	-0.000252
1103	1.0965e+02	-3.8999	-24.521562	0.000699	6.990944	2.368596	-0.000280
1104	1.0975e+02	-3.9416	-24.840496	0.000800	8.004125	2.711871	-0.000321
1105	1.0985e+02	-3.9705	-25.147319	0.000770	7.700171	2.608888	-0.000308
1106	1.0995e+02	-4.0202	-25.365324	0.000547	5.471174	1.853684	-0.000219
1107	1.1005e+02	-4.0635	-25.720592	0.000892	8.915987	3.020818	-0.000357
1108	1.1015e+02	-4.1004	-25.995117	0.000689	6.889626	2.334269	-0.000276
1109	1.1025e+02	-4.1405	-26.225234	0.000578	5.775128	1.956666	-0.000231
1110	1.1035e+02	-4.1870	-26.540130	0.000790	7.902807	2.677543	-0.000316
1111	1.1044e+02	-4.2255	-26.758136	0.000547	5.471174	1.853684	-0.000219
1112	1.1054e+02	-4.2689	-27.068995	0.000780	7.801489	2.643216	-0.000312
1113	1.1064e+02	-4.3009	-27.359669	0.000729	7.294899	2.471579	-0.000292
1114	1.1074e+02	-4.3330	-27.642268	0.000709	7.092263	2.402924	-0.000284
1115	1.1084e+02	-4.3731	-27.936979	0.000740	7.396217	2.505906	-0.000296
1116	1.1094e+02	-4.4229	-28.159022	0.000557	5.572492	1.888011	-0.000223
1117	1.1104e+02	-4.4582	-28.421436	0.000659	6.585672	2.231286	-0.000264
1118	1.1114e+02	-4.5015	-28.683849	0.000659	6.585672	2.231286	-0.000264
1119	1.1124e+02	-4.5448	-28.946263	0.000659	6.585672	2.231286	-0.000264
1120	1.1134e+02	-4.5753	-29.257123	0.000780	7.801489	2.643216	-0.000312
1121	1.1144e+02	-4.6106	-29.519537	0.000659	6.585672	2.231286	-0.000264
1122	1.1154e+02	-4.6555	-29.830396	0.000780	7.801489	2.643216	-0.000312
1123	1.1164e+02	-4.6844	-30.141255	0.000780	7.801489	2.643216	-0.000312
1124	1.1174e+02	-4.7389	-30.431929	0.000729	7.294899	2.471579	-0.000292
1125	1.1184e+02	-4.7822	-30.649935	0.000547	5.471174	1.853684	-0.000219
1126	1.1194e+02	-4.8111	-30.976943	0.000821	8.206761	2.780526	-0.000329
1127	1.1204e+02	-4.8656	-31.239356	0.000659	6.585672	2.231286	-0.000264
1128	1.1214e+02	-4.9090	-31.525993	0.000719	7.193581	2.437251	-0.000288
1129	1.1224e+02	-4.9458	-31.756110	0.000578	5.775128	1.956666	-0.000231
1130	1.1234e+02	-4.9731	-32.058895	0.000760	7.598853	2.574561	-0.000304
1131	1.1244e+02	-5.0245	-32.337457	0.000699	6.990944	2.368596	-0.000280
1132	1.1253e+02	-5.0549	-32.607945	0.000679	6.788308	2.299941	-0.000272
1133	1.1263e+02	-5.1031	-32.878433	0.000679	6.788308	2.299941	-0.000272
1134	1.1273e+02	-5.1368	-33.173144	0.000740	7.396217	2.505906	-0.000296
1135	1.1283e+02	-5.1833	-33.415373	0.000608	6.079082	2.059649	-0.000243
1136	1.1293e+02	-5.2218	-33.653564	0.000598	5.977764	2.025321	-0.000239
1137	1.1303e+02	-5.2683	-33.988646	0.000841	8.409397	2.849181	-0.000337
1138	1.1313e+02	-5.2924	-34.230874	0.000608	6.079082	2.059649	-0.000243
1139	1.1323e+02	-5.3421	-34.489251	0.000648	6.484354	2.196959	-0.000260
1140	1.1333e+02	-5.3662	-34.808184	0.000800	8.004125	2.711871	-0.000321
1141	1.1343e+02	-5.4143	-35.086747	0.000699	6.990944	2.368596	-0.000280
1142	1.1353e+02	-5.4560	-35.349161	0.000659	6.585672	2.231286	-0.000264
1143	1.1363e+02	-5.4881	-35.615611	0.000669	6.686990	2.265614	-0.000268
1144	1.1373e+02	-5.5394	-35.938582	0.000811	8.105443	2.746198	-0.000325
1145	1.1383e+02	-5.5779	-36.209070	0.000679	6.788308	2.299941	-0.000272
1146	1.1393e+02	-5.6132	-36.467447	0.000648	6.484354	2.196959	-0.000260
1147	1.1403e+02	-5.6517	-36.733898	0.000669	6.686990	2.265614	-0.000268
1148	1.1413e+02	-5.6998	-37.016498	0.000709	7.092263	2.402924	-0.000284
1149	1.1423e+02	-5.7303	-37.359654	0.000861	8.612033	2.917836	-0.000345
1150	1.1433e+02	-5.7752	-37.597845	0.000598	5.977764	2.025321	-0.000239
1151	1.1442e+02	-5.8218	-37.884482	0.000719	7.193581	2.437251	-0.000288
1152	1.1452e+02	-5.8603	-38.122673	0.000598	5.977764	2.025321	-0.000239
1153	1.1462e+02	-5.8923	-38.385087	0.000659	6.585672	2.231286	-0.000264
1154	1.1472e+02	-5.9405	-38.643463	0.000648	6.484354	2.196959	-0.000260
1155	1.1482e+02	-5.9774	-38.881654	0.000598	5.977764	2.025321	-0.000239
1156	1.1492e+02	-6.0127	-39.140031	0.000648	6.484354	2.196959	-0.000260
1157	1.1502e+02	-6.0592	-39.442816	0.000760	7.598853	2.574561	-0.000304
1158	1.1512e+02	-6.0865	-39.717341	0.000689	6.889626	2.334269	-0.000276
1159	1.1522e+02	-6.1250	-40.028201	0.000780	7.801489	2.643216	-0.000312
1160	1.1532e+02	-6.1795	-40.298689	0.000679	6.788308	2.299941	-0.000272
1161	1.1542e+02	-6.2100	-40.569177	0.000679	6.788308	2.299941	-0.000272
1162	1.1552e+02	-6.2549	-40.880036	0.000780	7.801489	2.643216	-0.000312
1163	1.1562e+02	-6.2918	-41.126302	0.000618	6.180400	2.093976	-0.000248
1164	1.1572e+02	-6.3303	-41.384678	0.000648	6.484354	2.196959	-0.000260
1165	1.1582e+02	-6.3704	-41.675352	0.000729	7.294899	2.471579	-0.000292
1166	1.1592e+02	-6.4121	-41.949877	0.000689	6.889626	2.334269	-0.000276
1167	1.1602e+02	-6.4538	-42.184031	0.000588	5.876446	1.990994	-0.000235
1168	1.1612e+02	-6.4955	-42.430297	0.000618	6.180400	2.093976	-0.000248
1169	1.1622e+02	-6.5324	-42.749230	0.000800	8.004125	2.711871	-0.000321
1170	1.1632e+02	-6.5677	-43.039904	0.000729	7.294899	2.471579	-0.000292
1171	1.1642e+02	-6.6110	-43.245798	0.000517	5.167220	1.750701	-0.000207
1172	1.1651e+02	-6.6479	-43.500138	0.000638	6.383036	2.162631	-0.000256
1173	1.1661e+02	-6.6913	-43.798886	0.000750	7.497535	2.540234	-0.000300
1174	1.1671e+02	-6.7330	-44.069374	0.000679	6.788308	2.299941	-0.000272
1175	1.1681e+02	-6.7602	-44.291416	0.000557	5.572492	1.888011	-0.000223
1176	1.1691e+02	-6.8052	-44.537681	0.000618	6.180400	2.093976	-0.000248
1177	1.1701e+02	-6.8388	-44.832392	0.000740	7.396217	2.505906	-0.000296
1178	1.1711e+02	-6.8950	-45.135178	0.000760	7.598853	2.574561	-0.000304
1179	1.1721e+02	-6.9351	-45.433926	0.000750	7.497535	2.540234	-0.000300
1180	1.1731e+02	-6.9640	-45.712488	0.000699	6.990944	2.368596	-0.000280
1181	1.1741e+02	-7.0121	-46.003162	0.000729	7.294899	2.471579	-0.000292
1182	1.1751e+02	-7.0490	-46.289798	0.000719	7.193581	2.437251	-0.000288
1183	1.1761e+02	-7.0859	-46.523952	0.000588	5.876446	1.990994	-0.000235
1184	1.1771e+02	-7.1196	-46.818663	0.000740	7.396217	2.505906	-0.000296
1185	1.1781e+02	-7.1677	-47.097226	0.000699	6.990944	2.368596	-0.000280
1186	1.1791e+02	-7.2046	-47.355602	0.000648	6.484354	2.196959	-0.000260
1187	1.1801e+02	-7.2383	-47.634165	0.000699	6.990944	2.368596	-0.000280
1188	1.1811e+02	-7.2816	-47.896578	0.000659	6.585672	2.231286	-0.000264
1189	1.1821e+02	-7.3233	-48.150918	0.000638	6.383036	2.162631	-0.000256
1190	1.1831e+02	-7.3650	-48.401220	0.000628	6.281718	2.128304	-0.000252
1191	1.1841e+02	-7.4100	-48.667671	0.000669	6.686990	2.265614	-0.000268
1192	1.1850e+02	-7.4452	-48.946234	0.000699	6.990944	2.368596	-0.000280
1193	1.1860e+02	-7.4837	-49.164239	0.000547	5.471174	1.853684	-0.000219
1194	1.1870e+02	-7.5303	-49.471061	0.000770	7.700171	2.608888	-0.000308
1195	1.1880e+02	-7.5720	-49.733475	0.000659	6.585672	2.231286	-0.000264
1196	1.1890e+02	-7.5976	-50.072595	0.000851	8.510715	2.883508	-0.000341
1197	1.1900e+02	-7.6474	-50.339046	0.000669	6.686990	2.265614	-0.000268
1198	1.1910e+02	-7.6843	-50.613571	0.000689	6.889626	2.334269	-0.000276
1199	1.1920e+02	-7.7180	-50.855799	0.000608	6.079082	2.059649	-0.000243
1200	1.1930e+02	-7.7549	-51.158584	0.000760	7.598853	2.574561	-0.000304
1201	1.1940e+02	-7.8030	-51.420998	0.000659	6.585672	2.231286	-0.000264
1202	1.1950e+02	-7.8447	-51.691486	0.000679	6.788308	2.299941	-0.000272
1203	1.1960e+02	-7.8832	-51.966011	0.000689	6.889626	2.334269	-0.000276
1204	1.1970e+02	-7.9201	-52.228425	0.000659	6.585672	2.231286	-0.000264
1205	1.1980e+02	-7.9682	-52.478727	0.000628	6.281718	2.128304	-0.000252
1206	1.1990e+02	-8.0067	-52.777476	0.000750	7.497535	2.540234	-0.000300
1207	1.2000e+02	-8.0420	-52.951072	0.000436	4.356676	1.476082	-0.000174
1208	1.2010e+02	-8.0773	-53.237709	0.000719	7.193581	2.437251	-0.000288
1209	1.2020e+02	-8.1286	-53.504160	0.000669	6.686990	2.265614	-0.000268
1210	1.2030e+02	-8.1688	-53.786759	0.000709	7.092263	2.402924	-0.000284
1211	1.2039e+02	-8.2121	-54.041099	0.000638	6.383036	2.162631	-0.000256
1212	1.2049e+02	-8.2458	-54.315624	0.000689	6.889626	2.334269	-0.000276
1213	1.2059e+02	-8.2859	-54.602261	0.000719	7.193581	2.437251	-0.000288
1214	1.2069e+02	-8.3212	-54.856600	0.000638	6.383036	2.162631	-0.000256
1215	1.2079e+02	-8.3548	-55.167460	0.000780	7.801489	2.643216	-0.000312
1216	1.2089e+02	-8.3933	-55.433911	0.000669	6.686990	2.265614	-0.000268
1217	1.2099e+02	-8.4431	-55.708436	0.000689	6.889626	2.334269	-0.000276
1218	1.2109e+02	-8.4800	-55.950664	0.000608	6.079082	2.059649	-0.000243
1219	1.2119e+02	-8.5089	-56.221152	0.000679	6.788308	2.299941	-0.000272
1220	1.2129e+02	-8.5650	-56.491640	0.000679	6.788308	2.299941	-0.000272
1221	1.2139e+02	-8.5987	-56.778277	0.000719	7.193581	2.437251	-0.000288
1222	1.2149e+02	-8.6452	-57.016468	0.000598	5.977764	2.025321	-0.000239
1223	1.2159e+02	-8.6821	-57.274845	0.000648	6.484354	2.196959	-0.000260
1224	1.2169e+02	-8.7190	-57.484776	0.000527	5.268538	1.785029	-0.000211
1225	1.2179e+02	-8.7607	-57.763338	0.000699	6.990944	2.368596	-0.000280
1226	1.2189e+02	-8.8008	-58.021715	0.000648	6.484354	2.196959	-0.000260
1227	1.2199e+02	-8.8409	-58.276054	0.000638	6.383036	2.162631	-0.000256
1228	1.2209e+02	-8.8778	-58.570765	0.000740	7.396217	2.505906	-0.000296
1229	1.2219e+02	-8.9211	-58.817031	0.000618	6.180400	2.093976	-0.000248
1230	1.2229e+02	-8.9596	-59.095593	0.000699	6.990944	2.368596	-0.000280
1231	1.2239e+02	-9.0030	-59.353970	0.000648	6.484354	2.196959	-0.000260
1232	1.2248e+02	-9.0415	-59.668866	0.000790	7.902807	2.677543	-0.000316
1233	1.2258e+02	-9.0800	-59.931280	0.000659	6.585672	2.231286	-0.000264
1234	1.2268e+02	-9.1185	-60.177545	0.000618	6.180400	2.093976	-0.000248
1235	1.2278e+02	-9.1554	-60.452071	0.000689	6.889626	2.334269	-0.000276
1236	1.2288e+02	-9.2019	-60.734670	0.000709	7.092263	2.402924	-0.000284
1237	1.2298e+02	-9.2468	-60.993047	0.000648	6.484354	2.196959	-0.000260
1238	1.2308e+02	-9.2709	-61.211052	0.000547	5.471174	1.853684	-0.000219
1239	1.2318e+02	-9.3238	-61.513837	0.000760	7.598853	2.574561	-0.000304
1240	1.2328e+02	-9.3591	-61.743954	0.000578	5.775128	1.956666	-0.000231
1241	1.2338e+02	-9.4024	-61.986182	0.000608	6.079082	2.059649	-0.000243
1242	1.2348e+02	-9.4393	-62.248596	0.000659	6.585672	2.231286	-0.000264
1243	1.2358e+02	-9.4794	-62.519084	0.000679	6.788308	2.299941	-0.000272
1244	1.2368e+02	-9.5147	-62.773424	0.000638	6.383036	2.162631	-0.000256
1245	1.2378e+02	-9.5564	-63.027763	0.000638	6.383036	2.162631	-0.000256
1246	1.2388e+02	-9.6029	-63.269991	0.000608	6.079082	2.059649	-0.000243
1247	1.2398e+02	-9.6350	-63.524331	0.000638	6.383036	2.162631	-0.000256
1248	1.2408e+02	-9.6767	-63.827116	0.000760	7.598853	2.574561	-0.000304
1249	1.2418e+02	-9.7152	-64.093567	0.000669	6.686990	2.265614	-0.000268
1250	1.2428e+02	-9.7553	-64.347907	0.000638	6.383036	2.162631	-0.000256
1251	1.2438e+02	-9.7970	-64.646655	0.000750	7.497535	2.540234	-0.000300
1252	1.2447e+02	-9.8307	-64.884846	0.000598	5.977764	2.025321	-0.000239
1253	1.2457e+02	-9.8692	-65.147259	0.000659	6.585672	2.231286	-0.000264
1254	1.2467e+02	-9.9110	-65.413710	0.000669	6.686990	2.265614	-0.000268
1255	1.2477e+02	-9.9462	-65.676124	0.000659	6.585672	2.231286	-0.000264
1256	1.2487e+02	-9.9992	-65.902204	0.000567	5.673810	1.922339	-0.000227
1257	1.2497e+02	-10.0297	-66.204989	0.000760	7.598853	2.574561	-0.000304
1258	1.2507e+02	-10.0762	-66.431069	0.000567	5.673810	1.922339	-0.000227
1259	1.2517e+02	-10.1259	-66.685408	0.000638	6.383036	2.162631	-0.000256
1260	1.2527e+02	-10.1516	-66.947822	0.000659	6.585672	2.231286	-0.000264
1261	1.2537e+02	-10.1885	-67.173902	0.000567	5.673810	1.922339	-0.000227
1262	1.2547e+02	-10.2334	-67.460538	0.000719	7.193581	2.437251	-0.000288
1263	1.2557e+02	-10.2767	-67.674506	0.000537	5.369856	1.819356	-0.000215
1264	1.2567e+02	-10.3120	-67.944994	0.000679	6.788308	2.299941	-0.000272
1265	1.2577e+02	-10.3617	-68.215483	0.000679	6.788308	2.299941	-0.000272
1266	1.2587e+02	-10.4002	-68.445599	0.000578	5.775128	1.956666	-0.000231
1267	1.2597e+02	-10.4291	-68.720125	0.000689	6.889626	2.334269	-0.000276
1268	1.2607e+02	-10.4724	-69.010798	0.000729	7.294899	2.471579	-0.000292
1269	1.2617e+02	-10.5077	-69.253026	0.000608	6.079082	2.059649	-0.000243
1270	1.2627e+02	-10.5559	-69.523515	0.000679	6.788308	2.299941	-0.000272
1271	1.2636e+02	-10.5911	-69.814188	0.000729	7.294899	2.471579	-0.000292
1272	1.2646e+02	-10.6280	-70.032194	0.000547	5.471174	1.853684	-0.000219
1273	1.2656e+02	-10.6714	-70.326905	0.000740	7.396217	2.505906	-0.000296
1274	1.2666e+02	-10.7147	-70.569133	0.000608	6.079082	2.059649	-0.000243
1275	1.2676e+02	-10.7596	-70.775027	0.000517	5.167220	1.750701	-0.000207
1276	1.2686e+02	-10.7901	-71.057626	0.000709	7.092263	2.402924	-0.000284
1277	1.2696e+02	-10.8286	-71.243334	0.000466	4.660630	1.579064	-0.000187
1278	1.2706e+02	-10.8767	-71.513822	0.000679	6.788308	2.299941	-0.000272
1279	1.2716e+02	-10.9104	-71.747976	0.000588	5.876446	1.990994	-0.000235
1280	1.2726e+02	-10.9489	-72.018464	0.000679	6.788308	2.299941	-0.000272
1281	1.2736e+02	-10.9794	-72.248581	0.000578	5.775128	1.956666	-0.000231
1282	1.2746e+02	-11.0307	-72.515032	0.000669	6.686990	2.265614	-0.000268
1283	1.2756e+02	-11.0724	-72.797632	0.000709	7.092263	2.402924	-0.000284
1284	1.2766e+02	-11.1141	-73.035823	0.000598	5.977764	2.025321	-0.000239
1285	1.2776e+02	-11.1542	-73.322459	0.000719	7.193581	2.437251	-0.000288
1286	1.2786e+02	-11.1847	-73.564687	0.000608	6.079082	2.059649	-0.000243
1287	1.2796e+02	-11.2312	-73.831138	0.000669	6.686990	2.265614	-0.000268
1288	1.2806e+02	-11.2681	-74.069329	0.000598	5.977764	2.025321	-0.000239
1289	1.2816e+02	-11.3018	-74.323669	0.000638	6.383036	2.162631	-0.000256
1290	1.2826e+02	-11.3564	-74.590120	0.000669	6.686990	2.265614	-0.000268
1291	1.2835e+02	-11.3917	-74.864645	0.000689	6.889626	2.334269	-0.000276
1292	1.2845e+02	-11.4221	-75.058428	0.000486	4.863266	1.647719	-0.000195
1293	1.2855e+02	-11.4703	-75.316804	0.000648	6.484354	2.196959	-0.000260
1294	1.2865e+02	-11.5168	-75.559032	0.000608	6.079082	2.059649	-0.000243
1295	1.2875e+02	-11.5569	-75.829521	0.000679	6.788308	2.299941	-0.000272
1296	1.2885e+02	-11.5874	-76.067712	0.000598	5.977764	2.025321	-0.000239
1297	1.2895e+02	-11.6275	-76.285717	0.000547	5.471174	1.853684	-0.000219
1298	1.2905e+02	-11.6692	-76.584465	0.000750	7.497535	2.540234	-0.000300
1299	1.2915e+02	-11.7141	-76.806507	0.000557	5.572492	1.888011	-0.000223
1300	1.2925e+02	-11.7446	-77.060847	0.000638	6.383036	2.162631	-0.000256
1301	1.2935e+02	-11.7831	-77.355558	0.000740	7.396217	2.505906	-0.000296
1302	1.2945e+02	-11.8280	-77.577600	0.000557	5.572492	1.888011	-0.000223
1303	1.2955e+02	-11.8649	-77.896534	0.000800	8.004125	2.711871	-0.000321
1304	1.2965e+02	-11.9050	-78.086279	0.000476	4.761948	1.613392	-0.000191
1305	1.2975e+02	-11.9499	-78.348693	0.000659	6.585672	2.231286	-0.000264
1306	1.2985e+02	-11.9772	-78.578810	0.000578	5.775128	1.956666	-0.000231
1307	1.2995e+02	-12.0237	-78.861410	0.000709	7.092263	2.402924	-0.000284
1308	1.3005e+02	-12.0719	-79.103638	0.000608	6.079082	2.059649	-0.000243
1309	1.3015e+02	-12.1007	-79.366051	0.000659	6.585672	2.231286	-0.000264
1310	1.3025e+02	-12.1408	-79.567908	0.000507	5.065902	1.716374	-0.000203
1311	1.3034e+02	-12.1841	-79.826285	0.000648	6.484354	2.196959	-0.000260
1312	1.3044e+02	-12.2339	-80.036216	0.000527	5.268538	1.785029	-0.000211
1313	1.3054e+02	-12.2660	-80.290556	0.000638	6.383036	2.162631	-0.000256
1314	1.3064e+02	-12.3109	-80.552969	0.000659	6.585672	2.231286	-0.000264
1315	1.3074e+02	-12.3430	-80.766938	0.000537	5.369856	1.819356	-0.000215
1316	1.3084e+02	-12.3895	-81.057611	0.000729	7.294899	2.471579	-0.000292
1317	1.3094e+02	-12.4216	-81.311951	0.000638	6.383036	2.162631	-0.000256
1318	1.3104e+02	-12.4633	-81.550142	0.000598	5.977764	2.025321	-0.000239
1319	1.3114e+02	-12.5066	-81.828704	0.000699	6.990944	2.368596	-0.000280
1320	1.3124e+02	-12.5467	-82.083044	0.000638	6.383036	2.162631	-0.000256
1321	1.3134e+02	-12.5804	-82.333346	0.000628	6.281718	2.128304	-0.000252
1322	1.3144e+02	-12.6269	-82.567500	0.000588	5.876446	1.990994	-0.000235
1323	1.3154e+02	-12.6654	-82.850100	0.000709	7.092263	2.402924	-0.000284
1324	1.3164e+02	-12.7007	-83.084253	0.000588	5.876446	1.990994	-0.000235
1325	1.3174e+02	-12.7488	-83.310333	0.000567	5.673810	1.922339	-0.000227
1326	1.3184e+02	-12.7841	-83.580821	0.000679	6.788308	2.299941	-0.000272
1327	1.3194e+02	-12.8114	-83.823049	0.000608	6.079082	2.059649	-0.000243
1328	1.3204e+02	-12.8676	-84.081426	0.000648	6.484354	2.196959	-0.000260
1329	1.3214e+02	-12.9028	-84.283283	0.000507	5.065902	1.716374	-0.000203
1330	1.3224e+02	-12.9446	-84.537622	0.000638	6.383036	2.162631	-0.000256
1331	1.3234e+02	-12.9782	-84.743516	0.000517	5.167220	1.750701	-0.000207
1332	1.3243e+02	-13.0200	-85.005930	0.000659	6.585672	2.231286	-0.000264
1333	1.3253e+02	-13.0601	-85.252195	0.000618	6.180400	2.093976	-0.000248
1334	1.3263e+02	-13.0970	-85.482312	0.000578	5.775128	1.956666	-0.000231
1335	1.3273e+02	-13.1387	-85.716466	0.000588	5.876446	1.990994	-0.000235
1336	1.3283e+02	-13.1788	-85.974843	0.000648	6.484354	2.196959	-0.000260
1337	1.3293e+02	-13.2125	-86.269554	0.000740	7.396217	2.505906	-0.000296
1338	1.3303e+02	-13.2606	-86.536005	0.000669	6.686990	2.265614	-0.000268
1339	1.3313e+02	-13.3007	-86.754010	0.000547	5.471174	1.853684	-0.000219
1340	1.3323e+02	-13.3360	-87.004312	0.000628	6.281718	2.128304	-0.000252
1341	1.3333e+02	-13.3777	-87.230392	0.000567	5.673810	1.922339	-0.000227
1342	1.3343e+02	-13.4178	-87.500880	0.000679	6.788308	2.299941	-0.000272
1343	1.3353e+02	-13.4595	-87.714848	0.000537	5.369856	1.819356	-0.000215
1344	1.3363e+02	-13.4980	-87.973225	0.000648	6.484354	2.196959	-0.000260
1345	1.3373e+02	-13.5413	-88.243713	0.000679	6.788308	2.299941	-0.000272
1346	1.3383e+02	-13.5814	-88.453644	0.000527	5.268538	1.785029	-0.000211
1347	1.3393e+02	-13.6247	-88.699909	0.000618	6.180400	2.093976	-0.000248
1348	1.3403e+02	-13.6697	-88.938100	0.000598	5.977764	2.025321	-0.000239
1349	1.3413e+02	-13.7082	-89.143994	0.000517	5.167220	1.750701	-0.000207
1350	1.3423e+02	-13.7386	-89.374111	0.000578	5.775128	1.956666	-0.000231
1351	1.3432e+02	-13.7788	-89.624413	0.000628	6.281718	2.128304	-0.000252
1352	1.3442e+02	-13.8157	-89.886827	0.000659	6.585672	2.231286	-0.000264
1353	1.3452e+02	-13.8574	-90.145204	0.000648	6.484354	2.196959	-0.000260
1354	1.3462e+02	-13.8975	-90.423766	0.000699	6.990944	2.368596	-0.000280
1355	1.3472e+02	-13.9376	-90.714440	0.000729	7.294899	2.471579	-0.000292
1356	1.3482e+02	-13.9729	-90.912260	0.000496	4.964584	1.682047	-0.000199
1357	1.3492e+02	-14.0130	-91.122191	0.000527	5.268538	1.785029	-0.000211
1358	1.3502e+02	-14.0515	-91.408827	0.000719	7.193581	2.437251	-0.000288
1359	1.3512e+02	-14.0932	-91.667204	0.000648	6.484354	2.196959	-0.000260
1360	1.3522e+02	-14.1381	-91.961915	0.000740	7.396217	2.505906	-0.000296
1361	1.3532e+02	-14.1782	-92.155697	0.000486	4.863266	1.647719	-0.000195
1362	1.3542e+02	-14.2119	-92.381777	0.000567	5.673810	1.922339	-0.000227
1363	1.3552e+02	-14.2584	-92.648228	0.000669	6.686990	2.265614	-0.000268
1364	1.3562e+02	-14.2921	-92.858159	0.000527	5.268538	1.785029	-0.000211
1365	1.3572e+02	-14.3402	-93.140759	0.000709	7.092263	2.402924	-0.000284
1366	1.3582e+02	-14.3771	-93.334541	0.000486	4.863266	1.647719	-0.000195
1367	1.3592e+02	-14.4269	-93.568695	0.000588	5.876446	1.990994	-0.000235
1368	1.3602e+02	-14.4573	-93.831109	0.000659	6.585672	2.231286	-0.000264
1369	1.3612e+02	-14.4975	-94.037003	0.000517	5.167220	1.750701	-0.000207
1370	1.3622e+02	-14.5360	-94.303454	0.000669	6.686990	2.265614	-0.000268
1371	1.3631e+02	-14.5777	-94.533570	0.000578	5.775128	1.956666	-0.000231
1372	1.3641e+02	-14.6178	-94.800021	0.000669	6.686990	2.265614	-0.000268
1373	1.3651e+02	-14.6579	-95.082621	0.000709	7.092263	2.402924	-0.000284
1374	1.3661e+02	-14.6980	-95.332923	0.000628	6.281718	2.128304	-0.000252
1375	1.3671e+02	-14.7365	-95.522669	0.000476	4.761948	1.613392	-0.000191
1376	1.3681e+02	-14.7814	-95.845640	0.000811	8.105443	2.746198	-0.000325
1377	1.3691e+02	-14.8135	-96.035385	0.000476	4.761948	1.613392	-0.000191
1378	1.3701e+02	-14.8584	-96.309910	0.000689	6.889626	2.334269	-0.000276
1379	1.3711e+02	-14.8937	-96.519841	0.000527	5.268538	1.785029	-0.000211
1380	1.3721e+02	-14.9386	-96.810515	0.000729	7.294899	2.471579	-0.000292
1381	1.3731e+02	-14.9803	-97.028520	0.000547	5.471174	1.853684	-0.000219
1382	1.3741e+02	-15.0220	-97.266711	0.000598	5.977764	2.025321	-0.000239
1383	1.3751e+02	-15.0654	-97.480680	0.000537	5.369856	1.819356	-0.000215
1384	1.3761e+02	-15.0926	-97.702722	0.000557	5.572492	1.888011	-0.000223
1385	1.3771e+02	-15.1327	-97.916690	0.000537	5.369856	1.819356	-0.000215
1386	1.3781e+02	-15.1793	-98.183141	0.000669	6.686990	2.265614	-0.000268
1387	1.3791e+02	-15.2194	-98.425369	0.000608	6.079082	2.059649	-0.000243
1388	1.3801e+02	-15.2498	-98.635300	0.000527	5.268538	1.785029	-0.000211
1389	1.3811e+02	-15.2964	-98.921937	0.000719	7.193581	2.437251	-0.000288
1390	1.3821e+02	-15.3349	-99.127831	0.000517	5.167220	1.750701	-0.000207
1391	1.3831e+02	-15.3718	-99.410430	0.000709	7.092263	2.402924	-0.000284
1392	1.3840e+02	-15.4087	-99.636510	0.000567	5.673810	1.922339	-0.000227
1393	1.3850e+02	-15.4520	-99.906998	0.000679	6.788308	2.299941	-0.000272
1394	1.3860e+02	-15.4889	-100.133078	0.000567	5.673810	1.922339	-0.000227
1395	1.3870e+02	-15.5290	-100.399529	0.000669	6.686990	2.265614	-0.000268
1396	1.3880e+02	-15.5691	-100.609460	0.000527	5.268538	1.785029	-0.000211
1397	1.3890e+02	-15.6092	-100.879948	0.000679	6.788308	2.299941	-0.000272
1398	1.3900e+02	-15.6445	-101.093916	0.000537	5.369856	1.819356	-0.000215
1399	1.3910e+02	-15.6878	-101.384590	0.000729	7.294899	2.471579	-0.000292
1400	1.3920e+02	-15.7295	-101.578372	0.000486	4.863266	1.647719	-0.000195
1401	1.3930e+02	-15.7728	-101.824638	0.000618	6.180400	2.093976	-0.000248
1402	1.3940e+02	-15.8097	-102.046680	0.000557	5.572492	1.888011	-0.000223
1403	1.3950e+02	-15.8562	-102.256611	0.000527	5.268538	1.785029	-0.000211
1404	1.3960e+02	-15.8963	-102.494802	0.000598	5.977764	2.025321	-0.000239
1405	1.3970e+02	-15.9268	-102.737030	0.000608	6.079082	2.059649	-0.000243
1406	1.3980e+02	-15.9685	-102.975221	0.000598	5.977764	2.025321	-0.000239
1407	1.3990e+02	-15.9990	-103.225524	0.000628	6.281718	2.128304	-0.000252
1408	1.4000e+02	-16.0552	-103.455640	0.000578	5.775128	1.956666	-0.000231
1409	1.4010e+02	-16.0937	-103.705943	0.000628	6.281718	2.128304	-0.000252
1410	1.4020e+02	-16.1322	-103.996617	0.000729	7.294899	2.471579	-0.000292
1411	1.4029e+02	-16.1739	-104.222696	0.000567	5.673810	1.922339	-0.000227
1412	1.4039e+02	-16.2044	-104.444739	0.000557	5.572492	1.888011	-0.000223
1413	1.4049e+02	-16.2461	-104.695041	0.000628	6.281718	2.128304	-0.000252
1414	1.4059e+02	-16.2910	-104.925158	0.000578	5.775128	1.956666	-0.000231
1415	1.4069e+02	-16.3231	-105.171423	0.000618	6.180400	2.093976	-0.000248
1416	1.4079e+02	-16.3648	-105.441911	0.000679	6.788308	2.299941	-0.000272
1417	1.4089e+02	-16.4161	-105.607434	0.000415	4.154039	1.407427	-0.000166
1418	1.4099e+02	-16.4546	-105.873885	0.000669	6.686990	2.265614	-0.000268
1419	1.4109e+02	-16.4835	-106.087853	0.000537	5.369856	1.819356	-0.000215
1420	1.4119e+02	-16.5364	-106.322007	0.000588	5.876446	1.990994	-0.000235
1421	1.4129e+02	-16.5733	-106.588458	0.000669	6.686990	2.265614	-0.000268
1422	1.4139e+02	-16.6102	-106.806463	0.000547	5.471174	1.853684	-0.000219
1423	1.4149e+02	-16.6471	-107.036580	0.000578	5.775128	1.956666	-0.000231
1424	1.4159e+02	-16.6776	-107.278808	0.000608	6.079082	2.059649	-0.000243
1425	1.4169e+02	-16.7241	-107.504888	0.000567	5.673810	1.922339	-0.000227
1426	1.4179e+02	-16.7594	-107.819784	0.000790	7.902807	2.677543	-0.000316
1427	1.4189e+02	-16.7979	-108.074124	0.000638	6.383036	2.162631	-0.000256
1428	1.4199e+02	-16.8412	-108.308278	0.000588	5.876446	1.990994	-0.000235
1429	1.4209e+02	-16.8910	-108.562617	0.000638	6.383036	2.162631	-0.000256
1430	1.4219e+02	-16.9279	-108.800808	0.000598	5.977764	2.025321	-0.000239
1431	1.4228e+02	-16.9696	-109.051111	0.000628	6.281718	2.128304	-0.000252
1432	1.4238e+02	-17.0033	-109.297376	0.000618	6.180400	2.093976	-0.000248
1433	1.4248e+02	-17.0402	-109.543641	0.000618	6.180400	2.093976	-0.000248
1434	1.4258e+02	-17.0899	-109.781832	0.000598	5.977764	2.025321	-0.000239
1435	1.4268e+02	-17.1188	-110.036172	0.000638	6.383036	2.162631	-0.000256
1436	1.4278e+02	-17.1669	-110.282437	0.000618	6.180400	2.093976	-0.000248
1437	1.4288e+02	-17.2038	-110.508517	0.000567	5.673810	1.922339	-0.000227
1438	1.4298e+02	-17.2503	-110.718448	0.000527	5.268538	1.785029	-0.000211
1439	1.4308e+02	-17.2984	-110.956639	0.000598	5.977764	2.025321	-0.000239
1440	1.4318e+02	-17.3257	-111.215015	0.000648	6.484354	2.196959	-0.000260
1441	1.4328e+02	-17.3738	-111.449169	0.000588	5.876446	1.990994	-0.000235
1442	1.4338e+02	-17.4075	-111.727732	0.000699	6.990944	2.368596	-0.000280
1443	1.4348e+02	-17.4492	-111.994183	0.000669	6.686990	2.265614	-0.000268
1444	1.4358e+02	-17.4829	-112.248522	0.000638	6.383036	2.162631	-0.000256
1445	1.4368e+02	-17.5327	-112.462490	0.000537	5.369856	1.819356	-0.000215
1446	1.4378e+02	-17.5615	-112.781424	0.000800	8.004125	2.711871	-0.000321
1447	1.4388e+02	-17.6129	-113.039801	0.000648	6.484354	2.196959	-0.000260
1448	1.4398e+02	-17.6434	-113.261843	0.000557	5.572492	1.888011	-0.000223
1449	1.4408e+02	-17.6915	-113.556554	0.000740	7.396217	2.505906	-0.000296
1450	1.4418e+02	-17.7188	-113.798782	0.000608	6.079082	2.059649	-0.000243
1451	1.4428e+02	-17.7605	-114.024862	0.000567	5.673810	1.922339	-0.000227
1452	1.4437e+02	-17.8070	-114.319573	0.000740	7.396217	2.505906	-0.000296
1453	1.4447e+02	-17.8423	-114.594098	0.000689	6.889626	2.334269	-0.000276
1454	1.4457e+02	-17.8824	-114.828252	0.000588	5.876446	1.990994	-0.000235
1455	1.4467e+02	-17.9305	-115.090666	0.000659	6.585672	2.231286	-0.000264
1456	1.4477e+02	-17.9594	-115.345005	0.000638	6.383036	2.162631	-0.000256
1457	1.4487e+02	-18.0075	-115.607419	0.000659	6.585672	2.231286	-0.000264
1458	1.4497e+02	-18.0524	-115.833499	0.000567	5.673810	1.922339	-0.000227
1459	1.4507e+02	-18.0829	-116.116098	0.000709	7.092263	2.402924	-0.000284
1460	1.4517e+02	-18.1262	-116.390623	0.000689	6.889626	2.334269	-0.000276
1461	1.4527e+02	-18.1631	-116.661111	0.000679	6.788308	2.299941	-0.000272
1462	1.4537e+02	-18.1984	-116.980045	0.000800	8.004125	2.711871	-0.000321
1463	1.4547e+02	-18.2498	-117.266682	0.000719	7.193581	2.437251	-0.000288
1464	1.4557e+02	-18.2754	-117.573504	0.000770	7.700171	2.608888	-0.000308
1465	1.4567e+02	-18.3235	-117.811695	0.000598	5.977764	2.025321	-0.000239
1466	1.4577e+02	-18.3733	-118.106406	0.000740	7.396217	2.505906	-0.000296
1467	1.4587e+02	-18.4054	-118.413228	0.000770	7.700171	2.608888	-0.000308
1468	1.4597e+02	-18.4487	-118.651419	0.000598	5.977764	2.025321	-0.000239
1469	1.4607e+02	-18.4904	-118.921907	0.000679	6.788308	2.299941	-0.000272
1470	1.4617e+02	-18.5241	-119.204507	0.000709	7.092263	2.402924	-0.000284
1471	1.4626e+02	-18.5610	-119.539589	0.000841	8.409397	2.849181	-0.000337
1472	1.4636e+02	-18.6059	-119.793929	0.000638	6.383036	2.162631	-0.000256
1473	1.4646e+02	-18.6476	-120.096714	0.000760	7.598853	2.574561	-0.000304
1474	1.4656e+02	-18.6797	-120.359128	0.000659	6.585672	2.231286	-0.000264
1475	1.4666e+02	-18.7294	-120.665950	0.000770	7.700171	2.608888	-0.000308
1476	1.4676e+02	-18.7599	-120.892030	0.000567	5.673810	1.922339	-0.000227
1477	1.4686e+02	-18.8080	-121.239223	0.000871	8.713351	2.952163	-0.000349
1478	1.4696e+02	-18.8385	-121.542009	0.000760	7.598853	2.574561	-0.000304
1479	1.4706e+02	-18.8786	-121.840757	0.000750	7.497535	2.540234	-0.000300
1480	1.4716e+02	-18.9251	-122.159690	0.000800	8.004125	2.711871	-0.000321
1481	1.4726e+02	-18.9492	-122.470550	0.000780	7.801489	2.643216	-0.000312
1482	1.4736e+02	-19.0021	-122.797558	0.000821	8.206761	2.780526	-0.000329
1483	1.4746e+02	-19.0390	-123.084194	0.000719	7.193581	2.437251	-0.000288
1484	1.4756e+02	-19.0872	-123.431388	0.000871	8.713351	2.952163	-0.000349
1485	1.4766e+02	-19.1192	-123.726099	0.000740	7.396217	2.505906	-0.000296
1486	1.4776e+02	-19.1594	-124.045033	0.000800	8.004125	2.711871	-0.000321
1487	1.4786e+02	-19.2043	-124.359929	0.000790	7.902807	2.677543	-0.000316
1488	1.4796e+02	-19.2348	-124.642529	0.000709	7.092263	2.402924	-0.000284
1489	1.4806e+02	-19.2765	-124.989722	0.000871	8.713351	2.952163	-0.000349
1490	1.4816e+02	-19.3246	-125.296545	0.000770	7.700171	2.608888	-0.000308
1491	1.4825e+02	-19.3631	-125.635664	0.000851	8.510715	2.883508	-0.000341
1492	1.4835e+02	-19.4000	-125.978821	0.000861	8.612033	2.917836	-0.000345
1493	1.4845e+02	-19.4353	-126.265457	0.000719	7.193581	2.437251	-0.000288
1494	1.4855e+02	-19.4786	-126.580354	0.000790	7.902807	2.677543	-0.000316
1495	1.4865e+02	-19.5171	-126.923510	0.000861	8.612033	2.917836	-0.000345
1496	1.4875e+02	-19.5476	-127.307038	0.000963	9.625213	3.261111	-0.000385
1497	1.4885e+02	-19.5925	-127.698641	0.000983	9.827850	3.329766	-0.000394
1498	1.4895e+02	-19.6294	-127.985277	0.000719	7.193581	2.437251	-0.000288
1499	1.4905e+02	-19.6727	-128.344582	0.000902	9.017305	3.055146	-0.000361
1500	1.4915e+02	-19.7080	-128.679665	0.000841	8.409397	2.849181	-0.000337
1501	1.4925e+02	-19.7561	-129.051081	0.000932	9.321259	3.158128	-0.000373
1502	1.4935e+02	-19.7994	-129.434609	0.000963	9.625213	3.261111	-0.000385
1503	1.4945e+02	-19.8315	-129.781803	0.000871	8.713351	2.952163	-0.000349
1504	1.4955e+02	-19.8748	-130.104773	0.000811	8.105443	2.746198	-0.000325
1505	1.4965e+02	-19.9166	-130.508487	0.001013	10.131804	3.432748	-0.000406
1506	1.4975e+02	-19.9647	-130.851644	0.000861	8.612033	2.917836	-0.000345
1507	1.4985e+02	-20.0048	-131.210949	0.000902	9.017305	3.055146	-0.000361
1508	1.4995e+02	-19.9631	-131.291691	-0.000203	-2.026361	-0.686550	-0.000081
1509	1.5005e+02	-19.9182	-131.243246	0.000122	1.215816	0.411930	0.000049
1510	1.5015e+02	-19.8764	-131.271506	-0.000071	-0.709226	-0.240292	-0.000028
1511	1.5025e+02	-19.8476	-131.239209	0.000081	0.810544	0.274620	0.000032
1512	1.5034e+02	-19.7978	-131.162503	0.000193	1.925043	0.652222	0.000077
1513	1.5044e+02	-19.7497	-131.105983	0.000142	1.418453	0.480585	0.000057
1514	1.5054e+02	-19.7128	-131.130206	-0.000061	-0.607908	-0.205965	-0.000024
1515	1.5064e+02	-19.6679	-131.057537	0.000182	1.823725	0.617895	0.000073
1516	1.5074e+02	-19.6326	-130.980832	0.000193	1.925043	0.652222	0.000077
1517	1.5084e+02	-19.5957	-131.009092	-0.000071	-0.709226	-0.240292	-0.000028
1518	1.5094e+02	-19.5492	-130.916238	0.000233	2.330315	0.789532	0.000093
1519	1.5104e+02	-19.5123	-130.863755	0.000132	1.317134	0.446257	0.000053
1520	1.5114e+02	-19.4658	-130.807235	0.000142	1.418453	0.480585	0.000057
1521	1.5124e+02	-19.4449	-130.665935	0.000355	3.546131	1.201462	0.000142
1522	1.5134e+02	-19.3968	-130.617490	0.000122	1.215816	0.411930	0.000049
1523	1.5144e+02	-19.3599	-130.524636	0.000233	2.330315	0.789532	0.000093
1524	1.5154e+02	-19.3118	-130.439856	0.000213	2.127679	0.720877	0.000085
1525	1.5164e+02	-19.2781	-130.342964	0.000243	2.431633	0.823860	0.000097
1526	1.5174e+02	-19.2364	-130.266259	0.000193	1.925043	0.652222	0.000077
1527	1.5184e+02	-19.1995	-130.128996	0.000344	3.444813	1.167134	0.000138
1528	1.5194e+02	-19.1658	-130.048254	0.000203	2.026361	0.686550	0.000081
1529	1.5204e+02	-19.1192	-129.902917	0.000365	3.647449	1.235789	0.000146
1530	1.5214e+02	-19.0743	-129.793914	0.000274	2.735587	0.926842	0.000110
1531	1.5224e+02	-19.0358	-129.664726	0.000324	3.242177	1.098479	0.000130
1532	1.5233e+02	-19.0118	-129.596094	0.000172	1.722407	0.583567	0.000069
1533	1.5243e+02	-18.9540	-129.426535	0.000426	4.255358	1.441754	0.000170
1534	1.5253e+02	-18.9203	-129.329643	0.000243	2.431633	0.823860	0.000097
1535	1.5263e+02	-18.8818	-129.188344	0.000355	3.546131	1.201462	0.000142
1536	1.5273e+02	-18.8353	-129.075304	0.000284	2.836905	0.961169	0.000114
1537	1.5283e+02	-18.8000	-128.929967	0.000365	3.647449	1.235789	0.000146
1538	1.5293e+02	-18.7695	-128.849224	0.000203	2.026361	0.686550	0.000081
1539	1.5303e+02	-18.7166	-128.671590	0.000446	4.457994	1.510409	0.000179
1540	1.5313e+02	-18.6877	-128.582773	0.000223	2.228997	0.755205	0.000089
1541	1.5323e+02	-18.6428	-128.425325	0.000395	3.951403	1.338772	0.000158
1542	1.5333e+02	-18.5979	-128.275951	0.000375	3.748767	1.270117	0.000150
1543	1.5343e+02	-18.5722	-128.134651	0.000355	3.546131	1.201462	0.000142
1544	1.5353e+02	-18.5257	-127.985277	0.000375	3.748767	1.270117	0.000150
1545	1.5363e+02	-18.4824	-127.831866	0.000385	3.850085	1.304444	0.000154
1546	1.5373e+02	-18.4471	-127.714789	0.000294	2.938223	0.995497	0.000118
1547	1.5383e+02	-18.4054	-127.561378	0.000385	3.850085	1.304444	0.000154
1548	1.5393e+02	-18.3588	-127.379707	0.000456	4.559312	1.544737	0.000183
1549	1.5403e+02	-18.3171	-127.185924	0.000486	4.863266	1.647719	0.000195
1550	1.5413e+02	-18.2786	-127.089033	0.000243	2.431633	0.823860	0.000097
1551	1.5422e+02	-18.2353	-126.943696	0.000365	3.647449	1.235789	0.000146
1552	1.5432e+02	-18.2000	-126.770099	0.000436	4.356676	1.476082	0.000174
1553	1.5442e+02	-18.1663	-126.653022	0.000294	2.938223	0.995497	0.000118
1554	1.5452e+02	-18.1262	-126.471351	0.000456	4.559312	1.544737	0.000183
1555	1.5462e+02	-18.0893	-126.301792	0.000426	4.255358	1.441754	0.000170
1556	1.5472e+02	-18.0556	-126.152418	0.000375	3.748767	1.270117	0.000150
1557	1.5482e+02	-18.0011	-125.962672	0.000476	4.761948	1.613392	0.000191
1558	1.5492e+02	-17.9674	-125.821372	0.000355	3.546131	1.201462	0.000142
1559	1.5502e+02	-17.9257	-125.667961	0.000385	3.850085	1.304444	0.000154
1560	1.5512e+02	-17.8824	-125.449956	0.000547	5.471174	1.853684	0.000219
1561	1.5522e+02	-17.8535	-125.340953	0.000274	2.735587	0.926842	0.000110
1562	1.5532e+02	-17.8086	-125.106799	0.000588	5.876446	1.990994	0.000235
1563	1.5542e+02	-17.7701	-124.989722	0.000294	2.938223	0.995497	0.000118
1564	1.5552e+02	-17.7252	-124.836311	0.000385	3.850085	1.304444	0.000154
1565	1.5562e+02	-17.6867	-124.670789	0.000415	4.154039	1.407427	0.000166
1566	1.5572e+02	-17.6450	-124.513340	0.000395	3.951403	1.338772	0.000158
1567	1.5582e+02	-17.6016	-124.295335	0.000547	5.471174	1.853684	0.000219
1568	1.5592e+02	-17.5647	-124.198444	0.000243	2.431633	0.823860	0.000097
1569	1.5602e+02	-17.5230	-123.988513	0.000527	5.268538	1.785029	0.000211
1570	1.5612e+02	-17.4845	-123.822990	0.000415	4.154039	1.407427	0.000166
1571	1.5622e+02	-17.4428	-123.637282	0.000466	4.660630	1.579064	0.000187
1572	1.5631e+02	-17.4075	-123.495982	0.000355	3.546131	1.201462	0.000142
1573	1.5641e+02	-17.3690	-123.322385	0.000436	4.356676	1.476082	0.000174
1574	1.5651e+02	-17.3273	-123.128603	0.000486	4.863266	1.647719	0.000195
1575	1.5661e+02	-17.2824	-122.926746	0.000507	5.065902	1.716374	0.000203
1576	1.5671e+02	-17.2503	-122.737001	0.000476	4.761948	1.613392	0.000191
1577	1.5681e+02	-17.2086	-122.591664	0.000365	3.647449	1.235789	0.000146
1578	1.5691e+02	-17.1621	-122.414030	0.000446	4.457994	1.510409	0.000179
1579	1.5701e+02	-17.1332	-122.244470	0.000426	4.255358	1.441754	0.000170
1580	1.5711e+02	-17.0883	-122.038576	0.000517	5.167220	1.750701	0.000207
1581	1.5721e+02	-17.0434	-121.889202	0.000375	3.748767	1.270117	0.000150
1582	1.5731e+02	-17.0129	-121.739828	0.000375	3.748767	1.270117	0.000150
1583	1.5741e+02	-16.9680	-121.509711	0.000578	5.775128	1.956666	0.000231
1584	1.5751e+02	-16.9279	-121.336115	0.000436	4.356676	1.476082	0.000174
1585	1.5761e+02	-16.8781	-121.154443	0.000456	4.559312	1.544737	0.000183
1586	1.5771e+02	-16.8412	-121.005069	0.000375	3.748767	1.270117	0.000150
1587	1.5781e+02	-16.8059	-120.803213	0.000507	5.065902	1.716374	0.000203
1588	1.5791e+02	-16.7690	-120.625579	0.000446	4.457994	1.510409	0.000179
1589	1.5801e+02	-16.7209	-120.484279	0.000355	3.546131	1.201462	0.000142
1590	1.5811e+02	-16.6872	-120.254162	0.000578	5.775128	1.956666	0.000231
1591	1.5821e+02	-16.6487	-120.080565	0.000436	4.356676	1.476082	0.000174
1592	1.5830e+02	-16.6038	-119.898894	0.000456	4.559312	1.544737	0.000183
1593	1.5840e+02	-16.5701	-119.688963	0.000527	5.268538	1.785029	0.000211
1594	1.5850e+02	-16.5316	-119.555738	0.000334	3.343495	1.132807	0.000134
1595	1.5860e+02	-16.4931	-119.374067	0.000456	4.559312	1.544737	0.000183
1596	1.5870e+02	-16.4514	-119.164136	0.000527	5.268538	1.785029	0.000211
1597	1.5880e+02	-16.4097	-118.994576	0.000426	4.255358	1.441754	0.000170
1598	1.5890e+02	-16.3632	-118.829053	0.000415	4.154039	1.407427	0.000166
1599	1.5900e+02	-16.3263	-118.623159	0.000517	5.167220	1.750701	0.000207
1600	1.5910e+02	-16.2942	-118.469748	0.000385	3.850085	1.304444	0.000154
1601	1.5920e+02	-16.2525	-118.207334	0.000659	6.585672	2.231286	0.000264
1602	1.5930e+02	-16.2108	-118.025663	0.000456	4.559312	1.544737	0.000183
1603	1.5940e+02	-16.1723	-117.856104	0.000426	4.255358	1.441754	0.000170
1604	1.5950e+02	-16.1290	-117.654247	0.000507	5.065902	1.716374	0.000203
1605	1.5960e+02	-16.0872	-117.460464	0.000486	4.863266	1.647719	0.000195
1606	1.5970e+02	-16.0407	-117.311090	0.000375	3.748767	1.270117	0.000150
1607	1.5980e+02	-16.0118	-117.113271	0.000496	4.964584	1.682047	0.000199
1608	1.5990e+02	-15.9750	-116.883154	0.000578	5.775128	1.956666	0.000231
1609	1.6000e+02	-15.9348	-116.721668	0.000405	4.052721	1.373099	0.000162
1610	1.6010e+02	-15.8979	-116.511737	0.000527	5.268538	1.785029	0.000211
1611	1.6019e+02	-15.8562	-116.326029	0.000466	4.660630	1.579064	0.000187
1612	1.6029e+02	-15.8161	-116.103987	0.000557	5.572492	1.888011	0.000223
1613	1.6039e+02	-15.7632	-115.938464	0.000415	4.154039	1.407427	0.000166
1614	1.6049e+02	-15.7295	-115.756793	0.000456	4.559312	1.544737	0.000183
1615	1.6059e+02	-15.6958	-115.554936	0.000507	5.065902	1.716374	0.000203
1616	1.6069e+02	-15.6541	-115.328857	0.000567	5.673810	1.922339	0.000227
1617	1.6079e+02	-15.6140	-115.143148	0.000466	4.660630	1.579064	0.000187
1618	1.6089e+02	-15.5787	-114.989737	0.000385	3.850085	1.304444	0.000154
1619	1.6099e+02	-15.5354	-114.771732	0.000547	5.471174	1.853684	0.000219
1620	1.6109e+02	-15.4857	-114.525467	0.000618	6.180400	2.093976	0.000248
1621	1.6119e+02	-15.4536	-114.384167	0.000355	3.546131	1.201462	0.000142
1622	1.6129e+02	-15.4135	-114.162124	0.000557	5.572492	1.888011	0.000223
1623	1.6139e+02	-15.3686	-113.976416	0.000466	4.660630	1.579064	0.000187
1624	1.6149e+02	-15.3381	-113.790708	0.000466	4.660630	1.579064	0.000187
1625	1.6159e+02	-15.2980	-113.576740	0.000537	5.369856	1.819356	0.000215
1626	1.6169e+02	-15.2546	-113.391031	0.000466	4.660630	1.579064	0.000187
1627	1.6179e+02	-15.2161	-113.209360	0.000456	4.559312	1.544737	0.000183
1628	1.6189e+02	-15.1728	-112.959058	0.000628	6.281718	2.128304	0.000252
1629	1.6199e+02	-15.1391	-112.809684	0.000375	3.748767	1.270117	0.000150
1630	1.6209e+02	-15.0958	-112.563419	0.000618	6.180400	2.093976	0.000248
1631	1.6219e+02	-15.0573	-112.381748	0.000456	4.559312	1.544737	0.000183
1632	1.6228e+02	-15.0220	-112.224299	0.000395	3.951403	1.338772	0.000158
1633	1.6238e+02	-14.9803	-112.010331	0.000537	5.369856	1.819356	0.000215
1634	1.6248e+02	-14.9386	-111.800400	0.000527	5.268538	1.785029	0.000211
1635	1.6258e+02	-14.8889	-111.594506	0.000517	5.167220	1.750701	0.000207
1636	1.6268e+02	-14.8568	-111.404761	0.000476	4.761948	1.613392	0.000191
1637	1.6278e+02	-14.8103	-111.231164	0.000436	4.356676	1.476082	0.000174
1638	1.6288e+02	-14.7734	-111.017196	0.000537	5.369856	1.819356	0.000215
1639	1.6298e+02	-14.7413	-110.799190	0.000547	5.471174	1.853684	0.000219
1640	1.6308e+02	-14.6964	-110.605408	0.000486	4.863266	1.647719	0.000195
1641	1.6318e+02	-14.6547	-110.371254	0.000588	5.876446	1.990994	0.000235
1642	1.6328e+02	-14.6226	-110.177471	0.000486	4.863266	1.647719	0.000195
1643	1.6338e+02	-14.5696	-110.011949	0.000415	4.154039	1.407427	0.000166
1644	1.6348e+02	-14.5456	-109.802018	0.000527	5.268538	1.785029	0.000211
1645	1.6358e+02	-14.5023	-109.579975	0.000557	5.572492	1.888011	0.000223
1646	1.6368e+02	-14.4557	-109.394267	0.000466	4.660630	1.579064	0.000187
1647	1.6378e+02	-14.4108	-109.204522	0.000476	4.761948	1.613392	0.000191
1648	1.6388e+02	-14.3787	-108.966331	0.000598	5.977764	2.025321	0.000239
1649	1.6398e+02	-14.3434	-108.756400	0.000527	5.268538	1.785029	0.000211
1650	1.6408e+02	-14.3033	-108.611063	0.000365	3.647449	1.235789	0.000146
1651	1.6418e+02	-14.2664	-108.397095	0.000537	5.369856	1.819356	0.000215
1652	1.6427e+02	-14.2135	-108.187164	0.000527	5.268538	1.785029	0.000211
1653	1.6437e+02	-14.1878	-107.973195	0.000537	5.369856	1.819356	0.000215
1654	1.6447e+02	-14.1413	-107.783450	0.000476	4.761948	1.613392	0.000191
1655	1.6457e+02	-14.0884	-107.585630	0.000496	4.964584	1.682047	0.000199
1656	1.6467e+02	-14.0499	-107.363588	0.000557	5.572492	1.888011	0.000223
1657	1.6477e+02	-14.0210	-107.125397	0.000598	5.977764	2.025321	0.000239
1658	1.6487e+02	-13.9841	-106.943726	0.000456	4.559312	1.544737	0.000183
1659	1.6497e+02	-13.9408	-106.713609	0.000578	5.775128	1.956666	0.000231
1660	1.6507e+02	-13.8943	-106.523864	0.000476	4.761948	1.613392	0.000191
1661	1.6517e+02	-13.8590	-106.285673	0.000598	5.977764	2.025321	0.000239
1662	1.6527e+02	-13.8157	-106.083816	0.000507	5.065902	1.716374	0.000203
1663	1.6537e+02	-13.7739	-105.922330	0.000405	4.052721	1.373099	0.000162
1664	1.6547e+02	-13.7306	-105.692214	0.000578	5.775128	1.956666	0.000231
1665	1.6557e+02	-13.6937	-105.466134	0.000567	5.673810	1.922339	0.000227
1666	1.6567e+02	-13.6600	-105.300611	0.000415	4.154039	1.407427	0.000166
1667	1.6577e+02	-13.6280	-105.114903	0.000466	4.660630	1.579064	0.000187
1668	1.6587e+02	-13.5750	-104.824229	0.000729	7.294899	2.471579	0.000292
1669	1.6597e+02	-13.5413	-104.642558	0.000456	4.559312	1.544737	0.000183
1670	1.6607e+02	-13.4996	-104.464924	0.000446	4.457994	1.510409	0.000179
1671	1.6616e+02	-13.4451	-104.259030	0.000517	5.167220	1.750701	0.000207
1672	1.6626e+02	-13.4194	-104.045062	0.000537	5.369856	1.819356	0.000215
1673	1.6636e+02	-13.3841	-103.855317	0.000476	4.761948	1.613392	0.000191
1674	1.6646e+02	-13.3408	-103.596940	0.000648	6.484354	2.196959	0.000260
1675	1.6656e+02	-13.3103	-103.391046	0.000517	5.167220	1.750701	0.000207
1676	1.6666e+02	-13.2638	-103.181115	0.000527	5.268538	1.785029	0.000211
1677	1.6676e+02	-13.2076	-102.946961	0.000588	5.876446	1.990994	0.000235
1678	1.6686e+02	-13.1884	-102.737030	0.000527	5.268538	1.785029	0.000211
1679	1.6696e+02	-13.1499	-102.551322	0.000466	4.660630	1.579064	0.000187
1680	1.6706e+02	-13.0986	-102.325242	0.000567	5.673810	1.922339	0.000227
1681	1.6716e+02	-13.0665	-102.087051	0.000598	5.977764	2.025321	0.000239
1682	1.6726e+02	-13.0151	-101.893269	0.000486	4.863266	1.647719	0.000195
1683	1.6736e+02	-12.9847	-101.675264	0.000547	5.471174	1.853684	0.000219
1684	1.6746e+02	-12.9462	-101.489555	0.000466	4.660630	1.579064	0.000187
1685	1.6756e+02	-12.9093	-101.267513	0.000557	5.572492	1.888011	0.000223
1686	1.6766e+02	-12.8627	-101.093916	0.000436	4.356676	1.476082	0.000174
1687	1.6776e+02	-12.8290	-100.859762	0.000588	5.876446	1.990994	0.000235
1688	1.6786e+02	-12.7889	-100.657905	0.000507	5.065902	1.716374	0.000203
1689	1.6796e+02	-12.7472	-100.476234	0.000456	4.559312	1.544737	0.000183
1690	1.6806e+02	-12.7007	-100.278415	0.000496	4.964584	1.682047	0.000199
1691	1.6816e+02	-12.6606	-100.064446	0.000537	5.369856	1.819356	0.000215
1692	1.6825e+02	-12.6205	-99.826255	0.000598	5.977764	2.025321	0.000239
1693	1.6835e+02	-12.5820	-99.567879	0.000648	6.484354	2.196959	0.000260
1694	1.6845e+02	-12.5515	-99.390245	0.000446	4.457994	1.510409	0.000179
1695	1.6855e+02	-12.5130	-99.160128	0.000578	5.775128	1.956666	0.000231
1696	1.6865e+02	-12.4617	-98.909826	0.000628	6.281718	2.128304	0.000252
1697	1.6875e+02	-12.4248	-98.736229	0.000436	4.356676	1.476082	0.000174
1698	1.6885e+02	-12.3815	-98.469778	0.000669	6.686990	2.265614	0.000268
1699	1.6895e+02	-12.3430	-98.300218	0.000426	4.255358	1.441754	0.000170
1700	1.6905e+02	-12.3093	-98.098361	0.000507	5.065902	1.716374	0.000203
1701	1.6915e+02	-12.2644	-97.848059	0.000628	6.281718	2.128304	0.000252
1702	1.6925e+02	-12.2291	-97.670425	0.000446	4.457994	1.510409	0.000179
1703	1.6935e+02	-12.1841	-97.420122	0.000628	6.281718	2.128304	0.000252
1704	1.6945e+02	-12.1408	-97.222303	0.000496	4.964584	1.682047	0.000199
1705	1.6955e+02	-12.1071	-96.980075	0.000608	6.079082	2.059649	0.000243
1706	1.6965e+02	-12.0686	-96.806478	0.000436	4.356676	1.476082	0.000174
1707	1.6975e+02	-12.0237	-96.632881	0.000436	4.356676	1.476082	0.000174
1708	1.6985e+02	-11.9884	-96.402764	0.000578	5.775128	1.956666	0.000231
1709	1.6995e+02	-11.9451	-96.196870	0.000517	5.167220	1.750701	0.000207
1710	1.7005e+02	-11.9034	-95.942531	0.000638	6.383036	2.162631	0.000256
1711	1.7015e+02	-11.8697	-95.676080	0.000669	6.686990	2.265614	0.000268
1712	1.7024e+02	-11.8232	-95.462112	0.000537	5.369856	1.819356	0.000215
1713	1.7034e+02	-11.7863	-95.240069	0.000557	5.572492	1.888011	0.000223
1714	1.7044e+02	-11.7414	-95.030138	0.000527	5.268538	1.785029	0.000211
1715	1.7054e+02	-11.7109	-94.832318	0.000496	4.964584	1.682047	0.000199
1716	1.7064e+02	-11.6676	-94.582016	0.000628	6.281718	2.128304	0.000252
1717	1.7074e+02	-11.6291	-94.404382	0.000446	4.457994	1.510409	0.000179
1718	1.7084e+02	-11.5954	-94.154080	0.000628	6.281718	2.128304	0.000252
1719	1.7094e+02	-11.5521	-93.952223	0.000507	5.065902	1.716374	0.000203
1720	1.7104e+02	-11.5104	-93.689809	0.000659	6.585672	2.231286	0.000264
1721	1.7114e+02	-11.4671	-93.471804	0.000547	5.471174	1.853684	0.000219
1722	1.7124e+02	-11.4205	-93.245724	0.000567	5.673810	1.922339	0.000227
1723	1.7134e+02	-11.4013	-93.055979	0.000476	4.761948	1.613392	0.000191
1724	1.7144e+02	-11.3499	-92.854122	0.000507	5.065902	1.716374	0.000203
1725	1.7154e+02	-11.3114	-92.664377	0.000476	4.761948	1.613392	0.000191
1726	1.7164e+02	-11.2745	-92.434260	0.000578	5.775128	1.956666	0.000231
1727	1.7174e+02	-11.2296	-92.208180	0.000567	5.673810	1.922339	0.000227
1728	1.7184e+02	-11.1959	-92.014398	0.000486	4.863266	1.647719	0.000195
1729	1.7194e+02	-11.1526	-91.747947	0.000669	6.686990	2.265614	0.000268
1730	1.7204e+02	-11.1157	-91.509756	0.000598	5.977764	2.025321	0.000239
1731	1.7213e+02	-11.0724	-91.279639	0.000578	5.775128	1.956666	0.000231
1732	1.7223e+02	-11.0323	-91.009151	0.000679	6.788308	2.299941	0.000272
1733	1.7233e+02	-10.9938	-90.791146	0.000547	5.471174	1.853684	0.000219
1734	1.7243e+02	-10.9473	-90.573140	0.000547	5.471174	1.853684	0.000219
1735	1.7253e+02	-10.9152	-90.330912	0.000608	6.079082	2.059649	0.000243
1736	1.7263e+02	-10.8799	-90.137130	0.000486	4.863266	1.647719	0.000195
1737	1.7273e+02	-10.8286	-89.907013	0.000578	5.775128	1.956666	0.000231
1738	1.7283e+02	-10.7997	-89.693045	0.000537	5.369856	1.819356	0.000215
1739	1.7293e+02	-10.7628	-89.466965	0.000567	5.673810	1.922339	0.000227
1740	1.7303e+02	-10.7066	-89.236848	0.000578	5.775128	1.956666	0.000231
1741	1.7313e+02	-10.6730	-89.018843	0.000547	5.471174	1.853684	0.000219
1742	1.7323e+02	-10.6329	-88.841209	0.000446	4.457994	1.510409	0.000179
1743	1.7333e+02	-10.5815	-88.627241	0.000537	5.369856	1.819356	0.000215
1744	1.7343e+02	-10.5559	-88.380976	0.000618	6.180400	2.093976	0.000248
1745	1.7353e+02	-10.5093	-88.130673	0.000628	6.281718	2.128304	0.000252
1746	1.7363e+02	-10.4821	-87.896519	0.000588	5.876446	1.990994	0.000235
1747	1.7373e+02	-10.4291	-87.646217	0.000628	6.281718	2.128304	0.000252
1748	1.7383e+02	-10.3890	-87.428212	0.000547	5.471174	1.853684	0.000219
1749	1.7393e+02	-10.3537	-87.210206	0.000547	5.471174	1.853684	0.000219
1750	1.7403e+02	-10.3184	-86.988164	0.000557	5.572492	1.888011	0.000223
1751	1.7413e+02	-10.2751	-86.733824	0.000638	6.383036	2.162631	0.000256
1752	1.7422e+02	-10.2398	-86.531967	0.000507	5.065902	1.716374	0.000203
1753	1.7432e+02	-10.2045	-86.277628	0.000638	6.383036	2.162631	0.000256
1754	1.7442e+02	-10.1580	-86.087882	0.000476	4.761948	1.613392	0.000191
1755	1.7452e+02	-10.1163	-85.821432	0.000669	6.686990	2.265614	0.000268
1756	1.7462e+02	-10.0762	-85.579203	0.000608	6.079082	2.059649	0.000243
1757	1.7472e+02	-10.0345	-85.377347	0.000507	5.065902	1.716374	0.000203
1758	1.7482e+02	-9.9944	-85.106858	0.000679	6.788308	2.299941	0.000272
1759	1.7492e+02	-9.9462	-84.933262	0.000436	4.356676	1.476082	0.000174
1760	1.7502e+02	-9.9174	-84.727368	0.000517	5.167220	1.750701	0.000207
1761	1.7512e+02	-9.8580	-84.525511	0.000507	5.065902	1.716374	0.000203
1762	1.7522e+02	-9.8307	-84.267134	0.000648	6.484354	2.196959	0.000260
1763	1.7532e+02	-9.7938	-84.012795	0.000638	6.383036	2.162631	0.000256
1764	1.7542e+02	-9.7585	-83.758455	0.000638	6.383036	2.162631	0.000256
1765	1.7552e+02	-9.7233	-83.516227	0.000608	6.079082	2.059649	0.000243
1766	1.7562e+02	-9.6671	-83.310333	0.000517	5.167220	1.750701	0.000207
1767	1.7572e+02	-9.6414	-83.060031	0.000628	6.281718	2.128304	0.000252
1768	1.7582e+02	-9.5997	-82.789543	0.000679	6.788308	2.299941	0.000272
1769	1.7592e+02	-9.5612	-82.599797	0.000476	4.761948	1.613392	0.000191
1770	1.7602e+02	-9.5131	-82.361606	0.000598	5.977764	2.025321	0.000239
1771	1.7612e+02	-9.4730	-82.127452	0.000588	5.876446	1.990994	0.000235
1772	1.7621e+02	-9.4393	-81.877150	0.000628	6.281718	2.128304	0.000252
1773	1.7631e+02	-9.3960	-81.638959	0.000598	5.977764	2.025321	0.000239
1774	1.7641e+02	-9.3623	-81.388656	0.000628	6.281718	2.128304	0.000252
1775	1.7651e+02	-9.3206	-81.206985	0.000456	4.559312	1.544737	0.000183
1776	1.7661e+02	-9.2805	-80.984943	0.000557	5.572492	1.888011	0.000223
1777	1.7671e+02	-9.2324	-80.730603	0.000638	6.383036	2.162631	0.000256
1778	1.7681e+02	-9.1955	-80.476264	0.000638	6.383036	2.162631	0.000256
1779	1.7691e+02	-9.1586	-80.258258	0.000547	5.471174	1.853684	0.000219
1780	1.7701e+02	-9.1217	-79.971622	0.000719	7.193581	2.437251	0.000288
1781	1.7711e+02	-9.0767	-79.785914	0.000466	4.660630	1.579064	0.000187
1782	1.7721e+02	-9.0366	-79.479091	0.000770	7.700171	2.608888	0.000308
1783	1.7731e+02	-9.0078	-79.257049	0.000557	5.572492	1.888011	0.000223
1784	1.7741e+02	-8.9548	-79.014821	0.000608	6.079082	2.059649	0.000243
1785	1.7751e+02	-8.9292	-78.800852	0.000537	5.369856	1.819356	0.000215
1786	1.7761e+02	-8.8826	-78.582847	0.000547	5.471174	1.853684	0.000219
1787	1.7771e+02	-8.8393	-78.312359	0.000679	6.788308	2.299941	0.000272
1788	1.7781e+02	-8.7960	-78.074168	0.000598	5.977764	2.025321	0.000239
1789	1.7791e+02	-8.7607	-77.852126	0.000557	5.572492	1.888011	0.000223
1790	1.7801e+02	-8.7206	-77.557415	0.000740	7.396217	2.505906	0.000296
1791	1.7810e+02	-8.6821	-77.339409	0.000547	5.471174	1.853684	0.000219
1792	1.7820e+02	-8.6372	-77.145627	0.000486	4.863266	1.647719	0.000195
1793	1.7830e+02	-8.5971	-76.875139	0.000679	6.788308	2.299941	0.000272
1794	1.7840e+02	-8.5522	-76.661171	0.000537	5.369856	1.819356	0.000215
1795	1.7850e+02	-8.5249	-76.398757	0.000659	6.585672	2.231286	0.000264
1796	1.7860e+02	-8.4768	-76.168640	0.000578	5.775128	1.956666	0.000231
1797	1.7870e+02	-8.4447	-75.946598	0.000557	5.572492	1.888011	0.000223
1798	1.7880e+02	-8.3966	-75.684184	0.000659	6.585672	2.231286	0.000264
1799	1.7890e+02	-8.3629	-75.474253	0.000527	5.268538	1.785029	0.000211
1800	1.7900e+02	-8.3244	-75.232024	0.000608	6.079082	2.059649	0.000243
1801	1.7910e+02	-8.2810	-74.905016	0.000821	8.206761	2.780526	0.000329
1802	1.7920e+02	-8.2393	-74.703160	0.000507	5.065902	1.716374	0.000203
1803	1.7930e+02	-8.1944	-74.432672	0.000679	6.788308	2.299941	0.000272
1804	1.7940e+02	-8.1591	-74.206592	0.000567	5.673810	1.922339	0.000227
1805	1.7950e+02	-8.1335	-73.952252	0.000638	6.383036	2.162631	0.000256
1806	1.7960e+02	-8.0918	-73.677727	0.000689	6.889626	2.334269	0.000276
1807	1.7970e+02	-8.0452	-73.483945	0.000486	4.863266	1.647719	0.000195
1808	1.7980e+02	-8.0035	-73.237679	0.000618	6.180400	2.093976	0.000248
1809	1.7990e+02	-7.9634	-72.987377	0.000628	6.281718	2.128304	0.000252
1810	1.8000e+02	-7.9185	-72.745149	0.000608	6.079082	2.059649	0.000243
1811	1.8009e+02	-7.8832	-72.486772	0.000648	6.484354	2.196959	0.000260
1812	1.8019e+02	-7.8351	-72.288953	0.000496	4.964584	1.682047	0.000199
1813	1.8029e+02	-7.8030	-72.038650	0.000628	6.281718	2.128304	0.000252
1814	1.8039e+02	-7.7677	-71.792385	0.000618	6.180400	2.093976	0.000248
1815	1.8049e+02	-7.7228	-71.550157	0.000608	6.079082	2.059649	0.000243
1816	1.8059e+02	-7.6875	-71.316003	0.000588	5.876446	1.990994	0.000235
1817	1.8069e+02	-7.6442	-71.049552	0.000669	6.686990	2.265614	0.000268
1818	1.8079e+02	-7.5960	-70.795212	0.000638	6.383036	2.162631	0.000256
1819	1.8089e+02	-7.5656	-70.532798	0.000659	6.585672	2.231286	0.000264
1820	1.8099e+02	-7.5239	-70.282496	0.000628	6.281718	2.128304	0.000252
1821	1.8109e+02	-7.4805	-70.024119	0.000648	6.484354	2.196959	0.000260
1822	1.8119e+02	-7.4452	-69.802077	0.000557	5.572492	1.888011	0.000223
1823	1.8129e+02	-7.3971	-69.523515	0.000699	6.990944	2.368596	0.000280
1824	1.8139e+02	-7.3714	-69.317621	0.000517	5.167220	1.750701	0.000207
1825	1.8149e+02	-7.3265	-69.030984	0.000719	7.193581	2.437251	0.000288
1826	1.8159e+02	-7.2848	-68.841239	0.000476	4.761948	1.613392	0.000191
1827	1.8169e+02	-7.2543	-68.574788	0.000669	6.686990	2.265614	0.000268
1828	1.8179e+02	-7.2062	-68.320448	0.000638	6.383036	2.162631	0.000256
1829	1.8189e+02	-7.1629	-68.074183	0.000618	6.180400	2.093976	0.000248
1830	1.8199e+02	-7.1148	-67.856177	0.000547	5.471174	1.853684	0.000219
1831	1.8209e+02	-7.0875	-67.609912	0.000618	6.180400	2.093976	0.000248
1832	1.8218e+02	-7.0442	-67.347498	0.000659	6.585672	2.231286	0.000264
1833	1.8228e+02	-7.0073	-67.093159	0.000638	6.383036	2.162631	0.000256
1834	1.8238e+02	-6.9624	-66.810559	0.000709	7.092263	2.402924	0.000284
1835	1.8248e+02	-6.9191	-66.544108	0.000669	6.686990	2.265614	0.000268
1836	1.8258e+02	-6.8950	-66.370512	0.000436	4.356676	1.476082	0.000174
1837	1.8268e+02	-6.8421	-66.047541	0.000811	8.105443	2.746198	0.000325
1838	1.8278e+02	-6.8116	-65.809350	0.000598	5.977764	2.025321	0.000239
1839	1.8288e+02	-6.7650	-65.550973	0.000648	6.484354	2.196959	0.000260
1840	1.8298e+02	-6.7330	-65.296633	0.000638	6.383036	2.162631	0.000256
1841	1.8308e+02	-6.6880	-65.070554	0.000567	5.673810	1.922339	0.000227
1842	1.8318e+02	-6.6544	-64.751620	0.000800	8.004125	2.711871	0.000321
1843	1.8328e+02	-6.6078	-64.573986	0.000446	4.457994	1.510409	0.000179
1844	1.8338e+02	-6.5709	-64.283312	0.000729	7.294899	2.471579	0.000292
1845	1.8348e+02	-6.5228	-64.057233	0.000567	5.673810	1.922339	0.000227
1846	1.8358e+02	-6.4827	-63.819042	0.000598	5.977764	2.025321	0.000239
1847	1.8368e+02	-6.4410	-63.572776	0.000618	6.180400	2.093976	0.000248
1848	1.8378e+02	-6.4121	-63.322474	0.000628	6.281718	2.128304	0.000252
1849	1.8388e+02	-6.3640	-63.112543	0.000527	5.268538	1.785029	0.000211
1850	1.8398e+02	-6.3191	-62.829943	0.000709	7.092263	2.402924	0.000284
1851	1.8407e+02	-6.2934	-62.587715	0.000608	6.079082	2.059649	0.000243
1852	1.8417e+02	-6.2645	-62.337413	0.000628	6.281718	2.128304	0.000252
1853	1.8427e+02	-6.2020	-62.083073	0.000638	6.383036	2.162631	0.000256
1854	1.8437e+02	-6.1715	-61.836808	0.000618	6.180400	2.093976	0.000248
1855	1.8447e+02	-6.1394	-61.521912	0.000790	7.902807	2.677543	0.000316
1856	1.8457e+02	-6.0945	-61.267572	0.000638	6.383036	2.162631	0.000256
1857	1.8467e+02	-6.0496	-61.045529	0.000557	5.572492	1.888011	0.000223
1858	1.8477e+02	-6.0143	-60.742744	0.000760	7.598853	2.574561	0.000304
1859	1.8487e+02	-5.9758	-60.508590	0.000588	5.876446	1.990994	0.000235
1860	1.8497e+02	-5.9308	-60.266362	0.000608	6.079082	2.059649	0.000243
1861	1.8507e+02	-5.8907	-60.024134	0.000608	6.079082	2.059649	0.000243
1862	1.8517e+02	-5.8651	-59.761720	0.000659	6.585672	2.231286	0.000264
1863	1.8527e+02	-5.8105	-59.535641	0.000567	5.673810	1.922339	0.000227
1864	1.8537e+02	-5.7752	-59.305524	0.000578	5.775128	1.956666	0.000231
1865	1.8547e+02	-5.7399	-59.039073	0.000669	6.686990	2.265614	0.000268
1866	1.8557e+02	-5.7030	-58.776659	0.000659	6.585672	2.231286	0.000264
1867	1.8567e+02	-5.6549	-58.526357	0.000628	6.281718	2.128304	0.000252
1868	1.8577e+02	-5.6116	-58.272017	0.000638	6.383036	2.162631	0.000256
1869	1.8587e+02	-5.5795	-58.017678	0.000638	6.383036	2.162631	0.000256
1870	1.8597e+02	-5.5298	-57.739115	0.000699	6.990944	2.368596	0.000280
1871	1.8606e+02	-5.5025	-57.484776	0.000638	6.383036	2.162631	0.000256
1872	1.8616e+02	-5.4544	-57.226399	0.000648	6.484354	2.196959	0.000260
1873	1.8626e+02	-5.4191	-56.951874	0.000689	6.889626	2.334269	0.000276
1874	1.8636e+02	-5.3758	-56.701571	0.000628	6.281718	2.128304	0.000252
1875	1.8646e+02	-5.3325	-56.435120	0.000669	6.686990	2.265614	0.000268
1876	1.8656e+02	-5.3020	-56.176744	0.000648	6.484354	2.196959	0.000260
1877	1.8666e+02	-5.2603	-55.922404	0.000638	6.383036	2.162631	0.000256
1878	1.8676e+02	-5.2122	-55.659990	0.000659	6.585672	2.231286	0.000264
1879	1.8686e+02	-5.1704	-55.429874	0.000578	5.775128	1.956666	0.000231
1880	1.8696e+02	-5.1384	-55.179571	0.000628	6.281718	2.128304	0.000252
1881	1.8706e+02	-5.0966	-54.961566	0.000547	5.471174	1.853684	0.000219
1882	1.8716e+02	-5.0581	-54.622447	0.000851	8.510715	2.883508	0.000341
1883	1.8726e+02	-5.0132	-54.404441	0.000547	5.471174	1.853684	0.000219
1884	1.8736e+02	-4.9683	-54.162213	0.000608	6.079082	2.059649	0.000243
1885	1.8746e+02	-4.9410	-53.932096	0.000578	5.775128	1.956666	0.000231
1886	1.8756e+02	-4.8945	-53.609125	0.000811	8.105443	2.746198	0.000325
1887	1.8766e+02	-4.8528	-53.391120	0.000547	5.471174	1.853684	0.000219
1888	1.8776e+02	-4.8207	-53.084298	0.000770	7.700171	2.608888	0.000308
1889	1.8786e+02	-4.7790	-52.821884	0.000659	6.585672	2.231286	0.000264
1890	1.8796e+02	-4.7341	-52.555433	0.000669	6.686990	2.265614	0.000268
1891	1.8806e+02	-4.7020	-52.244574	0.000780	7.801489	2.643216	0.000312
1892	1.8815e+02	-4.6523	-51.994271	0.000628	6.281718	2.128304	0.000252
1893	1.8825e+02	-4.6218	-51.760117	0.000588	5.876446	1.990994	0.000235
1894	1.8835e+02	-4.5897	-51.457332	0.000760	7.598853	2.574561	0.000304
1895	1.8845e+02	-4.5496	-51.239327	0.000547	5.471174	1.853684	0.000219
1896	1.8855e+02	-4.4983	-50.956727	0.000709	7.092263	2.402924	0.000284
1897	1.8865e+02	-4.4582	-50.678165	0.000699	6.990944	2.368596	0.000280
1898	1.8875e+02	-4.4084	-50.476308	0.000507	5.065902	1.716374	0.000203
1899	1.8885e+02	-4.3796	-50.217931	0.000648	6.484354	2.196959	0.000260
1900	1.8895e+02	-4.3314	-49.991852	0.000567	5.673810	1.922339	0.000227
1901	1.8905e+02	-4.3058	-49.680992	0.000780	7.801489	2.643216	0.000312
1902	1.8915e+02	-4.2576	-49.438764	0.000608	6.079082	2.059649	0.000243
1903	1.8925e+02	-4.2223	-49.160202	0.000699	6.990944	2.368596	0.000280
1904	1.8935e+02	-4.1774	-48.909899	0.000628	6.281718	2.128304	0.000252
1905	1.8945e+02	-4.1389	-48.627300	0.000709	7.092263	2.402924	0.000284
1906	1.8955e+02	-4.0972	-48.376998	0.000628	6.281718	2.128304	0.000252
1907	1.8965e+02	-4.0475	-48.066138	0.000780	7.801489	2.643216	0.000312
1908	1.8975e+02	-4.0218	-47.831984	0.000588	5.876446	1.990994	0.000235
1909	1.8985e+02	-3.9833	-47.513051	0.000800	8.004125	2.711871	0.000321
1910	1.8995e+02	-3.9448	-47.266785	0.000618	6.180400	2.093976	0.000248
1911	1.9004e+02	-3.9015	-46.992260	0.000689	6.889626	2.334269	0.000276
1912	1.9014e+02	-3.8614	-46.709660	0.000709	7.092263	2.402924	0.000284
1913	1.9024e+02	-3.8229	-46.471469	0.000598	5.977764	2.025321	0.000239
1914	1.9034e+02	-3.7780	-46.148499	0.000811	8.105443	2.746198	0.000325
1915	1.9044e+02	-3.7443	-45.942605	0.000517	5.167220	1.750701	0.000207
1916	1.9054e+02	-3.6994	-45.704414	0.000598	5.977764	2.025321	0.000239
1917	1.9064e+02	-3.6609	-45.429888	0.000689	6.889626	2.334269	0.000276
1918	1.9074e+02	-3.6191	-45.187660	0.000608	6.079082	2.059649	0.000243
1919	1.9084e+02	-3.5903	-44.905061	0.000709	7.092263	2.402924	0.000284
1920	1.9094e+02	-3.5293	-44.626498	0.000699	6.990944	2.368596	0.000280
1921	1.9104e+02	-3.5069	-44.428679	0.000496	4.964584	1.682047	0.000199
1922	1.9114e+02	-3.4571	-44.142042	0.000719	7.193581	2.437251	0.000288
1923	1.9124e+02	-3.4234	-43.847331	0.000740	7.396217	2.505906	0.000296
1924	1.9134e+02	-3.3753	-43.576843	0.000679	6.788308	2.299941	0.000272
1925	1.9144e+02	-3.3336	-43.306355	0.000679	6.788308	2.299941	0.000272
1926	1.9154e+02	-3.2983	-43.035867	0.000679	6.788308	2.299941	0.000272
1927	1.9164e+02	-3.2630	-42.749230	0.000719	7.193581	2.437251	0.000288
1928	1.9174e+02	-3.2245	-42.494891	0.000638	6.383036	2.162631	0.000256
1929	1.9184e+02	-3.1844	-42.196143	0.000750	7.497535	2.540234	0.000300
1930	1.9194e+02	-3.1411	-41.913543	0.000709	7.092263	2.402924	0.000284
1931	1.9203e+02	-3.1058	-41.655167	0.000648	6.484354	2.196959	0.000260
1932	1.9213e+02	-3.0609	-41.396790	0.000648	6.484354	2.196959	0.000260
1933	1.9223e+02	-3.0336	-41.098042	0.000750	7.497535	2.540234	0.000300
1934	1.9233e+02	-2.9887	-40.851777	0.000618	6.180400	2.093976	0.000248
1935	1.9243e+02	-2.9486	-40.637808	0.000537	5.369856	1.819356	0.000215
1936	1.9253e+02	-2.9069	-40.322912	0.000790	7.902807	2.677543	0.000316
1937	1.9263e+02	-2.8587	-40.129129	0.000486	4.863266	1.647719	0.000195
1938	1.9273e+02	-2.8331	-39.818270	0.000780	7.801489	2.643216	0.000312
1939	1.9283e+02	-2.7833	-39.515485	0.000760	7.598853	2.574561	0.000304
1940	1.9293e+02	-2.7529	-39.236922	0.000699	6.990944	2.368596	0.000280
1941	1.9303e+02	-2.6951	-38.998731	0.000598	5.977764	2.025321	0.000239
1942	1.9313e+02	-2.6710	-38.724206	0.000689	6.889626	2.334269	0.000276
1943	1.9323e+02	-2.6197	-38.445644	0.000699	6.990944	2.368596	0.000280
1944	1.9333e+02	-2.5812	-38.126710	0.000800	8.004125	2.711871	0.000321
1945	1.9343e+02	-2.5459	-37.892556	0.000588	5.876446	1.990994	0.000235
1946	1.9353e+02	-2.5074	-37.593808	0.000750	7.497535	2.540234	0.000300
1947	1.9363e+02	-2.4721	-37.282949	0.000780	7.801489	2.643216	0.000312
1948	1.9373e+02	-2.4288	-36.992275	0.000729	7.294899	2.471579	0.000292
1949	1.9383e+02	-2.3951	-36.746009	0.000618	6.180400	2.093976	0.000248
1950	1.9393e+02	-2.3454	-36.499744	0.000618	6.180400	2.093976	0.000248
1951	1.9403e+02	-2.3117	-36.176773	0.000811	8.105443	2.746198	0.000325
1952	1.9412e+02	-2.2684	-35.914360	0.000659	6.585672	2.231286	0.000264
1953	1.9422e+02	-2.2219	-35.684243	0.000578	5.775128	1.956666	0.000231
1954	1.9432e+02	-2.1930	-35.409718	0.000689	6.889626	2.334269	0.000276
1955	1.9442e+02	-2.1433	-35.127118	0.000709	7.092263	2.402924	0.000284
1956	1.9452e+02	-2.1144	-34.844519	0.000709	7.092263	2.402924	0.000284
1957	1.9462e+02	-2.0630	-34.594216	0.000628	6.281718	2.128304	0.000252
1958	1.9472e+02	-2.0245	-34.251060	0.000861	8.612033	2.917836	0.000345
1959	1.9482e+02	-1.9909	-34.024980	0.000567	5.673810	1.922339	0.000227
1960	1.9492e+02	-1.9491	-33.754492	0.000679	6.788308	2.299941	0.000272
1961	1.9502e+02	-1.9090	-33.439595	0.000790	7.902807	2.677543	0.000316
1962	1.9512e+02	-1.8721	-33.193330	0.000618	6.180400	2.093976	0.000248
1963	1.9522e+02	-1.8288	-32.878433	0.000790	7.902807	2.677543	0.000316
1964	1.9532e+02	-1.7839	-32.535277	0.000861	8.612033	2.917836	0.000345
1965	1.9542e+02	-1.7598	-32.284974	0.000628	6.281718	2.128304	0.000252
1966	1.9552e+02	-1.7149	-32.022561	0.000659	6.585672	2.231286	0.000264
1967	1.9562e+02	-1.6748	-31.764184	0.000648	6.484354	2.196959	0.000260
1968	1.9572e+02	-1.6235	-31.489659	0.000689	6.889626	2.334269	0.000276
1969	1.9582e+02	-1.5994	-31.243393	0.000618	6.180400	2.093976	0.000248
1970	1.9592e+02	-1.5545	-30.952720	0.000729	7.294899	2.471579	0.000292
1971	1.9601e+02	-1.5112	-30.710492	0.000608	6.079082	2.059649	0.000243
1972	1.9611e+02	-1.4647	-30.431929	0.000699	6.990944	2.368596	0.000280
1973	1.9621e+02	-1.4374	-30.149330	0.000709	7.092263	2.402924	0.000284
1974	1.9631e+02	-1.3941	-29.890953	0.000648	6.484354	2.196959	0.000260
1975	1.9641e+02	-1.3540	-29.600279	0.000729	7.294899	2.471579	0.000292
1976	1.9651e+02	-1.3139	-29.337865	0.000659	6.585672	2.231286	0.000264
1977	1.9661e+02	-1.2689	-29.047192	0.000729	7.294899	2.471579	0.000292
1978	1.9671e+02	-1.2353	-28.760555	0.000719	7.193581	2.437251	0.000288
1979	1.9681e+02	-1.1952	-28.473918	0.000719	7.193581	2.437251	0.000288
1980	1.9691e+02	-1.1567	-28.187282	0.000719	7.193581	2.437251	0.000288
1981	1.9701e+02	-1.1198	-27.880459	0.000770	7.700171	2.608888	0.000308
1982	1.9711e+02	-1.0796	-27.609971	0.000679	6.788308	2.299941	0.000272
1983	1.9721e+02	-1.0363	-27.331409	0.000699	6.990944	2.368596	0.000280
1984	1.9731e+02	-0.9962	-27.064958	0.000669	6.686990	2.265614	0.000268
1985	1.9741e+02	-0.9577	-26.766210	0.000750	7.497535	2.540234	0.000300
1986	1.9751e+02	-0.9128	-26.459388	0.000770	7.700171	2.608888	0.000308
1987	1.9761e+02	-0.8711	-26.201011	0.000648	6.484354	2.196959	0.000260
1988	1.9771e+02	-0.8390	-25.962820	0.000598	5.977764	2.025321	0.000239
1989	1.9781e+02	-0.7973	-25.688295	0.000689	6.889626	2.334269	0.000276
1990	1.9791e+02	-0.7572	-25.421844	0.000669	6.686990	2.265614	0.000268
1991	1.9800e+02	-0.7155	-25.143281	0.000699	6.990944	2.368596	0.000280
1992	1.9810e+02	-0.6754	-24.836459	0.000770	7.700171	2.608888	0.000308
1993	1.9820e+02	-0.6449	-24.582120	0.000638	6.383036	2.162631	0.000256
1994	1.9830e+02	-0.5888	-24.315669	0.000669	6.686990	2.265614	0.000268
1995	1.9840e+02	-0.5583	-23.996735	0.000800	8.004125	2.711871	0.000321
1996	1.9850e+02	-0.5262	-23.758544	0.000598	5.977764	2.025321	0.000239
1997	1.9860e+02	-0.4652	-23.447684	0.000780	7.801489	2.643216	0.000312
1998	1.9870e+02	-0.4347	-23.177196	0.000679	6.788308	2.299941	0.000272
1999	1.9880e+02	-0.4027	-22.870374	0.000770	7.700171	2.608888	0.000308
2000	1.9890e+02	-0.3626	-22.547403	0.000811	8.105443	2.746198	0.000325
2001	1.9900e+02	-0.3241	-22.260766	0.000719	7.193581	2.437251	0.000288
2002	1.9910e+02	-0.2872	-21.966056	0.000740	7.396217	2.505906	0.000296
2003	1.9920e+02	-0.2390	-21.679419	0.000719	7.193581	2.437251	0.000288
2004	1.9930e+02	-0.1909	-21.425079	0.000638	6.383036	2.162631	0.000256
2005	1.9940e+02	-0.1524	-21.146517	0.000699	6.990944	2.368596	0.000280
2006	1.9950e+02	-0.1123	-20.912363	0.000588	5.876446	1.990994	0.000235
2007	1.9960e+02	-0.0722	-20.605541	0.000770	7.700171	2.608888	0.000308
2008	1.9970e+02	-0.0401	-20.306793	0.000750	7.497535	2.540234	0.000300
2009	1.9980e+02	0.0080	-20.056490	0.000750	7.497535	2.540234	0.000252

PMax (uC/cm2):	1.37e+02
Pr (uC/cm2):	9.55e+00
-Pr (uC/cm2):	-1.39e+01
PLoss (uC/cm2):	-1.39e+01
-Vc:	-1.31e+00
C (Max-Eff) (nF):	6.87e-01
K (Eff):	2.33e+03
Vert. (+/-Pr) Shift (uC/cm2):	-2.16e+00
Offset (uC/cm2):	6.19e+00

A (Loop Area - uC/cm2·Volts):	1.35e-01



Hysteresis Version: 5.48.1 - Radiant Technologies, Inc., 1999 - 9/12/24

