»»»»»»»»»»»»»»»»»»»»»»»»»»»»»»»»»»»» Hysteresis ««««««««««««««««««««««««««««««««««««
»»»  Executed Version:	5.48.1
»»»  Vision Version:	5.48.4 (R)
»»»  Vision Compiled:	9/18/24
»»»  Driver Version:	5.47.0
»»»  Windows Version:	Windows 8 or 8.1
»»»  Processor Information:	x86 (AMD or Intel) - 32 Processors
»»»  Tester Name:	PMF21124-494 (100V)
»»»  Tester S/N:	PMF21124-494
»»»  Internal Amp Type:	100V RevK 270k
»»»  Internal Amp S/N:	iAB2-596/K     
»»»  Execution Count:	1
»»»»»»»»»»»»»»»»»»»»»»»»»»»»»»»»»»»»»»»»»»««««««««««««««««««««««««««««««««««««««««««

Stored:	6/18/2025 - 15:43:33
Configured:	06/18/25 09:47:30 AM
Executed:	06/18/25 03:42:34 PM

»»»»»»»»»»»»»»»»»»»»»»»»»»»»»»»»»»» Sample Info ««««««««««««««««««««««««««««««««««««
Sample Name:	
Lot Name:	
Wafer Name:	
Die Row/Column:	0/0
Capacitor Number:	0
Sample Area (cm2):	1.00e-04
Sample Thickness (microns):	3.00e-01

Amplifier:	Internal

»»»»»»»»»»»»»»»»»»»»»»»»»»»»»»»»»»» Tester Info «««««««««««««««««««««««««««««««««««
Tester Name:	PMF21124-494 (100V)
Tester Serial Number:	PMF21124-494
Return Signal Amp. Level:	0.19 [Index: 3]

»»»»»»»»»»»»»»»»»»»»»»»»»»»»»»»» Hysteresis Info ««««««««««««««««««««««««««««««««««
Task Name:	Hyst-554
Volts:	20.00
Field:	666.67 (kV/cm)
DCBias:	0.00
DCField:	0.00 (kV/cm)
Hysteresis Period (ms):	1.00e+00
Preset:	Enabled
Preset Delay (ms):	1.00e+03
Profile:	Standard Bipolar

»»»»»»»»»»»»»»»»»»»»»»»»»»»»»»»»»»»»»» Data «««««««««««««««««««««««««««««««««««««««
Points:	2001

Valid Data

Point	Time (ms)	Drive Voltage	Measured Polarization (uC/cm2)	Capacitance (uF)	Normalized Capacitance (uF/cm2)	Dielectric Constant	Instantaneous Current (mA)
   1	0.0000e+00	0.0144	-6.828036	0.001243	12.426217	4.210116	0.099214
   2	5.0000e-04	0.0353	-6.331965	0.001243	12.426217	4.210116	0.099214
   3	1.0000e-03	0.0594	-6.586050	-0.000636	-6.364648	-2.156401	-0.050817
   4	1.5000e-03	0.1027	-6.267435	0.000798	7.981066	2.704058	0.063723
   5	2.0000e-03	0.1332	-6.013350	0.000636	6.364648	2.156401	0.050817
   6	2.5000e-03	0.1749	-5.775397	0.000596	5.960543	2.019487	0.047591
   7	3.0000e-03	0.2182	-5.678603	0.000242	2.424628	0.821486	0.019359
   8	3.5000e-03	0.2487	-5.557610	0.000303	3.030785	1.026858	0.024199
   9	4.0000e-03	0.2904	-5.198664	0.000899	8.991327	3.046344	0.071789
  10	4.5000e-03	0.3289	-4.855851	0.000859	8.587223	2.909430	0.068563
  11	5.0000e-03	0.3786	-4.702593	0.000384	3.838994	1.300686	0.030652
  12	5.5000e-03	0.4043	-4.424309	0.000697	6.970804	2.361772	0.055657
  13	6.0000e-03	0.4444	-4.262985	0.000404	4.041046	1.369143	0.032265
  14	6.5000e-03	0.4909	-4.065363	0.000495	4.950281	1.677201	0.039524
  15	7.0000e-03	0.5294	-3.738682	0.000818	8.183118	2.772516	0.065336
  16	7.5000e-03	0.5615	-3.658020	0.000202	2.020523	0.684572	0.016132
  17	8.0000e-03	0.6064	-3.282942	0.000940	9.395432	3.183259	0.075016
  18	8.5000e-03	0.6529	-3.141784	0.000354	3.535915	1.198001	0.028232
  19	9.0000e-03	0.6914	-2.988526	0.000384	3.838994	1.300686	0.030652
  20	9.5000e-03	0.7331	-2.762673	0.000566	5.657464	1.916801	0.045171
  21	1.0000e-02	0.7732	-2.504554	0.000647	6.465674	2.190630	0.051624
  22	1.0500e-02	0.8198	-2.230304	0.000687	6.869778	2.327544	0.054850
  23	1.1000e-02	0.8535	-1.952020	0.000697	6.970804	2.361772	0.055657
  24	1.1500e-02	0.8903	-1.798762	0.000384	3.838994	1.300686	0.030652
  25	1.2000e-02	0.9256	-1.552743	0.000616	6.162595	2.087944	0.049204
  26	1.2500e-02	0.9722	-1.157499	0.000990	9.900563	3.354401	0.079049
  27	1.3000e-02	1.0139	-0.947778	0.000525	5.253360	1.779886	0.041944
  28	1.3500e-02	1.0524	-0.818719	0.000323	3.232837	1.095315	0.025812
  29	1.4000e-02	1.0861	-0.524303	0.000737	7.374909	2.498687	0.058883
  30	1.4500e-02	1.1326	-0.443641	0.000202	2.020523	0.684572	0.016132
  31	1.5000e-02	1.1663	-0.036298	0.001020	10.203641	3.457087	0.081469
  32	1.5500e-02	1.2256	0.221820	0.000647	6.465674	2.190630	0.051624
  33	1.6000e-02	1.2449	0.371045	0.000374	3.737968	1.266458	0.029845
  34	1.6500e-02	1.2914	0.552535	0.000455	4.546177	1.540286	0.036298
  35	1.7000e-02	1.3331	0.935679	0.000960	9.597484	3.251716	0.076629
  36	1.7500e-02	1.3684	1.169599	0.000586	5.859517	1.985258	0.046784
  37	1.8000e-02	1.4053	1.242194	0.000182	1.818471	0.616115	0.014519
  38	1.8500e-02	1.4550	1.576942	0.000839	8.385171	2.840973	0.066949
  39	1.9000e-02	1.4919	1.706001	0.000323	3.232837	1.095315	0.025812
  40	1.9500e-02	1.5336	1.835060	0.000323	3.232837	1.095315	0.025812
  41	2.0000e-02	1.5738	2.323065	0.001222	12.224164	4.141659	0.097601
  42	2.0500e-02	1.6058	2.403727	0.000202	2.020523	0.684572	0.016132
  43	2.1000e-02	1.6524	2.544885	0.000354	3.535915	1.198001	0.028232
  44	2.1500e-02	1.6925	2.686044	0.000354	3.535915	1.198001	0.028232
  45	2.2000e-02	1.7278	3.113552	0.001071	10.708772	3.628230	0.085502
  46	2.2500e-02	1.7711	3.460399	0.000869	8.688249	2.943658	0.069369
  47	2.3000e-02	1.8112	3.714484	0.000636	6.364648	2.156401	0.050817
  48	2.3500e-02	1.8577	3.686252	-0.000071	-0.707183	-0.239600	-0.005646
  49	2.4000e-02	1.8946	3.984701	0.000748	7.475935	2.532915	0.059690
  50	2.4500e-02	1.9299	4.113761	0.000323	3.232837	1.095315	0.025812
  51	2.5000e-02	1.9764	4.359780	0.000616	6.162595	2.087944	0.049204
  52	2.5500e-02	2.0069	4.742924	0.000960	9.597484	3.251716	0.076629
  53	2.6000e-02	2.0454	5.122035	0.000950	9.496458	3.217487	0.075822
  54	2.6500e-02	2.0999	5.234962	0.000283	2.828732	0.958400	0.022585
  55	2.7000e-02	2.1288	5.400319	0.000414	4.142072	1.403372	0.033071
  56	2.7500e-02	2.1689	5.920589	0.001303	13.032373	4.415488	0.104054
  57	2.8000e-02	2.2106	6.057714	0.000343	3.434889	1.163772	0.027425
  58	2.8500e-02	2.2475	6.045615	-0.000030	-0.303078	-0.102686	-0.002420
  59	2.9000e-02	2.2828	6.400527	0.000889	8.890301	3.012116	0.070983
  60	2.9500e-02	2.3326	6.654613	0.000636	6.364648	2.156401	0.050817
  61	3.0000e-02	2.3775	6.836102	0.000455	4.546177	1.540286	0.036298
  62	3.0500e-02	2.4112	7.049856	0.000535	5.354386	1.814115	0.042751
  63	3.1000e-02	2.4481	7.307975	0.000647	6.465674	2.190630	0.051624
  64	3.1500e-02	2.4930	7.570126	0.000657	6.566700	2.224858	0.052430
  65	3.2000e-02	2.5283	7.683053	0.000283	2.828732	0.958400	0.022585
  66	3.2500e-02	2.5796	7.989568	0.000768	7.677987	2.601373	0.061303
  67	3.3000e-02	2.6165	8.167025	0.000445	4.445151	1.506058	0.035491
  68	3.3500e-02	2.6534	8.493706	0.000818	8.183118	2.772516	0.065336
  69	3.4000e-02	2.6951	8.784089	0.000727	7.273883	2.464458	0.058077
  70	3.4500e-02	2.7336	9.441484	0.001647	16.467263	5.579260	0.131479
  71	3.5000e-02	2.7673	9.510047	0.000172	1.717445	0.581886	0.013713
  72	3.5500e-02	2.8138	9.461649	-0.000121	-1.212314	-0.410743	-0.009679
  73	3.6000e-02	2.8475	9.893191	0.001081	10.809798	3.662459	0.086308
  74	3.6500e-02	2.8892	9.953687	0.000152	1.515392	0.513429	0.012099
  75	3.7000e-02	2.9341	10.304567	0.000879	8.789275	2.977887	0.070176
  76	3.7500e-02	2.9710	10.413461	0.000273	2.727706	0.924172	0.021779
  77	3.8000e-02	3.0144	10.724009	0.000778	7.779014	2.635601	0.062110
  78	3.8500e-02	3.0432	11.127319	0.001010	10.102615	3.422859	0.080662
  79	3.9000e-02	3.0914	11.220080	0.000232	2.323601	0.787257	0.018552
  80	3.9500e-02	3.1250	11.554827	0.000839	8.385171	2.840973	0.066949
  81	4.0000e-02	3.1732	11.869409	0.000788	7.880040	2.669830	0.062916
  82	4.0500e-02	3.2004	12.151726	0.000707	7.071831	2.396001	0.056463
  83	4.1000e-02	3.2582	12.236421	0.000212	2.121549	0.718800	0.016939
  84	4.1500e-02	3.2951	12.385646	0.000374	3.737968	1.266458	0.029845
  85	4.2000e-02	3.3352	12.478407	0.000232	2.323601	0.787257	0.018552
  86	4.2500e-02	3.3817	12.918015	0.001101	11.011850	3.730916	0.087922
  87	4.3000e-02	3.4106	13.067239	0.000374	3.737968	1.266458	0.029845
  88	4.3500e-02	3.4443	13.325358	0.000647	6.465674	2.190630	0.051624
  89	4.4000e-02	3.4924	13.639939	0.000788	7.880040	2.669830	0.062916
  90	4.4500e-02	3.5277	13.942422	0.000758	7.576961	2.567144	0.060496
  91	4.5000e-02	3.5710	14.164242	0.000556	5.556438	1.882572	0.044364
  92	4.5500e-02	3.6111	14.418328	0.000636	6.364648	2.156401	0.050817
  93	4.6000e-02	3.6368	14.571585	0.000384	3.838994	1.300686	0.030652
  94	4.6500e-02	3.6978	14.841803	0.000677	6.768752	2.293315	0.054044
  95	4.7000e-02	3.7363	15.087822	0.000616	6.162595	2.087944	0.049204
  96	4.7500e-02	3.7748	15.297543	0.000525	5.253360	1.779886	0.041944
  97	4.8000e-02	3.8165	15.414503	0.000293	2.929758	0.992629	0.023392
  98	4.8500e-02	3.8486	15.922673	0.001273	12.729295	4.312802	0.101634
  99	4.9000e-02	3.8919	16.120295	0.000495	4.950281	1.677201	0.039524
 100	4.9500e-02	3.9352	16.346149	0.000566	5.657464	1.916801	0.045171
 101	5.0000e-02	3.9689	16.644598	0.000748	7.475935	2.532915	0.059690
 102	5.0500e-02	4.0106	16.866418	0.000556	5.556438	1.882572	0.044364
 103	5.1000e-02	4.0587	17.064040	0.000495	4.950281	1.677201	0.039524
 104	5.1500e-02	4.1020	17.257629	0.000485	4.849255	1.642972	0.038718
 105	5.2000e-02	4.1389	17.543979	0.000717	7.172857	2.430230	0.057270
 106	5.2500e-02	4.1903	17.669005	0.000313	3.131811	1.061086	0.025005
 107	5.3000e-02	4.2159	18.044083	0.000940	9.395432	3.183259	0.075016
 108	5.3500e-02	4.2512	18.217506	0.000434	4.344124	1.471829	0.034685
 109	5.4000e-02	4.2865	18.398996	0.000455	4.546177	1.540286	0.036298
 110	5.4500e-02	4.3298	18.842637	0.001111	11.112877	3.765145	0.088728
 111	5.5000e-02	4.3747	19.056391	0.000535	5.354386	1.814115	0.042751
 112	5.5500e-02	4.4084	19.209649	0.000384	3.838994	1.300686	0.030652
 113	5.6000e-02	4.4485	19.447601	0.000596	5.960543	2.019487	0.047591
 114	5.6500e-02	4.4838	19.903342	0.001142	11.415955	3.867830	0.091148
 115	5.7000e-02	4.5255	19.988037	0.000212	2.121549	0.718800	0.016939
 116	5.7500e-02	4.5721	20.274387	0.000717	7.172857	2.430230	0.057270
 117	5.8000e-02	4.6186	20.423611	0.000374	3.737968	1.266458	0.029845
 118	5.8500e-02	4.6539	20.826921	0.001010	10.102615	3.422859	0.080662
 119	5.9000e-02	4.6972	21.056808	0.000576	5.758491	1.951029	0.045977
 120	5.9500e-02	4.7341	21.415754	0.000899	8.991327	3.046344	0.071789
 121	6.0000e-02	4.7806	21.540780	0.000313	3.131811	1.061086	0.025005
 122	6.0500e-02	4.8127	21.867461	0.000818	8.183118	2.772516	0.065336
 123	6.1000e-02	4.8544	21.903759	0.000091	0.909235	0.308057	0.007260
 124	6.1500e-02	4.8897	22.218340	0.000788	7.880040	2.669830	0.062916
 125	6.2000e-02	4.9218	22.504690	0.000717	7.172857	2.430230	0.057270
 126	6.2500e-02	4.9731	22.746676	0.000606	6.061569	2.053715	0.048397
 127	6.3000e-02	5.0004	22.920099	0.000434	4.344124	1.471829	0.034685
 128	6.3500e-02	5.0549	23.254847	0.000839	8.385171	2.840973	0.066949
 129	6.4000e-02	5.0886	23.754951	0.001253	12.527243	4.244345	0.100021
 130	6.4500e-02	5.1319	23.920308	0.000414	4.142072	1.403372	0.033071
 131	6.5000e-02	5.1785	24.166327	0.000616	6.162595	2.087944	0.049204
 132	6.5500e-02	5.2025	24.464776	0.000748	7.475935	2.532915	0.059690
 133	6.6000e-02	5.2410	24.472842	0.000020	0.202052	0.068457	0.001613
 134	6.6500e-02	5.2892	24.755159	0.000707	7.071831	2.396001	0.056463
 135	6.7000e-02	5.3309	25.202833	0.001121	11.213903	3.799373	0.089535
 136	6.7500e-02	5.3726	25.509349	0.000768	7.677987	2.601373	0.061303
 137	6.8000e-02	5.4111	25.698904	0.000475	4.748229	1.608744	0.037911
 138	6.8500e-02	5.4544	25.783599	0.000212	2.121549	0.718800	0.016939
 139	6.9000e-02	5.4913	25.977188	0.000485	4.849255	1.642972	0.038718
 140	6.9500e-02	5.5346	26.416796	0.001101	11.011850	3.730916	0.087922
 141	7.0000e-02	5.5811	26.723311	0.000768	7.677987	2.601373	0.061303
 142	7.0500e-02	5.6164	26.896735	0.000434	4.344124	1.471829	0.034685
 143	7.1000e-02	5.6501	26.981430	0.000212	2.121549	0.718800	0.016939
 144	7.1500e-02	5.6998	27.396839	0.001041	10.405694	3.525544	0.083082
 145	7.2000e-02	5.7335	27.618659	0.000556	5.556438	1.882572	0.044364
 146	7.2500e-02	5.7784	27.880811	0.000657	6.566700	2.224858	0.052430
 147	7.3000e-02	5.8057	28.199425	0.000798	7.981066	2.704058	0.063723
 148	7.3500e-02	5.8587	28.441411	0.000606	6.061569	2.053715	0.048397
 149	7.4000e-02	5.8923	28.715662	0.000687	6.869778	2.327544	0.054850
 150	7.4500e-02	5.9341	29.110906	0.000990	9.900563	3.354401	0.079049
 151	7.5000e-02	5.9742	29.135104	0.000061	0.606157	0.205372	0.004840
 152	7.5500e-02	6.0079	29.598911	0.001162	11.618007	3.936287	0.092761
 153	7.6000e-02	6.0544	29.844930	0.000616	6.162595	2.087944	0.049204
 154	7.6500e-02	6.0881	30.018353	0.000434	4.344124	1.471829	0.034685
 155	7.7000e-02	6.1330	30.300670	0.000707	7.071831	2.396001	0.056463
 156	7.7500e-02	6.1731	30.453928	0.000384	3.838994	1.300686	0.030652
 157	7.8000e-02	6.2180	30.691880	0.000596	5.960543	2.019487	0.047591
 158	7.8500e-02	6.2533	31.018561	0.000818	8.183118	2.772516	0.065336
 159	7.9000e-02	6.2950	31.187951	0.000424	4.243098	1.437601	0.033878
 160	7.9500e-02	6.3335	31.482368	0.000737	7.374909	2.498687	0.058883
 161	8.0000e-02	6.3736	31.643692	0.000404	4.041046	1.369143	0.032265
 162	8.0500e-02	6.4057	32.115564	0.001182	11.820060	4.004745	0.094375
 163	8.1000e-02	6.4458	32.563238	0.001121	11.213903	3.799373	0.089535
 164	8.1500e-02	6.4907	32.760860	0.000495	4.950281	1.677201	0.039524
 165	8.2000e-02	6.5228	32.716496	-0.000111	-1.111288	-0.376514	-0.008873
 166	8.2500e-02	6.5758	32.930250	0.000535	5.354386	1.814115	0.042751
 167	8.3000e-02	6.6175	33.313394	0.000960	9.597484	3.251716	0.076629
 168	8.3500e-02	6.6544	33.579579	0.000667	6.667726	2.259087	0.053237
 169	8.4000e-02	6.6913	33.882061	0.000758	7.576961	2.567144	0.060496
 170	8.4500e-02	6.7346	34.059518	0.000445	4.445151	1.506058	0.035491
 171	8.5000e-02	6.7699	34.333768	0.000687	6.869778	2.327544	0.054850
 172	8.5500e-02	6.8116	34.454761	0.000303	3.030785	1.026858	0.024199
 173	8.6000e-02	6.8565	34.753211	0.000748	7.475935	2.532915	0.059690
 174	8.6500e-02	6.8998	34.942766	0.000475	4.748229	1.608744	0.037911
 175	8.7000e-02	6.9255	35.269447	0.000818	8.183118	2.772516	0.065336
 176	8.7500e-02	6.9656	35.632426	0.000909	9.092354	3.080573	0.072596
 177	8.8000e-02	7.0057	36.031703	0.001000	10.001589	3.388630	0.079855
 178	8.8500e-02	7.0554	36.350318	0.000798	7.981066	2.704058	0.063723
 179	8.9000e-02	7.0875	36.225292	-0.000313	-3.131811	-1.061086	-0.025005
 180	8.9500e-02	7.1356	36.475344	0.000626	6.263621	2.122172	0.050010
 181	9.0000e-02	7.1725	36.842356	0.000919	9.193380	3.114801	0.073402
 182	9.0500e-02	7.2239	37.124673	0.000707	7.071831	2.396001	0.056463
 183	9.1000e-02	7.2447	37.451354	0.000818	8.183118	2.772516	0.065336
 184	9.1500e-02	7.2896	37.798200	0.000869	8.688249	2.943658	0.069369
 185	9.2000e-02	7.3329	38.007921	0.000525	5.253360	1.779886	0.041944
 186	9.2500e-02	7.3650	38.391066	0.000960	9.597484	3.251716	0.076629
 187	9.3000e-02	7.4148	38.548356	0.000394	3.940020	1.334915	0.031458
 188	9.3500e-02	7.4501	38.713713	0.000414	4.142072	1.403372	0.033071
 189	9.4000e-02	7.4950	39.229950	0.001293	12.931347	4.381259	0.103247
 190	9.4500e-02	7.5222	39.350943	0.000303	3.030785	1.026858	0.024199
 191	9.5000e-02	7.5672	39.596962	0.000616	6.162595	2.087944	0.049204
 192	9.5500e-02	7.6105	39.859113	0.000657	6.566700	2.224858	0.052430
 193	9.6000e-02	7.6426	40.133364	0.000687	6.869778	2.327544	0.054850
 194	9.6500e-02	7.6923	40.439880	0.000768	7.677987	2.601373	0.061303
 195	9.7000e-02	7.7324	40.593137	0.000384	3.838994	1.300686	0.030652
 196	9.7500e-02	7.7773	40.883521	0.000727	7.273883	2.464458	0.058077
 197	9.8000e-02	7.8110	41.044844	0.000404	4.041046	1.369143	0.032265
 198	9.8500e-02	7.8495	41.347327	0.000758	7.576961	2.567144	0.060496
 199	9.9000e-02	7.8896	41.565114	0.000546	5.455412	1.848344	0.043557
 200	9.9500e-02	7.9281	41.734504	0.000424	4.243098	1.437601	0.033878
 201	1.0000e-01	7.9650	42.032954	0.000748	7.475935	2.532915	0.059690
 202	1.0050e-01	8.0147	42.311237	0.000697	6.970804	2.361772	0.055657
 203	1.0100e-01	8.0549	42.714547	0.001010	10.102615	3.422859	0.080662
 204	1.0150e-01	8.0869	42.920235	0.000515	5.152334	1.745658	0.041138
 205	1.0200e-01	8.1319	43.202552	0.000707	7.071831	2.396001	0.056463
 206	1.0250e-01	8.1768	43.472770	0.000677	6.768752	2.293315	0.054044
 207	1.0300e-01	8.2185	43.815583	0.000859	8.587223	2.909430	0.068563
 208	1.0350e-01	8.2393	44.005139	0.000475	4.748229	1.608744	0.037911
 209	1.0400e-01	8.2891	44.420548	0.001041	10.405694	3.525544	0.083082
 210	1.0450e-01	8.3308	44.493144	0.000182	1.818471	0.616115	0.014519
 211	1.0500e-01	8.3677	44.743196	0.000626	6.263621	2.122172	0.050010
 212	1.0550e-01	8.4062	44.852090	0.000273	2.727706	0.924172	0.021779
 213	1.0600e-01	8.4575	45.166671	0.000788	7.880040	2.669830	0.062916
 214	1.0650e-01	8.4992	45.400591	0.000586	5.859517	1.985258	0.046784
 215	1.0700e-01	8.5361	45.840199	0.001101	11.011850	3.730916	0.087922
 216	1.0750e-01	8.5698	46.078152	0.000596	5.960543	2.019487	0.047591
 217	1.0800e-01	8.6131	46.356435	0.000697	6.970804	2.361772	0.055657
 218	1.0850e-01	8.6564	46.658918	0.000758	7.576961	2.567144	0.060496
 219	1.0900e-01	8.6949	47.058194	0.001000	10.001589	3.388630	0.079855
 220	1.0950e-01	8.7334	47.215485	0.000394	3.940020	1.334915	0.031458
 221	1.1000e-01	8.7687	47.300180	0.000212	2.121549	0.718800	0.016939
 222	1.1050e-01	8.8137	47.590564	0.000727	7.273883	2.464458	0.058077
 223	1.1100e-01	8.8522	47.759954	0.000424	4.243098	1.437601	0.033878
 224	1.1150e-01	8.8907	48.235859	0.001192	11.921086	4.038973	0.095181
 225	1.1200e-01	8.9372	48.643202	0.001020	10.203641	3.457087	0.081469
 226	1.1250e-01	8.9709	48.711765	0.000172	1.717445	0.581886	0.013713
 227	1.1300e-01	9.0190	48.929552	0.000546	5.455412	1.848344	0.043557
 228	1.1350e-01	9.0479	49.207836	0.000697	6.970804	2.361772	0.055657
 229	1.1400e-01	9.0816	49.550649	0.000859	8.587223	2.909430	0.068563
 230	1.1450e-01	9.1313	49.945893	0.000990	9.900563	3.354401	0.079049
 231	1.1500e-01	9.1730	50.111250	0.000414	4.142072	1.403372	0.033071
 232	1.1550e-01	9.2115	50.389534	0.000697	6.970804	2.361772	0.055657
 233	1.1600e-01	9.2548	50.692016	0.000758	7.576961	2.567144	0.060496
 234	1.1650e-01	9.2965	50.901737	0.000525	5.253360	1.779886	0.041944
 235	1.1700e-01	9.3431	51.099359	0.000495	4.950281	1.677201	0.039524
 236	1.1750e-01	9.3719	51.236485	0.000343	3.434889	1.163772	0.027425
 237	1.1800e-01	9.4088	51.530901	0.000737	7.374909	2.498687	0.058883
 238	1.1850e-01	9.4473	51.845483	0.000788	7.880040	2.669830	0.062916
 239	1.1900e-01	9.4938	52.168130	0.000808	8.082092	2.738287	0.064530
 240	1.1950e-01	9.5291	52.402050	0.000586	5.859517	1.985258	0.046784
 241	1.2000e-01	9.5660	52.611771	0.000525	5.253360	1.779886	0.041944
 242	1.2050e-01	9.6126	53.115909	0.001263	12.628269	4.278573	0.100827
 243	1.2100e-01	9.6527	53.188504	0.000182	1.818471	0.616115	0.014519
 244	1.2150e-01	9.6912	53.446623	0.000647	6.465674	2.190630	0.051624
 245	1.2200e-01	9.7249	53.866065	0.001051	10.506720	3.559773	0.083888
 246	1.2250e-01	9.7714	54.253242	0.000970	9.698510	3.285944	0.077435
 247	1.2300e-01	9.8131	54.410533	0.000394	3.940020	1.334915	0.031458
 248	1.2350e-01	9.8452	54.620254	0.000525	5.253360	1.779886	0.041944
 249	1.2400e-01	9.8901	54.708983	0.000222	2.222575	0.753029	0.017746
 250	1.2450e-01	9.9334	55.088094	0.000950	9.496458	3.217487	0.075822
 251	1.2500e-01	9.9735	55.172789	0.000212	2.121549	0.718800	0.016939
 252	1.2550e-01	10.0136	55.624496	0.001131	11.314929	3.833602	0.090341
 253	1.2600e-01	10.0489	55.967309	0.000859	8.587223	2.909430	0.068563
 254	1.2650e-01	10.0842	55.991508	0.000061	0.606157	0.205372	0.004840
 255	1.2700e-01	10.1323	56.427083	0.001091	10.910824	3.696687	0.087115
 256	1.2750e-01	10.1740	56.548076	0.000303	3.030785	1.026858	0.024199
 257	1.2800e-01	10.2077	56.705366	0.000394	3.940020	1.334915	0.031458
 258	1.2850e-01	10.2543	57.068345	0.000909	9.092354	3.080573	0.072596
 259	1.2900e-01	10.2912	57.310331	0.000606	6.061569	2.053715	0.048397
 260	1.2950e-01	10.3297	57.737840	0.001071	10.708772	3.628230	0.085502
 261	1.3000e-01	10.3633	58.060487	0.000808	8.082092	2.738287	0.064530
 262	1.3050e-01	10.4147	58.068554	0.000020	0.202052	0.068457	0.001613
 263	1.3100e-01	10.4516	58.294407	0.000566	5.657464	1.916801	0.045171
 264	1.3150e-01	10.4917	58.697717	0.001010	10.102615	3.422859	0.080662
 265	1.3200e-01	10.5318	59.008266	0.000778	7.779014	2.635601	0.062110
 266	1.3250e-01	10.5735	59.149424	0.000354	3.535915	1.198001	0.028232
 267	1.3300e-01	10.6136	59.540635	0.000980	9.799537	3.320173	0.078242
 268	1.3350e-01	10.6505	59.782621	0.000606	6.061569	2.053715	0.048397
 269	1.3400e-01	10.7002	60.109302	0.000818	8.183118	2.772516	0.065336
 270	1.3450e-01	10.7291	60.234328	0.000313	3.131811	1.061086	0.025005
 271	1.3500e-01	10.7772	60.649737	0.001041	10.405694	3.525544	0.083082
 272	1.3550e-01	10.8109	60.919954	0.000677	6.768752	2.293315	0.054044
 273	1.3600e-01	10.8542	61.198238	0.000697	6.970804	2.361772	0.055657
 274	1.3650e-01	10.8959	61.323264	0.000313	3.131811	1.061086	0.025005
 275	1.3700e-01	10.9264	61.674144	0.000879	8.789275	2.977887	0.070176
 276	1.3750e-01	10.9697	61.770938	0.000242	2.424628	0.821486	0.019359
 277	1.3800e-01	11.0115	62.101652	0.000828	8.284144	2.806744	0.066143
 278	1.3850e-01	11.0500	62.416234	0.000788	7.880040	2.669830	0.062916
 279	1.3900e-01	11.0965	62.525128	0.000273	2.727706	0.924172	0.021779
 280	1.3950e-01	11.1286	63.005066	0.001202	12.022112	4.073202	0.095988
 281	1.4000e-01	11.1831	63.238986	0.000586	5.859517	1.985258	0.046784
 282	1.4050e-01	11.2120	63.541468	0.000758	7.576961	2.567144	0.060496
 283	1.4100e-01	11.2569	63.630197	0.000222	2.222575	0.753029	0.017746
 284	1.4150e-01	11.2986	63.952845	0.000808	8.082092	2.738287	0.064530
 285	1.4200e-01	11.3355	64.077871	0.000313	3.131811	1.061086	0.025005
 286	1.4250e-01	11.3724	64.396485	0.000798	7.981066	2.704058	0.063723
 287	1.4300e-01	11.4093	64.759464	0.000909	9.092354	3.080573	0.072596
 288	1.4350e-01	11.4526	65.134542	0.000940	9.395432	3.183259	0.075016
 289	1.4400e-01	11.4959	65.299899	0.000414	4.142072	1.403372	0.033071
 290	1.4450e-01	11.5409	65.606415	0.000768	7.677987	2.601373	0.061303
 291	1.4500e-01	11.5745	65.723375	0.000293	2.929758	0.992629	0.023392
 292	1.4550e-01	11.6146	65.908897	0.000465	4.647203	1.574515	0.037105
 293	1.4600e-01	11.6564	66.223479	0.000788	7.880040	2.669830	0.062916
 294	1.4650e-01	11.6852	66.497730	0.000687	6.869778	2.327544	0.054850
 295	1.4700e-01	11.7350	66.788113	0.000727	7.273883	2.464458	0.058077
 296	1.4750e-01	11.7815	66.945404	0.000394	3.940020	1.334915	0.031458
 297	1.4800e-01	11.8055	67.259985	0.000788	7.880040	2.669830	0.062916
 298	1.4850e-01	11.8505	67.626997	0.000919	9.193380	3.114801	0.073402
 299	1.4900e-01	11.8938	67.877049	0.000626	6.263621	2.122172	0.050010
 300	1.4950e-01	11.9307	68.127102	0.000626	6.263621	2.122172	0.050010
 301	1.5000e-01	11.9724	68.437650	0.000778	7.779014	2.635601	0.062110
 302	1.5050e-01	12.0157	68.776430	0.000849	8.486197	2.875201	0.067756
 303	1.5100e-01	12.0590	68.816761	0.000101	1.010262	0.342286	0.008066
 304	1.5150e-01	12.0911	69.030516	0.000535	5.354386	1.814115	0.042751
 305	1.5200e-01	12.1360	69.236204	0.000515	5.152334	1.745658	0.041138
 306	1.5250e-01	12.1793	69.691944	0.001142	11.415955	3.867830	0.091148
 307	1.5300e-01	12.2082	70.058956	0.000919	9.193380	3.114801	0.073402
 308	1.5350e-01	12.2531	70.188015	0.000323	3.232837	1.095315	0.025812
 309	1.5400e-01	12.2852	70.369504	0.000455	4.546177	1.540286	0.036298
 310	1.5450e-01	12.3301	70.825245	0.001142	11.415955	3.867830	0.091148
 311	1.5500e-01	12.3702	71.208389	0.000960	9.597484	3.251716	0.076629
 312	1.5550e-01	12.4232	71.172091	-0.000091	-0.909235	-0.308057	-0.007260
 313	1.5600e-01	12.4569	71.414077	0.000606	6.061569	2.053715	0.048397
 314	1.5650e-01	12.5098	71.793188	0.000950	9.496458	3.217487	0.075822
 315	1.5700e-01	12.5339	72.099704	0.000768	7.677987	2.601373	0.061303
 316	1.5750e-01	12.5756	72.329590	0.000576	5.758491	1.951029	0.045977
 317	1.5800e-01	12.6141	72.547378	0.000546	5.455412	1.848344	0.043557
 318	1.5850e-01	12.6590	72.954721	0.001020	10.203641	3.457087	0.081469
 319	1.5900e-01	12.6943	73.152342	0.000495	4.950281	1.677201	0.039524
 320	1.5950e-01	12.7360	73.474990	0.000808	8.082092	2.738287	0.064530
 321	1.6000e-01	12.7681	73.692778	0.000546	5.455412	1.848344	0.043557
 322	1.6050e-01	12.8098	73.870234	0.000445	4.445151	1.506058	0.035491
 323	1.6100e-01	12.8595	74.200948	0.000828	8.284144	2.806744	0.066143
 324	1.6150e-01	12.8932	74.818012	0.001546	15.457001	5.236974	0.123413
 325	1.6200e-01	12.9317	74.721218	-0.000242	-2.424628	-0.821486	-0.019359
 326	1.6250e-01	12.9702	74.991435	0.000677	6.768752	2.293315	0.054044
 327	1.6300e-01	13.0103	75.096296	0.000263	2.626680	0.889943	0.020972
 328	1.6350e-01	13.0472	75.330216	0.000586	5.859517	1.985258	0.046784
 329	1.6400e-01	13.0889	75.519771	0.000475	4.748229	1.608744	0.037911
 330	1.6450e-01	13.1355	75.777890	0.000647	6.465674	2.190630	0.051624
 331	1.6500e-01	13.1691	76.225564	0.001121	11.213903	3.799373	0.089535
 332	1.6550e-01	13.2060	76.374788	0.000374	3.737968	1.266458	0.029845
 333	1.6600e-01	13.2574	76.919257	0.001364	13.638530	4.620859	0.108894
 334	1.6650e-01	13.2879	77.044283	0.000313	3.131811	1.061086	0.025005
 335	1.6700e-01	13.3232	77.358864	0.000788	7.880040	2.669830	0.062916
 336	1.6750e-01	13.3713	77.556486	0.000495	4.950281	1.677201	0.039524
 337	1.6800e-01	13.4082	77.899300	0.000859	8.587223	2.909430	0.068563
 338	1.6850e-01	13.4579	78.076756	0.000445	4.445151	1.506058	0.035491
 339	1.6900e-01	13.4884	78.383271	0.000768	7.677987	2.601373	0.061303
 340	1.6950e-01	13.5349	78.371172	-0.000030	-0.303078	-0.102686	-0.002420
 341	1.7000e-01	13.5670	78.601059	0.000576	5.758491	1.951029	0.045977
 342	1.7050e-01	13.6167	79.020501	0.001051	10.506720	3.559773	0.083888
 343	1.7100e-01	13.6456	79.282652	0.000657	6.566700	2.224858	0.052430
 344	1.7150e-01	13.7001	79.452042	0.000424	4.243098	1.437601	0.033878
 345	1.7200e-01	13.7354	79.637565	0.000465	4.647203	1.574515	0.037105
 346	1.7250e-01	13.7707	80.129603	0.001233	12.325190	4.175888	0.098408
 347	1.7300e-01	13.8173	80.355457	0.000566	5.657464	1.916801	0.045171
 348	1.7350e-01	13.8493	80.621641	0.000667	6.667726	2.259087	0.053237
 349	1.7400e-01	13.8927	80.770866	0.000374	3.737968	1.266458	0.029845
 350	1.7450e-01	13.9376	81.085447	0.000788	7.880040	2.669830	0.062916
 351	1.7500e-01	13.9761	81.291135	0.000515	5.152334	1.745658	0.041138
 352	1.7550e-01	14.0050	81.561353	0.000677	6.768752	2.293315	0.054044
 353	1.7600e-01	14.0499	81.996928	0.001091	10.910824	3.696687	0.087115
 354	1.7650e-01	14.0932	82.174384	0.000445	4.445151	1.506058	0.035491
 355	1.7700e-01	14.1221	82.432502	0.000647	6.465674	2.190630	0.051624
 356	1.7750e-01	14.1718	82.569628	0.000343	3.434889	1.163772	0.027425
 357	1.7800e-01	14.2039	82.448635	-0.000303	-3.030785	-1.026858	-0.024199
 358	1.7850e-01	14.2456	83.017302	0.001424	14.244687	4.826231	0.113733
 359	1.7900e-01	14.2953	83.319784	0.000758	7.576961	2.567144	0.060496
 360	1.7950e-01	14.3354	83.719061	0.001000	10.001589	3.388630	0.079855
 361	1.8000e-01	14.3723	83.912650	0.000485	4.849255	1.642972	0.038718
 362	1.8050e-01	14.4172	84.166735	0.000636	6.364648	2.156401	0.050817
 363	1.8100e-01	14.4445	84.469217	0.000758	7.576961	2.567144	0.060496
 364	1.8150e-01	14.4862	84.807997	0.000849	8.486197	2.875201	0.067756
 365	1.8200e-01	14.5392	84.928990	0.000303	3.030785	1.026858	0.024199
 366	1.8250e-01	14.5809	85.086281	0.000394	3.940020	1.334915	0.031458
 367	1.8300e-01	14.6162	85.501690	0.001041	10.405694	3.525544	0.083082
 368	1.8350e-01	14.6547	85.751742	0.000626	6.263621	2.122172	0.050010
 369	1.8400e-01	14.6819	85.969530	0.000546	5.455412	1.848344	0.043557
 370	1.8450e-01	14.7301	86.219582	0.000626	6.263621	2.122172	0.050010
 371	1.8500e-01	14.7686	86.473667	0.000636	6.364648	2.156401	0.050817
 372	1.8550e-01	14.8087	86.747918	0.000687	6.869778	2.327544	0.054850
 373	1.8600e-01	14.8520	86.989904	0.000606	6.061569	2.053715	0.048397
 374	1.8650e-01	14.8841	87.312552	0.000808	8.082092	2.738287	0.064530
 375	1.8700e-01	14.9306	87.594869	0.000707	7.071831	2.396001	0.056463
 376	1.8750e-01	14.9755	87.736027	0.000354	3.535915	1.198001	0.028232
 377	1.8800e-01	15.0124	87.796523	0.000152	1.515392	0.513429	0.012099
 378	1.8850e-01	15.0493	88.256297	0.001152	11.516981	3.902059	0.091955
 379	1.8900e-01	15.0846	88.687838	0.001081	10.809798	3.662459	0.086308
 380	1.8950e-01	15.1311	88.695904	0.000020	0.202052	0.068457	0.001613
 381	1.9000e-01	15.1664	89.034685	0.000849	8.486197	2.875201	0.067756
 382	1.9050e-01	15.2129	89.268604	0.000586	5.859517	1.985258	0.046784
 383	1.9100e-01	15.2450	89.756609	0.001222	12.224164	4.141659	0.097601
 384	1.9150e-01	15.2915	89.978430	0.000556	5.556438	1.882572	0.044364
 385	1.9200e-01	15.3268	89.986496	0.000020	0.202052	0.068457	0.001613
 386	1.9250e-01	15.3734	90.256714	0.000677	6.768752	2.293315	0.054044
 387	1.9300e-01	15.4071	90.414004	0.000394	3.940020	1.334915	0.031458
 388	1.9350e-01	15.4423	90.793116	0.000950	9.496458	3.217487	0.075822
 389	1.9400e-01	15.4953	91.091565	0.000748	7.475935	2.532915	0.059690
 390	1.9450e-01	15.5226	91.281121	0.000475	4.748229	1.608744	0.037911
 391	1.9500e-01	15.5707	91.486809	0.000515	5.152334	1.745658	0.041138
 392	1.9550e-01	15.6156	91.777192	0.000727	7.273883	2.464458	0.058077
 393	1.9600e-01	15.6589	92.099840	0.000808	8.082092	2.738287	0.064530
 394	1.9650e-01	15.6958	92.357958	0.000647	6.465674	2.190630	0.051624
 395	1.9700e-01	15.7295	92.668507	0.000778	7.779014	2.635601	0.062110
 396	1.9750e-01	15.7744	92.805632	0.000343	3.434889	1.163772	0.027425
 397	1.9800e-01	15.8129	93.144412	0.000849	8.486197	2.875201	0.067756
 398	1.9850e-01	15.8530	93.471093	0.000818	8.183118	2.772516	0.065336
 399	1.9900e-01	15.8867	93.668715	0.000495	4.950281	1.677201	0.039524
 400	1.9950e-01	15.9332	93.826006	0.000394	3.940020	1.334915	0.031458
 401	2.0000e-01	15.9621	94.092190	0.000667	6.667726	2.259087	0.053237
 402	2.0050e-01	16.0070	94.370474	0.000697	6.970804	2.361772	0.055657
 403	2.0100e-01	16.0439	94.503566	0.000333	3.333863	1.129543	0.026618
 404	2.0150e-01	16.0889	94.846380	0.000859	8.587223	2.909430	0.068563
 405	2.0200e-01	16.1338	95.415047	0.001424	14.244687	4.826231	0.113733
 406	2.0250e-01	16.1787	95.237590	-0.000445	-4.445151	-1.506058	-0.035491
 407	2.0300e-01	16.2011	95.612669	0.000940	9.395432	3.183259	0.075016
 408	2.0350e-01	16.2477	95.943383	0.000828	8.284144	2.806744	0.066143
 409	2.0400e-01	16.2926	96.132938	0.000475	4.748229	1.608744	0.037911
 410	2.0450e-01	16.3247	96.185369	0.000131	1.313340	0.444972	0.010486
 411	2.0500e-01	16.3680	96.572546	0.000970	9.698510	3.285944	0.077435
 412	2.0550e-01	16.4097	96.915359	0.000859	8.587223	2.909430	0.068563
 413	2.0600e-01	16.4594	97.088783	0.000434	4.344124	1.471829	0.034685
 414	2.0650e-01	16.4947	97.544523	0.001142	11.415955	3.867830	0.091148
 415	2.0700e-01	16.5252	97.584854	0.000101	1.010262	0.342286	0.008066
 416	2.0750e-01	16.5701	97.798608	0.000535	5.354386	1.814115	0.042751
 417	2.0800e-01	16.6118	98.258381	0.001152	11.516981	3.902059	0.091955
 418	2.0850e-01	16.6535	98.290646	0.000081	0.808209	0.273829	0.006453
 419	2.0900e-01	16.6856	98.677824	0.000970	9.698510	3.285944	0.077435
 420	2.0950e-01	16.7354	98.939975	0.000657	6.566700	2.224858	0.052430
 421	2.1000e-01	16.7658	98.988372	0.000121	1.212314	0.410743	0.009679
 422	2.1050e-01	16.8156	99.278755	0.000727	7.273883	2.464458	0.058077
 423	2.1100e-01	16.8493	99.403781	0.000313	3.131811	1.061086	0.025005
 424	2.1150e-01	16.8878	99.980514	0.001445	14.446740	4.894688	0.115347
 425	2.1200e-01	16.9295	99.956316	-0.000061	-0.606157	-0.205372	-0.004840
 426	2.1250e-01	16.9616	100.444321	0.001222	12.224164	4.141659	0.097601
 427	2.1300e-01	17.0129	100.658075	0.000535	5.354386	1.814115	0.042751
 428	2.1350e-01	17.0498	100.875862	0.000546	5.455412	1.848344	0.043557
 429	2.1400e-01	17.0979	101.150113	0.000687	6.869778	2.327544	0.054850
 430	2.1450e-01	17.1300	101.484860	0.000839	8.385171	2.840973	0.066949
 431	2.1500e-01	17.1765	101.617952	0.000333	3.333863	1.129543	0.026618
 432	2.1550e-01	17.2166	101.650217	0.000081	0.808209	0.273829	0.006453
 433	2.1600e-01	17.2503	102.073693	0.001061	10.607746	3.594002	0.084695
 434	2.1650e-01	17.2936	102.436671	0.000909	9.092354	3.080573	0.072596
 435	2.1700e-01	17.3337	102.650426	0.000535	5.354386	1.814115	0.042751
 436	2.1750e-01	17.3787	102.626227	-0.000061	-0.606157	-0.205372	-0.004840
 437	2.1800e-01	17.4075	103.130364	0.001263	12.628269	4.278573	0.100827
 438	2.1850e-01	17.4557	103.404615	0.000687	6.869778	2.327544	0.054850
 439	2.1900e-01	17.4942	103.453012	0.000121	1.212314	0.410743	0.009679
 440	2.1950e-01	17.5359	103.868421	0.001041	10.405694	3.525544	0.083082
 441	2.2000e-01	17.5776	104.106374	0.000596	5.960543	2.019487	0.047591
 442	2.2050e-01	17.6177	104.247533	0.000354	3.535915	1.198001	0.028232
 443	2.2100e-01	17.6498	104.610512	0.000909	9.092354	3.080573	0.072596
 444	2.2150e-01	17.6947	104.751670	0.000354	3.535915	1.198001	0.028232
 445	2.2200e-01	17.7236	105.175145	0.001061	10.607746	3.594002	0.084695
 446	2.2250e-01	17.7717	105.251774	0.000192	1.919497	0.650343	0.015326
 447	2.2300e-01	17.8198	105.425197	0.000434	4.344124	1.471829	0.034685
 448	2.2350e-01	17.8503	105.864805	0.001101	11.011850	3.730916	0.087922
 449	2.2400e-01	17.8904	106.034195	0.000424	4.243098	1.437601	0.033878
 450	2.2450e-01	17.9353	106.256016	0.000556	5.556438	1.882572	0.044364
 451	2.2500e-01	17.9706	106.550432	0.000737	7.374909	2.498687	0.058883
 452	2.2550e-01	18.0155	106.832749	0.000707	7.071831	2.396001	0.056463
 453	2.2600e-01	18.0492	107.135231	0.000758	7.576961	2.567144	0.060496
 454	2.2650e-01	18.0941	107.469978	0.000839	8.385171	2.840973	0.066949
 455	2.2700e-01	18.1230	107.449813	-0.000051	-0.505131	-0.171143	-0.004033
 456	2.2750e-01	18.1727	107.768428	0.000798	7.981066	2.704058	0.063723
 457	2.2800e-01	18.2129	108.095109	0.000818	8.183118	2.772516	0.065336
 458	2.2850e-01	18.2449	108.482286	0.000970	9.698510	3.285944	0.077435
 459	2.2900e-01	18.2883	108.651676	0.000424	4.243098	1.437601	0.033878
 460	2.2950e-01	18.3364	108.990457	0.000849	8.486197	2.875201	0.067756
 461	2.3000e-01	18.3701	108.990457	0.000000	0.000000	0.000000	0.000000
 462	2.3050e-01	18.4134	109.252608	0.000657	6.566700	2.224858	0.052430
 463	2.3100e-01	18.4567	109.615587	0.000909	9.092354	3.080573	0.072596
 464	2.3150e-01	18.4920	109.841440	0.000566	5.657464	1.916801	0.045171
 465	2.3200e-01	18.5289	110.115691	0.000687	6.869778	2.327544	0.054850
 466	2.3250e-01	18.5754	110.337512	0.000556	5.556438	1.882572	0.044364
 467	2.3300e-01	18.6075	110.527067	0.000475	4.748229	1.608744	0.037911
 468	2.3350e-01	18.6508	110.873914	0.000869	8.688249	2.943658	0.069369
 469	2.3400e-01	18.6877	111.051370	0.000445	4.445151	1.506058	0.035491
 470	2.3450e-01	18.7342	111.140098	0.000222	2.222575	0.753029	0.017746
 471	2.3500e-01	18.7727	111.507110	0.000919	9.193380	3.114801	0.073402
 472	2.3550e-01	18.8112	111.773295	0.000667	6.667726	2.259087	0.053237
 473	2.3600e-01	18.8610	112.043512	0.000677	6.768752	2.293315	0.054044
 474	2.3650e-01	18.8850	112.394392	0.000879	8.789275	2.977887	0.070176
 475	2.3700e-01	18.9299	112.753338	0.000899	8.991327	3.046344	0.071789
 476	2.3750e-01	18.9701	112.918695	0.000414	4.142072	1.403372	0.033071
 477	2.3800e-01	19.0118	113.140515	0.000556	5.556438	1.882572	0.044364
 478	2.3850e-01	19.0599	113.281674	0.000354	3.535915	1.198001	0.028232
 479	2.3900e-01	19.0856	113.632553	0.000879	8.789275	2.977887	0.070176
 480	2.3950e-01	19.1273	113.672884	0.000101	1.010262	0.342286	0.008066
 481	2.4000e-01	19.1706	114.132657	0.001152	11.516981	3.902059	0.091955
 482	2.4050e-01	19.2091	114.370610	0.000596	5.960543	2.019487	0.047591
 483	2.4100e-01	19.2588	114.507736	0.000343	3.434889	1.163772	0.027425
 484	2.4150e-01	19.2893	114.838450	0.000828	8.284144	2.806744	0.066143
 485	2.4200e-01	19.3294	115.177230	0.000849	8.486197	2.875201	0.067756
 486	2.4250e-01	19.3791	115.435348	0.000647	6.465674	2.190630	0.051624
 487	2.4300e-01	19.4144	115.532143	0.000242	2.424628	0.821486	0.019359
 488	2.4350e-01	19.4497	115.838658	0.000768	7.677987	2.601373	0.061303
 489	2.4400e-01	19.4914	115.999982	0.000404	4.041046	1.369143	0.032265
 490	2.4450e-01	19.5283	116.149207	0.000374	3.737968	1.266458	0.029845
 491	2.4500e-01	19.5684	116.375060	0.000566	5.657464	1.916801	0.045171
 492	2.4550e-01	19.6134	116.802569	0.001071	10.708772	3.628230	0.085502
 493	2.4600e-01	19.6438	116.774337	-0.000071	-0.707183	-0.239600	-0.005646
 494	2.4650e-01	19.6952	117.161514	0.000970	9.698510	3.285944	0.077435
 495	2.4700e-01	19.7369	117.411567	0.000626	6.263621	2.122172	0.050010
 496	2.4750e-01	19.7658	117.943936	0.001334	13.335452	4.518173	0.106474
 497	2.4800e-01	19.8091	117.851174	-0.000232	-2.323601	-0.787257	-0.018552
 498	2.4850e-01	19.8492	118.008465	0.000394	3.940020	1.334915	0.031458
 499	2.4900e-01	19.8957	118.347245	0.000849	8.486197	2.875201	0.067756
 500	2.4950e-01	19.9342	118.758621	0.001030	10.304667	3.491316	0.082275
 501	2.5000e-01	19.9695	118.956243	0.000495	4.950281	1.677201	0.039524
 502	2.5050e-01	19.9791	118.988508	0.000081	0.808209	0.273829	0.006453
 503	2.5100e-01	19.9502	118.895747	0.000232	2.323601	0.787257	-0.018552
 504	2.5150e-01	19.9166	118.673926	0.000556	5.556438	1.882572	-0.044364
 505	2.5200e-01	19.8797	118.561000	0.000283	2.828732	0.958400	-0.022585
 506	2.5250e-01	19.8363	118.427907	0.000333	3.333863	1.129543	-0.026618
 507	2.5300e-01	19.7882	118.351278	0.000192	1.919497	0.650343	-0.015326
 508	2.5350e-01	19.7674	118.198021	0.000384	3.838994	1.300686	-0.030652
 509	2.5400e-01	19.7112	117.956035	0.000606	6.061569	2.053715	-0.048397
 510	2.5450e-01	19.6791	117.722115	0.000586	5.859517	1.985258	-0.046784
 511	2.5500e-01	19.6438	117.347037	0.000940	9.395432	3.183259	-0.075016
 512	2.5550e-01	19.5941	117.125217	0.000556	5.556438	1.882572	-0.044364
 513	2.5600e-01	19.5572	117.181680	-0.000141	-1.414366	-0.479200	0.011293
 514	2.5650e-01	19.5219	116.943727	0.000596	5.960543	2.019487	-0.047591
 515	2.5700e-01	19.4802	116.633178	0.000778	7.779014	2.635601	-0.062110
 516	2.5750e-01	19.4401	116.645278	-0.000030	-0.303078	-0.102686	0.002420
 517	2.5800e-01	19.3904	116.008048	0.001596	15.962132	5.408117	-0.127446
 518	2.5850e-01	19.3583	116.020147	-0.000030	-0.303078	-0.102686	0.002420
 519	2.5900e-01	19.3246	115.983850	0.000091	0.909235	0.308057	-0.007260
 520	2.5950e-01	19.2716	115.661202	0.000808	8.082092	2.738287	-0.064530
 521	2.6000e-01	19.2348	115.673301	-0.000030	-0.303078	-0.102686	0.002420
 522	2.6050e-01	19.2011	115.403083	0.000677	6.768752	2.293315	-0.054044
 523	2.6100e-01	19.1545	115.265958	0.000343	3.434889	1.163772	-0.027425
 524	2.6150e-01	19.1273	115.096568	0.000424	4.243098	1.437601	-0.033878
 525	2.6200e-01	19.0823	114.705357	0.000980	9.799537	3.320173	-0.078242
 526	2.6250e-01	19.0455	114.620662	0.000212	2.121549	0.718800	-0.016939
 527	2.6300e-01	19.0102	114.402875	0.000546	5.455412	1.848344	-0.043557
 528	2.6350e-01	18.9701	114.056028	0.000869	8.688249	2.943658	-0.069369
 529	2.6400e-01	18.9155	113.963267	0.000232	2.323601	0.787257	-0.018552
 530	2.6450e-01	18.8770	113.749513	0.000535	5.354386	1.814115	-0.042751
 531	2.6500e-01	18.8353	113.563990	0.000465	4.647203	1.574515	-0.037105
 532	2.6550e-01	18.7984	113.455097	0.000273	2.727706	0.924172	-0.021779
 533	2.6600e-01	18.7535	113.342170	0.000283	2.828732	0.958400	-0.022585
 534	2.6650e-01	18.7150	113.144548	0.000495	4.950281	1.677201	-0.039524
 535	2.6700e-01	18.6765	112.894496	0.000626	6.263621	2.122172	-0.050010
 536	2.6750e-01	18.6396	112.503286	0.000980	9.799537	3.320173	-0.078242
 537	2.6800e-01	18.5947	112.253233	0.000626	6.263621	2.122172	-0.050010
 538	2.6850e-01	18.5594	111.878155	0.000940	9.395432	3.183259	-0.075016
 539	2.6900e-01	18.5177	111.930586	-0.000131	-1.313340	-0.444972	0.010486
 540	2.6950e-01	18.4759	111.753129	0.000445	4.445151	1.506058	-0.035491
 541	2.7000e-01	18.4391	111.567607	0.000465	4.647203	1.574515	-0.037105
 542	2.7050e-01	18.3877	111.406283	0.000404	4.041046	1.369143	-0.032265
 543	2.7100e-01	18.3572	111.345786	0.000152	1.515392	0.513429	-0.012099
 544	2.7150e-01	18.3284	111.043304	0.000758	7.576961	2.567144	-0.060496
 545	2.7200e-01	18.2850	110.765020	0.000697	6.970804	2.361772	-0.055657
 546	2.7250e-01	18.2289	110.660159	0.000263	2.626680	0.889943	-0.020972
 547	2.7300e-01	18.1968	110.418174	0.000606	6.061569	2.053715	-0.048397
 548	2.7350e-01	18.1551	110.281048	0.000343	3.434889	1.163772	-0.027425
 549	2.7400e-01	18.1214	109.885805	0.000990	9.900563	3.354401	-0.079049
 550	2.7450e-01	18.0669	109.659951	0.000566	5.657464	1.916801	-0.045171
 551	2.7500e-01	18.0428	109.579289	0.000202	2.020523	0.684572	-0.016132
 552	2.7550e-01	17.9931	109.450230	0.000323	3.232837	1.095315	-0.025812
 553	2.7600e-01	17.9449	109.333270	0.000293	2.929758	0.992629	-0.023392
 554	2.7650e-01	17.9257	108.925927	0.001020	10.203641	3.457087	-0.081469
 555	2.7700e-01	17.8824	108.804934	0.000303	3.030785	1.026858	-0.024199
 556	2.7750e-01	17.8375	108.478253	0.000818	8.183118	2.772516	-0.065336
 557	2.7800e-01	17.7942	108.260466	0.000546	5.455412	1.848344	-0.043557
 558	2.7850e-01	17.7589	108.010414	0.000626	6.263621	2.122172	-0.050010
 559	2.7900e-01	17.7091	107.869255	0.000354	3.535915	1.198001	-0.028232
 560	2.7950e-01	17.6802	107.675666	0.000485	4.849255	1.642972	-0.038718
 561	2.8000e-01	17.6369	107.365118	0.000778	7.779014	2.635601	-0.062110
 562	2.8050e-01	17.5952	107.159430	0.000515	5.152334	1.745658	-0.041138
 563	2.8100e-01	17.5551	107.046503	0.000283	2.828732	0.958400	-0.022585
 564	2.8150e-01	17.5198	106.792418	0.000636	6.364648	2.156401	-0.050817
 565	2.8200e-01	17.4749	106.635127	0.000394	3.940020	1.334915	-0.031458
 566	2.8250e-01	17.4268	106.336678	0.000748	7.475935	2.532915	-0.059690
 567	2.8300e-01	17.3979	106.086626	0.000626	6.263621	2.122172	-0.050010
 568	2.8350e-01	17.3514	105.921269	0.000414	4.142072	1.403372	-0.033071
 569	2.8400e-01	17.3209	105.755912	0.000414	4.142072	1.403372	-0.033071
 570	2.8450e-01	17.2728	105.570389	0.000465	4.647203	1.574515	-0.037105
 571	2.8500e-01	17.2359	105.473595	0.000242	2.424628	0.821486	-0.019359
 572	2.8550e-01	17.1942	105.130781	0.000859	8.587223	2.909430	-0.068563
 573	2.8600e-01	17.1589	104.876696	0.000636	6.364648	2.156401	-0.050817
 574	2.8650e-01	17.1252	104.554048	0.000808	8.082092	2.738287	-0.064530
 575	2.8700e-01	17.0771	104.328195	0.000566	5.657464	1.916801	-0.045171
 576	2.8750e-01	17.0337	104.187036	0.000354	3.535915	1.198001	-0.028232
 577	2.8800e-01	16.9985	103.888587	0.000748	7.475935	2.532915	-0.059690
 578	2.8850e-01	16.9599	103.743395	0.000364	3.636941	1.232229	-0.029038
 579	2.8900e-01	16.9166	103.646601	0.000242	2.424628	0.821486	-0.019359
 580	2.8950e-01	16.8829	103.412681	0.000586	5.859517	1.985258	-0.046784
 581	2.9000e-01	16.8396	103.073901	0.000849	8.486197	2.875201	-0.067756
 582	2.9050e-01	16.8043	102.872246	0.000505	5.051308	1.711429	-0.040331
 583	2.9100e-01	16.7562	102.573797	0.000748	7.475935	2.532915	-0.059690
 584	2.9150e-01	16.7177	102.384241	0.000475	4.748229	1.608744	-0.037911
 585	2.9200e-01	16.6808	102.150321	0.000586	5.859517	1.985258	-0.046784
 586	2.9250e-01	16.6359	102.134189	0.000040	0.404105	0.136914	-0.003226
 587	2.9300e-01	16.5942	101.928501	0.000515	5.152334	1.745658	-0.041138
 588	2.9350e-01	16.5541	101.589721	0.000849	8.486197	2.875201	-0.067756
 589	2.9400e-01	16.5124	101.561489	0.000071	0.707183	0.239600	-0.005646
 590	2.9450e-01	16.4755	101.109782	0.001131	11.314929	3.833602	-0.090341
 591	2.9500e-01	16.4370	100.984756	0.000313	3.131811	1.061086	-0.025005
 592	2.9550e-01	16.3969	100.867796	0.000293	2.929758	0.992629	-0.023392
 593	2.9600e-01	16.3616	100.589512	0.000697	6.970804	2.361772	-0.055657
 594	2.9650e-01	16.3118	100.359626	0.000576	5.758491	1.951029	-0.045977
 595	2.9700e-01	16.2733	100.121673	0.000596	5.960543	2.019487	-0.047591
 596	2.9750e-01	16.2316	99.988581	0.000333	3.333863	1.129543	-0.026618
 597	2.9800e-01	16.1947	99.613502	0.000940	9.395432	3.183259	-0.075016
 598	2.9850e-01	16.1530	99.484443	0.000323	3.232837	1.095315	-0.025812
 599	2.9900e-01	16.1145	99.311020	0.000434	4.344124	1.471829	-0.034685
 600	2.9950e-01	16.0712	99.097266	0.000535	5.354386	1.814115	-0.042751
 601	3.0000e-01	16.0343	98.831081	0.000667	6.667726	2.259087	-0.053237
 602	3.0050e-01	15.9958	98.593128	0.000596	5.960543	2.019487	-0.047591
 603	3.0100e-01	15.9589	98.347109	0.000616	6.162595	2.087944	-0.049204
 604	3.0150e-01	15.9172	98.080925	0.000667	6.667726	2.259087	-0.053237
 605	3.0200e-01	15.8707	97.947833	0.000333	3.333863	1.129543	-0.026618
 606	3.0250e-01	15.8386	97.746178	0.000505	5.051308	1.711429	-0.040331
 607	3.0300e-01	15.8049	97.318669	0.001071	10.708772	3.628230	-0.085502
 608	3.0350e-01	15.7616	97.173478	0.000364	3.636941	1.232229	-0.029038
 609	3.0400e-01	15.7151	96.887128	0.000717	7.172857	2.430230	-0.057270
 610	3.0450e-01	15.6782	96.834697	0.000131	1.313340	0.444972	-0.010486
 611	3.0500e-01	15.6365	96.592712	0.000606	6.061569	2.053715	-0.048397
 612	3.0550e-01	15.5996	96.540281	0.000131	1.313340	0.444972	-0.010486
 613	3.0600e-01	15.5530	96.261997	0.000697	6.970804	2.361772	-0.055657
 614	3.0650e-01	15.5210	96.015978	0.000616	6.162595	2.087944	-0.049204
 615	3.0700e-01	15.4841	95.713496	0.000758	7.576961	2.567144	-0.060496
 616	3.0750e-01	15.4391	95.406981	0.000768	7.677987	2.601373	-0.061303
 617	3.0800e-01	15.3990	95.394881	0.000030	0.303078	0.102686	-0.002420
 618	3.0850e-01	15.3589	95.213392	0.000455	4.546177	1.540286	-0.036298
 619	3.0900e-01	15.3252	94.725387	0.001222	12.224164	4.141659	-0.097601
 620	3.0950e-01	15.2643	94.572129	0.000384	3.838994	1.300686	-0.030652
 621	3.1000e-01	15.2370	94.293845	0.000697	6.970804	2.361772	-0.055657
 622	3.1050e-01	15.1953	94.140588	0.000384	3.838994	1.300686	-0.030652
 623	3.1100e-01	15.1536	93.797774	0.000859	8.587223	2.909430	-0.068563
 624	3.1150e-01	15.1167	93.628384	0.000424	4.243098	1.437601	-0.033878
 625	3.1200e-01	15.0782	93.604185	0.000061	0.606157	0.205372	-0.004840
 626	3.1250e-01	15.0365	93.342034	0.000657	6.566700	2.224858	-0.052430
 627	3.1300e-01	14.9980	92.898393	0.001111	11.112877	3.765145	-0.088728
 628	3.1350e-01	14.9563	92.579778	0.000798	7.981066	2.704058	-0.063723
 629	3.1400e-01	14.9226	92.462819	0.000293	2.929758	0.992629	-0.023392
 630	3.1450e-01	14.8793	92.224866	0.000596	5.960543	2.019487	-0.047591
 631	3.1500e-01	14.8279	92.156303	0.000172	1.717445	0.581886	-0.013713
 632	3.1550e-01	14.7862	91.974814	0.000455	4.546177	1.540286	-0.036298
 633	3.1600e-01	14.7525	91.894152	0.000202	2.020523	0.684572	-0.016132
 634	3.1650e-01	14.7124	91.426312	0.001172	11.719033	3.970516	-0.093568
 635	3.1700e-01	14.6787	91.208525	0.000546	5.455412	1.848344	-0.043557
 636	3.1750e-01	14.6274	91.232723	-0.000061	-0.606157	-0.205372	0.004840
 637	3.1800e-01	14.5921	91.006870	0.000566	5.657464	1.916801	-0.045171
 638	3.1850e-01	14.5520	90.728586	0.000697	6.970804	2.361772	-0.055657
 639	3.1900e-01	14.5135	90.518865	0.000525	5.253360	1.779886	-0.041944
 640	3.1950e-01	14.4766	90.192184	0.000818	8.183118	2.772516	-0.065336
 641	3.2000e-01	14.4413	89.913900	0.000697	6.970804	2.361772	-0.055657
 642	3.2050e-01	14.3868	89.688047	0.000566	5.657464	1.916801	-0.045171
 643	3.2100e-01	14.3515	89.554954	0.000333	3.333863	1.129543	-0.026618
 644	3.2150e-01	14.3114	89.183909	0.000929	9.294406	3.149030	-0.074209
 645	3.2200e-01	14.2793	88.925791	0.000647	6.465674	2.190630	-0.051624
 646	3.2250e-01	14.2311	88.659607	0.000667	6.667726	2.259087	-0.053237
 647	3.2300e-01	14.1959	88.494250	0.000414	4.142072	1.403372	-0.033071
 648	3.2350e-01	14.1509	88.195800	0.000748	7.475935	2.532915	-0.059690
 649	3.2400e-01	14.1076	87.986079	0.000525	5.253360	1.779886	-0.041944
 650	3.2450e-01	14.0804	87.752159	0.000586	5.859517	1.985258	-0.046784
 651	3.2500e-01	14.0418	87.687630	0.000162	1.616418	0.547657	-0.012906
 652	3.2550e-01	14.0001	87.421445	0.000667	6.667726	2.259087	-0.053237
 653	3.2600e-01	13.9456	87.159294	0.000657	6.566700	2.224858	-0.052430
 654	3.2650e-01	13.9135	87.034268	0.000313	3.131811	1.061086	-0.025005
 655	3.2700e-01	13.8846	86.707587	0.000818	8.183118	2.772516	-0.065336
 656	3.2750e-01	13.8381	86.578528	0.000323	3.232837	1.095315	-0.025812
 657	3.2800e-01	13.7900	86.453502	0.000313	3.131811	1.061086	-0.025005
 658	3.2850e-01	13.7515	85.945331	0.001273	12.729295	4.312802	-0.101634
 659	3.2900e-01	13.7114	85.828371	0.000293	2.929758	0.992629	-0.023392
 660	3.2950e-01	13.6793	85.747709	0.000202	2.020523	0.684572	-0.016132
 661	3.3000e-01	13.6312	85.433128	0.000788	7.880040	2.669830	-0.062916
 662	3.3050e-01	13.5959	85.207274	0.000566	5.657464	1.916801	-0.045171
 663	3.3100e-01	13.5461	84.969321	0.000596	5.960543	2.019487	-0.047591
 664	3.3150e-01	13.5125	84.461151	0.001273	12.729295	4.312802	-0.101634
 665	3.3200e-01	13.4788	84.408721	0.000131	1.313340	0.444972	-0.010486
 666	3.3250e-01	13.4403	84.110271	0.000748	7.475935	2.532915	-0.059690
 667	3.3300e-01	13.3921	83.896517	0.000535	5.354386	1.814115	-0.042751
 668	3.3350e-01	13.3552	83.581935	0.000788	7.880040	2.669830	-0.062916
 669	3.3400e-01	13.3119	83.460942	0.000303	3.030785	1.026858	-0.024199
 670	3.3450e-01	13.2782	83.202824	0.000647	6.465674	2.190630	-0.051624
 671	3.3500e-01	13.2253	83.077798	0.000313	3.131811	1.061086	-0.025005
 672	3.3550e-01	13.1948	82.751117	0.000818	8.183118	2.772516	-0.065336
 673	3.3600e-01	13.1499	82.545429	0.000515	5.152334	1.745658	-0.041138
 674	3.3650e-01	13.1178	82.218748	0.000818	8.183118	2.772516	-0.065336
 675	3.3700e-01	13.0729	82.057424	0.000404	4.041046	1.369143	-0.032265
 676	3.3750e-01	13.0344	81.916266	0.000354	3.535915	1.198001	-0.028232
 677	3.3800e-01	12.9975	81.597651	0.000798	7.981066	2.704058	-0.063723
 678	3.3850e-01	12.9558	81.307268	0.000727	7.273883	2.464458	-0.058077
 679	3.3900e-01	12.9157	80.766833	0.001354	13.537504	4.586631	-0.108087
 680	3.3950e-01	12.8852	80.924123	-0.000394	-3.940020	-1.334915	0.031458
 681	3.4000e-01	12.8290	80.803130	0.000303	3.030785	1.026858	-0.024199
 682	3.4050e-01	12.7938	80.476450	0.000818	8.183118	2.772516	-0.065336
 683	3.4100e-01	12.7569	80.105404	0.000929	9.294406	3.149030	-0.074209
 684	3.4150e-01	12.7248	80.093305	0.000030	0.303078	0.102686	-0.002420
 685	3.4200e-01	12.6750	79.762591	0.000828	8.284144	2.806744	-0.066143
 686	3.4250e-01	12.6398	79.419778	0.000859	8.587223	2.909430	-0.068563
 687	3.4300e-01	12.5964	79.359281	0.000152	1.515392	0.513429	-0.012099
 688	3.4350e-01	12.5563	79.206023	0.000384	3.838994	1.300686	-0.030652
 689	3.4400e-01	12.5194	78.754316	0.001131	11.314929	3.833602	-0.090341
 690	3.4450e-01	12.4841	78.560728	0.000485	4.849255	1.642972	-0.038718
 691	3.4500e-01	12.4328	78.290510	0.000677	6.768752	2.293315	-0.054044
 692	3.4550e-01	12.3895	78.149352	0.000354	3.535915	1.198001	-0.028232
 693	3.4600e-01	12.3574	77.798472	0.000879	8.789275	2.977887	-0.070176
 694	3.4650e-01	12.3125	77.512122	0.000717	7.172857	2.430230	-0.057270
 695	3.4700e-01	12.2772	77.286269	0.000566	5.657464	1.916801	-0.045171
 696	3.4750e-01	12.2403	77.233838	0.000131	1.313340	0.444972	-0.010486
 697	3.4800e-01	12.1954	76.923290	0.000778	7.779014	2.635601	-0.062110
 698	3.4850e-01	12.1585	76.782131	0.000354	3.535915	1.198001	-0.028232
 699	3.4900e-01	12.1168	76.390921	0.000980	9.799537	3.320173	-0.078242
 700	3.4950e-01	12.0783	76.003743	0.000970	9.698510	3.285944	-0.077435
 701	3.5000e-01	12.0366	75.939214	0.000162	1.616418	0.547657	-0.012906
 702	3.5050e-01	12.0013	75.725459	0.000535	5.354386	1.814115	-0.042751
 703	3.5100e-01	11.9531	75.636731	0.000222	2.222575	0.753029	-0.017746
 704	3.5150e-01	11.9114	75.318116	0.000798	7.981066	2.704058	-0.063723
 705	3.5200e-01	11.8793	74.713152	0.001515	15.153923	5.134288	-0.120993
 706	3.5250e-01	11.8441	74.737350	-0.000061	-0.606157	-0.205372	0.004840
 707	3.5300e-01	11.7959	74.596192	0.000354	3.535915	1.198001	-0.028232
 708	3.5350e-01	11.7606	74.467133	0.000323	3.232837	1.095315	-0.025812
 709	3.5400e-01	11.7189	74.237246	0.000576	5.758491	1.951029	-0.045977
 710	3.5450e-01	11.6772	73.825870	0.001030	10.304667	3.491316	-0.082275
 711	3.5500e-01	11.6355	73.491123	0.000839	8.385171	2.840973	-0.066949
 712	3.5550e-01	11.5954	73.297534	0.000485	4.849255	1.642972	-0.038718
 713	3.5600e-01	11.5569	73.136210	0.000404	4.041046	1.369143	-0.032265
 714	3.5650e-01	11.5200	72.761132	0.000940	9.395432	3.183259	-0.075016
 715	3.5700e-01	11.4735	72.535278	0.000566	5.657464	1.916801	-0.045171
 716	3.5750e-01	11.4398	72.333623	0.000505	5.051308	1.711429	-0.040331
 717	3.5800e-01	11.3884	72.140035	0.000485	4.849255	1.642972	-0.038718
 718	3.5850e-01	11.3548	72.152134	-0.000030	-0.303078	-0.102686	0.002420
 719	3.5900e-01	11.3147	71.833519	0.000798	7.981066	2.704058	-0.063723
 720	3.5950e-01	11.2794	71.430209	0.001010	10.102615	3.422859	-0.080662
 721	3.6000e-01	11.2312	71.147892	0.000707	7.071831	2.396001	-0.056463
 722	3.6050e-01	11.2008	71.067230	0.000202	2.020523	0.684572	-0.016132
 723	3.6100e-01	11.1510	70.797013	0.000677	6.768752	2.293315	-0.054044
 724	3.6150e-01	11.1189	70.591325	0.000515	5.152334	1.745658	-0.041138
 725	3.6200e-01	11.0740	70.385637	0.000515	5.152334	1.745658	-0.041138
 726	3.6250e-01	11.0564	69.974261	0.001030	10.304667	3.491316	-0.082275
 727	3.6300e-01	10.9906	69.643547	0.000828	8.284144	2.806744	-0.066143
 728	3.6350e-01	10.9505	69.663712	-0.000051	-0.505131	-0.171143	0.004033
 729	3.6400e-01	10.9152	69.417693	0.000616	6.162595	2.087944	-0.049204
 730	3.6450e-01	10.8847	69.179740	0.000596	5.960543	2.019487	-0.047591
 731	3.6500e-01	10.8350	68.744166	0.001091	10.910824	3.696687	-0.087115
 732	3.6550e-01	10.8045	68.421518	0.000808	8.082092	2.738287	-0.064530
 733	3.6600e-01	10.7612	68.409418	0.000030	0.303078	0.102686	-0.002420
 734	3.6650e-01	10.7083	68.248095	0.000404	4.041046	1.369143	-0.032265
 735	3.6700e-01	10.6778	67.780255	0.001172	11.719033	3.970516	-0.093568
 736	3.6750e-01	10.6200	67.671361	0.000273	2.727706	0.924172	-0.021779
 737	3.6800e-01	10.5927	67.433409	0.000596	5.960543	2.019487	-0.047591
 738	3.6850e-01	10.5591	67.231754	0.000505	5.051308	1.711429	-0.040331
 739	3.6900e-01	10.5238	66.747782	0.001212	12.123138	4.107430	-0.096794
 740	3.6950e-01	10.4788	66.675186	0.000182	1.818471	0.616115	-0.014519
 741	3.7000e-01	10.4420	66.485630	0.000475	4.748229	1.608744	-0.037911
 742	3.7050e-01	10.3906	66.094420	0.000980	9.799537	3.320173	-0.078242
 743	3.7100e-01	10.3537	65.844368	0.000626	6.263621	2.122172	-0.050010
 744	3.7150e-01	10.3168	65.606415	0.000596	5.960543	2.019487	-0.047591
 745	3.7200e-01	10.2799	65.533819	0.000182	1.818471	0.616115	-0.014519
 746	3.7250e-01	10.2366	65.053880	0.001202	12.022112	4.073202	-0.095988
 747	3.7300e-01	10.1981	65.021616	0.000081	0.808209	0.273829	-0.006453
 748	3.7350e-01	10.1484	64.703001	0.000798	7.981066	2.704058	-0.063723
 749	3.7400e-01	10.1179	64.408585	0.000737	7.374909	2.498687	-0.058883
 750	3.7450e-01	10.0762	64.186764	0.000556	5.556438	1.882572	-0.044364
 751	3.7500e-01	10.0345	63.880249	0.000768	7.677987	2.601373	-0.061303
 752	3.7550e-01	9.9944	63.557601	0.000808	8.082092	2.738287	-0.064530
 753	3.7600e-01	9.9575	63.279317	0.000697	6.970804	2.361772	-0.055657
 754	3.7650e-01	9.9206	63.230920	0.000121	1.212314	0.410743	-0.009679
 755	3.7700e-01	9.8757	63.226887	0.000010	0.101026	0.034229	-0.000807
 756	3.7750e-01	9.8372	62.855842	0.000929	9.294406	3.149030	-0.074209
 757	3.7800e-01	9.7970	62.658220	0.000495	4.950281	1.677201	-0.039524
 758	3.7850e-01	9.7457	62.468664	0.000475	4.748229	1.608744	-0.037911
 759	3.7900e-01	9.7168	61.964527	0.001263	12.628269	4.278573	-0.100827
 760	3.7950e-01	9.6751	61.557184	0.001020	10.203641	3.457087	-0.081469
 761	3.8000e-01	9.6350	61.605581	-0.000121	-1.212314	-0.410743	0.009679
 762	3.8050e-01	9.6013	61.327297	0.000697	6.970804	2.361772	-0.055657
 763	3.8100e-01	9.5500	61.161940	0.000414	4.142072	1.403372	-0.033071
 764	3.8150e-01	9.5099	60.863491	0.000748	7.475935	2.532915	-0.059690
 765	3.8200e-01	9.4842	60.621505	0.000606	6.061569	2.053715	-0.048397
 766	3.8250e-01	9.4297	60.246427	0.000940	9.395432	3.183259	-0.075016
 767	3.8300e-01	9.4024	60.016540	0.000576	5.758491	1.951029	-0.045977
 768	3.8350e-01	9.3607	59.701959	0.000788	7.880040	2.669830	-0.062916
 769	3.8400e-01	9.3174	59.496271	0.000515	5.152334	1.745658	-0.041138
 770	3.8450e-01	9.2885	59.266384	0.000576	5.758491	1.951029	-0.045977
 771	3.8500e-01	9.2436	58.996166	0.000677	6.768752	2.293315	-0.054044
 772	3.8550e-01	9.1939	58.794511	0.000505	5.051308	1.711429	-0.040331
 773	3.8600e-01	9.1586	58.649320	0.000364	3.636941	1.232229	-0.029038
 774	3.8650e-01	9.1169	58.314573	0.000839	8.385171	2.840973	-0.066949
 775	3.8700e-01	9.0735	58.145183	0.000424	4.243098	1.437601	-0.033878
 776	3.8750e-01	9.0366	57.991925	0.000384	3.838994	1.300686	-0.030652
 777	3.8800e-01	8.9997	57.637012	0.000889	8.890301	3.012116	-0.070983
 778	3.8850e-01	8.9596	57.463589	0.000434	4.344124	1.471829	-0.034685
 779	3.8900e-01	8.9195	57.124809	0.000849	8.486197	2.875201	-0.067756
 780	3.8950e-01	8.8666	56.898955	0.000566	5.657464	1.916801	-0.045171
 781	3.9000e-01	8.8297	56.685201	0.000535	5.354386	1.814115	-0.042751
 782	3.9050e-01	8.7976	56.354487	0.000828	8.284144	2.806744	-0.066143
 783	3.9100e-01	8.7559	55.999574	0.000889	8.890301	3.012116	-0.070983
 784	3.9150e-01	8.7254	55.810018	0.000475	4.748229	1.608744	-0.037911
 785	3.9200e-01	8.6805	55.483337	0.000818	8.183118	2.772516	-0.065336
 786	3.9250e-01	8.6388	55.313947	0.000424	4.243098	1.437601	-0.033878
 787	3.9300e-01	8.6051	55.184888	0.000323	3.232837	1.095315	-0.025812
 788	3.9350e-01	8.5586	54.946935	0.000596	5.960543	2.019487	-0.047591
 789	3.9400e-01	8.5169	54.567824	0.000950	9.496458	3.217487	-0.075822
 790	3.9450e-01	8.4816	54.366169	0.000505	5.051308	1.711429	-0.040331
 791	3.9500e-01	8.4399	54.152415	0.000535	5.354386	1.814115	-0.042751
 792	3.9550e-01	8.3950	53.974959	0.000445	4.445151	1.506058	-0.035491
 793	3.9600e-01	8.3516	53.648278	0.000818	8.183118	2.772516	-0.065336
 794	3.9650e-01	8.3115	53.422424	0.000566	5.657464	1.916801	-0.045171
 795	3.9700e-01	8.2730	53.071545	0.000879	8.789275	2.977887	-0.070176
 796	3.9750e-01	8.2442	52.756963	0.000788	7.880040	2.669830	-0.062916
 797	3.9800e-01	8.1880	52.789228	-0.000081	-0.808209	-0.273829	0.006453
 798	3.9850e-01	8.1623	52.523043	0.000667	6.667726	2.259087	-0.053237
 799	3.9900e-01	8.1206	51.994707	0.001323	13.234426	4.483945	-0.105667
 800	3.9950e-01	8.0789	51.809185	0.000465	4.647203	1.574515	-0.037105
 801	4.0000e-01	8.0404	51.668026	0.000354	3.535915	1.198001	-0.028232
 802	4.0050e-01	7.9923	51.615596	0.000131	1.313340	0.444972	-0.010486
 803	4.0100e-01	7.9442	51.434106	0.000455	4.546177	1.540286	-0.036298
 804	4.0150e-01	7.9089	50.841241	0.001485	14.850844	5.031602	-0.118573
 805	4.0200e-01	7.8720	50.704116	0.000343	3.434889	1.163772	-0.027425
 806	4.0250e-01	7.8431	50.401633	0.000758	7.576961	2.567144	-0.060496
 807	4.0300e-01	7.7998	50.333071	0.000172	1.717445	0.581886	-0.013713
 808	4.0350e-01	7.7709	49.800702	0.001334	13.335452	4.518173	-0.106474
 809	4.0400e-01	7.7228	49.611146	0.000475	4.748229	1.608744	-0.037911
 810	4.0450e-01	7.6763	49.478054	0.000333	3.333863	1.129543	-0.026618
 811	4.0500e-01	7.6345	49.215902	0.000657	6.566700	2.224858	-0.052430
 812	4.0550e-01	7.6009	49.018280	0.000495	4.950281	1.677201	-0.039524
 813	4.0600e-01	7.5543	48.623037	0.000990	9.900563	3.354401	-0.079049
 814	4.0650e-01	7.5142	48.324587	0.000748	7.475935	2.532915	-0.059690
 815	4.0700e-01	7.4821	48.260058	0.000162	1.616418	0.547657	-0.012906
 816	4.0750e-01	7.4372	47.977741	0.000707	7.071831	2.396001	-0.056463
 817	4.0800e-01	7.3907	47.667192	0.000778	7.779014	2.635601	-0.062110
 818	4.0850e-01	7.3522	47.429240	0.000596	5.960543	2.019487	-0.047591
 819	4.0900e-01	7.3217	47.344544	0.000212	2.121549	0.718800	-0.016939
 820	4.0950e-01	7.2688	47.038029	0.000768	7.677987	2.601373	-0.061303
 821	4.1000e-01	7.2351	46.675050	0.000909	9.092354	3.080573	-0.072596
 822	4.1050e-01	7.2014	46.517759	0.000394	3.940020	1.334915	-0.031458
 823	4.1100e-01	7.1581	46.424998	0.000232	2.323601	0.787257	-0.018552
 824	4.1150e-01	7.1132	45.844232	0.001455	14.547766	4.928916	-0.116153
 825	4.1200e-01	7.0747	45.626444	0.000546	5.455412	1.848344	-0.043557
 826	4.1250e-01	7.0346	45.453021	0.000434	4.344124	1.471829	-0.034685
 827	4.1300e-01	6.9912	44.997281	0.001142	11.415955	3.867830	-0.091148
 828	4.1350e-01	6.9592	44.791593	0.000515	5.152334	1.745658	-0.041138
 829	4.1400e-01	6.9191	44.448780	0.000859	8.587223	2.909430	-0.068563
 830	4.1450e-01	6.8741	44.477011	-0.000071	-0.707183	-0.239600	0.005646
 831	4.1500e-01	6.8356	44.198728	0.000697	6.970804	2.361772	-0.055657
 832	4.1550e-01	6.7907	43.730888	0.001172	11.719033	3.970516	-0.093568
 833	4.1600e-01	6.7474	43.609895	0.000303	3.030785	1.026858	-0.024199
 834	4.1650e-01	6.7169	43.408240	0.000505	5.051308	1.711429	-0.040331
 835	4.1700e-01	6.6768	43.230784	0.000445	4.445151	1.506058	-0.035491
 836	4.1750e-01	6.6367	42.795209	0.001091	10.910824	3.696687	-0.087115
 837	4.1800e-01	6.5950	42.678249	0.000293	2.929758	0.992629	-0.023392
 838	4.1850e-01	6.5533	42.363668	0.000788	7.880040	2.669830	-0.062916
 839	4.1900e-01	6.5116	42.194278	0.000424	4.243098	1.437601	-0.033878
 840	4.1950e-01	6.4731	41.617544	0.001445	14.446740	4.894688	-0.115347
 841	4.2000e-01	6.4346	41.577213	0.000101	1.010262	0.342286	-0.008066
 842	4.2050e-01	6.3977	41.331194	0.000616	6.162595	2.087944	-0.049204
 843	4.2100e-01	6.3576	41.085175	0.000616	6.162595	2.087944	-0.049204
 844	4.2150e-01	6.3030	41.036778	0.000121	1.212314	0.410743	-0.009679
 845	4.2200e-01	6.2806	40.754461	0.000707	7.071831	2.396001	-0.056463
 846	4.2250e-01	6.2405	40.411648	0.000859	8.587223	2.909430	-0.068563
 847	4.2300e-01	6.1988	40.201927	0.000525	5.253360	1.779886	-0.041944
 848	4.2350e-01	6.1586	39.790551	0.001030	10.304667	3.491316	-0.082275
 849	4.2400e-01	6.1105	39.645359	0.000364	3.636941	1.232229	-0.029038
 850	4.2450e-01	6.0816	39.359009	0.000717	7.172857	2.430230	-0.057270
 851	4.2500e-01	6.0367	39.121056	0.000596	5.960543	2.019487	-0.047591
 852	4.2550e-01	5.9886	38.802442	0.000798	7.981066	2.704058	-0.063723
 853	4.2600e-01	5.9581	38.536257	0.000667	6.667726	2.259087	-0.053237
 854	4.2650e-01	5.9164	38.342668	0.000485	4.849255	1.642972	-0.038718
 855	4.2700e-01	5.8763	38.007921	0.000839	8.385171	2.840973	-0.066949
 856	4.2750e-01	5.8458	37.580413	0.001071	10.708772	3.628230	-0.085502
 857	4.2800e-01	5.7929	37.503784	0.000192	1.919497	0.650343	-0.015326
 858	4.2850e-01	5.7624	37.338427	0.000414	4.142072	1.403372	-0.033071
 859	4.2900e-01	5.7079	37.003680	0.000839	8.385171	2.840973	-0.066949
 860	4.2950e-01	5.6806	36.660866	0.000859	8.587223	2.909430	-0.068563
 861	4.3000e-01	5.6309	36.612469	0.000121	1.212314	0.410743	-0.009679
 862	4.3050e-01	5.5940	36.447112	0.000414	4.142072	1.403372	-0.033071
 863	4.3100e-01	5.5587	36.112365	0.000839	8.385171	2.840973	-0.066949
 864	4.3150e-01	5.5105	35.741320	0.000929	9.294406	3.149030	-0.074209
 865	4.3200e-01	5.4720	35.571930	0.000424	4.243098	1.437601	-0.033878
 866	4.3250e-01	5.4303	35.229116	0.000859	8.587223	2.909430	-0.068563
 867	4.3300e-01	5.3934	34.934700	0.000737	7.374909	2.498687	-0.058883
 868	4.3350e-01	5.3597	34.817740	0.000293	2.929758	0.992629	-0.023392
 869	4.3400e-01	5.3132	34.733045	0.000212	2.121549	0.718800	-0.016939
 870	4.3450e-01	5.2667	34.115981	0.001546	15.457001	5.236974	-0.123413
 871	4.3500e-01	5.2330	33.837697	0.000697	6.970804	2.361772	-0.055657
 872	4.3550e-01	5.1977	33.587645	0.000626	6.263621	2.122172	-0.050010
 873	4.3600e-01	5.1576	33.535215	0.000131	1.313340	0.444972	-0.010486
 874	4.3650e-01	5.1191	33.309361	0.000566	5.657464	1.916801	-0.045171
 875	4.3700e-01	5.0758	33.014945	0.000737	7.374909	2.498687	-0.058883
 876	4.3750e-01	5.0421	32.526940	0.001222	12.224164	4.141659	-0.097601
 877	4.3800e-01	5.0036	32.442245	0.000212	2.121549	0.718800	-0.016939
 878	4.3850e-01	4.9458	31.982472	0.001152	11.516981	3.902059	-0.091955
 879	4.3900e-01	4.9090	31.877611	0.000263	2.626680	0.889943	-0.020972
 880	4.3950e-01	4.8753	31.732420	0.000364	3.636941	1.232229	-0.029038
 881	4.4000e-01	4.8319	31.308944	0.001061	10.607746	3.594002	-0.084695
 882	4.4050e-01	4.7967	30.945966	0.000909	9.092354	3.080573	-0.072596
 883	4.4100e-01	4.7533	30.933866	0.000030	0.303078	0.102686	-0.002420
 884	4.4150e-01	4.7116	30.679781	0.000636	6.364648	2.156401	-0.050817
 885	4.4200e-01	4.6699	30.280504	0.001000	10.001589	3.388630	-0.079855
 886	4.4250e-01	4.6378	30.191776	0.000222	2.222575	0.753029	-0.017746
 887	4.4300e-01	4.5913	29.808632	0.000960	9.597484	3.251716	-0.076629
 888	4.4350e-01	4.5464	29.546480	0.000657	6.566700	2.224858	-0.052430
 889	4.4400e-01	4.5175	29.485984	0.000152	1.515392	0.513429	-0.012099
 890	4.4450e-01	4.4806	29.175435	0.000778	7.779014	2.635601	-0.062110
 891	4.4500e-01	4.4405	28.824556	0.000879	8.789275	2.977887	-0.070176
 892	4.4550e-01	4.3988	28.655166	0.000424	4.243098	1.437601	-0.033878
 893	4.4600e-01	4.3571	28.368816	0.000717	7.172857	2.430230	-0.057270
 894	4.4650e-01	4.3186	27.969539	0.001000	10.001589	3.388630	-0.079855
 895	4.4700e-01	4.2737	27.941307	0.000071	0.707183	0.239600	-0.005646
 896	4.4750e-01	4.2272	27.808215	0.000333	3.333863	1.129543	-0.026618
 897	4.4800e-01	4.1919	27.283912	0.001313	13.133400	4.449716	-0.104861
 898	4.4850e-01	4.1485	27.001595	0.000707	7.071831	2.396001	-0.056463
 899	4.4900e-01	4.1213	26.658782	0.000859	8.587223	2.909430	-0.068563
 900	4.4950e-01	4.0667	26.271604	0.000970	9.698510	3.285944	-0.077435
 901	4.5000e-01	4.0379	26.005420	0.000667	6.667726	2.259087	-0.053237
 902	4.5050e-01	3.9945	25.928791	0.000192	1.919497	0.650343	-0.015326
 903	4.5100e-01	3.9528	25.723103	0.000515	5.152334	1.745658	-0.041138
 904	4.5150e-01	3.9127	25.339959	0.000960	9.597484	3.251716	-0.076629
 905	4.5200e-01	3.8710	25.182668	0.000394	3.940020	1.334915	-0.031458
 906	4.5250e-01	3.8453	24.940682	0.000606	6.061569	2.053715	-0.048397
 907	4.5300e-01	3.7956	24.589802	0.000879	8.789275	2.977887	-0.070176
 908	4.5350e-01	3.7571	24.525273	0.000162	1.616418	0.547657	-0.012906
 909	4.5400e-01	3.7170	24.251022	0.000687	6.869778	2.327544	-0.054850
 910	4.5450e-01	3.6721	24.029201	0.000556	5.556438	1.882572	-0.044364
 911	4.5500e-01	3.6320	23.581528	0.001121	11.213903	3.799373	-0.089535
 912	4.5550e-01	3.5983	23.250813	0.000828	8.284144	2.806744	-0.066143
 913	4.5600e-01	3.5470	23.125787	0.000313	3.131811	1.061086	-0.025005
 914	4.5650e-01	3.5149	22.903967	0.000556	5.556438	1.882572	-0.044364
 915	4.5700e-01	3.4716	22.436128	0.001172	11.719033	3.970516	-0.093568
 916	4.5750e-01	3.4331	22.379664	0.000141	1.414366	0.479200	-0.011293
 917	4.5800e-01	3.3930	22.028785	0.000879	8.789275	2.977887	-0.070176
 918	4.5850e-01	3.3593	21.645640	0.000960	9.597484	3.251716	-0.076629
 919	4.5900e-01	3.3176	21.448018	0.000495	4.950281	1.677201	-0.039524
 920	4.5950e-01	3.2678	21.339125	0.000273	2.727706	0.924172	-0.021779
 921	4.6000e-01	3.2341	20.855153	0.001212	12.123138	4.107430	-0.096794
 922	4.6050e-01	3.1924	20.593001	0.000657	6.566700	2.224858	-0.052430
 923	4.6100e-01	3.1523	20.472009	0.000303	3.030785	1.026858	-0.024199
 924	4.6150e-01	3.1170	20.169526	0.000758	7.576961	2.567144	-0.060496
 925	4.6200e-01	3.0721	19.951739	0.000546	5.455412	1.848344	-0.043557
 926	4.6250e-01	3.0368	19.798481	0.000384	3.838994	1.300686	-0.030652
 927	4.6300e-01	2.9951	19.524230	0.000687	6.869778	2.327544	-0.054850
 928	4.6350e-01	2.9534	19.278211	0.000616	6.162595	2.087944	-0.049204
 929	4.6400e-01	2.9213	19.044292	0.000586	5.859517	1.985258	-0.046784
 930	4.6450e-01	2.8780	18.604684	0.001101	11.011850	3.730916	-0.087922
 931	4.6500e-01	2.8379	18.261870	0.000859	8.587223	2.909430	-0.068563
 932	4.6550e-01	2.7946	18.132811	0.000323	3.232837	1.095315	-0.025812
 933	4.6600e-01	2.7513	17.923090	0.000525	5.253360	1.779886	-0.041944
 934	4.6650e-01	2.7095	17.608508	0.000788	7.880040	2.669830	-0.062916
 935	4.6700e-01	2.6678	17.265695	0.000859	8.587223	2.909430	-0.068563
 936	4.6750e-01	2.6406	17.088239	0.000445	4.445151	1.506058	-0.035491
 937	4.6800e-01	2.5940	16.644598	0.001111	11.112877	3.765145	-0.088728
 938	4.6850e-01	2.5588	16.442943	0.000505	5.051308	1.711429	-0.040331
 939	4.6900e-01	2.5186	16.261454	0.000455	4.546177	1.540286	-0.036298
 940	4.6950e-01	2.4753	16.011401	0.000626	6.263621	2.122172	-0.050010
 941	4.7000e-01	2.4432	15.946872	0.000162	1.616418	0.547657	-0.012906
 942	4.7050e-01	2.3967	15.563728	0.000960	9.597484	3.251716	-0.076629
 943	4.7100e-01	2.3582	15.313675	0.000626	6.263621	2.122172	-0.050010
 944	4.7150e-01	2.3165	15.164451	0.000374	3.737968	1.266458	-0.029845
 945	4.7200e-01	2.2796	14.841803	0.000808	8.082092	2.738287	-0.064530
 946	4.7250e-01	2.2283	14.357831	0.001212	12.123138	4.107430	-0.096794
 947	4.7300e-01	2.1898	14.192474	0.000414	4.142072	1.403372	-0.033071
 948	4.7350e-01	2.1449	14.152143	0.000101	1.010262	0.342286	-0.008066
 949	4.7400e-01	2.1176	13.777065	0.000940	9.395432	3.183259	-0.075016
 950	4.7450e-01	2.0807	13.555244	0.000556	5.556438	1.882572	-0.044364
 951	4.7500e-01	2.0294	13.030942	0.001313	13.133400	4.449716	-0.104861
 952	4.7550e-01	1.9941	12.885750	0.000364	3.636941	1.232229	-0.029038
 953	4.7600e-01	1.9572	12.724426	0.000404	4.041046	1.369143	-0.032265
 954	4.7650e-01	1.9219	12.276752	0.001121	11.213903	3.799373	-0.089535
 955	4.7700e-01	1.8689	12.107362	0.000424	4.243098	1.437601	-0.033878
 956	4.7750e-01	1.8385	12.054932	0.000131	1.313340	0.444972	-0.010486
 957	4.7800e-01	1.7967	11.869409	0.000465	4.647203	1.574515	-0.037105
 958	4.7850e-01	1.7438	11.401570	0.001172	11.719033	3.970516	-0.093568
 959	4.7900e-01	1.7165	11.091021	0.000778	7.779014	2.635601	-0.062110
 960	4.7950e-01	1.6716	10.828870	0.000657	6.566700	2.224858	-0.052430
 961	4.8000e-01	1.6251	10.482023	0.000869	8.688249	2.943658	-0.069369
 962	4.8050e-01	1.5946	10.397328	0.000212	2.121549	0.718800	-0.016939
 963	4.8100e-01	1.5481	10.147276	0.000626	6.263621	2.122172	-0.050010
 964	4.8150e-01	1.5096	9.864959	0.000707	7.071831	2.396001	-0.056463
 965	4.8200e-01	1.4711	9.586675	0.000697	6.970804	2.361772	-0.055657
 966	4.8250e-01	1.4390	9.284193	0.000758	7.576961	2.567144	-0.060496
 967	4.8300e-01	1.3909	9.094637	0.000475	4.748229	1.608744	-0.037911
 968	4.8350e-01	1.3524	8.941380	0.000384	3.838994	1.300686	-0.030652
 969	4.8400e-01	1.3107	8.626798	0.000788	7.880040	2.669830	-0.062916
 970	4.8450e-01	1.2689	8.400944	0.000566	5.657464	1.916801	-0.045171
 971	4.8500e-01	1.2417	7.941171	0.001152	11.516981	3.902059	-0.091955
 972	4.8550e-01	1.1952	7.743549	0.000495	4.950281	1.677201	-0.039524
 973	4.8600e-01	1.1518	7.303942	0.001101	11.011850	3.730916	-0.087922
 974	4.8650e-01	1.1198	6.985327	0.000798	7.981066	2.704058	-0.063723
 975	4.8700e-01	1.0780	6.920797	0.000162	1.616418	0.547657	-0.012906
 976	4.8750e-01	1.0299	6.561851	0.000899	8.991327	3.046344	-0.071789
 977	4.8800e-01	0.9978	6.327932	0.000586	5.859517	1.985258	-0.046784
 978	4.8850e-01	0.9545	6.029482	0.000748	7.475935	2.532915	-0.059690
 979	4.8900e-01	0.9176	5.932688	0.000242	2.424628	0.821486	-0.019359
 980	4.8950e-01	0.8839	5.654404	0.000697	6.970804	2.361772	-0.055657
 981	4.9000e-01	0.8294	5.214796	0.001101	11.011850	3.730916	-0.087922
 982	4.9050e-01	0.7861	5.178499	0.000091	0.909235	0.308057	-0.007260
 983	4.9100e-01	0.7476	4.964744	0.000535	5.354386	1.814115	-0.042751
 984	4.9150e-01	0.7059	4.698560	0.000667	6.667726	2.259087	-0.053237
 985	4.9200e-01	0.6625	4.283151	0.001041	10.405694	3.525544	-0.083082
 986	4.9250e-01	0.6401	4.029066	0.000636	6.364648	2.156401	-0.050817
 987	4.9300e-01	0.5936	3.819344	0.000525	5.253360	1.779886	-0.041944
 988	4.9350e-01	0.5551	3.452332	0.000919	9.193380	3.114801	-0.073402
 989	4.9400e-01	0.5021	3.355538	0.000242	2.424628	0.821486	-0.019359
 990	4.9450e-01	0.4684	3.182115	0.000434	4.344124	1.471829	-0.034685
 991	4.9500e-01	0.4219	2.839301	0.000859	8.587223	2.909430	-0.068563
 992	4.9550e-01	0.3930	2.472289	0.000919	9.193380	3.114801	-0.073402
 993	4.9600e-01	0.3561	2.210138	0.000657	6.566700	2.224858	-0.052430
 994	4.9650e-01	0.3208	1.859258	0.000879	8.789275	2.977887	-0.070176
 995	4.9700e-01	0.2759	1.822961	0.000091	0.909235	0.308057	-0.007260
 996	4.9750e-01	0.2358	1.306724	0.001293	12.931347	4.381259	-0.103247
 997	4.9800e-01	0.1941	1.064738	0.000606	6.061569	2.053715	-0.048397
 998	4.9850e-01	0.1620	0.806620	0.000647	6.465674	2.190630	-0.051624
 999	4.9900e-01	0.1171	0.560601	0.000616	6.162595	2.087944	-0.049204
1000	4.9950e-01	0.0754	0.375078	0.000465	4.647203	1.574515	-0.037105
1001	5.0000e-01	0.0353	-0.104861	0.001202	12.022112	4.073202	-0.095988
1002	5.0050e-01	-0.0032	-0.213754	0.000273	2.727706	0.924172	-0.021779
1003	5.0100e-01	-0.0369	-0.314582	0.000253	2.525654	0.855715	-0.020165
1004	5.0150e-01	-0.0834	-0.572700	0.000647	6.465674	2.190630	-0.051624
1005	5.0200e-01	-0.1171	-1.076837	0.001263	12.628269	4.278573	-0.100827
1006	5.0250e-01	-0.1684	-1.246227	0.000424	4.243098	1.437601	-0.033878
1007	5.0300e-01	-0.1957	-1.552743	0.000768	7.677987	2.601373	-0.061303
1008	5.0350e-01	-0.2406	-1.589041	0.000091	0.909235	0.308057	-0.007260
1009	5.0400e-01	-0.2856	-1.996384	0.001020	10.203641	3.457087	-0.081469
1010	5.0450e-01	-0.3176	-2.097211	0.000253	2.525654	0.855715	-0.020165
1011	5.0500e-01	-0.3674	-2.581183	0.001212	12.123138	4.107430	-0.096794
1012	5.0550e-01	-0.3930	-2.722342	0.000354	3.535915	1.198001	-0.028232
1013	5.0600e-01	-0.4396	-3.194214	0.001182	11.820060	4.004745	-0.094375
1014	5.0650e-01	-0.4781	-3.359571	0.000414	4.142072	1.403372	-0.033071
1015	5.0700e-01	-0.5230	-3.553160	0.000485	4.849255	1.642972	-0.038718
1016	5.0750e-01	-0.5503	-3.738682	0.000465	4.647203	1.574515	-0.037105
1017	5.0800e-01	-0.6080	-3.847576	0.000273	2.727706	0.924172	-0.021779
1018	5.0850e-01	-0.6401	-4.307349	0.001152	11.516981	3.902059	-0.091955
1019	5.0900e-01	-0.6850	-4.565468	0.000647	6.465674	2.190630	-0.051624
1020	5.0950e-01	-0.7171	-4.783255	0.000546	5.455412	1.848344	-0.043557
1021	5.1000e-01	-0.7508	-5.093804	0.000778	7.779014	2.635601	-0.062110
1022	5.1050e-01	-0.7925	-5.404352	0.000778	7.779014	2.635601	-0.062110
1023	5.1100e-01	-0.8486	-5.525345	0.000303	3.030785	1.026858	-0.024199
1024	5.1150e-01	-0.8695	-5.912523	0.000970	9.698510	3.285944	-0.077435
1025	5.1200e-01	-0.9176	-6.186773	0.000687	6.869778	2.327544	-0.054850
1026	5.1250e-01	-0.9513	-6.428759	0.000606	6.061569	2.053715	-0.048397
1027	5.1300e-01	-0.9914	-6.791738	0.000909	9.092354	3.080573	-0.072596
1028	5.1350e-01	-1.0363	-6.965161	0.000434	4.344124	1.471829	-0.034685
1029	5.1400e-01	-1.0780	-7.312008	0.000869	8.688249	2.943658	-0.069369
1030	5.1450e-01	-1.1149	-7.493497	0.000455	4.546177	1.540286	-0.036298
1031	5.1500e-01	-1.1583	-7.679020	0.000465	4.647203	1.574515	-0.037105
1032	5.1550e-01	-1.1984	-8.037966	0.000899	8.991327	3.046344	-0.071789
1033	5.1600e-01	-1.2369	-8.275918	0.000596	5.960543	2.019487	-0.047591
1034	5.1650e-01	-1.2786	-8.400944	0.000313	3.131811	1.061086	-0.025005
1035	5.1700e-01	-1.3251	-8.719559	0.000798	7.981066	2.704058	-0.063723
1036	5.1750e-01	-1.3524	-8.747791	0.000071	0.707183	0.239600	-0.005646
1037	5.1800e-01	-1.3909	-9.062373	0.000788	7.880040	2.669830	-0.062916
1038	5.1850e-01	-1.4438	-9.401153	0.000849	8.486197	2.875201	-0.067756
1039	5.1900e-01	-1.4775	-9.800430	0.001000	10.001589	3.388630	-0.079855
1040	5.1950e-01	-1.5240	-10.018217	0.000546	5.455412	1.848344	-0.043557
1041	5.2000e-01	-1.5609	-10.401361	0.000960	9.597484	3.251716	-0.076629
1042	5.2050e-01	-1.5946	-10.534454	0.000333	3.333863	1.129543	-0.026618
1043	5.2100e-01	-1.6459	-10.695777	0.000404	4.041046	1.369143	-0.032265
1044	5.2150e-01	-1.6732	-11.022458	0.000818	8.183118	2.772516	-0.065336
1045	5.2200e-01	-1.7246	-11.365272	0.000859	8.587223	2.909430	-0.068563
1046	5.2250e-01	-1.7647	-11.490298	0.000313	3.131811	1.061086	-0.025005
1047	5.2300e-01	-1.7983	-11.877475	0.000970	9.698510	3.285944	-0.077435
1048	5.2350e-01	-1.8368	-12.026700	0.000374	3.737968	1.266458	-0.029845
1049	5.2400e-01	-1.8753	-12.430010	0.001010	10.102615	3.422859	-0.080662
1050	5.2450e-01	-1.9187	-12.821220	0.000980	9.799537	3.320173	-0.078242
1051	5.2500e-01	-1.9540	-12.962379	0.000354	3.535915	1.198001	-0.028232
1052	5.2550e-01	-1.9989	-13.099504	0.000343	3.434889	1.163772	-0.027425
1053	5.2600e-01	-2.0406	-13.317292	0.000546	5.455412	1.848344	-0.043557
1054	5.2650e-01	-2.0791	-13.720601	0.001010	10.102615	3.422859	-0.080662
1055	5.2700e-01	-2.1256	-13.865793	0.000364	3.636941	1.232229	-0.029038
1056	5.2750e-01	-2.1625	-14.099713	0.000586	5.859517	1.985258	-0.046784
1057	5.2800e-01	-2.1914	-14.373963	0.000687	6.869778	2.327544	-0.054850
1058	5.2850e-01	-2.2347	-14.740975	0.000919	9.193380	3.114801	-0.073402
1059	5.2900e-01	-2.2796	-15.099921	0.000899	8.991327	3.046344	-0.071789
1060	5.2950e-01	-2.3117	-15.341907	0.000606	6.061569	2.053715	-0.048397
1061	5.3000e-01	-2.3566	-15.567761	0.000566	5.657464	1.916801	-0.045171
1062	5.3050e-01	-2.3999	-15.958971	0.000980	9.799537	3.320173	-0.078242
1063	5.3100e-01	-2.4416	-16.104163	0.000364	3.636941	1.232229	-0.029038
1064	5.3150e-01	-2.4721	-16.249354	0.000364	3.636941	1.232229	-0.029038
1065	5.3200e-01	-2.5202	-16.660730	0.001030	10.304667	3.491316	-0.082275
1066	5.3250e-01	-2.5668	-16.717194	0.000141	1.414366	0.479200	-0.011293
1067	5.3300e-01	-2.6005	-16.971279	0.000636	6.364648	2.156401	-0.050817
1068	5.3350e-01	-2.6502	-17.326192	0.000889	8.890301	3.012116	-0.070983
1069	5.3400e-01	-2.6823	-17.644806	0.000798	7.981066	2.704058	-0.063723
1070	5.3450e-01	-2.7144	-17.915024	0.000677	6.768752	2.293315	-0.054044
1071	5.3500e-01	-2.7609	-18.124745	0.000525	5.253360	1.779886	-0.041944
1072	5.3550e-01	-2.7914	-18.394963	0.000677	6.768752	2.293315	-0.054044
1073	5.3600e-01	-2.8443	-18.419161	0.000061	0.606157	0.205372	-0.004840
1074	5.3650e-01	-2.8764	-19.020093	0.001505	15.052896	5.100059	-0.120186
1075	5.3700e-01	-2.9229	-19.177384	0.000394	3.940020	1.334915	-0.031458
1076	5.3750e-01	-2.9566	-19.427436	0.000626	6.263621	2.122172	-0.050010
1077	5.3800e-01	-2.9967	-19.487932	0.000152	1.515392	0.513429	-0.012099
1078	5.3850e-01	-3.0416	-19.818647	0.000828	8.284144	2.806744	-0.066143
1079	5.3900e-01	-3.0737	-20.145328	0.000818	8.183118	2.772516	-0.065336
1080	5.3950e-01	-3.1186	-20.492174	0.000869	8.688249	2.943658	-0.069369
1081	5.4000e-01	-3.1619	-20.855153	0.000909	9.092354	3.080573	-0.072596
1082	5.4050e-01	-3.2037	-21.032609	0.000445	4.445151	1.506058	-0.035491
1083	5.4100e-01	-3.2470	-21.274595	0.000606	6.061569	2.053715	-0.048397
1084	5.4150e-01	-3.2871	-21.165701	-0.000273	-2.727706	-0.924172	0.021779
1085	5.4200e-01	-3.3159	-21.617409	0.001131	11.314929	3.833602	-0.090341
1086	5.4250e-01	-3.3609	-21.843262	0.000566	5.657464	1.916801	-0.045171
1087	5.4300e-01	-3.4090	-22.359499	0.001293	12.931347	4.381259	-0.103247
1088	5.4350e-01	-3.4347	-22.516789	0.000394	3.940020	1.334915	-0.031458
1089	5.4400e-01	-3.4780	-22.887835	0.000929	9.294406	3.149030	-0.074209
1090	5.4450e-01	-3.5181	-23.133854	0.000616	6.162595	2.087944	-0.049204
1091	5.4500e-01	-3.5566	-23.246780	0.000283	2.828732	0.958400	-0.022585
1092	5.4550e-01	-3.5983	-23.565395	0.000798	7.981066	2.704058	-0.063723
1093	5.4600e-01	-3.6560	-23.625892	0.000152	1.515392	0.513429	-0.012099
1094	5.4650e-01	-3.6753	-23.940473	0.000788	7.880040	2.669830	-0.062916
1095	5.4700e-01	-3.7266	-24.190525	0.000626	6.263621	2.122172	-0.050010
1096	5.4750e-01	-3.7603	-24.488975	0.000748	7.475935	2.532915	-0.059690
1097	5.4800e-01	-3.7972	-24.956814	0.001172	11.719033	3.970516	-0.093568
1098	5.4850e-01	-3.8389	-25.162502	0.000515	5.152334	1.745658	-0.041138
1099	5.4900e-01	-3.8774	-25.464985	0.000758	7.576961	2.567144	-0.060496
1100	5.4950e-01	-3.9223	-25.650507	0.000465	4.647203	1.574515	-0.037105
1101	5.5000e-01	-3.9673	-25.727136	0.000192	1.919497	0.650343	-0.015326
1102	5.5050e-01	-4.0010	-25.961056	0.000586	5.859517	1.985258	-0.046784
1103	5.5100e-01	-4.0362	-26.186909	0.000566	5.657464	1.916801	-0.045171
1104	5.5150e-01	-4.0812	-26.428895	0.000606	6.061569	2.053715	-0.048397
1105	5.5200e-01	-4.1261	-26.808006	0.000950	9.496458	3.217487	-0.075822
1106	5.5250e-01	-4.1614	-27.122588	0.000788	7.880040	2.669830	-0.062916
1107	5.5300e-01	-4.2047	-27.384740	0.000657	6.566700	2.224858	-0.052430
1108	5.5350e-01	-4.2416	-27.364574	-0.000051	-0.505131	-0.171143	0.004033
1109	5.5400e-01	-4.2801	-27.751751	0.000970	9.698510	3.285944	-0.077435
1110	5.5450e-01	-4.3170	-28.235723	0.001212	12.123138	4.107430	-0.096794
1111	5.5500e-01	-4.3571	-28.384948	0.000374	3.737968	1.266458	-0.029845
1112	5.5550e-01	-4.4036	-28.526106	0.000354	3.535915	1.198001	-0.028232
1113	5.5600e-01	-4.4405	-28.816490	0.000727	7.273883	2.464458	-0.058077
1114	5.5650e-01	-4.4790	-28.953615	0.000343	3.434889	1.163772	-0.027425
1115	5.5700e-01	-4.5239	-29.203667	0.000626	6.263621	2.122172	-0.050010
1116	5.5750e-01	-4.5592	-29.498083	0.000737	7.374909	2.498687	-0.058883
1117	5.5800e-01	-4.5977	-29.917525	0.001051	10.506720	3.559773	-0.083888
1118	5.5850e-01	-4.6330	-30.143379	0.000566	5.657464	1.916801	-0.045171
1119	5.5900e-01	-4.6828	-30.486192	0.000859	8.587223	2.909430	-0.068563
1120	5.5950e-01	-4.7229	-30.651549	0.000414	4.142072	1.403372	-0.033071
1121	5.6000e-01	-4.7566	-30.941932	0.000727	7.273883	2.464458	-0.058077
1122	5.6050e-01	-4.8015	-31.304911	0.000909	9.092354	3.080573	-0.072596
1123	5.6100e-01	-4.8336	-31.558997	0.000636	6.364648	2.156401	-0.050817
1124	5.6150e-01	-4.8785	-31.849380	0.000727	7.273883	2.464458	-0.058077
1125	5.6200e-01	-4.9154	-32.014737	0.000414	4.142072	1.403372	-0.033071
1126	5.6250e-01	-4.9635	-32.200259	0.000465	4.647203	1.574515	-0.037105
1127	5.6300e-01	-4.9940	-32.438212	0.000596	5.960543	2.019487	-0.047591
1128	5.6350e-01	-5.0341	-32.845555	0.001020	10.203641	3.457087	-0.081469
1129	5.6400e-01	-5.0838	-33.035111	0.000475	4.748229	1.608744	-0.037911
1130	5.6450e-01	-5.1175	-33.248865	0.000535	5.354386	1.814115	-0.042751
1131	5.6500e-01	-5.1672	-33.502950	0.000636	6.364648	2.156401	-0.050817
1132	5.6550e-01	-5.2009	-33.660241	0.000394	3.940020	1.334915	-0.031458
1133	5.6600e-01	-5.2362	-34.172444	0.001283	12.830321	4.347030	-0.102441
1134	5.6650e-01	-5.2779	-34.349901	0.000445	4.445151	1.506058	-0.035491
1135	5.6700e-01	-5.3212	-34.438629	0.000222	2.222575	0.753029	-0.017746
1136	5.6750e-01	-5.3581	-34.648350	0.000525	5.253360	1.779886	-0.041944
1137	5.6800e-01	-5.4015	-34.862104	0.000535	5.354386	1.814115	-0.042751
1138	5.6850e-01	-5.4383	-35.253315	0.000980	9.799537	3.320173	-0.078242
1139	5.6900e-01	-5.4833	-35.600161	0.000869	8.688249	2.943658	-0.069369
1140	5.6950e-01	-5.5202	-35.918776	0.000798	7.981066	2.704058	-0.063723
1141	5.7000e-01	-5.5603	-36.120431	0.000505	5.051308	1.711429	-0.040331
1142	5.7050e-01	-5.5972	-36.511642	0.000980	9.799537	3.320173	-0.078242
1143	5.7100e-01	-5.6373	-36.640701	0.000323	3.232837	1.095315	-0.025812
1144	5.7150e-01	-5.6854	-36.785892	0.000364	3.636941	1.232229	-0.029038
1145	5.7200e-01	-5.7111	-36.963349	0.000445	4.445151	1.506058	-0.035491
1146	5.7250e-01	-5.7704	-37.423122	0.001152	11.516981	3.902059	-0.091955
1147	5.7300e-01	-5.8025	-37.544115	0.000303	3.030785	1.026858	-0.024199
1148	5.7350e-01	-5.8362	-37.774002	0.000576	5.758491	1.951029	-0.045977
1149	5.7400e-01	-5.8795	-38.007921	0.000586	5.859517	1.985258	-0.046784
1150	5.7450e-01	-5.9228	-38.431397	0.001061	10.607746	3.594002	-0.084695
1151	5.7500e-01	-5.9517	-38.689515	0.000647	6.465674	2.190630	-0.051624
1152	5.7550e-01	-5.9982	-38.866971	0.000445	4.445151	1.506058	-0.035491
1153	5.7600e-01	-6.0431	-38.987964	0.000303	3.030785	1.026858	-0.024199
1154	5.7650e-01	-6.0752	-39.326744	0.000849	8.486197	2.875201	-0.067756
1155	5.7700e-01	-6.1153	-39.560664	0.000586	5.859517	1.985258	-0.046784
1156	5.7750e-01	-6.1683	-40.036570	0.001192	11.921086	4.038973	-0.095181
1157	5.7800e-01	-6.2004	-40.052702	0.000040	0.404105	0.136914	-0.003226
1158	5.7850e-01	-6.2421	-40.097066	0.000111	1.111288	0.376514	-0.008873
1159	5.7900e-01	-6.2790	-40.532641	0.001091	10.910824	3.696687	-0.087115
1160	5.7950e-01	-6.3046	-40.778660	0.000616	6.162595	2.087944	-0.049204
1161	5.8000e-01	-6.3592	-41.065010	0.000717	7.172857	2.430230	-0.057270
1162	5.8050e-01	-6.4025	-41.339261	0.000687	6.869778	2.327544	-0.054850
1163	5.8100e-01	-6.4378	-41.891795	0.001384	13.840583	4.689316	-0.110507
1164	5.8150e-01	-6.4811	-41.835332	-0.000141	-1.414366	-0.479200	0.011293
1165	5.8200e-01	-6.5164	-42.008755	0.000434	4.344124	1.471829	-0.034685
1166	5.8250e-01	-6.5501	-42.379800	0.000929	9.294406	3.149030	-0.074209
1167	5.8300e-01	-6.5982	-42.561290	0.000455	4.546177	1.540286	-0.036298
1168	5.8350e-01	-6.6399	-42.758911	0.000495	4.950281	1.677201	-0.039524
1169	5.8400e-01	-6.6800	-43.053328	0.000737	7.374909	2.498687	-0.058883
1170	5.8450e-01	-6.7201	-43.428406	0.000940	9.395432	3.183259	-0.075016
1171	5.8500e-01	-6.7650	-43.509068	0.000202	2.020523	0.684572	-0.016132
1172	5.8550e-01	-6.8019	-43.747021	0.000596	5.960543	2.019487	-0.047591
1173	5.8600e-01	-6.8356	-43.989006	0.000606	6.061569	2.053715	-0.048397
1174	5.8650e-01	-6.8822	-44.287456	0.000748	7.475935	2.532915	-0.059690
1175	5.8700e-01	-6.9110	-44.412482	0.000313	3.131811	1.061086	-0.025005
1176	5.8750e-01	-6.9592	-44.831924	0.001051	10.506720	3.559773	-0.083888
1177	5.8800e-01	-6.9993	-45.009380	0.000445	4.445151	1.506058	-0.035491
1178	5.8850e-01	-7.0297	-45.279598	0.000677	6.768752	2.293315	-0.054044
1179	5.8900e-01	-7.0875	-45.396558	0.000293	2.929758	0.992629	-0.023392
1180	5.8950e-01	-7.1132	-45.811967	0.001041	10.405694	3.525544	-0.083082
1181	5.9000e-01	-7.1613	-45.977324	0.000414	4.142072	1.403372	-0.033071
1182	5.9050e-01	-7.2014	-46.255608	0.000697	6.970804	2.361772	-0.055657
1183	5.9100e-01	-7.2383	-46.594388	0.000849	8.486197	2.875201	-0.067756
1184	5.9150e-01	-7.2816	-46.832341	0.000596	5.960543	2.019487	-0.047591
1185	5.9200e-01	-7.3185	-47.078360	0.000616	6.162595	2.087944	-0.049204
1186	5.9250e-01	-7.3554	-47.328412	0.000626	6.263621	2.122172	-0.050010
1187	5.9300e-01	-7.4003	-47.332445	0.000010	0.101026	0.034229	-0.000807
1188	5.9350e-01	-7.4292	-47.743821	0.001030	10.304667	3.491316	-0.082275
1189	5.9400e-01	-7.4725	-47.961609	0.000546	5.455412	1.848344	-0.043557
1190	5.9450e-01	-7.5110	-48.296356	0.000839	8.385171	2.840973	-0.066949
1191	5.9500e-01	-7.5607	-48.550441	0.000636	6.364648	2.156401	-0.050817
1192	5.9550e-01	-7.5912	-48.889221	0.000849	8.486197	2.875201	-0.067756
1193	5.9600e-01	-7.6329	-48.905354	0.000040	0.404105	0.136914	-0.003226
1194	5.9650e-01	-7.6843	-49.038446	0.000333	3.333863	1.129543	-0.026618
1195	5.9700e-01	-7.7099	-49.522418	0.001212	12.123138	4.107430	-0.096794
1196	5.9750e-01	-7.7581	-49.877330	0.000889	8.890301	3.012116	-0.070983
1197	5.9800e-01	-7.7950	-50.026555	0.000374	3.737968	1.266458	-0.029845
1198	5.9850e-01	-7.8399	-50.288706	0.000657	6.566700	2.224858	-0.052430
1199	5.9900e-01	-7.8784	-50.518593	0.000576	5.758491	1.951029	-0.045977
1200	5.9950e-01	-7.9137	-50.583123	0.000162	1.616418	0.547657	-0.012906
1201	6.0000e-01	-7.9618	-50.954168	0.000929	9.294406	3.149030	-0.074209
1202	6.0050e-01	-7.9955	-51.216319	0.000657	6.566700	2.224858	-0.052430
1203	6.0100e-01	-8.0420	-51.538967	0.000808	8.082092	2.738287	-0.064530
1204	6.0150e-01	-8.0773	-51.857582	0.000798	7.981066	2.704058	-0.063723
1205	6.0200e-01	-8.1110	-52.156031	0.000748	7.475935	2.532915	-0.059690
1206	6.0250e-01	-8.1511	-52.309289	0.000384	3.838994	1.300686	-0.030652
1207	6.0300e-01	-8.2008	-52.575473	0.000667	6.667726	2.259087	-0.053237
1208	6.0350e-01	-8.2393	-52.785195	0.000525	5.253360	1.779886	-0.041944
1209	6.0400e-01	-8.2778	-52.825525	0.000101	1.010262	0.342286	-0.008066
1210	6.0450e-01	-8.3179	-53.168339	0.000859	8.587223	2.909430	-0.068563
1211	6.0500e-01	-8.3548	-53.353861	0.000465	4.647203	1.574515	-0.037105
1212	6.0550e-01	-8.4062	-53.620046	0.000667	6.667726	2.259087	-0.053237
1213	6.0600e-01	-8.4431	-53.930595	0.000778	7.779014	2.635601	-0.062110
1214	6.0650e-01	-8.4816	-54.091918	0.000404	4.041046	1.369143	-0.032265
1215	6.0700e-01	-8.5201	-54.309706	0.000546	5.455412	1.848344	-0.043557
1216	6.0750e-01	-8.5538	-54.466997	0.000394	3.940020	1.334915	-0.031458
1217	6.0800e-01	-8.5875	-54.862240	0.000990	9.900563	3.354401	-0.079049
1218	6.0850e-01	-8.6388	-55.160690	0.000748	7.475935	2.532915	-0.059690
1219	6.0900e-01	-8.6709	-55.322014	0.000404	4.041046	1.369143	-0.032265
1220	6.0950e-01	-8.7158	-55.576099	0.000636	6.364648	2.156401	-0.050817
1221	6.1000e-01	-8.7543	-55.749522	0.000434	4.344124	1.471829	-0.034685
1222	6.1050e-01	-8.7912	-56.132666	0.000960	9.597484	3.251716	-0.076629
1223	6.1100e-01	-8.8361	-56.326255	0.000485	4.849255	1.642972	-0.038718
1224	6.1150e-01	-8.8762	-56.616638	0.000727	7.273883	2.464458	-0.058077
1225	6.1200e-01	-8.9147	-56.786028	0.000424	4.243098	1.437601	-0.033878
1226	6.1250e-01	-8.9661	-56.963485	0.000445	4.445151	1.506058	-0.035491
1227	6.1300e-01	-8.9997	-57.322430	0.000899	8.991327	3.046344	-0.071789
1228	6.1350e-01	-9.0431	-57.637012	0.000788	7.880040	2.669830	-0.062916
1229	6.1400e-01	-9.0703	-57.818502	0.000455	4.546177	1.540286	-0.036298
1230	6.1450e-01	-9.1136	-58.040322	0.000556	5.556438	1.882572	-0.044364
1231	6.1500e-01	-9.1586	-58.439599	0.001000	10.001589	3.388630	-0.079855
1232	6.1550e-01	-9.2019	-58.463797	0.000061	0.606157	0.205372	-0.004840
1233	6.1600e-01	-9.2356	-58.544459	0.000202	2.020523	0.684572	-0.016132
1234	6.1650e-01	-9.2741	-58.794511	0.000626	6.263621	2.122172	-0.050010
1235	6.1700e-01	-9.3158	-59.419642	0.001566	15.659053	5.305431	-0.125026
1236	6.1750e-01	-9.3414	-59.621297	0.000505	5.051308	1.711429	-0.040331
1237	6.1800e-01	-9.4040	-59.794720	0.000434	4.344124	1.471829	-0.034685
1238	6.1850e-01	-9.4313	-60.077037	0.000707	7.071831	2.396001	-0.056463
1239	6.1900e-01	-9.4762	-60.173831	0.000242	2.424628	0.821486	-0.019359
1240	6.1950e-01	-9.5179	-60.282725	0.000273	2.727706	0.924172	-0.021779
1241	6.2000e-01	-9.5692	-60.625538	0.000859	8.587223	2.909430	-0.068563
1242	6.2050e-01	-9.5933	-61.008683	0.000960	9.597484	3.251716	-0.076629
1243	6.2100e-01	-9.6446	-61.278900	0.000677	6.768752	2.293315	-0.054044
1244	6.2150e-01	-9.6783	-61.323264	0.000111	1.111288	0.376514	-0.008873
1245	6.2200e-01	-9.7184	-61.601548	0.000697	6.970804	2.361772	-0.055657
1246	6.2250e-01	-9.7585	-61.843534	0.000606	6.061569	2.053715	-0.048397
1247	6.2300e-01	-9.8067	-62.158116	0.000788	7.880040	2.669830	-0.062916
1248	6.2350e-01	-9.8323	-62.371870	0.000535	5.354386	1.814115	-0.042751
1249	6.2400e-01	-9.8773	-62.573525	0.000505	5.051308	1.711429	-0.040331
1250	6.2450e-01	-9.9190	-62.843742	0.000677	6.768752	2.293315	-0.054044
1251	6.2500e-01	-9.9543	-63.069596	0.000566	5.657464	1.916801	-0.045171
1252	6.2550e-01	-10.0056	-63.186556	0.000293	2.929758	0.992629	-0.023392
1253	6.2600e-01	-10.0361	-63.553568	0.000919	9.193380	3.114801	-0.073402
1254	6.2650e-01	-10.0794	-63.682627	0.000323	3.232837	1.095315	-0.025812
1255	6.2700e-01	-10.1211	-63.884282	0.000505	5.051308	1.711429	-0.040331
1256	6.2750e-01	-10.1500	-64.118202	0.000586	5.859517	1.985258	-0.046784
1257	6.2800e-01	-10.1965	-64.283559	0.000414	4.142072	1.403372	-0.033071
1258	6.2850e-01	-10.2334	-64.662670	0.000950	9.496458	3.217487	-0.075822
1259	6.2900e-01	-10.2719	-64.868358	0.000515	5.152334	1.745658	-0.041138
1260	6.2950e-01	-10.3152	-65.090178	0.000556	5.556438	1.882572	-0.044364
1261	6.3000e-01	-10.3633	-65.211171	0.000303	3.030785	1.026858	-0.024199
1262	6.3050e-01	-10.3954	-65.703209	0.001233	12.325190	4.175888	-0.098408
1263	6.3100e-01	-10.4339	-65.997626	0.000737	7.374909	2.498687	-0.058883
1264	6.3150e-01	-10.4821	-66.033923	0.000091	0.909235	0.308057	-0.007260
1265	6.3200e-01	-10.5222	-66.255744	0.000556	5.556438	1.882572	-0.044364
1266	6.3250e-01	-10.5575	-66.538061	0.000707	7.071831	2.396001	-0.056463
1267	6.3300e-01	-10.6024	-66.771980	0.000586	5.859517	1.985258	-0.046784
1268	6.3350e-01	-10.6377	-67.094628	0.000808	8.082092	2.738287	-0.064530
1269	6.3400e-01	-10.6810	-67.445508	0.000879	8.789275	2.977887	-0.070176
1270	6.3450e-01	-10.7179	-67.614898	0.000424	4.243098	1.437601	-0.033878
1271	6.3500e-01	-10.7644	-67.921414	0.000768	7.677987	2.601373	-0.061303
1272	6.3550e-01	-10.7965	-68.094837	0.000434	4.344124	1.471829	-0.034685
1273	6.3600e-01	-10.8382	-68.147267	0.000131	1.313340	0.444972	-0.010486
1274	6.3650e-01	-10.8783	-68.594941	0.001121	11.213903	3.799373	-0.089535
1275	6.3700e-01	-10.9184	-68.639305	0.000111	1.111288	0.376514	-0.008873
1276	6.3750e-01	-10.9553	-68.974052	0.000839	8.385171	2.840973	-0.066949
1277	6.3800e-01	-10.9922	-69.034549	0.000152	1.515392	0.513429	-0.012099
1278	6.3850e-01	-11.0403	-69.349130	0.000788	7.880040	2.669830	-0.062916
1279	6.3900e-01	-11.0836	-69.538686	0.000475	4.748229	1.608744	-0.037911
1280	6.3950e-01	-11.1109	-69.970228	0.001081	10.809798	3.662459	-0.086308
1281	6.4000e-01	-11.1574	-70.244478	0.000687	6.869778	2.327544	-0.054850
1282	6.4050e-01	-11.1943	-70.365471	0.000303	3.030785	1.026858	-0.024199
1283	6.4100e-01	-11.2344	-70.599391	0.000586	5.859517	1.985258	-0.046784
1284	6.4150e-01	-11.2745	-70.857509	0.000647	6.465674	2.190630	-0.051624
1285	6.4200e-01	-11.3147	-71.208389	0.000879	8.789275	2.977887	-0.070176
1286	6.4250e-01	-11.3548	-71.365680	0.000394	3.940020	1.334915	-0.031458
1287	6.4300e-01	-11.3997	-71.341481	-0.000061	-0.606157	-0.205372	0.004840
1288	6.4350e-01	-11.4398	-71.643964	0.000758	7.576961	2.567144	-0.060496
1289	6.4400e-01	-11.4767	-71.994843	0.000879	8.789275	2.977887	-0.070176
1290	6.4450e-01	-11.5216	-72.353789	0.000899	8.991327	3.046344	-0.071789
1291	6.4500e-01	-11.5617	-72.398153	0.000111	1.111288	0.376514	-0.008873
1292	6.4550e-01	-11.6018	-72.615940	0.000546	5.455412	1.848344	-0.043557
1293	6.4600e-01	-11.6387	-72.813562	0.000495	4.950281	1.677201	-0.039524
1294	6.4650e-01	-11.6804	-73.160409	0.000869	8.688249	2.943658	-0.069369
1295	6.4700e-01	-11.7221	-73.329799	0.000424	4.243098	1.437601	-0.033878
1296	6.4750e-01	-11.7526	-73.547586	0.000546	5.455412	1.848344	-0.043557
1297	6.4800e-01	-11.8007	-73.821837	0.000687	6.869778	2.327544	-0.054850
1298	6.4850e-01	-11.8360	-73.954929	0.000333	3.333863	1.129543	-0.026618
1299	6.4900e-01	-11.8777	-74.305809	0.000879	8.789275	2.977887	-0.070176
1300	6.4950e-01	-11.9211	-74.285643	-0.000051	-0.505131	-0.171143	0.004033
1301	6.5000e-01	-11.9531	-74.709119	0.001061	10.607746	3.594002	-0.084695
1302	6.5050e-01	-11.9900	-74.870442	0.000404	4.041046	1.369143	-0.032265
1303	6.5100e-01	-12.0366	-75.176958	0.000768	7.677987	2.601373	-0.061303
1304	6.5150e-01	-12.0783	-75.556069	0.000950	9.496458	3.217487	-0.075822
1305	6.5200e-01	-12.1168	-75.729492	0.000434	4.344124	1.471829	-0.034685
1306	6.5250e-01	-12.1601	-76.027942	0.000748	7.475935	2.532915	-0.059690
1307	6.5300e-01	-12.1986	-76.193299	0.000414	4.142072	1.403372	-0.033071
1308	6.5350e-01	-12.2323	-76.261861	0.000172	1.717445	0.581886	-0.013713
1309	6.5400e-01	-12.2836	-76.499814	0.000596	5.960543	2.019487	-0.047591
1310	6.5450e-01	-12.3237	-76.697436	0.000495	4.950281	1.677201	-0.039524
1311	6.5500e-01	-12.3558	-76.866826	0.000424	4.243098	1.437601	-0.033878
1312	6.5550e-01	-12.4071	-77.120911	0.000636	6.364648	2.156401	-0.050817
1313	6.5600e-01	-12.4376	-77.254004	0.000333	3.333863	1.129543	-0.026618
1314	6.5650e-01	-12.4761	-77.846869	0.001485	14.850844	5.031602	-0.118573
1315	6.5700e-01	-12.5178	-78.084822	0.000596	5.960543	2.019487	-0.047591
1316	6.5750e-01	-12.5579	-78.189683	0.000263	2.626680	0.889943	-0.020972
1317	6.5800e-01	-12.5964	-78.467966	0.000697	6.970804	2.361772	-0.055657
1318	6.5850e-01	-12.6365	-78.830945	0.000909	9.092354	3.080573	-0.072596
1319	6.5900e-01	-12.6815	-78.855144	0.000061	0.606157	0.205372	-0.004840
1320	6.5950e-01	-12.7216	-79.165692	0.000778	7.779014	2.635601	-0.062110
1321	6.6000e-01	-12.7633	-79.270553	0.000263	2.626680	0.889943	-0.020972
1322	6.6050e-01	-12.7970	-79.698061	0.001071	10.708772	3.628230	-0.085502
1323	6.6100e-01	-12.8355	-79.907783	0.000525	5.253360	1.779886	-0.041944
1324	6.6150e-01	-12.8868	-80.226397	0.000798	7.981066	2.704058	-0.063723
1325	6.6200e-01	-12.9109	-80.290927	0.000162	1.616418	0.547657	-0.012906
1326	6.6250e-01	-12.9574	-80.351423	0.000152	1.515392	0.513429	-0.012099
1327	6.6300e-01	-12.9991	-80.569211	0.000546	5.455412	1.848344	-0.043557
1328	6.6350e-01	-13.0408	-80.988653	0.001051	10.506720	3.559773	-0.083888
1329	6.6400e-01	-13.0745	-81.028984	0.000101	1.010262	0.342286	-0.008066
1330	6.6450e-01	-13.1130	-81.351632	0.000808	8.082092	2.738287	-0.064530
1331	6.6500e-01	-13.1611	-81.569419	0.000546	5.455412	1.848344	-0.043557
1332	6.6550e-01	-13.1948	-81.775107	0.000515	5.152334	1.745658	-0.041138
1333	6.6600e-01	-13.2333	-82.113888	0.000849	8.486197	2.875201	-0.067756
1334	6.6650e-01	-13.2750	-82.089689	-0.000061	-0.606157	-0.205372	0.004840
1335	6.6700e-01	-13.3167	-82.351840	0.000657	6.566700	2.224858	-0.052430
1336	6.6750e-01	-13.3681	-82.376039	0.000061	0.606157	0.205372	-0.004840
1337	6.6800e-01	-13.4002	-82.714819	0.000849	8.486197	2.875201	-0.067756
1338	6.6850e-01	-13.4306	-83.101997	0.000970	9.698510	3.285944	-0.077435
1339	6.6900e-01	-13.4756	-83.178626	0.000192	1.919497	0.650343	-0.015326
1340	6.6950e-01	-13.5157	-83.682763	0.001263	12.628269	4.278573	-0.100827
1341	6.7000e-01	-13.5526	-83.844087	0.000404	4.041046	1.369143	-0.032265
1342	6.7050e-01	-13.5991	-83.928782	0.000212	2.121549	0.718800	-0.016939
1343	6.7100e-01	-13.6376	-84.283695	0.000889	8.890301	3.012116	-0.070983
1344	6.7150e-01	-13.6825	-84.517614	0.000586	5.859517	1.985258	-0.046784
1345	6.7200e-01	-13.7226	-84.586177	0.000172	1.717445	0.581886	-0.013713
1346	6.7250e-01	-13.7643	-84.908825	0.000808	8.082092	2.738287	-0.064530
1347	6.7300e-01	-13.8028	-85.009652	0.000253	2.525654	0.855715	-0.020165
1348	6.7350e-01	-13.8397	-85.384731	0.000940	9.395432	3.183259	-0.075016
1349	6.7400e-01	-13.8782	-85.771908	0.000970	9.698510	3.285944	-0.077435
1350	6.7450e-01	-13.9087	-86.046159	0.000687	6.869778	2.327544	-0.054850
1351	6.7500e-01	-13.9648	-85.985662	-0.000152	-1.515392	-0.513429	0.012099
1352	6.7550e-01	-14.0033	-86.118754	0.000333	3.333863	1.129543	-0.026618
1353	6.7600e-01	-14.0418	-86.207483	0.000222	2.222575	0.753029	-0.017746
1354	6.7650e-01	-14.0787	-86.707587	0.001253	12.527243	4.244345	-0.100021
1355	6.7700e-01	-14.1317	-86.913275	0.000515	5.152334	1.745658	-0.041138
1356	6.7750e-01	-14.1702	-87.131062	0.000546	5.455412	1.848344	-0.043557
1357	6.7800e-01	-14.2023	-87.481942	0.000879	8.789275	2.977887	-0.070176
1358	6.7850e-01	-14.2328	-87.647299	0.000414	4.142072	1.403372	-0.033071
1359	6.7900e-01	-14.2825	-87.655365	0.000020	0.202052	0.068457	-0.001613
1360	6.7950e-01	-14.3178	-88.002212	0.000869	8.688249	2.943658	-0.069369
1361	6.8000e-01	-14.3611	-88.211933	0.000525	5.253360	1.779886	-0.041944
1362	6.8050e-01	-14.3980	-88.312760	0.000253	2.525654	0.855715	-0.020165
1363	6.8100e-01	-14.4381	-88.893526	0.001455	14.547766	4.928916	-0.116153
1364	6.8150e-01	-14.4750	-89.038718	0.000364	3.636941	1.232229	-0.029038
1365	6.8200e-01	-14.5231	-89.095181	0.000141	1.414366	0.479200	-0.011293
1366	6.8250e-01	-14.5552	-89.292803	0.000495	4.950281	1.677201	-0.039524
1367	6.8300e-01	-14.5969	-89.506557	0.000535	5.354386	1.814115	-0.042751
1368	6.8350e-01	-14.6386	-89.829205	0.000808	8.082092	2.738287	-0.064530
1369	6.8400e-01	-14.6771	-89.942132	0.000283	2.828732	0.958400	-0.022585
1370	6.8450e-01	-14.7140	-90.042959	0.000253	2.525654	0.855715	-0.020165
1371	6.8500e-01	-14.7557	-90.506766	0.001162	11.618007	3.936287	-0.092761
1372	6.8550e-01	-14.7942	-90.655990	0.000374	3.737968	1.266458	-0.029845
1373	6.8600e-01	-14.8408	-90.926208	0.000677	6.768752	2.293315	-0.054044
1374	6.8650e-01	-14.8728	-91.196426	0.000677	6.768752	2.293315	-0.054044
1375	6.8700e-01	-14.9210	-91.208525	0.000030	0.303078	0.102686	-0.002420
1376	6.8750e-01	-14.9675	-91.474709	0.000667	6.667726	2.259087	-0.053237
1377	6.8800e-01	-14.9980	-91.607802	0.000333	3.333863	1.129543	-0.026618
1378	6.8850e-01	-15.0365	-91.930450	0.000808	8.082092	2.738287	-0.064530
1379	6.8900e-01	-15.0734	-92.236965	0.000768	7.677987	2.601373	-0.061303
1380	6.8950e-01	-15.1135	-92.531381	0.000737	7.374909	2.498687	-0.058883
1381	6.9000e-01	-15.1536	-92.696738	0.000414	4.142072	1.403372	-0.033071
1382	6.9050e-01	-15.2033	-92.841930	0.000364	3.636941	1.232229	-0.029038
1383	6.9100e-01	-15.2482	-92.930658	0.000222	2.222575	0.753029	-0.017746
1384	6.9150e-01	-15.2755	-93.152478	0.000556	5.556438	1.882572	-0.044364
1385	6.9200e-01	-15.3172	-93.700980	0.001374	13.739557	4.655088	-0.109700
1386	6.9250e-01	-15.3509	-93.870370	0.000424	4.243098	1.437601	-0.033878
1387	6.9300e-01	-15.4006	-93.955065	0.000212	2.121549	0.718800	-0.016939
1388	6.9350e-01	-15.4456	-94.055893	0.000253	2.525654	0.855715	-0.020165
1389	6.9400e-01	-15.4792	-94.277713	0.000556	5.556438	1.882572	-0.044364
1390	6.9450e-01	-15.5193	-94.459202	0.000455	4.546177	1.540286	-0.036298
1391	6.9500e-01	-15.5659	-94.802016	0.000859	8.587223	2.909430	-0.068563
1392	6.9550e-01	-15.6060	-95.108531	0.000768	7.677987	2.601373	-0.061303
1393	6.9600e-01	-15.6429	-95.326319	0.000546	5.455412	1.848344	-0.043557
1394	6.9650e-01	-15.6782	-95.463444	0.000343	3.434889	1.163772	-0.027425
1395	6.9700e-01	-15.7103	-95.786092	0.000808	8.082092	2.738287	-0.064530
1396	6.9750e-01	-15.7600	-95.919184	0.000333	3.333863	1.129543	-0.026618
1397	6.9800e-01	-15.8017	-96.024045	0.000263	2.626680	0.889943	-0.020972
1398	6.9850e-01	-15.8466	-96.237799	0.000535	5.354386	1.814115	-0.042751
1399	6.9900e-01	-15.8771	-96.350726	0.000283	2.828732	0.958400	-0.022585
1400	6.9950e-01	-15.9188	-96.866962	0.001293	12.931347	4.381259	-0.103247
1401	7.0000e-01	-15.9573	-97.117014	0.000626	6.263621	2.122172	-0.050010
1402	7.0050e-01	-15.9990	-97.258173	0.000354	3.535915	1.198001	-0.028232
1403	7.0100e-01	-16.0359	-97.556622	0.000748	7.475935	2.532915	-0.059690
1404	7.0150e-01	-16.0728	-97.693747	0.000343	3.434889	1.163772	-0.027425
1405	7.0200e-01	-16.1177	-97.972031	0.000697	6.970804	2.361772	-0.055657
1406	7.0250e-01	-16.1626	-98.080925	0.000273	2.727706	0.924172	-0.021779
1407	7.0300e-01	-16.1979	-98.177719	0.000242	2.424628	0.821486	-0.019359
1408	7.0350e-01	-16.2316	-98.560864	0.000960	9.597484	3.251716	-0.076629
1409	7.0400e-01	-16.2765	-98.851247	0.000727	7.273883	2.464458	-0.058077
1410	7.0450e-01	-16.3199	-98.855280	0.000010	0.101026	0.034229	-0.000807
1411	7.0500e-01	-16.3648	-99.206159	0.000879	8.789275	2.977887	-0.070176
1412	7.0550e-01	-16.3969	-99.355384	0.000374	3.737968	1.266458	-0.029845
1413	7.0600e-01	-16.4386	-99.754661	0.001000	10.001589	3.388630	-0.079855
1414	7.0650e-01	-16.4771	-99.730462	-0.000061	-0.606157	-0.205372	0.004840
1415	7.0700e-01	-16.5188	-99.794992	0.000162	1.616418	0.547657	-0.012906
1416	7.0750e-01	-16.5573	-100.210401	0.001041	10.405694	3.525544	-0.083082
1417	7.0800e-01	-16.5974	-100.395924	0.000465	4.647203	1.574515	-0.037105
1418	7.0850e-01	-16.6471	-100.625810	0.000576	5.758491	1.951029	-0.045977
1419	7.0900e-01	-16.6856	-100.887962	0.000657	6.566700	2.224858	-0.052430
1420	7.0950e-01	-16.7177	-101.077517	0.000475	4.748229	1.608744	-0.037911
1421	7.1000e-01	-16.7658	-101.303371	0.000566	5.657464	1.916801	-0.045171
1422	7.1050e-01	-16.7963	-101.509059	0.000515	5.152334	1.745658	-0.041138
1423	7.1100e-01	-16.8332	-101.626019	0.000293	2.929758	0.992629	-0.023392
1424	7.1150e-01	-16.8717	-101.872038	0.000616	6.162595	2.087944	-0.049204
1425	7.1200e-01	-16.9198	-102.162421	0.000727	7.273883	2.464458	-0.058077
1426	7.1250e-01	-16.9583	-102.380208	0.000546	5.455412	1.848344	-0.043557
1427	7.1300e-01	-17.0001	-102.222917	-0.000394	-3.940020	-1.334915	0.031458
1428	7.1350e-01	-17.0402	-102.618161	0.000990	9.900563	3.354401	-0.079049
1429	7.1400e-01	-17.0755	-103.033570	0.001041	10.405694	3.525544	-0.083082
1430	7.1450e-01	-17.1252	-103.073901	0.000101	1.010262	0.342286	-0.008066
1431	7.1500e-01	-17.1637	-103.521575	0.001121	11.213903	3.799373	-0.089535
1432	7.1550e-01	-17.2038	-103.686932	0.000414	4.142072	1.403372	-0.033071
1433	7.1600e-01	-17.2439	-103.836157	0.000374	3.737968	1.266458	-0.029845
1434	7.1650e-01	-17.2856	-104.041845	0.000515	5.152334	1.745658	-0.041138
1435	7.1700e-01	-17.3193	-104.360459	0.000798	7.981066	2.704058	-0.063723
1436	7.1750e-01	-17.3562	-104.453221	0.000232	2.323601	0.787257	-0.018552
1437	7.1800e-01	-17.3867	-104.800067	0.000869	8.688249	2.943658	-0.069369
1438	7.1850e-01	-17.4348	-104.969457	0.000424	4.243098	1.437601	-0.033878
1439	7.1900e-01	-17.4797	-105.150947	0.000455	4.546177	1.540286	-0.036298
1440	7.1950e-01	-17.5214	-105.388900	0.000596	5.960543	2.019487	-0.047591
1441	7.2000e-01	-17.5567	-105.562323	0.000434	4.344124	1.471829	-0.034685
1442	7.2050e-01	-17.6113	-105.739779	0.000445	4.445151	1.506058	-0.035491
1443	7.2100e-01	-17.6417	-105.921269	0.000455	4.546177	1.540286	-0.036298
1444	7.2150e-01	-17.6754	-106.070493	0.000374	3.737968	1.266458	-0.029845
1445	7.2200e-01	-17.7155	-106.288281	0.000546	5.455412	1.848344	-0.043557
1446	7.2250e-01	-17.7540	-106.860981	0.001435	14.345713	4.860459	-0.114540
1447	7.2300e-01	-17.7974	-106.965841	0.000263	2.626680	0.889943	-0.020972
1448	7.2350e-01	-17.8310	-107.119099	0.000384	3.838994	1.300686	-0.030652
1449	7.2400e-01	-17.8824	-107.328820	0.000525	5.253360	1.779886	-0.041944
1450	7.2450e-01	-17.9193	-107.486111	0.000394	3.940020	1.334915	-0.031458
1451	7.2500e-01	-17.9626	-107.619203	0.000333	3.333863	1.129543	-0.026618
1452	7.2550e-01	-17.9947	-107.877321	0.000647	6.465674	2.190630	-0.051624
1453	7.2600e-01	-18.0348	-108.183837	0.000768	7.677987	2.601373	-0.061303
1454	7.2650e-01	-18.0861	-108.320962	0.000343	3.434889	1.163772	-0.027425
1455	7.2700e-01	-18.1166	-108.554882	0.000586	5.859517	1.985258	-0.046784
1456	7.2750e-01	-18.1631	-108.679908	0.000313	3.131811	1.061086	-0.025005
1457	7.2800e-01	-18.2064	-108.905762	0.000566	5.657464	1.916801	-0.045171
1458	7.2850e-01	-18.2417	-109.240509	0.000839	8.385171	2.840973	-0.066949
1459	7.2900e-01	-18.2818	-109.595421	0.000889	8.890301	3.012116	-0.070983
1460	7.2950e-01	-18.3155	-109.526859	-0.000172	-1.717445	-0.581886	0.013713
1461	7.3000e-01	-18.3540	-109.615587	0.000222	2.222575	0.753029	-0.017746
1462	7.3050e-01	-18.3989	-109.881771	0.000667	6.667726	2.259087	-0.053237
1463	7.3100e-01	-18.4407	-110.176188	0.000737	7.374909	2.498687	-0.058883
1464	7.3150e-01	-18.4792	-110.639994	0.001162	11.618007	3.936287	-0.092761
1465	7.3200e-01	-18.5128	-110.962642	0.000808	8.082092	2.738287	-0.064530
1466	7.3250e-01	-18.5594	-110.898112	-0.000162	-1.616418	-0.547657	0.012906
1467	7.3300e-01	-18.6011	-111.232859	0.000839	8.385171	2.840973	-0.066949
1468	7.3350e-01	-18.6348	-111.398216	0.000414	4.142072	1.403372	-0.033071
1469	7.3400e-01	-18.6861	-111.478878	0.000202	2.020523	0.684572	-0.016132
1470	7.3450e-01	-18.7294	-111.809593	0.000828	8.284144	2.806744	-0.066143
1471	7.3500e-01	-18.7535	-112.156439	0.000869	8.688249	2.943658	-0.069369
1472	7.3550e-01	-18.7952	-112.378259	0.000556	5.556438	1.882572	-0.044364
1473	7.3600e-01	-18.8433	-112.337928	-0.000101	-1.010262	-0.342286	0.008066
1474	7.3650e-01	-18.8706	-112.906595	0.001424	14.244687	4.826231	-0.113733
1475	7.3700e-01	-18.9251	-113.019522	0.000283	2.828732	0.958400	-0.022585
1476	7.3750e-01	-18.9588	-113.330071	0.000778	7.779014	2.635601	-0.062110
1477	7.3800e-01	-18.9957	-113.475262	0.000364	3.636941	1.232229	-0.029038
1478	7.3850e-01	-19.0438	-113.660785	0.000465	4.647203	1.574515	-0.037105
1479	7.3900e-01	-19.0807	-113.902771	0.000606	6.061569	2.053715	-0.048397
1480	7.3950e-01	-19.1144	-114.051995	0.000374	3.737968	1.266458	-0.029845
1481	7.4000e-01	-19.1545	-114.233485	0.000455	4.546177	1.540286	-0.036298
1482	7.4050e-01	-19.2011	-114.660993	0.001071	10.708772	3.628230	-0.085502
1483	7.4100e-01	-19.2380	-114.810218	0.000374	3.737968	1.266458	-0.029845
1484	7.4150e-01	-19.2781	-114.911045	0.000253	2.525654	0.855715	-0.020165
1485	7.4200e-01	-19.3246	-115.503911	0.001485	14.850844	5.031602	-0.118573
1486	7.4250e-01	-19.3567	-115.641036	0.000343	3.434889	1.163772	-0.027425
1487	7.4300e-01	-19.3984	-115.507944	-0.000333	-3.333863	-1.129543	0.026618
1488	7.4350e-01	-19.4465	-115.786228	0.000697	6.970804	2.361772	-0.055657
1489	7.4400e-01	-19.4834	-116.004015	0.000546	5.455412	1.848344	-0.043557
1490	7.4450e-01	-19.5123	-116.310531	0.000768	7.677987	2.601373	-0.061303
1491	7.4500e-01	-19.5572	-116.504119	0.000485	4.849255	1.642972	-0.038718
1492	7.4550e-01	-19.5957	-116.689642	0.000465	4.647203	1.574515	-0.037105
1493	7.4600e-01	-19.6326	-116.879197	0.000475	4.748229	1.608744	-0.037911
1494	7.4650e-01	-19.6695	-117.181680	0.000758	7.576961	2.567144	-0.060496
1495	7.4700e-01	-19.7144	-117.403500	0.000556	5.556438	1.882572	-0.044364
1496	7.4750e-01	-19.7481	-117.528526	0.000313	3.131811	1.061086	-0.025005
1497	7.4800e-01	-19.8043	-117.960068	0.001081	10.809798	3.662459	-0.086308
1498	7.4850e-01	-19.8363	-118.230286	0.000677	6.768752	2.293315	-0.054044
1499	7.4900e-01	-19.8797	-118.310947	0.000202	2.020523	0.684572	-0.016132
1500	7.4950e-01	-19.9246	-118.431940	0.000303	3.030785	1.026858	-0.024199
1501	7.5000e-01	-19.9599	-118.665860	0.000586	5.859517	1.985258	-0.046784
1502	7.5050e-01	-19.9583	-118.823151	-0.000394	-3.940020	-1.334915	-0.031458
1503	7.5100e-01	-19.9390	-118.988508	-0.000414	-4.142072	-1.403372	-0.033071
1504	7.5150e-01	-19.8925	-118.686026	0.000758	7.576961	2.567144	0.060496
1505	7.5200e-01	-19.8604	-118.448073	0.000596	5.960543	2.019487	0.047591
1506	7.5250e-01	-19.8235	-118.508569	-0.000152	-1.515392	-0.513429	-0.012099
1507	7.5300e-01	-19.7818	-118.246418	0.000657	6.566700	2.224858	0.052430
1508	7.5350e-01	-19.7417	-118.290782	-0.000111	-1.111288	-0.376514	-0.008873
1509	7.5400e-01	-19.6920	-118.048796	0.000606	6.061569	2.053715	0.048397
1510	7.5450e-01	-19.6631	-117.943936	0.000263	2.626680	0.889943	0.020972
1511	7.5500e-01	-19.6198	-117.746314	0.000495	4.950281	1.677201	0.039524
1512	7.5550e-01	-19.5845	-117.750347	-0.000010	-0.101026	-0.034229	-0.000807
1513	7.5600e-01	-19.5412	-117.427699	0.000808	8.082092	2.738287	0.064530
1514	7.5650e-01	-19.4962	-117.294607	0.000333	3.333863	1.129543	0.026618
1515	7.5700e-01	-19.4497	-117.230077	0.000162	1.616418	0.547657	0.012906
1516	7.5750e-01	-19.4224	-117.004224	0.000566	5.657464	1.916801	0.045171
1517	7.5800e-01	-19.3807	-116.975992	0.000071	0.707183	0.239600	0.005646
1518	7.5850e-01	-19.3358	-116.560583	0.001041	10.405694	3.525544	0.083082
1519	7.5900e-01	-19.2973	-116.742072	-0.000455	-4.546177	-1.540286	-0.036298
1520	7.5950e-01	-19.2620	-116.512186	0.000576	5.758491	1.951029	0.045977
1521	7.6000e-01	-19.2203	-116.443623	0.000172	1.717445	0.581886	0.013713
1522	7.6050e-01	-19.1770	-116.366994	0.000192	1.919497	0.650343	0.015326
1523	7.6100e-01	-19.1401	-116.213736	0.000384	3.838994	1.300686	0.030652
1524	7.6150e-01	-19.1000	-115.951585	0.000657	6.566700	2.224858	0.052430
1525	7.6200e-01	-19.0551	-115.721698	0.000576	5.758491	1.951029	0.045977
1526	7.6250e-01	-19.0230	-115.624904	0.000242	2.424628	0.821486	0.019359
1527	7.6300e-01	-18.9717	-115.596672	0.000071	0.707183	0.239600	0.005646
1528	7.6350e-01	-18.9348	-115.556341	0.000101	1.010262	0.342286	0.008066
1529	7.6400e-01	-18.8979	-115.213528	0.000859	8.587223	2.909430	0.068563
1530	7.6450e-01	-18.8594	-115.165131	0.000121	1.212314	0.410743	0.009679
1531	7.6500e-01	-18.8209	-114.882814	0.000707	7.071831	2.396001	0.056463
1532	7.6550e-01	-18.7904	-114.814251	0.000172	1.717445	0.581886	0.013713
1533	7.6600e-01	-18.7455	-114.568232	0.000616	6.162595	2.087944	0.049204
1534	7.6650e-01	-18.7054	-114.507736	0.000152	1.515392	0.513429	0.012099
1535	7.6700e-01	-18.6604	-114.402875	0.000263	2.626680	0.889943	0.020972
1536	7.6750e-01	-18.6284	-114.104426	0.000748	7.475935	2.532915	0.059690
1537	7.6800e-01	-18.5786	-113.793877	0.000778	7.779014	2.635601	0.062110
1538	7.6850e-01	-18.5353	-113.878572	-0.000212	-2.121549	-0.718800	-0.016939
1539	7.6900e-01	-18.4968	-113.725314	0.000384	3.838994	1.300686	0.030652
1540	7.6950e-01	-18.4599	-113.539792	0.000465	4.647203	1.574515	0.037105
1541	7.7000e-01	-18.4214	-113.382501	0.000394	3.940020	1.334915	0.031458
1542	7.7050e-01	-18.3765	-113.301839	0.000202	2.020523	0.684572	0.016132
1543	7.7100e-01	-18.3396	-113.132449	0.000424	4.243098	1.437601	0.033878
1544	7.7150e-01	-18.3027	-113.003390	0.000323	3.232837	1.095315	0.025812
1545	7.7200e-01	-18.2530	-112.769470	0.000586	5.859517	1.985258	0.046784
1546	7.7250e-01	-18.2193	-112.583947	0.000465	4.647203	1.574515	0.037105
1547	7.7300e-01	-18.1792	-112.418590	0.000414	4.142072	1.403372	0.033071
1548	7.7350e-01	-18.1391	-112.285498	0.000333	3.333863	1.129543	0.026618
1549	7.7400e-01	-18.1006	-112.067711	0.000546	5.455412	1.848344	0.043557
1550	7.7450e-01	-18.0572	-111.785394	0.000707	7.071831	2.396001	0.056463
1551	7.7500e-01	-18.0171	-111.696666	0.000222	2.222575	0.753029	0.017746
1552	7.7550e-01	-17.9754	-111.486945	0.000525	5.253360	1.779886	0.041944
1553	7.7600e-01	-17.9401	-111.369985	0.000293	2.929758	0.992629	0.023392
1554	7.7650e-01	-17.8984	-111.144131	0.000566	5.657464	1.916801	0.045171
1555	7.7700e-01	-17.8583	-111.067502	0.000192	1.919497	0.650343	0.015326
1556	7.7750e-01	-17.8166	-110.833583	0.000586	5.859517	1.985258	0.046784
1557	7.7800e-01	-17.7781	-110.958609	-0.000313	-3.131811	-1.061086	-0.025005
1558	7.7850e-01	-17.7428	-110.510935	0.001121	11.213903	3.799373	0.089535
1559	7.7900e-01	-17.6995	-110.281048	0.000576	5.758491	1.951029	0.045977
1560	7.7950e-01	-17.6642	-110.293147	-0.000030	-0.303078	-0.102686	-0.002420
1561	7.8000e-01	-17.6273	-110.010831	0.000707	7.071831	2.396001	0.056463
1562	7.8050e-01	-17.5824	-109.889838	0.000303	3.030785	1.026858	0.024199
1563	7.8100e-01	-17.5455	-109.817242	0.000182	1.818471	0.616115	0.014519
1564	7.8150e-01	-17.5006	-109.486528	0.000828	8.284144	2.806744	0.066143
1565	7.8200e-01	-17.4573	-109.301005	0.000465	4.647203	1.574515	0.037105
1566	7.8250e-01	-17.4252	-109.333270	-0.000081	-0.808209	-0.273829	-0.006453
1567	7.8300e-01	-17.3770	-109.167913	0.000414	4.142072	1.403372	0.033071
1568	7.8350e-01	-17.3337	-108.901728	0.000667	6.667726	2.259087	0.053237
1569	7.8400e-01	-17.2984	-108.768636	0.000333	3.333863	1.129543	0.026618
1570	7.8450e-01	-17.2567	-108.542783	0.000566	5.657464	1.916801	0.045171
1571	7.8500e-01	-17.2246	-108.413724	0.000323	3.232837	1.095315	0.025812
1572	7.8550e-01	-17.1829	-108.316929	0.000242	2.424628	0.821486	0.019359
1573	7.8600e-01	-17.1332	-108.103175	0.000535	5.354386	1.814115	0.042751
1574	7.8650e-01	-17.0963	-107.901520	0.000505	5.051308	1.711429	0.040331
1575	7.8700e-01	-17.0658	-107.647435	0.000636	6.364648	2.156401	0.050817
1576	7.8750e-01	-17.0129	-107.558707	0.000222	2.222575	0.753029	0.017746
1577	7.8800e-01	-16.9856	-107.421581	0.000343	3.434889	1.163772	0.027425
1578	7.8850e-01	-16.9439	-107.022305	0.001000	10.001589	3.388630	0.079855
1579	7.8900e-01	-16.8926	-107.022305	0.000000	0.000000	0.000000	0.000000
1580	7.8950e-01	-16.8541	-106.865014	0.000394	3.940020	1.334915	0.031458
1581	7.9000e-01	-16.8236	-106.675458	0.000475	4.748229	1.608744	0.037911
1582	7.9050e-01	-16.7771	-106.510101	0.000414	4.142072	1.403372	0.033071
1583	7.9100e-01	-16.7466	-106.256016	0.000636	6.364648	2.156401	0.050817
1584	7.9150e-01	-16.6969	-106.219718	0.000091	0.909235	0.308057	0.007260
1585	7.9200e-01	-16.6632	-105.921269	0.000748	7.475935	2.532915	0.059690
1586	7.9250e-01	-16.6311	-105.739779	0.000455	4.546177	1.540286	0.036298
1587	7.9300e-01	-16.5749	-105.715581	0.000061	0.606157	0.205372	0.004840
1588	7.9350e-01	-16.5396	-105.312271	0.001010	10.102615	3.422859	0.080662
1589	7.9400e-01	-16.4995	-105.062219	0.000626	6.263621	2.122172	0.050010
1590	7.9450e-01	-16.4642	-105.066252	-0.000010	-0.101026	-0.034229	-0.000807
1591	7.9500e-01	-16.4289	-104.929126	0.000343	3.434889	1.163772	0.027425
1592	7.9550e-01	-16.3776	-104.711339	0.000546	5.455412	1.848344	0.043557
1593	7.9600e-01	-16.3359	-104.441121	0.000677	6.768752	2.293315	0.054044
1594	7.9650e-01	-16.3070	-104.437088	0.000010	0.101026	0.034229	0.000807
1595	7.9700e-01	-16.2589	-104.102341	0.000839	8.385171	2.840973	0.066949
1596	7.9750e-01	-16.2268	-103.888587	0.000535	5.354386	1.814115	0.042751
1597	7.9800e-01	-16.1883	-103.646601	0.000606	6.061569	2.053715	0.048397
1598	7.9850e-01	-16.1290	-103.307821	0.000849	8.486197	2.875201	0.067756
1599	7.9900e-01	-16.0953	-103.259424	0.000121	1.212314	0.410743	0.009679
1600	7.9950e-01	-16.0568	-103.166662	0.000232	2.323601	0.787257	0.018552
1601	8.0000e-01	-16.0183	-103.025504	0.000354	3.535915	1.198001	0.028232
1602	8.0050e-01	-15.9733	-102.973074	0.000131	1.313340	0.444972	0.010486
1603	8.0100e-01	-15.9381	-102.602028	0.000929	9.294406	3.149030	0.074209
1604	8.0150e-01	-15.9044	-102.456837	0.000364	3.636941	1.232229	0.029038
1605	8.0200e-01	-15.8562	-102.170487	0.000717	7.172857	2.430230	0.057270
1606	8.0250e-01	-15.8258	-102.174520	-0.000010	-0.101026	-0.034229	-0.000807
1607	8.0300e-01	-15.7776	-102.025295	0.000374	3.737968	1.266458	0.029845
1608	8.0350e-01	-15.7407	-101.662316	0.000909	9.092354	3.080573	0.072596
1609	8.0400e-01	-15.6958	-101.448562	0.000535	5.354386	1.814115	0.042751
1610	8.0450e-01	-15.6509	-101.436463	0.000030	0.303078	0.102686	0.002420
1611	8.0500e-01	-15.6268	-101.234808	0.000505	5.051308	1.711429	0.040331
1612	8.0550e-01	-15.5755	-100.980723	0.000636	6.364648	2.156401	0.050817
1613	8.0600e-01	-15.5434	-100.710505	0.000677	6.768752	2.293315	0.054044
1614	8.0650e-01	-15.5001	-100.601612	0.000273	2.727706	0.924172	0.021779
1615	8.0700e-01	-15.4568	-100.508850	0.000232	2.323601	0.787257	0.018552
1616	8.0750e-01	-15.4199	-100.202335	0.000768	7.677987	2.601373	0.061303
1617	8.0800e-01	-15.3750	-100.049077	0.000384	3.838994	1.300686	0.030652
1618	8.0850e-01	-15.3445	-99.754661	0.000737	7.374909	2.498687	0.058883
1619	8.0900e-01	-15.3012	-99.520741	0.000586	5.859517	1.985258	0.046784
1620	8.0950e-01	-15.2530	-99.678032	-0.000394	-3.940020	-1.334915	-0.031458
1621	8.1000e-01	-15.2194	-99.613502	0.000162	1.616418	0.547657	0.012906
1622	8.1050e-01	-15.1793	-99.165828	0.001121	11.213903	3.799373	0.089535
1623	8.1100e-01	-15.1424	-99.105332	0.000152	1.515392	0.513429	0.012099
1624	8.1150e-01	-15.1039	-98.597162	0.001273	12.729295	4.312802	0.101634
1625	8.1200e-01	-15.0621	-98.613294	-0.000040	-0.404105	-0.136914	-0.003226
1626	8.1250e-01	-15.0188	-98.230150	0.000960	9.597484	3.251716	0.076629
1627	8.1300e-01	-14.9771	-98.230150	0.000000	0.000000	0.000000	0.000000
1628	8.1350e-01	-14.9338	-97.883303	0.000869	8.688249	2.943658	0.069369
1629	8.1400e-01	-14.9017	-97.814740	0.000172	1.717445	0.581886	0.013713
1630	8.1450e-01	-14.8568	-97.758277	0.000141	1.414366	0.479200	0.011293
1631	8.1500e-01	-14.8199	-97.552589	0.000515	5.152334	1.745658	0.041138
1632	8.1550e-01	-14.7830	-97.403364	0.000374	3.737968	1.266458	0.029845
1633	8.1600e-01	-14.7477	-97.153312	0.000626	6.263621	2.122172	0.050010
1634	8.1650e-01	-14.7028	-96.919393	0.000586	5.859517	1.985258	0.046784
1635	8.1700e-01	-14.6611	-96.677407	0.000606	6.061569	2.053715	0.048397
1636	8.1750e-01	-14.6178	-96.467685	0.000525	5.253360	1.779886	0.041944
1637	8.1800e-01	-14.5889	-96.419288	0.000121	1.212314	0.410743	0.009679
1638	8.1850e-01	-14.5456	-96.185369	0.000586	5.859517	1.985258	0.046784
1639	8.1900e-01	-14.4975	-96.145038	0.000101	1.010262	0.342286	0.008066
1640	8.1950e-01	-14.4590	-95.866754	0.000697	6.970804	2.361772	0.055657
1641	8.2000e-01	-14.4269	-95.673165	0.000485	4.849255	1.642972	0.038718
1642	8.2050e-01	-14.3707	-95.491676	0.000455	4.546177	1.540286	0.036298
1643	8.2100e-01	-14.3483	-95.338418	0.000384	3.838994	1.300686	0.030652
1644	8.2150e-01	-14.2985	-95.023836	0.000788	7.880040	2.669830	0.062916
1645	8.2200e-01	-14.2600	-94.781850	0.000606	6.061569	2.053715	0.048397
1646	8.2250e-01	-14.2151	-94.596328	0.000465	4.647203	1.574515	0.037105
1647	8.2300e-01	-14.1686	-94.422904	0.000434	4.344124	1.471829	0.034685
1648	8.2350e-01	-14.1333	-94.261581	0.000404	4.041046	1.369143	0.032265
1649	8.2400e-01	-14.0996	-94.201084	0.000152	1.515392	0.513429	0.012099
1650	8.2450e-01	-14.0611	-93.692914	0.001273	12.729295	4.312802	0.101634
1651	8.2500e-01	-14.0242	-93.636450	0.000141	1.414366	0.479200	0.011293
1652	8.2550e-01	-13.9809	-93.479159	0.000394	3.940020	1.334915	0.031458
1653	8.2600e-01	-13.9424	-93.249273	0.000576	5.758491	1.951029	0.045977
1654	8.2650e-01	-13.8975	-93.136346	0.000283	2.828732	0.958400	0.022585
1655	8.2700e-01	-13.8606	-92.942757	0.000485	4.849255	1.642972	0.038718
1656	8.2750e-01	-13.8205	-92.793533	0.000374	3.737968	1.266458	0.029845
1657	8.2800e-01	-13.7755	-92.333759	0.001152	11.516981	3.902059	0.091955
1658	8.2850e-01	-13.7338	-92.188568	0.000364	3.636941	1.232229	0.029038
1659	8.2900e-01	-13.6985	-92.099840	0.000222	2.222575	0.753029	0.017746
1660	8.2950e-01	-13.6536	-92.039343	0.000152	1.515392	0.513429	0.012099
1661	8.3000e-01	-13.6119	-91.736861	0.000758	7.576961	2.567144	0.060496
1662	8.3050e-01	-13.5670	-91.571504	0.000414	4.142072	1.403372	0.033071
1663	8.3100e-01	-13.5333	-91.349683	0.000556	5.556438	1.882572	0.044364
1664	8.3150e-01	-13.4980	-91.079466	0.000677	6.768752	2.293315	0.054044
1665	8.3200e-01	-13.4531	-91.006870	0.000182	1.818471	0.616115	0.014519
1666	8.3250e-01	-13.4162	-90.801182	0.000515	5.152334	1.745658	0.041138
1667	8.3300e-01	-13.3793	-90.470468	0.000828	8.284144	2.806744	0.066143
1668	8.3350e-01	-13.3424	-90.248647	0.000556	5.556438	1.882572	0.044364
1669	8.3400e-01	-13.2991	-90.014728	0.000586	5.859517	1.985258	0.046784
1670	8.3450e-01	-13.2638	-89.901801	0.000283	2.828732	0.958400	0.022585
1671	8.3500e-01	-13.2157	-89.639650	0.000657	6.566700	2.224858	0.052430
1672	8.3550e-01	-13.1820	-89.482359	0.000394	3.940020	1.334915	0.031458
1673	8.3600e-01	-13.1435	-89.236340	0.000616	6.162595	2.087944	0.049204
1674	8.3650e-01	-13.0921	-89.018552	0.000546	5.455412	1.848344	0.043557
1675	8.3700e-01	-13.0617	-88.893526	0.000313	3.131811	1.061086	0.025005
1676	8.3750e-01	-13.0216	-88.708004	0.000465	4.647203	1.574515	0.037105
1677	8.3800e-01	-12.9847	-88.631375	0.000192	1.919497	0.650343	0.015326
1678	8.3850e-01	-12.9478	-88.260330	0.000929	9.294406	3.149030	0.074209
1679	8.3900e-01	-12.8964	-87.776358	0.001212	12.123138	4.107430	0.096794
1680	8.3950e-01	-12.8627	-87.707795	0.000172	1.717445	0.581886	0.013713
1681	8.4000e-01	-12.8242	-87.671497	0.000091	0.909235	0.308057	0.007260
1682	8.4050e-01	-12.7841	-87.534372	0.000343	3.434889	1.163772	0.027425
1683	8.4100e-01	-12.7360	-87.405313	0.000323	3.232837	1.095315	0.025812
1684	8.4150e-01	-12.7071	-87.203658	0.000505	5.051308	1.711429	0.040331
1685	8.4200e-01	-12.6622	-86.860845	0.000859	8.587223	2.909430	0.068563
1686	8.4250e-01	-12.6221	-86.683388	0.000445	4.445151	1.506058	0.035491
1687	8.4300e-01	-12.5836	-86.647090	0.000091	0.909235	0.308057	0.007260
1688	8.4350e-01	-12.5467	-86.461568	0.000465	4.647203	1.574515	0.037105
1689	8.4400e-01	-12.5034	-86.179251	0.000707	7.071831	2.396001	0.056463
1690	8.4450e-01	-12.4649	-85.876769	0.000758	7.576961	2.567144	0.060496
1691	8.4500e-01	-12.4119	-86.013894	-0.000343	-3.434889	-1.163772	-0.027425
1692	8.4550e-01	-12.3702	-85.550088	0.001162	11.618007	3.936287	0.092761
1693	8.4600e-01	-12.3382	-85.396830	0.000384	3.838994	1.300686	0.030652
1694	8.4650e-01	-12.3029	-85.219373	0.000445	4.445151	1.506058	0.035491
1695	8.4700e-01	-12.2563	-85.114513	0.000263	2.626680	0.889943	0.020972
1696	8.4750e-01	-12.2194	-84.727335	0.000970	9.698510	3.285944	0.077435
1697	8.4800e-01	-12.1858	-84.666839	0.000152	1.515392	0.513429	0.012099
1698	8.4850e-01	-12.1328	-84.388555	0.000697	6.970804	2.361772	0.055657
1699	8.4900e-01	-12.0943	-84.106238	0.000707	7.071831	2.396001	0.056463
1700	8.4950e-01	-12.0606	-83.973146	0.000333	3.333863	1.129543	0.026618
1701	8.5000e-01	-12.0173	-83.823921	0.000374	3.737968	1.266458	0.029845
1702	8.5050e-01	-11.9820	-83.658564	0.000414	4.142072	1.403372	0.033071
1703	8.5100e-01	-11.9403	-83.287519	0.000929	9.294406	3.149030	0.074209
1704	8.5150e-01	-11.9050	-83.021335	0.000667	6.667726	2.259087	0.053237
1705	8.5200e-01	-11.8633	-82.739018	0.000707	7.071831	2.396001	0.056463
1706	8.5250e-01	-11.8168	-82.686588	0.000131	1.313340	0.444972	0.010486
1707	8.5300e-01	-11.7783	-82.646257	0.000101	1.010262	0.342286	0.008066
1708	8.5350e-01	-11.7366	-82.351840	0.000737	7.374909	2.498687	0.058883
1709	8.5400e-01	-11.7061	-82.130020	0.000556	5.556438	1.882572	0.044364
1710	8.5450e-01	-11.6660	-82.049358	0.000202	2.020523	0.684572	0.016132
1711	8.5500e-01	-11.6211	-81.847703	0.000505	5.051308	1.711429	0.040331
1712	8.5550e-01	-11.5794	-81.516989	0.000828	8.284144	2.806744	0.066143
1713	8.5600e-01	-11.5312	-81.307268	0.000525	5.253360	1.779886	0.041944
1714	8.5650e-01	-11.4991	-80.992686	0.000788	7.880040	2.669830	0.062916
1715	8.5700e-01	-11.4542	-80.976554	0.000040	0.404105	0.136914	0.003226
1716	8.5750e-01	-11.4221	-80.750700	0.000566	5.657464	1.916801	0.045171
1717	8.5800e-01	-11.3756	-80.379655	0.000929	9.294406	3.149030	0.074209
1718	8.5850e-01	-11.3339	-80.395788	-0.000040	-0.404105	-0.136914	-0.003226
1719	8.5900e-01	-11.2938	-80.109438	0.000717	7.172857	2.430230	0.057270
1720	8.5950e-01	-11.2505	-79.794856	0.000788	7.880040	2.669830	0.062916
1721	8.6000e-01	-11.2184	-79.657730	0.000343	3.434889	1.163772	0.027425
1722	8.6050e-01	-11.1863	-79.363314	0.000737	7.374909	2.498687	0.058883
1723	8.6100e-01	-11.1414	-79.464142	-0.000253	-2.525654	-0.855715	-0.020165
1724	8.6150e-01	-11.0997	-79.189891	0.000687	6.869778	2.327544	0.054850
1725	8.6200e-01	-11.0532	-78.972104	0.000546	5.455412	1.848344	0.043557
1726	8.6250e-01	-11.0163	-78.794647	0.000445	4.445151	1.506058	0.035491
1727	8.6300e-01	-10.9778	-78.383271	0.001030	10.304667	3.491316	0.082275
1728	8.6350e-01	-10.9425	-78.149352	0.000586	5.859517	1.985258	0.046784
1729	8.6400e-01	-10.8976	-78.080789	0.000172	1.717445	0.581886	0.013713
1730	8.6450e-01	-10.8623	-77.709744	0.000929	9.294406	3.149030	0.074209
1731	8.6500e-01	-10.8222	-77.399195	0.000778	7.779014	2.635601	0.062110
1732	8.6550e-01	-10.7756	-77.334666	0.000162	1.616418	0.547657	0.012906
1733	8.6600e-01	-10.7419	-77.294335	0.000101	1.010262	0.342286	0.008066
1734	8.6650e-01	-10.6986	-77.068481	0.000566	5.657464	1.916801	0.045171
1735	8.6700e-01	-10.6457	-76.854727	0.000535	5.354386	1.814115	0.042751
1736	8.6750e-01	-10.6232	-76.540145	0.000788	7.880040	2.669830	0.062916
1737	8.6800e-01	-10.5863	-76.370755	0.000424	4.243098	1.437601	0.033878
1738	8.6850e-01	-10.5398	-76.233630	0.000343	3.434889	1.163772	0.027425
1739	8.6900e-01	-10.5013	-75.874684	0.000899	8.991327	3.046344	0.071789
1740	8.6950e-01	-10.4564	-75.725459	0.000374	3.737968	1.266458	0.029845
1741	8.7000e-01	-10.4179	-75.572202	0.000384	3.838994	1.300686	0.030652
1742	8.7050e-01	-10.3858	-75.209223	0.000909	9.092354	3.080573	0.072596
1743	8.7100e-01	-10.3425	-74.918840	0.000727	7.273883	2.464458	0.058077
1744	8.7150e-01	-10.3008	-74.838178	0.000202	2.020523	0.684572	0.016132
1745	8.7200e-01	-10.2575	-74.632490	0.000515	5.152334	1.745658	0.041138
1746	8.7250e-01	-10.2174	-74.366305	0.000667	6.667726	2.259087	0.053237
1747	8.7300e-01	-10.1773	-74.156584	0.000525	5.253360	1.779886	0.041944
1748	8.7350e-01	-10.1323	-73.999293	0.000394	3.940020	1.334915	0.031458
1749	8.7400e-01	-10.0986	-73.495156	0.001263	12.628269	4.278573	0.100827
1750	8.7450e-01	-10.0585	-73.285435	0.000525	5.253360	1.779886	0.041944
1751	8.7500e-01	-10.0184	-73.249137	0.000091	0.909235	0.308057	0.007260
1752	8.7550e-01	-9.9751	-73.035383	0.000535	5.354386	1.814115	0.042751
1753	8.7600e-01	-9.9382	-72.789364	0.000616	6.162595	2.087944	0.049204
1754	8.7650e-01	-9.8965	-72.785330	0.000010	0.101026	0.034229	0.000807
1755	8.7700e-01	-9.8596	-72.490914	0.000737	7.374909	2.498687	0.058883
1756	8.7750e-01	-9.8083	-72.390087	0.000253	2.525654	0.855715	0.020165
1757	8.7800e-01	-9.7730	-72.019042	0.000929	9.294406	3.149030	0.074209
1758	8.7850e-01	-9.7409	-71.934347	0.000212	2.121549	0.718800	0.016939
1759	8.7900e-01	-9.7008	-71.700427	0.000586	5.859517	1.985258	0.046784
1760	8.7950e-01	-9.6543	-71.341481	0.000899	8.991327	3.046344	0.071789
1761	8.8000e-01	-9.6174	-71.103528	0.000596	5.960543	2.019487	0.047591
1762	8.8050e-01	-9.5773	-70.950271	0.000384	3.838994	1.300686	0.030652
1763	8.8100e-01	-9.5340	-70.809112	0.000354	3.535915	1.198001	0.028232
1764	8.8150e-01	-9.5019	-70.563093	0.000616	6.162595	2.087944	0.049204
1765	8.8200e-01	-9.4537	-70.474365	0.000222	2.222575	0.753029	0.017746
1766	8.8250e-01	-9.4233	-70.240445	0.000586	5.859517	1.985258	0.046784
1767	8.8300e-01	-9.3896	-69.845202	0.000990	9.900563	3.354401	0.079049
1768	8.8350e-01	-9.3318	-69.627414	0.000546	5.455412	1.848344	0.043557
1769	8.8400e-01	-9.2997	-69.353164	0.000687	6.869778	2.327544	0.054850
1770	8.8450e-01	-9.2596	-69.304766	0.000121	1.212314	0.410743	0.009679
1771	8.8500e-01	-9.2195	-69.175707	0.000323	3.232837	1.095315	0.025812
1772	8.8550e-01	-9.1826	-68.707868	0.001172	11.719033	3.970516	0.093568
1773	8.8600e-01	-9.1361	-68.449749	0.000647	6.465674	2.190630	0.051624
1774	8.8650e-01	-9.0960	-68.477981	-0.000071	-0.707183	-0.239600	-0.005646
1775	8.8700e-01	-9.0559	-68.086771	0.000980	9.799537	3.320173	0.078242
1776	8.8750e-01	-9.0094	-67.901248	0.000465	4.647203	1.574515	0.037105
1777	8.8800e-01	-8.9805	-67.699593	0.000505	5.051308	1.711429	0.040331
1778	8.8850e-01	-8.9436	-67.566501	0.000333	3.333863	1.129543	0.026618
1779	8.8900e-01	-8.9083	-67.126893	0.001101	11.011850	3.730916	0.087922
1780	8.8950e-01	-8.8650	-66.852642	0.000687	6.869778	2.327544	0.054850
1781	8.9000e-01	-8.8137	-66.828444	0.000061	0.606157	0.205372	0.004840
1782	8.9050e-01	-8.7800	-66.731649	0.000242	2.424628	0.821486	0.019359
1783	8.9100e-01	-8.7399	-66.457399	0.000687	6.869778	2.327544	0.054850
1784	8.9150e-01	-8.7030	-66.118618	0.000849	8.486197	2.875201	0.067756
1785	8.9200e-01	-8.6548	-65.973427	0.000364	3.636941	1.232229	0.029038
1786	8.9250e-01	-8.6051	-65.747573	0.000566	5.657464	1.916801	0.045171
1787	8.9300e-01	-8.5842	-65.723375	0.000061	0.606157	0.205372	0.004840
1788	8.9350e-01	-8.5409	-65.199072	0.001313	13.133400	4.449716	0.104861
1789	8.9400e-01	-8.4944	-65.130509	0.000172	1.717445	0.581886	0.013713
1790	8.9450e-01	-8.4639	-64.686868	0.001111	11.112877	3.765145	0.088728
1791	8.9500e-01	-8.4174	-64.658637	0.000071	0.707183	0.239600	0.005646
1792	8.9550e-01	-8.3821	-64.319857	0.000849	8.486197	2.875201	0.067756
1793	8.9600e-01	-8.3420	-64.219029	0.000253	2.525654	0.855715	0.020165
1794	8.9650e-01	-8.3003	-64.106102	0.000283	2.828732	0.958400	0.022585
1795	8.9700e-01	-8.2570	-64.005275	0.000253	2.525654	0.855715	0.020165
1796	8.9750e-01	-8.2121	-63.541468	0.001162	11.618007	3.936287	0.092761
1797	8.9800e-01	-8.1832	-63.287383	0.000636	6.364648	2.156401	0.050817
1798	8.9850e-01	-8.1383	-63.081695	0.000515	5.152334	1.745658	0.041138
1799	8.9900e-01	-8.0998	-62.924404	0.000394	3.940020	1.334915	0.031458
1800	8.9950e-01	-8.0613	-62.496896	0.001071	10.708772	3.628230	0.085502
1801	9.0000e-01	-8.0147	-62.375903	0.000303	3.030785	1.026858	0.024199
1802	9.0050e-01	-7.9891	-62.186347	0.000475	4.748229	1.608744	0.037911
1803	9.0100e-01	-7.9361	-62.016957	0.000424	4.243098	1.437601	0.033878
1804	9.0150e-01	-7.8944	-61.948395	0.000172	1.717445	0.581886	0.013713
1805	9.0200e-01	-7.8591	-61.605581	0.000859	8.587223	2.909430	0.068563
1806	9.0250e-01	-7.8174	-61.319231	0.000717	7.172857	2.430230	0.057270
1807	9.0300e-01	-7.7741	-61.109510	0.000525	5.253360	1.779886	0.041944
1808	9.0350e-01	-7.7468	-60.690068	0.001051	10.506720	3.559773	0.083888
1809	9.0400e-01	-7.6955	-60.492446	0.000495	4.950281	1.677201	0.039524
1810	9.0450e-01	-7.6586	-60.403718	0.000222	2.222575	0.753029	0.017746
1811	9.0500e-01	-7.6169	-60.282725	0.000303	3.030785	1.026858	0.024199
1812	9.0550e-01	-7.5816	-60.068971	0.000535	5.354386	1.814115	0.042751
1813	9.0600e-01	-7.5447	-59.641462	0.001071	10.708772	3.628230	0.085502
1814	9.0650e-01	-7.4998	-59.399476	0.000606	6.061569	2.053715	0.048397
1815	9.0700e-01	-7.4597	-59.363178	0.000091	0.909235	0.308057	0.007260
1816	9.0750e-01	-7.4260	-59.181689	0.000455	4.546177	1.540286	0.036298
1817	9.0800e-01	-7.3779	-58.927604	0.000636	6.364648	2.156401	0.050817
1818	9.0850e-01	-7.3378	-58.729982	0.000495	4.950281	1.677201	0.039524
1819	9.0900e-01	-7.3057	-58.379102	0.000879	8.789275	2.977887	0.070176
1820	9.0950e-01	-7.2592	-58.169381	0.000525	5.253360	1.779886	0.041944
1821	9.1000e-01	-7.2174	-58.008057	0.000404	4.041046	1.369143	0.032265
1822	9.1050e-01	-7.1741	-57.677343	0.000828	8.284144	2.806744	0.066143
1823	9.1100e-01	-7.1388	-57.487787	0.000475	4.748229	1.608744	0.037911
1824	9.1150e-01	-7.0939	-57.124809	0.000909	9.092354	3.080573	0.072596
1825	9.1200e-01	-7.0634	-56.862657	0.000657	6.566700	2.224858	0.052430
1826	9.1250e-01	-7.0201	-56.765863	0.000242	2.424628	0.821486	0.019359
1827	9.1300e-01	-6.9768	-56.709399	0.000141	1.414366	0.479200	0.011293
1828	9.1350e-01	-6.9415	-56.293990	0.001041	10.405694	3.525544	0.083082
1829	9.1400e-01	-6.9062	-56.189130	0.000263	2.626680	0.889943	0.020972
1830	9.1450e-01	-6.8613	-56.031839	0.000394	3.940020	1.334915	0.031458
1831	9.1500e-01	-6.8148	-55.697092	0.000839	8.385171	2.840973	0.066949
1832	9.1550e-01	-6.7827	-55.580132	0.000293	2.929758	0.992629	0.023392
1833	9.1600e-01	-6.7394	-55.358311	0.000556	5.556438	1.882572	0.044364
1834	9.1650e-01	-6.6993	-54.967101	0.000980	9.799537	3.320173	0.078242
1835	9.1700e-01	-6.6656	-54.612188	0.000889	8.890301	3.012116	0.070983
1836	9.1750e-01	-6.6207	-54.454897	0.000394	3.940020	1.334915	0.031458
1837	9.1800e-01	-6.5822	-54.225011	0.000576	5.758491	1.951029	0.045977
1838	9.1850e-01	-6.5356	-54.132249	0.000232	2.323601	0.787257	0.018552
1839	9.1900e-01	-6.4891	-53.946727	0.000465	4.647203	1.574515	0.037105
1840	9.1950e-01	-6.4506	-53.273199	0.001687	16.871367	5.716174	0.134705
1841	9.2000e-01	-6.4201	-53.277233	-0.000010	-0.101026	-0.034229	-0.000807
1842	9.2050e-01	-6.3800	-53.091710	0.000465	4.647203	1.574515	0.037105
1843	9.2100e-01	-6.3463	-52.910221	0.000455	4.546177	1.540286	0.036298
1844	9.2150e-01	-6.2950	-52.748897	0.000404	4.041046	1.369143	0.032265
1845	9.2200e-01	-6.2565	-52.353653	0.000990	9.900563	3.354401	0.079049
1846	9.2250e-01	-6.2132	-52.135866	0.000546	5.455412	1.848344	0.043557
1847	9.2300e-01	-6.1795	-52.026972	0.000273	2.727706	0.924172	0.021779
1848	9.2350e-01	-6.1394	-51.716423	0.000778	7.779014	2.635601	0.062110
1849	9.2400e-01	-6.1009	-51.450239	0.000667	6.667726	2.259087	0.053237
1850	9.2450e-01	-6.0688	-51.127591	0.000808	8.082092	2.738287	0.064530
1851	9.2500e-01	-6.0239	-51.075161	0.000131	1.313340	0.444972	0.010486
1852	9.2550e-01	-5.9774	-50.897704	0.000445	4.445151	1.506058	0.035491
1853	9.2600e-01	-5.9373	-50.546825	0.000879	8.789275	2.977887	0.070176
1854	9.2650e-01	-5.9052	-50.369368	0.000445	4.445151	1.506058	0.035491
1855	9.2700e-01	-5.8522	-50.103184	0.000667	6.667726	2.259087	0.053237
1856	9.2750e-01	-5.8105	-49.832966	0.000677	6.768752	2.293315	0.054044
1857	9.2800e-01	-5.7833	-49.752304	0.000202	2.020523	0.684572	0.016132
1858	9.2850e-01	-5.7415	-49.405458	0.000869	8.688249	2.943658	0.069369
1859	9.2900e-01	-5.7030	-49.328829	0.000192	1.919497	0.650343	0.015326
1860	9.2950e-01	-5.6565	-49.070711	0.000647	6.465674	2.190630	0.051624
1861	9.3000e-01	-5.6212	-48.570606	0.001253	12.527243	4.244345	0.100021
1862	9.3050e-01	-5.5763	-48.328621	0.000606	6.061569	2.053715	0.048397
1863	9.3100e-01	-5.5394	-48.251992	0.000192	1.919497	0.650343	0.015326
1864	9.3150e-01	-5.5025	-48.022105	0.000576	5.758491	1.951029	0.045977
1865	9.3200e-01	-5.4688	-47.614762	0.001020	10.203641	3.457087	0.081469
1866	9.3250e-01	-5.4223	-47.396975	0.000546	5.455412	1.848344	0.043557
1867	9.3300e-01	-5.3790	-47.203386	0.000485	4.849255	1.642972	0.038718
1868	9.3350e-01	-5.3405	-46.997698	0.000515	5.152334	1.745658	0.041138
1869	9.3400e-01	-5.2956	-46.864606	0.000333	3.333863	1.129543	0.026618
1870	9.3450e-01	-5.2603	-46.566156	0.000748	7.475935	2.532915	0.059690
1871	9.3500e-01	-5.2266	-46.304005	0.000657	6.566700	2.224858	0.052430
1872	9.3550e-01	-5.1737	-46.078152	0.000566	5.657464	1.916801	0.045171
1873	9.3600e-01	-5.1303	-45.703073	0.000940	9.395432	3.183259	0.075016
1874	9.3650e-01	-5.1031	-45.703073	0.000000	0.000000	0.000000	0.000000
1875	9.3700e-01	-5.0581	-45.465121	0.000596	5.960543	2.019487	0.047591
1876	9.3750e-01	-5.0212	-45.211035	0.000636	6.364648	2.156401	0.050817
1877	9.3800e-01	-4.9795	-44.892421	0.000798	7.981066	2.704058	0.063723
1878	9.3850e-01	-4.9362	-44.561706	0.000828	8.284144	2.806744	0.066143
1879	9.3900e-01	-4.8961	-44.444747	0.000293	2.929758	0.992629	0.023392
1880	9.3950e-01	-4.8656	-44.109999	0.000839	8.385171	2.840973	0.066949
1881	9.4000e-01	-4.8175	-43.803484	0.000768	7.677987	2.601373	0.061303
1882	9.4050e-01	-4.7806	-43.630061	0.000434	4.344124	1.471829	0.034685
1883	9.4100e-01	-4.7421	-43.460671	0.000424	4.243098	1.437601	0.033878
1884	9.4150e-01	-4.7068	-43.323545	0.000343	3.434889	1.163772	0.027425
1885	9.4200e-01	-4.6619	-43.008963	0.000788	7.880040	2.669830	0.062916
1886	9.4250e-01	-4.6218	-42.791176	0.000546	5.455412	1.848344	0.043557
1887	9.4300e-01	-4.5753	-42.678249	0.000283	2.828732	0.958400	0.022585
1888	9.4350e-01	-4.5368	-42.403999	0.000687	6.869778	2.327544	0.054850
1889	9.4400e-01	-4.4935	-42.202344	0.000505	5.051308	1.711429	0.040331
1890	9.4450e-01	-4.4598	-41.915994	0.000717	7.172857	2.430230	0.057270
1891	9.4500e-01	-4.4148	-41.661909	0.000636	6.364648	2.156401	0.050817
1892	9.4550e-01	-4.3731	-41.520750	0.000354	3.535915	1.198001	0.028232
1893	9.4600e-01	-4.3314	-41.230367	0.000727	7.273883	2.464458	0.058077
1894	9.4650e-01	-4.3074	-41.048878	0.000455	4.546177	1.540286	0.036298
1895	9.4700e-01	-4.2624	-40.814958	0.000586	5.859517	1.985258	0.046784
1896	9.4750e-01	-4.2095	-40.476178	0.000849	8.486197	2.875201	0.067756
1897	9.4800e-01	-4.1838	-40.205960	0.000677	6.768752	2.293315	0.054044
1898	9.4850e-01	-4.1469	-39.750220	0.001142	11.415955	3.867830	0.091148
1899	9.4900e-01	-4.0956	-39.657459	0.000232	2.323601	0.787257	0.018552
1900	9.4950e-01	-4.0539	-39.596962	0.000152	1.515392	0.513429	0.012099
1901	9.5000e-01	-4.0170	-39.209785	0.000970	9.698510	3.285944	0.077435
1902	9.5050e-01	-3.9929	-38.810508	0.001000	10.001589	3.388630	0.079855
1903	9.5100e-01	-3.9432	-38.512059	0.000748	7.475935	2.532915	0.059690
1904	9.5150e-01	-3.8967	-38.709680	-0.000495	-4.950281	-1.677201	-0.039524
1905	9.5200e-01	-3.8566	-38.528191	0.000455	4.546177	1.540286	0.036298
1906	9.5250e-01	-3.8309	-38.080517	0.001121	11.213903	3.799373	0.089535
1907	9.5300e-01	-3.7828	-37.717538	0.000909	9.092354	3.080573	0.072596
1908	9.5350e-01	-3.7411	-37.487652	0.000576	5.758491	1.951029	0.045977
1909	9.5400e-01	-3.6962	-37.350526	0.000343	3.434889	1.163772	0.027425
1910	9.5450e-01	-3.6593	-36.983514	0.000919	9.193380	3.114801	0.073402
1911	9.5500e-01	-3.6095	-36.810091	0.000434	4.344124	1.471829	0.034685
1912	9.5550e-01	-3.5871	-36.233358	0.001445	14.446740	4.894688	0.115347
1913	9.5600e-01	-3.5405	-36.184961	0.000121	1.212314	0.410743	0.009679
1914	9.5650e-01	-3.5004	-36.080100	0.000263	2.626680	0.889943	0.020972
1915	9.5700e-01	-3.4523	-35.890544	0.000475	4.748229	1.608744	0.037911
1916	9.5750e-01	-3.4106	-35.644525	0.000616	6.162595	2.087944	0.049204
1917	9.5800e-01	-3.3801	-35.249282	0.000990	9.900563	3.354401	0.079049
1918	9.5850e-01	-3.3480	-34.862104	0.000970	9.698510	3.285944	0.077435
1919	9.5900e-01	-3.3047	-34.773376	0.000222	2.222575	0.753029	0.017746
1920	9.5950e-01	-3.2598	-34.599953	0.000434	4.344124	1.471829	0.034685
1921	9.6000e-01	-3.2261	-34.293437	0.000768	7.677987	2.601373	0.061303
1922	9.6050e-01	-3.1908	-34.047418	0.000616	6.162595	2.087944	0.049204
1923	9.6100e-01	-3.1379	-33.886094	0.000404	4.041046	1.369143	0.032265
1924	9.6150e-01	-3.1026	-33.627976	0.000647	6.465674	2.190630	0.051624
1925	9.6200e-01	-3.0625	-33.345659	0.000707	7.071831	2.396001	0.056463
1926	9.6250e-01	-3.0176	-33.139971	0.000515	5.152334	1.745658	0.041138
1927	9.6300e-01	-2.9823	-32.837489	0.000758	7.576961	2.567144	0.060496
1928	9.6350e-01	-2.9422	-32.732628	0.000263	2.626680	0.889943	0.020972
1929	9.6400e-01	-2.9037	-32.333351	0.001000	10.001589	3.388630	0.079855
1930	9.6450e-01	-2.8652	-32.002637	0.000828	8.284144	2.806744	0.066143
1931	9.6500e-01	-2.8234	-31.809049	0.000485	4.849255	1.642972	0.038718
1932	9.6550e-01	-2.7721	-31.643692	0.000414	4.142072	1.403372	0.033071
1933	9.6600e-01	-2.7432	-31.204084	0.001101	11.011850	3.730916	0.087922
1934	9.6650e-01	-2.6999	-31.103256	0.000253	2.525654	0.855715	0.020165
1935	9.6700e-01	-2.6646	-30.897568	0.000515	5.152334	1.745658	0.041138
1936	9.6750e-01	-2.6133	-30.724145	0.000434	4.344124	1.471829	0.034685
1937	9.6800e-01	-2.5892	-30.292604	0.001081	10.809798	3.662459	0.086308
1938	9.6850e-01	-2.5427	-30.086916	0.000515	5.152334	1.745658	0.041138
1939	9.6900e-01	-2.5058	-29.913492	0.000434	4.344124	1.471829	0.034685
1940	9.6950e-01	-2.4513	-29.723937	0.000475	4.748229	1.608744	0.037911
1941	9.7000e-01	-2.4304	-29.300461	0.001061	10.607746	3.594002	0.084695
1942	9.7050e-01	-2.3662	-29.066542	0.000586	5.859517	1.985258	0.046784
1943	9.7100e-01	-2.3470	-28.832622	0.000586	5.859517	1.985258	0.046784
1944	9.7150e-01	-2.3005	-28.739861	0.000232	2.323601	0.787257	0.018552
1945	9.7200e-01	-2.2620	-28.324451	0.001041	10.405694	3.525544	0.083082
1946	9.7250e-01	-2.2138	-28.163128	0.000404	4.041046	1.369143	0.032265
1947	9.7300e-01	-2.1802	-27.679156	0.001212	12.123138	4.107430	0.096794
1948	9.7350e-01	-2.1417	-27.525898	0.000384	3.838994	1.300686	0.030652
1949	9.7400e-01	-2.0999	-27.231482	0.000737	7.374909	2.498687	0.058883
1950	9.7450e-01	-2.0566	-27.062092	0.000424	4.243098	1.437601	0.033878
1951	9.7500e-01	-2.0165	-26.840271	0.000556	5.556438	1.882572	0.044364
1952	9.7550e-01	-1.9716	-26.747510	0.000232	2.323601	0.787257	0.018552
1953	9.7600e-01	-1.9411	-26.449061	0.000748	7.475935	2.532915	0.059690
1954	9.7650e-01	-1.9026	-25.965089	0.001212	12.123138	4.107430	0.096794
1955	9.7700e-01	-1.8625	-25.686805	0.000697	6.970804	2.361772	0.055657
1956	9.7750e-01	-1.8240	-25.525481	0.000404	4.041046	1.369143	0.032265
1957	9.7800e-01	-1.7663	-25.460951	0.000162	1.616418	0.547657	0.012906
1958	9.7850e-01	-1.7422	-25.029410	0.001081	10.809798	3.662459	0.086308
1959	9.7900e-01	-1.7005	-24.730961	0.000748	7.475935	2.532915	0.059690
1960	9.7950e-01	-1.6556	-24.714828	0.000040	0.404105	0.136914	0.003226
1961	9.8000e-01	-1.6187	-24.416379	0.000748	7.475935	2.532915	0.059690
1962	9.8050e-01	-1.5866	-24.065499	0.000879	8.789275	2.977887	0.070176
1963	9.8100e-01	-1.5385	-23.964672	0.000253	2.525654	0.855715	0.020165
1964	9.8150e-01	-1.4984	-23.504899	0.001152	11.516981	3.902059	0.091955
1965	9.8200e-01	-1.4502	-23.472634	0.000081	0.808209	0.273829	0.006453
1966	9.8250e-01	-1.4262	-23.069324	0.001010	10.102615	3.422859	0.080662
1967	9.8300e-01	-1.3828	-22.883801	0.000465	4.647203	1.574515	0.037105
1968	9.8350e-01	-1.3363	-22.629716	0.000636	6.364648	2.156401	0.050817
1969	9.8400e-01	-1.2994	-22.363532	0.000667	6.667726	2.259087	0.053237
1970	9.8450e-01	-1.2689	-22.262704	0.000253	2.525654	0.855715	0.020165
1971	9.8500e-01	-1.2224	-21.919891	0.000859	8.587223	2.909430	0.068563
1972	9.8550e-01	-1.1743	-21.577078	0.000859	8.587223	2.909430	0.068563
1973	9.8600e-01	-1.1438	-21.415754	0.000404	4.041046	1.369143	0.032265
1974	9.8650e-01	-1.0909	-21.246363	0.000424	4.243098	1.437601	0.033878
1975	9.8700e-01	-1.0460	-21.113271	0.000333	3.333863	1.129543	0.026618
1976	9.8750e-01	-1.0171	-20.681730	0.001081	10.809798	3.662459	0.086308
1977	9.8800e-01	-0.9738	-20.403446	0.000697	6.970804	2.361772	0.055657
1978	9.8850e-01	-0.9369	-20.117096	0.000717	7.172857	2.430230	0.057270
1979	9.8900e-01	-0.8920	-19.778316	0.000849	8.486197	2.875201	0.067756
1980	9.8950e-01	-0.8599	-19.479866	0.000748	7.475935	2.532915	0.059690
1981	9.9000e-01	-0.8101	-19.415337	0.000162	1.616418	0.547657	0.012906
1982	9.9050e-01	-0.7813	-18.975729	0.001101	11.011850	3.730916	0.087922
1983	9.9100e-01	-0.7379	-18.822471	0.000384	3.838994	1.300686	0.030652
1984	9.9150e-01	-0.7027	-18.475625	0.000869	8.688249	2.943658	0.069369
1985	9.9200e-01	-0.6658	-18.201374	0.000687	6.869778	2.327544	0.054850
1986	9.9250e-01	-0.6160	-18.003752	0.000495	4.950281	1.677201	0.039524
1987	9.9300e-01	-0.5807	-17.697237	0.000768	7.677987	2.601373	0.061303
1988	9.9350e-01	-0.5326	-17.556078	0.000354	3.535915	1.198001	0.028232
1989	9.9400e-01	-0.5021	-17.237463	0.000798	7.981066	2.704058	0.063723
1990	9.9450e-01	-0.4700	-17.003544	0.000586	5.859517	1.985258	0.046784
1991	9.9500e-01	-0.4107	-16.688962	0.000788	7.880040	2.669830	0.062916
1992	9.9550e-01	-0.3690	-16.325983	0.000909	9.092354	3.080573	0.072596
1993	9.9600e-01	-0.3417	-16.273553	0.000131	1.313340	0.444972	0.010486
1994	9.9650e-01	-0.3064	-16.124328	0.000374	3.737968	1.266458	0.029845
1995	9.9700e-01	-0.2663	-15.761349	0.000909	9.092354	3.080573	0.072596
1996	9.9750e-01	-0.2182	-15.402404	0.000899	8.991327	3.046344	0.071789
1997	9.9800e-01	-0.1765	-15.277378	0.000313	3.131811	1.061086	0.025005
1998	9.9850e-01	-0.1492	-15.047491	0.000576	5.758491	1.951029	0.045977
1999	9.9900e-01	-0.1027	-14.797439	0.000626	6.263621	2.122172	0.050010
2000	9.9950e-01	-0.0529	-14.486890	0.000778	7.779014	2.635601	0.062110
2001	1.0000e+00	-0.0209	-14.329599	0.000778	7.779014	2.635601	0.031458

PMax (uC/cm2):	1.26e+02
Pr (uC/cm2):	6.44e+00
-Pr (uC/cm2):	-7.68e+00
PLoss (uC/cm2):	-7.50e+00
-Vc:	-9.75e-01
C (Max-Eff) (nF):	6.29e-01
K (Eff):	2.13e+03
Vert. (+/-Pr) Shift (uC/cm2):	-6.21e-01
Offset (uC/cm2):	6.65e+00

A (Loop Area - uC/cm2·Volts):	-2.21e-01



Hysteresis Version: 5.48.1 - Radiant Technologies, Inc., 1999 - 9/12/24

