»»»»»»»»»»»»»»»»»»»»»»»»»»»»»»»»»»»» Hysteresis ««««««««««««««««««««««««««««««««««««
»»»  Executed Version:	5.48.1
»»»  Vision Version:	5.48.4 (R)
»»»  Vision Compiled:	9/18/24
»»»  Driver Version:	5.47.0
»»»  Windows Version:	Windows 8 or 8.1
»»»  Processor Information:	x86 (AMD or Intel) - 32 Processors
»»»  Tester Name:	PMF21124-494 (100V)
»»»  Tester S/N:	PMF21124-494
»»»  Internal Amp Type:	100V RevK 270k
»»»  Internal Amp S/N:	iAB2-596/K     
»»»  Execution Count:	1
»»»»»»»»»»»»»»»»»»»»»»»»»»»»»»»»»»»»»»»»»»««««««««««««««««««««««««««««««««««««««««««

Stored:	6/18/2025 - 15:20:25
Configured:	06/18/25 09:47:30 AM
Executed:	06/18/25 03:19:49 PM

»»»»»»»»»»»»»»»»»»»»»»»»»»»»»»»»»»» Sample Info ««««««««««««««««««««««««««««««««««««
Sample Name:	
Lot Name:	
Wafer Name:	
Die Row/Column:	0/0
Capacitor Number:	0
Sample Area (cm2):	1.00e-04
Sample Thickness (microns):	3.00e-01

Amplifier:	Internal

»»»»»»»»»»»»»»»»»»»»»»»»»»»»»»»»»»» Tester Info «««««««««««««««««««««««««««««««««««
Tester Name:	PMF21124-494 (100V)
Tester Serial Number:	PMF21124-494
Return Signal Amp. Level:	0.19 [Index: 3]

»»»»»»»»»»»»»»»»»»»»»»»»»»»»»»»» Hysteresis Info ««««««««««««««««««««««««««««««««««
Task Name:	Hyst-554
Volts:	20.00
Field:	666.67 (kV/cm)
DCBias:	0.00
DCField:	0.00 (kV/cm)
Hysteresis Period (ms):	2.00e+02
Preset:	Enabled
Preset Delay (ms):	1.00e+03
Profile:	Standard Bipolar

»»»»»»»»»»»»»»»»»»»»»»»»»»»»»»»»»»»»»» Data «««««««««««««««««««««««««««««««««««««««
Points:	2009

Valid Data

Point	Time (ms)	Drive Voltage	Measured Polarization (uC/cm2)	Capacitance (uF)	Normalized Capacitance (uF/cm2)	Dielectric Constant	Instantaneous Current (mA)
   1	0.0000e+00	0.0160	-10.421866	0.000578	5.777445	1.957451	0.000231
   2	9.9500e-02	0.0401	-10.191749	0.000578	5.777445	1.957451	0.000231
   3	1.9900e-01	0.0754	-9.844555	0.000872	8.716847	2.953348	0.000349
   4	2.9850e-01	0.1107	-9.513510	0.000831	8.311412	2.815983	0.000333
   5	3.9800e-01	0.1572	-9.206688	0.000770	7.703260	2.609935	0.000308
   6	4.9750e-01	0.1973	-8.859494	0.000872	8.716847	2.953348	0.000349
   7	5.9700e-01	0.2342	-8.548635	0.000780	7.804618	2.644276	0.000312
   8	6.9650e-01	0.2743	-8.221627	0.000821	8.210053	2.781641	0.000329
   9	7.9600e-01	0.3192	-7.862322	0.000902	9.020923	3.056371	0.000361
  10	8.9550e-01	0.3529	-7.563574	0.000750	7.500542	2.541253	0.000300
  11	9.9500e-01	0.3914	-7.252714	0.000780	7.804618	2.644276	0.000312
  12	1.0945e+00	0.4380	-6.873224	0.000953	9.527716	3.228078	0.000381
  13	1.1940e+00	0.4700	-6.578513	0.000740	7.399184	2.506911	0.000296
  14	1.2935e+00	0.5150	-6.215170	0.000912	9.122281	3.090713	0.000365
  15	1.3930e+00	0.5567	-5.916422	0.000750	7.500542	2.541253	0.000300
  16	1.4925e+00	0.5984	-5.524820	0.000983	9.831792	3.331101	0.000394
  17	1.5920e+00	0.6353	-5.234146	0.000730	7.297825	2.472570	0.000292
  18	1.6915e+00	0.6706	-4.850619	0.000963	9.629075	3.262419	0.000385
  19	1.7910e+00	0.7171	-4.543796	0.000770	7.703260	2.609935	0.000308
  20	1.8905e+00	0.7556	-4.224863	0.000801	8.007336	2.712959	0.000321
  21	1.9900e+00	0.7925	-3.885743	0.000851	8.514129	2.884665	0.000341
  22	2.0895e+00	0.8358	-3.494141	0.000983	9.831792	3.331101	0.000394
  23	2.1890e+00	0.8823	-3.171170	0.000811	8.108694	2.747300	0.000325
  24	2.2885e+00	0.9032	-2.807828	0.000912	9.122281	3.090713	0.000365
  25	2.3880e+00	0.9481	-2.505043	0.000760	7.601901	2.575594	0.000304
  26	2.4875e+00	0.9946	-2.121515	0.000963	9.629075	3.262419	0.000385
  27	2.5870e+00	1.0235	-1.826804	0.000740	7.399184	2.506911	0.000296
  28	2.6865e+00	1.0764	-1.443276	0.000963	9.629075	3.262419	0.000385
  29	2.7860e+00	1.1085	-1.156639	0.000720	7.196466	2.438229	0.000288
  30	2.8855e+00	1.1567	-0.777149	0.000953	9.527716	3.228078	0.000381
  31	2.9850e+00	1.1968	-0.389584	0.000973	9.730433	3.296760	0.000390
  32	3.0845e+00	1.2272	-0.086798	0.000760	7.601901	2.575594	0.000304
  33	3.1840e+00	1.2754	0.272507	0.000902	9.020923	3.056371	0.000361
  34	3.2835e+00	1.3091	0.615663	0.000862	8.615488	2.919006	0.000345
  35	3.3830e+00	1.3556	0.983043	0.000922	9.223640	3.125054	0.000369
  36	3.4825e+00	1.3780	1.322162	0.000851	8.514129	2.884665	0.000341
  37	3.5820e+00	1.4358	1.620910	0.000750	7.500542	2.541253	0.000300
  38	3.6815e+00	1.4727	2.012512	0.000983	9.831792	3.331101	0.000394
  39	3.7810e+00	1.5144	2.383929	0.000932	9.324999	3.159395	0.000373
  40	3.8805e+00	1.5513	2.727085	0.000862	8.615488	2.919006	0.000345
  41	3.9800e+00	1.5946	3.058130	0.000831	8.311412	2.815983	0.000333
  42	4.0795e+00	1.6363	3.393213	0.000841	8.412771	2.850324	0.000337
  43	4.1790e+00	1.6732	3.748481	0.000892	8.919564	3.022030	0.000357
  44	4.2785e+00	1.7069	4.115860	0.000922	9.223640	3.125054	0.000369
  45	4.3780e+00	1.7502	4.483239	0.000922	9.223640	3.125054	0.000369
  46	4.4775e+00	1.7871	4.777950	0.000740	7.399184	2.506911	0.000296
  47	4.5770e+00	1.8288	5.137255	0.000902	9.020923	3.056371	0.000361
  48	4.6765e+00	1.8657	5.528857	0.000983	9.831792	3.331101	0.000394
  49	4.7760e+00	1.9122	5.896237	0.000922	9.223640	3.125054	0.000369
  50	4.8755e+00	1.9540	6.194985	0.000750	7.500542	2.541253	0.000300
  51	4.9750e+00	1.9844	6.574476	0.000953	9.527716	3.228078	0.000381
  52	5.0745e+00	2.0261	6.945892	0.000932	9.324999	3.159395	0.000373
  53	5.1740e+00	2.0695	7.301160	0.000892	8.919564	3.022030	0.000357
  54	5.2735e+00	2.1064	7.595871	0.000740	7.399184	2.506911	0.000296
  55	5.3730e+00	2.1465	7.991510	0.000993	9.933151	3.365443	0.000398
  56	5.4725e+00	2.1882	8.362927	0.000932	9.324999	3.159395	0.000373
  57	5.5720e+00	2.2283	8.774715	0.001034	10.338585	3.502808	0.000414
  58	5.6715e+00	2.2636	9.113834	0.000851	8.514129	2.884665	0.000341
  59	5.7710e+00	2.3149	9.436805	0.000811	8.108694	2.747300	0.000325
  60	5.8705e+00	2.3470	9.812258	0.000943	9.426357	3.193736	0.000377
  61	5.9700e+00	2.3871	10.135229	0.000811	8.108694	2.747300	0.000325
  62	6.0695e+00	2.4336	10.530869	0.000993	9.933151	3.365443	0.000398
  63	6.1690e+00	2.4705	10.910359	0.000953	9.527716	3.228078	0.000381
  64	6.2685e+00	2.5042	11.213145	0.000760	7.601901	2.575594	0.000304
  65	6.3680e+00	2.5459	11.588598	0.000943	9.426357	3.193736	0.000377
  66	6.4675e+00	2.5876	11.923680	0.000841	8.412771	2.850324	0.000337
  67	6.5670e+00	2.6197	12.327394	0.001014	10.135868	3.434125	0.000406
  68	6.6665e+00	2.6710	12.642291	0.000791	7.905977	2.678618	0.000316
  69	6.7660e+00	2.7095	13.029856	0.000973	9.730433	3.296760	0.000390
  70	6.8655e+00	2.7384	13.393198	0.000912	9.122281	3.090713	0.000365
  71	6.9650e+00	2.7833	13.772689	0.000953	9.527716	3.228078	0.000381
  72	7.0645e+00	2.8202	14.095659	0.000811	8.108694	2.747300	0.000325
  73	7.1640e+00	2.8636	14.446890	0.000882	8.818205	2.987689	0.000353
  74	7.2635e+00	2.9005	14.818307	0.000932	9.324999	3.159395	0.000373
  75	7.3630e+00	2.9566	15.205872	0.000973	9.730433	3.296760	0.000390
  76	7.4625e+00	2.9871	15.524805	0.000801	8.007336	2.712959	0.000321
  77	7.5620e+00	3.0352	15.892185	0.000922	9.223640	3.125054	0.000369
  78	7.6615e+00	3.0641	16.255527	0.000912	9.122281	3.090713	0.000365
  79	7.7610e+00	3.1106	16.651166	0.000993	9.933151	3.365443	0.000398
  80	7.8605e+00	3.1443	16.994323	0.000862	8.615488	2.919006	0.000345
  81	7.9600e+00	3.1876	17.361702	0.000922	9.223640	3.125054	0.000369
  82	8.0595e+00	3.2341	17.745230	0.000963	9.629075	3.262419	0.000385
  83	8.1590e+00	3.2598	18.084350	0.000851	8.514129	2.884665	0.000341
  84	8.2585e+00	3.2999	18.475952	0.000983	9.831792	3.331101	0.000394
  85	8.3580e+00	3.3400	18.815071	0.000851	8.514129	2.884665	0.000341
  86	8.4575e+00	3.3849	19.182450	0.000922	9.223640	3.125054	0.000369
  87	8.5570e+00	3.4298	19.541756	0.000902	9.020923	3.056371	0.000361
  88	8.6565e+00	3.4651	19.905098	0.000912	9.122281	3.090713	0.000365
  89	8.7560e+00	3.5020	20.320923	0.001044	10.439944	3.537149	0.000418
  90	8.8555e+00	3.5518	20.647931	0.000821	8.210053	2.781641	0.000329
  91	8.9550e+00	3.5790	21.047607	0.001003	10.034509	3.399784	0.000402
  92	9.0545e+00	3.6127	21.370578	0.000811	8.108694	2.747300	0.000325
  93	9.1540e+00	3.6801	21.778329	0.001024	10.237227	3.468466	0.000410
  94	9.2535e+00	3.6929	22.101300	0.000811	8.108694	2.747300	0.000325
  95	9.3530e+00	3.7523	22.468679	0.000922	9.223640	3.125054	0.000369
  96	9.4525e+00	3.7860	22.848170	0.000953	9.527716	3.228078	0.000381
  97	9.5520e+00	3.8165	23.251883	0.001014	10.135868	3.434125	0.000406
  98	9.6515e+00	3.8518	23.599077	0.000872	8.716847	2.953348	0.000349
  99	9.7510e+00	3.9047	23.966456	0.000922	9.223640	3.125054	0.000369
 100	9.8505e+00	3.9512	24.321724	0.000892	8.919564	3.022030	0.000357
 101	9.9500e+00	3.9817	24.745624	0.001064	10.642662	3.605831	0.000426
 102	1.0050e+01	4.0122	25.072632	0.000821	8.210053	2.781641	0.000329
 103	1.0149e+01	4.0603	25.448085	0.000943	9.426357	3.193736	0.000377
 104	1.0248e+01	4.0940	25.807390	0.000902	9.020923	3.056371	0.000361
 105	1.0348e+01	4.1373	26.211104	0.001014	10.135868	3.434125	0.000406
 106	1.0447e+01	4.1903	26.558297	0.000872	8.716847	2.953348	0.000349
 107	1.0547e+01	4.2207	26.909528	0.000882	8.818205	2.987689	0.000353
 108	1.0646e+01	4.2705	27.325353	0.001044	10.439944	3.537149	0.000418
 109	1.0746e+01	4.2993	27.652361	0.000821	8.210053	2.781641	0.000329
 110	1.0845e+01	4.3394	28.027815	0.000943	9.426357	3.193736	0.000377
 111	1.0945e+01	4.3763	28.427491	0.001003	10.034509	3.399784	0.000402
 112	1.1044e+01	4.4229	28.790834	0.000912	9.122281	3.090713	0.000365
 113	1.1144e+01	4.4614	29.129953	0.000851	8.514129	2.884665	0.000341
 114	1.1243e+01	4.5031	29.529629	0.001003	10.034509	3.399784	0.000402
 115	1.1343e+01	4.5432	29.876823	0.000872	8.716847	2.953348	0.000349
 116	1.1443e+01	4.5769	30.232091	0.000892	8.919564	3.022030	0.000357
 117	1.1542e+01	4.6154	30.647916	0.001044	10.439944	3.537149	0.000418
 118	1.1642e+01	4.6619	30.974924	0.000821	8.210053	2.781641	0.000329
 119	1.1741e+01	4.7004	31.366526	0.000983	9.831792	3.331101	0.000394
 120	1.1841e+01	4.7485	31.709683	0.000862	8.615488	2.919006	0.000345
 121	1.1940e+01	4.7710	32.089173	0.000953	9.527716	3.228078	0.000381
 122	1.2040e+01	4.8159	32.472701	0.000963	9.629075	3.262419	0.000385
 123	1.2139e+01	4.8544	32.840081	0.000922	9.223640	3.125054	0.000369
 124	1.2239e+01	4.8977	33.223609	0.000963	9.629075	3.262419	0.000385
 125	1.2338e+01	4.9314	33.550617	0.000821	8.210053	2.781641	0.000329
 126	1.2438e+01	4.9811	33.942219	0.000983	9.831792	3.331101	0.000394
 127	1.2537e+01	5.0148	34.301524	0.000902	9.020923	3.056371	0.000361
 128	1.2636e+01	5.0614	34.681015	0.000953	9.527716	3.228078	0.000381
 129	1.2736e+01	5.0983	35.048394	0.000922	9.223640	3.125054	0.000369
 130	1.2835e+01	5.1351	35.395588	0.000872	8.716847	2.953348	0.000349
 131	1.2935e+01	5.1769	35.807375	0.001034	10.338585	3.502808	0.000414
 132	1.3034e+01	5.2105	36.194940	0.000973	9.730433	3.296760	0.000390
 133	1.3134e+01	5.2619	36.566357	0.000932	9.324999	3.159395	0.000373
 134	1.3233e+01	5.2988	36.925662	0.000902	9.020923	3.056371	0.000361
 135	1.3333e+01	5.3437	37.297079	0.000932	9.324999	3.159395	0.000373
 136	1.3432e+01	5.3774	37.632161	0.000841	8.412771	2.850324	0.000337
 137	1.3532e+01	5.4191	37.995503	0.000912	9.122281	3.090713	0.000365
 138	1.3632e+01	5.4592	38.366919	0.000932	9.324999	3.159395	0.000373
 139	1.3731e+01	5.4929	38.774670	0.001024	10.237227	3.468466	0.000410
 140	1.3831e+01	5.5330	39.089567	0.000791	7.905977	2.678618	0.000316
 141	1.3930e+01	5.5795	39.521540	0.001085	10.845379	3.674514	0.000434
 142	1.4030e+01	5.6132	39.848548	0.000821	8.210053	2.781641	0.000329
 143	1.4129e+01	5.6517	40.248225	0.001003	10.034509	3.399784	0.000402
 144	1.4229e+01	5.6998	40.611567	0.000912	9.122281	3.090713	0.000365
 145	1.4328e+01	5.7335	40.999132	0.000973	9.730433	3.296760	0.000390
 146	1.4428e+01	5.7817	41.309991	0.000780	7.804618	2.644276	0.000312
 147	1.4527e+01	5.8186	41.705631	0.000993	9.933151	3.365443	0.000398
 148	1.4627e+01	5.8731	42.077047	0.000932	9.324999	3.159395	0.000373
 149	1.4726e+01	5.9068	42.420204	0.000862	8.615488	2.919006	0.000345
 150	1.4825e+01	5.9325	42.848140	0.001074	10.744020	3.640173	0.000430
 151	1.4925e+01	5.9758	43.187260	0.000851	8.514129	2.884665	0.000341
 152	1.5024e+01	6.0111	43.554639	0.000922	9.223640	3.125054	0.000369
 153	1.5124e+01	6.0464	43.909907	0.000892	8.919564	3.022030	0.000357
 154	1.5223e+01	6.0993	44.297472	0.000973	9.730433	3.296760	0.000390
 155	1.5323e+01	6.1330	44.709260	0.001034	10.338585	3.502808	0.000414
 156	1.5422e+01	6.1715	45.040305	0.000831	8.311412	2.815983	0.000333
 157	1.5522e+01	6.2180	45.419796	0.000953	9.527716	3.228078	0.000381
 158	1.5621e+01	6.2549	45.799286	0.000953	9.527716	3.228078	0.000381
 159	1.5721e+01	6.2966	46.186851	0.000973	9.730433	3.296760	0.000390
 160	1.5820e+01	6.3351	46.513859	0.000821	8.210053	2.781641	0.000329
 161	1.5920e+01	6.3688	46.901424	0.000973	9.730433	3.296760	0.000390
 162	1.6020e+01	6.4185	47.252655	0.000882	8.818205	2.987689	0.000353
 163	1.6119e+01	6.4522	47.632146	0.000953	9.527716	3.228078	0.000381
 164	1.6218e+01	6.4939	47.987414	0.000892	8.919564	3.022030	0.000357
 165	1.6318e+01	6.5292	48.326533	0.000851	8.514129	2.884665	0.000341
 166	1.6418e+01	6.5774	48.726210	0.001003	10.034509	3.399784	0.000402
 167	1.6517e+01	6.6207	49.085515	0.000902	9.020923	3.056371	0.000361
 168	1.6616e+01	6.6528	49.436746	0.000882	8.818205	2.987689	0.000353
 169	1.6716e+01	6.6929	49.783939	0.000872	8.716847	2.953348	0.000349
 170	1.6816e+01	6.7201	50.167467	0.000963	9.629075	3.262419	0.000385
 171	1.6915e+01	6.7650	50.502550	0.000841	8.412771	2.850324	0.000337
 172	1.7015e+01	6.8068	50.910300	0.001024	10.237227	3.468466	0.000410
 173	1.7114e+01	6.8517	51.269605	0.000902	9.020923	3.056371	0.000361
 174	1.7213e+01	6.8886	51.657170	0.000973	9.730433	3.296760	0.000390
 175	1.7313e+01	6.9303	52.008401	0.000882	8.818205	2.987689	0.000353
 176	1.7413e+01	6.9752	52.375780	0.000922	9.223640	3.125054	0.000369
 177	1.7512e+01	7.0057	52.706826	0.000831	8.311412	2.815983	0.000333
 178	1.7611e+01	7.0458	53.102465	0.000993	9.933151	3.365443	0.000398
 179	1.7711e+01	7.0859	53.453696	0.000882	8.818205	2.987689	0.000353
 180	1.7811e+01	7.1292	53.792815	0.000851	8.514129	2.884665	0.000341
 181	1.7910e+01	7.1661	54.172306	0.000953	9.527716	3.228078	0.000381
 182	1.8009e+01	7.2158	54.555834	0.000963	9.629075	3.262419	0.000385
 183	1.8109e+01	7.2495	54.903027	0.000872	8.716847	2.953348	0.000349
 184	1.8209e+01	7.2880	55.258295	0.000892	8.919564	3.022030	0.000357
 185	1.8308e+01	7.3185	55.633749	0.000943	9.426357	3.193736	0.000377
 186	1.8407e+01	7.3570	56.005166	0.000932	9.324999	3.159395	0.000373
 187	1.8507e+01	7.3971	56.356396	0.000882	8.818205	2.987689	0.000353
 188	1.8607e+01	7.4581	56.711664	0.000892	8.919564	3.022030	0.000357
 189	1.8706e+01	7.4918	57.042709	0.000831	8.311412	2.815983	0.000333
 190	1.8805e+01	7.5271	57.462572	0.001054	10.541303	3.571490	0.000422
 191	1.8905e+01	7.5607	57.821877	0.000902	9.020923	3.056371	0.000361
 192	1.9005e+01	7.6201	58.181182	0.000902	9.020923	3.056371	0.000361
 193	1.9104e+01	7.6426	58.504153	0.000811	8.108694	2.747300	0.000325
 194	1.9203e+01	7.6811	58.883643	0.000953	9.527716	3.228078	0.000381
 195	1.9303e+01	7.7276	59.251023	0.000922	9.223640	3.125054	0.000369
 196	1.9402e+01	7.7661	59.626476	0.000943	9.426357	3.193736	0.000377
 197	1.9502e+01	7.8046	59.969633	0.000862	8.615488	2.919006	0.000345
 198	1.9602e+01	7.8399	60.393532	0.001064	10.642662	3.605831	0.000426
 199	1.9701e+01	7.8848	60.736689	0.000862	8.615488	2.919006	0.000345
 200	1.9800e+01	7.9185	61.083882	0.000872	8.716847	2.953348	0.000349
 201	1.9900e+01	7.9570	61.447225	0.000912	9.122281	3.090713	0.000365
 202	2.0000e+01	8.0003	61.794418	0.000872	8.716847	2.953348	0.000349
 203	2.0099e+01	8.0565	62.186020	0.000983	9.831792	3.331101	0.000394
 204	2.0198e+01	8.0869	62.537251	0.000882	8.818205	2.987689	0.000353
 205	2.0298e+01	8.1335	62.868296	0.000831	8.311412	2.815983	0.000333
 206	2.0398e+01	8.1671	63.251824	0.000963	9.629075	3.262419	0.000385
 207	2.0497e+01	8.2073	63.603055	0.000882	8.818205	2.987689	0.000353
 208	2.0596e+01	8.2442	63.958323	0.000892	8.919564	3.022030	0.000357
 209	2.0696e+01	8.2762	64.297442	0.000851	8.514129	2.884665	0.000341
 210	2.0796e+01	8.3196	64.668859	0.000932	9.324999	3.159395	0.000373
 211	2.0895e+01	8.3564	65.084684	0.001044	10.439944	3.537149	0.000418
 212	2.0994e+01	8.4062	65.411692	0.000821	8.210053	2.781641	0.000329
 213	2.1094e+01	8.4335	65.750811	0.000851	8.514129	2.884665	0.000341
 214	2.1194e+01	8.4880	66.126265	0.000943	9.426357	3.193736	0.000377
 215	2.1293e+01	8.5137	66.509793	0.000963	9.629075	3.262419	0.000385
 216	2.1392e+01	8.5602	66.861024	0.000882	8.818205	2.987689	0.000353
 217	2.1492e+01	8.6051	67.200143	0.000851	8.514129	2.884665	0.000341
 218	2.1591e+01	8.6516	67.567522	0.000922	9.223640	3.125054	0.000369
 219	2.1691e+01	8.6821	67.906642	0.000851	8.514129	2.884665	0.000341
 220	2.1791e+01	8.7238	68.326504	0.001054	10.541303	3.571490	0.000422
 221	2.1890e+01	8.7703	68.617178	0.000730	7.297825	2.472570	0.000292
 222	2.1989e+01	8.7960	69.033003	0.001044	10.439944	3.537149	0.000418
 223	2.2089e+01	8.8409	69.376159	0.000862	8.615488	2.919006	0.000345
 224	2.2189e+01	8.8810	69.731427	0.000892	8.919564	3.022030	0.000357
 225	2.2288e+01	8.9260	70.082658	0.000882	8.818205	2.987689	0.000353
 226	2.2387e+01	8.9645	70.425814	0.000862	8.615488	2.919006	0.000345
 227	2.2487e+01	8.9965	70.817417	0.000983	9.831792	3.331101	0.000394
 228	2.2587e+01	9.0350	71.152499	0.000841	8.412771	2.850324	0.000337
 229	2.2686e+01	9.0880	71.523915	0.000932	9.324999	3.159395	0.000373
 230	2.2785e+01	9.1153	71.854960	0.000831	8.311412	2.815983	0.000333
 231	2.2885e+01	9.1618	72.214266	0.000902	9.020923	3.056371	0.000361
 232	2.2985e+01	9.1955	72.573571	0.000902	9.020923	3.056371	0.000361
 233	2.3084e+01	9.2356	72.936913	0.000912	9.122281	3.090713	0.000365
 234	2.3183e+01	9.2693	73.280069	0.000862	8.615488	2.919006	0.000345
 235	2.3283e+01	9.3158	73.655523	0.000943	9.426357	3.193736	0.000377
 236	2.3383e+01	9.3575	73.978494	0.000811	8.108694	2.747300	0.000325
 237	2.3482e+01	9.4056	74.325688	0.000872	8.716847	2.953348	0.000349
 238	2.3581e+01	9.4377	74.672881	0.000872	8.716847	2.953348	0.000349
 239	2.3681e+01	9.4810	75.036223	0.000912	9.122281	3.090713	0.000365
 240	2.3780e+01	9.5147	75.407640	0.000932	9.324999	3.159395	0.000373
 241	2.3880e+01	9.5612	75.783094	0.000943	9.426357	3.193736	0.000377
 242	2.3980e+01	9.6029	76.118176	0.000841	8.412771	2.850324	0.000337
 243	2.4079e+01	9.6495	76.481518	0.000912	9.122281	3.090713	0.000365
 244	2.4178e+01	9.6767	76.804489	0.000811	8.108694	2.747300	0.000325
 245	2.4278e+01	9.7152	77.155720	0.000882	8.818205	2.987689	0.000353
 246	2.4378e+01	9.7553	77.515025	0.000902	9.020923	3.056371	0.000361
 247	2.4477e+01	9.7987	77.886441	0.000932	9.324999	3.159395	0.000373
 248	2.4576e+01	9.8339	78.213449	0.000821	8.210053	2.781641	0.000329
 249	2.4676e+01	9.8708	78.584866	0.000932	9.324999	3.159395	0.000373
 250	2.4776e+01	9.9238	78.919948	0.000841	8.412771	2.850324	0.000337
 251	2.4875e+01	9.9607	79.319624	0.001003	10.034509	3.399784	0.000402
 252	2.4974e+01	10.0024	79.646632	0.000821	8.210053	2.781641	0.000329
 253	2.5074e+01	10.0393	80.018049	0.000932	9.324999	3.159395	0.000373
 254	2.5174e+01	10.0826	80.357168	0.000851	8.514129	2.884665	0.000341
 255	2.5273e+01	10.1179	80.712436	0.000892	8.919564	3.022030	0.000357
 256	2.5372e+01	10.1516	81.031370	0.000801	8.007336	2.712959	0.000321
 257	2.5472e+01	10.1949	81.431046	0.001003	10.034509	3.399784	0.000402
 258	2.5572e+01	10.2350	81.794389	0.000912	9.122281	3.090713	0.000365
 259	2.5671e+01	10.2847	82.109285	0.000791	7.905977	2.678618	0.000316
 260	2.5770e+01	10.3152	82.517036	0.001024	10.237227	3.468466	0.000410
 261	2.5870e+01	10.3473	82.840007	0.000811	8.108694	2.747300	0.000325
 262	2.5970e+01	10.3954	83.187200	0.000872	8.716847	2.953348	0.000349
 263	2.6069e+01	10.4420	83.534394	0.000872	8.716847	2.953348	0.000349
 264	2.6169e+01	10.4708	83.889662	0.000892	8.919564	3.022030	0.000357
 265	2.6268e+01	10.5190	84.285301	0.000993	9.933151	3.365443	0.000398
 266	2.6367e+01	10.5494	84.612309	0.000821	8.210053	2.781641	0.000329
 267	2.6467e+01	10.6024	84.975652	0.000912	9.122281	3.090713	0.000365
 268	2.6567e+01	10.6425	85.290548	0.000791	7.905977	2.678618	0.000316
 269	2.6666e+01	10.6778	85.678113	0.000973	9.730433	3.296760	0.000390
 270	2.6765e+01	10.7195	86.001084	0.000811	8.108694	2.747300	0.000325
 271	2.6865e+01	10.7564	86.307906	0.000770	7.703260	2.609935	0.000308
 272	2.6965e+01	10.7981	86.731806	0.001064	10.642662	3.605831	0.000426
 273	2.7064e+01	10.8318	87.046702	0.000791	7.905977	2.678618	0.000316
 274	2.7163e+01	10.8719	87.389859	0.000862	8.615488	2.919006	0.000345
 275	2.7263e+01	10.9120	87.733015	0.000862	8.615488	2.919006	0.000345
 276	2.7363e+01	10.9553	88.112506	0.000953	9.527716	3.228078	0.000381
 277	2.7462e+01	11.0018	88.483923	0.000932	9.324999	3.159395	0.000373
 278	2.7561e+01	11.0291	88.802856	0.000801	8.007336	2.712959	0.000321
 279	2.7661e+01	11.0708	89.141976	0.000851	8.514129	2.884665	0.000341
 280	2.7761e+01	11.1109	89.489169	0.000872	8.716847	2.953348	0.000349
 281	2.7860e+01	11.1430	89.884809	0.000993	9.933151	3.365443	0.000398
 282	2.7959e+01	11.1975	90.219891	0.000841	8.412771	2.850324	0.000337
 283	2.8059e+01	11.2312	90.506528	0.000720	7.196466	2.438229	0.000288
 284	2.8159e+01	11.2762	90.906204	0.001003	10.034509	3.399784	0.000402
 285	2.8258e+01	11.3098	91.249361	0.000862	8.615488	2.919006	0.000345
 286	2.8358e+01	11.3467	91.604628	0.000892	8.919564	3.022030	0.000357
 287	2.8457e+01	11.3933	91.959896	0.000892	8.919564	3.022030	0.000357
 288	2.8556e+01	11.4302	92.258644	0.000750	7.500542	2.541253	0.000300
 289	2.8656e+01	11.4703	92.654284	0.000993	9.933151	3.365443	0.000398
 290	2.8756e+01	11.5088	92.969180	0.000791	7.905977	2.678618	0.000316
 291	2.8855e+01	11.5505	93.332523	0.000912	9.122281	3.090713	0.000365
 292	2.8954e+01	11.5890	93.663568	0.000831	8.311412	2.815983	0.000333
 293	2.9054e+01	11.6339	94.006724	0.000862	8.615488	2.919006	0.000345
 294	2.9154e+01	11.6772	94.357955	0.000882	8.818205	2.987689	0.000353
 295	2.9253e+01	11.7141	94.777817	0.001054	10.541303	3.571490	0.000422
 296	2.9352e+01	11.7430	95.068491	0.000730	7.297825	2.472570	0.000292
 297	2.9452e+01	11.7991	95.407610	0.000851	8.514129	2.884665	0.000341
 298	2.9552e+01	11.8232	95.758841	0.000882	8.818205	2.987689	0.000353
 299	2.9651e+01	11.8745	96.097961	0.000851	8.514129	2.884665	0.000341
 300	2.9750e+01	11.9098	96.461303	0.000912	9.122281	3.090713	0.000365
 301	2.9850e+01	11.9547	96.788311	0.000821	8.210053	2.781641	0.000329
 302	2.9950e+01	11.9948	97.159727	0.000932	9.324999	3.159395	0.000373
 303	3.0049e+01	12.0317	97.519032	0.000902	9.020923	3.056371	0.000361
 304	3.0148e+01	12.0606	97.854115	0.000841	8.412771	2.850324	0.000337
 305	3.0248e+01	12.1120	98.201308	0.000872	8.716847	2.953348	0.000349
 306	3.0348e+01	12.1521	98.560613	0.000902	9.020923	3.056371	0.000361
 307	3.0447e+01	12.1906	98.883584	0.000811	8.108694	2.747300	0.000325
 308	3.0547e+01	12.2387	99.218666	0.000841	8.412771	2.850324	0.000337
 309	3.0646e+01	12.2740	99.586046	0.000922	9.223640	3.125054	0.000369
 310	3.0745e+01	12.3077	99.892868	0.000770	7.703260	2.609935	0.000308
 311	3.0845e+01	12.3510	100.280433	0.000973	9.730433	3.296760	0.000390
 312	3.0945e+01	12.3879	100.631664	0.000882	8.818205	2.987689	0.000353
 313	3.1044e+01	12.4280	100.978858	0.000872	8.716847	2.953348	0.000349
 314	3.1143e+01	12.4713	101.289717	0.000780	7.804618	2.644276	0.000312
 315	3.1243e+01	12.5130	101.616725	0.000821	8.210053	2.781641	0.000329
 316	3.1343e+01	12.5563	102.004290	0.000973	9.730433	3.296760	0.000390
 317	3.1442e+01	12.5884	102.355521	0.000882	8.818205	2.987689	0.000353
 318	3.1541e+01	12.6189	102.702715	0.000872	8.716847	2.953348	0.000349
 319	3.1641e+01	12.6734	103.037797	0.000841	8.412771	2.850324	0.000337
 320	3.1741e+01	12.7151	103.393065	0.000892	8.919564	3.022030	0.000357
 321	3.1840e+01	12.7488	103.748333	0.000892	8.919564	3.022030	0.000357
 322	3.1939e+01	12.7986	104.079378	0.000831	8.311412	2.815983	0.000333
 323	3.2039e+01	12.8258	104.390237	0.000780	7.804618	2.644276	0.000312
 324	3.2139e+01	12.8756	104.789914	0.001003	10.034509	3.399784	0.000402
 325	3.2238e+01	12.9173	105.137107	0.000872	8.716847	2.953348	0.000349
 326	3.2337e+01	12.9542	105.460078	0.000811	8.108694	2.747300	0.000325
 327	3.2437e+01	12.9766	105.787086	0.000821	8.210053	2.781641	0.000329
 328	3.2536e+01	13.0216	106.106020	0.000801	8.007336	2.712959	0.000321
 329	3.2636e+01	13.0665	106.481474	0.000943	9.426357	3.193736	0.000377
 330	3.2736e+01	13.0986	106.796370	0.000791	7.905977	2.678618	0.000316
 331	3.2835e+01	13.1371	107.135490	0.000851	8.514129	2.884665	0.000341
 332	3.2934e+01	13.1900	107.502869	0.000922	9.223640	3.125054	0.000369
 333	3.3034e+01	13.2189	107.821803	0.000801	8.007336	2.712959	0.000321
 334	3.3133e+01	13.2606	108.136699	0.000791	7.905977	2.678618	0.000316
 335	3.3233e+01	13.2991	108.504079	0.000922	9.223640	3.125054	0.000369
 336	3.3333e+01	13.3408	108.843198	0.000851	8.514129	2.884665	0.000341
 337	3.3432e+01	13.3857	109.210577	0.000922	9.223640	3.125054	0.000369
 338	3.3532e+01	13.4162	109.537585	0.000821	8.210053	2.781641	0.000329
 339	3.3631e+01	13.4675	109.876705	0.000851	8.514129	2.884665	0.000341
 340	3.3730e+01	13.4916	110.199676	0.000811	8.108694	2.747300	0.000325
 341	3.3830e+01	13.5365	110.550906	0.000882	8.818205	2.987689	0.000353
 342	3.3929e+01	13.5911	110.894063	0.000862	8.615488	2.919006	0.000345
 343	3.4029e+01	13.6231	111.208960	0.000791	7.905977	2.678618	0.000316
 344	3.4129e+01	13.6649	111.564228	0.000892	8.919564	3.022030	0.000357
 345	3.4228e+01	13.6985	111.911421	0.000872	8.716847	2.953348	0.000349
 346	3.4328e+01	13.7435	112.242466	0.000831	8.311412	2.815983	0.000333
 347	3.4427e+01	13.7804	112.577549	0.000841	8.412771	2.850324	0.000337
 348	3.4526e+01	13.8237	112.852074	0.000689	6.892390	2.335205	0.000276
 349	3.4626e+01	13.8622	113.259825	0.001024	10.237227	3.468466	0.000410
 350	3.4725e+01	13.9087	113.562610	0.000760	7.601901	2.575594	0.000304
 351	3.4825e+01	13.9376	113.905766	0.000862	8.615488	2.919006	0.000345
 352	3.4925e+01	13.9793	114.204514	0.000750	7.500542	2.541253	0.000300
 353	3.5024e+01	14.0162	114.588042	0.000963	9.629075	3.262419	0.000385
 354	3.5123e+01	14.0515	114.927162	0.000851	8.514129	2.884665	0.000341
 355	3.5223e+01	14.1028	115.246095	0.000801	8.007336	2.712959	0.000321
 356	3.5322e+01	14.1461	115.565029	0.000801	8.007336	2.712959	0.000321
 357	3.5422e+01	14.1798	115.920297	0.000892	8.919564	3.022030	0.000357
 358	3.5522e+01	14.2167	116.271528	0.000882	8.818205	2.987689	0.000353
 359	3.5621e+01	14.2584	116.582387	0.000780	7.804618	2.644276	0.000312
 360	3.5721e+01	14.2889	116.921507	0.000851	8.514129	2.884665	0.000341
 361	3.5820e+01	14.3499	117.280812	0.000902	9.020923	3.056371	0.000361
 362	3.5919e+01	14.3852	117.587634	0.000770	7.703260	2.609935	0.000308
 363	3.6019e+01	14.4156	117.922716	0.000841	8.412771	2.850324	0.000337
 364	3.6118e+01	14.4541	118.265873	0.000862	8.615488	2.919006	0.000345
 365	3.6218e+01	14.4942	118.572695	0.000770	7.703260	2.609935	0.000308
 366	3.6318e+01	14.5424	118.927963	0.000892	8.919564	3.022030	0.000357
 367	3.6417e+01	14.5793	119.263045	0.000841	8.412771	2.850324	0.000337
 368	3.6517e+01	14.6210	119.581979	0.000801	8.007336	2.712959	0.000321
 369	3.6616e+01	14.6531	119.921099	0.000851	8.514129	2.884665	0.000341
 370	3.6715e+01	14.6980	120.280404	0.000902	9.020923	3.056371	0.000361
 371	3.6815e+01	14.7413	120.587226	0.000770	7.703260	2.609935	0.000308
 372	3.6914e+01	14.7734	120.922308	0.000841	8.412771	2.850324	0.000337
 373	3.7014e+01	14.8135	121.245279	0.000811	8.108694	2.747300	0.000325
 374	3.7114e+01	14.8568	121.588436	0.000862	8.615488	2.919006	0.000345
 375	3.7213e+01	14.8937	121.947741	0.000902	9.020923	3.056371	0.000361
 376	3.7313e+01	14.9370	122.246489	0.000750	7.500542	2.541253	0.000300
 377	3.7412e+01	14.9659	122.585608	0.000851	8.514129	2.884665	0.000341
 378	3.7511e+01	15.0188	122.904542	0.000801	8.007336	2.712959	0.000321
 379	3.7611e+01	15.0525	123.231550	0.000821	8.210053	2.781641	0.000329
 380	3.7711e+01	15.0958	123.566632	0.000841	8.412771	2.850324	0.000337
 381	3.7810e+01	15.1359	123.897677	0.000831	8.311412	2.815983	0.000333
 382	3.7910e+01	15.1760	124.236797	0.000851	8.514129	2.884665	0.000341
 383	3.8009e+01	15.2210	124.567842	0.000831	8.311412	2.815983	0.000333
 384	3.8108e+01	15.2514	124.902924	0.000841	8.412771	2.850324	0.000337
 385	3.8208e+01	15.2964	125.185524	0.000710	7.095108	2.403888	0.000284
 386	3.8307e+01	15.3300	125.536754	0.000882	8.818205	2.987689	0.000353
 387	3.8407e+01	15.3814	125.883948	0.000872	8.716847	2.953348	0.000349
 388	3.8507e+01	15.4199	126.186733	0.000760	7.601901	2.575594	0.000304
 389	3.8606e+01	15.4584	126.529890	0.000862	8.615488	2.919006	0.000345
 390	3.8706e+01	15.4873	126.828638	0.000750	7.500542	2.541253	0.000300
 391	3.8805e+01	15.5226	127.191980	0.000912	9.122281	3.090713	0.000365
 392	3.8904e+01	15.5755	127.539174	0.000872	8.716847	2.953348	0.000349
 393	3.9004e+01	15.6092	127.817736	0.000699	6.993749	2.369546	0.000280
 394	3.9103e+01	15.6461	128.173004	0.000892	8.919564	3.022030	0.000357
 395	3.9203e+01	15.6878	128.483863	0.000780	7.804618	2.644276	0.000312
 396	3.9303e+01	15.7359	128.818946	0.000841	8.412771	2.850324	0.000337
 397	3.9402e+01	15.7744	129.145954	0.000821	8.210053	2.781641	0.000329
 398	3.9502e+01	15.8145	129.436627	0.000730	7.297825	2.472570	0.000292
 399	3.9601e+01	15.8530	129.832267	0.000993	9.933151	3.365443	0.000398
 400	3.9700e+01	15.8915	130.102755	0.000679	6.791032	2.300864	0.000272
 401	3.9800e+01	15.9316	130.437837	0.000841	8.412771	2.850324	0.000337
 402	3.9900e+01	15.9589	130.744659	0.000770	7.703260	2.609935	0.000308
 403	3.9999e+01	16.0135	131.083779	0.000851	8.514129	2.884665	0.000341
 404	4.0099e+01	16.0487	131.410787	0.000821	8.210053	2.781641	0.000329
 405	4.0198e+01	16.0840	131.729721	0.000801	8.007336	2.712959	0.000321
 406	4.0297e+01	16.1322	132.040580	0.000780	7.804618	2.644276	0.000312
 407	4.0397e+01	16.1739	132.355477	0.000791	7.905977	2.678618	0.000316
 408	4.0496e+01	16.2092	132.690559	0.000841	8.412771	2.850324	0.000337
 409	4.0596e+01	16.2509	133.017567	0.000821	8.210053	2.781641	0.000329
 410	4.0696e+01	16.3006	133.304204	0.000720	7.196466	2.438229	0.000288
 411	4.0795e+01	16.3247	133.631211	0.000821	8.210053	2.781641	0.000329
 412	4.0895e+01	16.3728	133.950145	0.000801	8.007336	2.712959	0.000321
 413	4.0994e+01	16.4113	134.333673	0.000963	9.629075	3.262419	0.000385
 414	4.1093e+01	16.4530	134.628384	0.000740	7.399184	2.506911	0.000296
 415	4.1193e+01	16.4787	134.955392	0.000821	8.210053	2.781641	0.000329
 416	4.1292e+01	16.5300	135.233954	0.000699	6.993749	2.369546	0.000280
 417	4.1392e+01	16.5669	135.597297	0.000912	9.122281	3.090713	0.000365
 418	4.1492e+01	16.6118	135.892008	0.000740	7.399184	2.506911	0.000296
 419	4.1591e+01	16.6471	136.219016	0.000821	8.210053	2.781641	0.000329
 420	4.1691e+01	16.6985	136.541986	0.000811	8.108694	2.747300	0.000325
 421	4.1790e+01	16.7273	136.824586	0.000710	7.095108	2.403888	0.000284
 422	4.1889e+01	16.7739	137.159668	0.000841	8.412771	2.850324	0.000337
 423	4.1989e+01	16.8043	137.494750	0.000841	8.412771	2.850324	0.000337
 424	4.2089e+01	16.8573	137.801573	0.000770	7.703260	2.609935	0.000308
 425	4.2188e+01	16.8781	138.108395	0.000770	7.703260	2.609935	0.000308
 426	4.2288e+01	16.9343	138.475774	0.000922	9.223640	3.125054	0.000369
 427	4.2387e+01	16.9680	138.798745	0.000811	8.108694	2.747300	0.000325
 428	4.2486e+01	17.0113	139.097493	0.000750	7.500542	2.541253	0.000300
 429	4.2586e+01	17.0466	139.420464	0.000811	8.108694	2.747300	0.000325
 430	4.2685e+01	17.0867	139.751509	0.000831	8.311412	2.815983	0.000333
 431	4.2785e+01	17.1236	140.074480	0.000811	8.108694	2.747300	0.000325
 432	4.2885e+01	17.1637	140.381302	0.000770	7.703260	2.609935	0.000308
 433	4.2984e+01	17.2086	140.680050	0.000750	7.500542	2.541253	0.000300
 434	4.3084e+01	17.2519	141.023207	0.000862	8.615488	2.919006	0.000345
 435	4.3183e+01	17.2936	141.338104	0.000791	7.905977	2.678618	0.000316
 436	4.3282e+01	17.3305	141.648963	0.000780	7.804618	2.644276	0.000312
 437	4.3382e+01	17.3722	141.955785	0.000770	7.703260	2.609935	0.000308
 438	4.3481e+01	17.4027	142.250496	0.000740	7.399184	2.506911	0.000296
 439	4.3581e+01	17.4444	142.625950	0.000943	9.426357	3.193736	0.000377
 440	4.3681e+01	17.5006	142.924698	0.000750	7.500542	2.541253	0.000300
 441	4.3780e+01	17.5182	143.259780	0.000841	8.412771	2.850324	0.000337
 442	4.3880e+01	17.5680	143.562565	0.000760	7.601901	2.575594	0.000304
 443	4.3979e+01	17.6097	143.865351	0.000760	7.601901	2.575594	0.000304
 444	4.4078e+01	17.6498	144.180247	0.000791	7.905977	2.678618	0.000316
 445	4.4178e+01	17.6915	144.511292	0.000831	8.311412	2.815983	0.000333
 446	4.4278e+01	17.7236	144.801966	0.000730	7.297825	2.472570	0.000292
 447	4.4377e+01	17.7589	145.112826	0.000780	7.804618	2.644276	0.000312
 448	4.4477e+01	17.8102	145.443871	0.000831	8.311412	2.815983	0.000333
 449	4.4576e+01	17.8455	145.758767	0.000791	7.905977	2.678618	0.000316
 450	4.4675e+01	17.8792	146.053478	0.000740	7.399184	2.506911	0.000296
 451	4.4775e+01	17.9257	146.396635	0.000862	8.615488	2.919006	0.000345
 452	4.4874e+01	17.9642	146.691346	0.000740	7.399184	2.506911	0.000296
 453	4.4974e+01	18.0027	146.982019	0.000730	7.297825	2.472570	0.000292
 454	4.5074e+01	18.0460	147.300953	0.000801	8.007336	2.712959	0.000321
 455	4.5173e+01	18.0765	147.619887	0.000801	8.007336	2.712959	0.000321
 456	4.5273e+01	18.1182	147.950932	0.000831	8.311412	2.815983	0.000333
 457	4.5372e+01	18.1599	148.213346	0.000659	6.588314	2.232181	0.000264
 458	4.5471e+01	18.1936	148.552465	0.000851	8.514129	2.884665	0.000341
 459	4.5571e+01	18.2417	148.871399	0.000801	8.007336	2.712959	0.000321
 460	4.5670e+01	18.2931	149.162073	0.000730	7.297825	2.472570	0.000292
 461	4.5770e+01	18.3300	149.497155	0.000841	8.412771	2.850324	0.000337
 462	4.5870e+01	18.3669	149.844349	0.000872	8.716847	2.953348	0.000349
 463	4.5969e+01	18.4054	150.118874	0.000689	6.892390	2.335205	0.000276
 464	4.6069e+01	18.4503	150.401473	0.000710	7.095108	2.403888	0.000284
 465	4.6168e+01	18.4840	150.720407	0.000801	8.007336	2.712959	0.000321
 466	4.6267e+01	18.5321	151.063564	0.000862	8.615488	2.919006	0.000345
 467	4.6367e+01	18.5658	151.358275	0.000740	7.399184	2.506911	0.000296
 468	4.6467e+01	18.6107	151.640874	0.000710	7.095108	2.403888	0.000284
 469	4.6566e+01	18.6396	151.951733	0.000780	7.804618	2.644276	0.000312
 470	4.6666e+01	18.6861	152.266630	0.000791	7.905977	2.678618	0.000316
 471	4.6765e+01	18.7214	152.569415	0.000760	7.601901	2.575594	0.000304
 472	4.6864e+01	18.7519	152.896423	0.000821	8.210053	2.781641	0.000329
 473	4.6964e+01	18.8000	153.199208	0.000760	7.601901	2.575594	0.000304
 474	4.7063e+01	18.8449	153.526216	0.000821	8.210053	2.781641	0.000329
 475	4.7163e+01	18.8866	153.812853	0.000720	7.196466	2.438229	0.000288
 476	4.7263e+01	18.9332	154.099490	0.000720	7.196466	2.438229	0.000288
 477	4.7362e+01	18.9604	154.442646	0.000862	8.615488	2.919006	0.000345
 478	4.7462e+01	19.0053	154.741394	0.000750	7.500542	2.541253	0.000300
 479	4.7561e+01	19.0406	155.036105	0.000740	7.399184	2.506911	0.000296
 480	4.7660e+01	19.0888	155.351002	0.000791	7.905977	2.678618	0.000316
 481	4.7760e+01	19.1160	155.686084	0.000841	8.412771	2.850324	0.000337
 482	4.7859e+01	19.1610	155.948498	0.000659	6.588314	2.232181	0.000264
 483	4.7959e+01	19.2011	156.263394	0.000791	7.905977	2.678618	0.000316
 484	4.8059e+01	19.2396	156.626737	0.000912	9.122281	3.090713	0.000365
 485	4.8158e+01	19.2813	156.881076	0.000639	6.385597	2.163499	0.000256
 486	4.8258e+01	19.3150	157.167713	0.000720	7.196466	2.438229	0.000288
 487	4.8357e+01	19.3599	157.470498	0.000760	7.601901	2.575594	0.000304
 488	4.8456e+01	19.4080	157.789432	0.000801	8.007336	2.712959	0.000321
 489	4.8556e+01	19.4369	158.136625	0.000872	8.716847	2.953348	0.000349
 490	4.8656e+01	19.4834	158.366742	0.000578	5.777445	1.957451	0.000231
 491	4.8755e+01	19.5203	158.681639	0.000791	7.905977	2.678618	0.000316
 492	4.8855e+01	19.5620	158.976350	0.000740	7.399184	2.506911	0.000296
 493	4.8954e+01	19.5861	159.323543	0.000872	8.716847	2.953348	0.000349
 494	4.9053e+01	19.6342	159.610180	0.000720	7.196466	2.438229	0.000288
 495	4.9153e+01	19.6727	159.961411	0.000882	8.818205	2.987689	0.000353
 496	4.9252e+01	19.7224	160.231899	0.000679	6.791032	2.300864	0.000272
 497	4.9352e+01	19.7577	160.550833	0.000801	8.007336	2.712959	0.000321
 498	4.9452e+01	19.8010	160.837469	0.000720	7.196466	2.438229	0.000288
 499	4.9551e+01	19.8363	161.156403	0.000801	8.007336	2.712959	0.000321
 500	4.9651e+01	19.8764	161.443040	0.000720	7.196466	2.438229	0.000288
 501	4.9750e+01	19.9101	161.745825	0.000760	7.601901	2.575594	0.000304
 502	4.9849e+01	19.9551	162.048610	0.000760	7.601901	2.575594	0.000304
 503	4.9949e+01	20.0000	162.331209	0.000710	7.095108	2.403888	0.000284
 504	5.0048e+01	19.9551	162.149538	0.000456	4.561141	1.545356	-0.000183
 505	5.0148e+01	19.9182	161.943644	0.000517	5.169293	1.751404	-0.000207
 506	5.0248e+01	19.8684	161.737751	0.000517	5.169293	1.751404	-0.000207
 507	5.0347e+01	19.8412	161.523782	0.000537	5.372010	1.820086	-0.000215
 508	5.0447e+01	19.8010	161.309814	0.000537	5.372010	1.820086	-0.000215
 509	5.0546e+01	19.7609	161.120069	0.000476	4.763858	1.614039	-0.000191
 510	5.0645e+01	19.7192	160.902063	0.000547	5.473369	1.854428	-0.000219
 511	5.0745e+01	19.6775	160.675984	0.000568	5.676086	1.923110	-0.000227
 512	5.0844e+01	19.6342	160.417607	0.000649	6.486956	2.197840	-0.000260
 513	5.0944e+01	19.6037	160.211713	0.000517	5.169293	1.751404	-0.000207
 514	5.1044e+01	19.5620	159.965448	0.000618	6.182880	2.094816	-0.000248
 515	5.1143e+01	19.5107	159.707071	0.000649	6.486956	2.197840	-0.000260
 516	5.1242e+01	19.4754	159.509252	0.000497	4.966575	1.682721	-0.000199
 517	5.1342e+01	19.4305	159.267023	0.000608	6.081521	2.060475	-0.000243
 518	5.1441e+01	19.3968	159.032870	0.000588	5.878804	1.991793	-0.000235
 519	5.1541e+01	19.3599	158.798716	0.000588	5.878804	1.991793	-0.000235
 520	5.1641e+01	19.3166	158.576673	0.000557	5.574727	1.888769	-0.000223
 521	5.1740e+01	19.2829	158.362705	0.000537	5.372010	1.820086	-0.000215
 522	5.1840e+01	19.2364	158.080106	0.000710	7.095108	2.403888	-0.000284
 523	5.1939e+01	19.1914	157.886323	0.000487	4.865217	1.648380	-0.000195
 524	5.2038e+01	19.1577	157.603724	0.000710	7.095108	2.403888	-0.000284
 525	5.2138e+01	19.1160	157.381681	0.000557	5.574727	1.888769	-0.000223
 526	5.2237e+01	19.0791	157.135416	0.000618	6.182880	2.094816	-0.000248
 527	5.2337e+01	19.0390	156.889150	0.000618	6.182880	2.094816	-0.000248
 528	5.2437e+01	19.0086	156.659034	0.000578	5.777445	1.957451	-0.000231
 529	5.2536e+01	18.9620	156.380471	0.000699	6.993749	2.369546	-0.000280
 530	5.2636e+01	18.9203	156.174577	0.000517	5.169293	1.751404	-0.000207
 531	5.2735e+01	18.8818	155.920238	0.000639	6.385597	2.163499	-0.000256
 532	5.2834e+01	18.8497	155.645713	0.000689	6.892390	2.335205	-0.000276
 533	5.2934e+01	18.8000	155.439819	0.000517	5.169293	1.751404	-0.000207
 534	5.3033e+01	18.7663	155.225851	0.000537	5.372010	1.820086	-0.000215
 535	5.3133e+01	18.7166	154.935177	0.000730	7.297825	2.472570	-0.000292
 536	5.3233e+01	18.6765	154.648540	0.000720	7.196466	2.438229	-0.000288
 537	5.3332e+01	18.6412	154.442646	0.000517	5.169293	1.751404	-0.000207
 538	5.3431e+01	18.6027	154.192344	0.000628	6.284238	2.129158	-0.000252
 539	5.3531e+01	18.5578	153.905707	0.000720	7.196466	2.438229	-0.000288
 540	5.3630e+01	18.5177	153.679628	0.000568	5.676086	1.923110	-0.000227
 541	5.3730e+01	18.4824	153.421251	0.000649	6.486956	2.197840	-0.000260
 542	5.3830e+01	18.4423	153.174986	0.000618	6.182880	2.094816	-0.000248
 543	5.3929e+01	18.4118	152.948906	0.000568	5.676086	1.923110	-0.000227
 544	5.4029e+01	18.3653	152.646121	0.000760	7.601901	2.575594	-0.000304
 545	5.4128e+01	18.3219	152.387744	0.000649	6.486956	2.197840	-0.000260
 546	5.4227e+01	18.2834	152.141479	0.000618	6.182880	2.094816	-0.000248
 547	5.4327e+01	18.2433	151.899251	0.000608	6.081521	2.060475	-0.000243
 548	5.4426e+01	18.2064	151.640874	0.000649	6.486956	2.197840	-0.000260
 549	5.4526e+01	18.1663	151.374423	0.000669	6.689673	2.266523	-0.000268
 550	5.4626e+01	18.1294	151.120084	0.000639	6.385597	2.163499	-0.000256
 551	5.4725e+01	18.0813	150.881893	0.000598	5.980162	2.026134	-0.000239
 552	5.4825e+01	18.0476	150.631590	0.000628	6.284238	2.129158	-0.000252
 553	5.4924e+01	18.0059	150.344953	0.000720	7.196466	2.438229	-0.000288
 554	5.5023e+01	17.9722	150.094651	0.000628	6.284238	2.129158	-0.000252
 555	5.5123e+01	17.9305	149.856460	0.000598	5.980162	2.026134	-0.000239
 556	5.5222e+01	17.8856	149.565786	0.000730	7.297825	2.472570	-0.000292
 557	5.5322e+01	17.8439	149.335670	0.000578	5.777445	1.957451	-0.000231
 558	5.5422e+01	17.8038	149.089404	0.000618	6.182880	2.094816	-0.000248
 559	5.5521e+01	17.7685	148.818916	0.000679	6.791032	2.300864	-0.000272
 560	5.5620e+01	17.7252	148.544391	0.000689	6.892390	2.335205	-0.000276
 561	5.5720e+01	17.6915	148.281977	0.000659	6.588314	2.232181	-0.000264
 562	5.5819e+01	17.6530	148.055897	0.000568	5.676086	1.923110	-0.000227
 563	5.5919e+01	17.6049	147.761187	0.000740	7.399184	2.506911	-0.000296
 564	5.6019e+01	17.5631	147.506847	0.000639	6.385597	2.163499	-0.000256
 565	5.6118e+01	17.5278	147.240396	0.000669	6.689673	2.266523	-0.000268
 566	5.6218e+01	17.4845	146.998168	0.000608	6.081521	2.060475	-0.000243
 567	5.6317e+01	17.4460	146.719606	0.000699	6.993749	2.369546	-0.000280
 568	5.6416e+01	17.4091	146.432969	0.000720	7.196466	2.438229	-0.000288
 569	5.6516e+01	17.3658	146.206889	0.000568	5.676086	1.923110	-0.000227
 570	5.6615e+01	17.3321	145.924290	0.000710	7.095108	2.403888	-0.000284
 571	5.6715e+01	17.2792	145.625542	0.000750	7.500542	2.541253	-0.000300
 572	5.6815e+01	17.2583	145.411574	0.000537	5.372010	1.820086	-0.000215
 573	5.6914e+01	17.2102	145.124937	0.000720	7.196466	2.438229	-0.000288
 574	5.7014e+01	17.1653	144.870597	0.000639	6.385597	2.163499	-0.000256
 575	5.7113e+01	17.1188	144.571849	0.000750	7.500542	2.541253	-0.000300
 576	5.7212e+01	17.0899	144.341733	0.000578	5.777445	1.957451	-0.000231
 577	5.7312e+01	17.0482	144.042985	0.000750	7.500542	2.541253	-0.000300
 578	5.7411e+01	17.0113	143.796719	0.000618	6.182880	2.094816	-0.000248
 579	5.7511e+01	16.9728	143.506046	0.000730	7.297825	2.472570	-0.000292
 580	5.7611e+01	16.9263	143.211335	0.000740	7.399184	2.506911	-0.000296
 581	5.7710e+01	16.8862	142.973144	0.000598	5.980162	2.026134	-0.000239
 582	5.7809e+01	16.8525	142.694581	0.000699	6.993749	2.369546	-0.000280
 583	5.7909e+01	16.8075	142.432167	0.000659	6.588314	2.232181	-0.000264
 584	5.8008e+01	16.7690	142.161679	0.000679	6.791032	2.300864	-0.000272
 585	5.8108e+01	16.7289	141.923488	0.000598	5.980162	2.026134	-0.000239
 586	5.8208e+01	16.6936	141.616666	0.000770	7.703260	2.609935	-0.000308
 587	5.8307e+01	16.6519	141.354252	0.000659	6.588314	2.232181	-0.000264
 588	5.8407e+01	16.6150	141.112024	0.000608	6.081521	2.060475	-0.000243
 589	5.8506e+01	16.5733	140.817313	0.000740	7.399184	2.506911	-0.000296
 590	5.8605e+01	16.5300	140.546825	0.000679	6.791032	2.300864	-0.000272
 591	5.8705e+01	16.4963	140.292485	0.000639	6.385597	2.163499	-0.000256
 592	5.8804e+01	16.4514	139.993737	0.000750	7.500542	2.541253	-0.000300
 593	5.8904e+01	16.4145	139.759584	0.000588	5.878804	1.991793	-0.000235
 594	5.9004e+01	16.3728	139.464873	0.000740	7.399184	2.506911	-0.000296
 595	5.9103e+01	16.3279	139.226682	0.000598	5.980162	2.026134	-0.000239
 596	5.9203e+01	16.2958	138.927934	0.000750	7.500542	2.541253	-0.000300
 597	5.9302e+01	16.2541	138.665520	0.000659	6.588314	2.232181	-0.000264
 598	5.9401e+01	16.2188	138.390995	0.000689	6.892390	2.335205	-0.000276
 599	5.9501e+01	16.1675	138.112432	0.000699	6.993749	2.369546	-0.000280
 600	5.9600e+01	16.1257	137.837907	0.000689	6.892390	2.335205	-0.000276
 601	5.9700e+01	16.0905	137.603753	0.000588	5.878804	1.991793	-0.000235
 602	5.9800e+01	16.0455	137.321154	0.000710	7.095108	2.403888	-0.000284
 603	5.9899e+01	16.0167	137.050665	0.000679	6.791032	2.300864	-0.000272
 604	5.9998e+01	15.9685	136.747880	0.000760	7.601901	2.575594	-0.000304
 605	6.0098e+01	15.9220	136.493541	0.000639	6.385597	2.163499	-0.000256
 606	6.0197e+01	15.8915	136.202867	0.000730	7.297825	2.472570	-0.000292
 607	6.0297e+01	15.8498	135.948527	0.000639	6.385597	2.163499	-0.000256
 608	6.0397e+01	15.8145	135.661891	0.000720	7.196466	2.438229	-0.000288
 609	6.0496e+01	15.7696	135.371217	0.000730	7.297825	2.472570	-0.000292
 610	6.0596e+01	15.7359	135.120915	0.000628	6.284238	2.129158	-0.000252
 611	6.0695e+01	15.6990	134.801981	0.000801	8.007336	2.712959	-0.000321
 612	6.0794e+01	15.6589	134.551678	0.000628	6.284238	2.129158	-0.000252
 613	6.0894e+01	15.6124	134.256968	0.000740	7.399184	2.506911	-0.000296
 614	6.0993e+01	15.5851	133.970331	0.000720	7.196466	2.438229	-0.000288
 615	6.1093e+01	15.5354	133.732140	0.000598	5.980162	2.026134	-0.000239
 616	6.1193e+01	15.4905	133.437429	0.000740	7.399184	2.506911	-0.000296
 617	6.1292e+01	15.4584	133.166941	0.000679	6.791032	2.300864	-0.000272
 618	6.1392e+01	15.4167	132.872230	0.000740	7.399184	2.506911	-0.000296
 619	6.1491e+01	15.3814	132.650188	0.000557	5.574727	1.888769	-0.000223
 620	6.1590e+01	15.3284	132.335291	0.000791	7.905977	2.678618	-0.000316
 621	6.1690e+01	15.2996	132.008283	0.000821	8.210053	2.781641	-0.000329
 622	6.1789e+01	15.2595	131.737795	0.000679	6.791032	2.300864	-0.000272
 623	6.1889e+01	15.2210	131.471344	0.000669	6.689673	2.266523	-0.000268
 624	6.1989e+01	15.1760	131.160484	0.000780	7.804618	2.644276	-0.000312
 625	6.2088e+01	15.1375	130.918256	0.000608	6.081521	2.060475	-0.000243
 626	6.2188e+01	15.0958	130.631620	0.000720	7.196466	2.438229	-0.000288
 627	6.2287e+01	15.0541	130.377280	0.000639	6.385597	2.163499	-0.000256
 628	6.2386e+01	15.0124	130.082569	0.000740	7.399184	2.506911	-0.000296
 629	6.2486e+01	14.9771	129.799970	0.000710	7.095108	2.403888	-0.000284
 630	6.2586e+01	14.9418	129.509296	0.000730	7.297825	2.472570	-0.000292
 631	6.2685e+01	14.8969	129.242845	0.000669	6.689673	2.266523	-0.000268
 632	6.2785e+01	14.8504	128.931985	0.000780	7.804618	2.644276	-0.000312
 633	6.2884e+01	14.8135	128.621126	0.000780	7.804618	2.644276	-0.000312
 634	6.2983e+01	14.7846	128.330452	0.000730	7.297825	2.472570	-0.000292
 635	6.3083e+01	14.7301	128.124558	0.000517	5.169293	1.751404	-0.000207
 636	6.3182e+01	14.6900	127.829847	0.000740	7.399184	2.506911	-0.000296
 637	6.3282e+01	14.6531	127.470542	0.000902	9.020923	3.056371	-0.000361
 638	6.3382e+01	14.6306	127.208129	0.000659	6.588314	2.232181	-0.000264
 639	6.3481e+01	14.5857	126.941678	0.000669	6.689673	2.266523	-0.000268
 640	6.3581e+01	14.5472	126.651004	0.000730	7.297825	2.472570	-0.000292
 641	6.3680e+01	14.4991	126.388590	0.000659	6.588314	2.232181	-0.000264
 642	6.3779e+01	14.4638	126.077731	0.000780	7.804618	2.644276	-0.000312
 643	6.3879e+01	14.4188	125.803205	0.000689	6.892390	2.335205	-0.000276
 644	6.3978e+01	14.3852	125.540791	0.000659	6.588314	2.232181	-0.000264
 645	6.4078e+01	14.3499	125.221858	0.000801	8.007336	2.712959	-0.000321
 646	6.4177e+01	14.2969	124.902924	0.000801	8.007336	2.712959	-0.000321
 647	6.4277e+01	14.2680	124.640510	0.000659	6.588314	2.232181	-0.000264
 648	6.4376e+01	14.2263	124.329651	0.000780	7.804618	2.644276	-0.000312
 649	6.4476e+01	14.1734	124.079348	0.000628	6.284238	2.129158	-0.000252
 650	6.4576e+01	14.1429	123.792712	0.000720	7.196466	2.438229	-0.000288
 651	6.4675e+01	14.1028	123.485889	0.000770	7.703260	2.609935	-0.000308
 652	6.4775e+01	14.0595	123.219438	0.000669	6.689673	2.266523	-0.000268
 653	6.4874e+01	14.0146	122.916653	0.000760	7.601901	2.575594	-0.000304
 654	6.4974e+01	13.9857	122.617905	0.000750	7.500542	2.541253	-0.000300
 655	6.5073e+01	13.9424	122.331269	0.000720	7.196466	2.438229	-0.000288
 656	6.5172e+01	13.8975	122.044632	0.000720	7.196466	2.438229	-0.000288
 657	6.5272e+01	13.8574	121.741847	0.000760	7.601901	2.575594	-0.000304
 658	6.5371e+01	13.8205	121.443099	0.000750	7.500542	2.541253	-0.000300
 659	6.5471e+01	13.7852	121.212982	0.000578	5.777445	1.957451	-0.000231
 660	6.5570e+01	13.7435	120.894048	0.000801	8.007336	2.712959	-0.000321
 661	6.5670e+01	13.6937	120.571077	0.000811	8.108694	2.747300	-0.000325
 662	6.5769e+01	13.6616	120.304626	0.000669	6.689673	2.266523	-0.000268
 663	6.5869e+01	13.6264	120.009916	0.000740	7.399184	2.506911	-0.000296
 664	6.5969e+01	13.5927	119.699056	0.000780	7.804618	2.644276	-0.000312
 665	6.6068e+01	13.5429	119.416457	0.000710	7.095108	2.403888	-0.000284
 666	6.6168e+01	13.4948	119.141931	0.000689	6.892390	2.335205	-0.000276
 667	6.6267e+01	13.4611	118.871443	0.000679	6.791032	2.300864	-0.000272
 668	6.6367e+01	13.4146	118.532324	0.000851	8.514129	2.884665	-0.000341
 669	6.6466e+01	13.3873	118.245687	0.000720	7.196466	2.438229	-0.000288
 670	6.6566e+01	13.3408	117.959051	0.000720	7.196466	2.438229	-0.000288
 671	6.6665e+01	13.2975	117.640117	0.000801	8.007336	2.712959	-0.000321
 672	6.6764e+01	13.2638	117.381740	0.000649	6.486956	2.197840	-0.000260
 673	6.6864e+01	13.2109	117.034546	0.000872	8.716847	2.953348	-0.000349
 674	6.6963e+01	13.1740	116.727724	0.000770	7.703260	2.609935	-0.000308
 675	6.7063e+01	13.1483	116.449162	0.000699	6.993749	2.369546	-0.000280
 676	6.7162e+01	13.1050	116.170599	0.000699	6.993749	2.369546	-0.000280
 677	6.7262e+01	13.0649	115.896074	0.000689	6.892390	2.335205	-0.000276
 678	6.7362e+01	13.0135	115.548881	0.000872	8.716847	2.953348	-0.000349
 679	6.7461e+01	12.9879	115.294541	0.000639	6.385597	2.163499	-0.000256
 680	6.7561e+01	12.9478	114.971570	0.000811	8.108694	2.747300	-0.000325
 681	6.7660e+01	12.9044	114.680896	0.000730	7.297825	2.472570	-0.000292
 682	6.7760e+01	12.8627	114.430594	0.000628	6.284238	2.129158	-0.000252
 683	6.7859e+01	12.8242	114.083400	0.000872	8.716847	2.953348	-0.000349
 684	6.7959e+01	12.7889	113.820986	0.000659	6.588314	2.232181	-0.000264
 685	6.8058e+01	12.7488	113.461681	0.000902	9.020923	3.056371	-0.000361
 686	6.8157e+01	12.7055	113.215416	0.000618	6.182880	2.094816	-0.000248
 687	6.8257e+01	12.6638	112.896482	0.000801	8.007336	2.712959	-0.000321
 688	6.8356e+01	12.6269	112.605809	0.000730	7.297825	2.472570	-0.000292
 689	6.8456e+01	12.5884	112.274763	0.000831	8.311412	2.815983	-0.000333
 690	6.8555e+01	12.5403	111.996201	0.000699	6.993749	2.369546	-0.000280
 691	6.8655e+01	12.5050	111.677267	0.000801	8.007336	2.712959	-0.000321
 692	6.8754e+01	12.4713	111.366408	0.000780	7.804618	2.644276	-0.000312
 693	6.8854e+01	12.4200	111.075734	0.000730	7.297825	2.472570	-0.000292
 694	6.8954e+01	12.3943	110.801209	0.000689	6.892390	2.335205	-0.000276
 695	6.9053e+01	12.3494	110.462089	0.000851	8.514129	2.884665	-0.000341
 696	6.9153e+01	12.3125	110.175453	0.000720	7.196466	2.438229	-0.000288
 697	6.9252e+01	12.2708	109.904965	0.000679	6.791032	2.300864	-0.000272
 698	6.9352e+01	12.2339	109.529511	0.000943	9.426357	3.193736	-0.000377
 699	6.9451e+01	12.1841	109.254986	0.000689	6.892390	2.335205	-0.000276
 700	6.9550e+01	12.1456	108.952201	0.000760	7.601901	2.575594	-0.000304
 701	6.9650e+01	12.1104	108.653453	0.000750	7.500542	2.541253	-0.000300
 702	6.9749e+01	12.0654	108.354705	0.000750	7.500542	2.541253	-0.000300
 703	6.9849e+01	12.0253	108.019622	0.000841	8.412771	2.850324	-0.000337
 704	6.9948e+01	11.9900	107.724911	0.000740	7.399184	2.506911	-0.000296
 705	7.0048e+01	11.9515	107.442312	0.000710	7.095108	2.403888	-0.000284
 706	7.0147e+01	11.9114	107.115304	0.000821	8.210053	2.781641	-0.000329
 707	7.0247e+01	11.8649	106.820593	0.000740	7.399184	2.506911	-0.000296
 708	7.0347e+01	11.8392	106.537994	0.000710	7.095108	2.403888	-0.000284
 709	7.0446e+01	11.7959	106.194837	0.000862	8.615488	2.919006	-0.000345
 710	7.0546e+01	11.7526	105.908200	0.000720	7.196466	2.438229	-0.000288
 711	7.0645e+01	11.7045	105.621564	0.000720	7.196466	2.438229	-0.000288
 712	7.0745e+01	11.6740	105.290519	0.000831	8.311412	2.815983	-0.000333
 713	7.0844e+01	11.6323	104.987733	0.000760	7.601901	2.575594	-0.000304
 714	7.0944e+01	11.5970	104.652651	0.000841	8.412771	2.850324	-0.000337
 715	7.1043e+01	11.5585	104.378126	0.000689	6.892390	2.335205	-0.000276
 716	7.1142e+01	11.5168	104.083415	0.000740	7.399184	2.506911	-0.000296
 717	7.1242e+01	11.4767	103.764481	0.000801	8.007336	2.712959	-0.000321
 718	7.1341e+01	11.4253	103.433436	0.000831	8.311412	2.815983	-0.000333
 719	7.1441e+01	11.3949	103.142762	0.000730	7.297825	2.472570	-0.000292
 720	7.1540e+01	11.3499	102.811717	0.000831	8.311412	2.815983	-0.000333
 721	7.1640e+01	11.3147	102.508932	0.000760	7.601901	2.575594	-0.000304
 722	7.1740e+01	11.2745	102.198073	0.000780	7.804618	2.644276	-0.000312
 723	7.1839e+01	11.2360	101.883176	0.000791	7.905977	2.678618	-0.000316
 724	7.1939e+01	11.1975	101.592502	0.000730	7.297825	2.472570	-0.000292
 725	7.2038e+01	11.1526	101.245309	0.000872	8.716847	2.953348	-0.000349
 726	7.2138e+01	11.1109	100.966746	0.000699	6.993749	2.369546	-0.000280
 727	7.2237e+01	11.0772	100.659924	0.000770	7.703260	2.609935	-0.000308
 728	7.2337e+01	11.0307	100.373287	0.000720	7.196466	2.438229	-0.000288
 729	7.2436e+01	10.9986	100.042242	0.000831	8.311412	2.815983	-0.000333
 730	7.2535e+01	10.9505	99.747531	0.000740	7.399184	2.506911	-0.000296
 731	7.2635e+01	10.9104	99.420523	0.000821	8.210053	2.781641	-0.000329
 732	7.2734e+01	10.8847	99.081404	0.000851	8.514129	2.884665	-0.000341
 733	7.2834e+01	10.8366	98.774582	0.000770	7.703260	2.609935	-0.000308
 734	7.2933e+01	10.7853	98.491982	0.000710	7.095108	2.403888	-0.000284
 735	7.3033e+01	10.7580	98.132677	0.000902	9.020923	3.056371	-0.000361
 736	7.3132e+01	10.7147	97.854115	0.000699	6.993749	2.369546	-0.000280
 737	7.3232e+01	10.6810	97.514995	0.000851	8.514129	2.884665	-0.000341
 738	7.3332e+01	10.6361	97.159727	0.000892	8.919564	3.022030	-0.000357
 739	7.3431e+01	10.5944	96.881165	0.000699	6.993749	2.369546	-0.000280
 740	7.3531e+01	10.5607	96.598565	0.000710	7.095108	2.403888	-0.000284
 741	7.3630e+01	10.5157	96.287706	0.000780	7.804618	2.644276	-0.000312
 742	7.3730e+01	10.4853	95.964735	0.000811	8.108694	2.747300	-0.000325
 743	7.3829e+01	10.4387	95.609467	0.000892	8.919564	3.022030	-0.000357
 744	7.3928e+01	10.3970	95.330905	0.000699	6.993749	2.369546	-0.000280
 745	7.4028e+01	10.3377	95.003897	0.000821	8.210053	2.781641	-0.000329
 746	7.4127e+01	10.3184	94.717260	0.000720	7.196466	2.438229	-0.000288
 747	7.4227e+01	10.2735	94.390252	0.000821	8.210053	2.781641	-0.000329
 748	7.4326e+01	10.2350	94.022873	0.000922	9.223640	3.125054	-0.000369
 749	7.4426e+01	10.2061	93.748348	0.000689	6.892390	2.335205	-0.000276
 750	7.4525e+01	10.1596	93.425377	0.000811	8.108694	2.747300	-0.000325
 751	7.4625e+01	10.1227	93.098369	0.000821	8.210053	2.781641	-0.000329
 752	7.4725e+01	10.0682	92.815769	0.000710	7.095108	2.403888	-0.000284
 753	7.4824e+01	10.0457	92.468576	0.000872	8.716847	2.953348	-0.000349
 754	7.4924e+01	9.9976	92.141568	0.000821	8.210053	2.781641	-0.000329
 755	7.5023e+01	9.9591	91.822634	0.000801	8.007336	2.712959	-0.000321
 756	7.5123e+01	9.9190	91.507737	0.000791	7.905977	2.678618	-0.000316
 757	7.5222e+01	9.8757	91.180729	0.000821	8.210053	2.781641	-0.000329
 758	7.5322e+01	9.8372	90.922353	0.000649	6.486956	2.197840	-0.000260
 759	7.5421e+01	9.8051	90.591307	0.000831	8.311412	2.815983	-0.000333
 760	7.5520e+01	9.7714	90.256225	0.000841	8.412771	2.850324	-0.000337
 761	7.5620e+01	9.7200	89.925180	0.000831	8.311412	2.815983	-0.000333
 762	7.5719e+01	9.6848	89.590098	0.000841	8.412771	2.850324	-0.000337
 763	7.5819e+01	9.6463	89.307498	0.000710	7.095108	2.403888	-0.000284
 764	7.5918e+01	9.5997	88.976453	0.000831	8.311412	2.815983	-0.000333
 765	7.6018e+01	9.5644	88.697891	0.000699	6.993749	2.369546	-0.000280
 766	7.6118e+01	9.5291	88.358771	0.000851	8.514129	2.884665	-0.000341
 767	7.6217e+01	9.4746	88.023689	0.000841	8.412771	2.850324	-0.000337
 768	7.6317e+01	9.4441	87.680533	0.000862	8.615488	2.919006	-0.000345
 769	7.6416e+01	9.4056	87.385822	0.000740	7.399184	2.506911	-0.000296
 770	7.6516e+01	9.3591	87.091111	0.000740	7.399184	2.506911	-0.000296
 771	7.6615e+01	9.3238	86.747954	0.000862	8.615488	2.919006	-0.000345
 772	7.6715e+01	9.2773	86.424983	0.000811	8.108694	2.747300	-0.000325
 773	7.6814e+01	9.2452	86.110087	0.000791	7.905977	2.678618	-0.000316
 774	7.6913e+01	9.2035	85.783079	0.000821	8.210053	2.781641	-0.000329
 775	7.7013e+01	9.1634	85.452034	0.000831	8.311412	2.815983	-0.000333
 776	7.7112e+01	9.1153	85.129063	0.000811	8.108694	2.747300	-0.000325
 777	7.7212e+01	9.0751	84.822240	0.000770	7.703260	2.609935	-0.000308
 778	7.7311e+01	9.0399	84.507344	0.000791	7.905977	2.678618	-0.000316
 779	7.7411e+01	9.0030	84.164187	0.000862	8.615488	2.919006	-0.000345
 780	7.7510e+01	8.9645	83.833142	0.000831	8.311412	2.815983	-0.000333
 781	7.7610e+01	8.9179	83.522283	0.000780	7.804618	2.644276	-0.000312
 782	7.7710e+01	8.8842	83.199312	0.000811	8.108694	2.747300	-0.000325
 783	7.7809e+01	8.8441	82.872304	0.000821	8.210053	2.781641	-0.000329
 784	7.7909e+01	8.8024	82.545296	0.000821	8.210053	2.781641	-0.000329
 785	7.8008e+01	8.7687	82.222325	0.000811	8.108694	2.747300	-0.000325
 786	7.8108e+01	8.7222	81.927614	0.000740	7.399184	2.506911	-0.000296
 787	7.8207e+01	8.6789	81.564272	0.000912	9.122281	3.090713	-0.000365
 788	7.8306e+01	8.6468	81.245338	0.000801	8.007336	2.712959	-0.000321
 789	7.8406e+01	8.5939	80.922367	0.000811	8.108694	2.747300	-0.000325
 790	7.8505e+01	8.5746	80.603434	0.000801	8.007336	2.712959	-0.000321
 791	7.8605e+01	8.5249	80.256240	0.000872	8.716847	2.953348	-0.000349
 792	7.8704e+01	8.4784	79.925195	0.000831	8.311412	2.815983	-0.000333
 793	7.8804e+01	8.4367	79.622410	0.000760	7.601901	2.575594	-0.000304
 794	7.8903e+01	8.4062	79.319624	0.000760	7.601901	2.575594	-0.000304
 795	7.9003e+01	8.3709	78.976468	0.000862	8.615488	2.919006	-0.000345
 796	7.9103e+01	8.3228	78.657534	0.000801	8.007336	2.712959	-0.000321
 797	7.9202e+01	8.2794	78.326489	0.000831	8.311412	2.815983	-0.000333
 798	7.9302e+01	8.2409	77.955073	0.000932	9.324999	3.159395	-0.000373
 799	7.9401e+01	8.2057	77.660362	0.000740	7.399184	2.506911	-0.000296
 800	7.9501e+01	8.1688	77.345465	0.000791	7.905977	2.678618	-0.000316
 801	7.9600e+01	8.1206	76.982123	0.000912	9.122281	3.090713	-0.000365
 802	7.9700e+01	8.0885	76.651078	0.000831	8.311412	2.815983	-0.000333
 803	7.9799e+01	8.0484	76.352330	0.000750	7.500542	2.541253	-0.000300
 804	7.9898e+01	8.0115	76.009173	0.000862	8.615488	2.919006	-0.000345
 805	7.9998e+01	7.9698	75.694277	0.000791	7.905977	2.678618	-0.000316
 806	8.0097e+01	7.9281	75.318823	0.000943	9.426357	3.193736	-0.000377
 807	8.0197e+01	7.8848	75.040261	0.000699	6.993749	2.369546	-0.000280
 808	8.0296e+01	7.8447	74.660770	0.000953	9.527716	3.228078	-0.000381
 809	8.0396e+01	7.8062	74.353947	0.000770	7.703260	2.609935	-0.000308
 810	8.0496e+01	7.7613	74.014828	0.000851	8.514129	2.884665	-0.000341
 811	8.0595e+01	7.7276	73.679746	0.000841	8.412771	2.850324	-0.000337
 812	8.0695e+01	7.6859	73.344664	0.000841	8.412771	2.850324	-0.000337
 813	8.0794e+01	7.6442	72.993433	0.000882	8.818205	2.987689	-0.000353
 814	8.0894e+01	7.6105	72.662388	0.000831	8.311412	2.815983	-0.000333
 815	8.0993e+01	7.5688	72.335380	0.000821	8.210053	2.781641	-0.000329
 816	8.1093e+01	7.5255	72.000297	0.000841	8.412771	2.850324	-0.000337
 817	8.1192e+01	7.4886	71.681364	0.000801	8.007336	2.712959	-0.000321
 818	8.1291e+01	7.4436	71.386653	0.000740	7.399184	2.506911	-0.000296
 819	8.1391e+01	7.4083	71.067719	0.000801	8.007336	2.712959	-0.000321
 820	8.1490e+01	7.3618	70.659968	0.001024	10.237227	3.468466	-0.000410
 821	8.1590e+01	7.3281	70.369294	0.000730	7.297825	2.472570	-0.000292
 822	8.1689e+01	7.2961	70.018064	0.000882	8.818205	2.987689	-0.000353
 823	8.1789e+01	7.2479	69.691056	0.000821	8.210053	2.781641	-0.000329
 824	8.1888e+01	7.2078	69.331751	0.000902	9.020923	3.056371	-0.000361
 825	8.1988e+01	7.1741	69.000705	0.000831	8.311412	2.815983	-0.000333
 826	8.2088e+01	7.1244	68.697920	0.000760	7.601901	2.575594	-0.000304
 827	8.2187e+01	7.0907	68.383024	0.000791	7.905977	2.678618	-0.000316
 828	8.2287e+01	7.0426	68.027756	0.000892	8.919564	3.022030	-0.000357
 829	8.2386e+01	7.0073	67.692673	0.000841	8.412771	2.850324	-0.000337
 830	8.2486e+01	6.9656	67.341443	0.000882	8.818205	2.987689	-0.000353
 831	8.2585e+01	6.9255	67.010398	0.000831	8.311412	2.815983	-0.000333
 832	8.2684e+01	6.8886	66.643018	0.000922	9.223640	3.125054	-0.000369
 833	8.2784e+01	6.8372	66.311973	0.000831	8.311412	2.815983	-0.000333
 834	8.2883e+01	6.8084	65.997076	0.000791	7.905977	2.678618	-0.000316
 835	8.2983e+01	6.7779	65.641809	0.000892	8.919564	3.022030	-0.000357
 836	8.3082e+01	6.7298	65.326912	0.000791	7.905977	2.678618	-0.000316
 837	8.3182e+01	6.6897	64.967607	0.000902	9.020923	3.056371	-0.000361
 838	8.3281e+01	6.6576	64.648673	0.000801	8.007336	2.712959	-0.000321
 839	8.3381e+01	6.6126	64.297442	0.000882	8.818205	2.987689	-0.000353
 840	8.3481e+01	6.5661	63.962360	0.000841	8.412771	2.850324	-0.000337
 841	8.3580e+01	6.5340	63.615166	0.000872	8.716847	2.953348	-0.000349
 842	8.3680e+01	6.4939	63.284121	0.000831	8.311412	2.815983	-0.000333
 843	8.3779e+01	6.4586	62.961150	0.000811	8.108694	2.747300	-0.000325
 844	8.3879e+01	6.4153	62.617994	0.000862	8.615488	2.919006	-0.000345
 845	8.3978e+01	6.3720	62.299060	0.000801	8.007336	2.712959	-0.000321
 846	8.4078e+01	6.3319	61.980126	0.000801	8.007336	2.712959	-0.000321
 847	8.4177e+01	6.2934	61.604673	0.000943	9.426357	3.193736	-0.000377
 848	8.4276e+01	6.2613	61.265553	0.000851	8.514129	2.884665	-0.000341
 849	8.4376e+01	6.2196	60.906248	0.000902	9.020923	3.056371	-0.000361
 850	8.4475e+01	6.1699	60.506572	0.001003	10.034509	3.399784	-0.000402
 851	8.4575e+01	6.1298	60.228010	0.000699	6.993749	2.369546	-0.000280
 852	8.4674e+01	6.0913	59.868704	0.000902	9.020923	3.056371	-0.000361
 853	8.4774e+01	6.0544	59.569956	0.000750	7.500542	2.541253	-0.000300
 854	8.4874e+01	6.0143	59.174317	0.000993	9.933151	3.365443	-0.000398
 855	8.4973e+01	5.9661	58.855383	0.000801	8.007336	2.712959	-0.000321
 856	8.5073e+01	5.9308	58.500115	0.000892	8.919564	3.022030	-0.000357
 857	8.5172e+01	5.8795	58.160996	0.000851	8.514129	2.884665	-0.000341
 858	8.5272e+01	5.8603	57.789580	0.000932	9.324999	3.159395	-0.000373
 859	8.5371e+01	5.8169	57.422200	0.000922	9.223640	3.125054	-0.000369
 860	8.5471e+01	5.7897	57.099229	0.000811	8.108694	2.747300	-0.000325
 861	8.5570e+01	5.7367	56.756073	0.000862	8.615488	2.919006	-0.000345
 862	8.5669e+01	5.6966	56.416953	0.000851	8.514129	2.884665	-0.000341
 863	8.5769e+01	5.6597	56.102057	0.000791	7.905977	2.678618	-0.000316
 864	8.5868e+01	5.6132	55.706417	0.000993	9.933151	3.365443	-0.000398
 865	8.5968e+01	5.5667	55.419781	0.000720	7.196466	2.438229	-0.000288
 866	8.6067e+01	5.5314	55.056439	0.000912	9.122281	3.090713	-0.000365
 867	8.6167e+01	5.4945	54.701171	0.000892	8.919564	3.022030	-0.000357
 868	8.6266e+01	5.4560	54.374163	0.000821	8.210053	2.781641	-0.000329
 869	8.6366e+01	5.4175	54.039080	0.000841	8.412771	2.850324	-0.000337
 870	8.6466e+01	5.3790	53.643441	0.000993	9.933151	3.365443	-0.000398
 871	8.6565e+01	5.3293	53.344693	0.000750	7.500542	2.541253	-0.000300
 872	8.6665e+01	5.2956	52.940980	0.001014	10.135868	3.434125	-0.000406
 873	8.6764e+01	5.2555	52.658380	0.000710	7.095108	2.403888	-0.000284
 874	8.6864e+01	5.2170	52.274852	0.000963	9.629075	3.262419	-0.000385
 875	8.6963e+01	5.1704	51.923621	0.000882	8.818205	2.987689	-0.000353
 876	8.7063e+01	5.1384	51.592576	0.000831	8.311412	2.815983	-0.000333
 877	8.7162e+01	5.0902	51.217123	0.000943	9.426357	3.193736	-0.000377
 878	8.7261e+01	5.0662	50.869929	0.000872	8.716847	2.953348	-0.000349
 879	8.7361e+01	5.0180	50.546958	0.000811	8.108694	2.747300	-0.000325
 880	8.7460e+01	4.9795	50.187653	0.000902	9.020923	3.056371	-0.000361
 881	8.7560e+01	4.9330	49.836422	0.000882	8.818205	2.987689	-0.000353
 882	8.7659e+01	4.8993	49.509414	0.000821	8.210053	2.781641	-0.000329
 883	8.7759e+01	4.8624	49.129923	0.000953	9.527716	3.228078	-0.000381
 884	8.7859e+01	4.8095	48.823101	0.000770	7.703260	2.609935	-0.000308
 885	8.7958e+01	4.7726	48.471870	0.000882	8.818205	2.987689	-0.000353
 886	8.8058e+01	4.7405	48.124677	0.000872	8.716847	2.953348	-0.000349
 887	8.8157e+01	4.6972	47.777483	0.000872	8.716847	2.953348	-0.000349
 888	8.8257e+01	4.6539	47.373769	0.001014	10.135868	3.434125	-0.000406
 889	8.8356e+01	4.6154	47.038687	0.000841	8.412771	2.850324	-0.000337
 890	8.8456e+01	4.5801	46.735902	0.000760	7.601901	2.575594	-0.000304
 891	8.8555e+01	4.5368	46.340263	0.000993	9.933151	3.365443	-0.000398
 892	8.8654e+01	4.5063	46.005180	0.000841	8.412771	2.850324	-0.000337
 893	8.8754e+01	4.4630	45.641838	0.000912	9.122281	3.090713	-0.000365
 894	8.8853e+01	4.4213	45.302719	0.000851	8.514129	2.884665	-0.000341
 895	8.8953e+01	4.3844	44.955525	0.000872	8.716847	2.953348	-0.000349
 896	8.9052e+01	4.3394	44.604294	0.000882	8.818205	2.987689	-0.000353
 897	8.9152e+01	4.2977	44.269212	0.000841	8.412771	2.850324	-0.000337
 898	8.9251e+01	4.2641	43.913944	0.000892	8.919564	3.022030	-0.000357
 899	8.9351e+01	4.2175	43.538490	0.000943	9.426357	3.193736	-0.000377
 900	8.9451e+01	4.1838	43.191297	0.000872	8.716847	2.953348	-0.000349
 901	8.9550e+01	4.1453	42.848140	0.000862	8.615488	2.919006	-0.000345
 902	8.9650e+01	4.1020	42.492872	0.000892	8.919564	3.022030	-0.000357
 903	8.9749e+01	4.0619	42.129530	0.000912	9.122281	3.090713	-0.000365
 904	8.9849e+01	4.0298	41.814633	0.000791	7.905977	2.678618	-0.000316
 905	8.9948e+01	3.9753	41.459365	0.000892	8.919564	3.022030	-0.000357
 906	9.0047e+01	3.9352	41.075838	0.000963	9.629075	3.262419	-0.000385
 907	9.0147e+01	3.9079	40.716532	0.000902	9.020923	3.056371	-0.000361
 908	9.0246e+01	3.8678	40.333005	0.000963	9.629075	3.262419	-0.000385
 909	9.0346e+01	3.8165	40.030219	0.000760	7.601901	2.575594	-0.000304
 910	9.0445e+01	3.7796	39.654766	0.000943	9.426357	3.193736	-0.000377
 911	9.0545e+01	3.7475	39.323721	0.000831	8.311412	2.815983	-0.000333
 912	9.0644e+01	3.6994	38.952304	0.000932	9.324999	3.159395	-0.000373
 913	9.0744e+01	3.6673	38.576851	0.000943	9.426357	3.193736	-0.000377
 914	9.0844e+01	3.6175	38.253880	0.000811	8.108694	2.747300	-0.000325
 915	9.0943e+01	3.5839	37.874389	0.000953	9.527716	3.228078	-0.000381
 916	9.1043e+01	3.5438	37.502972	0.000932	9.324999	3.159395	-0.000373
 917	9.1142e+01	3.5069	37.192113	0.000780	7.804618	2.644276	-0.000312
 918	9.1242e+01	3.4603	36.848956	0.000862	8.615488	2.919006	-0.000345
 919	9.1341e+01	3.4250	36.437169	0.001034	10.338585	3.502808	-0.000414
 920	9.1441e+01	3.3769	36.098049	0.000851	8.514129	2.884665	-0.000341
 921	9.1540e+01	3.3480	35.734707	0.000912	9.122281	3.090713	-0.000365
 922	9.1639e+01	3.3031	35.387513	0.000872	8.716847	2.953348	-0.000349
 923	9.1739e+01	3.2614	35.056468	0.000831	8.311412	2.815983	-0.000333
 924	9.1838e+01	3.2197	34.725423	0.000831	8.311412	2.815983	-0.000333
 925	9.1938e+01	3.1796	34.321709	0.001014	10.135868	3.434125	-0.000406
 926	9.2037e+01	3.1411	33.946256	0.000943	9.426357	3.193736	-0.000377
 927	9.2137e+01	3.0962	33.619248	0.000821	8.210053	2.781641	-0.000329
 928	9.2237e+01	3.0705	33.280128	0.000851	8.514129	2.884665	-0.000341
 929	9.2336e+01	3.0192	32.924861	0.000892	8.919564	3.022030	-0.000357
 930	9.2436e+01	2.9871	32.557481	0.000922	9.223640	3.125054	-0.000369
 931	9.2535e+01	2.9470	32.198176	0.000902	9.020923	3.056371	-0.000361
 932	9.2635e+01	2.9213	31.814648	0.000963	9.629075	3.262419	-0.000385
 933	9.2734e+01	2.8620	31.507826	0.000770	7.703260	2.609935	-0.000308
 934	9.2834e+01	2.8170	31.108149	0.001003	10.034509	3.399784	-0.000402
 935	9.2933e+01	2.7882	30.797290	0.000780	7.804618	2.644276	-0.000312
 936	9.3032e+01	2.7464	30.405688	0.000983	9.831792	3.331101	-0.000394
 937	9.3132e+01	2.7112	30.070606	0.000841	8.412771	2.850324	-0.000337
 938	9.3231e+01	2.6678	29.739560	0.000831	8.311412	2.815983	-0.000333
 939	9.3331e+01	2.6438	29.400441	0.000851	8.514129	2.884665	-0.000341
 940	9.3430e+01	2.5908	29.008839	0.000983	9.831792	3.331101	-0.000394
 941	9.3530e+01	2.5491	28.637422	0.000932	9.324999	3.159395	-0.000373
 942	9.3629e+01	2.5074	28.314451	0.000811	8.108694	2.747300	-0.000325
 943	9.3729e+01	2.4641	27.947072	0.000922	9.223640	3.125054	-0.000369
 944	9.3829e+01	2.4224	27.579693	0.000922	9.223640	3.125054	-0.000369
 945	9.3928e+01	2.3935	27.236536	0.000862	8.615488	2.919006	-0.000345
 946	9.4028e+01	2.3502	26.857045	0.000953	9.527716	3.228078	-0.000381
 947	9.4127e+01	2.3101	26.493703	0.000912	9.122281	3.090713	-0.000365
 948	9.4227e+01	2.2700	26.174770	0.000801	8.007336	2.712959	-0.000321
 949	9.4326e+01	2.2379	25.783167	0.000983	9.831792	3.331101	-0.000394
 950	9.4425e+01	2.1898	25.444048	0.000851	8.514129	2.884665	-0.000341
 951	9.4525e+01	2.1545	25.028223	0.001044	10.439944	3.537149	-0.000418
 952	9.4624e+01	2.1015	24.713326	0.000791	7.905977	2.678618	-0.000316
 953	9.4724e+01	2.0695	24.329799	0.000963	9.629075	3.262419	-0.000385
 954	9.4823e+01	2.0261	23.986642	0.000862	8.615488	2.919006	-0.000345
 955	9.4923e+01	1.9892	23.627337	0.000902	9.020923	3.056371	-0.000361
 956	9.5022e+01	1.9540	23.268032	0.000902	9.020923	3.056371	-0.000361
 957	9.5122e+01	1.9187	22.932950	0.000841	8.412771	2.850324	-0.000337
 958	9.5222e+01	1.8673	22.500976	0.001085	10.845379	3.674514	-0.000434
 959	9.5321e+01	1.8272	22.173968	0.000821	8.210053	2.781641	-0.000329
 960	9.5421e+01	1.7919	21.770254	0.001014	10.135868	3.434125	-0.000406
 961	9.5520e+01	1.7582	21.463432	0.000770	7.703260	2.609935	-0.000308
 962	9.5620e+01	1.7165	21.071830	0.000983	9.831792	3.331101	-0.000394
 963	9.5719e+01	1.6684	20.740785	0.000831	8.311412	2.815983	-0.000333
 964	9.5819e+01	1.6299	20.328997	0.001034	10.338585	3.502808	-0.000414
 965	9.5918e+01	1.5882	19.973729	0.000892	8.919564	3.022030	-0.000357
 966	9.6017e+01	1.5529	19.626535	0.000872	8.716847	2.953348	-0.000349
 967	9.6117e+01	1.5080	19.295490	0.000831	8.311412	2.815983	-0.000333
 968	9.6216e+01	1.4743	18.936185	0.000902	9.020923	3.056371	-0.000361
 969	9.6316e+01	1.4230	18.564769	0.000932	9.324999	3.159395	-0.000373
 970	9.6415e+01	1.3909	18.217575	0.000872	8.716847	2.953348	-0.000349
 971	9.6515e+01	1.3492	17.854233	0.000912	9.122281	3.090713	-0.000365
 972	9.6615e+01	1.3155	17.503002	0.000882	8.818205	2.987689	-0.000353
 973	9.6714e+01	1.2754	17.155808	0.000872	8.716847	2.953348	-0.000349
 974	9.6814e+01	1.2321	16.703649	0.001135	11.352172	3.846220	-0.000454
 975	9.6913e+01	1.1903	16.376641	0.000821	8.210053	2.781641	-0.000329
 976	9.7013e+01	1.1438	16.029447	0.000872	8.716847	2.953348	-0.000349
 977	9.7112e+01	1.1053	15.653994	0.000943	9.426357	3.193736	-0.000377
 978	9.7212e+01	1.0748	15.270466	0.000963	9.629075	3.262419	-0.000385
 979	9.7311e+01	1.0363	14.919235	0.000882	8.818205	2.987689	-0.000353
 980	9.7410e+01	0.9930	14.572041	0.000872	8.716847	2.953348	-0.000349
 981	9.7510e+01	0.9593	14.220811	0.000882	8.818205	2.987689	-0.000353
 982	9.7609e+01	0.9144	13.845357	0.000943	9.426357	3.193736	-0.000377
 983	9.7709e+01	0.8775	13.461829	0.000963	9.629075	3.262419	-0.000385
 984	9.7808e+01	0.8326	13.138858	0.000811	8.108694	2.747300	-0.000325
 985	9.7908e+01	0.7925	12.759368	0.000953	9.527716	3.228078	-0.000381
 986	9.8007e+01	0.7524	12.391988	0.000922	9.223640	3.125054	-0.000369
 987	9.8107e+01	0.7219	12.044794	0.000872	8.716847	2.953348	-0.000349
 988	9.8207e+01	0.6834	11.721824	0.000811	8.108694	2.747300	-0.000325
 989	9.8306e+01	0.6385	11.297924	0.001064	10.642662	3.605831	-0.000426
 990	9.8406e+01	0.5904	10.938619	0.000902	9.020923	3.056371	-0.000361
 991	9.8505e+01	0.5486	10.551054	0.000973	9.730433	3.296760	-0.000390
 992	9.8605e+01	0.5214	10.272492	0.000699	6.993749	2.369546	-0.000280
 993	9.8704e+01	0.4781	9.840518	0.001085	10.845379	3.674514	-0.000434
 994	9.8803e+01	0.4299	9.521585	0.000801	8.007336	2.712959	-0.000321
 995	9.8903e+01	0.3930	9.097685	0.001064	10.642662	3.605831	-0.000426
 996	9.9002e+01	0.3513	8.750492	0.000872	8.716847	2.953348	-0.000349
 997	9.9102e+01	0.3160	8.419447	0.000831	8.311412	2.815983	-0.000333
 998	9.9201e+01	0.2791	8.060142	0.000902	9.020923	3.056371	-0.000361
 999	9.9301e+01	0.2390	7.708911	0.000882	8.818205	2.987689	-0.000353
1000	9.9400e+01	0.1893	7.297123	0.001034	10.338585	3.502808	-0.000414
1001	9.9500e+01	0.1588	6.966078	0.000831	8.311412	2.815983	-0.000333
1002	9.9600e+01	0.1203	6.610810	0.000892	8.919564	3.022030	-0.000357
1003	9.9699e+01	0.0738	6.194985	0.001044	10.439944	3.537149	-0.000418
1004	9.9799e+01	0.0305	5.867977	0.000821	8.210053	2.781641	-0.000329
1005	9.9898e+01	0.0096	5.569229	0.000750	7.500542	2.541253	-0.000300
1006	9.9998e+01	-0.0401	5.197812	0.000932	9.324999	3.159395	-0.000373
1007	1.0010e+02	-0.0706	4.834470	0.000912	9.122281	3.090713	-0.000365
1008	1.0020e+02	-0.1171	4.442868	0.000983	9.831792	3.331101	-0.000394
1009	1.0030e+02	-0.1588	4.091637	0.000882	8.818205	2.987689	-0.000353
1010	1.0040e+02	-0.1941	3.744443	0.000872	8.716847	2.953348	-0.000349
1011	1.0050e+02	-0.2374	3.352841	0.000983	9.831792	3.331101	-0.000394
1012	1.0059e+02	-0.2775	2.953165	0.001003	10.034509	3.399784	-0.000402
1013	1.0069e+02	-0.3208	2.597897	0.000892	8.919564	3.022030	-0.000357
1014	1.0079e+02	-0.3577	2.230517	0.000922	9.223640	3.125054	-0.000369
1015	1.0089e+02	-0.3946	1.899472	0.000831	8.311412	2.815983	-0.000333
1016	1.0099e+02	-0.4347	1.524019	0.000943	9.426357	3.193736	-0.000377
1017	1.0109e+02	-0.4765	1.124342	0.001003	10.034509	3.399784	-0.000402
1018	1.0119e+02	-0.5134	0.781186	0.000862	8.615488	2.919006	-0.000345
1019	1.0129e+02	-0.5647	0.454178	0.000821	8.210053	2.781641	-0.000329
1020	1.0139e+02	-0.5984	0.038353	0.001044	10.439944	3.537149	-0.000418
1021	1.0149e+02	-0.6337	-0.324989	0.000912	9.122281	3.090713	-0.000365
1022	1.0159e+02	-0.6786	-0.704480	0.000953	9.527716	3.228078	-0.000381
1023	1.0169e+02	-0.7059	-0.995154	0.000730	7.297825	2.472570	-0.000292
1024	1.0179e+02	-0.7540	-1.406942	0.001034	10.338585	3.502808	-0.000414
1025	1.0189e+02	-0.7973	-1.774321	0.000922	9.223640	3.125054	-0.000369
1026	1.0199e+02	-0.8262	-2.157849	0.000963	9.629075	3.262419	-0.000385
1027	1.0209e+02	-0.8759	-2.529266	0.000932	9.324999	3.159395	-0.000373
1028	1.0219e+02	-0.9080	-2.860311	0.000831	8.311412	2.815983	-0.000333
1029	1.0229e+02	-0.9561	-3.280173	0.001054	10.541303	3.571490	-0.000422
1030	1.0239e+02	-0.9882	-3.603144	0.000811	8.108694	2.747300	-0.000325
1031	1.0248e+02	-1.0283	-4.006857	0.001014	10.135868	3.434125	-0.000406
1032	1.0258e+02	-1.0796	-4.362125	0.000892	8.919564	3.022030	-0.000357
1033	1.0268e+02	-1.1085	-4.693170	0.000831	8.311412	2.815983	-0.000333
1034	1.0278e+02	-1.1518	-5.072661	0.000953	9.527716	3.228078	-0.000381
1035	1.0288e+02	-1.1903	-5.472337	0.001003	10.034509	3.399784	-0.000402
1036	1.0298e+02	-1.2369	-5.787234	0.000791	7.905977	2.678618	-0.000316
1037	1.0308e+02	-1.2770	-6.162688	0.000943	9.426357	3.193736	-0.000377
1038	1.0318e+02	-1.3123	-6.578513	0.001044	10.439944	3.537149	-0.000418
1039	1.0328e+02	-1.3556	-6.925706	0.000872	8.716847	2.953348	-0.000349
1040	1.0338e+02	-1.4005	-7.248677	0.000811	8.108694	2.747300	-0.000325
1041	1.0348e+02	-1.4278	-7.676614	0.001074	10.744020	3.640173	-0.000430
1042	1.0358e+02	-1.4775	-8.031882	0.000892	8.919564	3.022030	-0.000357
1043	1.0368e+02	-1.5048	-8.391187	0.000902	9.020923	3.056371	-0.000361
1044	1.0378e+02	-1.5513	-8.738380	0.000872	8.716847	2.953348	-0.000349
1045	1.0388e+02	-1.5914	-9.081537	0.000862	8.615488	2.919006	-0.000345
1046	1.0398e+02	-1.6235	-9.477176	0.000993	9.933151	3.365443	-0.000398
1047	1.0408e+02	-1.6604	-9.864741	0.000973	9.730433	3.296760	-0.000390
1048	1.0418e+02	-1.7101	-10.147341	0.000710	7.095108	2.403888	-0.000284
1049	1.0428e+02	-1.7470	-10.555091	0.001024	10.237227	3.468466	-0.000410
1050	1.0438e+02	-1.7887	-10.898248	0.000862	8.615488	2.919006	-0.000345
1051	1.0447e+02	-1.8336	-11.273702	0.000943	9.426357	3.193736	-0.000377
1052	1.0457e+02	-1.8705	-11.649155	0.000943	9.426357	3.193736	-0.000377
1053	1.0467e+02	-1.9171	-12.016535	0.000922	9.223640	3.125054	-0.000369
1054	1.0477e+02	-1.9507	-12.371802	0.000892	8.919564	3.022030	-0.000357
1055	1.0487e+02	-1.9892	-12.759368	0.000973	9.730433	3.296760	-0.000390
1056	1.0497e+02	-2.0229	-13.094450	0.000841	8.412771	2.850324	-0.000337
1057	1.0507e+02	-2.0727	-13.482015	0.000973	9.730433	3.296760	-0.000390
1058	1.0517e+02	-2.1112	-13.873617	0.000983	9.831792	3.331101	-0.000394
1059	1.0527e+02	-2.1497	-14.236959	0.000912	9.122281	3.090713	-0.000365
1060	1.0537e+02	-2.1882	-14.551856	0.000791	7.905977	2.678618	-0.000316
1061	1.0547e+02	-2.2395	-14.931347	0.000953	9.527716	3.228078	-0.000381
1062	1.0557e+02	-2.2764	-15.266429	0.000841	8.412771	2.850324	-0.000337
1063	1.0567e+02	-2.3037	-15.621697	0.000892	8.919564	3.022030	-0.000357
1064	1.0577e+02	-2.3454	-15.993113	0.000932	9.324999	3.159395	-0.000373
1065	1.0587e+02	-2.3887	-16.372604	0.000953	9.527716	3.228078	-0.000381
1066	1.0597e+02	-2.4288	-16.784392	0.001034	10.338585	3.502808	-0.000414
1067	1.0607e+02	-2.4753	-17.099288	0.000791	7.905977	2.678618	-0.000316
1068	1.0617e+02	-2.5026	-17.474742	0.000943	9.426357	3.193736	-0.000377
1069	1.0627e+02	-2.5459	-17.830010	0.000892	8.919564	3.022030	-0.000357
1070	1.0637e+02	-2.5844	-18.181241	0.000882	8.818205	2.987689	-0.000353
1071	1.0647e+02	-2.6342	-18.556694	0.000943	9.426357	3.193736	-0.000377
1072	1.0656e+02	-2.6582	-18.916000	0.000902	9.020923	3.056371	-0.000361
1073	1.0666e+02	-2.7095	-19.243007	0.000821	8.210053	2.781641	-0.000329
1074	1.0676e+02	-2.7513	-19.666907	0.001064	10.642662	3.605831	-0.000426
1075	1.0686e+02	-2.7785	-19.997952	0.000831	8.311412	2.815983	-0.000333
1076	1.0696e+02	-2.8234	-20.365331	0.000922	9.223640	3.125054	-0.000369
1077	1.0706e+02	-2.8636	-20.716562	0.000882	8.818205	2.987689	-0.000353
1078	1.0716e+02	-2.9085	-21.104127	0.000973	9.730433	3.296760	-0.000390
1079	1.0726e+02	-2.9422	-21.491692	0.000973	9.730433	3.296760	-0.000390
1080	1.0736e+02	-2.9839	-21.826774	0.000841	8.412771	2.850324	-0.000337
1081	1.0746e+02	-3.0224	-22.198191	0.000932	9.324999	3.159395	-0.000373
1082	1.0756e+02	-3.0641	-22.589793	0.000983	9.831792	3.331101	-0.000394
1083	1.0766e+02	-3.1106	-22.904690	0.000791	7.905977	2.678618	-0.000316
1084	1.0776e+02	-3.1443	-23.300329	0.000993	9.933151	3.365443	-0.000398
1085	1.0786e+02	-3.1764	-23.651560	0.000882	8.818205	2.987689	-0.000353
1086	1.0796e+02	-3.2245	-23.978568	0.000821	8.210053	2.781641	-0.000329
1087	1.0806e+02	-3.2598	-24.358058	0.000953	9.527716	3.228078	-0.000381
1088	1.0816e+02	-3.3095	-24.721401	0.000912	9.122281	3.090713	-0.000365
1089	1.0826e+02	-3.3480	-25.040334	0.000801	8.007336	2.712959	-0.000321
1090	1.0836e+02	-3.3833	-25.407714	0.000922	9.223640	3.125054	-0.000369
1091	1.0845e+02	-3.4218	-25.803353	0.000993	9.933151	3.365443	-0.000398
1092	1.0855e+02	-3.4667	-26.073841	0.000679	6.791032	2.300864	-0.000272
1093	1.0865e+02	-3.5036	-26.461406	0.000973	9.730433	3.296760	-0.000390
1094	1.0875e+02	-3.5405	-26.804563	0.000862	8.615488	2.919006	-0.000345
1095	1.0885e+02	-3.5774	-27.220388	0.001044	10.439944	3.537149	-0.000418
1096	1.0895e+02	-3.6224	-27.571619	0.000882	8.818205	2.987689	-0.000353
1097	1.0905e+02	-3.6609	-27.955146	0.000963	9.629075	3.262419	-0.000385
1098	1.0915e+02	-3.7090	-28.266006	0.000780	7.804618	2.644276	-0.000312
1099	1.0925e+02	-3.7379	-28.641459	0.000943	9.426357	3.193736	-0.000377
1100	1.0935e+02	-3.7844	-28.976542	0.000841	8.412771	2.850324	-0.000337
1101	1.0945e+02	-3.8165	-29.376218	0.001003	10.034509	3.399784	-0.000402
1102	1.0955e+02	-3.8630	-29.662855	0.000720	7.196466	2.438229	-0.000288
1103	1.0965e+02	-3.9063	-30.046383	0.000963	9.629075	3.262419	-0.000385
1104	1.0975e+02	-3.9400	-30.413762	0.000922	9.223640	3.125054	-0.000369
1105	1.0985e+02	-3.9801	-30.732696	0.000801	8.007336	2.712959	-0.000321
1106	1.0995e+02	-4.0138	-31.128335	0.000993	9.933151	3.365443	-0.000398
1107	1.1005e+02	-4.0555	-31.447269	0.000801	8.007336	2.712959	-0.000321
1108	1.1015e+02	-4.1004	-31.790425	0.000862	8.615488	2.919006	-0.000345
1109	1.1025e+02	-4.1373	-32.145693	0.000892	8.919564	3.022030	-0.000357
1110	1.1035e+02	-4.1854	-32.525184	0.000953	9.527716	3.228078	-0.000381
1111	1.1044e+02	-4.2175	-32.888526	0.000912	9.122281	3.090713	-0.000365
1112	1.1054e+02	-4.2512	-33.255906	0.000922	9.223640	3.125054	-0.000369
1113	1.1064e+02	-4.3042	-33.562728	0.000770	7.703260	2.609935	-0.000308
1114	1.1074e+02	-4.3378	-33.934144	0.000932	9.324999	3.159395	-0.000373
1115	1.1084e+02	-4.3796	-34.269227	0.000841	8.412771	2.850324	-0.000337
1116	1.1094e+02	-4.4165	-34.648717	0.000953	9.527716	3.228078	-0.000381
1117	1.1104e+02	-4.4598	-34.959577	0.000780	7.804618	2.644276	-0.000312
1118	1.1114e+02	-4.5095	-35.367328	0.001024	10.237227	3.468466	-0.000410
1119	1.1124e+02	-4.5287	-35.702410	0.000841	8.412771	2.850324	-0.000337
1120	1.1134e+02	-4.5785	-36.037492	0.000841	8.412771	2.850324	-0.000337
1121	1.1144e+02	-4.6106	-36.364500	0.000821	8.210053	2.781641	-0.000329
1122	1.1154e+02	-4.6571	-36.756102	0.000983	9.831792	3.331101	-0.000394
1123	1.1164e+02	-4.6956	-37.115407	0.000902	9.020923	3.056371	-0.000361
1124	1.1174e+02	-4.7261	-37.470675	0.000892	8.919564	3.022030	-0.000357
1125	1.1184e+02	-4.7806	-37.777498	0.000770	7.703260	2.609935	-0.000308
1126	1.1194e+02	-4.8191	-38.144877	0.000922	9.223640	3.125054	-0.000369
1127	1.1204e+02	-4.8544	-38.544553	0.001003	10.034509	3.399784	-0.000402
1128	1.1214e+02	-4.8945	-38.847339	0.000760	7.601901	2.575594	-0.000304
1129	1.1224e+02	-4.9346	-39.162235	0.000791	7.905977	2.678618	-0.000316
1130	1.1234e+02	-4.9779	-39.549800	0.000973	9.730433	3.296760	-0.000390
1131	1.1244e+02	-5.0004	-39.929291	0.000953	9.527716	3.228078	-0.000381
1132	1.1253e+02	-5.0549	-40.236113	0.000770	7.703260	2.609935	-0.000308
1133	1.1263e+02	-5.0950	-40.571196	0.000841	8.412771	2.850324	-0.000337
1134	1.1273e+02	-5.1416	-40.910315	0.000851	8.514129	2.884665	-0.000341
1135	1.1283e+02	-5.1720	-41.273657	0.000912	9.122281	3.090713	-0.000365
1136	1.1293e+02	-5.2170	-41.604702	0.000831	8.311412	2.815983	-0.000333
1137	1.1303e+02	-5.2603	-41.996305	0.000983	9.831792	3.331101	-0.000394
1138	1.1313e+02	-5.2988	-42.339461	0.000862	8.615488	2.919006	-0.000345
1139	1.1323e+02	-5.3325	-42.670506	0.000831	8.311412	2.815983	-0.000333
1140	1.1333e+02	-5.3710	-43.009626	0.000851	8.514129	2.884665	-0.000341
1141	1.1343e+02	-5.4207	-43.332596	0.000811	8.108694	2.747300	-0.000325
1142	1.1353e+02	-5.4496	-43.736310	0.001014	10.135868	3.434125	-0.000406
1143	1.1363e+02	-5.4913	-44.067355	0.000831	8.311412	2.815983	-0.000333
1144	1.1373e+02	-5.5266	-44.394363	0.000821	8.210053	2.781641	-0.000329
1145	1.1383e+02	-5.5699	-44.761742	0.000922	9.223640	3.125054	-0.000369
1146	1.1393e+02	-5.6100	-45.108936	0.000872	8.716847	2.953348	-0.000349
1147	1.1403e+02	-5.6613	-45.427870	0.000801	8.007336	2.712959	-0.000321
1148	1.1413e+02	-5.6918	-45.762952	0.000841	8.412771	2.850324	-0.000337
1149	1.1423e+02	-5.7367	-46.150517	0.000973	9.730433	3.296760	-0.000390
1150	1.1433e+02	-5.7752	-46.457340	0.000770	7.703260	2.609935	-0.000308
1151	1.1442e+02	-5.8137	-46.861053	0.001014	10.135868	3.434125	-0.000406
1152	1.1452e+02	-5.8474	-47.159801	0.000750	7.500542	2.541253	-0.000300
1153	1.1462e+02	-5.8859	-47.519106	0.000902	9.020923	3.056371	-0.000361
1154	1.1472e+02	-5.9341	-47.854188	0.000841	8.412771	2.850324	-0.000337
1155	1.1482e+02	-5.9758	-48.185234	0.000831	8.311412	2.815983	-0.000333
1156	1.1492e+02	-6.0175	-48.552613	0.000922	9.223640	3.125054	-0.000369
1157	1.1502e+02	-6.0528	-48.887695	0.000841	8.412771	2.850324	-0.000337
1158	1.1512e+02	-6.0897	-49.222777	0.000841	8.412771	2.850324	-0.000337
1159	1.1522e+02	-6.1426	-49.537674	0.000791	7.905977	2.678618	-0.000316
1160	1.1532e+02	-6.1699	-49.888905	0.000882	8.818205	2.987689	-0.000353
1161	1.1542e+02	-6.2100	-50.228024	0.000851	8.514129	2.884665	-0.000341
1162	1.1552e+02	-6.2517	-50.555032	0.000821	8.210053	2.781641	-0.000329
1163	1.1562e+02	-6.2918	-50.910300	0.000892	8.919564	3.022030	-0.000357
1164	1.1572e+02	-6.3367	-51.221160	0.000780	7.804618	2.644276	-0.000312
1165	1.1582e+02	-6.3688	-51.544131	0.000811	8.108694	2.747300	-0.000325
1166	1.1592e+02	-6.4169	-51.891324	0.000872	8.716847	2.953348	-0.000349
1167	1.1602e+02	-6.4570	-52.202184	0.000780	7.804618	2.644276	-0.000312
1168	1.1612e+02	-6.4891	-52.525155	0.000811	8.108694	2.747300	-0.000325
1169	1.1622e+02	-6.5260	-52.904645	0.000953	9.527716	3.228078	-0.000381
1170	1.1632e+02	-6.5661	-53.219542	0.000791	7.905977	2.678618	-0.000316
1171	1.1642e+02	-6.6062	-53.582884	0.000912	9.122281	3.090713	-0.000365
1172	1.1651e+02	-6.6511	-53.926041	0.000862	8.615488	2.919006	-0.000345
1173	1.1661e+02	-6.6832	-54.253049	0.000821	8.210053	2.781641	-0.000329
1174	1.1671e+02	-6.7298	-54.600242	0.000872	8.716847	2.953348	-0.000349
1175	1.1681e+02	-6.7634	-54.919176	0.000801	8.007336	2.712959	-0.000321
1176	1.1691e+02	-6.8036	-55.282518	0.000912	9.122281	3.090713	-0.000365
1177	1.1701e+02	-6.8453	-55.585303	0.000760	7.601901	2.575594	-0.000304
1178	1.1711e+02	-6.8790	-55.932497	0.000872	8.716847	2.953348	-0.000349
1179	1.1721e+02	-6.9271	-56.299876	0.000922	9.223640	3.125054	-0.000369
1180	1.1731e+02	-6.9624	-56.606699	0.000770	7.703260	2.609935	-0.000308
1181	1.1741e+02	-7.0057	-56.945818	0.000851	8.514129	2.884665	-0.000341
1182	1.1751e+02	-7.0378	-57.276863	0.000831	8.311412	2.815983	-0.000333
1183	1.1761e+02	-7.0779	-57.644243	0.000922	9.223640	3.125054	-0.000369
1184	1.1771e+02	-7.1260	-57.983362	0.000851	8.514129	2.884665	-0.000341
1185	1.1781e+02	-7.1661	-58.310370	0.000821	8.210053	2.781641	-0.000329
1186	1.1791e+02	-7.1966	-58.609118	0.000750	7.500542	2.541253	-0.000300
1187	1.1801e+02	-7.2495	-58.956312	0.000872	8.716847	2.953348	-0.000349
1188	1.1811e+02	-7.2784	-59.327728	0.000932	9.324999	3.159395	-0.000373
1189	1.1821e+02	-7.3281	-59.703182	0.000943	9.426357	3.193736	-0.000377
1190	1.1831e+02	-7.3586	-59.949447	0.000618	6.182880	2.094816	-0.000248
1191	1.1841e+02	-7.4100	-60.296641	0.000872	8.716847	2.953348	-0.000349
1192	1.1850e+02	-7.4485	-60.688243	0.000983	9.831792	3.331101	-0.000394
1193	1.1860e+02	-7.4789	-60.982954	0.000740	7.399184	2.506911	-0.000296
1194	1.1870e+02	-7.5351	-61.313999	0.000831	8.311412	2.815983	-0.000333
1195	1.1880e+02	-7.5672	-61.685416	0.000932	9.324999	3.159395	-0.000373
1196	1.1890e+02	-7.6041	-61.947829	0.000659	6.588314	2.232181	-0.000264
1197	1.1900e+02	-7.6442	-62.319246	0.000932	9.324999	3.159395	-0.000373
1198	1.1910e+02	-7.6827	-62.613957	0.000740	7.399184	2.506911	-0.000296
1199	1.1920e+02	-7.7244	-62.945002	0.000831	8.311412	2.815983	-0.000333
1200	1.1930e+02	-7.7533	-63.255861	0.000780	7.804618	2.644276	-0.000312
1201	1.1940e+02	-7.8078	-63.635352	0.000953	9.527716	3.228078	-0.000381
1202	1.1950e+02	-7.8399	-63.962360	0.000821	8.210053	2.781641	-0.000329
1203	1.1960e+02	-7.8864	-64.293405	0.000831	8.311412	2.815983	-0.000333
1204	1.1970e+02	-7.9281	-64.632525	0.000851	8.514129	2.884665	-0.000341
1205	1.1980e+02	-7.9538	-64.911087	0.000699	6.993749	2.369546	-0.000280
1206	1.1990e+02	-8.0035	-65.238095	0.000821	8.210053	2.781641	-0.000329
1207	1.2000e+02	-8.0420	-65.601437	0.000912	9.122281	3.090713	-0.000365
1208	1.2010e+02	-8.0773	-65.900185	0.000750	7.500542	2.541253	-0.000300
1209	1.2020e+02	-8.1335	-66.271602	0.000932	9.324999	3.159395	-0.000373
1210	1.2030e+02	-8.1671	-66.614758	0.000862	8.615488	2.919006	-0.000345
1211	1.2039e+02	-8.1976	-66.909469	0.000740	7.399184	2.506911	-0.000296
1212	1.2049e+02	-8.2393	-67.244551	0.000841	8.412771	2.850324	-0.000337
1213	1.2059e+02	-8.2827	-67.583671	0.000851	8.514129	2.884665	-0.000341
1214	1.2069e+02	-8.3196	-67.902605	0.000801	8.007336	2.712959	-0.000321
1215	1.2079e+02	-8.3661	-68.181167	0.000699	6.993749	2.369546	-0.000280
1216	1.2089e+02	-8.3998	-68.512212	0.000831	8.311412	2.815983	-0.000333
1217	1.2099e+02	-8.4399	-68.806923	0.000740	7.399184	2.506911	-0.000296
1218	1.2109e+02	-8.4816	-69.162191	0.000892	8.919564	3.022030	-0.000357
1219	1.2119e+02	-8.5185	-69.493236	0.000831	8.311412	2.815983	-0.000333
1220	1.2129e+02	-8.5666	-69.820244	0.000821	8.210053	2.781641	-0.000329
1221	1.2139e+02	-8.6003	-70.114955	0.000740	7.399184	2.506911	-0.000296
1222	1.2149e+02	-8.6324	-70.466186	0.000882	8.818205	2.987689	-0.000353
1223	1.2159e+02	-8.6757	-70.789157	0.000811	8.108694	2.747300	-0.000325
1224	1.2169e+02	-8.7206	-71.104053	0.000791	7.905977	2.678618	-0.000316
1225	1.2179e+02	-8.7639	-71.402801	0.000750	7.500542	2.541253	-0.000300
1226	1.2189e+02	-8.7960	-71.762106	0.000902	9.020923	3.056371	-0.000361
1227	1.2199e+02	-8.8409	-72.048743	0.000720	7.196466	2.438229	-0.000288
1228	1.2209e+02	-8.8826	-72.379788	0.000831	8.311412	2.815983	-0.000333
1229	1.2219e+02	-8.9211	-72.726982	0.000872	8.716847	2.953348	-0.000349
1230	1.2229e+02	-8.9548	-73.029767	0.000760	7.601901	2.575594	-0.000304
1231	1.2239e+02	-9.0046	-73.308329	0.000699	6.993749	2.369546	-0.000280
1232	1.2248e+02	-9.0431	-73.639374	0.000831	8.311412	2.815983	-0.000333
1233	1.2258e+02	-9.0703	-73.946197	0.000770	7.703260	2.609935	-0.000308
1234	1.2268e+02	-9.1201	-74.265130	0.000801	8.007336	2.712959	-0.000321
1235	1.2278e+02	-9.1489	-74.632510	0.000922	9.223640	3.125054	-0.000369
1236	1.2288e+02	-9.1890	-74.947406	0.000791	7.905977	2.678618	-0.000316
1237	1.2298e+02	-9.2404	-75.290563	0.000862	8.615488	2.919006	-0.000345
1238	1.2308e+02	-9.2805	-75.569125	0.000699	6.993749	2.369546	-0.000280
1239	1.2318e+02	-9.3174	-75.884022	0.000791	7.905977	2.678618	-0.000316
1240	1.2328e+02	-9.3527	-76.186807	0.000760	7.601901	2.575594	-0.000304
1241	1.2338e+02	-9.3976	-76.513815	0.000821	8.210053	2.781641	-0.000329
1242	1.2348e+02	-9.4345	-76.820637	0.000770	7.703260	2.609935	-0.000308
1243	1.2358e+02	-9.4714	-77.119385	0.000750	7.500542	2.541253	-0.000300
1244	1.2368e+02	-9.5179	-77.450431	0.000831	8.311412	2.815983	-0.000333
1245	1.2378e+02	-9.5612	-77.761290	0.000780	7.804618	2.644276	-0.000312
1246	1.2388e+02	-9.5981	-78.080224	0.000801	8.007336	2.712959	-0.000321
1247	1.2398e+02	-9.6302	-78.391083	0.000780	7.804618	2.644276	-0.000312
1248	1.2408e+02	-9.6831	-78.714054	0.000811	8.108694	2.747300	-0.000325
1249	1.2418e+02	-9.7200	-79.004728	0.000730	7.297825	2.472570	-0.000292
1250	1.2428e+02	-9.7505	-79.343847	0.000851	8.514129	2.884665	-0.000341
1251	1.2438e+02	-9.7890	-79.691041	0.000872	8.716847	2.953348	-0.000349
1252	1.2447e+02	-9.8339	-79.937306	0.000618	6.182880	2.094816	-0.000248
1253	1.2457e+02	-9.8773	-80.268351	0.000831	8.311412	2.815983	-0.000333
1254	1.2467e+02	-9.9222	-80.623619	0.000892	8.919564	3.022030	-0.000357
1255	1.2477e+02	-9.9591	-80.958702	0.000841	8.412771	2.850324	-0.000337
1256	1.2487e+02	-9.9863	-81.213041	0.000639	6.385597	2.163499	-0.000256
1257	1.2497e+02	-10.0377	-81.503715	0.000730	7.297825	2.472570	-0.000292
1258	1.2507e+02	-10.0746	-81.842834	0.000851	8.514129	2.884665	-0.000341
1259	1.2517e+02	-10.1163	-82.149657	0.000770	7.703260	2.609935	-0.000308
1260	1.2527e+02	-10.1516	-82.472627	0.000811	8.108694	2.747300	-0.000325
1261	1.2537e+02	-10.1853	-82.743116	0.000679	6.791032	2.300864	-0.000272
1262	1.2547e+02	-10.2270	-83.062049	0.000801	8.007336	2.712959	-0.000321
1263	1.2557e+02	-10.2671	-83.401169	0.000851	8.514129	2.884665	-0.000341
1264	1.2567e+02	-10.3184	-83.675694	0.000689	6.892390	2.335205	-0.000276
1265	1.2577e+02	-10.3505	-83.994628	0.000801	8.007336	2.712959	-0.000321
1266	1.2587e+02	-10.3970	-84.277227	0.000710	7.095108	2.403888	-0.000284
1267	1.2597e+02	-10.4371	-84.616347	0.000851	8.514129	2.884665	-0.000341
1268	1.2607e+02	-10.4676	-84.878760	0.000659	6.588314	2.232181	-0.000264
1269	1.2617e+02	-10.5109	-85.242103	0.000912	9.122281	3.090713	-0.000365
1270	1.2627e+02	-10.5559	-85.536813	0.000740	7.399184	2.506911	-0.000296
1271	1.2636e+02	-10.5895	-85.795190	0.000649	6.486956	2.197840	-0.000260
1272	1.2646e+02	-10.6313	-86.142384	0.000872	8.716847	2.953348	-0.000349
1273	1.2656e+02	-10.6649	-86.412872	0.000679	6.791032	2.300864	-0.000272
1274	1.2666e+02	-10.7050	-86.699509	0.000720	7.196466	2.438229	-0.000288
1275	1.2676e+02	-10.7548	-87.010368	0.000780	7.804618	2.644276	-0.000312
1276	1.2686e+02	-10.7917	-87.317190	0.000770	7.703260	2.609935	-0.000308
1277	1.2696e+02	-10.8318	-87.619975	0.000760	7.601901	2.575594	-0.000304
1278	1.2706e+02	-10.8783	-87.938909	0.000801	8.007336	2.712959	-0.000321
1279	1.2716e+02	-10.9200	-88.221509	0.000710	7.095108	2.403888	-0.000284
1280	1.2726e+02	-10.9505	-88.560628	0.000851	8.514129	2.884665	-0.000341
1281	1.2736e+02	-10.9954	-88.827079	0.000669	6.689673	2.266523	-0.000268
1282	1.2746e+02	-11.0339	-89.137939	0.000780	7.804618	2.644276	-0.000312
1283	1.2756e+02	-11.0676	-89.477058	0.000851	8.514129	2.884665	-0.000341
1284	1.2766e+02	-11.1093	-89.775806	0.000750	7.500542	2.541253	-0.000300
1285	1.2776e+02	-11.1526	-90.062443	0.000720	7.196466	2.438229	-0.000288
1286	1.2786e+02	-11.1943	-90.353116	0.000730	7.297825	2.472570	-0.000292
1287	1.2796e+02	-11.2264	-90.611493	0.000649	6.486956	2.197840	-0.000260
1288	1.2806e+02	-11.2713	-90.946575	0.000841	8.412771	2.850324	-0.000337
1289	1.2816e+02	-11.3098	-91.277620	0.000831	8.311412	2.815983	-0.000333
1290	1.2826e+02	-11.3532	-91.548109	0.000679	6.791032	2.300864	-0.000272
1291	1.2835e+02	-11.3868	-91.858968	0.000780	7.804618	2.644276	-0.000312
1292	1.2845e+02	-11.4286	-92.129456	0.000679	6.791032	2.300864	-0.000272
1293	1.2855e+02	-11.4719	-92.452427	0.000811	8.108694	2.747300	-0.000325
1294	1.2865e+02	-11.5104	-92.771361	0.000801	8.007336	2.712959	-0.000321
1295	1.2875e+02	-11.5425	-93.062034	0.000730	7.297825	2.472570	-0.000292
1296	1.2885e+02	-11.5794	-93.368857	0.000770	7.703260	2.609935	-0.000308
1297	1.2895e+02	-11.6291	-93.639345	0.000679	6.791032	2.300864	-0.000272
1298	1.2905e+02	-11.6612	-93.974427	0.000841	8.412771	2.850324	-0.000337
1299	1.2915e+02	-11.7077	-94.208581	0.000588	5.878804	1.991793	-0.000235
1300	1.2925e+02	-11.7398	-94.523478	0.000791	7.905977	2.678618	-0.000316
1301	1.2935e+02	-11.7943	-94.814151	0.000730	7.297825	2.472570	-0.000292
1302	1.2945e+02	-11.8248	-95.161345	0.000872	8.716847	2.953348	-0.000349
1303	1.2955e+02	-11.8697	-95.460093	0.000750	7.500542	2.541253	-0.000300
1304	1.2965e+02	-11.9034	-95.758841	0.000750	7.500542	2.541253	-0.000300
1305	1.2975e+02	-11.9499	-96.041441	0.000710	7.095108	2.403888	-0.000284
1306	1.2985e+02	-11.9948	-96.364411	0.000811	8.108694	2.747300	-0.000325
1307	1.2995e+02	-12.0301	-96.634900	0.000679	6.791032	2.300864	-0.000272
1308	1.3005e+02	-12.0735	-96.929611	0.000740	7.399184	2.506911	-0.000296
1309	1.3015e+02	-12.1039	-97.183950	0.000639	6.385597	2.163499	-0.000256
1310	1.3025e+02	-12.1440	-97.506921	0.000811	8.108694	2.747300	-0.000325
1311	1.3034e+02	-12.1874	-97.842003	0.000841	8.412771	2.850324	-0.000337
1312	1.3044e+02	-12.2243	-98.136714	0.000740	7.399184	2.506911	-0.000296
1313	1.3054e+02	-12.2563	-98.387017	0.000628	6.284238	2.129158	-0.000252
1314	1.3064e+02	-12.3093	-98.705950	0.000801	8.007336	2.712959	-0.000321
1315	1.3074e+02	-12.3478	-98.972401	0.000669	6.689673	2.266523	-0.000268
1316	1.3084e+02	-12.3831	-99.295372	0.000811	8.108694	2.747300	-0.000325
1317	1.3094e+02	-12.4280	-99.565860	0.000679	6.791032	2.300864	-0.000272
1318	1.3104e+02	-12.4649	-99.832311	0.000669	6.689673	2.266523	-0.000268
1319	1.3114e+02	-12.5050	-100.143171	0.000780	7.804618	2.644276	-0.000312
1320	1.3124e+02	-12.5403	-100.490364	0.000872	8.716847	2.953348	-0.000349
1321	1.3134e+02	-12.5836	-100.736630	0.000618	6.182880	2.094816	-0.000248
1322	1.3144e+02	-12.6301	-101.019229	0.000710	7.095108	2.403888	-0.000284
1323	1.3154e+02	-12.6574	-101.305866	0.000720	7.196466	2.438229	-0.000288
1324	1.3164e+02	-12.6943	-101.632874	0.000821	8.210053	2.781641	-0.000329
1325	1.3174e+02	-12.7376	-101.911436	0.000699	6.993749	2.369546	-0.000280
1326	1.3184e+02	-12.7873	-102.169813	0.000649	6.486956	2.197840	-0.000260
1327	1.3194e+02	-12.8226	-102.476635	0.000770	7.703260	2.609935	-0.000308
1328	1.3204e+02	-12.8627	-102.787494	0.000780	7.804618	2.644276	-0.000312
1329	1.3214e+02	-12.9028	-103.062020	0.000689	6.892390	2.335205	-0.000276
1330	1.3224e+02	-12.9269	-103.344619	0.000710	7.095108	2.403888	-0.000284
1331	1.3234e+02	-12.9750	-103.566662	0.000557	5.574727	1.888769	-0.000223
1332	1.3243e+02	-13.0216	-103.893670	0.000821	8.210053	2.781641	-0.000329
1333	1.3253e+02	-13.0649	-104.212603	0.000801	8.007336	2.712959	-0.000321
1334	1.3263e+02	-13.1034	-104.503277	0.000730	7.297825	2.472570	-0.000292
1335	1.3273e+02	-13.1403	-104.789914	0.000720	7.196466	2.438229	-0.000288
1336	1.3283e+02	-13.1836	-105.056365	0.000669	6.689673	2.266523	-0.000268
1337	1.3293e+02	-13.2237	-105.371261	0.000791	7.905977	2.678618	-0.000316
1338	1.3303e+02	-13.2638	-105.605415	0.000588	5.878804	1.991793	-0.000235
1339	1.3313e+02	-13.2975	-105.928386	0.000811	8.108694	2.747300	-0.000325
1340	1.3323e+02	-13.3408	-106.202911	0.000689	6.892390	2.335205	-0.000276
1341	1.3333e+02	-13.3873	-106.481474	0.000699	6.993749	2.369546	-0.000280
1342	1.3343e+02	-13.4210	-106.792333	0.000780	7.804618	2.644276	-0.000312
1343	1.3353e+02	-13.4691	-107.131453	0.000851	8.514129	2.884665	-0.000341
1344	1.3363e+02	-13.4868	-107.381755	0.000628	6.284238	2.129158	-0.000252
1345	1.3373e+02	-13.5333	-107.664354	0.000710	7.095108	2.403888	-0.000284
1346	1.3383e+02	-13.5798	-107.955028	0.000730	7.297825	2.472570	-0.000292
1347	1.3393e+02	-13.6247	-108.205331	0.000628	6.284238	2.129158	-0.000252
1348	1.3403e+02	-13.6600	-108.520227	0.000791	7.905977	2.678618	-0.000316
1349	1.3413e+02	-13.7034	-108.818975	0.000750	7.500542	2.541253	-0.000300
1350	1.3423e+02	-13.7370	-109.145983	0.000821	8.210053	2.781641	-0.000329
1351	1.3432e+02	-13.7804	-109.408397	0.000659	6.588314	2.232181	-0.000264
1352	1.3442e+02	-13.8108	-109.674848	0.000669	6.689673	2.266523	-0.000268
1353	1.3452e+02	-13.8606	-109.981670	0.000770	7.703260	2.609935	-0.000308
1354	1.3462e+02	-13.8959	-110.256196	0.000689	6.892390	2.335205	-0.000276
1355	1.3472e+02	-13.9376	-110.510535	0.000639	6.385597	2.163499	-0.000256
1356	1.3482e+02	-13.9745	-110.833506	0.000811	8.108694	2.747300	-0.000325
1357	1.3492e+02	-14.0258	-111.108031	0.000689	6.892390	2.335205	-0.000276
1358	1.3502e+02	-14.0579	-111.382556	0.000689	6.892390	2.335205	-0.000276
1359	1.3512e+02	-14.0964	-111.653045	0.000679	6.791032	2.300864	-0.000272
1360	1.3522e+02	-14.1429	-111.943718	0.000730	7.297825	2.472570	-0.000292
1361	1.3532e+02	-14.1830	-112.242466	0.000750	7.500542	2.541253	-0.000300
1362	1.3542e+02	-14.2151	-112.512954	0.000679	6.791032	2.300864	-0.000272
1363	1.3552e+02	-14.2584	-112.811702	0.000750	7.500542	2.541253	-0.000300
1364	1.3562e+02	-14.3049	-113.086228	0.000689	6.892390	2.335205	-0.000276
1365	1.3572e+02	-14.3402	-113.380939	0.000740	7.399184	2.506911	-0.000296
1366	1.3582e+02	-14.3819	-113.691798	0.000780	7.804618	2.644276	-0.000312
1367	1.3592e+02	-14.4221	-113.938063	0.000618	6.182880	2.094816	-0.000248
1368	1.3602e+02	-14.4622	-114.277183	0.000851	8.514129	2.884665	-0.000341
1369	1.3612e+02	-14.5023	-114.511337	0.000588	5.878804	1.991793	-0.000235
1370	1.3622e+02	-14.5392	-114.810085	0.000750	7.500542	2.541253	-0.000300
1371	1.3631e+02	-14.5745	-115.084610	0.000689	6.892390	2.335205	-0.000276
1372	1.3641e+02	-14.6178	-115.363172	0.000699	6.993749	2.369546	-0.000280
1373	1.3651e+02	-14.6643	-115.669995	0.000770	7.703260	2.609935	-0.000308
1374	1.3661e+02	-14.7012	-115.972780	0.000760	7.601901	2.575594	-0.000304
1375	1.3671e+02	-14.7317	-116.223082	0.000628	6.284238	2.129158	-0.000252
1376	1.3681e+02	-14.7878	-116.537979	0.000791	7.905977	2.678618	-0.000316
1377	1.3691e+02	-14.8167	-116.772133	0.000588	5.878804	1.991793	-0.000235
1378	1.3701e+02	-14.8520	-117.091066	0.000801	8.007336	2.712959	-0.000321
1379	1.3711e+02	-14.8921	-117.321183	0.000578	5.777445	1.957451	-0.000231
1380	1.3721e+02	-14.9194	-117.636080	0.000791	7.905977	2.678618	-0.000316
1381	1.3731e+02	-14.9707	-117.910605	0.000689	6.892390	2.335205	-0.000276
1382	1.3741e+02	-15.0188	-118.193204	0.000710	7.095108	2.403888	-0.000284
1383	1.3751e+02	-15.0541	-118.475804	0.000710	7.095108	2.403888	-0.000284
1384	1.3761e+02	-15.0974	-118.806849	0.000831	8.311412	2.815983	-0.000333
1385	1.3771e+02	-15.1375	-119.097523	0.000730	7.297825	2.472570	-0.000292
1386	1.3781e+02	-15.1728	-119.400308	0.000760	7.601901	2.575594	-0.000304
1387	1.3791e+02	-15.2113	-119.686945	0.000720	7.196466	2.438229	-0.000288
1388	1.3801e+02	-15.2611	-119.913024	0.000568	5.676086	1.923110	-0.000227
1389	1.3811e+02	-15.2851	-120.240032	0.000821	8.210053	2.781641	-0.000329
1390	1.3821e+02	-15.3284	-120.522632	0.000710	7.095108	2.403888	-0.000284
1391	1.3831e+02	-15.3718	-120.789083	0.000669	6.689673	2.266523	-0.000268
1392	1.3840e+02	-15.4151	-121.091868	0.000760	7.601901	2.575594	-0.000304
1393	1.3850e+02	-15.4584	-121.378505	0.000720	7.196466	2.438229	-0.000288
1394	1.3860e+02	-15.4905	-121.632844	0.000639	6.385597	2.163499	-0.000256
1395	1.3870e+02	-15.5290	-121.923518	0.000730	7.297825	2.472570	-0.000292
1396	1.3880e+02	-15.5691	-122.218229	0.000740	7.399184	2.506911	-0.000296
1397	1.3890e+02	-15.6156	-122.529088	0.000780	7.804618	2.644276	-0.000312
1398	1.3900e+02	-15.6525	-122.823799	0.000740	7.399184	2.506911	-0.000296
1399	1.3910e+02	-15.6910	-123.078139	0.000639	6.385597	2.163499	-0.000256
1400	1.3920e+02	-15.7295	-123.384961	0.000770	7.703260	2.609935	-0.000308
1401	1.3930e+02	-15.7680	-123.623152	0.000598	5.980162	2.026134	-0.000239
1402	1.3940e+02	-15.8065	-123.909789	0.000720	7.196466	2.438229	-0.000288
1403	1.3950e+02	-15.8530	-124.252945	0.000862	8.615488	2.919006	-0.000345
1404	1.3960e+02	-15.8947	-124.543619	0.000730	7.297825	2.472570	-0.000292
1405	1.3970e+02	-15.9332	-124.830256	0.000720	7.196466	2.438229	-0.000288
1406	1.3980e+02	-15.9669	-125.092669	0.000659	6.588314	2.232181	-0.000264
1407	1.3990e+02	-16.0118	-125.427752	0.000841	8.412771	2.850324	-0.000337
1408	1.4000e+02	-16.0407	-125.710351	0.000710	7.095108	2.403888	-0.000284
1409	1.4010e+02	-16.1001	-126.029285	0.000801	8.007336	2.712959	-0.000321
1410	1.4020e+02	-16.1274	-126.283624	0.000639	6.385597	2.163499	-0.000256
1411	1.4029e+02	-16.1787	-126.602558	0.000801	8.007336	2.712959	-0.000321
1412	1.4039e+02	-16.2140	-126.901306	0.000750	7.500542	2.541253	-0.000300
1413	1.4049e+02	-16.2429	-127.187943	0.000720	7.196466	2.438229	-0.000288
1414	1.4059e+02	-16.2894	-127.498802	0.000780	7.804618	2.644276	-0.000312
1415	1.4069e+02	-16.3295	-127.797550	0.000750	7.500542	2.541253	-0.000300
1416	1.4079e+02	-16.3664	-128.072076	0.000689	6.892390	2.335205	-0.000276
1417	1.4089e+02	-16.4145	-128.395046	0.000811	8.108694	2.747300	-0.000325
1418	1.4099e+02	-16.4482	-128.685720	0.000730	7.297825	2.472570	-0.000292
1419	1.4109e+02	-16.4867	-129.045025	0.000902	9.020923	3.056371	-0.000361
1420	1.4119e+02	-16.5236	-129.303402	0.000649	6.486956	2.197840	-0.000260
1421	1.4129e+02	-16.5830	-129.606187	0.000760	7.601901	2.575594	-0.000304
1422	1.4139e+02	-16.6054	-129.884750	0.000699	6.993749	2.369546	-0.000280
1423	1.4149e+02	-16.6487	-130.203683	0.000801	8.007336	2.712959	-0.000321
1424	1.4159e+02	-16.6985	-130.458023	0.000639	6.385597	2.163499	-0.000256
1425	1.4169e+02	-16.7273	-130.780994	0.000811	8.108694	2.747300	-0.000325
1426	1.4179e+02	-16.7690	-131.091853	0.000780	7.804618	2.644276	-0.000312
1427	1.4189e+02	-16.8108	-131.422898	0.000831	8.311412	2.815983	-0.000333
1428	1.4199e+02	-16.8460	-131.717609	0.000740	7.399184	2.506911	-0.000296
1429	1.4209e+02	-16.8910	-132.020394	0.000760	7.601901	2.575594	-0.000304
1430	1.4219e+02	-16.9375	-132.339328	0.000801	8.007336	2.712959	-0.000321
1431	1.4228e+02	-16.9696	-132.678447	0.000851	8.514129	2.884665	-0.000341
1432	1.4238e+02	-17.0081	-132.916638	0.000598	5.980162	2.026134	-0.000239
1433	1.4248e+02	-17.0466	-133.284018	0.000922	9.223640	3.125054	-0.000369
1434	1.4258e+02	-17.0803	-133.602952	0.000801	8.007336	2.712959	-0.000321
1435	1.4268e+02	-17.1300	-133.873440	0.000679	6.791032	2.300864	-0.000272
1436	1.4278e+02	-17.1605	-134.224670	0.000882	8.818205	2.987689	-0.000353
1437	1.4288e+02	-17.2038	-134.547641	0.000811	8.108694	2.747300	-0.000325
1438	1.4298e+02	-17.2503	-134.814092	0.000669	6.689673	2.266523	-0.000268
1439	1.4308e+02	-17.2936	-135.189546	0.000943	9.426357	3.193736	-0.000377
1440	1.4318e+02	-17.3209	-135.468108	0.000699	6.993749	2.369546	-0.000280
1441	1.4328e+02	-17.3658	-135.766856	0.000750	7.500542	2.541253	-0.000300
1442	1.4338e+02	-17.4075	-136.089827	0.000811	8.108694	2.747300	-0.000325
1443	1.4348e+02	-17.4492	-136.465281	0.000943	9.426357	3.193736	-0.000377
1444	1.4358e+02	-17.4877	-136.776140	0.000780	7.804618	2.644276	-0.000312
1445	1.4368e+02	-17.5230	-137.107185	0.000831	8.311412	2.815983	-0.000333
1446	1.4378e+02	-17.5631	-137.446305	0.000851	8.514129	2.884665	-0.000341
1447	1.4388e+02	-17.6065	-137.797536	0.000882	8.818205	2.987689	-0.000353
1448	1.4398e+02	-17.6417	-138.112432	0.000791	7.905977	2.678618	-0.000316
1449	1.4408e+02	-17.6786	-138.443477	0.000831	8.311412	2.815983	-0.000333
1450	1.4418e+02	-17.7188	-138.750300	0.000770	7.703260	2.609935	-0.000308
1451	1.4428e+02	-17.7589	-139.141902	0.000983	9.831792	3.331101	-0.000394
1452	1.4437e+02	-17.8038	-139.476984	0.000841	8.412771	2.850324	-0.000337
1453	1.4447e+02	-17.8503	-139.844363	0.000922	9.223640	3.125054	-0.000369
1454	1.4457e+02	-17.8840	-140.126963	0.000710	7.095108	2.403888	-0.000284
1455	1.4467e+02	-17.9257	-140.466082	0.000851	8.514129	2.884665	-0.000341
1456	1.4477e+02	-17.9626	-140.797127	0.000831	8.311412	2.815983	-0.000333
1457	1.4487e+02	-18.0075	-141.172581	0.000943	9.426357	3.193736	-0.000377
1458	1.4497e+02	-18.0380	-141.507663	0.000841	8.412771	2.850324	-0.000337
1459	1.4507e+02	-18.0861	-141.891191	0.000963	9.629075	3.262419	-0.000385
1460	1.4517e+02	-18.1278	-142.210125	0.000801	8.007336	2.712959	-0.000321
1461	1.4527e+02	-18.1567	-142.573467	0.000912	9.122281	3.090713	-0.000365
1462	1.4537e+02	-18.1984	-142.973144	0.001003	10.034509	3.399784	-0.000402
1463	1.4547e+02	-18.2337	-143.344560	0.000932	9.324999	3.159395	-0.000373
1464	1.4557e+02	-18.2850	-143.687717	0.000862	8.615488	2.919006	-0.000345
1465	1.4567e+02	-18.3300	-144.075282	0.000973	9.730433	3.296760	-0.000390
1466	1.4577e+02	-18.3588	-144.446698	0.000932	9.324999	3.159395	-0.000373
1467	1.4587e+02	-18.4038	-144.806003	0.000902	9.020923	3.056371	-0.000361
1468	1.4597e+02	-18.4326	-145.124937	0.000801	8.007336	2.712959	-0.000321
1469	1.4607e+02	-18.4856	-145.548836	0.001064	10.642662	3.605831	-0.000426
1470	1.4617e+02	-18.5209	-145.900067	0.000882	8.818205	2.987689	-0.000353
1471	1.4626e+02	-18.5626	-146.315892	0.001044	10.439944	3.537149	-0.000418
1472	1.4636e+02	-18.5898	-146.659049	0.000862	8.615488	2.919006	-0.000345
1473	1.4646e+02	-18.6460	-147.050651	0.000983	9.831792	3.331101	-0.000394
1474	1.4656e+02	-18.6829	-147.466476	0.001044	10.439944	3.537149	-0.000418
1475	1.4666e+02	-18.7198	-147.845966	0.000953	9.527716	3.228078	-0.000381
1476	1.4676e+02	-18.7679	-148.229494	0.000963	9.629075	3.262419	-0.000385
1477	1.4686e+02	-18.7984	-148.629171	0.001003	10.034509	3.399784	-0.000402
1478	1.4696e+02	-18.8545	-149.036921	0.001024	10.237227	3.468466	-0.000410
1479	1.4706e+02	-18.8850	-149.416412	0.000953	9.527716	3.228078	-0.000381
1480	1.4716e+02	-18.9283	-149.840311	0.001064	10.642662	3.605831	-0.000426
1481	1.4726e+02	-18.9636	-150.207691	0.000922	9.223640	3.125054	-0.000369
1482	1.4736e+02	-19.0053	-150.667924	0.001155	11.554890	3.914903	-0.000463
1483	1.4746e+02	-19.0342	-151.083749	0.001044	10.439944	3.537149	-0.000418
1484	1.4756e+02	-19.0759	-151.503611	0.001054	10.541303	3.571490	-0.000422
1485	1.4766e+02	-19.1176	-151.919436	0.001044	10.439944	3.537149	-0.000418
1486	1.4776e+02	-19.1545	-152.302964	0.000963	9.629075	3.262419	-0.000385
1487	1.4786e+02	-19.1995	-152.706678	0.001014	10.135868	3.434125	-0.000406
1488	1.4796e+02	-19.2428	-153.191134	0.001216	12.163042	4.120950	-0.000487
1489	1.4806e+02	-19.2829	-153.619071	0.001074	10.744020	3.640173	-0.000430
1490	1.4816e+02	-19.3150	-154.010673	0.000983	9.831792	3.331101	-0.000394
1491	1.4825e+02	-19.3503	-154.487055	0.001196	11.960324	4.052268	-0.000479
1492	1.4835e+02	-19.3968	-154.923065	0.001095	10.946738	3.708855	-0.000438
1493	1.4845e+02	-19.4305	-155.326779	0.001014	10.135868	3.434125	-0.000406
1494	1.4855e+02	-19.4754	-155.738567	0.001034	10.338585	3.502808	-0.000414
1495	1.4865e+02	-19.5155	-156.231097	0.001237	12.365759	4.189633	-0.000495
1496	1.4875e+02	-19.5508	-156.646922	0.001044	10.439944	3.537149	-0.000418
1497	1.4885e+02	-19.5957	-157.127341	0.001206	12.061683	4.086609	-0.000483
1498	1.4895e+02	-19.6438	-157.571426	0.001115	11.149455	3.777538	-0.000446
1499	1.4905e+02	-19.6711	-158.059920	0.001226	12.264400	4.155291	-0.000491
1500	1.4915e+02	-19.7160	-158.516116	0.001145	11.453531	3.880561	-0.000458
1501	1.4925e+02	-19.7481	-158.972313	0.001145	11.453531	3.880561	-0.000458
1502	1.4935e+02	-19.7914	-159.460806	0.001226	12.264400	4.155291	-0.000491
1503	1.4945e+02	-19.8299	-159.973522	0.001287	12.872553	4.361339	-0.000515
1504	1.4955e+02	-19.8668	-160.441830	0.001176	11.757607	3.983585	-0.000471
1505	1.4965e+02	-19.9101	-160.893989	0.001135	11.352172	3.846220	-0.000454
1506	1.4975e+02	-19.9502	-161.394594	0.001257	12.568476	4.258315	-0.000503
1507	1.4985e+02	-19.9936	-161.907310	0.001287	12.872553	4.361339	-0.000515
1508	1.4995e+02	-19.9647	-161.984016	-0.000193	-1.925815	-0.652484	-0.000077
1509	1.5005e+02	-19.9198	-162.080907	-0.000243	-2.432608	-0.824190	-0.000097
1510	1.5015e+02	-19.8748	-162.121278	-0.000101	-1.013587	-0.343413	-0.000041
1511	1.5025e+02	-19.8331	-162.189910	-0.000172	-1.723098	-0.583801	-0.000069
1512	1.5034e+02	-19.8059	-162.262578	-0.000182	-1.824456	-0.618143	-0.000073
1513	1.5044e+02	-19.7561	-162.270652	-0.000020	-0.202717	-0.068683	-0.000008
1514	1.5054e+02	-19.7128	-162.286801	-0.000041	-0.405435	-0.137365	-0.000016
1515	1.5064e+02	-19.6727	-162.319098	-0.000081	-0.810869	-0.274730	-0.000032
1516	1.5074e+02	-19.6246	-162.331209	-0.000030	-0.304076	-0.103024	-0.000012
1517	1.5084e+02	-19.5957	-162.306987	0.000061	0.608152	0.206048	0.000024
1518	1.5094e+02	-19.5524	-162.286801	0.000051	0.506793	0.171706	0.000020
1519	1.5104e+02	-19.5187	-162.278727	0.000020	0.202717	0.068683	0.000008
1520	1.5114e+02	-19.4754	-162.250467	0.000071	0.709511	0.240389	0.000028
1521	1.5124e+02	-19.4401	-162.222207	0.000071	0.709511	0.240389	0.000028
1522	1.5134e+02	-19.3936	-162.185873	0.000091	0.912228	0.309071	0.000037
1523	1.5144e+02	-19.3583	-162.185873	0.000000	0.000000	0.000000	0.000000
1524	1.5154e+02	-19.3166	-162.101093	0.000213	2.128532	0.721166	0.000085
1525	1.5164e+02	-19.2700	-162.028424	0.000182	1.824456	0.618143	0.000073
1526	1.5174e+02	-19.2428	-161.951719	0.000193	1.925815	0.652484	0.000077
1527	1.5184e+02	-19.1914	-161.891162	0.000152	1.520380	0.515119	0.000061
1528	1.5194e+02	-19.1626	-161.862902	0.000071	0.709511	0.240389	0.000028
1529	1.5204e+02	-19.1176	-161.790233	0.000182	1.824456	0.618143	0.000073
1530	1.5214e+02	-19.0775	-161.657008	0.000334	3.344836	1.133261	0.000134
1531	1.5224e+02	-19.0422	-161.552042	0.000264	2.635326	0.892873	0.000105
1532	1.5233e+02	-18.9973	-161.491485	0.000152	1.520380	0.515119	0.000061
1533	1.5243e+02	-18.9636	-161.386520	0.000264	2.635326	0.892873	0.000105
1534	1.5253e+02	-18.9107	-161.277517	0.000274	2.736684	0.927214	0.000110
1535	1.5263e+02	-18.8834	-161.208886	0.000172	1.723098	0.583801	0.000069
1536	1.5273e+02	-18.8513	-161.087772	0.000304	3.040760	1.030238	0.000122
1537	1.5283e+02	-18.8032	-160.974732	0.000284	2.838043	0.961555	0.000114
1538	1.5293e+02	-18.7695	-160.881878	0.000233	2.331250	0.789849	0.000093
1539	1.5303e+02	-18.7262	-160.712318	0.000426	4.257065	1.442333	0.000170
1540	1.5313e+02	-18.6813	-160.635612	0.000193	1.925815	0.652484	0.000077
1541	1.5323e+02	-18.6251	-160.470090	0.000416	4.155706	1.407991	0.000166
1542	1.5333e+02	-18.5995	-160.348976	0.000304	3.040760	1.030238	0.000122
1543	1.5343e+02	-18.5610	-160.248047	0.000253	2.533967	0.858531	0.000101
1544	1.5353e+02	-18.5177	-160.110785	0.000345	3.446195	1.167603	0.000138
1545	1.5363e+02	-18.4888	-159.965448	0.000365	3.648913	1.236285	0.000146
1546	1.5373e+02	-18.4374	-159.828185	0.000345	3.446195	1.167603	0.000138
1547	1.5383e+02	-18.3989	-159.682848	0.000365	3.648913	1.236285	0.000146
1548	1.5393e+02	-18.3637	-159.545586	0.000345	3.446195	1.167603	0.000138
1549	1.5403e+02	-18.3252	-159.412360	0.000334	3.344836	1.133261	0.000134
1550	1.5413e+02	-18.2754	-159.262986	0.000375	3.750271	1.270626	0.000150
1551	1.5422e+02	-18.2514	-159.113612	0.000375	3.750271	1.270626	0.000150
1552	1.5432e+02	-18.2016	-158.956164	0.000395	3.952989	1.339309	0.000158
1553	1.5442e+02	-18.1583	-158.770456	0.000466	4.662499	1.579698	0.000187
1554	1.5452e+02	-18.1246	-158.621082	0.000375	3.750271	1.270626	0.000150
1555	1.5462e+02	-18.0797	-158.487856	0.000334	3.344836	1.133261	0.000134
1556	1.5472e+02	-18.0428	-158.322334	0.000416	4.155706	1.407991	0.000166
1557	1.5482e+02	-18.0107	-158.189108	0.000334	3.344836	1.133261	0.000134
1558	1.5492e+02	-17.9610	-157.958991	0.000578	5.777445	1.957451	0.000231
1559	1.5502e+02	-17.9193	-157.821729	0.000345	3.446195	1.167603	0.000138
1560	1.5512e+02	-17.8824	-157.652169	0.000426	4.257065	1.442333	0.000170
1561	1.5522e+02	-17.8519	-157.478572	0.000436	4.358423	1.476674	0.000174
1562	1.5532e+02	-17.8054	-157.309013	0.000426	4.257065	1.442333	0.000170
1563	1.5542e+02	-17.7573	-157.159639	0.000375	3.750271	1.270626	0.000150
1564	1.5552e+02	-17.7236	-156.986042	0.000436	4.358423	1.476674	0.000174
1565	1.5562e+02	-17.6851	-156.800333	0.000466	4.662499	1.579698	0.000187
1566	1.5572e+02	-17.6434	-156.626737	0.000436	4.358423	1.476674	0.000174
1567	1.5582e+02	-17.6032	-156.477363	0.000375	3.750271	1.270626	0.000150
1568	1.5592e+02	-17.5663	-156.263394	0.000537	5.372010	1.820086	0.000215
1569	1.5602e+02	-17.5214	-156.122095	0.000355	3.547554	1.201944	0.000142
1570	1.5612e+02	-17.4877	-155.916201	0.000517	5.169293	1.751404	0.000207
1571	1.5622e+02	-17.4492	-155.726455	0.000476	4.763858	1.614039	0.000191
1572	1.5631e+02	-17.4139	-155.564970	0.000405	4.054347	1.373650	0.000162
1573	1.5641e+02	-17.3674	-155.423670	0.000355	3.547554	1.201944	0.000142
1574	1.5651e+02	-17.3209	-155.181442	0.000608	6.081521	2.060475	0.000243
1575	1.5661e+02	-17.2904	-154.995734	0.000466	4.662499	1.579698	0.000187
1576	1.5671e+02	-17.2487	-154.826174	0.000426	4.257065	1.442333	0.000170
1577	1.5681e+02	-17.2134	-154.660652	0.000416	4.155706	1.407991	0.000166
1578	1.5691e+02	-17.1701	-154.458795	0.000507	5.067934	1.717063	0.000203
1579	1.5701e+02	-17.1300	-154.208492	0.000628	6.284238	2.129158	0.000252
1580	1.5711e+02	-17.0835	-154.051044	0.000395	3.952989	1.339309	0.000158
1581	1.5721e+02	-17.0418	-153.881484	0.000426	4.257065	1.442333	0.000170
1582	1.5731e+02	-16.9968	-153.667516	0.000537	5.372010	1.820086	0.000215
1583	1.5741e+02	-16.9680	-153.481808	0.000466	4.662499	1.579698	0.000187
1584	1.5751e+02	-16.9247	-153.247654	0.000588	5.878804	1.991793	0.000235
1585	1.5761e+02	-16.8846	-153.122503	0.000314	3.142119	1.064579	0.000126
1586	1.5771e+02	-16.8525	-152.876238	0.000618	6.182880	2.094816	0.000248
1587	1.5781e+02	-16.8075	-152.710715	0.000416	4.155706	1.407991	0.000166
1588	1.5791e+02	-16.7658	-152.456375	0.000639	6.385597	2.163499	0.000256
1589	1.5801e+02	-16.7273	-152.294890	0.000405	4.054347	1.373650	0.000162
1590	1.5811e+02	-16.6872	-152.068810	0.000568	5.676086	1.923110	0.000227
1591	1.5821e+02	-16.6439	-151.870991	0.000497	4.966575	1.682721	0.000199
1592	1.5830e+02	-16.6086	-151.665097	0.000517	5.169293	1.751404	0.000207
1593	1.5840e+02	-16.5669	-151.511686	0.000385	3.851630	1.304968	0.000154
1594	1.5850e+02	-16.5268	-151.301755	0.000527	5.270651	1.785745	0.000211
1595	1.5860e+02	-16.4931	-151.079712	0.000557	5.574727	1.888769	0.000223
1596	1.5870e+02	-16.4402	-150.877855	0.000507	5.067934	1.717063	0.000203
1597	1.5880e+02	-16.4097	-150.675999	0.000507	5.067934	1.717063	0.000203
1598	1.5890e+02	-16.3680	-150.482216	0.000487	4.865217	1.648380	0.000195
1599	1.5900e+02	-16.3199	-150.227877	0.000639	6.385597	2.163499	0.000256
1600	1.5910e+02	-16.2926	-150.042168	0.000466	4.662499	1.579698	0.000187
1601	1.5920e+02	-16.2477	-149.848386	0.000487	4.865217	1.648380	0.000195
1602	1.5930e+02	-16.2124	-149.594046	0.000639	6.385597	2.163499	0.000256
1603	1.5940e+02	-16.1691	-149.359892	0.000588	5.878804	1.991793	0.000235
1604	1.5950e+02	-16.1354	-149.190333	0.000426	4.257065	1.442333	0.000170
1605	1.5960e+02	-16.0840	-149.004624	0.000466	4.662499	1.579698	0.000187
1606	1.5970e+02	-16.0471	-148.758359	0.000618	6.182880	2.094816	0.000248
1607	1.5980e+02	-16.0102	-148.564577	0.000487	4.865217	1.648380	0.000195
1608	1.5990e+02	-15.9717	-148.338497	0.000568	5.676086	1.923110	0.000227
1609	1.6000e+02	-15.9236	-148.189123	0.000375	3.750271	1.270626	0.000150
1610	1.6010e+02	-15.8963	-147.942858	0.000618	6.182880	2.094816	0.000248
1611	1.6019e+02	-15.8450	-147.720815	0.000557	5.574727	1.888769	0.000223
1612	1.6029e+02	-15.8001	-147.510884	0.000527	5.270651	1.785745	0.000211
1613	1.6039e+02	-15.7648	-147.284805	0.000568	5.676086	1.923110	0.000227
1614	1.6049e+02	-15.7423	-147.038539	0.000618	6.182880	2.094816	0.000248
1615	1.6059e+02	-15.7006	-146.860905	0.000446	4.459782	1.511015	0.000179
1616	1.6069e+02	-15.6493	-146.614640	0.000618	6.182880	2.094816	0.000248
1617	1.6079e+02	-15.6156	-146.392598	0.000557	5.574727	1.888769	0.000223
1618	1.6089e+02	-15.5819	-146.239186	0.000385	3.851630	1.304968	0.000154
1619	1.6099e+02	-15.5434	-145.984847	0.000639	6.385597	2.163499	0.000256
1620	1.6109e+02	-15.4889	-145.730507	0.000639	6.385597	2.163499	0.000256
1621	1.6119e+02	-15.4536	-145.564985	0.000416	4.155706	1.407991	0.000166
1622	1.6129e+02	-15.4135	-145.306608	0.000649	6.486956	2.197840	0.000260
1623	1.6139e+02	-15.3782	-145.145123	0.000405	4.054347	1.373650	0.000162
1624	1.6149e+02	-15.3284	-144.915006	0.000578	5.777445	1.957451	0.000231
1625	1.6159e+02	-15.2915	-144.656629	0.000649	6.486956	2.197840	0.000260
1626	1.6169e+02	-15.2418	-144.414401	0.000608	6.081521	2.060475	0.000243
1627	1.6179e+02	-15.2129	-144.228693	0.000466	4.662499	1.579698	0.000187
1628	1.6189e+02	-15.1776	-143.982428	0.000618	6.182880	2.094816	0.000248
1629	1.6199e+02	-15.1327	-143.784608	0.000497	4.966575	1.682721	0.000199
1630	1.6209e+02	-15.0814	-143.550454	0.000588	5.878804	1.991793	0.000235
1631	1.6219e+02	-15.0525	-143.352634	0.000497	4.966575	1.682721	0.000199
1632	1.6228e+02	-15.0108	-143.090221	0.000659	6.588314	2.232181	0.000264
1633	1.6238e+02	-14.9819	-142.896438	0.000487	4.865217	1.648380	0.000195
1634	1.6248e+02	-14.9306	-142.634024	0.000659	6.588314	2.232181	0.000264
1635	1.6258e+02	-14.8985	-142.411982	0.000557	5.574727	1.888769	0.000223
1636	1.6268e+02	-14.8504	-142.234348	0.000446	4.459782	1.511015	0.000179
1637	1.6278e+02	-14.8103	-141.992120	0.000608	6.081521	2.060475	0.000243
1638	1.6288e+02	-14.7734	-141.733743	0.000649	6.486956	2.197840	0.000260
1639	1.6298e+02	-14.7317	-141.503626	0.000578	5.777445	1.957451	0.000231
1640	1.6308e+02	-14.6916	-141.277547	0.000568	5.676086	1.923110	0.000227
1641	1.6318e+02	-14.6691	-141.035318	0.000608	6.081521	2.060475	0.000243
1642	1.6328e+02	-14.6194	-140.813276	0.000557	5.574727	1.888769	0.000223
1643	1.6338e+02	-14.5777	-140.611419	0.000507	5.067934	1.717063	0.000203
1644	1.6348e+02	-14.5440	-140.377265	0.000588	5.878804	1.991793	0.000235
1645	1.6358e+02	-14.5119	-140.167334	0.000527	5.270651	1.785745	0.000211
1646	1.6368e+02	-14.4622	-139.949329	0.000547	5.473369	1.854428	0.000219
1647	1.6378e+02	-14.4269	-139.694989	0.000639	6.385597	2.163499	0.000256
1648	1.6388e+02	-14.3707	-139.444687	0.000628	6.284238	2.129158	0.000252
1649	1.6398e+02	-14.3354	-139.267053	0.000446	4.459782	1.511015	0.000179
1650	1.6408e+02	-14.2985	-139.036936	0.000578	5.777445	1.957451	0.000231
1651	1.6418e+02	-14.2632	-138.758374	0.000699	6.993749	2.369546	0.000280
1652	1.6427e+02	-14.2135	-138.548443	0.000527	5.270651	1.785745	0.000211
1653	1.6437e+02	-14.1846	-138.302178	0.000618	6.182880	2.094816	0.000248
1654	1.6447e+02	-14.1397	-138.100321	0.000507	5.067934	1.717063	0.000203
1655	1.6457e+02	-14.0948	-137.870204	0.000578	5.777445	1.957451	0.000231
1656	1.6467e+02	-14.0563	-137.607790	0.000659	6.588314	2.232181	0.000264
1657	1.6477e+02	-14.0242	-137.393822	0.000537	5.372010	1.820086	0.000215
1658	1.6487e+02	-13.9825	-137.155631	0.000598	5.980162	2.026134	0.000239
1659	1.6497e+02	-13.9456	-136.921477	0.000588	5.878804	1.991793	0.000235
1660	1.6507e+02	-13.8943	-136.663100	0.000649	6.486956	2.197840	0.000260
1661	1.6517e+02	-13.8558	-136.441058	0.000557	5.574727	1.888769	0.000223
1662	1.6527e+02	-13.8092	-136.210941	0.000578	5.777445	1.957451	0.000231
1663	1.6537e+02	-13.7836	-135.972750	0.000598	5.980162	2.026134	0.000239
1664	1.6547e+02	-13.7322	-135.722448	0.000628	6.284238	2.129158	0.000252
1665	1.6557e+02	-13.6969	-135.496368	0.000568	5.676086	1.923110	0.000227
1666	1.6567e+02	-13.6504	-135.242029	0.000639	6.385597	2.163499	0.000256
1667	1.6577e+02	-13.6135	-135.036135	0.000517	5.169293	1.751404	0.000207
1668	1.6587e+02	-13.5798	-134.781795	0.000639	6.385597	2.163499	0.000256
1669	1.6597e+02	-13.5413	-134.511307	0.000679	6.791032	2.300864	0.000272
1670	1.6607e+02	-13.4916	-134.305413	0.000517	5.169293	1.751404	0.000207
1671	1.6616e+02	-13.4659	-134.063185	0.000608	6.081521	2.060475	0.000243
1672	1.6626e+02	-13.4162	-133.796734	0.000669	6.689673	2.266523	0.000268
1673	1.6636e+02	-13.3809	-133.594877	0.000507	5.067934	1.717063	0.000203
1674	1.6646e+02	-13.3424	-133.352649	0.000608	6.081521	2.060475	0.000243
1675	1.6656e+02	-13.3055	-133.114458	0.000598	5.980162	2.026134	0.000239
1676	1.6666e+02	-13.2670	-132.852044	0.000659	6.588314	2.232181	0.000264
1677	1.6676e+02	-13.2157	-132.638076	0.000537	5.372010	1.820086	0.000215
1678	1.6686e+02	-13.1708	-132.347402	0.000730	7.297825	2.472570	0.000292
1679	1.6696e+02	-13.1355	-132.181880	0.000416	4.155706	1.407991	0.000166
1680	1.6706e+02	-13.0970	-131.907355	0.000689	6.892390	2.335205	0.000276
1681	1.6716e+02	-13.0665	-131.661089	0.000618	6.182880	2.094816	0.000248
1682	1.6726e+02	-13.0216	-131.471344	0.000476	4.763858	1.614039	0.000191
1683	1.6736e+02	-12.9863	-131.164522	0.000770	7.703260	2.609935	0.000308
1684	1.6746e+02	-12.9462	-130.950553	0.000537	5.372010	1.820086	0.000215
1685	1.6756e+02	-12.9061	-130.712362	0.000598	5.980162	2.026134	0.000239
1686	1.6766e+02	-12.8627	-130.514543	0.000497	4.966575	1.682721	0.000199
1687	1.6776e+02	-12.8226	-130.272315	0.000608	6.081521	2.060475	0.000243
1688	1.6786e+02	-12.7809	-130.030086	0.000608	6.081521	2.060475	0.000243
1689	1.6796e+02	-12.7456	-129.763635	0.000669	6.689673	2.266523	0.000268
1690	1.6806e+02	-12.7103	-129.497185	0.000669	6.689673	2.266523	0.000268
1691	1.6816e+02	-12.6654	-129.226696	0.000679	6.791032	2.300864	0.000272
1692	1.6825e+02	-12.6237	-129.024840	0.000507	5.067934	1.717063	0.000203
1693	1.6835e+02	-12.5868	-128.778574	0.000618	6.182880	2.094816	0.000248
1694	1.6845e+02	-12.5483	-128.524235	0.000639	6.385597	2.163499	0.000256
1695	1.6855e+02	-12.5034	-128.273932	0.000628	6.284238	2.129158	0.000252
1696	1.6865e+02	-12.4665	-127.999407	0.000689	6.892390	2.335205	0.000276
1697	1.6875e+02	-12.4248	-127.797550	0.000507	5.067934	1.717063	0.000203
1698	1.6885e+02	-12.3831	-127.587619	0.000527	5.270651	1.785745	0.000211
1699	1.6895e+02	-12.3462	-127.317131	0.000679	6.791032	2.300864	0.000272
1700	1.6905e+02	-12.3061	-127.034532	0.000710	7.095108	2.403888	0.000284
1701	1.6915e+02	-12.2676	-126.828638	0.000517	5.169293	1.751404	0.000207
1702	1.6925e+02	-12.2307	-126.558150	0.000679	6.791032	2.300864	0.000272
1703	1.6935e+02	-12.1874	-126.275550	0.000710	7.095108	2.403888	0.000284
1704	1.6945e+02	-12.1424	-126.001025	0.000689	6.892390	2.335205	0.000276
1705	1.6955e+02	-12.0991	-125.770908	0.000578	5.777445	1.957451	0.000231
1706	1.6965e+02	-12.0654	-125.556940	0.000537	5.372010	1.820086	0.000215
1707	1.6975e+02	-12.0285	-125.306638	0.000628	6.284238	2.129158	0.000252
1708	1.6985e+02	-11.9884	-125.044224	0.000659	6.588314	2.232181	0.000264
1709	1.6995e+02	-11.9531	-124.797959	0.000618	6.182880	2.094816	0.000248
1710	1.7005e+02	-11.9066	-124.531508	0.000669	6.689673	2.266523	0.000268
1711	1.7015e+02	-11.8665	-124.309465	0.000557	5.574727	1.888769	0.000223
1712	1.7024e+02	-11.8296	-124.022828	0.000720	7.196466	2.438229	0.000288
1713	1.7034e+02	-11.7847	-123.752340	0.000679	6.791032	2.300864	0.000272
1714	1.7044e+02	-11.7478	-123.526261	0.000568	5.676086	1.923110	0.000227
1715	1.7054e+02	-11.7029	-123.275958	0.000628	6.284238	2.129158	0.000252
1716	1.7064e+02	-11.6644	-122.981247	0.000740	7.399184	2.506911	0.000296
1717	1.7074e+02	-11.6211	-122.763242	0.000547	5.473369	1.854428	0.000219
1718	1.7084e+02	-11.5842	-122.468531	0.000740	7.399184	2.506911	0.000296
1719	1.7094e+02	-11.5537	-122.258600	0.000527	5.270651	1.785745	0.000211
1720	1.7104e+02	-11.5072	-121.967926	0.000730	7.297825	2.472570	0.000292
1721	1.7114e+02	-11.4622	-121.762032	0.000517	5.169293	1.751404	0.000207
1722	1.7124e+02	-11.4366	-121.483470	0.000699	6.993749	2.369546	0.000280
1723	1.7134e+02	-11.3997	-121.241242	0.000608	6.081521	2.060475	0.000243
1724	1.7144e+02	-11.3516	-120.986902	0.000639	6.385597	2.163499	0.000256
1725	1.7154e+02	-11.3130	-120.704303	0.000710	7.095108	2.403888	0.000284
1726	1.7164e+02	-11.2601	-120.466112	0.000598	5.980162	2.026134	0.000239
1727	1.7174e+02	-11.2344	-120.223884	0.000608	6.081521	2.060475	0.000243
1728	1.7184e+02	-11.1879	-119.941284	0.000710	7.095108	2.403888	0.000284
1729	1.7194e+02	-11.1606	-119.662722	0.000699	6.993749	2.369546	0.000280
1730	1.7204e+02	-11.1109	-119.420494	0.000608	6.081521	2.060475	0.000243
1731	1.7213e+02	-11.0724	-119.129820	0.000730	7.297825	2.472570	0.000292
1732	1.7223e+02	-11.0387	-118.891629	0.000598	5.980162	2.026134	0.000239
1733	1.7233e+02	-10.9922	-118.600955	0.000730	7.297825	2.472570	0.000292
1734	1.7243e+02	-10.9457	-118.342578	0.000649	6.486956	2.197840	0.000260
1735	1.7253e+02	-10.8992	-118.096313	0.000618	6.182880	2.094816	0.000248
1736	1.7263e+02	-10.8719	-117.858122	0.000598	5.980162	2.026134	0.000239
1737	1.7273e+02	-10.8270	-117.575523	0.000710	7.095108	2.403888	0.000284
1738	1.7283e+02	-10.7965	-117.325220	0.000628	6.284238	2.129158	0.000252
1739	1.7293e+02	-10.7596	-117.058769	0.000669	6.689673	2.266523	0.000268
1740	1.7303e+02	-10.7083	-116.788281	0.000679	6.791032	2.300864	0.000272
1741	1.7313e+02	-10.6698	-116.517793	0.000679	6.791032	2.300864	0.000272
1742	1.7323e+02	-10.6393	-116.283639	0.000588	5.878804	1.991793	0.000235
1743	1.7333e+02	-10.5944	-116.005077	0.000699	6.993749	2.369546	0.000280
1744	1.7343e+02	-10.5526	-115.730552	0.000689	6.892390	2.335205	0.000276
1745	1.7353e+02	-10.5141	-115.443915	0.000720	7.196466	2.438229	0.000288
1746	1.7363e+02	-10.4805	-115.221873	0.000557	5.574727	1.888769	0.000223
1747	1.7373e+02	-10.4323	-114.939273	0.000710	7.095108	2.403888	0.000284
1748	1.7383e+02	-10.3858	-114.672822	0.000669	6.689673	2.266523	0.000268
1749	1.7393e+02	-10.3489	-114.386185	0.000720	7.196466	2.438229	0.000288
1750	1.7403e+02	-10.3104	-114.168180	0.000547	5.473369	1.854428	0.000219
1751	1.7413e+02	-10.2751	-113.885581	0.000710	7.095108	2.403888	0.000284
1752	1.7422e+02	-10.2350	-113.627204	0.000649	6.486956	2.197840	0.000260
1753	1.7432e+02	-10.1853	-113.360753	0.000669	6.689673	2.266523	0.000268
1754	1.7442e+02	-10.1532	-113.070079	0.000730	7.297825	2.472570	0.000292
1755	1.7452e+02	-10.1163	-112.819777	0.000628	6.284238	2.129158	0.000252
1756	1.7462e+02	-10.0714	-112.545252	0.000689	6.892390	2.335205	0.000276
1757	1.7472e+02	-10.0457	-112.290912	0.000639	6.385597	2.163499	0.000256
1758	1.7482e+02	-9.9944	-111.967941	0.000811	8.108694	2.747300	0.000325
1759	1.7492e+02	-9.9559	-111.717639	0.000628	6.284238	2.129158	0.000252
1760	1.7502e+02	-9.9174	-111.503671	0.000537	5.372010	1.820086	0.000215
1761	1.7512e+02	-9.8708	-111.212997	0.000730	7.297825	2.472570	0.000292
1762	1.7522e+02	-9.8291	-110.918286	0.000740	7.399184	2.506911	0.000296
1763	1.7532e+02	-9.7987	-110.647798	0.000679	6.791032	2.300864	0.000272
1764	1.7542e+02	-9.7505	-110.397495	0.000628	6.284238	2.129158	0.000252
1765	1.7552e+02	-9.7120	-110.127007	0.000679	6.791032	2.300864	0.000272
1766	1.7562e+02	-9.6719	-109.816148	0.000780	7.804618	2.644276	0.000312
1767	1.7572e+02	-9.6318	-109.553734	0.000659	6.588314	2.232181	0.000264
1768	1.7582e+02	-9.6045	-109.295357	0.000649	6.486956	2.197840	0.000260
1769	1.7592e+02	-9.5500	-108.980461	0.000791	7.905977	2.678618	0.000316
1770	1.7602e+02	-9.5179	-108.758418	0.000557	5.574727	1.888769	0.000223
1771	1.7612e+02	-9.4794	-108.447559	0.000780	7.804618	2.644276	0.000312
1772	1.7621e+02	-9.4377	-108.181108	0.000669	6.689673	2.266523	0.000268
1773	1.7631e+02	-9.3992	-107.854100	0.000821	8.210053	2.781641	0.000329
1774	1.7641e+02	-9.3623	-107.660317	0.000487	4.865217	1.648380	0.000195
1775	1.7651e+02	-9.3078	-107.329272	0.000831	8.311412	2.815983	0.000333
1776	1.7661e+02	-9.2725	-107.030524	0.000750	7.500542	2.541253	0.000300
1777	1.7671e+02	-9.2324	-106.796370	0.000588	5.878804	1.991793	0.000235
1778	1.7681e+02	-9.1987	-106.493585	0.000760	7.601901	2.575594	0.000304
1779	1.7691e+02	-9.1586	-106.210986	0.000710	7.095108	2.403888	0.000284
1780	1.7701e+02	-9.1169	-105.936460	0.000689	6.892390	2.335205	0.000276
1781	1.7711e+02	-9.0751	-105.670009	0.000669	6.689673	2.266523	0.000268
1782	1.7721e+02	-9.0399	-105.375298	0.000740	7.399184	2.506911	0.000296
1783	1.7731e+02	-8.9917	-105.080588	0.000740	7.399184	2.506911	0.000296
1784	1.7741e+02	-8.9580	-104.789914	0.000730	7.297825	2.472570	0.000292
1785	1.7751e+02	-8.9131	-104.519426	0.000679	6.791032	2.300864	0.000272
1786	1.7761e+02	-8.8891	-104.224715	0.000740	7.399184	2.506911	0.000296
1787	1.7771e+02	-8.8425	-103.958264	0.000669	6.689673	2.266523	0.000268
1788	1.7781e+02	-8.8056	-103.716036	0.000608	6.081521	2.060475	0.000243
1789	1.7791e+02	-8.7623	-103.380953	0.000841	8.412771	2.850324	0.000337
1790	1.7801e+02	-8.7158	-103.130651	0.000628	6.284238	2.129158	0.000252
1791	1.7810e+02	-8.6725	-102.807680	0.000811	8.108694	2.747300	0.000325
1792	1.7820e+02	-8.6452	-102.561415	0.000618	6.182880	2.094816	0.000248
1793	1.7830e+02	-8.5971	-102.266704	0.000740	7.399184	2.506911	0.000296
1794	1.7840e+02	-8.5714	-101.992179	0.000689	6.892390	2.335205	0.000276
1795	1.7850e+02	-8.5153	-101.685356	0.000770	7.703260	2.609935	0.000308
1796	1.7860e+02	-8.4752	-101.402757	0.000710	7.095108	2.403888	0.000284
1797	1.7870e+02	-8.4415	-101.128232	0.000689	6.892390	2.335205	0.000276
1798	1.7880e+02	-8.3982	-100.869855	0.000649	6.486956	2.197840	0.000260
1799	1.7890e+02	-8.3613	-100.546884	0.000811	8.108694	2.747300	0.000325
1800	1.7900e+02	-8.3196	-100.260247	0.000720	7.196466	2.438229	0.000288
1801	1.7910e+02	-8.2875	-99.981685	0.000699	6.993749	2.369546	0.000280
1802	1.7920e+02	-8.2425	-99.703123	0.000699	6.993749	2.369546	0.000280
1803	1.7930e+02	-8.2057	-99.440709	0.000659	6.588314	2.232181	0.000264
1804	1.7940e+02	-8.1591	-99.150035	0.000730	7.297825	2.472570	0.000292
1805	1.7950e+02	-8.1238	-98.802841	0.000872	8.716847	2.953348	0.000349
1806	1.7960e+02	-8.0805	-98.536391	0.000669	6.689673	2.266523	0.000268
1807	1.7970e+02	-8.0420	-98.261865	0.000689	6.892390	2.335205	0.000276
1808	1.7980e+02	-8.0019	-97.946969	0.000791	7.905977	2.678618	0.000316
1809	1.7990e+02	-7.9618	-97.644184	0.000760	7.601901	2.575594	0.000304
1810	1.8000e+02	-7.9281	-97.397918	0.000618	6.182880	2.094816	0.000248
1811	1.8009e+02	-7.8816	-97.054762	0.000862	8.615488	2.919006	0.000345
1812	1.8019e+02	-7.8383	-96.796385	0.000649	6.486956	2.197840	0.000260
1813	1.8029e+02	-7.8014	-96.505711	0.000730	7.297825	2.472570	0.000292
1814	1.8039e+02	-7.7565	-96.206963	0.000750	7.500542	2.541253	0.000300
1815	1.8049e+02	-7.7244	-95.920327	0.000720	7.196466	2.438229	0.000288
1816	1.8059e+02	-7.6811	-95.633690	0.000720	7.196466	2.438229	0.000288
1817	1.8069e+02	-7.6490	-95.330905	0.000760	7.601901	2.575594	0.000304
1818	1.8079e+02	-7.5993	-95.044268	0.000720	7.196466	2.438229	0.000288
1819	1.8089e+02	-7.5607	-94.741483	0.000760	7.601901	2.575594	0.000304
1820	1.8099e+02	-7.5367	-94.479069	0.000659	6.588314	2.232181	0.000264
1821	1.8109e+02	-7.4902	-94.152061	0.000821	8.210053	2.781641	0.000329
1822	1.8119e+02	-7.4501	-93.881573	0.000679	6.791032	2.300864	0.000272
1823	1.8129e+02	-7.4116	-93.546491	0.000841	8.412771	2.850324	0.000337
1824	1.8139e+02	-7.3618	-93.280040	0.000669	6.689673	2.266523	0.000268
1825	1.8149e+02	-7.3233	-92.957069	0.000811	8.108694	2.747300	0.000325
1826	1.8159e+02	-7.2800	-92.662358	0.000740	7.399184	2.506911	0.000296
1827	1.8169e+02	-7.2399	-92.331313	0.000831	8.311412	2.815983	0.000333
1828	1.8179e+02	-7.2030	-92.068899	0.000659	6.588314	2.232181	0.000264
1829	1.8189e+02	-7.1661	-91.782262	0.000720	7.196466	2.438229	0.000288
1830	1.8199e+02	-7.1164	-91.418920	0.000912	9.122281	3.090713	0.000365
1831	1.8209e+02	-7.0843	-91.148432	0.000679	6.791032	2.300864	0.000272
1832	1.8218e+02	-7.0442	-90.886018	0.000659	6.588314	2.232181	0.000264
1833	1.8228e+02	-7.0009	-90.599382	0.000720	7.196466	2.438229	0.000288
1834	1.8238e+02	-6.9640	-90.292559	0.000770	7.703260	2.609935	0.000308
1835	1.8248e+02	-6.9287	-89.937291	0.000892	8.919564	3.022030	0.000357
1836	1.8258e+02	-6.8838	-89.711212	0.000568	5.676086	1.923110	0.000227
1837	1.8268e+02	-6.8404	-89.351907	0.000902	9.020923	3.056371	0.000361
1838	1.8278e+02	-6.8100	-89.061233	0.000730	7.297825	2.472570	0.000292
1839	1.8288e+02	-6.7779	-88.746336	0.000791	7.905977	2.678618	0.000316
1840	1.8298e+02	-6.7249	-88.471811	0.000689	6.892390	2.335205	0.000276
1841	1.8308e+02	-6.6880	-88.124617	0.000872	8.716847	2.953348	0.000349
1842	1.8318e+02	-6.6399	-87.833944	0.000730	7.297825	2.472570	0.000292
1843	1.8328e+02	-6.6094	-87.543270	0.000730	7.297825	2.472570	0.000292
1844	1.8338e+02	-6.5645	-87.240485	0.000760	7.601901	2.575594	0.000304
1845	1.8348e+02	-6.5292	-86.957885	0.000710	7.095108	2.403888	0.000284
1846	1.8358e+02	-6.4811	-86.642989	0.000791	7.905977	2.678618	0.000316
1847	1.8368e+02	-6.4394	-86.340203	0.000760	7.601901	2.575594	0.000304
1848	1.8378e+02	-6.4105	-86.061641	0.000699	6.993749	2.369546	0.000280
1849	1.8388e+02	-6.3688	-85.742707	0.000801	8.007336	2.712959	0.000321
1850	1.8398e+02	-6.3239	-85.456071	0.000720	7.196466	2.438229	0.000288
1851	1.8407e+02	-6.2950	-85.165397	0.000730	7.297825	2.472570	0.000292
1852	1.8417e+02	-6.2533	-84.826278	0.000851	8.514129	2.884665	0.000341
1853	1.8427e+02	-6.2100	-84.523492	0.000760	7.601901	2.575594	0.000304
1854	1.8437e+02	-6.1699	-84.269153	0.000639	6.385597	2.163499	0.000256
1855	1.8447e+02	-6.1458	-83.925996	0.000862	8.615488	2.919006	0.000345
1856	1.8457e+02	-6.0945	-83.631285	0.000740	7.399184	2.506911	0.000296
1857	1.8467e+02	-6.0576	-83.308315	0.000811	8.108694	2.747300	0.000325
1858	1.8477e+02	-6.0143	-82.981307	0.000821	8.210053	2.781641	0.000329
1859	1.8487e+02	-5.9726	-82.670447	0.000780	7.804618	2.644276	0.000312
1860	1.8497e+02	-5.9292	-82.420145	0.000628	6.284238	2.129158	0.000252
1861	1.8507e+02	-5.8956	-82.040654	0.000953	9.527716	3.228078	0.000381
1862	1.8517e+02	-5.8554	-81.798426	0.000608	6.081521	2.060475	0.000243
1863	1.8527e+02	-5.8121	-81.451232	0.000872	8.716847	2.953348	0.000349
1864	1.8537e+02	-5.7720	-81.172670	0.000699	6.993749	2.369546	0.000280
1865	1.8547e+02	-5.7335	-80.797216	0.000943	9.426357	3.193736	0.000377
1866	1.8557e+02	-5.7014	-80.542877	0.000639	6.385597	2.163499	0.000256
1867	1.8567e+02	-5.6485	-80.215869	0.000821	8.210053	2.781641	0.000329
1868	1.8577e+02	-5.6148	-79.876749	0.000851	8.514129	2.884665	0.000341
1869	1.8587e+02	-5.5795	-79.606261	0.000679	6.791032	2.300864	0.000272
1870	1.8597e+02	-5.5346	-79.275216	0.000831	8.311412	2.815983	0.000333
1871	1.8606e+02	-5.4913	-78.956282	0.000801	8.007336	2.712959	0.000321
1872	1.8616e+02	-5.4512	-78.617163	0.000851	8.514129	2.884665	0.000341
1873	1.8626e+02	-5.4143	-78.342638	0.000689	6.892390	2.335205	0.000276
1874	1.8636e+02	-5.3774	-78.019667	0.000811	8.108694	2.747300	0.000325
1875	1.8646e+02	-5.3228	-77.700733	0.000801	8.007336	2.712959	0.000321
1876	1.8656e+02	-5.2892	-77.357576	0.000862	8.615488	2.919006	0.000345
1877	1.8666e+02	-5.2539	-77.018457	0.000851	8.514129	2.884665	0.000341
1878	1.8676e+02	-5.2202	-76.731820	0.000720	7.196466	2.438229	0.000288
1879	1.8686e+02	-5.1849	-76.424998	0.000770	7.703260	2.609935	0.000308
1880	1.8696e+02	-5.1319	-76.077804	0.000872	8.716847	2.953348	0.000349
1881	1.8706e+02	-5.1031	-75.762908	0.000791	7.905977	2.678618	0.000316
1882	1.8716e+02	-5.0662	-75.472234	0.000730	7.297825	2.472570	0.000292
1883	1.8726e+02	-5.0164	-75.125040	0.000872	8.716847	2.953348	0.000349
1884	1.8736e+02	-4.9892	-74.802070	0.000811	8.108694	2.747300	0.000325
1885	1.8746e+02	-4.9282	-74.523507	0.000699	6.993749	2.369546	0.000280
1886	1.8756e+02	-4.8993	-74.176313	0.000872	8.716847	2.953348	0.000349
1887	1.8766e+02	-4.8592	-73.877565	0.000750	7.500542	2.541253	0.000300
1888	1.8776e+02	-4.8191	-73.506149	0.000932	9.324999	3.159395	0.000373
1889	1.8786e+02	-4.7742	-73.211438	0.000740	7.399184	2.506911	0.000296
1890	1.8796e+02	-4.7501	-72.892504	0.000801	8.007336	2.712959	0.000321
1891	1.8806e+02	-4.7004	-72.577608	0.000791	7.905977	2.678618	0.000316
1892	1.8815e+02	-4.6507	-72.258674	0.000801	8.007336	2.712959	0.000321
1893	1.8825e+02	-4.6154	-71.903406	0.000892	8.919564	3.022030	0.000357
1894	1.8835e+02	-4.5817	-71.653104	0.000628	6.284238	2.129158	0.000252
1895	1.8845e+02	-4.5416	-71.277650	0.000943	9.426357	3.193736	0.000377
1896	1.8855e+02	-4.5015	-70.962753	0.000791	7.905977	2.678618	0.000316
1897	1.8865e+02	-4.4646	-70.575188	0.000973	9.730433	3.296760	0.000390
1898	1.8875e+02	-4.4245	-70.288552	0.000720	7.196466	2.438229	0.000288
1899	1.8885e+02	-4.3763	-69.941358	0.000872	8.716847	2.953348	0.000349
1900	1.8895e+02	-4.3394	-69.674907	0.000669	6.689673	2.266523	0.000268
1901	1.8905e+02	-4.2993	-69.307528	0.000922	9.223640	3.125054	0.000369
1902	1.8915e+02	-4.2592	-68.996668	0.000780	7.804618	2.644276	0.000312
1903	1.8925e+02	-4.2223	-68.633326	0.000912	9.122281	3.090713	0.000365
1904	1.8935e+02	-4.1887	-68.342652	0.000730	7.297825	2.472570	0.000292
1905	1.8945e+02	-4.1357	-68.019681	0.000811	8.108694	2.747300	0.000325
1906	1.8955e+02	-4.1036	-67.704785	0.000791	7.905977	2.678618	0.000316
1907	1.8965e+02	-4.0491	-67.337406	0.000922	9.223640	3.125054	0.000369
1908	1.8975e+02	-4.0202	-67.038657	0.000750	7.500542	2.541253	0.000300
1909	1.8985e+02	-3.9785	-66.675315	0.000912	9.122281	3.090713	0.000365
1910	1.8995e+02	-3.9416	-66.356382	0.000801	8.007336	2.712959	0.000321
1911	1.9004e+02	-3.8983	-66.021299	0.000841	8.412771	2.850324	0.000337
1912	1.9014e+02	-3.8710	-65.686217	0.000841	8.412771	2.850324	0.000337
1913	1.9024e+02	-3.8341	-65.395543	0.000730	7.297825	2.472570	0.000292
1914	1.9034e+02	-3.7812	-65.007978	0.000973	9.730433	3.296760	0.000390
1915	1.9044e+02	-3.7395	-64.737490	0.000679	6.791032	2.300864	0.000272
1916	1.9054e+02	-3.6945	-64.349925	0.000973	9.730433	3.296760	0.000390
1917	1.9064e+02	-3.6528	-64.047140	0.000760	7.601901	2.575594	0.000304
1918	1.9074e+02	-3.6288	-63.703983	0.000862	8.615488	2.919006	0.000345
1919	1.9084e+02	-3.5839	-63.352753	0.000882	8.818205	2.987689	0.000353
1920	1.9094e+02	-3.5389	-63.082264	0.000679	6.791032	2.300864	0.000272
1921	1.9104e+02	-3.5052	-62.710848	0.000932	9.324999	3.159395	0.000373
1922	1.9114e+02	-3.4587	-62.367691	0.000862	8.615488	2.919006	0.000345
1923	1.9124e+02	-3.4218	-62.052795	0.000791	7.905977	2.678618	0.000316
1924	1.9134e+02	-3.3897	-61.693490	0.000902	9.020923	3.056371	0.000361
1925	1.9144e+02	-3.3320	-61.358408	0.000841	8.412771	2.850324	0.000337
1926	1.9154e+02	-3.3111	-61.015251	0.000862	8.615488	2.919006	0.000345
1927	1.9164e+02	-3.2646	-60.672094	0.000862	8.615488	2.919006	0.000345
1928	1.9174e+02	-3.2261	-60.312789	0.000902	9.020923	3.056371	0.000361
1929	1.9184e+02	-3.1892	-60.001930	0.000780	7.804618	2.644276	0.000312
1930	1.9194e+02	-3.1443	-59.682996	0.000801	8.007336	2.712959	0.000321
1931	1.9203e+02	-3.1106	-59.347914	0.000841	8.412771	2.850324	0.000337
1932	1.9213e+02	-3.0529	-59.020906	0.000821	8.210053	2.781641	0.000329
1933	1.9223e+02	-3.0320	-58.613155	0.001024	10.237227	3.468466	0.000410
1934	1.9233e+02	-2.9887	-58.290184	0.000811	8.108694	2.747300	0.000325
1935	1.9243e+02	-2.9454	-57.934916	0.000892	8.919564	3.022030	0.000357
1936	1.9253e+02	-2.8940	-57.620020	0.000791	7.905977	2.678618	0.000316
1937	1.9263e+02	-2.8684	-57.264752	0.000892	8.919564	3.022030	0.000357
1938	1.9273e+02	-2.8251	-56.913521	0.000882	8.818205	2.987689	0.000353
1939	1.9283e+02	-2.7849	-56.578439	0.000841	8.412771	2.850324	0.000337
1940	1.9293e+02	-2.7384	-56.198948	0.000953	9.527716	3.228078	0.000381
1941	1.9303e+02	-2.7128	-55.888089	0.000780	7.804618	2.644276	0.000312
1942	1.9313e+02	-2.6662	-55.496486	0.000983	9.831792	3.331101	0.000394
1943	1.9323e+02	-2.6293	-55.213887	0.000710	7.095108	2.403888	0.000284
1944	1.9333e+02	-2.5892	-54.854582	0.000902	9.020923	3.056371	0.000361
1945	1.9343e+02	-2.5507	-54.475091	0.000953	9.527716	3.228078	0.000381
1946	1.9353e+02	-2.4994	-54.168269	0.000770	7.703260	2.609935	0.000308
1947	1.9363e+02	-2.4577	-53.792815	0.000943	9.426357	3.193736	0.000377
1948	1.9373e+02	-2.4320	-53.453696	0.000851	8.514129	2.884665	0.000341
1949	1.9383e+02	-2.3807	-53.114576	0.000851	8.514129	2.884665	0.000341
1950	1.9393e+02	-2.3438	-52.763346	0.000882	8.818205	2.987689	0.000353
1951	1.9403e+02	-2.3085	-52.424226	0.000851	8.514129	2.884665	0.000341
1952	1.9412e+02	-2.2684	-52.056847	0.000922	9.223640	3.125054	0.000369
1953	1.9422e+02	-2.2315	-51.717727	0.000851	8.514129	2.884665	0.000341
1954	1.9432e+02	-2.1866	-51.354385	0.000912	9.122281	3.090713	0.000365
1955	1.9442e+02	-2.1497	-51.031414	0.000811	8.108694	2.747300	0.000325
1956	1.9452e+02	-2.1096	-50.680183	0.000882	8.818205	2.987689	0.000353
1957	1.9462e+02	-2.0663	-50.353175	0.000821	8.210053	2.781641	0.000329
1958	1.9472e+02	-2.0278	-49.985796	0.000922	9.223640	3.125054	0.000369
1959	1.9482e+02	-1.9796	-49.646677	0.000851	8.514129	2.884665	0.000341
1960	1.9492e+02	-1.9443	-49.263149	0.000963	9.629075	3.262419	0.000385
1961	1.9502e+02	-1.9106	-48.928067	0.000841	8.412771	2.850324	0.000337
1962	1.9512e+02	-1.8625	-48.536464	0.000983	9.831792	3.331101	0.000394
1963	1.9522e+02	-1.8256	-48.249828	0.000720	7.196466	2.438229	0.000288
1964	1.9532e+02	-1.7887	-47.850151	0.001003	10.034509	3.399784	0.000402
1965	1.9542e+02	-1.7470	-47.535255	0.000791	7.905977	2.678618	0.000316
1966	1.9552e+02	-1.7117	-47.179987	0.000892	8.919564	3.022030	0.000357
1967	1.9562e+02	-1.6684	-46.824719	0.000892	8.919564	3.022030	0.000357
1968	1.9572e+02	-1.6299	-46.453302	0.000932	9.324999	3.159395	0.000373
1969	1.9582e+02	-1.5866	-46.114183	0.000851	8.514129	2.884665	0.000341
1970	1.9592e+02	-1.5529	-45.722581	0.000983	9.831792	3.331101	0.000394
1971	1.9601e+02	-1.5080	-45.395573	0.000821	8.210053	2.781641	0.000329
1972	1.9611e+02	-1.4647	-45.048379	0.000872	8.716847	2.953348	0.000349
1973	1.9621e+02	-1.4326	-44.701185	0.000872	8.716847	2.953348	0.000349
1974	1.9631e+02	-1.4021	-44.317658	0.000963	9.629075	3.262419	0.000385
1975	1.9641e+02	-1.3476	-43.990650	0.000821	8.210053	2.781641	0.000329
1976	1.9651e+02	-1.3123	-43.566750	0.001064	10.642662	3.605831	0.000426
1977	1.9661e+02	-1.2754	-43.243779	0.000811	8.108694	2.747300	0.000325
1978	1.9671e+02	-1.2369	-42.896586	0.000872	8.716847	2.953348	0.000349
1979	1.9681e+02	-1.1935	-42.561504	0.000841	8.412771	2.850324	0.000337
1980	1.9691e+02	-1.1534	-42.161827	0.001003	10.034509	3.399784	0.000402
1981	1.9701e+02	-1.1198	-41.863079	0.000750	7.500542	2.541253	0.000300
1982	1.9711e+02	-1.0668	-41.435143	0.001074	10.744020	3.640173	0.000430
1983	1.9721e+02	-1.0315	-41.152543	0.000710	7.095108	2.403888	0.000284
1984	1.9731e+02	-0.9946	-40.736718	0.001044	10.439944	3.537149	0.000418
1985	1.9741e+02	-0.9545	-40.454119	0.000710	7.095108	2.403888	0.000284
1986	1.9751e+02	-0.9128	-40.054442	0.001003	10.034509	3.399784	0.000402
1987	1.9761e+02	-0.8663	-39.695137	0.000902	9.020923	3.056371	0.000361
1988	1.9771e+02	-0.8358	-39.339869	0.000892	8.919564	3.022030	0.000357
1989	1.9781e+02	-0.7861	-38.948267	0.000983	9.831792	3.331101	0.000394
1990	1.9791e+02	-0.7508	-38.588962	0.000902	9.020923	3.056371	0.000361
1991	1.9800e+02	-0.7027	-38.241768	0.000872	8.716847	2.953348	0.000349
1992	1.9810e+02	-0.6642	-37.886500	0.000892	8.919564	3.022030	0.000357
1993	1.9820e+02	-0.6401	-37.486824	0.001003	10.034509	3.399784	0.000402
1994	1.9830e+02	-0.5888	-37.135593	0.000882	8.818205	2.987689	0.000353
1995	1.9840e+02	-0.5663	-36.784362	0.000882	8.818205	2.987689	0.000353
1996	1.9850e+02	-0.5150	-36.437169	0.000872	8.716847	2.953348	0.000349
1997	1.9860e+02	-0.4700	-36.053641	0.000963	9.629075	3.262419	0.000385
1998	1.9870e+02	-0.4396	-35.706447	0.000872	8.716847	2.953348	0.000349
1999	1.9880e+02	-0.3850	-35.310808	0.000993	9.933151	3.365443	0.000398
2000	1.9890e+02	-0.3561	-35.012060	0.000750	7.500542	2.541253	0.000300
2001	1.9900e+02	-0.3176	-34.592198	0.001054	10.541303	3.571490	0.000422
2002	1.9910e+02	-0.2695	-34.253078	0.000851	8.514129	2.884665	0.000341
2003	1.9920e+02	-0.2487	-33.865513	0.000973	9.730433	3.296760	0.000390
2004	1.9930e+02	-0.1957	-33.494097	0.000932	9.324999	3.159395	0.000373
2005	1.9940e+02	-0.1556	-33.167089	0.000821	8.210053	2.781641	0.000329
2006	1.9950e+02	-0.1171	-32.803746	0.000912	9.122281	3.090713	0.000365
2007	1.9960e+02	-0.0738	-32.440404	0.000912	9.122281	3.090713	0.000365
2008	1.9970e+02	-0.0337	-32.032654	0.001024	10.237227	3.468466	0.000410
2009	1.9980e+02	0.0080	-31.725831	0.001024	10.237227	3.468466	0.000308

PMax (uC/cm2):	1.73e+02
Pr (uC/cm2):	1.59e+01
-Pr (uC/cm2):	-2.13e+01
PLoss (uC/cm2):	-2.13e+01
-Vc:	-1.73e+00
C (Max-Eff) (nF):	8.64e-01
K (Eff):	2.93e+03
Vert. (+/-Pr) Shift (uC/cm2):	-2.70e+00
Offset (uC/cm2):	1.04e+01

A (Loop Area - uC/cm2·Volts):	1.29e-01



Hysteresis Version: 5.48.1 - Radiant Technologies, Inc., 1999 - 9/12/24

