»»»»»»»»»»»»»»»»»»»»»»»»»»»»»»»»»»»» Hysteresis ««««««««««««««««««««««««««««««««««««
»»»  Executed Version:	5.48.1
»»»  Vision Version:	5.48.4 (R)
»»»  Vision Compiled:	9/18/24
»»»  Driver Version:	5.47.0
»»»  Windows Version:	Windows 8 or 8.1
»»»  Processor Information:	x86 (AMD or Intel) - 32 Processors
»»»  Tester Name:	PMF21124-494 (100V)
»»»  Tester S/N:	PMF21124-494
»»»  Internal Amp Type:	100V RevK 270k
»»»  Internal Amp S/N:	iAB2-596/K     
»»»  Execution Count:	1
»»»»»»»»»»»»»»»»»»»»»»»»»»»»»»»»»»»»»»»»»»««««««««««««««««««««««««««««««««««««««««««

Stored:	6/18/2025 - 15:26:14
Configured:	06/18/25 09:47:30 AM
Executed:	06/18/25 03:25:33 PM

»»»»»»»»»»»»»»»»»»»»»»»»»»»»»»»»»»» Sample Info ««««««««««««««««««««««««««««««««««««
Sample Name:	
Lot Name:	
Wafer Name:	
Die Row/Column:	0/0
Capacitor Number:	0
Sample Area (cm2):	1.00e-04
Sample Thickness (microns):	3.00e-01

Amplifier:	Internal

»»»»»»»»»»»»»»»»»»»»»»»»»»»»»»»»»»» Tester Info «««««««««««««««««««««««««««««««««««
Tester Name:	PMF21124-494 (100V)
Tester Serial Number:	PMF21124-494
Return Signal Amp. Level:	0.19 [Index: 3]

»»»»»»»»»»»»»»»»»»»»»»»»»»»»»»»» Hysteresis Info ««««««««««««««««««««««««««««««««««
Task Name:	Hyst-554
Volts:	20.00
Field:	666.67 (kV/cm)
DCBias:	0.00
DCField:	0.00 (kV/cm)
Hysteresis Period (ms):	2.00e+02
Preset:	Enabled
Preset Delay (ms):	1.00e+03
Profile:	Standard Bipolar

»»»»»»»»»»»»»»»»»»»»»»»»»»»»»»»»»»»»»» Data «««««««««««««««««««««««««««««««««««««««
Points:	2009

Valid Data

Point	Time (ms)	Drive Voltage	Measured Polarization (uC/cm2)	Capacitance (uF)	Normalized Capacitance (uF/cm2)	Dielectric Constant	Instantaneous Current (mA)
   1	0.0000e+00	0.0064	-12.083147	0.000618	6.182136	2.094564	0.000248
   2	9.9500e-02	0.0433	-11.836882	0.000618	6.182136	2.094564	0.000248
   3	1.9900e-01	0.0818	-11.598691	0.000598	5.979443	2.025890	0.000239
   4	2.9850e-01	0.1187	-11.271683	0.000821	8.209065	2.781307	0.000329
   5	3.9800e-01	0.1524	-10.972935	0.000750	7.499640	2.540947	0.000300
   6	4.9750e-01	0.1989	-10.658038	0.000791	7.905026	2.678295	0.000316
   7	5.9700e-01	0.2310	-10.375439	0.000709	7.094254	2.403598	0.000284
   8	6.9650e-01	0.2759	-10.056505	0.000801	8.006372	2.712632	0.000321
   9	7.9600e-01	0.3144	-9.826388	0.000578	5.776750	1.957216	0.000231
  10	8.9550e-01	0.3593	-9.491306	0.000841	8.411758	2.849981	0.000337
  11	9.9500e-01	0.3834	-9.164298	0.000821	8.209065	2.781307	0.000329
  12	1.0945e+00	0.4315	-8.885736	0.000699	6.992907	2.369261	0.000280
  13	1.1940e+00	0.4716	-8.591025	0.000740	7.398293	2.506610	0.000296
  14	1.2935e+00	0.5214	-8.255943	0.000841	8.411758	2.849981	0.000337
  15	1.3930e+00	0.5535	-7.973343	0.000709	7.094254	2.403598	0.000284
  16	1.4925e+00	0.6016	-7.654409	0.000801	8.006372	2.712632	0.000321
  17	1.5920e+00	0.6353	-7.347587	0.000770	7.702333	2.609621	0.000308
  18	1.6915e+00	0.6754	-7.060950	0.000720	7.195600	2.437935	0.000288
  19	1.7910e+00	0.7075	-6.774314	0.000720	7.195600	2.437935	0.000288
  20	1.8905e+00	0.7604	-6.459417	0.000791	7.905026	2.678295	0.000316
  21	1.9900e+00	0.7973	-6.168743	0.000730	7.296947	2.472273	0.000292
  22	2.0895e+00	0.8406	-5.845773	0.000811	8.107719	2.746969	0.000325
  23	2.1890e+00	0.8663	-5.559136	0.000720	7.195600	2.437935	0.000288
  24	2.2885e+00	0.9112	-5.260388	0.000750	7.499640	2.540947	0.000300
  25	2.3880e+00	0.9513	-4.929343	0.000831	8.310412	2.815644	0.000333
  26	2.4875e+00	1.0026	-4.594260	0.000841	8.411758	2.849981	0.000337
  27	2.5870e+00	1.0347	-4.291475	0.000760	7.600986	2.575284	0.000304
  28	2.6865e+00	1.0700	-4.037136	0.000638	6.384829	2.163238	0.000256
  29	2.7860e+00	1.1149	-3.742425	0.000740	7.398293	2.506610	0.000296
  30	2.8855e+00	1.1534	-3.411380	0.000831	8.310412	2.815644	0.000333
  31	2.9850e+00	1.1903	-3.060149	0.000882	8.817144	2.987329	0.000353
  32	3.0845e+00	1.2353	-2.765438	0.000740	7.398293	2.506610	0.000296
  33	3.1840e+00	1.2593	-2.482838	0.000709	7.094254	2.403598	0.000284
  34	3.2835e+00	1.3139	-2.163905	0.000801	8.006372	2.712632	0.000321
  35	3.3830e+00	1.3524	-1.836897	0.000821	8.209065	2.781307	0.000329
  36	3.4825e+00	1.3957	-1.562372	0.000689	6.891561	2.334924	0.000276
  37	3.5820e+00	1.4358	-1.231326	0.000831	8.310412	2.815644	0.000333
  38	3.6815e+00	1.4727	-0.932578	0.000750	7.499640	2.540947	0.000300
  39	3.7810e+00	1.5096	-0.625756	0.000770	7.702333	2.609621	0.000308
  40	3.8805e+00	1.5513	-0.322971	0.000760	7.600986	2.575284	0.000304
  41	3.9800e+00	1.5834	-0.008074	0.000791	7.905026	2.678295	0.000316
  42	4.0795e+00	1.6363	0.322971	0.000831	8.310412	2.815644	0.000333
  43	4.1790e+00	1.6636	0.625756	0.000760	7.600986	2.575284	0.000304
  44	4.2785e+00	1.7101	0.932578	0.000770	7.702333	2.609621	0.000308
  45	4.3780e+00	1.7502	1.275735	0.000861	8.614451	2.918655	0.000345
  46	4.4775e+00	1.7919	1.534112	0.000649	6.486175	2.197576	0.000260
  47	4.5770e+00	1.8288	1.865157	0.000831	8.310412	2.815644	0.000333
  48	4.6765e+00	1.8705	2.155830	0.000730	7.296947	2.472273	0.000292
  49	4.7760e+00	1.9090	2.462653	0.000770	7.702333	2.609621	0.000308
  50	4.8755e+00	1.9491	2.789661	0.000821	8.209065	2.781307	0.000329
  51	4.9750e+00	1.9892	3.104557	0.000791	7.905026	2.678295	0.000316
  52	5.0745e+00	2.0213	3.399268	0.000740	7.398293	2.506610	0.000296
  53	5.1740e+00	2.0646	3.766648	0.000922	9.222530	3.124678	0.000369
  54	5.2735e+00	2.1128	4.041173	0.000689	6.891561	2.334924	0.000276
  55	5.3730e+00	2.1513	4.291475	0.000628	6.283482	2.128901	0.000252
  56	5.4725e+00	2.1834	4.703263	0.001034	10.337341	3.502386	0.000414
  57	5.5720e+00	2.2315	4.969714	0.000669	6.688868	2.266250	0.000268
  58	5.6715e+00	2.2716	5.300759	0.000831	8.310412	2.815644	0.000333
  59	5.7710e+00	2.3053	5.611619	0.000780	7.803679	2.643958	0.000312
  60	5.8705e+00	2.3470	5.902292	0.000730	7.296947	2.472273	0.000292
  61	5.9700e+00	2.3871	6.225263	0.000811	8.107719	2.746969	0.000325
  62	6.0695e+00	2.4304	6.556308	0.000831	8.310412	2.815644	0.000333
  63	6.1690e+00	2.4657	6.822759	0.000669	6.688868	2.266250	0.000268
  64	6.2685e+00	2.5058	7.202250	0.000953	9.526570	3.227689	0.000381
  65	6.3680e+00	2.5427	7.517147	0.000791	7.905026	2.678295	0.000316
  66	6.4675e+00	2.5876	7.832043	0.000791	7.905026	2.678295	0.000316
  67	6.5670e+00	2.6309	8.122717	0.000730	7.296947	2.472273	0.000292
  68	6.6665e+00	2.6727	8.417428	0.000740	7.398293	2.506610	0.000296
  69	6.7660e+00	2.7112	8.744436	0.000821	8.209065	2.781307	0.000329
  70	6.8655e+00	2.7464	9.059333	0.000791	7.905026	2.678295	0.000316
  71	6.9650e+00	2.7817	9.402489	0.000861	8.614451	2.918655	0.000345
  72	7.0645e+00	2.8267	9.713349	0.000780	7.803679	2.643958	0.000312
  73	7.1640e+00	2.8603	10.044394	0.000831	8.310412	2.815644	0.000333
  74	7.2635e+00	2.9021	10.314882	0.000679	6.790214	2.300587	0.000272
  75	7.3630e+00	2.9502	10.666113	0.000882	8.817144	2.987329	0.000353
  76	7.4625e+00	2.9887	10.989083	0.000811	8.107719	2.746969	0.000325
  77	7.5620e+00	3.0272	11.295906	0.000770	7.702333	2.609621	0.000308
  78	7.6615e+00	3.0625	11.582542	0.000720	7.195600	2.437935	0.000288
  79	7.7610e+00	3.1042	11.905513	0.000811	8.107719	2.746969	0.000325
  80	7.8605e+00	3.1347	12.244633	0.000851	8.513105	2.884318	0.000341
  81	7.9600e+00	3.1828	12.587789	0.000861	8.614451	2.918655	0.000345
  82	8.0595e+00	3.2277	12.874426	0.000720	7.195600	2.437935	0.000288
  83	8.1590e+00	3.2694	13.209508	0.000841	8.411758	2.849981	0.000337
  84	8.2585e+00	3.3095	13.516330	0.000770	7.702333	2.609621	0.000308
  85	8.3580e+00	3.3416	13.798930	0.000709	7.094254	2.403598	0.000284
  86	8.4575e+00	3.3946	14.166309	0.000922	9.222530	3.124678	0.000369
  87	8.5570e+00	3.4282	14.465057	0.000750	7.499640	2.540947	0.000300
  88	8.6565e+00	3.4651	14.771880	0.000770	7.702333	2.609621	0.000308
  89	8.7560e+00	3.5052	15.098888	0.000821	8.209065	2.781307	0.000329
  90	8.8555e+00	3.5438	15.409747	0.000780	7.803679	2.643958	0.000312
  91	8.9550e+00	3.5887	15.736755	0.000821	8.209065	2.781307	0.000329
  92	9.0545e+00	3.6256	16.047615	0.000780	7.803679	2.643958	0.000312
  93	9.1540e+00	3.6641	16.370585	0.000811	8.107719	2.746969	0.000325
  94	9.2535e+00	3.6913	16.705668	0.000841	8.411758	2.849981	0.000337
  95	9.3530e+00	3.7411	17.016527	0.000780	7.803679	2.643958	0.000312
  96	9.4525e+00	3.7828	17.323349	0.000770	7.702333	2.609621	0.000308
  97	9.5520e+00	3.8229	17.670543	0.000872	8.715798	2.952992	0.000349
  98	9.6515e+00	3.8646	17.961217	0.000730	7.296947	2.472273	0.000292
  99	9.7510e+00	3.9095	18.259965	0.000750	7.499640	2.540947	0.000300
 100	9.8505e+00	3.9384	18.599084	0.000851	8.513105	2.884318	0.000341
 101	9.9500e+00	3.9849	18.918018	0.000801	8.006372	2.712632	0.000321
 102	1.0050e+01	4.0234	19.212729	0.000740	7.398293	2.506610	0.000296
 103	1.0149e+01	4.0651	19.567997	0.000892	8.918491	3.021666	0.000357
 104	1.0248e+01	4.0972	19.834448	0.000669	6.688868	2.266250	0.000268
 105	1.0348e+01	4.1389	20.217976	0.000963	9.627916	3.262026	0.000385
 106	1.0447e+01	4.1758	20.524798	0.000770	7.702333	2.609621	0.000308
 107	1.0547e+01	4.2223	20.807398	0.000709	7.094254	2.403598	0.000284
 108	1.0646e+01	4.2608	21.186888	0.000953	9.526570	3.227689	0.000381
 109	1.0746e+01	4.3058	21.493711	0.000770	7.702333	2.609621	0.000308
 110	1.0845e+01	4.3443	21.824756	0.000831	8.310412	2.815644	0.000333
 111	1.0945e+01	4.3796	22.143690	0.000801	8.006372	2.712632	0.000321
 112	1.1044e+01	4.4181	22.434363	0.000730	7.296947	2.472273	0.000292
 113	1.1144e+01	4.4630	22.753297	0.000801	8.006372	2.712632	0.000321
 114	1.1243e+01	4.5079	23.104528	0.000882	8.817144	2.987329	0.000353
 115	1.1343e+01	4.5416	23.431536	0.000821	8.209065	2.781307	0.000329
 116	1.1443e+01	4.5705	23.770655	0.000851	8.513105	2.884318	0.000341
 117	1.1542e+01	4.6218	24.061329	0.000730	7.296947	2.472273	0.000292
 118	1.1642e+01	4.6523	24.400448	0.000851	8.513105	2.884318	0.000341
 119	1.1741e+01	4.7052	24.695159	0.000740	7.398293	2.506610	0.000296
 120	1.1841e+01	4.7341	25.030242	0.000841	8.411758	2.849981	0.000337
 121	1.1940e+01	4.7758	25.353212	0.000811	8.107719	2.746969	0.000325
 122	1.2040e+01	4.8127	25.688295	0.000841	8.411758	2.849981	0.000337
 123	1.2139e+01	4.8608	25.995117	0.000770	7.702333	2.609621	0.000308
 124	1.2239e+01	4.9009	26.310014	0.000791	7.905026	2.678295	0.000316
 125	1.2338e+01	4.9362	26.649133	0.000851	8.513105	2.884318	0.000341
 126	1.2438e+01	4.9795	26.964030	0.000791	7.905026	2.678295	0.000316
 127	1.2537e+01	5.0164	27.303149	0.000851	8.513105	2.884318	0.000341
 128	1.2636e+01	5.0598	27.638231	0.000841	8.411758	2.849981	0.000337
 129	1.2736e+01	5.0870	27.932942	0.000740	7.398293	2.506610	0.000296
 130	1.2835e+01	5.1400	28.219579	0.000720	7.195600	2.437935	0.000288
 131	1.2935e+01	5.1769	28.611181	0.000983	9.830609	3.330700	0.000394
 132	1.3034e+01	5.2202	28.966449	0.000892	8.918491	3.021666	0.000357
 133	1.3134e+01	5.2651	29.224826	0.000649	6.486175	2.197576	0.000260
 134	1.3233e+01	5.2956	29.563945	0.000851	8.513105	2.884318	0.000341
 135	1.3333e+01	5.3373	29.882879	0.000801	8.006372	2.712632	0.000321
 136	1.3432e+01	5.3726	30.209887	0.000821	8.209065	2.781307	0.000329
 137	1.3532e+01	5.4223	30.536895	0.000821	8.209065	2.781307	0.000329
 138	1.3632e+01	5.4576	30.851791	0.000791	7.905026	2.678295	0.000316
 139	1.3731e+01	5.4993	31.194948	0.000861	8.614451	2.918655	0.000345
 140	1.3831e+01	5.5362	31.534067	0.000851	8.513105	2.884318	0.000341
 141	1.3930e+01	5.5811	31.853001	0.000801	8.006372	2.712632	0.000321
 142	1.4030e+01	5.6084	32.163860	0.000780	7.803679	2.643958	0.000312
 143	1.4129e+01	5.6549	32.523166	0.000902	9.019837	3.056004	0.000361
 144	1.4229e+01	5.7047	32.805765	0.000709	7.094254	2.403598	0.000284
 145	1.4328e+01	5.7383	33.124699	0.000801	8.006372	2.712632	0.000321
 146	1.4428e+01	5.7768	33.488041	0.000912	9.121184	3.090341	0.000365
 147	1.4527e+01	5.8186	33.774678	0.000720	7.195600	2.437935	0.000288
 148	1.4627e+01	5.8571	34.109760	0.000841	8.411758	2.849981	0.000337
 149	1.4726e+01	5.8923	34.456954	0.000872	8.715798	2.952992	0.000349
 150	1.4825e+01	5.9405	34.779924	0.000811	8.107719	2.746969	0.000325
 151	1.4925e+01	5.9806	35.074635	0.000740	7.398293	2.506610	0.000296
 152	1.5024e+01	6.0143	35.405680	0.000831	8.310412	2.815644	0.000333
 153	1.5124e+01	6.0560	35.769023	0.000912	9.121184	3.090341	0.000365
 154	1.5223e+01	6.1025	36.087956	0.000801	8.006372	2.712632	0.000321
 155	1.5323e+01	6.1410	36.390742	0.000760	7.600986	2.575284	0.000304
 156	1.5422e+01	6.1699	36.733898	0.000861	8.614451	2.918655	0.000345
 157	1.5522e+01	6.2212	37.093203	0.000902	9.019837	3.056004	0.000361
 158	1.5621e+01	6.2501	37.367728	0.000689	6.891561	2.334924	0.000276
 159	1.5721e+01	6.2822	37.718959	0.000882	8.817144	2.987329	0.000353
 160	1.5820e+01	6.3239	38.029819	0.000780	7.803679	2.643958	0.000312
 161	1.5920e+01	6.3736	38.344715	0.000791	7.905026	2.678295	0.000316
 162	1.6020e+01	6.4089	38.655575	0.000780	7.803679	2.643958	0.000312
 163	1.6119e+01	6.4410	39.002768	0.000872	8.715798	2.952992	0.000349
 164	1.6218e+01	6.4907	39.321702	0.000801	8.006372	2.712632	0.000321
 165	1.6318e+01	6.5244	39.656784	0.000841	8.411758	2.849981	0.000337
 166	1.6418e+01	6.5629	39.955532	0.000750	7.499640	2.540947	0.000300
 167	1.6517e+01	6.6191	40.262355	0.000770	7.702333	2.609621	0.000308
 168	1.6616e+01	6.6511	40.601474	0.000851	8.513105	2.884318	0.000341
 169	1.6716e+01	6.6864	40.932519	0.000831	8.310412	2.815644	0.000333
 170	1.6816e+01	6.7330	41.283750	0.000882	8.817144	2.987329	0.000353
 171	1.6915e+01	6.7618	41.602684	0.000801	8.006372	2.712632	0.000321
 172	1.7015e+01	6.8116	41.913543	0.000780	7.803679	2.643958	0.000312
 173	1.7114e+01	6.8549	42.260737	0.000872	8.715798	2.952992	0.000349
 174	1.7213e+01	6.9030	42.587745	0.000821	8.209065	2.781307	0.000329
 175	1.7313e+01	6.9271	42.874382	0.000720	7.195600	2.437935	0.000288
 176	1.7413e+01	6.9688	43.253872	0.000953	9.526570	3.227689	0.000381
 177	1.7512e+01	6.9961	43.552620	0.000750	7.499640	2.540947	0.000300
 178	1.7611e+01	7.0458	43.883665	0.000831	8.310412	2.815644	0.000333
 179	1.7711e+01	7.0875	44.206636	0.000811	8.107719	2.746969	0.000325
 180	1.7811e+01	7.1356	44.537681	0.000831	8.310412	2.815644	0.000333
 181	1.7910e+01	7.1677	44.828355	0.000730	7.296947	2.472273	0.000292
 182	1.8009e+01	7.2078	45.183623	0.000892	8.918491	3.021666	0.000357
 183	1.8109e+01	7.2399	45.466223	0.000709	7.094254	2.403598	0.000284
 184	1.8209e+01	7.2864	45.825528	0.000902	9.019837	3.056004	0.000361
 185	1.8308e+01	7.3217	46.184833	0.000902	9.019837	3.056004	0.000361
 186	1.8407e+01	7.3714	46.471469	0.000720	7.195600	2.437935	0.000288
 187	1.8507e+01	7.3939	46.810589	0.000851	8.513105	2.884318	0.000341
 188	1.8607e+01	7.4468	47.153745	0.000861	8.614451	2.918655	0.000345
 189	1.8706e+01	7.4837	47.440382	0.000720	7.195600	2.437935	0.000288
 190	1.8805e+01	7.5255	47.755279	0.000791	7.905026	2.678295	0.000316
 191	1.8905e+01	7.5656	48.110547	0.000892	8.918491	3.021666	0.000357
 192	1.9005e+01	7.6073	48.429480	0.000801	8.006372	2.712632	0.000321
 193	1.9104e+01	7.6538	48.740340	0.000780	7.803679	2.643958	0.000312
 194	1.9203e+01	7.6939	49.059273	0.000801	8.006372	2.712632	0.000321
 195	1.9303e+01	7.7244	49.414541	0.000892	8.918491	3.021666	0.000357
 196	1.9402e+01	7.7597	49.717327	0.000760	7.600986	2.575284	0.000304
 197	1.9502e+01	7.8030	50.016075	0.000750	7.499640	2.540947	0.000300
 198	1.9602e+01	7.8559	50.363268	0.000872	8.715798	2.952992	0.000349
 199	1.9701e+01	7.8832	50.702388	0.000851	8.513105	2.884318	0.000341
 200	1.9800e+01	7.9313	50.976913	0.000689	6.891561	2.334924	0.000276
 201	1.9900e+01	7.9698	51.332181	0.000892	8.918491	3.021666	0.000357
 202	2.0000e+01	8.0035	51.634966	0.000760	7.600986	2.575284	0.000304
 203	2.0099e+01	8.0516	51.974085	0.000851	8.513105	2.884318	0.000341
 204	2.0198e+01	8.0869	52.220351	0.000618	6.182136	2.094564	0.000248
 205	2.0298e+01	8.1319	52.599842	0.000953	9.526570	3.227689	0.000381
 206	2.0398e+01	8.1655	52.914738	0.000791	7.905026	2.678295	0.000316
 207	2.0497e+01	8.1976	53.221560	0.000770	7.702333	2.609621	0.000308
 208	2.0596e+01	8.2393	53.556643	0.000841	8.411758	2.849981	0.000337
 209	2.0696e+01	8.2843	53.851354	0.000740	7.398293	2.506610	0.000296
 210	2.0796e+01	8.3244	54.194510	0.000861	8.614451	2.918655	0.000345
 211	2.0895e+01	8.3677	54.529592	0.000841	8.411758	2.849981	0.000337
 212	2.0994e+01	8.3982	54.852563	0.000811	8.107719	2.746969	0.000325
 213	2.1094e+01	8.4543	55.147274	0.000740	7.398293	2.506610	0.000296
 214	2.1194e+01	8.4912	55.494468	0.000872	8.715798	2.952992	0.000349
 215	2.1293e+01	8.5265	55.805327	0.000780	7.803679	2.643958	0.000312
 216	2.1392e+01	8.5522	56.136372	0.000831	8.310412	2.815644	0.000333
 217	2.1492e+01	8.5939	56.443195	0.000770	7.702333	2.609621	0.000308
 218	2.1591e+01	8.6452	56.745980	0.000760	7.600986	2.575284	0.000304
 219	2.1691e+01	8.6837	57.068951	0.000811	8.107719	2.746969	0.000325
 220	2.1791e+01	8.7190	57.395959	0.000821	8.209065	2.781307	0.000329
 221	2.1890e+01	8.7671	57.714893	0.000801	8.006372	2.712632	0.000321
 222	2.1989e+01	8.7928	58.017678	0.000760	7.600986	2.575284	0.000304
 223	2.2089e+01	8.8441	58.348723	0.000831	8.310412	2.815644	0.000333
 224	2.2189e+01	8.8874	58.671694	0.000811	8.107719	2.746969	0.000325
 225	2.2288e+01	8.9147	58.986590	0.000791	7.905026	2.678295	0.000316
 226	2.2387e+01	8.9596	59.297450	0.000780	7.803679	2.643958	0.000312
 227	2.2487e+01	8.9997	59.588123	0.000730	7.296947	2.472273	0.000292
 228	2.2587e+01	9.0447	59.919169	0.000831	8.310412	2.815644	0.000333
 229	2.2686e+01	9.0703	60.197731	0.000699	6.992907	2.369261	0.000280
 230	2.2785e+01	9.1185	60.512628	0.000791	7.905026	2.678295	0.000316
 231	2.2885e+01	9.1650	60.863858	0.000882	8.817144	2.987329	0.000353
 232	2.2985e+01	9.1971	61.174718	0.000780	7.803679	2.643958	0.000312
 233	2.3084e+01	9.2404	61.493652	0.000801	8.006372	2.712632	0.000321
 234	2.3183e+01	9.2805	61.796437	0.000760	7.600986	2.575284	0.000304
 235	2.3283e+01	9.3142	62.143630	0.000872	8.715798	2.952992	0.000349
 236	2.3383e+01	9.3543	62.438341	0.000740	7.398293	2.506610	0.000296
 237	2.3482e+01	9.3976	62.773424	0.000841	8.411758	2.849981	0.000337
 238	2.3581e+01	9.4281	63.051986	0.000699	6.992907	2.369261	0.000280
 239	2.3681e+01	9.4810	63.387068	0.000841	8.411758	2.849981	0.000337
 240	2.3780e+01	9.5179	63.685816	0.000750	7.499640	2.540947	0.000300
 241	2.3880e+01	9.5628	64.037047	0.000882	8.817144	2.987329	0.000353
 242	2.3980e+01	9.6094	64.331758	0.000740	7.398293	2.506610	0.000296
 243	2.4079e+01	9.6366	64.650692	0.000801	8.006372	2.712632	0.000321
 244	2.4178e+01	9.6831	64.909068	0.000649	6.486175	2.197576	0.000260
 245	2.4278e+01	9.7217	65.256262	0.000872	8.715798	2.952992	0.000349
 246	2.4378e+01	9.7537	65.571159	0.000791	7.905026	2.678295	0.000316
 247	2.4477e+01	9.7954	65.865870	0.000740	7.398293	2.506610	0.000296
 248	2.4576e+01	9.8404	66.196915	0.000831	8.310412	2.815644	0.000333
 249	2.4676e+01	9.8692	66.511811	0.000791	7.905026	2.678295	0.000316
 250	2.4776e+01	9.9077	66.810559	0.000750	7.499640	2.540947	0.000300
 251	2.4875e+01	9.9623	67.101233	0.000730	7.296947	2.472273	0.000292
 252	2.4974e+01	10.0008	67.404018	0.000760	7.600986	2.575284	0.000304
 253	2.5074e+01	10.0489	67.739101	0.000841	8.411758	2.849981	0.000337
 254	2.5174e+01	10.0778	68.045923	0.000770	7.702333	2.609621	0.000308
 255	2.5273e+01	10.1147	68.368894	0.000811	8.107719	2.746969	0.000325
 256	2.5372e+01	10.1564	68.655530	0.000720	7.195600	2.437935	0.000288
 257	2.5472e+01	10.1997	68.982538	0.000821	8.209065	2.781307	0.000329
 258	2.5572e+01	10.2398	69.301472	0.000801	8.006372	2.712632	0.000321
 259	2.5671e+01	10.2815	69.616369	0.000791	7.905026	2.678295	0.000316
 260	2.5770e+01	10.3104	69.919154	0.000760	7.600986	2.575284	0.000304
 261	2.5870e+01	10.3553	70.217902	0.000750	7.499640	2.540947	0.000300
 262	2.5970e+01	10.3954	70.577207	0.000902	9.019837	3.056004	0.000361
 263	2.6069e+01	10.4371	70.835584	0.000649	6.486175	2.197576	0.000260
 264	2.6169e+01	10.4708	71.158555	0.000811	8.107719	2.746969	0.000325
 265	2.6268e+01	10.5141	71.445191	0.000720	7.195600	2.437935	0.000288
 266	2.6367e+01	10.5623	71.752013	0.000770	7.702333	2.609621	0.000308
 267	2.6467e+01	10.6008	72.091133	0.000851	8.513105	2.884318	0.000341
 268	2.6567e+01	10.6296	72.410067	0.000801	8.006372	2.712632	0.000321
 269	2.6666e+01	10.6810	72.696703	0.000720	7.195600	2.437935	0.000288
 270	2.6765e+01	10.7147	73.011600	0.000791	7.905026	2.678295	0.000316
 271	2.6865e+01	10.7500	73.306311	0.000740	7.398293	2.506610	0.000296
 272	2.6965e+01	10.7885	73.657542	0.000882	8.817144	2.987329	0.000353
 273	2.7064e+01	10.8334	73.911881	0.000638	6.384829	2.163238	0.000256
 274	2.7163e+01	10.8799	74.242926	0.000831	8.310412	2.815644	0.000333
 275	2.7263e+01	10.9152	74.545711	0.000760	7.600986	2.575284	0.000304
 276	2.7363e+01	10.9569	74.852534	0.000770	7.702333	2.609621	0.000308
 277	2.7462e+01	10.9938	75.151282	0.000750	7.499640	2.540947	0.000300
 278	2.7561e+01	11.0339	75.450030	0.000750	7.499640	2.540947	0.000300
 279	2.7661e+01	11.0788	75.724555	0.000689	6.891561	2.334924	0.000276
 280	2.7761e+01	11.1189	76.063674	0.000851	8.513105	2.884318	0.000341
 281	2.7860e+01	11.1526	76.410868	0.000872	8.715798	2.952992	0.000349
 282	2.7959e+01	11.2008	76.701542	0.000730	7.296947	2.472273	0.000292
 283	2.8059e+01	11.2296	76.984141	0.000709	7.094254	2.403598	0.000284
 284	2.8159e+01	11.2729	77.286927	0.000760	7.600986	2.575284	0.000304
 285	2.8258e+01	11.3163	77.601823	0.000791	7.905026	2.678295	0.000316
 286	2.8358e+01	11.3483	77.896534	0.000740	7.398293	2.506610	0.000296
 287	2.8457e+01	11.4013	78.215468	0.000801	8.006372	2.712632	0.000321
 288	2.8556e+01	11.4253	78.506142	0.000730	7.296947	2.472273	0.000292
 289	2.8656e+01	11.4606	78.849298	0.000861	8.614451	2.918655	0.000345
 290	2.8756e+01	11.5120	79.156120	0.000770	7.702333	2.609621	0.000308
 291	2.8855e+01	11.5553	79.426609	0.000679	6.790214	2.300587	0.000272
 292	2.8954e+01	11.5826	79.745542	0.000801	8.006372	2.712632	0.000321
 293	2.9054e+01	11.6323	80.088699	0.000861	8.614451	2.918655	0.000345
 294	2.9154e+01	11.6676	80.355150	0.000669	6.688868	2.266250	0.000268
 295	2.9253e+01	11.7141	80.649861	0.000740	7.398293	2.506610	0.000296
 296	2.9352e+01	11.7542	81.025314	0.000943	9.425223	3.193352	0.000377
 297	2.9452e+01	11.7879	81.295802	0.000679	6.790214	2.300587	0.000272
 298	2.9552e+01	11.8248	81.610699	0.000791	7.905026	2.678295	0.000316
 299	2.9651e+01	11.8745	81.901373	0.000730	7.296947	2.472273	0.000292
 300	2.9750e+01	11.9050	82.224344	0.000811	8.107719	2.746969	0.000325
 301	2.9850e+01	11.9483	82.506943	0.000709	7.094254	2.403598	0.000284
 302	2.9950e+01	11.9852	82.821840	0.000791	7.905026	2.678295	0.000316
 303	3.0049e+01	12.0334	83.160959	0.000851	8.513105	2.884318	0.000341
 304	3.0148e+01	12.0767	83.463744	0.000760	7.600986	2.575284	0.000304
 305	3.0248e+01	12.1120	83.774604	0.000780	7.803679	2.643958	0.000312
 306	3.0348e+01	12.1473	84.061240	0.000720	7.195600	2.437935	0.000288
 307	3.0447e+01	12.1938	84.384211	0.000811	8.107719	2.746969	0.000325
 308	3.0547e+01	12.2194	84.691034	0.000770	7.702333	2.609621	0.000308
 309	3.0646e+01	12.2708	84.977670	0.000720	7.195600	2.437935	0.000288
 310	3.0745e+01	12.3061	85.284492	0.000770	7.702333	2.609621	0.000308
 311	3.0845e+01	12.3462	85.603426	0.000801	8.006372	2.712632	0.000321
 312	3.0945e+01	12.3911	85.922360	0.000801	8.006372	2.712632	0.000321
 313	3.1044e+01	12.4296	86.225145	0.000760	7.600986	2.575284	0.000304
 314	3.1143e+01	12.4665	86.536005	0.000780	7.803679	2.643958	0.000312
 315	3.1243e+01	12.5130	86.830715	0.000740	7.398293	2.506610	0.000296
 316	3.1343e+01	12.5547	87.169835	0.000851	8.513105	2.884318	0.000341
 317	3.1442e+01	12.5836	87.412063	0.000608	6.080789	2.060227	0.000243
 318	3.1541e+01	12.6414	87.751182	0.000851	8.513105	2.884318	0.000341
 319	3.1641e+01	12.6799	88.037819	0.000720	7.195600	2.437935	0.000288
 320	3.1741e+01	12.7087	88.385013	0.000872	8.715798	2.952992	0.000349
 321	3.1840e+01	12.7424	88.659538	0.000689	6.891561	2.334924	0.000276
 322	3.1939e+01	12.7889	88.994620	0.000841	8.411758	2.849981	0.000337
 323	3.2039e+01	12.8290	89.313554	0.000801	8.006372	2.712632	0.000321
 324	3.2139e+01	12.8724	89.612302	0.000750	7.499640	2.540947	0.000300
 325	3.2238e+01	12.9157	89.931236	0.000801	8.006372	2.712632	0.000321
 326	3.2337e+01	12.9446	90.165390	0.000588	5.878096	1.991553	0.000235
 327	3.2437e+01	12.9750	90.496435	0.000831	8.310412	2.815644	0.000333
 328	3.2536e+01	13.0248	90.803257	0.000770	7.702333	2.609621	0.000308
 329	3.2636e+01	13.0697	91.130265	0.000821	8.209065	2.781307	0.000329
 330	3.2736e+01	13.0986	91.412865	0.000709	7.094254	2.403598	0.000284
 331	3.2835e+01	13.1451	91.739873	0.000821	8.209065	2.781307	0.000329
 332	3.2934e+01	13.1740	92.050732	0.000780	7.803679	2.643958	0.000312
 333	3.3034e+01	13.2157	92.349480	0.000750	7.499640	2.540947	0.000300
 334	3.3133e+01	13.2622	92.644191	0.000740	7.398293	2.506610	0.000296
 335	3.3233e+01	13.3007	92.955050	0.000780	7.803679	2.643958	0.000312
 336	3.3333e+01	13.3488	93.261873	0.000770	7.702333	2.609621	0.000308
 337	3.3432e+01	13.3889	93.592918	0.000831	8.310412	2.815644	0.000333
 338	3.3532e+01	13.4226	93.879554	0.000720	7.195600	2.437935	0.000288
 339	3.3631e+01	13.4643	94.214637	0.000841	8.411758	2.849981	0.000337
 340	3.3730e+01	13.5076	94.452828	0.000598	5.979443	2.025890	0.000239
 341	3.3830e+01	13.5494	94.808096	0.000892	8.918491	3.021666	0.000357
 342	3.3929e+01	13.5846	95.131067	0.000811	8.107719	2.746969	0.000325
 343	3.4029e+01	13.6183	95.397517	0.000669	6.688868	2.266250	0.000268
 344	3.4129e+01	13.6649	95.740674	0.000861	8.614451	2.918655	0.000345
 345	3.4228e+01	13.6937	96.043459	0.000760	7.600986	2.575284	0.000304
 346	3.4328e+01	13.7370	96.326059	0.000709	7.094254	2.403598	0.000284
 347	3.4427e+01	13.7932	96.644992	0.000801	8.006372	2.712632	0.000321
 348	3.4526e+01	13.8253	96.899332	0.000638	6.384829	2.163238	0.000256
 349	3.4626e+01	13.8638	97.278823	0.000953	9.526570	3.227689	0.000381
 350	3.4725e+01	13.8959	97.549311	0.000679	6.790214	2.300587	0.000272
 351	3.4825e+01	13.9440	97.860170	0.000780	7.803679	2.643958	0.000312
 352	3.4925e+01	13.9777	98.175067	0.000791	7.905026	2.678295	0.000316
 353	3.5024e+01	14.0226	98.441518	0.000669	6.688868	2.266250	0.000268
 354	3.5123e+01	14.0515	98.772563	0.000831	8.310412	2.815644	0.000333
 355	3.5223e+01	14.0996	99.127831	0.000892	8.918491	3.021666	0.000357
 356	3.5322e+01	14.1413	99.422542	0.000740	7.398293	2.506610	0.000296
 357	3.5422e+01	14.1830	99.729364	0.000770	7.702333	2.609621	0.000308
 358	3.5522e+01	14.2183	100.032149	0.000760	7.600986	2.575284	0.000304
 359	3.5621e+01	14.2648	100.318786	0.000720	7.195600	2.437935	0.000288
 360	3.5721e+01	14.3017	100.609460	0.000730	7.296947	2.472273	0.000292
 361	3.5820e+01	14.3370	100.964728	0.000892	8.918491	3.021666	0.000357
 362	3.5919e+01	14.3803	101.194844	0.000578	5.776750	1.957216	0.000231
 363	3.6019e+01	14.4221	101.489555	0.000740	7.398293	2.506610	0.000296
 364	3.6118e+01	14.4541	101.848860	0.000902	9.019837	3.056004	0.000361
 365	3.6218e+01	14.5023	102.147608	0.000750	7.499640	2.540947	0.000300
 366	3.6318e+01	14.5376	102.446356	0.000750	7.499640	2.540947	0.000300
 367	3.6417e+01	14.5729	102.741067	0.000740	7.398293	2.506610	0.000296
 368	3.6517e+01	14.6194	103.064038	0.000811	8.107719	2.746969	0.000325
 369	3.6616e+01	14.6611	103.346638	0.000709	7.094254	2.403598	0.000284
 370	3.6715e+01	14.6964	103.693831	0.000872	8.715798	2.952992	0.000349
 371	3.6815e+01	14.7253	103.923948	0.000578	5.776750	1.957216	0.000231
 372	3.6914e+01	14.7798	104.267105	0.000861	8.614451	2.918655	0.000345
 373	3.7014e+01	14.8231	104.541630	0.000689	6.891561	2.334924	0.000276
 374	3.7114e+01	14.8568	104.848452	0.000770	7.702333	2.609621	0.000308
 375	3.7213e+01	14.8937	105.163349	0.000791	7.905026	2.678295	0.000316
 376	3.7313e+01	14.9306	105.429800	0.000669	6.688868	2.266250	0.000268
 377	3.7412e+01	14.9771	105.728548	0.000750	7.499640	2.540947	0.000300
 378	3.7511e+01	15.0060	106.047482	0.000801	8.006372	2.712632	0.000321
 379	3.7611e+01	15.0605	106.338155	0.000730	7.296947	2.472273	0.000292
 380	3.7711e+01	15.0958	106.620755	0.000709	7.094254	2.403598	0.000284
 381	3.7810e+01	15.1424	106.951800	0.000831	8.310412	2.815644	0.000333
 382	3.7910e+01	15.1825	107.242474	0.000730	7.296947	2.472273	0.000292
 383	3.8009e+01	15.2145	107.508925	0.000669	6.688868	2.266250	0.000268
 384	3.8108e+01	15.2514	107.819784	0.000780	7.803679	2.643958	0.000312
 385	3.8208e+01	15.3012	108.134681	0.000791	7.905026	2.678295	0.000316
 386	3.8307e+01	15.3365	108.445540	0.000780	7.803679	2.643958	0.000312
 387	3.8407e+01	15.3766	108.720065	0.000689	6.891561	2.334924	0.000276
 388	3.8507e+01	15.4119	109.010739	0.000730	7.296947	2.472273	0.000292
 389	3.8606e+01	15.4536	109.305450	0.000740	7.398293	2.506610	0.000296
 390	3.8706e+01	15.5001	109.616310	0.000780	7.803679	2.643958	0.000312
 391	3.8805e+01	15.5322	109.894872	0.000699	6.992907	2.369261	0.000280
 392	3.8904e+01	15.5627	110.238028	0.000861	8.614451	2.918655	0.000345
 393	3.9004e+01	15.6108	110.496405	0.000649	6.486175	2.197576	0.000260
 394	3.9103e+01	15.6541	110.754782	0.000649	6.486175	2.197576	0.000260
 395	3.9203e+01	15.6958	111.085827	0.000831	8.310412	2.815644	0.000333
 396	3.9303e+01	15.7407	111.376501	0.000730	7.296947	2.472273	0.000292
 397	3.9402e+01	15.7808	111.683323	0.000770	7.702333	2.609621	0.000308
 398	3.9502e+01	15.8145	111.961885	0.000699	6.992907	2.369261	0.000280
 399	3.9601e+01	15.8514	112.252559	0.000730	7.296947	2.472273	0.000292
 400	3.9700e+01	15.8947	112.531122	0.000699	6.992907	2.369261	0.000280
 401	3.9800e+01	15.9316	112.841981	0.000780	7.803679	2.643958	0.000312
 402	3.9900e+01	15.9717	113.120543	0.000699	6.992907	2.369261	0.000280
 403	3.9999e+01	16.0135	113.463700	0.000861	8.614451	2.918655	0.000345
 404	4.0099e+01	16.0584	113.726114	0.000659	6.587521	2.231913	0.000264
 405	4.0198e+01	16.0937	114.028899	0.000760	7.600986	2.575284	0.000304
 406	4.0297e+01	16.1354	114.295350	0.000669	6.688868	2.266250	0.000268
 407	4.0397e+01	16.1739	114.577949	0.000709	7.094254	2.403598	0.000284
 408	4.0496e+01	16.2060	114.892846	0.000791	7.905026	2.678295	0.000316
 409	4.0596e+01	16.2461	115.167371	0.000689	6.891561	2.334924	0.000276
 410	4.0696e+01	16.2878	115.486305	0.000801	8.006372	2.712632	0.000321
 411	4.0795e+01	16.3295	115.744682	0.000649	6.486175	2.197576	0.000260
 412	4.0895e+01	16.3664	116.027281	0.000709	7.094254	2.403598	0.000284
 413	4.0994e+01	16.4209	116.362363	0.000841	8.411758	2.849981	0.000337
 414	4.1093e+01	16.4578	116.661111	0.000750	7.499640	2.540947	0.000300
 415	4.1193e+01	16.4867	116.959859	0.000750	7.499640	2.540947	0.000300
 416	4.1292e+01	16.5268	117.218236	0.000649	6.486175	2.197576	0.000260
 417	4.1392e+01	16.5733	117.508910	0.000730	7.296947	2.472273	0.000292
 418	4.1492e+01	16.6150	117.803621	0.000740	7.398293	2.506610	0.000296
 419	4.1591e+01	16.6632	118.074109	0.000679	6.790214	2.300587	0.000272
 420	4.1691e+01	16.7001	118.356708	0.000709	7.094254	2.403598	0.000284
 421	4.1790e+01	16.7321	118.667568	0.000780	7.803679	2.643958	0.000312
 422	4.1889e+01	16.7626	118.954205	0.000720	7.195600	2.437935	0.000288
 423	4.1989e+01	16.7979	119.244878	0.000730	7.296947	2.472273	0.000292
 424	4.2089e+01	16.8396	119.511329	0.000669	6.688868	2.266250	0.000268
 425	4.2188e+01	16.8813	119.802003	0.000730	7.296947	2.472273	0.000292
 426	4.2288e+01	16.9279	120.104788	0.000760	7.600986	2.575284	0.000304
 427	4.2387e+01	16.9744	120.330868	0.000568	5.675403	1.922879	0.000227
 428	4.2486e+01	17.0081	120.669987	0.000851	8.513105	2.884318	0.000341
 429	4.2586e+01	17.0466	120.944512	0.000689	6.891561	2.334924	0.000276
 430	4.2685e+01	17.0867	121.239223	0.000740	7.398293	2.506610	0.000296
 431	4.2785e+01	17.1284	121.525860	0.000720	7.195600	2.437935	0.000288
 432	4.2885e+01	17.1621	121.776162	0.000628	6.283482	2.128901	0.000252
 433	4.2984e+01	17.2102	122.115282	0.000851	8.513105	2.884318	0.000341
 434	4.3084e+01	17.2503	122.405956	0.000730	7.296947	2.472273	0.000292
 435	4.3183e+01	17.2920	122.668369	0.000659	6.587521	2.231913	0.000264
 436	4.3282e+01	17.3273	122.971155	0.000760	7.600986	2.575284	0.000304
 437	4.3382e+01	17.3610	123.229531	0.000649	6.486175	2.197576	0.000260
 438	4.3481e+01	17.4059	123.491945	0.000659	6.587521	2.231913	0.000264
 439	4.3581e+01	17.4476	123.822990	0.000831	8.310412	2.815644	0.000333
 440	4.3681e+01	17.4845	124.085404	0.000659	6.587521	2.231913	0.000264
 441	4.3780e+01	17.5262	124.343781	0.000649	6.486175	2.197576	0.000260
 442	4.3880e+01	17.5631	124.662714	0.000801	8.006372	2.712632	0.000321
 443	4.3979e+01	17.6129	124.949351	0.000720	7.195600	2.437935	0.000288
 444	4.4078e+01	17.6514	125.223876	0.000689	6.891561	2.334924	0.000276
 445	4.4178e+01	17.6899	125.498402	0.000689	6.891561	2.334924	0.000276
 446	4.4278e+01	17.7236	125.805224	0.000770	7.702333	2.609621	0.000308
 447	4.4377e+01	17.7669	126.128195	0.000811	8.107719	2.746969	0.000325
 448	4.4477e+01	17.8054	126.338126	0.000527	5.270017	1.785530	0.000211
 449	4.4576e+01	17.8439	126.648985	0.000780	7.803679	2.643958	0.000312
 450	4.4675e+01	17.8776	126.903325	0.000638	6.384829	2.163238	0.000256
 451	4.4775e+01	17.9305	127.161701	0.000649	6.486175	2.197576	0.000260
 452	4.4874e+01	17.9674	127.448338	0.000720	7.195600	2.437935	0.000288
 453	4.4974e+01	18.0027	127.747086	0.000750	7.499640	2.540947	0.000300
 454	4.5074e+01	18.0460	128.045834	0.000750	7.499640	2.540947	0.000300
 455	4.5173e+01	18.0877	128.336508	0.000730	7.296947	2.472273	0.000292
 456	4.5273e+01	18.1246	128.570662	0.000588	5.878096	1.991553	0.000235
 457	4.5372e+01	18.1631	128.889596	0.000801	8.006372	2.712632	0.000321
 458	4.5471e+01	18.2080	129.196418	0.000770	7.702333	2.609621	0.000308
 459	4.5571e+01	18.2417	129.462869	0.000669	6.688868	2.266250	0.000268
 460	4.5670e+01	18.2818	129.753543	0.000730	7.296947	2.472273	0.000292
 461	4.5770e+01	18.3155	130.011919	0.000649	6.486175	2.197576	0.000260
 462	4.5870e+01	18.3669	130.286445	0.000689	6.891561	2.334924	0.000276
 463	4.5969e+01	18.4054	130.601341	0.000791	7.905026	2.678295	0.000316
 464	4.6069e+01	18.4503	130.863755	0.000659	6.587521	2.231913	0.000264
 465	4.6168e+01	18.4840	131.154429	0.000730	7.296947	2.472273	0.000292
 466	4.6267e+01	18.5257	131.445102	0.000730	7.296947	2.472273	0.000292
 467	4.6367e+01	18.5578	131.735776	0.000730	7.296947	2.472273	0.000292
 468	4.6467e+01	18.6027	132.002227	0.000669	6.688868	2.266250	0.000268
 469	4.6566e+01	18.6476	132.256567	0.000638	6.384829	2.163238	0.000256
 470	4.6666e+01	18.6797	132.575501	0.000801	8.006372	2.712632	0.000321
 471	4.6765e+01	18.7278	132.841951	0.000669	6.688868	2.266250	0.000268
 472	4.6864e+01	18.7535	133.100328	0.000649	6.486175	2.197576	0.000260
 473	4.6964e+01	18.8048	133.407150	0.000770	7.702333	2.609621	0.000308
 474	4.7063e+01	18.8417	133.693787	0.000720	7.195600	2.437935	0.000288
 475	4.7163e+01	18.8898	133.952164	0.000649	6.486175	2.197576	0.000260
 476	4.7263e+01	18.9219	134.275135	0.000811	8.107719	2.746969	0.000325
 477	4.7362e+01	18.9620	134.509289	0.000588	5.878096	1.991553	0.000235
 478	4.7462e+01	18.9893	134.799962	0.000730	7.296947	2.472273	0.000292
 479	4.7561e+01	19.0471	135.066413	0.000669	6.688868	2.266250	0.000268
 480	4.7660e+01	19.0888	135.385347	0.000801	8.006372	2.712632	0.000321
 481	4.7760e+01	19.1176	135.655835	0.000679	6.790214	2.300587	0.000272
 482	4.7859e+01	19.1594	135.930360	0.000689	6.891561	2.334924	0.000276
 483	4.7959e+01	19.2011	136.225071	0.000740	7.398293	2.506610	0.000296
 484	4.8059e+01	19.2331	136.471336	0.000618	6.182136	2.094564	0.000248
 485	4.8158e+01	19.2813	136.762010	0.000730	7.296947	2.472273	0.000292
 486	4.8258e+01	19.3198	137.020387	0.000649	6.486175	2.197576	0.000260
 487	4.8357e+01	19.3583	137.307024	0.000720	7.195600	2.437935	0.000288
 488	4.8456e+01	19.4000	137.613846	0.000770	7.702333	2.609621	0.000308
 489	4.8556e+01	19.4369	137.892408	0.000699	6.992907	2.369261	0.000280
 490	4.8656e+01	19.4818	138.154822	0.000659	6.587521	2.231913	0.000264
 491	4.8755e+01	19.5171	138.405125	0.000628	6.283482	2.128901	0.000252
 492	4.8855e+01	19.5588	138.711947	0.000770	7.702333	2.609621	0.000308
 493	4.8954e+01	19.5989	138.994546	0.000709	7.094254	2.403598	0.000284
 494	4.9053e+01	19.6406	139.273109	0.000699	6.992907	2.369261	0.000280
 495	4.9153e+01	19.6775	139.571857	0.000750	7.499640	2.540947	0.000300
 496	4.9252e+01	19.7144	139.854456	0.000709	7.094254	2.403598	0.000284
 497	4.9352e+01	19.7561	140.116870	0.000659	6.587521	2.231913	0.000264
 498	4.9452e+01	19.7962	140.387358	0.000679	6.790214	2.300587	0.000272
 499	4.9551e+01	19.8412	140.669958	0.000709	7.094254	2.403598	0.000284
 500	4.9651e+01	19.8748	140.940446	0.000679	6.790214	2.300587	0.000272
 501	4.9750e+01	19.9182	141.210934	0.000679	6.790214	2.300587	0.000272
 502	4.9849e+01	19.9534	141.497570	0.000720	7.195600	2.437935	0.000288
 503	4.9949e+01	19.9919	141.768059	0.000679	6.790214	2.300587	0.000272
 504	5.0048e+01	19.9583	141.570239	0.000497	4.965978	1.682519	-0.000199
 505	5.0148e+01	19.9149	141.364345	0.000517	5.168671	1.751193	-0.000207
 506	5.0248e+01	19.8861	141.186711	0.000446	4.459245	1.510833	-0.000179
 507	5.0347e+01	19.8395	140.992929	0.000486	4.864631	1.648182	-0.000195
 508	5.0447e+01	19.7946	140.766849	0.000568	5.675403	1.922879	-0.000227
 509	5.0546e+01	19.7609	140.569029	0.000497	4.965978	1.682519	-0.000199
 510	5.0645e+01	19.7128	140.342950	0.000568	5.675403	1.922879	-0.000227
 511	5.0745e+01	19.6791	140.177427	0.000416	4.155206	1.407822	-0.000166
 512	5.0844e+01	19.6422	139.902902	0.000689	6.891561	2.334924	-0.000276
 513	5.0944e+01	19.5973	139.753528	0.000375	3.749820	1.270473	-0.000150
 514	5.1044e+01	19.5604	139.483040	0.000679	6.790214	2.300587	-0.000272
 515	5.1143e+01	19.5235	139.289257	0.000486	4.864631	1.648182	-0.000195
 516	5.1242e+01	19.4834	139.063178	0.000568	5.675403	1.922879	-0.000227
 517	5.1342e+01	19.4353	138.877469	0.000466	4.661938	1.579507	-0.000187
 518	5.1441e+01	19.3904	138.615056	0.000659	6.587521	2.231913	-0.000264
 519	5.1541e+01	19.3615	138.413199	0.000507	5.067324	1.716856	-0.000203
 520	5.1641e+01	19.3262	138.207305	0.000517	5.168671	1.751193	-0.000207
 521	5.1740e+01	19.2781	137.961040	0.000618	6.182136	2.094564	-0.000248
 522	5.1840e+01	19.2428	137.779368	0.000456	4.560592	1.545170	-0.000183
 523	5.1939e+01	19.2027	137.537140	0.000608	6.080789	2.060227	-0.000243
 524	5.2038e+01	19.1626	137.331246	0.000517	5.168671	1.751193	-0.000207
 525	5.2138e+01	19.1144	137.121315	0.000527	5.270017	1.785530	-0.000211
 526	5.2237e+01	19.0823	136.866976	0.000638	6.384829	2.163238	-0.000256
 527	5.2337e+01	19.0358	136.604562	0.000659	6.587521	2.231913	-0.000264
 528	5.2437e+01	18.9941	136.402705	0.000507	5.067324	1.716856	-0.000203
 529	5.2536e+01	18.9684	136.160477	0.000608	6.080789	2.060227	-0.000243
 530	5.2636e+01	18.9187	135.978806	0.000456	4.560592	1.545170	-0.000183
 531	5.2735e+01	18.8754	135.732541	0.000618	6.182136	2.094564	-0.000248
 532	5.2834e+01	18.8465	135.514535	0.000547	5.472710	1.854204	-0.000219
 533	5.2934e+01	18.7952	135.272307	0.000608	6.080789	2.060227	-0.000243
 534	5.3033e+01	18.7695	135.026042	0.000618	6.182136	2.094564	-0.000248
 535	5.3133e+01	18.7102	134.799962	0.000568	5.675403	1.922879	-0.000227
 536	5.3233e+01	18.6829	134.581957	0.000547	5.472710	1.854204	-0.000219
 537	5.3332e+01	18.6364	134.339729	0.000608	6.080789	2.060227	-0.000243
 538	5.3431e+01	18.5995	134.105575	0.000588	5.878096	1.991553	-0.000235
 539	5.3531e+01	18.5690	133.879495	0.000568	5.675403	1.922879	-0.000227
 540	5.3630e+01	18.5241	133.617082	0.000659	6.587521	2.231913	-0.000264
 541	5.3730e+01	18.4824	133.395039	0.000557	5.574057	1.888542	-0.000223
 542	5.3830e+01	18.4471	133.140700	0.000638	6.384829	2.163238	-0.000256
 543	5.3929e+01	18.4054	132.934806	0.000517	5.168671	1.751193	-0.000207
 544	5.4029e+01	18.3653	132.676429	0.000649	6.486175	2.197576	-0.000260
 545	5.4128e+01	18.3235	132.418052	0.000649	6.486175	2.197576	-0.000260
 546	5.4227e+01	18.2786	132.175824	0.000608	6.080789	2.060227	-0.000243
 547	5.4327e+01	18.2465	131.957819	0.000547	5.472710	1.854204	-0.000219
 548	5.4426e+01	18.2145	131.707516	0.000628	6.283482	2.128901	-0.000252
 549	5.4526e+01	18.1583	131.469325	0.000598	5.979443	2.025890	-0.000239
 550	5.4626e+01	18.1182	131.251320	0.000547	5.472710	1.854204	-0.000219
 551	5.4725e+01	18.0909	131.013129	0.000598	5.979443	2.025890	-0.000239
 552	5.4825e+01	18.0444	130.778975	0.000588	5.878096	1.991553	-0.000235
 553	5.4924e+01	18.0139	130.565007	0.000537	5.371364	1.819867	-0.000215
 554	5.5023e+01	17.9610	130.298556	0.000669	6.688868	2.266250	-0.000268
 555	5.5123e+01	17.9273	130.052291	0.000618	6.182136	2.094564	-0.000248
 556	5.5222e+01	17.8792	129.801988	0.000628	6.283482	2.128901	-0.000252
 557	5.5322e+01	17.8391	129.563797	0.000598	5.979443	2.025890	-0.000239
 558	5.5422e+01	17.8038	129.317532	0.000618	6.182136	2.094564	-0.000248
 559	5.5521e+01	17.7637	129.063192	0.000638	6.384829	2.163238	-0.000256
 560	5.5620e+01	17.7252	128.837113	0.000568	5.675403	1.922879	-0.000227
 561	5.5720e+01	17.6867	128.590848	0.000618	6.182136	2.094564	-0.000248
 562	5.5819e+01	17.6434	128.320359	0.000679	6.790214	2.300587	-0.000272
 563	5.5919e+01	17.6097	128.074094	0.000618	6.182136	2.094564	-0.000248
 564	5.6019e+01	17.5583	127.827829	0.000618	6.182136	2.094564	-0.000248
 565	5.6118e+01	17.5359	127.597712	0.000578	5.776750	1.957216	-0.000231
 566	5.6218e+01	17.4893	127.351447	0.000618	6.182136	2.094564	-0.000248
 567	5.6317e+01	17.4428	127.089033	0.000659	6.587521	2.231913	-0.000264
 568	5.6416e+01	17.4043	126.854879	0.000588	5.878096	1.991553	-0.000235
 569	5.6516e+01	17.3642	126.588428	0.000669	6.688868	2.266250	-0.000268
 570	5.6615e+01	17.3241	126.342163	0.000618	6.182136	2.094564	-0.000248
 571	5.6715e+01	17.2888	126.099935	0.000608	6.080789	2.060227	-0.000243
 572	5.6815e+01	17.2455	125.845595	0.000638	6.384829	2.163238	-0.000256
 573	5.6914e+01	17.2070	125.595293	0.000628	6.283482	2.128901	-0.000252
 574	5.7014e+01	17.1701	125.349028	0.000618	6.182136	2.094564	-0.000248
 575	5.7113e+01	17.1332	125.143134	0.000517	5.168671	1.751193	-0.000207
 576	5.7212e+01	17.0803	124.917054	0.000568	5.675403	1.922879	-0.000227
 577	5.7312e+01	17.0530	124.581972	0.000841	8.411758	2.849981	-0.000337
 578	5.7411e+01	17.0113	124.355892	0.000568	5.675403	1.922879	-0.000227
 579	5.7511e+01	16.9680	124.121738	0.000588	5.878096	1.991553	-0.000235
 580	5.7611e+01	16.9343	123.851250	0.000679	6.790214	2.300587	-0.000272
 581	5.7710e+01	16.8958	123.617096	0.000588	5.878096	1.991553	-0.000235
 582	5.7809e+01	16.8509	123.350645	0.000669	6.688868	2.266250	-0.000268
 583	5.7909e+01	16.8140	123.116491	0.000588	5.878096	1.991553	-0.000235
 584	5.8008e+01	16.7723	122.890412	0.000568	5.675403	1.922879	-0.000227
 585	5.8108e+01	16.7289	122.623961	0.000669	6.688868	2.266250	-0.000268
 586	5.8208e+01	16.6888	122.353473	0.000679	6.790214	2.300587	-0.000272
 587	5.8307e+01	16.6551	122.123356	0.000578	5.776750	1.957216	-0.000231
 588	5.8407e+01	16.6054	121.873054	0.000628	6.283482	2.128901	-0.000252
 589	5.8506e+01	16.5717	121.594491	0.000699	6.992907	2.369261	-0.000280
 590	5.8605e+01	16.5300	121.283632	0.000780	7.803679	2.643958	-0.000312
 591	5.8705e+01	16.4867	121.089849	0.000486	4.864631	1.648182	-0.000195
 592	5.8804e+01	16.4546	120.823398	0.000669	6.688868	2.266250	-0.000268
 593	5.8904e+01	16.4065	120.581170	0.000608	6.080789	2.060227	-0.000243
 594	5.9004e+01	16.3712	120.322794	0.000649	6.486175	2.197576	-0.000260
 595	5.9103e+01	16.3359	120.084603	0.000598	5.979443	2.025890	-0.000239
 596	5.9203e+01	16.2926	119.818152	0.000669	6.688868	2.266250	-0.000268
 597	5.9302e+01	16.2557	119.567849	0.000628	6.283482	2.128901	-0.000252
 598	5.9401e+01	16.2156	119.281213	0.000720	7.195600	2.437935	-0.000288
 599	5.9501e+01	16.1723	119.026873	0.000638	6.384829	2.163238	-0.000256
 600	5.9600e+01	16.1322	118.764459	0.000659	6.587521	2.231913	-0.000264
 601	5.9700e+01	16.0856	118.534342	0.000578	5.776750	1.957216	-0.000231
 602	5.9800e+01	16.0520	118.284040	0.000628	6.283482	2.128901	-0.000252
 603	5.9899e+01	16.0054	117.977218	0.000770	7.702333	2.609621	-0.000308
 604	5.9998e+01	15.9782	117.739027	0.000598	5.979443	2.025890	-0.000239
 605	6.0098e+01	15.9397	117.500836	0.000598	5.979443	2.025890	-0.000239
 606	6.0197e+01	15.9044	117.222273	0.000699	6.992907	2.369261	-0.000280
 607	6.0297e+01	15.8498	116.947748	0.000689	6.891561	2.334924	-0.000276
 608	6.0397e+01	15.8145	116.733780	0.000537	5.371364	1.819867	-0.000215
 609	6.0496e+01	15.7808	116.455217	0.000699	6.992907	2.369261	-0.000280
 610	6.0596e+01	15.7247	116.204915	0.000628	6.283482	2.128901	-0.000252
 611	6.0695e+01	15.6974	115.926353	0.000699	6.992907	2.369261	-0.000280
 612	6.0794e+01	15.6477	115.659902	0.000669	6.688868	2.266250	-0.000268
 613	6.0894e+01	15.6220	115.393451	0.000669	6.688868	2.266250	-0.000268
 614	6.0993e+01	15.5755	115.167371	0.000568	5.675403	1.922879	-0.000227
 615	6.1093e+01	15.5386	114.880735	0.000720	7.195600	2.437935	-0.000288
 616	6.1193e+01	15.5033	114.662729	0.000547	5.472710	1.854204	-0.000219
 617	6.1292e+01	15.4584	114.400315	0.000659	6.587521	2.231913	-0.000264
 618	6.1392e+01	15.4151	114.093493	0.000770	7.702333	2.609621	-0.000308
 619	6.1491e+01	15.3798	113.871451	0.000557	5.574057	1.888542	-0.000223
 620	6.1590e+01	15.3413	113.596925	0.000689	6.891561	2.334924	-0.000276
 621	6.1690e+01	15.2932	113.334512	0.000659	6.587521	2.231913	-0.000264
 622	6.1789e+01	15.2514	113.088246	0.000618	6.182136	2.094564	-0.000248
 623	6.1889e+01	15.2065	112.809684	0.000699	6.992907	2.369261	-0.000280
 624	6.1989e+01	15.1760	112.559382	0.000628	6.283482	2.128901	-0.000252
 625	6.2088e+01	15.1472	112.288893	0.000679	6.790214	2.300587	-0.000272
 626	6.2188e+01	15.1006	112.026480	0.000659	6.587521	2.231913	-0.000264
 627	6.2287e+01	15.0670	111.780214	0.000618	6.182136	2.094564	-0.000248
 628	6.2386e+01	15.0156	111.513763	0.000669	6.688868	2.266250	-0.000268
 629	6.2486e+01	14.9755	111.227127	0.000720	7.195600	2.437935	-0.000288
 630	6.2586e+01	14.9482	111.001047	0.000568	5.675403	1.922879	-0.000227
 631	6.2685e+01	14.8905	110.706336	0.000740	7.398293	2.506610	-0.000296
 632	6.2785e+01	14.8488	110.439885	0.000669	6.688868	2.266250	-0.000268
 633	6.2884e+01	14.8071	110.181509	0.000649	6.486175	2.197576	-0.000260
 634	6.2983e+01	14.7718	109.927169	0.000638	6.384829	2.163238	-0.000256
 635	6.3083e+01	14.7397	109.680904	0.000618	6.182136	2.094564	-0.000248
 636	6.3182e+01	14.6932	109.426564	0.000638	6.384829	2.163238	-0.000256
 637	6.3282e+01	14.6531	109.156076	0.000679	6.790214	2.300587	-0.000272
 638	6.3382e+01	14.6162	108.897699	0.000649	6.486175	2.197576	-0.000260
 639	6.3481e+01	14.5841	108.647397	0.000628	6.283482	2.128901	-0.000252
 640	6.3581e+01	14.5424	108.372872	0.000689	6.891561	2.334924	-0.000276
 641	6.3680e+01	14.4975	108.082198	0.000730	7.296947	2.472273	-0.000292
 642	6.3779e+01	14.4590	107.852081	0.000578	5.776750	1.957216	-0.000231
 643	6.3879e+01	14.4221	107.565445	0.000720	7.195600	2.437935	-0.000288
 644	6.3978e+01	14.3739	107.303031	0.000659	6.587521	2.231913	-0.000264
 645	6.4078e+01	14.3402	107.036580	0.000669	6.688868	2.266250	-0.000268
 646	6.4177e+01	14.3114	106.802426	0.000588	5.878096	1.991553	-0.000235
 647	6.4277e+01	14.2552	106.507715	0.000740	7.398293	2.506610	-0.000296
 648	6.4376e+01	14.2183	106.261450	0.000618	6.182136	2.094564	-0.000248
 649	6.4476e+01	14.1750	106.031333	0.000578	5.776750	1.957216	-0.000231
 650	6.4576e+01	14.1333	105.716436	0.000791	7.905026	2.678295	-0.000316
 651	6.4675e+01	14.1012	105.478245	0.000598	5.979443	2.025890	-0.000239
 652	6.4775e+01	14.0579	105.159312	0.000801	8.006372	2.712632	-0.000321
 653	6.4874e+01	14.0114	104.953418	0.000517	5.168671	1.751193	-0.000207
 654	6.4974e+01	13.9841	104.658707	0.000740	7.398293	2.506610	-0.000296
 655	6.5073e+01	13.9472	104.380145	0.000699	6.992907	2.369261	-0.000280
 656	6.5172e+01	13.9023	104.101582	0.000699	6.992907	2.369261	-0.000280
 657	6.5272e+01	13.8638	103.899725	0.000507	5.067324	1.716856	-0.000203
 658	6.5371e+01	13.8157	103.637312	0.000659	6.587521	2.231913	-0.000264
 659	6.5471e+01	13.7772	103.350675	0.000720	7.195600	2.437935	-0.000288
 660	6.5570e+01	13.7386	103.060001	0.000730	7.296947	2.472273	-0.000292
 661	6.5670e+01	13.7001	102.809699	0.000628	6.283482	2.128901	-0.000252
 662	6.5769e+01	13.6584	102.547285	0.000659	6.587521	2.231913	-0.000264
 663	6.5869e+01	13.6215	102.272760	0.000689	6.891561	2.334924	-0.000276
 664	6.5969e+01	13.5814	101.994197	0.000699	6.992907	2.369261	-0.000280
 665	6.6068e+01	13.5413	101.760043	0.000588	5.878096	1.991553	-0.000235
 666	6.6168e+01	13.5108	101.449184	0.000780	7.803679	2.643958	-0.000312
 667	6.6267e+01	13.4483	101.198882	0.000628	6.283482	2.128901	-0.000252
 668	6.6367e+01	13.4274	100.928393	0.000679	6.790214	2.300587	-0.000272
 669	6.6466e+01	13.3777	100.682128	0.000618	6.182136	2.094564	-0.000248
 670	6.6566e+01	13.3472	100.403566	0.000699	6.992907	2.369261	-0.000280
 671	6.6665e+01	13.3039	100.100781	0.000760	7.600986	2.575284	-0.000304
 672	6.6764e+01	13.2734	99.870664	0.000578	5.776750	1.957216	-0.000231
 673	6.6864e+01	13.2141	99.620361	0.000628	6.283482	2.128901	-0.000252
 674	6.6963e+01	13.1724	99.329688	0.000730	7.296947	2.472273	-0.000292
 675	6.7063e+01	13.1387	99.059200	0.000679	6.790214	2.300587	-0.000272
 676	6.7162e+01	13.1034	98.796786	0.000659	6.587521	2.231913	-0.000264
 677	6.7262e+01	13.0601	98.554558	0.000608	6.080789	2.060227	-0.000243
 678	6.7362e+01	13.0264	98.247735	0.000770	7.702333	2.609621	-0.000308
 679	6.7461e+01	12.9879	97.997433	0.000628	6.283482	2.128901	-0.000252
 680	6.7561e+01	12.9285	97.722908	0.000689	6.891561	2.334924	-0.000276
 681	6.7660e+01	12.9109	97.464531	0.000649	6.486175	2.197576	-0.000260
 682	6.7760e+01	12.8692	97.214229	0.000628	6.283482	2.128901	-0.000252
 683	6.7859e+01	12.8242	96.951815	0.000659	6.587521	2.231913	-0.000264
 684	6.7959e+01	12.8050	96.644992	0.000770	7.702333	2.609621	-0.000308
 685	6.8058e+01	12.7633	96.390653	0.000638	6.384829	2.163238	-0.000256
 686	6.8157e+01	12.7103	96.120165	0.000679	6.790214	2.300587	-0.000272
 687	6.8257e+01	12.6622	95.869862	0.000628	6.283482	2.128901	-0.000252
 688	6.8356e+01	12.6301	95.591300	0.000699	6.992907	2.369261	-0.000280
 689	6.8456e+01	12.5932	95.308701	0.000709	7.094254	2.403598	-0.000284
 690	6.8555e+01	12.5451	95.046287	0.000659	6.587521	2.231913	-0.000264
 691	6.8655e+01	12.5066	94.763687	0.000709	7.094254	2.403598	-0.000284
 692	6.8754e+01	12.4745	94.493199	0.000679	6.790214	2.300587	-0.000272
 693	6.8854e+01	12.4248	94.214637	0.000699	6.992907	2.369261	-0.000280
 694	6.8954e+01	12.4007	93.984520	0.000578	5.776750	1.957216	-0.000231
 695	6.9053e+01	12.3574	93.669623	0.000791	7.905026	2.678295	-0.000316
 696	6.9153e+01	12.3141	93.374912	0.000740	7.398293	2.506610	-0.000296
 697	6.9252e+01	12.2644	93.132684	0.000608	6.080789	2.060227	-0.000243
 698	6.9352e+01	12.2178	92.821825	0.000780	7.803679	2.643958	-0.000312
 699	6.9451e+01	12.1874	92.547300	0.000689	6.891561	2.334924	-0.000276
 700	6.9550e+01	12.1537	92.325257	0.000557	5.574057	1.888542	-0.000223
 701	6.9650e+01	12.1087	92.010361	0.000791	7.905026	2.678295	-0.000316
 702	6.9749e+01	12.0767	91.772170	0.000598	5.979443	2.025890	-0.000239
 703	6.9849e+01	12.0269	91.473422	0.000750	7.499640	2.540947	-0.000300
 704	6.9948e+01	11.9884	91.219082	0.000638	6.384829	2.163238	-0.000256
 705	7.0048e+01	11.9515	90.920334	0.000750	7.499640	2.540947	-0.000300
 706	7.0147e+01	11.9114	90.621586	0.000750	7.499640	2.540947	-0.000300
 707	7.0247e+01	11.8809	90.367246	0.000638	6.384829	2.163238	-0.000256
 708	7.0347e+01	11.8264	90.060424	0.000770	7.702333	2.609621	-0.000308
 709	7.0446e+01	11.7911	89.854530	0.000517	5.168671	1.751193	-0.000207
 710	7.0546e+01	11.7398	89.531559	0.000811	8.107719	2.746969	-0.000325
 711	7.0645e+01	11.7061	89.273183	0.000649	6.486175	2.197576	-0.000260
 712	7.0745e+01	11.6692	88.978472	0.000740	7.398293	2.506610	-0.000296
 713	7.0844e+01	11.6323	88.712021	0.000669	6.688868	2.266250	-0.000268
 714	7.0944e+01	11.5890	88.437495	0.000689	6.891561	2.334924	-0.000276
 715	7.1043e+01	11.5505	88.114525	0.000811	8.107719	2.746969	-0.000325
 716	7.1142e+01	11.5152	87.864222	0.000628	6.283482	2.128901	-0.000252
 717	7.1242e+01	11.4687	87.597771	0.000669	6.688868	2.266250	-0.000268
 718	7.1341e+01	11.4270	87.294986	0.000760	7.600986	2.575284	-0.000304
 719	7.1441e+01	11.3884	86.980089	0.000791	7.905026	2.678295	-0.000316
 720	7.1540e+01	11.3499	86.713639	0.000669	6.688868	2.266250	-0.000268
 721	7.1640e+01	11.3227	86.467373	0.000618	6.182136	2.094564	-0.000248
 722	7.1740e+01	11.2745	86.184774	0.000709	7.094254	2.403598	-0.000284
 723	7.1839e+01	11.2312	85.898137	0.000720	7.195600	2.437935	-0.000288
 724	7.1939e+01	11.1975	85.607463	0.000730	7.296947	2.472273	-0.000292
 725	7.2038e+01	11.1542	85.341012	0.000669	6.688868	2.266250	-0.000268
 726	7.2138e+01	11.1061	85.034190	0.000770	7.702333	2.609621	-0.000308
 727	7.2237e+01	11.0772	84.751591	0.000709	7.094254	2.403598	-0.000284
 728	7.2337e+01	11.0339	84.501288	0.000628	6.283482	2.128901	-0.000252
 729	7.2436e+01	10.9938	84.190429	0.000780	7.803679	2.643958	-0.000312
 730	7.2535e+01	10.9537	83.883606	0.000770	7.702333	2.609621	-0.000308
 731	7.2635e+01	10.9216	83.641378	0.000608	6.080789	2.060227	-0.000243
 732	7.2734e+01	10.8735	83.322444	0.000801	8.006372	2.712632	-0.000321
 733	7.2834e+01	10.8302	83.039845	0.000709	7.094254	2.403598	-0.000284
 734	7.2933e+01	10.7933	82.769357	0.000679	6.790214	2.300587	-0.000272
 735	7.3033e+01	10.7516	82.482720	0.000720	7.195600	2.437935	-0.000288
 736	7.3132e+01	10.7131	82.200121	0.000709	7.094254	2.403598	-0.000284
 737	7.3232e+01	10.6698	81.917521	0.000709	7.094254	2.403598	-0.000284
 738	7.3332e+01	10.6361	81.618773	0.000750	7.499640	2.540947	-0.000300
 739	7.3431e+01	10.5944	81.344248	0.000689	6.891561	2.334924	-0.000276
 740	7.3531e+01	10.5623	81.085871	0.000649	6.486175	2.197576	-0.000260
 741	7.3630e+01	10.5141	80.742715	0.000861	8.614451	2.918655	-0.000345
 742	7.3730e+01	10.4788	80.472227	0.000679	6.790214	2.300587	-0.000272
 743	7.3829e+01	10.4355	80.181553	0.000730	7.296947	2.472273	-0.000292
 744	7.3928e+01	10.3922	79.886842	0.000740	7.398293	2.506610	-0.000296
 745	7.4028e+01	10.3601	79.596168	0.000730	7.296947	2.472273	-0.000292
 746	7.4127e+01	10.3200	79.325680	0.000679	6.790214	2.300587	-0.000272
 747	7.4227e+01	10.2687	79.071341	0.000638	6.384829	2.163238	-0.000256
 748	7.4326e+01	10.2366	78.744333	0.000821	8.209065	2.781307	-0.000329
 749	7.4426e+01	10.1965	78.457696	0.000720	7.195600	2.437935	-0.000288
 750	7.4525e+01	10.1468	78.183171	0.000689	6.891561	2.334924	-0.000276
 751	7.4625e+01	10.1163	77.884423	0.000750	7.499640	2.540947	-0.000300
 752	7.4725e+01	10.0858	77.569526	0.000791	7.905026	2.678295	-0.000316
 753	7.4824e+01	10.0393	77.307112	0.000659	6.587521	2.231913	-0.000264
 754	7.4924e+01	9.9976	77.004327	0.000760	7.600986	2.575284	-0.000304
 755	7.5023e+01	9.9639	76.713653	0.000730	7.296947	2.472273	-0.000292
 756	7.5123e+01	9.9270	76.406831	0.000770	7.702333	2.609621	-0.000308
 757	7.5222e+01	9.8708	76.100009	0.000770	7.702333	2.609621	-0.000308
 758	7.5322e+01	9.8388	75.833558	0.000669	6.688868	2.266250	-0.000268
 759	7.5421e+01	9.8051	75.579218	0.000638	6.384829	2.163238	-0.000256
 760	7.5520e+01	9.7602	75.264322	0.000791	7.905026	2.678295	-0.000316
 761	7.5620e+01	9.7200	74.953462	0.000780	7.803679	2.643958	-0.000312
 762	7.5719e+01	9.6751	74.662788	0.000730	7.296947	2.472273	-0.000292
 763	7.5819e+01	9.6398	74.404412	0.000649	6.486175	2.197576	-0.000260
 764	7.5918e+01	9.6045	74.081441	0.000811	8.107719	2.746969	-0.000325
 765	7.6018e+01	9.5580	73.802878	0.000699	6.992907	2.369261	-0.000280
 766	7.6118e+01	9.5179	73.471833	0.000831	8.310412	2.815644	-0.000333
 767	7.6217e+01	9.4730	73.237679	0.000588	5.878096	1.991553	-0.000235
 768	7.6317e+01	9.4441	72.914709	0.000811	8.107719	2.746969	-0.000325
 769	7.6416e+01	9.3992	72.644220	0.000679	6.790214	2.300587	-0.000272
 770	7.6516e+01	9.3639	72.325287	0.000801	8.006372	2.712632	-0.000321
 771	7.6615e+01	9.3094	72.054799	0.000679	6.790214	2.300587	-0.000272
 772	7.6715e+01	9.2789	71.760088	0.000740	7.398293	2.506610	-0.000296
 773	7.6814e+01	9.2340	71.481525	0.000699	6.992907	2.369261	-0.000280
 774	7.6913e+01	9.1987	71.130295	0.000882	8.817144	2.987329	-0.000353
 775	7.7013e+01	9.1602	70.859806	0.000679	6.790214	2.300587	-0.000272
 776	7.7112e+01	9.1217	70.557021	0.000760	7.600986	2.575284	-0.000304
 777	7.7212e+01	9.0816	70.282496	0.000689	6.891561	2.334924	-0.000276
 778	7.7311e+01	9.0447	69.931265	0.000882	8.817144	2.987329	-0.000353
 779	7.7411e+01	9.0030	69.680963	0.000628	6.283482	2.128901	-0.000252
 780	7.7510e+01	8.9693	69.402400	0.000699	6.992907	2.369261	-0.000280
 781	7.7610e+01	8.9260	69.091541	0.000780	7.803679	2.643958	-0.000312
 782	7.7710e+01	8.8858	68.804904	0.000720	7.195600	2.437935	-0.000288
 783	7.7809e+01	8.8425	68.490008	0.000791	7.905026	2.678295	-0.000316
 784	7.7909e+01	8.8088	68.207408	0.000709	7.094254	2.403598	-0.000284
 785	7.8008e+01	8.7623	67.908660	0.000750	7.499640	2.540947	-0.000300
 786	7.8108e+01	8.7174	67.589727	0.000801	8.006372	2.712632	-0.000321
 787	7.8207e+01	8.6757	67.335387	0.000638	6.384829	2.163238	-0.000256
 788	7.8306e+01	8.6404	67.048750	0.000720	7.195600	2.437935	-0.000288
 789	7.8406e+01	8.6083	66.689445	0.000902	9.019837	3.056004	-0.000361
 790	7.8505e+01	8.5650	66.463366	0.000568	5.675403	1.922879	-0.000227
 791	7.8605e+01	8.5217	66.124246	0.000851	8.513105	2.884318	-0.000341
 792	7.8704e+01	8.4896	65.829535	0.000740	7.398293	2.506610	-0.000296
 793	7.8804e+01	8.4383	65.526750	0.000760	7.600986	2.575284	-0.000304
 794	7.8903e+01	8.4126	65.211854	0.000791	7.905026	2.678295	-0.000316
 795	7.9003e+01	8.3645	64.985774	0.000568	5.675403	1.922879	-0.000227
 796	7.9103e+01	8.3228	64.642617	0.000861	8.614451	2.918655	-0.000345
 797	7.9202e+01	8.2875	64.311572	0.000831	8.310412	2.815644	-0.000333
 798	7.9302e+01	8.2361	64.020899	0.000730	7.296947	2.472273	-0.000292
 799	7.9401e+01	8.2024	63.750410	0.000679	6.790214	2.300587	-0.000272
 800	7.9501e+01	8.1591	63.455700	0.000740	7.398293	2.506610	-0.000296
 801	7.9600e+01	8.1303	63.160989	0.000740	7.398293	2.506610	-0.000296
 802	7.9700e+01	8.0837	62.854166	0.000770	7.702333	2.609621	-0.000308
 803	7.9799e+01	8.0516	62.571567	0.000709	7.094254	2.403598	-0.000284
 804	7.9898e+01	8.0035	62.260707	0.000780	7.803679	2.643958	-0.000312
 805	7.9998e+01	7.9698	61.982145	0.000699	6.992907	2.369261	-0.000280
 806	8.0097e+01	7.9265	61.647063	0.000841	8.411758	2.849981	-0.000337
 807	8.0197e+01	7.8832	61.388686	0.000649	6.486175	2.197576	-0.000260
 808	8.0296e+01	7.8495	61.089938	0.000750	7.499640	2.540947	-0.000300
 809	8.0396e+01	7.8030	60.799264	0.000730	7.296947	2.472273	-0.000292
 810	8.0496e+01	7.7677	60.468219	0.000831	8.310412	2.815644	-0.000333
 811	8.0595e+01	7.7292	60.181582	0.000720	7.195600	2.437935	-0.000288
 812	8.0695e+01	7.6827	59.911094	0.000679	6.790214	2.300587	-0.000272
 813	8.0794e+01	7.6474	59.612346	0.000750	7.499640	2.540947	-0.000300
 814	8.0894e+01	7.6041	59.273227	0.000851	8.513105	2.884318	-0.000341
 815	8.0993e+01	7.5752	59.002739	0.000679	6.790214	2.300587	-0.000272
 816	8.1093e+01	7.5287	58.708028	0.000740	7.398293	2.506610	-0.000296
 817	8.1192e+01	7.4870	58.397168	0.000780	7.803679	2.643958	-0.000312
 818	8.1291e+01	7.4468	58.110532	0.000720	7.195600	2.437935	-0.000288
 819	8.1391e+01	7.4148	57.815821	0.000740	7.398293	2.506610	-0.000296
 820	8.1490e+01	7.3650	57.464590	0.000882	8.817144	2.987329	-0.000353
 821	8.1590e+01	7.3281	57.222362	0.000608	6.080789	2.060227	-0.000243
 822	8.1689e+01	7.2896	56.875168	0.000872	8.715798	2.952992	-0.000349
 823	8.1789e+01	7.2495	56.632940	0.000608	6.080789	2.060227	-0.000243
 824	8.1888e+01	7.2030	56.293821	0.000851	8.513105	2.884318	-0.000341
 825	8.1988e+01	7.1613	55.974887	0.000801	8.006372	2.712632	-0.000321
 826	8.2088e+01	7.1260	55.720547	0.000638	6.384829	2.163238	-0.000256
 827	8.2187e+01	7.0891	55.389502	0.000831	8.310412	2.815644	-0.000333
 828	8.2287e+01	7.0458	55.082680	0.000770	7.702333	2.609621	-0.000308
 829	8.2386e+01	7.0057	54.812192	0.000679	6.790214	2.300587	-0.000272
 830	8.2486e+01	6.9736	54.477110	0.000841	8.411758	2.849981	-0.000337
 831	8.2585e+01	6.9191	54.170287	0.000770	7.702333	2.609621	-0.000308
 832	8.2684e+01	6.8934	53.863465	0.000770	7.702333	2.609621	-0.000308
 833	8.2784e+01	6.8501	53.564717	0.000750	7.499640	2.540947	-0.000300
 834	8.2883e+01	6.8148	53.322489	0.000608	6.080789	2.060227	-0.000243
 835	8.2983e+01	6.7667	52.971258	0.000882	8.817144	2.987329	-0.000353
 836	8.3082e+01	6.7265	52.700770	0.000679	6.790214	2.300587	-0.000272
 837	8.3182e+01	6.6880	52.361651	0.000851	8.513105	2.884318	-0.000341
 838	8.3281e+01	6.6431	52.091162	0.000679	6.790214	2.300587	-0.000272
 839	8.3381e+01	6.6030	51.768192	0.000811	8.107719	2.746969	-0.000325
 840	8.3481e+01	6.5741	51.469444	0.000750	7.499640	2.540947	-0.000300
 841	8.3580e+01	6.5340	51.142436	0.000821	8.209065	2.781307	-0.000329
 842	8.3680e+01	6.4891	50.884059	0.000649	6.486175	2.197576	-0.000260
 843	8.3779e+01	6.4602	50.553014	0.000831	8.310412	2.815644	-0.000333
 844	8.3879e+01	6.4201	50.262340	0.000730	7.296947	2.472273	-0.000292
 845	8.3978e+01	6.3688	49.991852	0.000679	6.790214	2.300587	-0.000272
 846	8.4078e+01	6.3303	49.664844	0.000821	8.209065	2.781307	-0.000329
 847	8.4177e+01	6.2902	49.337836	0.000821	8.209065	2.781307	-0.000329
 848	8.4276e+01	6.2517	49.083496	0.000638	6.384829	2.163238	-0.000256
 849	8.4376e+01	6.2148	48.796860	0.000720	7.195600	2.437935	-0.000288
 850	8.4475e+01	6.1811	48.461777	0.000841	8.411758	2.849981	-0.000337
 851	8.4575e+01	6.1410	48.150918	0.000780	7.803679	2.643958	-0.000312
 852	8.4674e+01	6.0865	47.912727	0.000598	5.979443	2.025890	-0.000239
 853	8.4774e+01	6.0544	47.541310	0.000932	9.323877	3.159015	-0.000373
 854	8.4874e+01	6.0062	47.258711	0.000709	7.094254	2.403598	-0.000284
 855	8.4973e+01	5.9677	46.931703	0.000821	8.209065	2.781307	-0.000329
 856	8.5073e+01	5.9325	46.677363	0.000638	6.384829	2.163238	-0.000256
 857	8.5172e+01	5.8891	46.322095	0.000892	8.918491	3.021666	-0.000357
 858	8.5272e+01	5.8587	46.059682	0.000659	6.587521	2.231913	-0.000264
 859	8.5371e+01	5.8202	45.700377	0.000902	9.019837	3.056004	-0.000361
 860	8.5471e+01	5.7752	45.397591	0.000760	7.600986	2.575284	-0.000304
 861	8.5570e+01	5.7335	45.094806	0.000760	7.600986	2.575284	-0.000304
 862	8.5669e+01	5.6966	44.800095	0.000740	7.398293	2.506610	-0.000296
 863	8.5769e+01	5.6597	44.493273	0.000770	7.702333	2.609621	-0.000308
 864	8.5868e+01	5.6148	44.166265	0.000821	8.209065	2.781307	-0.000329
 865	8.5968e+01	5.5795	43.907888	0.000649	6.486175	2.197576	-0.000260
 866	8.6067e+01	5.5458	43.601066	0.000770	7.702333	2.609621	-0.000308
 867	8.6167e+01	5.4977	43.302318	0.000750	7.499640	2.540947	-0.000300
 868	8.6266e+01	5.4512	42.963199	0.000851	8.513105	2.884318	-0.000341
 869	8.6366e+01	5.4111	42.680599	0.000709	7.094254	2.403598	-0.000284
 870	8.6466e+01	5.3742	42.369740	0.000780	7.803679	2.643958	-0.000312
 871	8.6565e+01	5.3405	42.058880	0.000780	7.803679	2.643958	-0.000312
 872	8.6665e+01	5.2972	41.752058	0.000770	7.702333	2.609621	-0.000308
 873	8.6764e+01	5.2667	41.408901	0.000861	8.614451	2.918655	-0.000345
 874	8.6864e+01	5.2138	41.110153	0.000750	7.499640	2.540947	-0.000300
 875	8.6963e+01	5.1785	40.795257	0.000791	7.905026	2.678295	-0.000316
 876	8.7063e+01	5.1351	40.488434	0.000770	7.702333	2.609621	-0.000308
 877	8.7162e+01	5.1031	40.169501	0.000801	8.006372	2.712632	-0.000321
 878	8.7261e+01	5.0598	39.919198	0.000628	6.283482	2.128901	-0.000252
 879	8.7361e+01	5.0261	39.567967	0.000882	8.817144	2.987329	-0.000353
 880	8.7460e+01	4.9811	39.281331	0.000720	7.195600	2.437935	-0.000288
 881	8.7560e+01	4.9410	38.954323	0.000821	8.209065	2.781307	-0.000329
 882	8.7659e+01	4.8897	38.623278	0.000831	8.310412	2.815644	-0.000333
 883	8.7759e+01	4.8640	38.292232	0.000831	8.310412	2.815644	-0.000333
 884	8.7859e+01	4.8223	38.009633	0.000709	7.094254	2.403598	-0.000284
 885	8.7958e+01	4.7678	37.674551	0.000841	8.411758	2.849981	-0.000337
 886	8.8058e+01	4.7421	37.379840	0.000740	7.398293	2.506610	-0.000296
 887	8.8157e+01	4.7004	37.032646	0.000872	8.715798	2.952992	-0.000349
 888	8.8257e+01	4.6459	36.754084	0.000699	6.992907	2.369261	-0.000280
 889	8.8356e+01	4.6218	36.435150	0.000801	8.006372	2.712632	-0.000321
 890	8.8456e+01	4.5865	36.140439	0.000740	7.398293	2.506610	-0.000296
 891	8.8555e+01	4.5448	35.829580	0.000780	7.803679	2.643958	-0.000312
 892	8.8654e+01	4.5047	35.542943	0.000720	7.195600	2.437935	-0.000288
 893	8.8754e+01	4.4598	35.191712	0.000882	8.817144	2.987329	-0.000353
 894	8.8853e+01	4.4197	34.888927	0.000760	7.600986	2.575284	-0.000304
 895	8.8953e+01	4.3844	34.561919	0.000821	8.209065	2.781307	-0.000329
 896	8.9052e+01	4.3443	34.234911	0.000821	8.209065	2.781307	-0.000329
 897	8.9152e+01	4.2961	33.944237	0.000730	7.296947	2.472273	-0.000292
 898	8.9251e+01	4.2608	33.629341	0.000791	7.905026	2.678295	-0.000316
 899	8.9351e+01	4.2223	33.265998	0.000912	9.121184	3.090341	-0.000365
 900	8.9451e+01	4.1758	32.967250	0.000750	7.499640	2.540947	-0.000300
 901	8.9550e+01	4.1325	32.729059	0.000598	5.979443	2.025890	-0.000239
 902	8.9650e+01	4.0972	32.373791	0.000892	8.918491	3.021666	-0.000357
 903	8.9749e+01	4.0571	32.022561	0.000882	8.817144	2.987329	-0.000353
 904	8.9849e+01	4.0154	31.739961	0.000709	7.094254	2.403598	-0.000284
 905	8.9948e+01	3.9753	31.412953	0.000821	8.209065	2.781307	-0.000329
 906	9.0047e+01	3.9368	31.077871	0.000841	8.411758	2.849981	-0.000337
 907	9.0147e+01	3.9015	30.746826	0.000831	8.310412	2.815644	-0.000333
 908	9.0246e+01	3.8678	30.448078	0.000750	7.499640	2.540947	-0.000300
 909	9.0346e+01	3.8133	30.137218	0.000780	7.803679	2.643958	-0.000312
 910	9.0445e+01	3.7828	29.806173	0.000831	8.310412	2.815644	-0.000333
 911	9.0545e+01	3.7507	29.527611	0.000699	6.992907	2.369261	-0.000280
 912	9.0644e+01	3.6962	29.164269	0.000912	9.121184	3.090341	-0.000365
 913	9.0744e+01	3.6657	28.873595	0.000730	7.296947	2.472273	-0.000292
 914	9.0844e+01	3.6224	28.558698	0.000791	7.905026	2.678295	-0.000316
 915	9.0943e+01	3.5823	28.272062	0.000720	7.195600	2.437935	-0.000288
 916	9.1043e+01	3.5341	27.872385	0.001003	10.033302	3.399375	-0.000402
 917	9.1142e+01	3.5004	27.573637	0.000750	7.499640	2.540947	-0.000300
 918	9.1242e+01	3.4667	27.287000	0.000720	7.195600	2.437935	-0.000288
 919	9.1341e+01	3.4186	26.947881	0.000851	8.513105	2.884318	-0.000341
 920	9.1441e+01	3.3881	26.628947	0.000801	8.006372	2.712632	-0.000321
 921	9.1540e+01	3.3384	26.318088	0.000780	7.803679	2.643958	-0.000312
 922	9.1639e+01	3.3079	26.003191	0.000791	7.905026	2.678295	-0.000316
 923	9.1739e+01	3.2630	25.647923	0.000892	8.918491	3.021666	-0.000357
 924	9.1838e+01	3.2261	25.389547	0.000649	6.486175	2.197576	-0.000260
 925	9.1938e+01	3.1684	25.046390	0.000861	8.614451	2.918655	-0.000345
 926	9.2037e+01	3.1427	24.739568	0.000770	7.702333	2.609621	-0.000308
 927	9.2137e+01	3.1106	24.396411	0.000861	8.614451	2.918655	-0.000345
 928	9.2237e+01	3.0705	24.073440	0.000811	8.107719	2.746969	-0.000325
 929	9.2336e+01	3.0320	23.754507	0.000801	8.006372	2.712632	-0.000321
 930	9.2436e+01	2.9775	23.463833	0.000730	7.296947	2.472273	-0.000292
 931	9.2535e+01	2.9486	23.092416	0.000932	9.323877	3.159015	-0.000373
 932	9.2635e+01	2.9085	22.745223	0.000872	8.715798	2.952992	-0.000349
 933	9.2734e+01	2.8620	22.438400	0.000770	7.702333	2.609621	-0.000308
 934	9.2834e+01	2.8186	22.143690	0.000740	7.398293	2.506610	-0.000296
 935	9.2933e+01	2.7882	21.824756	0.000801	8.006372	2.712632	-0.000321
 936	9.3032e+01	2.7448	21.481599	0.000861	8.614451	2.918655	-0.000345
 937	9.3132e+01	2.7112	21.182851	0.000750	7.499640	2.540947	-0.000300
 938	9.3231e+01	2.6646	20.847769	0.000841	8.411758	2.849981	-0.000337
 939	9.3331e+01	2.6261	20.569207	0.000699	6.992907	2.369261	-0.000280
 940	9.3430e+01	2.5860	20.226050	0.000861	8.614451	2.918655	-0.000345
 941	9.3530e+01	2.5395	19.935376	0.000730	7.296947	2.472273	-0.000292
 942	9.3629e+01	2.5090	19.596257	0.000851	8.513105	2.884318	-0.000341
 943	9.3729e+01	2.4657	19.236952	0.000902	9.019837	3.056004	-0.000361
 944	9.3829e+01	2.4240	18.909944	0.000821	8.209065	2.781307	-0.000329
 945	9.3928e+01	2.3935	18.607159	0.000760	7.600986	2.575284	-0.000304
 946	9.4028e+01	2.3518	18.300336	0.000770	7.702333	2.609621	-0.000308
 947	9.4127e+01	2.3085	17.945068	0.000892	8.918491	3.021666	-0.000357
 948	9.4227e+01	2.2732	17.593838	0.000882	8.817144	2.987329	-0.000353
 949	9.4326e+01	2.2267	17.335461	0.000649	6.486175	2.197576	-0.000260
 950	9.4425e+01	2.1866	16.992304	0.000861	8.614451	2.918655	-0.000345
 951	9.4525e+01	2.1449	16.685482	0.000770	7.702333	2.609621	-0.000308
 952	9.4624e+01	2.1080	16.301954	0.000963	9.627916	3.262026	-0.000385
 953	9.4724e+01	2.0791	16.059726	0.000608	6.080789	2.060227	-0.000243
 954	9.4823e+01	2.0229	15.712532	0.000872	8.715798	2.952992	-0.000349
 955	9.4923e+01	1.9860	15.373413	0.000851	8.513105	2.884318	-0.000341
 956	9.5022e+01	1.9491	15.050442	0.000811	8.107719	2.746969	-0.000325
 957	9.5122e+01	1.9122	14.747657	0.000760	7.600986	2.575284	-0.000304
 958	9.5222e+01	1.8721	14.396426	0.000882	8.817144	2.987329	-0.000353
 959	9.5321e+01	1.8272	14.109789	0.000720	7.195600	2.437935	-0.000288
 960	9.5421e+01	1.7839	13.738373	0.000932	9.323877	3.159015	-0.000373
 961	9.5520e+01	1.7422	13.451736	0.000720	7.195600	2.437935	-0.000288
 962	9.5620e+01	1.7069	13.112617	0.000851	8.513105	2.884318	-0.000341
 963	9.5719e+01	1.6700	12.809832	0.000760	7.600986	2.575284	-0.000304
 964	9.5819e+01	1.6219	12.470712	0.000851	8.513105	2.884318	-0.000341
 965	9.5918e+01	1.5834	12.159853	0.000780	7.803679	2.643958	-0.000312
 966	9.6017e+01	1.5465	11.836882	0.000811	8.107719	2.746969	-0.000325
 967	9.6117e+01	1.5112	11.530060	0.000770	7.702333	2.609621	-0.000308
 968	9.6216e+01	1.4647	11.211126	0.000801	8.006372	2.712632	-0.000321
 969	9.6316e+01	1.4374	10.839709	0.000932	9.323877	3.159015	-0.000373
 970	9.6415e+01	1.3893	10.549036	0.000730	7.296947	2.472273	-0.000292
 971	9.6515e+01	1.3427	10.213953	0.000841	8.411758	2.849981	-0.000337
 972	9.6615e+01	1.3074	9.947502	0.000669	6.688868	2.266250	-0.000268
 973	9.6714e+01	1.2706	9.600309	0.000872	8.715798	2.952992	-0.000349
 974	9.6814e+01	1.2369	9.273301	0.000821	8.209065	2.781307	-0.000329
 975	9.6913e+01	1.1807	8.966478	0.000770	7.702333	2.609621	-0.000308
 976	9.7013e+01	1.1550	8.635433	0.000831	8.310412	2.815644	-0.000333
 977	9.7112e+01	1.1133	8.243831	0.000983	9.830609	3.330700	-0.000394
 978	9.7212e+01	1.0796	7.993529	0.000628	6.283482	2.128901	-0.000252
 979	9.7311e+01	1.0299	7.706892	0.000720	7.195600	2.437935	-0.000288
 980	9.7410e+01	0.9882	7.367773	0.000851	8.513105	2.884318	-0.000341
 981	9.7510e+01	0.9529	6.996356	0.000932	9.323877	3.159015	-0.000373
 982	9.7609e+01	0.9176	6.701645	0.000740	7.398293	2.506610	-0.000296
 983	9.7709e+01	0.8727	6.358489	0.000861	8.614451	2.918655	-0.000345
 984	9.7808e+01	0.8326	6.055704	0.000760	7.600986	2.575284	-0.000304
 985	9.7908e+01	0.8021	5.744844	0.000780	7.803679	2.643958	-0.000312
 986	9.8007e+01	0.7652	5.401688	0.000861	8.614451	2.918655	-0.000345
 987	9.8107e+01	0.7139	5.070642	0.000831	8.310412	2.815644	-0.000333
 988	9.8207e+01	0.6770	4.812266	0.000649	6.486175	2.197576	-0.000260
 989	9.8306e+01	0.6273	4.452961	0.000902	9.019837	3.056004	-0.000361
 990	9.8406e+01	0.5920	4.134027	0.000801	8.006372	2.712632	-0.000321
 991	9.8505e+01	0.5486	3.823168	0.000780	7.803679	2.643958	-0.000312
 992	9.8605e+01	0.5198	3.508271	0.000791	7.905026	2.678295	-0.000316
 993	9.8704e+01	0.4716	3.161077	0.000872	8.715798	2.952992	-0.000349
 994	9.8803e+01	0.4315	2.854255	0.000770	7.702333	2.609621	-0.000308
 995	9.8903e+01	0.3946	2.503024	0.000882	8.817144	2.987329	-0.000353
 996	9.9002e+01	0.3497	2.192165	0.000780	7.803679	2.643958	-0.000312
 997	9.9102e+01	0.3144	1.861120	0.000831	8.310412	2.815644	-0.000333
 998	9.9201e+01	0.2727	1.542186	0.000801	8.006372	2.712632	-0.000321
 999	9.9301e+01	0.2326	1.215178	0.000821	8.209065	2.781307	-0.000329
1000	9.9400e+01	0.1861	0.932578	0.000709	7.094254	2.403598	-0.000284
1001	9.9500e+01	0.1556	0.613645	0.000801	8.006372	2.712632	-0.000321
1002	9.9600e+01	0.1171	0.270488	0.000861	8.614451	2.918655	-0.000345
1003	9.9699e+01	0.0770	-0.016149	0.000720	7.195600	2.437935	-0.000288
1004	9.9799e+01	0.0305	-0.395639	0.000953	9.526570	3.227689	-0.000381
1005	9.9898e+01	0.0064	-0.613645	0.000547	5.472710	1.854204	-0.000219
1006	9.9998e+01	-0.0305	-0.892207	0.000699	6.992907	2.369261	-0.000280
1007	1.0010e+02	-0.0786	-1.271698	0.000953	9.526570	3.227689	-0.000381
1008	1.0020e+02	-0.1123	-1.598706	0.000821	8.209065	2.781307	-0.000329
1009	1.0030e+02	-0.1588	-1.901491	0.000760	7.600986	2.575284	-0.000304
1010	1.0040e+02	-0.1909	-2.240610	0.000851	8.513105	2.884318	-0.000341
1011	1.0050e+02	-0.2374	-2.559544	0.000801	8.006372	2.712632	-0.000321
1012	1.0059e+02	-0.2807	-2.854255	0.000740	7.398293	2.506610	-0.000296
1013	1.0069e+02	-0.3225	-3.221634	0.000922	9.222530	3.124678	-0.000369
1014	1.0079e+02	-0.3545	-3.500197	0.000699	6.992907	2.369261	-0.000280
1015	1.0089e+02	-0.3946	-3.807019	0.000770	7.702333	2.609621	-0.000308
1016	1.0099e+02	-0.4380	-4.166324	0.000902	9.019837	3.056004	-0.000361
1017	1.0109e+02	-0.4845	-4.489295	0.000811	8.107719	2.746969	-0.000325
1018	1.0119e+02	-0.5085	-4.816303	0.000821	8.209065	2.781307	-0.000329
1019	1.0129e+02	-0.5486	-5.106977	0.000730	7.296947	2.472273	-0.000292
1020	1.0139e+02	-0.5952	-5.450133	0.000861	8.614451	2.918655	-0.000345
1021	1.0149e+02	-0.6305	-5.756956	0.000770	7.702333	2.609621	-0.000308
1022	1.0159e+02	-0.6722	-6.047629	0.000730	7.296947	2.472273	-0.000292
1023	1.0169e+02	-0.7091	-6.386749	0.000851	8.513105	2.884318	-0.000341
1024	1.0179e+02	-0.7524	-6.729905	0.000861	8.614451	2.918655	-0.000345
1025	1.0189e+02	-0.7893	-6.996356	0.000669	6.688868	2.266250	-0.000268
1026	1.0199e+02	-0.8342	-7.379884	0.000963	9.627916	3.262026	-0.000385
1027	1.0209e+02	-0.8695	-7.650372	0.000679	6.790214	2.300587	-0.000272
1028	1.0219e+02	-0.9128	-7.957195	0.000770	7.702333	2.609621	-0.000308
1029	1.0229e+02	-0.9593	-8.340722	0.000963	9.627916	3.262026	-0.000385
1030	1.0239e+02	-0.9946	-8.651582	0.000780	7.803679	2.643958	-0.000312
1031	1.0248e+02	-1.0411	-8.970516	0.000801	8.006372	2.712632	-0.000321
1032	1.0258e+02	-1.0700	-9.277338	0.000770	7.702333	2.609621	-0.000308
1033	1.0268e+02	-1.1069	-9.640680	0.000912	9.121184	3.090341	-0.000365
1034	1.0278e+02	-1.1534	-9.943465	0.000760	7.600986	2.575284	-0.000304
1035	1.0288e+02	-1.1935	-10.278548	0.000841	8.411758	2.849981	-0.000337
1036	1.0298e+02	-1.2385	-10.605556	0.000821	8.209065	2.781307	-0.000329
1037	1.0308e+02	-1.2738	-10.884118	0.000699	6.992907	2.369261	-0.000280
1038	1.0318e+02	-1.3123	-11.219200	0.000841	8.411758	2.849981	-0.000337
1039	1.0328e+02	-1.3492	-11.489688	0.000679	6.790214	2.300587	-0.000272
1040	1.0338e+02	-1.3909	-11.865142	0.000943	9.425223	3.193352	-0.000377
1041	1.0348e+02	-1.4246	-12.155816	0.000730	7.296947	2.472273	-0.000292
1042	1.0358e+02	-1.4711	-12.503009	0.000872	8.715798	2.952992	-0.000349
1043	1.0368e+02	-1.5096	-12.797720	0.000740	7.398293	2.506610	-0.000296
1044	1.0378e+02	-1.5545	-13.112617	0.000791	7.905026	2.678295	-0.000316
1045	1.0388e+02	-1.5882	-13.492108	0.000953	9.526570	3.227689	-0.000381
1046	1.0398e+02	-1.6235	-13.750484	0.000649	6.486175	2.197576	-0.000260
1047	1.0408e+02	-1.6732	-14.142086	0.000983	9.830609	3.330700	-0.000394
1048	1.0418e+02	-1.7133	-14.424686	0.000709	7.094254	2.403598	-0.000284
1049	1.0428e+02	-1.7614	-14.711323	0.000720	7.195600	2.437935	-0.000288
1050	1.0438e+02	-1.7839	-15.030256	0.000801	8.006372	2.712632	-0.000321
1051	1.0447e+02	-1.8288	-15.389561	0.000902	9.019837	3.056004	-0.000361
1052	1.0457e+02	-1.8641	-15.684272	0.000740	7.398293	2.506610	-0.000296
1053	1.0467e+02	-1.9058	-16.055689	0.000932	9.323877	3.159015	-0.000373
1054	1.0477e+02	-1.9475	-16.326177	0.000679	6.790214	2.300587	-0.000272
1055	1.0487e+02	-1.9844	-16.661259	0.000841	8.411758	2.849981	-0.000337
1056	1.0497e+02	-2.0358	-17.016527	0.000892	8.918491	3.021666	-0.000357
1057	1.0507e+02	-2.0759	-17.291052	0.000689	6.891561	2.334924	-0.000276
1058	1.0517e+02	-2.1096	-17.630172	0.000851	8.513105	2.884318	-0.000341
1059	1.0527e+02	-2.1433	-17.945068	0.000791	7.905026	2.678295	-0.000316
1060	1.0537e+02	-2.1994	-18.292262	0.000872	8.715798	2.952992	-0.000349
1061	1.0547e+02	-2.2267	-18.599084	0.000770	7.702333	2.609621	-0.000308
1062	1.0557e+02	-2.2668	-18.954352	0.000892	8.918491	3.021666	-0.000357
1063	1.0567e+02	-2.3053	-19.220803	0.000669	6.688868	2.266250	-0.000268
1064	1.0577e+02	-2.3502	-19.572034	0.000882	8.817144	2.987329	-0.000353
1065	1.0587e+02	-2.3887	-19.878856	0.000770	7.702333	2.609621	-0.000308
1066	1.0597e+02	-2.4224	-20.185679	0.000770	7.702333	2.609621	-0.000308
1067	1.0607e+02	-2.4673	-20.516724	0.000831	8.310412	2.815644	-0.000333
1068	1.0617e+02	-2.5138	-20.839695	0.000811	8.107719	2.746969	-0.000325
1069	1.0627e+02	-2.5539	-21.194963	0.000892	8.918491	3.021666	-0.000357
1070	1.0637e+02	-2.5844	-21.509859	0.000791	7.905026	2.678295	-0.000316
1071	1.0647e+02	-2.6261	-21.820719	0.000780	7.803679	2.643958	-0.000312
1072	1.0656e+02	-2.6710	-22.147727	0.000821	8.209065	2.781307	-0.000329
1073	1.0666e+02	-2.7112	-22.462623	0.000791	7.905026	2.678295	-0.000316
1074	1.0676e+02	-2.7368	-22.761371	0.000750	7.499640	2.540947	-0.000300
1075	1.0686e+02	-2.7898	-23.076268	0.000791	7.905026	2.678295	-0.000316
1076	1.0696e+02	-2.8186	-23.399239	0.000811	8.107719	2.746969	-0.000325
1077	1.0706e+02	-2.8652	-23.697987	0.000750	7.499640	2.540947	-0.000300
1078	1.0716e+02	-2.9069	-24.049218	0.000882	8.817144	2.987329	-0.000353
1079	1.0726e+02	-2.9550	-24.356040	0.000770	7.702333	2.609621	-0.000308
1080	1.0736e+02	-2.9935	-24.691122	0.000841	8.411758	2.849981	-0.000337
1081	1.0746e+02	-3.0304	-25.050427	0.000902	9.019837	3.056004	-0.000361
1082	1.0756e+02	-3.0545	-25.333027	0.000709	7.094254	2.403598	-0.000284
1083	1.0766e+02	-3.1122	-25.647923	0.000791	7.905026	2.678295	-0.000316
1084	1.0776e+02	-3.1411	-25.954746	0.000770	7.702333	2.609621	-0.000308
1085	1.0786e+02	-3.1908	-26.285791	0.000831	8.310412	2.815644	-0.000333
1086	1.0796e+02	-3.2277	-26.588576	0.000760	7.600986	2.575284	-0.000304
1087	1.0806e+02	-3.2694	-26.919621	0.000831	8.310412	2.815644	-0.000333
1088	1.0816e+02	-3.3015	-27.266815	0.000872	8.715798	2.952992	-0.000349
1089	1.0826e+02	-3.3416	-27.569600	0.000760	7.600986	2.575284	-0.000304
1090	1.0836e+02	-3.3897	-27.876422	0.000770	7.702333	2.609621	-0.000308
1091	1.0845e+02	-3.4218	-28.199393	0.000811	8.107719	2.746969	-0.000325
1092	1.0855e+02	-3.4651	-28.502178	0.000760	7.600986	2.575284	-0.000304
1093	1.0865e+02	-3.5052	-28.821112	0.000801	8.006372	2.712632	-0.000321
1094	1.0875e+02	-3.5405	-29.168306	0.000872	8.715798	2.952992	-0.000349
1095	1.0885e+02	-3.5871	-29.471091	0.000760	7.600986	2.575284	-0.000304
1096	1.0895e+02	-3.6143	-29.798099	0.000821	8.209065	2.781307	-0.000329
1097	1.0905e+02	-3.6657	-30.112995	0.000791	7.905026	2.678295	-0.000316
1098	1.0915e+02	-3.6962	-30.415781	0.000760	7.600986	2.575284	-0.000304
1099	1.0925e+02	-3.7443	-30.710492	0.000740	7.398293	2.506610	-0.000296
1100	1.0935e+02	-3.7860	-31.077871	0.000922	9.222530	3.124678	-0.000369
1101	1.0945e+02	-3.8197	-31.388730	0.000780	7.803679	2.643958	-0.000312
1102	1.0955e+02	-3.8630	-31.675367	0.000720	7.195600	2.437935	-0.000288
1103	1.0965e+02	-3.9095	-31.998338	0.000811	8.107719	2.746969	-0.000325
1104	1.0975e+02	-3.9384	-32.333420	0.000841	8.411758	2.849981	-0.000337
1105	1.0985e+02	-3.9833	-32.624094	0.000730	7.296947	2.472273	-0.000292
1106	1.0995e+02	-4.0122	-32.959176	0.000841	8.411758	2.849981	-0.000337
1107	1.1005e+02	-4.0635	-33.274073	0.000791	7.905026	2.678295	-0.000316
1108	1.1015e+02	-4.0972	-33.568784	0.000740	7.398293	2.506610	-0.000296
1109	1.1025e+02	-4.1437	-33.936163	0.000922	9.222530	3.124678	-0.000369
1110	1.1035e+02	-4.1838	-34.267208	0.000831	8.310412	2.815644	-0.000333
1111	1.1044e+02	-4.2223	-34.509436	0.000608	6.080789	2.060227	-0.000243
1112	1.1054e+02	-4.2641	-34.848556	0.000851	8.513105	2.884318	-0.000341
1113	1.1064e+02	-4.3042	-35.155378	0.000770	7.702333	2.609621	-0.000308
1114	1.1074e+02	-4.3427	-35.470275	0.000791	7.905026	2.678295	-0.000316
1115	1.1084e+02	-4.3796	-35.801320	0.000831	8.310412	2.815644	-0.000333
1116	1.1094e+02	-4.4148	-36.144476	0.000861	8.614451	2.918655	-0.000345
1117	1.1104e+02	-4.4582	-36.382667	0.000598	5.979443	2.025890	-0.000239
1118	1.1114e+02	-4.4951	-36.721787	0.000851	8.513105	2.884318	-0.000341
1119	1.1124e+02	-4.5368	-37.036683	0.000791	7.905026	2.678295	-0.000316
1120	1.1134e+02	-4.5785	-37.351580	0.000791	7.905026	2.678295	-0.000316
1121	1.1144e+02	-4.6202	-37.682625	0.000831	8.310412	2.815644	-0.000333
1122	1.1154e+02	-4.6603	-37.936965	0.000638	6.384829	2.163238	-0.000256
1123	1.1164e+02	-4.6956	-38.284158	0.000872	8.715798	2.952992	-0.000349
1124	1.1174e+02	-4.7373	-38.631352	0.000872	8.715798	2.952992	-0.000349
1125	1.1184e+02	-4.7742	-38.905877	0.000689	6.891561	2.334924	-0.000276
1126	1.1194e+02	-4.8175	-39.224811	0.000801	8.006372	2.712632	-0.000321
1127	1.1204e+02	-4.8624	-39.519522	0.000740	7.398293	2.506610	-0.000296
1128	1.1214e+02	-4.8929	-39.850567	0.000831	8.310412	2.815644	-0.000333
1129	1.1224e+02	-4.9410	-40.129129	0.000699	6.992907	2.369261	-0.000280
1130	1.1234e+02	-4.9763	-40.480360	0.000882	8.817144	2.987329	-0.000353
1131	1.1244e+02	-5.0229	-40.779108	0.000750	7.499640	2.540947	-0.000300
1132	1.1253e+02	-5.0517	-41.081893	0.000760	7.600986	2.575284	-0.000304
1133	1.1263e+02	-5.0999	-41.412938	0.000831	8.310412	2.815644	-0.000333
1134	1.1273e+02	-5.1416	-41.663241	0.000628	6.283482	2.128901	-0.000252
1135	1.1283e+02	-5.1672	-41.978137	0.000791	7.905026	2.678295	-0.000316
1136	1.1293e+02	-5.2202	-42.365702	0.000973	9.729262	3.296363	-0.000390
1137	1.1303e+02	-5.2555	-42.624079	0.000649	6.486175	2.197576	-0.000260
1138	1.1313e+02	-5.2876	-42.890530	0.000669	6.688868	2.266250	-0.000268
1139	1.1323e+02	-5.3453	-43.241761	0.000882	8.817144	2.987329	-0.000353
1140	1.1333e+02	-5.3790	-43.524360	0.000709	7.094254	2.403598	-0.000284
1141	1.1343e+02	-5.4159	-43.819071	0.000740	7.398293	2.506610	-0.000296
1142	1.1353e+02	-5.4544	-44.121856	0.000760	7.600986	2.575284	-0.000304
1143	1.1363e+02	-5.4929	-44.452902	0.000831	8.310412	2.815644	-0.000333
1144	1.1373e+02	-5.5346	-44.747613	0.000740	7.398293	2.506610	-0.000296
1145	1.1383e+02	-5.5779	-45.054435	0.000770	7.702333	2.609621	-0.000308
1146	1.1393e+02	-5.6164	-45.345109	0.000730	7.296947	2.472273	-0.000292
1147	1.1403e+02	-5.6581	-45.647894	0.000760	7.600986	2.575284	-0.000304
1148	1.1413e+02	-5.6934	-45.954716	0.000770	7.702333	2.609621	-0.000308
1149	1.1423e+02	-5.7303	-46.330170	0.000943	9.425223	3.193352	-0.000377
1150	1.1433e+02	-5.7768	-46.596621	0.000669	6.688868	2.266250	-0.000268
1151	1.1442e+02	-5.8218	-46.867109	0.000679	6.790214	2.300587	-0.000272
1152	1.1452e+02	-5.8587	-47.161820	0.000740	7.398293	2.506610	-0.000296
1153	1.1462e+02	-5.9020	-47.509013	0.000872	8.715798	2.952992	-0.000349
1154	1.1472e+02	-5.9292	-47.751242	0.000608	6.080789	2.060227	-0.000243
1155	1.1482e+02	-5.9694	-48.090361	0.000851	8.513105	2.884318	-0.000341
1156	1.1492e+02	-6.0127	-48.409295	0.000801	8.006372	2.712632	-0.000321
1157	1.1502e+02	-6.0560	-48.667671	0.000649	6.486175	2.197576	-0.000260
1158	1.1512e+02	-6.0929	-49.006791	0.000851	8.513105	2.884318	-0.000341
1159	1.1522e+02	-6.1298	-49.244982	0.000598	5.979443	2.025890	-0.000239
1160	1.1532e+02	-6.1763	-49.563915	0.000801	8.006372	2.712632	-0.000321
1161	1.1542e+02	-6.2100	-49.894961	0.000831	8.310412	2.815644	-0.000333
1162	1.1552e+02	-6.2501	-50.177560	0.000709	7.094254	2.403598	-0.000284
1163	1.1562e+02	-6.2998	-50.504568	0.000821	8.209065	2.781307	-0.000329
1164	1.1572e+02	-6.3335	-50.811390	0.000770	7.702333	2.609621	-0.000308
1165	1.1582e+02	-6.3704	-51.041507	0.000578	5.776750	1.957216	-0.000231
1166	1.1592e+02	-6.4025	-51.384664	0.000861	8.614451	2.918655	-0.000345
1167	1.1602e+02	-6.4538	-51.671300	0.000720	7.195600	2.437935	-0.000288
1168	1.1612e+02	-6.4827	-51.957937	0.000720	7.195600	2.437935	-0.000288
1169	1.1622e+02	-6.5340	-52.204202	0.000618	6.182136	2.094564	-0.000248
1170	1.1632e+02	-6.5709	-52.543322	0.000851	8.513105	2.884318	-0.000341
1171	1.1642e+02	-6.6078	-52.821884	0.000699	6.992907	2.369261	-0.000280
1172	1.1651e+02	-6.6415	-53.120632	0.000750	7.499640	2.540947	-0.000300
1173	1.1661e+02	-6.6880	-53.399194	0.000699	6.992907	2.369261	-0.000280
1174	1.1671e+02	-6.7169	-53.742351	0.000861	8.614451	2.918655	-0.000345
1175	1.1681e+02	-6.7747	-54.037062	0.000740	7.398293	2.506610	-0.000296
1176	1.1691e+02	-6.8164	-54.335810	0.000750	7.499640	2.540947	-0.000300
1177	1.1701e+02	-6.8549	-54.606298	0.000679	6.790214	2.300587	-0.000272
1178	1.1711e+02	-6.8966	-54.925232	0.000801	8.006372	2.712632	-0.000321
1179	1.1721e+02	-6.9255	-55.187646	0.000659	6.587521	2.231913	-0.000264
1180	1.1731e+02	-6.9576	-55.514654	0.000821	8.209065	2.781307	-0.000329
1181	1.1741e+02	-7.0073	-55.785142	0.000679	6.790214	2.300587	-0.000272
1182	1.1751e+02	-7.0410	-56.071778	0.000720	7.195600	2.437935	-0.000288
1183	1.1761e+02	-7.0907	-56.366489	0.000740	7.398293	2.506610	-0.000296
1184	1.1771e+02	-7.1340	-56.713683	0.000872	8.715798	2.952992	-0.000349
1185	1.1781e+02	-7.1709	-56.919577	0.000517	5.168671	1.751193	-0.000207
1186	1.1791e+02	-7.2110	-57.214288	0.000740	7.398293	2.506610	-0.000296
1187	1.1801e+02	-7.2479	-57.553407	0.000851	8.513105	2.884318	-0.000341
1188	1.1811e+02	-7.2800	-57.844081	0.000730	7.296947	2.472273	-0.000292
1189	1.1821e+02	-7.3249	-58.086309	0.000608	6.080789	2.060227	-0.000243
1190	1.1831e+02	-7.3602	-58.413317	0.000821	8.209065	2.781307	-0.000329
1191	1.1841e+02	-7.4116	-58.651508	0.000598	5.979443	2.025890	-0.000239
1192	1.1850e+02	-7.4436	-58.978516	0.000821	8.209065	2.781307	-0.000329
1193	1.1860e+02	-7.4918	-59.309561	0.000831	8.310412	2.815644	-0.000333
1194	1.1870e+02	-7.5287	-59.539678	0.000578	5.776750	1.957216	-0.000231
1195	1.1880e+02	-7.5640	-59.862649	0.000811	8.107719	2.746969	-0.000325
1196	1.1890e+02	-7.6025	-60.137174	0.000689	6.891561	2.334924	-0.000276
1197	1.1900e+02	-7.6474	-60.448033	0.000780	7.803679	2.643958	-0.000312
1198	1.1910e+02	-7.6891	-60.722559	0.000689	6.891561	2.334924	-0.000276
1199	1.1920e+02	-7.7212	-61.013232	0.000730	7.296947	2.472273	-0.000292
1200	1.1930e+02	-7.7645	-61.307943	0.000740	7.398293	2.506610	-0.000296
1201	1.1940e+02	-7.8014	-61.606691	0.000750	7.499640	2.540947	-0.000300
1202	1.1950e+02	-7.8463	-61.832771	0.000568	5.675403	1.922879	-0.000227
1203	1.1960e+02	-7.8912	-62.175928	0.000861	8.614451	2.918655	-0.000345
1204	1.1970e+02	-7.9233	-62.462564	0.000720	7.195600	2.437935	-0.000288
1205	1.1980e+02	-7.9650	-62.765349	0.000760	7.600986	2.575284	-0.000304
1206	1.1990e+02	-8.0083	-63.047949	0.000709	7.094254	2.403598	-0.000284
1207	1.2000e+02	-8.0404	-63.354771	0.000770	7.702333	2.609621	-0.000308
1208	1.2010e+02	-8.0789	-63.609111	0.000638	6.384829	2.163238	-0.000256
1209	1.2020e+02	-8.1238	-63.911896	0.000760	7.600986	2.575284	-0.000304
1210	1.2030e+02	-8.1655	-64.174310	0.000659	6.587521	2.231913	-0.000264
1211	1.2039e+02	-8.1992	-64.517466	0.000861	8.614451	2.918655	-0.000345
1212	1.2049e+02	-8.2458	-64.735472	0.000547	5.472710	1.854204	-0.000219
1213	1.2059e+02	-8.2746	-65.030182	0.000740	7.398293	2.506610	-0.000296
1214	1.2069e+02	-8.3212	-65.328931	0.000750	7.499640	2.540947	-0.000300
1215	1.2079e+02	-8.3597	-65.631716	0.000760	7.600986	2.575284	-0.000304
1216	1.2089e+02	-8.3966	-65.910278	0.000699	6.992907	2.369261	-0.000280
1217	1.2099e+02	-8.4495	-66.241323	0.000831	8.310412	2.815644	-0.000333
1218	1.2109e+02	-8.4800	-66.503737	0.000659	6.587521	2.231913	-0.000264
1219	1.2119e+02	-8.5265	-66.794411	0.000730	7.296947	2.472273	-0.000292
1220	1.2129e+02	-8.5618	-67.028565	0.000588	5.878096	1.991553	-0.000235
1221	1.2139e+02	-8.5987	-67.359610	0.000831	8.310412	2.815644	-0.000333
1222	1.2149e+02	-8.6436	-67.650284	0.000730	7.296947	2.472273	-0.000292
1223	1.2159e+02	-8.6757	-67.949032	0.000750	7.499640	2.540947	-0.000300
1224	1.2169e+02	-8.7238	-68.235668	0.000720	7.195600	2.437935	-0.000288
1225	1.2179e+02	-8.7559	-68.473859	0.000598	5.979443	2.025890	-0.000239
1226	1.2189e+02	-8.7944	-68.772607	0.000750	7.499640	2.540947	-0.000300
1227	1.2199e+02	-8.8425	-69.043095	0.000679	6.790214	2.300587	-0.000272
1228	1.2209e+02	-8.8874	-69.353955	0.000780	7.803679	2.643958	-0.000312
1229	1.2219e+02	-8.9195	-69.656740	0.000760	7.600986	2.575284	-0.000304
1230	1.2229e+02	-8.9580	-69.939340	0.000709	7.094254	2.403598	-0.000284
1231	1.2239e+02	-9.0014	-70.234050	0.000740	7.398293	2.506610	-0.000296
1232	1.2248e+02	-9.0366	-70.524724	0.000730	7.296947	2.472273	-0.000292
1233	1.2258e+02	-9.0816	-70.779064	0.000638	6.384829	2.163238	-0.000256
1234	1.2268e+02	-9.1153	-71.085886	0.000770	7.702333	2.609621	-0.000308
1235	1.2278e+02	-9.1682	-71.344263	0.000649	6.486175	2.197576	-0.000260
1236	1.2288e+02	-9.1971	-71.614751	0.000679	6.790214	2.300587	-0.000272
1237	1.2298e+02	-9.2388	-71.945796	0.000831	8.310412	2.815644	-0.000333
1238	1.2308e+02	-9.2837	-72.188024	0.000608	6.080789	2.060227	-0.000243
1239	1.2318e+02	-9.3126	-72.474661	0.000720	7.195600	2.437935	-0.000288
1240	1.2328e+02	-9.3591	-72.765335	0.000730	7.296947	2.472273	-0.000292
1241	1.2338e+02	-9.3960	-73.027748	0.000659	6.587521	2.231913	-0.000264
1242	1.2348e+02	-9.4361	-73.326496	0.000750	7.499640	2.540947	-0.000300
1243	1.2358e+02	-9.4714	-73.641393	0.000791	7.905026	2.678295	-0.000316
1244	1.2368e+02	-9.5211	-73.875547	0.000588	5.878096	1.991553	-0.000235
1245	1.2378e+02	-9.5628	-74.154109	0.000699	6.992907	2.369261	-0.000280
1246	1.2388e+02	-9.6013	-74.460932	0.000770	7.702333	2.609621	-0.000308
1247	1.2398e+02	-9.6238	-74.695085	0.000588	5.878096	1.991553	-0.000235
1248	1.2408e+02	-9.6751	-74.973648	0.000699	6.992907	2.369261	-0.000280
1249	1.2418e+02	-9.7120	-75.280470	0.000770	7.702333	2.609621	-0.000308
1250	1.2428e+02	-9.7569	-75.550958	0.000679	6.790214	2.300587	-0.000272
1251	1.2438e+02	-9.8003	-75.817409	0.000669	6.688868	2.266250	-0.000268
1252	1.2447e+02	-9.8356	-76.112120	0.000740	7.398293	2.506610	-0.000296
1253	1.2457e+02	-9.8724	-76.394720	0.000709	7.094254	2.403598	-0.000284
1254	1.2467e+02	-9.9126	-76.709616	0.000791	7.905026	2.678295	-0.000316
1255	1.2477e+02	-9.9591	-76.935696	0.000568	5.675403	1.922879	-0.000227
1256	1.2487e+02	-9.9944	-77.246555	0.000780	7.803679	2.643958	-0.000312
1257	1.2497e+02	-10.0441	-77.525118	0.000699	6.992907	2.369261	-0.000280
1258	1.2507e+02	-10.0762	-77.823866	0.000750	7.499640	2.540947	-0.000300
1259	1.2517e+02	-10.1051	-78.102428	0.000699	6.992907	2.369261	-0.000280
1260	1.2527e+02	-10.1532	-78.360805	0.000649	6.486175	2.197576	-0.000260
1261	1.2537e+02	-10.1917	-78.647441	0.000720	7.195600	2.437935	-0.000288
1262	1.2547e+02	-10.2334	-78.889669	0.000608	6.080789	2.060227	-0.000243
1263	1.2557e+02	-10.2719	-79.204566	0.000791	7.905026	2.678295	-0.000316
1264	1.2567e+02	-10.3136	-79.495240	0.000730	7.296947	2.472273	-0.000292
1265	1.2577e+02	-10.3473	-79.765728	0.000679	6.790214	2.300587	-0.000272
1266	1.2587e+02	-10.3938	-80.044290	0.000699	6.992907	2.369261	-0.000280
1267	1.2597e+02	-10.4307	-80.322853	0.000699	6.992907	2.369261	-0.000280
1268	1.2607e+02	-10.4772	-80.573155	0.000628	6.283482	2.128901	-0.000252
1269	1.2617e+02	-10.5206	-80.859792	0.000720	7.195600	2.437935	-0.000288
1270	1.2627e+02	-10.5559	-81.122206	0.000659	6.587521	2.231913	-0.000264
1271	1.2636e+02	-10.5927	-81.380582	0.000649	6.486175	2.197576	-0.000260
1272	1.2646e+02	-10.6329	-81.663182	0.000709	7.094254	2.403598	-0.000284
1273	1.2656e+02	-10.6665	-81.961930	0.000750	7.499640	2.540947	-0.000300
1274	1.2666e+02	-10.7115	-82.220306	0.000649	6.486175	2.197576	-0.000260
1275	1.2676e+02	-10.7435	-82.527129	0.000770	7.702333	2.609621	-0.000308
1276	1.2686e+02	-10.7869	-82.793580	0.000669	6.688868	2.266250	-0.000268
1277	1.2696e+02	-10.8334	-83.023696	0.000578	5.776750	1.957216	-0.000231
1278	1.2706e+02	-10.8799	-83.346667	0.000811	8.107719	2.746969	-0.000325
1279	1.2716e+02	-10.9200	-83.572747	0.000568	5.675403	1.922879	-0.000227
1280	1.2726e+02	-10.9569	-83.887644	0.000791	7.905026	2.678295	-0.000316
1281	1.2736e+02	-10.9922	-84.146020	0.000649	6.486175	2.197576	-0.000260
1282	1.2746e+02	-11.0307	-84.444768	0.000750	7.499640	2.540947	-0.000300
1283	1.2756e+02	-11.0724	-84.703145	0.000649	6.486175	2.197576	-0.000260
1284	1.2766e+02	-11.1109	-84.969596	0.000669	6.688868	2.266250	-0.000268
1285	1.2776e+02	-11.1558	-85.207787	0.000598	5.979443	2.025890	-0.000239
1286	1.2786e+02	-11.1863	-85.486349	0.000699	6.992907	2.369261	-0.000280
1287	1.2796e+02	-11.2312	-85.789134	0.000760	7.600986	2.575284	-0.000304
1288	1.2806e+02	-11.2649	-86.067697	0.000699	6.992907	2.369261	-0.000280
1289	1.2816e+02	-11.3114	-86.346259	0.000699	6.992907	2.369261	-0.000280
1290	1.2826e+02	-11.3499	-86.592524	0.000618	6.182136	2.094564	-0.000248
1291	1.2835e+02	-11.3836	-86.842827	0.000628	6.283482	2.128901	-0.000252
1292	1.2845e+02	-11.4237	-87.145612	0.000760	7.600986	2.575284	-0.000304
1293	1.2855e+02	-11.4751	-87.399952	0.000638	6.384829	2.163238	-0.000256
1294	1.2865e+02	-11.5136	-87.678514	0.000699	6.992907	2.369261	-0.000280
1295	1.2875e+02	-11.5441	-87.916705	0.000598	5.979443	2.025890	-0.000239
1296	1.2885e+02	-11.5906	-88.175082	0.000649	6.486175	2.197576	-0.000260
1297	1.2895e+02	-11.6355	-88.445570	0.000679	6.790214	2.300587	-0.000272
1298	1.2905e+02	-11.6612	-88.724132	0.000699	6.992907	2.369261	-0.000280
1299	1.2915e+02	-11.7173	-88.970397	0.000618	6.182136	2.094564	-0.000248
1300	1.2925e+02	-11.7494	-89.244923	0.000689	6.891561	2.334924	-0.000276
1301	1.2935e+02	-11.7911	-89.503299	0.000649	6.486175	2.197576	-0.000260
1302	1.2945e+02	-11.8248	-89.818196	0.000791	7.905026	2.678295	-0.000316
1303	1.2955e+02	-11.8665	-90.028127	0.000527	5.270017	1.785530	-0.000211
1304	1.2965e+02	-11.9082	-90.338986	0.000780	7.803679	2.643958	-0.000312
1305	1.2975e+02	-11.9483	-90.577177	0.000598	5.979443	2.025890	-0.000239
1306	1.2985e+02	-11.9852	-90.831517	0.000638	6.384829	2.163238	-0.000256
1307	1.2995e+02	-12.0366	-91.114116	0.000709	7.094254	2.403598	-0.000284
1308	1.3005e+02	-12.0622	-91.360382	0.000618	6.182136	2.094564	-0.000248
1309	1.3015e+02	-12.1055	-91.659130	0.000750	7.499640	2.540947	-0.000300
1310	1.3025e+02	-12.1489	-91.901358	0.000608	6.080789	2.060227	-0.000243
1311	1.3034e+02	-12.1841	-92.151660	0.000628	6.283482	2.128901	-0.000252
1312	1.3044e+02	-12.2323	-92.430223	0.000699	6.992907	2.369261	-0.000280
1313	1.3054e+02	-12.2628	-92.668414	0.000598	5.979443	2.025890	-0.000239
1314	1.3064e+02	-12.3045	-92.971199	0.000760	7.600986	2.575284	-0.000304
1315	1.3074e+02	-12.3446	-93.225538	0.000638	6.384829	2.163238	-0.000256
1316	1.3084e+02	-12.3895	-93.500064	0.000689	6.891561	2.334924	-0.000276
1317	1.3094e+02	-12.4296	-93.770552	0.000679	6.790214	2.300587	-0.000272
1318	1.3104e+02	-12.4761	-94.020854	0.000628	6.283482	2.128901	-0.000252
1319	1.3114e+02	-12.5098	-94.230785	0.000527	5.270017	1.785530	-0.000211
1320	1.3124e+02	-12.5403	-94.533570	0.000760	7.600986	2.575284	-0.000304
1321	1.3134e+02	-12.5916	-94.787910	0.000638	6.384829	2.163238	-0.000256
1322	1.3144e+02	-12.6317	-95.042250	0.000638	6.384829	2.163238	-0.000256
1323	1.3154e+02	-12.6654	-95.284478	0.000608	6.080789	2.060227	-0.000243
1324	1.3164e+02	-12.7023	-95.599374	0.000791	7.905026	2.678295	-0.000316
1325	1.3174e+02	-12.7424	-95.841602	0.000608	6.080789	2.060227	-0.000243
1326	1.3184e+02	-12.7841	-96.055571	0.000537	5.371364	1.819867	-0.000215
1327	1.3194e+02	-12.8226	-96.326059	0.000679	6.790214	2.300587	-0.000272
1328	1.3204e+02	-12.8643	-96.604621	0.000699	6.992907	2.369261	-0.000280
1329	1.3214e+02	-12.9061	-96.818589	0.000537	5.371364	1.819867	-0.000215
1330	1.3224e+02	-12.9478	-97.097152	0.000699	6.992907	2.369261	-0.000280
1331	1.3234e+02	-12.9815	-97.331306	0.000588	5.878096	1.991553	-0.000235
1332	1.3243e+02	-13.0119	-97.613905	0.000709	7.094254	2.403598	-0.000284
1333	1.3253e+02	-13.0601	-97.872282	0.000649	6.486175	2.197576	-0.000260
1334	1.3263e+02	-13.1066	-98.130658	0.000649	6.486175	2.197576	-0.000260
1335	1.3273e+02	-13.1435	-98.380961	0.000628	6.283482	2.128901	-0.000252
1336	1.3283e+02	-13.1788	-98.627226	0.000618	6.182136	2.094564	-0.000248
1337	1.3293e+02	-13.2189	-98.873491	0.000618	6.182136	2.094564	-0.000248
1338	1.3303e+02	-13.2590	-99.135905	0.000659	6.587521	2.231913	-0.000264
1339	1.3313e+02	-13.2959	-99.394282	0.000649	6.486175	2.197576	-0.000260
1340	1.3323e+02	-13.3424	-99.648621	0.000638	6.384829	2.163238	-0.000256
1341	1.3333e+02	-13.3777	-99.890850	0.000608	6.080789	2.060227	-0.000243
1342	1.3343e+02	-13.4210	-100.193635	0.000760	7.600986	2.575284	-0.000304
1343	1.3353e+02	-13.4627	-100.435863	0.000608	6.080789	2.060227	-0.000243
1344	1.3363e+02	-13.4900	-100.609460	0.000436	4.357899	1.476496	-0.000174
1345	1.3373e+02	-13.5349	-100.952616	0.000861	8.614451	2.918655	-0.000345
1346	1.3383e+02	-13.5830	-101.142362	0.000476	4.763285	1.613845	-0.000191
1347	1.3393e+02	-13.6215	-101.380553	0.000598	5.979443	2.025890	-0.000239
1348	1.3403e+02	-13.6600	-101.671226	0.000730	7.296947	2.472273	-0.000292
1349	1.3413e+02	-13.7001	-101.909417	0.000598	5.979443	2.025890	-0.000239
1350	1.3423e+02	-13.7403	-102.187980	0.000699	6.992907	2.369261	-0.000280
1351	1.3432e+02	-13.7868	-102.418097	0.000578	5.776750	1.957216	-0.000231
1352	1.3442e+02	-13.8157	-102.672436	0.000638	6.384829	2.163238	-0.000256
1353	1.3452e+02	-13.8558	-102.946961	0.000689	6.891561	2.334924	-0.000276
1354	1.3462e+02	-13.8927	-103.164967	0.000547	5.472710	1.854204	-0.000219
1355	1.3472e+02	-13.9328	-103.427380	0.000659	6.587521	2.231913	-0.000264
1356	1.3482e+02	-13.9777	-103.653460	0.000568	5.675403	1.922879	-0.000227
1357	1.3492e+02	-14.0194	-103.927985	0.000689	6.891561	2.334924	-0.000276
1358	1.3502e+02	-14.0547	-104.202511	0.000689	6.891561	2.334924	-0.000276
1359	1.3512e+02	-14.1060	-104.424553	0.000557	5.574057	1.888542	-0.000223
1360	1.3522e+02	-14.1477	-104.723301	0.000750	7.499640	2.540947	-0.000300
1361	1.3532e+02	-14.1862	-104.949381	0.000568	5.675403	1.922879	-0.000227
1362	1.3542e+02	-14.2151	-105.151237	0.000507	5.067324	1.716856	-0.000203
1363	1.3552e+02	-14.2632	-105.421726	0.000679	6.790214	2.300587	-0.000272
1364	1.3562e+02	-14.2905	-105.700288	0.000699	6.992907	2.369261	-0.000280
1365	1.3572e+02	-14.3274	-105.918293	0.000547	5.472710	1.854204	-0.000219
1366	1.3582e+02	-14.3739	-106.148410	0.000578	5.776750	1.957216	-0.000231
1367	1.3592e+02	-14.4188	-106.410824	0.000659	6.587521	2.231913	-0.000264
1368	1.3602e+02	-14.4557	-106.689386	0.000699	6.992907	2.369261	-0.000280
1369	1.3612e+02	-14.4942	-106.919503	0.000578	5.776750	1.957216	-0.000231
1370	1.3622e+02	-14.5311	-107.169805	0.000628	6.283482	2.128901	-0.000252
1371	1.3631e+02	-14.5712	-107.403959	0.000588	5.878096	1.991553	-0.000235
1372	1.3641e+02	-14.6274	-107.706744	0.000760	7.600986	2.575284	-0.000304
1373	1.3651e+02	-14.6466	-107.953010	0.000618	6.182136	2.094564	-0.000248
1374	1.3661e+02	-14.6980	-108.162941	0.000527	5.270017	1.785530	-0.000211
1375	1.3671e+02	-14.7413	-108.445540	0.000709	7.094254	2.403598	-0.000284
1376	1.3681e+02	-14.7798	-108.623174	0.000446	4.459245	1.510833	-0.000179
1377	1.3691e+02	-14.8071	-108.950182	0.000821	8.209065	2.781307	-0.000329
1378	1.3701e+02	-14.8504	-109.184336	0.000588	5.878096	1.991553	-0.000235
1379	1.3711e+02	-14.8857	-109.378119	0.000486	4.864631	1.648182	-0.000195
1380	1.3721e+02	-14.9450	-109.652644	0.000689	6.891561	2.334924	-0.000276
1381	1.3731e+02	-14.9819	-109.963503	0.000780	7.803679	2.643958	-0.000312
1382	1.3741e+02	-15.0060	-110.137100	0.000436	4.357899	1.476496	-0.000174
1383	1.3751e+02	-15.0557	-110.419700	0.000709	7.094254	2.403598	-0.000284
1384	1.3761e+02	-15.0926	-110.637705	0.000547	5.472710	1.854204	-0.000219
1385	1.3771e+02	-15.1407	-110.875896	0.000598	5.979443	2.025890	-0.000239
1386	1.3781e+02	-15.1712	-111.126198	0.000628	6.283482	2.128901	-0.000252
1387	1.3791e+02	-15.2210	-111.408798	0.000709	7.094254	2.403598	-0.000284
1388	1.3801e+02	-15.2498	-111.646989	0.000598	5.979443	2.025890	-0.000239
1389	1.3811e+02	-15.2851	-111.860957	0.000537	5.371364	1.819867	-0.000215
1390	1.3821e+02	-15.3317	-112.179891	0.000801	8.006372	2.712632	-0.000321
1391	1.3831e+02	-15.3798	-112.373673	0.000486	4.864631	1.648182	-0.000195
1392	1.3840e+02	-15.4119	-112.595716	0.000557	5.574057	1.888542	-0.000223
1393	1.3850e+02	-15.4600	-112.862167	0.000669	6.688868	2.266250	-0.000268
1394	1.3860e+02	-15.4937	-113.136692	0.000689	6.891561	2.334924	-0.000276
1395	1.3870e+02	-15.5370	-113.419291	0.000709	7.094254	2.403598	-0.000284
1396	1.3880e+02	-15.5659	-113.621148	0.000507	5.067324	1.716856	-0.000203
1397	1.3890e+02	-15.6044	-113.867413	0.000618	6.182136	2.094564	-0.000248
1398	1.3900e+02	-15.6525	-114.113679	0.000618	6.182136	2.094564	-0.000248
1399	1.3910e+02	-15.6910	-114.372055	0.000649	6.486175	2.197576	-0.000260
1400	1.3920e+02	-15.7343	-114.598135	0.000568	5.675403	1.922879	-0.000227
1401	1.3930e+02	-15.7728	-114.820178	0.000557	5.574057	1.888542	-0.000223
1402	1.3940e+02	-15.8209	-115.090666	0.000679	6.790214	2.300587	-0.000272
1403	1.3950e+02	-15.8514	-115.357117	0.000669	6.688868	2.266250	-0.000268
1404	1.3960e+02	-15.8947	-115.587233	0.000578	5.776750	1.957216	-0.000231
1405	1.3970e+02	-15.9316	-115.873870	0.000720	7.195600	2.437935	-0.000288
1406	1.3980e+02	-15.9685	-116.108024	0.000588	5.878096	1.991553	-0.000235
1407	1.3990e+02	-16.0151	-116.330066	0.000557	5.574057	1.888542	-0.000223
1408	1.4000e+02	-16.0520	-116.564220	0.000588	5.878096	1.991553	-0.000235
1409	1.4010e+02	-16.0937	-116.818560	0.000638	6.384829	2.163238	-0.000256
1410	1.4020e+02	-16.1241	-117.076936	0.000649	6.486175	2.197576	-0.000260
1411	1.4029e+02	-16.1675	-117.335313	0.000649	6.486175	2.197576	-0.000260
1412	1.4039e+02	-16.2092	-117.553318	0.000547	5.472710	1.854204	-0.000219
1413	1.4049e+02	-16.2509	-117.779398	0.000568	5.675403	1.922879	-0.000227
1414	1.4059e+02	-16.2942	-118.066035	0.000720	7.195600	2.437935	-0.000288
1415	1.4069e+02	-16.3247	-118.312300	0.000618	6.182136	2.094564	-0.000248
1416	1.4079e+02	-16.3600	-118.546454	0.000588	5.878096	1.991553	-0.000235
1417	1.4089e+02	-16.4033	-118.804830	0.000649	6.486175	2.197576	-0.000260
1418	1.4099e+02	-16.4434	-119.022836	0.000547	5.472710	1.854204	-0.000219
1419	1.4109e+02	-16.4931	-119.293324	0.000679	6.790214	2.300587	-0.000272
1420	1.4119e+02	-16.5284	-119.535552	0.000608	6.080789	2.060227	-0.000243
1421	1.4129e+02	-16.5685	-119.761632	0.000568	5.675403	1.922879	-0.000227
1422	1.4139e+02	-16.6150	-120.028083	0.000669	6.688868	2.266250	-0.000268
1423	1.4149e+02	-16.6519	-120.286459	0.000649	6.486175	2.197576	-0.000260
1424	1.4159e+02	-16.6920	-120.560985	0.000689	6.891561	2.334924	-0.000276
1425	1.4169e+02	-16.7321	-120.734581	0.000436	4.357899	1.476496	-0.000174
1426	1.4179e+02	-16.7658	-121.009107	0.000689	6.891561	2.334924	-0.000276
1427	1.4189e+02	-16.8027	-121.255372	0.000618	6.182136	2.094564	-0.000248
1428	1.4199e+02	-16.8444	-121.489526	0.000588	5.878096	1.991553	-0.000235
1429	1.4209e+02	-16.8813	-121.739828	0.000628	6.283482	2.128901	-0.000252
1430	1.4219e+02	-16.9134	-121.998205	0.000649	6.486175	2.197576	-0.000260
1431	1.4228e+02	-16.9632	-122.248507	0.000628	6.283482	2.128901	-0.000252
1432	1.4238e+02	-17.0017	-122.478624	0.000578	5.776750	1.957216	-0.000231
1433	1.4248e+02	-17.0434	-122.724889	0.000618	6.182136	2.094564	-0.000248
1434	1.4258e+02	-17.0883	-122.987303	0.000659	6.587521	2.231913	-0.000264
1435	1.4268e+02	-17.1348	-123.237606	0.000628	6.283482	2.128901	-0.000252
1436	1.4278e+02	-17.1685	-123.483871	0.000618	6.182136	2.094564	-0.000248
1437	1.4288e+02	-17.2086	-123.730136	0.000618	6.182136	2.094564	-0.000248
1438	1.4298e+02	-17.2519	-123.984476	0.000638	6.384829	2.163238	-0.000256
1439	1.4308e+02	-17.2872	-124.230741	0.000618	6.182136	2.094564	-0.000248
1440	1.4318e+02	-17.3241	-124.464895	0.000588	5.878096	1.991553	-0.000235
1441	1.4328e+02	-17.3690	-124.727309	0.000659	6.587521	2.231913	-0.000264
1442	1.4338e+02	-17.4011	-124.973574	0.000618	6.182136	2.094564	-0.000248
1443	1.4348e+02	-17.4476	-125.203691	0.000578	5.776750	1.957216	-0.000231
1444	1.4358e+02	-17.4926	-125.474179	0.000679	6.790214	2.300587	-0.000272
1445	1.4368e+02	-17.5359	-125.696221	0.000557	5.574057	1.888542	-0.000223
1446	1.4378e+02	-17.5647	-125.926338	0.000578	5.776750	1.957216	-0.000231
1447	1.4388e+02	-17.5968	-126.196826	0.000679	6.790214	2.300587	-0.000272
1448	1.4398e+02	-17.6401	-126.435017	0.000598	5.979443	2.025890	-0.000239
1449	1.4408e+02	-17.6867	-126.713579	0.000699	6.992907	2.369261	-0.000280
1450	1.4418e+02	-17.7316	-126.939659	0.000568	5.675403	1.922879	-0.000227
1451	1.4428e+02	-17.7733	-127.222259	0.000709	7.094254	2.403598	-0.000284
1452	1.4437e+02	-17.7990	-127.416041	0.000486	4.864631	1.648182	-0.000195
1453	1.4447e+02	-17.8455	-127.710752	0.000740	7.398293	2.506610	-0.000296
1454	1.4457e+02	-17.8872	-127.940869	0.000578	5.776750	1.957216	-0.000231
1455	1.4467e+02	-17.9177	-128.191171	0.000628	6.283482	2.128901	-0.000252
1456	1.4477e+02	-17.9674	-128.461659	0.000679	6.790214	2.300587	-0.000272
1457	1.4487e+02	-18.0091	-128.695813	0.000588	5.878096	1.991553	-0.000235
1458	1.4497e+02	-18.0444	-128.934004	0.000598	5.979443	2.025890	-0.000239
1459	1.4507e+02	-18.0877	-129.184306	0.000628	6.283482	2.128901	-0.000252
1460	1.4517e+02	-18.1230	-129.454795	0.000679	6.790214	2.300587	-0.000272
1461	1.4527e+02	-18.1631	-129.729320	0.000689	6.891561	2.334924	-0.000276
1462	1.4537e+02	-18.2000	-129.931177	0.000507	5.067324	1.716856	-0.000203
1463	1.4547e+02	-18.2385	-130.181479	0.000628	6.283482	2.128901	-0.000252
1464	1.4557e+02	-18.2786	-130.464079	0.000709	7.094254	2.403598	-0.000284
1465	1.4567e+02	-18.3187	-130.702270	0.000598	5.979443	2.025890	-0.000239
1466	1.4577e+02	-18.3604	-130.964683	0.000659	6.587521	2.231913	-0.000264
1467	1.4587e+02	-18.4022	-131.227097	0.000659	6.587521	2.231913	-0.000264
1468	1.4597e+02	-18.4391	-131.469325	0.000608	6.080789	2.060227	-0.000243
1469	1.4607e+02	-18.4824	-131.683294	0.000537	5.371364	1.819867	-0.000215
1470	1.4617e+02	-18.5225	-131.949744	0.000669	6.688868	2.266250	-0.000268
1471	1.4626e+02	-18.5642	-132.191973	0.000608	6.080789	2.060227	-0.000243
1472	1.4636e+02	-18.6027	-132.478609	0.000720	7.195600	2.437935	-0.000288
1473	1.4646e+02	-18.6332	-132.732949	0.000638	6.384829	2.163238	-0.000256
1474	1.4656e+02	-18.6861	-133.007474	0.000689	6.891561	2.334924	-0.000276
1475	1.4666e+02	-18.7182	-133.261814	0.000638	6.384829	2.163238	-0.000256
1476	1.4676e+02	-18.7551	-133.491930	0.000578	5.776750	1.957216	-0.000231
1477	1.4686e+02	-18.7952	-133.697824	0.000517	5.168671	1.751193	-0.000207
1478	1.4696e+02	-18.8401	-134.032907	0.000841	8.411758	2.849981	-0.000337
1479	1.4706e+02	-18.8834	-134.275135	0.000608	6.080789	2.060227	-0.000243
1480	1.4716e+02	-18.9219	-134.505251	0.000578	5.776750	1.957216	-0.000231
1481	1.4726e+02	-18.9636	-134.763628	0.000649	6.486175	2.197576	-0.000260
1482	1.4736e+02	-19.0118	-135.050265	0.000720	7.195600	2.437935	-0.000288
1483	1.4746e+02	-19.0471	-135.272307	0.000557	5.574057	1.888542	-0.000223
1484	1.4756e+02	-19.0727	-135.562981	0.000730	7.296947	2.472273	-0.000292
1485	1.4766e+02	-19.1257	-135.813283	0.000628	6.283482	2.128901	-0.000252
1486	1.4776e+02	-19.1577	-136.083771	0.000679	6.790214	2.300587	-0.000272
1487	1.4786e+02	-19.1979	-136.342148	0.000649	6.486175	2.197576	-0.000260
1488	1.4796e+02	-19.2364	-136.592451	0.000628	6.283482	2.128901	-0.000252
1489	1.4806e+02	-19.2716	-136.875050	0.000709	7.094254	2.403598	-0.000284
1490	1.4816e+02	-19.3150	-137.145538	0.000679	6.790214	2.300587	-0.000272
1491	1.4825e+02	-19.3631	-137.448323	0.000760	7.600986	2.575284	-0.000304
1492	1.4835e+02	-19.3984	-137.646143	0.000497	4.965978	1.682519	-0.000199
1493	1.4845e+02	-19.4449	-137.965077	0.000801	8.006372	2.712632	-0.000321
1494	1.4855e+02	-19.4786	-138.183082	0.000547	5.472710	1.854204	-0.000219
1495	1.4865e+02	-19.5155	-138.457607	0.000689	6.891561	2.334924	-0.000276
1496	1.4875e+02	-19.5556	-138.720021	0.000659	6.587521	2.231913	-0.000264
1497	1.4885e+02	-19.5941	-139.006658	0.000720	7.195600	2.437935	-0.000288
1498	1.4895e+02	-19.6390	-139.337703	0.000831	8.310412	2.815644	-0.000333
1499	1.4905e+02	-19.6775	-139.575894	0.000598	5.979443	2.025890	-0.000239
1500	1.4915e+02	-19.7224	-139.826196	0.000628	6.283482	2.128901	-0.000252
1501	1.4925e+02	-19.7561	-140.128981	0.000760	7.600986	2.575284	-0.000304
1502	1.4935e+02	-19.8010	-140.423692	0.000740	7.398293	2.506610	-0.000296
1503	1.4945e+02	-19.8363	-140.682069	0.000649	6.486175	2.197576	-0.000260
1504	1.4955e+02	-19.8700	-140.883926	0.000507	5.067324	1.716856	-0.000203
1505	1.4965e+02	-19.9133	-141.202860	0.000801	8.006372	2.712632	-0.000321
1506	1.4975e+02	-19.9534	-141.485459	0.000709	7.094254	2.403598	-0.000284
1507	1.4985e+02	-20.0016	-141.768059	0.000709	7.094254	2.403598	-0.000284
1508	1.4995e+02	-19.9551	-141.642907	0.000314	3.141741	1.064451	0.000126
1509	1.5005e+02	-19.9133	-141.566202	0.000193	1.925583	0.652405	0.000077
1510	1.5015e+02	-19.8748	-141.493533	0.000182	1.824237	0.618068	0.000073
1511	1.5025e+02	-19.8347	-141.360308	0.000334	3.344434	1.133125	0.000134
1512	1.5034e+02	-19.7978	-141.279565	0.000203	2.026930	0.686742	0.000081
1513	1.5044e+02	-19.7625	-141.142303	0.000345	3.445780	1.167462	0.000138
1514	1.5054e+02	-19.7080	-141.053486	0.000223	2.229623	0.755417	0.000089
1515	1.5064e+02	-19.6823	-140.904112	0.000375	3.749820	1.270473	0.000150
1516	1.5074e+02	-19.6310	-140.791072	0.000284	2.837702	0.961439	0.000114
1517	1.5084e+02	-19.5909	-140.673995	0.000294	2.939048	0.995776	0.000118
1518	1.5094e+02	-19.5540	-140.560955	0.000284	2.837702	0.961439	0.000114
1519	1.5104e+02	-19.5091	-140.431767	0.000324	3.243087	1.098788	0.000130
1520	1.5114e+02	-19.4754	-140.274318	0.000395	3.952513	1.339148	0.000158
1521	1.5124e+02	-19.4353	-140.141093	0.000334	3.344434	1.133125	0.000134
1522	1.5134e+02	-19.3968	-139.999793	0.000355	3.547127	1.201799	0.000142
1523	1.5144e+02	-19.3631	-139.854456	0.000365	3.648473	1.236136	0.000146
1524	1.5154e+02	-19.3102	-139.725268	0.000324	3.243087	1.098788	0.000130
1525	1.5164e+02	-19.2797	-139.592042	0.000334	3.344434	1.133125	0.000134
1526	1.5174e+02	-19.2396	-139.414408	0.000446	4.459245	1.510833	0.000179
1527	1.5184e+02	-19.1946	-139.305406	0.000274	2.736355	0.927102	0.000110
1528	1.5194e+02	-19.1658	-139.184292	0.000304	3.040395	1.030114	0.000122
1529	1.5204e+02	-19.1160	-138.966286	0.000547	5.472710	1.854204	0.000219
1530	1.5214e+02	-19.0743	-138.812875	0.000385	3.851166	1.304810	0.000154
1531	1.5224e+02	-19.0310	-138.703873	0.000274	2.736355	0.927102	0.000110
1532	1.5233e+02	-18.9989	-138.522201	0.000456	4.560592	1.545170	0.000183
1533	1.5243e+02	-18.9588	-138.388976	0.000334	3.344434	1.133125	0.000134
1534	1.5253e+02	-18.9139	-138.215379	0.000436	4.357899	1.476496	0.000174
1535	1.5263e+02	-18.8850	-138.049857	0.000416	4.155206	1.407822	0.000166
1536	1.5273e+02	-18.8465	-137.896445	0.000385	3.851166	1.304810	0.000154
1537	1.5283e+02	-18.8064	-137.726886	0.000426	4.256552	1.442159	0.000170
1538	1.5293e+02	-18.7663	-137.609809	0.000294	2.939048	0.995776	0.000118
1539	1.5303e+02	-18.7262	-137.464472	0.000365	3.648473	1.236136	0.000146
1540	1.5313e+02	-18.6781	-137.222244	0.000608	6.080789	2.060227	0.000243
1541	1.5323e+02	-18.6428	-137.084981	0.000345	3.445780	1.167462	0.000138
1542	1.5333e+02	-18.6027	-136.903310	0.000456	4.560592	1.545170	0.000183
1543	1.5343e+02	-18.5594	-136.753936	0.000375	3.749820	1.270473	0.000150
1544	1.5353e+02	-18.5241	-136.588413	0.000416	4.155206	1.407822	0.000166
1545	1.5363e+02	-18.4872	-136.430965	0.000395	3.952513	1.339148	0.000158
1546	1.5373e+02	-18.4407	-136.229108	0.000507	5.067324	1.716856	0.000203
1547	1.5383e+02	-18.4054	-136.071660	0.000395	3.952513	1.339148	0.000158
1548	1.5393e+02	-18.3556	-135.914212	0.000395	3.952513	1.339148	0.000158
1549	1.5403e+02	-18.3300	-135.728504	0.000466	4.661938	1.579507	0.000187
1550	1.5413e+02	-18.2818	-135.534721	0.000486	4.864631	1.648182	0.000195
1551	1.5422e+02	-18.2305	-135.409570	0.000314	3.141741	1.064451	0.000126
1552	1.5432e+02	-18.2032	-135.248084	0.000405	4.053859	1.373485	0.000162
1553	1.5442e+02	-18.1535	-135.070450	0.000446	4.459245	1.510833	0.000179
1554	1.5452e+02	-18.1166	-134.868594	0.000507	5.067324	1.716856	0.000203
1555	1.5462e+02	-18.0829	-134.662700	0.000517	5.168671	1.751193	0.000207
1556	1.5472e+02	-18.0380	-134.529474	0.000334	3.344434	1.133125	0.000134
1557	1.5482e+02	-18.0043	-134.367989	0.000405	4.053859	1.373485	0.000162
1558	1.5492e+02	-17.9578	-134.178243	0.000476	4.763285	1.613845	0.000191
1559	1.5502e+02	-17.9241	-134.000609	0.000446	4.459245	1.510833	0.000179
1560	1.5512e+02	-17.8744	-133.814901	0.000466	4.661938	1.579507	0.000187
1561	1.5522e+02	-17.8455	-133.592859	0.000557	5.574057	1.888542	0.000223
1562	1.5532e+02	-17.7990	-133.427336	0.000416	4.155206	1.407822	0.000166
1563	1.5542e+02	-17.7621	-133.277962	0.000375	3.749820	1.270473	0.000150
1564	1.5552e+02	-17.7300	-133.092254	0.000466	4.661938	1.579507	0.000187
1565	1.5562e+02	-17.6819	-132.882323	0.000527	5.270017	1.785530	0.000211
1566	1.5572e+02	-17.6417	-132.724875	0.000395	3.952513	1.339148	0.000158
1567	1.5582e+02	-17.6049	-132.571463	0.000385	3.851166	1.304810	0.000154
1568	1.5592e+02	-17.5631	-132.337309	0.000588	5.878096	1.991553	0.000235
1569	1.5602e+02	-17.5246	-132.183898	0.000385	3.851166	1.304810	0.000154
1570	1.5612e+02	-17.4974	-132.034524	0.000375	3.749820	1.270473	0.000150
1571	1.5622e+02	-17.4428	-131.816519	0.000547	5.472710	1.854204	0.000219
1572	1.5631e+02	-17.3947	-131.614662	0.000507	5.067324	1.716856	0.000203
1573	1.5641e+02	-17.3674	-131.404731	0.000527	5.270017	1.785530	0.000211
1574	1.5651e+02	-17.3209	-131.243246	0.000405	4.053859	1.373485	0.000162
1575	1.5661e+02	-17.2824	-131.069649	0.000436	4.357899	1.476496	0.000174
1576	1.5671e+02	-17.2439	-130.851644	0.000547	5.472710	1.854204	0.000219
1577	1.5681e+02	-17.2070	-130.710344	0.000355	3.547127	1.201799	0.000142
1578	1.5691e+02	-17.1701	-130.512524	0.000497	4.965978	1.682519	0.000199
1579	1.5701e+02	-17.1252	-130.326816	0.000466	4.661938	1.579507	0.000187
1580	1.5711e+02	-17.0835	-130.161293	0.000416	4.155206	1.407822	0.000166
1581	1.5721e+02	-17.0466	-129.935214	0.000568	5.675403	1.922879	0.000227
1582	1.5731e+02	-17.0017	-129.745468	0.000476	4.763285	1.613845	0.000191
1583	1.5741e+02	-16.9712	-129.571872	0.000436	4.357899	1.476496	0.000174
1584	1.5751e+02	-16.9263	-129.357903	0.000537	5.371364	1.819867	0.000215
1585	1.5761e+02	-16.8942	-129.180269	0.000446	4.459245	1.510833	0.000179
1586	1.5771e+02	-16.8444	-128.958227	0.000557	5.574057	1.888542	0.000223
1587	1.5781e+02	-16.8140	-128.800779	0.000395	3.952513	1.339148	0.000158
1588	1.5791e+02	-16.7578	-128.590848	0.000527	5.270017	1.785530	0.000211
1589	1.5801e+02	-16.7289	-128.384954	0.000517	5.168671	1.751193	0.000207
1590	1.5811e+02	-16.6856	-128.247691	0.000345	3.445780	1.167462	0.000138
1591	1.5821e+02	-16.6439	-128.001426	0.000618	6.182136	2.094564	0.000248
1592	1.5830e+02	-16.6038	-127.848015	0.000385	3.851166	1.304810	0.000154
1593	1.5840e+02	-16.5717	-127.625972	0.000557	5.574057	1.888542	0.000223
1594	1.5850e+02	-16.5380	-127.456412	0.000426	4.256552	1.442159	0.000170
1595	1.5860e+02	-16.4851	-127.234370	0.000557	5.574057	1.888542	0.000223
1596	1.5870e+02	-16.4482	-127.060773	0.000436	4.357899	1.476496	0.000174
1597	1.5880e+02	-16.4145	-126.858916	0.000507	5.067324	1.716856	0.000203
1598	1.5890e+02	-16.3696	-126.665134	0.000486	4.864631	1.648182	0.000195
1599	1.5900e+02	-16.3279	-126.463277	0.000507	5.067324	1.716856	0.000203
1600	1.5910e+02	-16.2878	-126.273532	0.000476	4.763285	1.613845	0.000191
1601	1.5920e+02	-16.2589	-126.099935	0.000436	4.357899	1.476496	0.000174
1602	1.5930e+02	-16.2044	-125.902115	0.000497	4.965978	1.682519	0.000199
1603	1.5940e+02	-16.1626	-125.688147	0.000537	5.371364	1.819867	0.000215
1604	1.5950e+02	-16.1274	-125.486290	0.000507	5.067324	1.716856	0.000203
1605	1.5960e+02	-16.1049	-125.312693	0.000436	4.357899	1.476496	0.000174
1606	1.5970e+02	-16.0439	-125.082577	0.000578	5.776750	1.957216	0.000231
1607	1.5980e+02	-16.0102	-124.900905	0.000456	4.560592	1.545170	0.000183
1608	1.5990e+02	-15.9669	-124.690974	0.000527	5.270017	1.785530	0.000211
1609	1.6000e+02	-15.9300	-124.509303	0.000456	4.560592	1.545170	0.000183
1610	1.6010e+02	-15.8931	-124.327632	0.000456	4.560592	1.545170	0.000183
1611	1.6019e+02	-15.8514	-124.097515	0.000578	5.776750	1.957216	0.000231
1612	1.6029e+02	-15.8049	-123.895659	0.000507	5.067324	1.716856	0.000203
1613	1.6039e+02	-15.7728	-123.677653	0.000547	5.472710	1.854204	0.000219
1614	1.6049e+02	-15.7423	-123.504056	0.000436	4.357899	1.476496	0.000174
1615	1.6059e+02	-15.6862	-123.302200	0.000507	5.067324	1.716856	0.000203
1616	1.6069e+02	-15.6557	-123.064009	0.000598	5.979443	2.025890	0.000239
1617	1.6079e+02	-15.6172	-122.894449	0.000426	4.256552	1.442159	0.000170
1618	1.6089e+02	-15.5723	-122.668369	0.000568	5.675403	1.922879	0.000227
1619	1.6099e+02	-15.5306	-122.490735	0.000446	4.459245	1.510833	0.000179
1620	1.6109e+02	-15.4937	-122.272730	0.000547	5.472710	1.854204	0.000219
1621	1.6119e+02	-15.4536	-122.034539	0.000598	5.979443	2.025890	0.000239
1622	1.6129e+02	-15.4167	-121.844794	0.000476	4.763285	1.613845	0.000191
1623	1.6139e+02	-15.3702	-121.655048	0.000476	4.763285	1.613845	0.000191
1624	1.6149e+02	-15.3300	-121.441080	0.000537	5.371364	1.819867	0.000215
1625	1.6159e+02	-15.2915	-121.247298	0.000486	4.864631	1.648182	0.000195
1626	1.6169e+02	-15.2611	-121.029292	0.000547	5.472710	1.854204	0.000219
1627	1.6179e+02	-15.2210	-120.839547	0.000476	4.763285	1.613845	0.000191
1628	1.6189e+02	-15.1793	-120.637690	0.000507	5.067324	1.716856	0.000203
1629	1.6199e+02	-15.1327	-120.427759	0.000527	5.270017	1.785530	0.000211
1630	1.6209e+02	-15.0910	-120.250125	0.000446	4.459245	1.510833	0.000179
1631	1.6219e+02	-15.0525	-119.983674	0.000669	6.688868	2.266250	0.000268
1632	1.6228e+02	-15.0188	-119.777780	0.000517	5.168671	1.751193	0.000207
1633	1.6238e+02	-14.9675	-119.547663	0.000578	5.776750	1.957216	0.000231
1634	1.6248e+02	-14.9354	-119.374067	0.000436	4.357899	1.476496	0.000174
1635	1.6258e+02	-14.8953	-119.143950	0.000578	5.776750	1.957216	0.000231
1636	1.6268e+02	-14.8568	-118.929982	0.000537	5.371364	1.819867	0.000215
1637	1.6278e+02	-14.8103	-118.711976	0.000547	5.472710	1.854204	0.000219
1638	1.6288e+02	-14.7766	-118.506082	0.000517	5.168671	1.751193	0.000207
1639	1.6298e+02	-14.7269	-118.280003	0.000568	5.675403	1.922879	0.000227
1640	1.6308e+02	-14.7140	-118.049886	0.000578	5.776750	1.957216	0.000231
1641	1.6318e+02	-14.6595	-117.872252	0.000446	4.459245	1.510833	0.000179
1642	1.6328e+02	-14.6210	-117.638098	0.000588	5.878096	1.991553	0.000235
1643	1.6338e+02	-14.5809	-117.444316	0.000486	4.864631	1.648182	0.000195
1644	1.6348e+02	-14.5376	-117.234385	0.000527	5.270017	1.785530	0.000211
1645	1.6358e+02	-14.4991	-116.996194	0.000598	5.979443	2.025890	0.000239
1646	1.6368e+02	-14.4541	-116.798374	0.000497	4.965978	1.682519	0.000199
1647	1.6378e+02	-14.4060	-116.580369	0.000547	5.472710	1.854204	0.000219
1648	1.6388e+02	-14.3836	-116.326029	0.000638	6.384829	2.163238	0.000256
1649	1.6398e+02	-14.3402	-116.144358	0.000456	4.560592	1.545170	0.000183
1650	1.6408e+02	-14.3049	-115.978835	0.000416	4.155206	1.407822	0.000166
1651	1.6418e+02	-14.2616	-115.692199	0.000720	7.195600	2.437935	0.000288
1652	1.6427e+02	-14.2231	-115.482268	0.000527	5.270017	1.785530	0.000211
1653	1.6437e+02	-14.1782	-115.276374	0.000517	5.168671	1.751193	0.000207
1654	1.6447e+02	-14.1397	-115.078554	0.000497	4.965978	1.682519	0.000199
1655	1.6457e+02	-14.0948	-114.816140	0.000659	6.587521	2.231913	0.000264
1656	1.6467e+02	-14.0595	-114.614284	0.000507	5.067324	1.716856	0.000203
1657	1.6477e+02	-14.0290	-114.392241	0.000557	5.574057	1.888542	0.000223
1658	1.6487e+02	-13.9841	-114.154050	0.000598	5.979443	2.025890	0.000239
1659	1.6497e+02	-13.9344	-113.927971	0.000568	5.675403	1.922879	0.000227
1660	1.6507e+02	-13.8959	-113.726114	0.000507	5.067324	1.716856	0.000203
1661	1.6517e+02	-13.8509	-113.500034	0.000568	5.675403	1.922879	0.000227
1662	1.6527e+02	-13.8237	-113.269917	0.000578	5.776750	1.957216	0.000231
1663	1.6537e+02	-13.7820	-113.080172	0.000476	4.763285	1.613845	0.000191
1664	1.6547e+02	-13.7354	-112.890427	0.000476	4.763285	1.613845	0.000191
1665	1.6557e+02	-13.7034	-112.619939	0.000679	6.790214	2.300587	0.000272
1666	1.6567e+02	-13.6665	-112.418082	0.000507	5.067324	1.716856	0.000203
1667	1.6577e+02	-13.6183	-112.196039	0.000557	5.574057	1.888542	0.000223
1668	1.6587e+02	-13.5814	-111.953811	0.000608	6.080789	2.060227	0.000243
1669	1.6597e+02	-13.5269	-111.719657	0.000588	5.878096	1.991553	0.000235
1670	1.6607e+02	-13.5044	-111.497615	0.000557	5.574057	1.888542	0.000223
1671	1.6616e+02	-13.4579	-111.299795	0.000497	4.965978	1.682519	0.000199
1672	1.6626e+02	-13.4194	-111.057567	0.000608	6.080789	2.060227	0.000243
1673	1.6636e+02	-13.3825	-110.835525	0.000557	5.574057	1.888542	0.000223
1674	1.6646e+02	-13.3408	-110.637705	0.000497	4.965978	1.682519	0.000199
1675	1.6656e+02	-13.3215	-110.391440	0.000618	6.182136	2.094564	0.000248
1676	1.6666e+02	-13.2622	-110.165360	0.000568	5.675403	1.922879	0.000227
1677	1.6676e+02	-13.2221	-109.943318	0.000557	5.574057	1.888542	0.000223
1678	1.6686e+02	-13.1820	-109.680904	0.000659	6.587521	2.231913	0.000264
1679	1.6696e+02	-13.1258	-109.551715	0.000324	3.243087	1.098788	0.000130
1680	1.6706e+02	-13.0889	-109.261042	0.000730	7.296947	2.472273	0.000292
1681	1.6716e+02	-13.0697	-109.059185	0.000507	5.067324	1.716856	0.000203
1682	1.6726e+02	-13.0280	-108.784660	0.000689	6.891561	2.334924	0.000276
1683	1.6736e+02	-12.9750	-108.566654	0.000547	5.472710	1.854204	0.000219
1684	1.6746e+02	-12.9365	-108.328463	0.000598	5.979443	2.025890	0.000239
1685	1.6756e+02	-12.8980	-108.094309	0.000588	5.878096	1.991553	0.000235
1686	1.6766e+02	-12.8708	-107.920713	0.000436	4.357899	1.476496	0.000174
1687	1.6776e+02	-12.8162	-107.710781	0.000527	5.270017	1.785530	0.000211
1688	1.6786e+02	-12.7873	-107.440293	0.000679	6.790214	2.300587	0.000272
1689	1.6796e+02	-12.7424	-107.194028	0.000618	6.182136	2.094564	0.000248
1690	1.6806e+02	-12.6975	-106.988134	0.000517	5.168671	1.751193	0.000207
1691	1.6816e+02	-12.6526	-106.749943	0.000598	5.979443	2.025890	0.000239
1692	1.6825e+02	-12.6189	-106.519826	0.000578	5.776750	1.957216	0.000231
1693	1.6835e+02	-12.5900	-106.245301	0.000689	6.891561	2.334924	0.000276
1694	1.6845e+02	-12.5419	-106.059593	0.000466	4.661938	1.579507	0.000187
1695	1.6855e+02	-12.5082	-105.817365	0.000608	6.080789	2.060227	0.000243
1696	1.6865e+02	-12.4681	-105.575137	0.000608	6.080789	2.060227	0.000243
1697	1.6875e+02	-12.4232	-105.377317	0.000497	4.965978	1.682519	0.000199
1698	1.6885e+02	-12.3799	-105.122977	0.000638	6.384829	2.163238	0.000256
1699	1.6895e+02	-12.3510	-104.909009	0.000537	5.371364	1.819867	0.000215
1700	1.6905e+02	-12.3045	-104.622373	0.000720	7.195600	2.437935	0.000288
1701	1.6915e+02	-12.2676	-104.416479	0.000517	5.168671	1.751193	0.000207
1702	1.6925e+02	-12.2243	-104.162139	0.000638	6.384829	2.163238	0.000256
1703	1.6935e+02	-12.1841	-103.948171	0.000537	5.371364	1.819867	0.000215
1704	1.6945e+02	-12.1473	-103.693831	0.000638	6.384829	2.163238	0.000256
1705	1.6955e+02	-12.1087	-103.471789	0.000557	5.574057	1.888542	0.000223
1706	1.6965e+02	-12.0751	-103.233598	0.000598	5.979443	2.025890	0.000239
1707	1.6975e+02	-12.0285	-102.987333	0.000618	6.182136	2.094564	0.000248
1708	1.6985e+02	-11.9788	-102.769327	0.000547	5.472710	1.854204	0.000219
1709	1.6995e+02	-11.9387	-102.531136	0.000598	5.979443	2.025890	0.000239
1710	1.7005e+02	-11.9050	-102.305057	0.000568	5.675403	1.922879	0.000227
1711	1.7015e+02	-11.8729	-102.050717	0.000638	6.384829	2.163238	0.000256
1712	1.7024e+02	-11.8280	-101.848860	0.000507	5.067324	1.716856	0.000203
1713	1.7034e+02	-11.7831	-101.566261	0.000709	7.094254	2.403598	0.000284
1714	1.7044e+02	-11.7510	-101.384590	0.000456	4.560592	1.545170	0.000183
1715	1.7054e+02	-11.7141	-101.118139	0.000669	6.688868	2.266250	0.000268
1716	1.7064e+02	-11.6660	-100.888022	0.000578	5.776750	1.957216	0.000231
1717	1.7074e+02	-11.6275	-100.674054	0.000537	5.371364	1.819867	0.000215
1718	1.7084e+02	-11.5874	-100.423751	0.000628	6.283482	2.128901	0.000252
1719	1.7094e+02	-11.5553	-100.181523	0.000608	6.080789	2.060227	0.000243
1720	1.7104e+02	-11.5088	-99.943332	0.000598	5.979443	2.025890	0.000239
1721	1.7114e+02	-11.4671	-99.709178	0.000588	5.878096	1.991553	0.000235
1722	1.7124e+02	-11.4366	-99.475025	0.000588	5.878096	1.991553	0.000235
1723	1.7134e+02	-11.3820	-99.196462	0.000699	6.992907	2.369261	0.000280
1724	1.7144e+02	-11.3419	-99.010754	0.000466	4.661938	1.579507	0.000187
1725	1.7154e+02	-11.3082	-98.752377	0.000649	6.486175	2.197576	0.000260
1726	1.7164e+02	-11.2729	-98.473815	0.000699	6.992907	2.369261	0.000280
1727	1.7174e+02	-11.2280	-98.235624	0.000598	5.979443	2.025890	0.000239
1728	1.7184e+02	-11.1943	-98.066064	0.000426	4.256552	1.442159	0.000170
1729	1.7194e+02	-11.1510	-97.831910	0.000588	5.878096	1.991553	0.000235
1730	1.7204e+02	-11.1189	-97.533162	0.000750	7.499640	2.540947	0.000300
1731	1.7213e+02	-11.0740	-97.319194	0.000537	5.371364	1.819867	0.000215
1732	1.7223e+02	-11.0307	-97.093114	0.000568	5.675403	1.922879	0.000227
1733	1.7233e+02	-11.0002	-96.875109	0.000547	5.472710	1.854204	0.000219
1734	1.7243e+02	-10.9537	-96.592510	0.000709	7.094254	2.403598	0.000284
1735	1.7253e+02	-10.9088	-96.338170	0.000638	6.384829	2.163238	0.000256
1736	1.7263e+02	-10.8751	-96.091905	0.000618	6.182136	2.094564	0.000248
1737	1.7273e+02	-10.8254	-95.914271	0.000446	4.459245	1.510833	0.000179
1738	1.7283e+02	-10.7949	-95.659931	0.000638	6.384829	2.163238	0.000256
1739	1.7293e+02	-10.7484	-95.421740	0.000598	5.979443	2.025890	0.000239
1740	1.7303e+02	-10.7066	-95.155289	0.000669	6.688868	2.266250	0.000268
1741	1.7313e+02	-10.6778	-94.929210	0.000568	5.675403	1.922879	0.000227
1742	1.7323e+02	-10.6441	-94.674870	0.000638	6.384829	2.163238	0.000256
1743	1.7333e+02	-10.5960	-94.432642	0.000608	6.080789	2.060227	0.000243
1744	1.7343e+02	-10.5510	-94.210600	0.000557	5.574057	1.888542	0.000223
1745	1.7353e+02	-10.5141	-93.944149	0.000669	6.688868	2.266250	0.000268
1746	1.7363e+02	-10.4772	-93.746329	0.000497	4.965978	1.682519	0.000199
1747	1.7373e+02	-10.4243	-93.479878	0.000669	6.688868	2.266250	0.000268
1748	1.7383e+02	-10.3938	-93.164981	0.000791	7.905026	2.678295	0.000316
1749	1.7393e+02	-10.3457	-92.967162	0.000497	4.965978	1.682519	0.000199
1750	1.7403e+02	-10.3184	-92.757231	0.000527	5.270017	1.785530	0.000211
1751	1.7413e+02	-10.2639	-92.458483	0.000750	7.499640	2.540947	0.000300
1752	1.7422e+02	-10.2334	-92.256626	0.000507	5.067324	1.716856	0.000203
1753	1.7432e+02	-10.1837	-91.974026	0.000709	7.094254	2.403598	0.000284
1754	1.7442e+02	-10.1660	-91.776207	0.000497	4.965978	1.682519	0.000199
1755	1.7452e+02	-10.1179	-91.501682	0.000689	6.891561	2.334924	0.000276
1756	1.7462e+02	-10.0778	-91.231193	0.000679	6.790214	2.300587	0.000272
1757	1.7472e+02	-10.0377	-91.041448	0.000476	4.763285	1.613845	0.000191
1758	1.7482e+02	-9.9960	-90.787108	0.000638	6.384829	2.163238	0.000256
1759	1.7492e+02	-9.9511	-90.476249	0.000780	7.803679	2.643958	0.000312
1760	1.7502e+02	-9.9190	-90.234021	0.000608	6.080789	2.060227	0.000243
1761	1.7512e+02	-9.8628	-90.032164	0.000507	5.067324	1.716856	0.000203
1762	1.7522e+02	-9.8372	-89.761676	0.000679	6.790214	2.300587	0.000272
1763	1.7532e+02	-9.7954	-89.555782	0.000517	5.168671	1.751193	0.000207
1764	1.7542e+02	-9.7602	-89.269145	0.000720	7.195600	2.437935	0.000288
1765	1.7552e+02	-9.7136	-89.026917	0.000608	6.080789	2.060227	0.000243
1766	1.7562e+02	-9.6703	-88.800838	0.000568	5.675403	1.922879	0.000227
1767	1.7572e+02	-9.6334	-88.554572	0.000618	6.182136	2.094564	0.000248
1768	1.7582e+02	-9.6029	-88.320419	0.000588	5.878096	1.991553	0.000235
1769	1.7592e+02	-9.5548	-88.070116	0.000628	6.283482	2.128901	0.000252
1770	1.7602e+02	-9.5115	-87.807702	0.000659	6.587521	2.231913	0.000264
1771	1.7612e+02	-9.4714	-87.549326	0.000649	6.486175	2.197576	0.000260
1772	1.7621e+02	-9.4377	-87.323246	0.000568	5.675403	1.922879	0.000227
1773	1.7631e+02	-9.3976	-87.072944	0.000628	6.283482	2.128901	0.000252
1774	1.7641e+02	-9.3543	-86.818604	0.000638	6.384829	2.163238	0.000256
1775	1.7651e+02	-9.3126	-86.564264	0.000638	6.384829	2.163238	0.000256
1776	1.7661e+02	-9.2853	-86.322036	0.000608	6.080789	2.060227	0.000243
1777	1.7671e+02	-9.2340	-86.063660	0.000649	6.486175	2.197576	0.000260
1778	1.7681e+02	-9.2003	-85.793172	0.000679	6.790214	2.300587	0.000272
1779	1.7691e+02	-9.1521	-85.575166	0.000547	5.472710	1.854204	0.000219
1780	1.7701e+02	-9.1169	-85.324864	0.000628	6.283482	2.128901	0.000252
1781	1.7711e+02	-9.0784	-85.026116	0.000750	7.499640	2.540947	0.000300
1782	1.7721e+02	-9.0431	-84.820222	0.000517	5.168671	1.751193	0.000207
1783	1.7731e+02	-8.9997	-84.525511	0.000740	7.398293	2.506610	0.000296
1784	1.7741e+02	-8.9596	-84.315580	0.000527	5.270017	1.785530	0.000211
1785	1.7751e+02	-8.9147	-84.020869	0.000740	7.398293	2.506610	0.000296
1786	1.7761e+02	-8.8826	-83.778641	0.000608	6.080789	2.060227	0.000243
1787	1.7771e+02	-8.8425	-83.528338	0.000628	6.283482	2.128901	0.000252
1788	1.7781e+02	-8.7992	-83.261887	0.000669	6.688868	2.266250	0.000268
1789	1.7791e+02	-8.7607	-82.987362	0.000689	6.891561	2.334924	0.000276
1790	1.7801e+02	-8.7238	-82.761283	0.000568	5.675403	1.922879	0.000227
1791	1.7810e+02	-8.6821	-82.510980	0.000628	6.283482	2.128901	0.000252
1792	1.7820e+02	-8.6356	-82.232418	0.000699	6.992907	2.369261	0.000280
1793	1.7830e+02	-8.5987	-81.974041	0.000649	6.486175	2.197576	0.000260
1794	1.7840e+02	-8.5586	-81.711627	0.000659	6.587521	2.231913	0.000264
1795	1.7850e+02	-8.5265	-81.453251	0.000649	6.486175	2.197576	0.000260
1796	1.7860e+02	-8.4816	-81.227171	0.000568	5.675403	1.922879	0.000227
1797	1.7870e+02	-8.4511	-80.964757	0.000659	6.587521	2.231913	0.000264
1798	1.7880e+02	-8.3966	-80.690232	0.000689	6.891561	2.334924	0.000276
1799	1.7890e+02	-8.3564	-80.395521	0.000740	7.398293	2.506610	0.000296
1800	1.7900e+02	-8.3324	-80.153293	0.000608	6.080789	2.060227	0.000243
1801	1.7910e+02	-8.2859	-79.886842	0.000669	6.688868	2.266250	0.000268
1802	1.7920e+02	-8.2377	-79.600205	0.000720	7.195600	2.437935	0.000288
1803	1.7930e+02	-8.2008	-79.370089	0.000578	5.776750	1.957216	0.000231
1804	1.7940e+02	-8.1591	-79.144009	0.000568	5.675403	1.922879	0.000227
1805	1.7950e+02	-8.1222	-78.845261	0.000750	7.499640	2.540947	0.000300
1806	1.7960e+02	-8.0869	-78.590921	0.000638	6.384829	2.163238	0.000256
1807	1.7970e+02	-8.0420	-78.348693	0.000608	6.080789	2.060227	0.000243
1808	1.7980e+02	-8.0083	-78.074168	0.000689	6.891561	2.334924	0.000276
1809	1.7990e+02	-7.9602	-77.779457	0.000740	7.398293	2.506610	0.000296
1810	1.8000e+02	-7.9185	-77.541266	0.000598	5.979443	2.025890	0.000239
1811	1.8009e+02	-7.8880	-77.246555	0.000740	7.398293	2.506610	0.000296
1812	1.8019e+02	-7.8447	-76.980104	0.000669	6.688868	2.266250	0.000268
1813	1.8029e+02	-7.8014	-76.758062	0.000557	5.574057	1.888542	0.000223
1814	1.8039e+02	-7.7661	-76.467388	0.000730	7.296947	2.472273	0.000292
1815	1.8049e+02	-7.7260	-76.200937	0.000669	6.688868	2.266250	0.000268
1816	1.8059e+02	-7.6939	-75.954672	0.000618	6.182136	2.094564	0.000248
1817	1.8069e+02	-7.6474	-75.668035	0.000720	7.195600	2.437935	0.000288
1818	1.8079e+02	-7.5993	-75.425807	0.000608	6.080789	2.060227	0.000243
1819	1.8089e+02	-7.5624	-75.074576	0.000882	8.817144	2.987329	0.000353
1820	1.8099e+02	-7.5206	-74.868682	0.000517	5.168671	1.751193	0.000207
1821	1.8109e+02	-7.4902	-74.565897	0.000760	7.600986	2.575284	0.000304
1822	1.8119e+02	-7.4404	-74.331743	0.000588	5.878096	1.991553	0.000235
1823	1.8129e+02	-7.4100	-74.016847	0.000791	7.905026	2.678295	0.000316
1824	1.8139e+02	-7.3650	-73.786730	0.000578	5.776750	1.957216	0.000231
1825	1.8149e+02	-7.3313	-73.500093	0.000720	7.195600	2.437935	0.000288
1826	1.8159e+02	-7.2848	-73.253828	0.000618	6.182136	2.094564	0.000248
1827	1.8169e+02	-7.2543	-73.003526	0.000628	6.283482	2.128901	0.000252
1828	1.8179e+02	-7.2062	-72.712852	0.000730	7.296947	2.472273	0.000292
1829	1.8189e+02	-7.1693	-72.410067	0.000760	7.600986	2.575284	0.000304
1830	1.8199e+02	-7.1228	-72.159764	0.000628	6.283482	2.128901	0.000252
1831	1.8209e+02	-7.0891	-71.877165	0.000709	7.094254	2.403598	0.000284
1832	1.8218e+02	-7.0490	-71.667234	0.000527	5.270017	1.785530	0.000211
1833	1.8228e+02	-7.0009	-71.311966	0.000892	8.918491	3.021666	0.000357
1834	1.8238e+02	-6.9736	-71.033403	0.000699	6.992907	2.369261	0.000280
1835	1.8248e+02	-6.9223	-70.770989	0.000659	6.587521	2.231913	0.000264
1836	1.8258e+02	-6.8950	-70.464167	0.000770	7.702333	2.609621	0.000308
1837	1.8268e+02	-6.8453	-70.262310	0.000507	5.067324	1.716856	0.000203
1838	1.8278e+02	-6.8036	-69.955488	0.000770	7.702333	2.609621	0.000308
1839	1.8288e+02	-6.7699	-69.664814	0.000730	7.296947	2.472273	0.000292
1840	1.8298e+02	-6.7217	-69.418549	0.000618	6.182136	2.094564	0.000248
1841	1.8308e+02	-6.6864	-69.115764	0.000760	7.600986	2.575284	0.000304
1842	1.8318e+02	-6.6399	-68.861424	0.000638	6.384829	2.163238	0.000256
1843	1.8328e+02	-6.6126	-68.562676	0.000750	7.499640	2.540947	0.000300
1844	1.8338e+02	-6.5693	-68.324485	0.000598	5.979443	2.025890	0.000239
1845	1.8348e+02	-6.5244	-68.062071	0.000659	6.587521	2.231913	0.000264
1846	1.8358e+02	-6.4843	-67.767360	0.000740	7.398293	2.506610	0.000296
1847	1.8368e+02	-6.4410	-67.484761	0.000709	7.094254	2.403598	0.000284
1848	1.8378e+02	-6.4137	-67.194087	0.000730	7.296947	2.472273	0.000292
1849	1.8388e+02	-6.3704	-66.915525	0.000699	6.992907	2.369261	0.000280
1850	1.8398e+02	-6.3319	-66.645037	0.000679	6.790214	2.300587	0.000272
1851	1.8407e+02	-6.2822	-66.370512	0.000689	6.891561	2.334924	0.000276
1852	1.8417e+02	-6.2533	-66.071763	0.000750	7.499640	2.540947	0.000300
1853	1.8427e+02	-6.2116	-65.801275	0.000679	6.790214	2.300587	0.000272
1854	1.8437e+02	-6.1747	-65.522713	0.000699	6.992907	2.369261	0.000280
1855	1.8447e+02	-6.1282	-65.252225	0.000679	6.790214	2.300587	0.000272
1856	1.8457e+02	-6.0913	-64.977700	0.000689	6.891561	2.334924	0.000276
1857	1.8467e+02	-6.0592	-64.682989	0.000740	7.398293	2.506610	0.000296
1858	1.8477e+02	-6.0159	-64.404426	0.000699	6.992907	2.369261	0.000280
1859	1.8487e+02	-5.9710	-64.069344	0.000841	8.411758	2.849981	0.000337
1860	1.8497e+02	-5.9357	-63.847302	0.000557	5.574057	1.888542	0.000223
1861	1.8507e+02	-5.9084	-63.540479	0.000770	7.702333	2.609621	0.000308
1862	1.8517e+02	-5.8603	-63.245768	0.000740	7.398293	2.506610	0.000296
1863	1.8527e+02	-5.8089	-62.999503	0.000618	6.182136	2.094564	0.000248
1864	1.8537e+02	-5.7752	-62.696718	0.000760	7.600986	2.575284	0.000304
1865	1.8547e+02	-5.7399	-62.389896	0.000770	7.702333	2.609621	0.000308
1866	1.8557e+02	-5.6870	-62.127482	0.000659	6.587521	2.231913	0.000264
1867	1.8567e+02	-5.6581	-61.840845	0.000720	7.195600	2.437935	0.000288
1868	1.8577e+02	-5.6100	-61.550171	0.000730	7.296947	2.472273	0.000292
1869	1.8587e+02	-5.5699	-61.291795	0.000649	6.486175	2.197576	0.000260
1870	1.8597e+02	-5.5346	-60.976898	0.000791	7.905026	2.678295	0.000316
1871	1.8606e+02	-5.4881	-60.698336	0.000699	6.992907	2.369261	0.000280
1872	1.8616e+02	-5.4512	-60.419773	0.000699	6.992907	2.369261	0.000280
1873	1.8626e+02	-5.4207	-60.141211	0.000699	6.992907	2.369261	0.000280
1874	1.8636e+02	-5.3758	-59.798055	0.000861	8.614451	2.918655	0.000345
1875	1.8646e+02	-5.3325	-59.527566	0.000679	6.790214	2.300587	0.000272
1876	1.8656e+02	-5.2908	-59.273227	0.000638	6.384829	2.163238	0.000256
1877	1.8666e+02	-5.2555	-58.950256	0.000811	8.107719	2.746969	0.000325
1878	1.8676e+02	-5.2186	-58.695916	0.000638	6.384829	2.163238	0.000256
1879	1.8686e+02	-5.1737	-58.421391	0.000689	6.891561	2.334924	0.000276
1880	1.8696e+02	-5.1335	-58.146866	0.000689	6.891561	2.334924	0.000276
1881	1.8706e+02	-5.0999	-57.848118	0.000750	7.499640	2.540947	0.000300
1882	1.8716e+02	-5.0549	-57.569556	0.000699	6.992907	2.369261	0.000280
1883	1.8726e+02	-5.0261	-57.295030	0.000689	6.891561	2.334924	0.000276
1884	1.8736e+02	-4.9699	-56.951874	0.000861	8.614451	2.918655	0.000345
1885	1.8746e+02	-4.9282	-56.636977	0.000791	7.905026	2.678295	0.000316
1886	1.8756e+02	-4.9090	-56.427046	0.000527	5.270017	1.785530	0.000211
1887	1.8766e+02	-4.8592	-56.096001	0.000831	8.310412	2.815644	0.000333
1888	1.8776e+02	-4.8255	-55.785142	0.000780	7.803679	2.643958	0.000312
1889	1.8786e+02	-4.7774	-55.478319	0.000770	7.702333	2.609621	0.000308
1890	1.8796e+02	-4.7389	-55.207831	0.000679	6.790214	2.300587	0.000272
1891	1.8806e+02	-4.7036	-54.977714	0.000578	5.776750	1.957216	0.000231
1892	1.8815e+02	-4.6555	-54.638595	0.000851	8.513105	2.884318	0.000341
1893	1.8825e+02	-4.6138	-54.343884	0.000740	7.398293	2.506610	0.000296
1894	1.8835e+02	-4.5785	-54.065322	0.000699	6.992907	2.369261	0.000280
1895	1.8845e+02	-4.5384	-53.806945	0.000649	6.486175	2.197576	0.000260
1896	1.8855e+02	-4.5015	-53.516271	0.000730	7.296947	2.472273	0.000292
1897	1.8865e+02	-4.4678	-53.237709	0.000699	6.992907	2.369261	0.000280
1898	1.8875e+02	-4.4165	-52.914738	0.000811	8.107719	2.746969	0.000325
1899	1.8885e+02	-4.3796	-52.640213	0.000689	6.891561	2.334924	0.000276
1900	1.8895e+02	-4.3394	-52.333391	0.000770	7.702333	2.609621	0.000308
1901	1.8905e+02	-4.3074	-52.062902	0.000679	6.790214	2.300587	0.000272
1902	1.8915e+02	-4.2624	-51.723783	0.000851	8.513105	2.884318	0.000341
1903	1.8925e+02	-4.2223	-51.412924	0.000780	7.803679	2.643958	0.000312
1904	1.8935e+02	-4.1838	-51.166658	0.000618	6.182136	2.094564	0.000248
1905	1.8945e+02	-4.1502	-50.827539	0.000851	8.513105	2.884318	0.000341
1906	1.8955e+02	-4.0972	-50.585311	0.000608	6.080789	2.060227	0.000243
1907	1.8965e+02	-4.0603	-50.274451	0.000780	7.803679	2.643958	0.000312
1908	1.8975e+02	-4.0218	-49.955518	0.000801	8.006372	2.712632	0.000321
1909	1.8985e+02	-3.9833	-49.680992	0.000689	6.891561	2.334924	0.000276
1910	1.8995e+02	-3.9416	-49.374170	0.000770	7.702333	2.609621	0.000308
1911	1.9004e+02	-3.9015	-49.075422	0.000750	7.499640	2.540947	0.000300
1912	1.9014e+02	-3.8550	-48.792823	0.000709	7.094254	2.403598	0.000284
1913	1.9024e+02	-3.8197	-48.530409	0.000659	6.587521	2.231913	0.000264
1914	1.9034e+02	-3.7860	-48.195326	0.000841	8.411758	2.849981	0.000337
1915	1.9044e+02	-3.7443	-47.916764	0.000699	6.992907	2.369261	0.000280
1916	1.9054e+02	-3.6945	-47.593793	0.000811	8.107719	2.746969	0.000325
1917	1.9064e+02	-3.6609	-47.335417	0.000649	6.486175	2.197576	0.000260
1918	1.9074e+02	-3.6224	-47.020520	0.000791	7.905026	2.678295	0.000316
1919	1.9084e+02	-3.5887	-46.713698	0.000770	7.702333	2.609621	0.000308
1920	1.9094e+02	-3.5421	-46.410912	0.000760	7.600986	2.575284	0.000304
1921	1.9104e+02	-3.5085	-46.112164	0.000750	7.499640	2.540947	0.000300
1922	1.9114e+02	-3.4667	-45.865899	0.000618	6.182136	2.094564	0.000248
1923	1.9124e+02	-3.4266	-45.482371	0.000963	9.627916	3.262026	0.000385
1924	1.9134e+02	-3.3753	-45.219957	0.000659	6.587521	2.231913	0.000264
1925	1.9144e+02	-3.3512	-44.921209	0.000750	7.499640	2.540947	0.000300
1926	1.9154e+02	-3.3015	-44.658796	0.000659	6.587521	2.231913	0.000264
1927	1.9164e+02	-3.2710	-44.335825	0.000811	8.107719	2.746969	0.000325
1928	1.9174e+02	-3.2245	-44.033039	0.000760	7.600986	2.575284	0.000304
1929	1.9184e+02	-3.1812	-43.726217	0.000770	7.702333	2.609621	0.000308
1930	1.9194e+02	-3.1395	-43.431506	0.000740	7.398293	2.506610	0.000296
1931	1.9203e+02	-3.1058	-43.148907	0.000709	7.094254	2.403598	0.000284
1932	1.9213e+02	-3.0705	-42.838047	0.000780	7.803679	2.643958	0.000312
1933	1.9223e+02	-3.0208	-42.587745	0.000628	6.283482	2.128901	0.000252
1934	1.9233e+02	-2.9887	-42.268811	0.000801	8.006372	2.712632	0.000321
1935	1.9243e+02	-2.9502	-41.978137	0.000730	7.296947	2.472273	0.000292
1936	1.9253e+02	-2.9037	-41.655167	0.000811	8.107719	2.746969	0.000325
1937	1.9263e+02	-2.8716	-41.283750	0.000932	9.323877	3.159015	0.000373
1938	1.9273e+02	-2.8299	-41.089968	0.000486	4.864631	1.648182	0.000195
1939	1.9283e+02	-2.7914	-40.795257	0.000740	7.398293	2.506610	0.000296
1940	1.9293e+02	-2.7464	-40.419803	0.000943	9.425223	3.193352	0.000377
1941	1.9303e+02	-2.7144	-40.145278	0.000689	6.891561	2.334924	0.000276
1942	1.9313e+02	-2.6710	-39.798084	0.000872	8.715798	2.952992	0.000349
1943	1.9323e+02	-2.6197	-39.519522	0.000699	6.992907	2.369261	0.000280
1944	1.9333e+02	-2.5796	-39.236922	0.000709	7.094254	2.403598	0.000284
1945	1.9343e+02	-2.5443	-38.942211	0.000740	7.398293	2.506610	0.000296
1946	1.9353e+02	-2.5010	-38.623278	0.000801	8.006372	2.712632	0.000321
1947	1.9363e+02	-2.4705	-38.263973	0.000902	9.019837	3.056004	0.000361
1948	1.9373e+02	-2.4320	-38.001559	0.000659	6.587521	2.231913	0.000264
1949	1.9383e+02	-2.3855	-37.654365	0.000872	8.715798	2.952992	0.000349
1950	1.9393e+02	-2.3390	-37.363691	0.000730	7.296947	2.472273	0.000292
1951	1.9403e+02	-2.3085	-37.125500	0.000598	5.979443	2.025890	0.000239
1952	1.9412e+02	-2.2620	-36.774269	0.000882	8.817144	2.987329	0.000353
1953	1.9422e+02	-2.2251	-36.467447	0.000770	7.702333	2.609621	0.000308
1954	1.9432e+02	-2.1914	-36.205033	0.000659	6.587521	2.231913	0.000264
1955	1.9442e+02	-2.1465	-35.845728	0.000902	9.019837	3.056004	0.000361
1956	1.9452e+02	-2.1031	-35.567166	0.000699	6.992907	2.369261	0.000280
1957	1.9462e+02	-2.0663	-35.240158	0.000821	8.209065	2.781307	0.000329
1958	1.9472e+02	-2.0294	-34.917187	0.000811	8.107719	2.746969	0.000325
1959	1.9482e+02	-1.9860	-34.630550	0.000720	7.195600	2.437935	0.000288
1960	1.9492e+02	-1.9491	-34.311617	0.000801	8.006372	2.712632	0.000321
1961	1.9502e+02	-1.9122	-34.029017	0.000709	7.094254	2.403598	0.000284
1962	1.9512e+02	-1.8625	-33.697972	0.000831	8.310412	2.815644	0.000333
1963	1.9522e+02	-1.8320	-33.439595	0.000649	6.486175	2.197576	0.000260
1964	1.9532e+02	-1.7887	-33.076253	0.000912	9.121184	3.090341	0.000365
1965	1.9542e+02	-1.7470	-32.745208	0.000831	8.310412	2.815644	0.000333
1966	1.9552e+02	-1.7053	-32.474720	0.000679	6.790214	2.300587	0.000272
1967	1.9562e+02	-1.6700	-32.143675	0.000831	8.310412	2.815644	0.000333
1968	1.9572e+02	-1.6251	-31.800518	0.000861	8.614451	2.918655	0.000345
1969	1.9582e+02	-1.5850	-31.465436	0.000841	8.411758	2.849981	0.000337
1970	1.9592e+02	-1.5497	-31.207059	0.000649	6.486175	2.197576	0.000260
1971	1.9601e+02	-1.5144	-30.888126	0.000801	8.006372	2.712632	0.000321
1972	1.9611e+02	-1.4647	-30.540932	0.000872	8.715798	2.952992	0.000349
1973	1.9621e+02	-1.4342	-30.298704	0.000608	6.080789	2.060227	0.000243
1974	1.9631e+02	-1.3861	-29.947473	0.000882	8.817144	2.987329	0.000353
1975	1.9641e+02	-1.3588	-29.604316	0.000861	8.614451	2.918655	0.000345
1976	1.9651e+02	-1.3074	-29.321717	0.000709	7.094254	2.403598	0.000284
1977	1.9661e+02	-1.2689	-29.010857	0.000780	7.803679	2.643958	0.000312
1978	1.9671e+02	-1.2288	-28.683849	0.000821	8.209065	2.781307	0.000329
1979	1.9681e+02	-1.1887	-28.364916	0.000801	8.006372	2.712632	0.000321
1980	1.9691e+02	-1.1438	-28.070205	0.000740	7.398293	2.506610	0.000296
1981	1.9701e+02	-1.1149	-27.714937	0.000892	8.918491	3.021666	0.000357
1982	1.9711e+02	-1.0780	-27.387929	0.000821	8.209065	2.781307	0.000329
1983	1.9721e+02	-1.0331	-27.121478	0.000669	6.688868	2.266250	0.000268
1984	1.9731e+02	-0.9946	-26.770247	0.000882	8.817144	2.987329	0.000353
1985	1.9741e+02	-0.9513	-26.487648	0.000709	7.094254	2.403598	0.000284
1986	1.9751e+02	-0.9096	-26.180825	0.000770	7.702333	2.609621	0.000308
1987	1.9761e+02	-0.8663	-25.801335	0.000953	9.526570	3.227689	0.000381
1988	1.9771e+02	-0.8358	-25.542958	0.000649	6.486175	2.197576	0.000260
1989	1.9781e+02	-0.7909	-25.207876	0.000841	8.411758	2.849981	0.000337
1990	1.9791e+02	-0.7524	-24.856645	0.000882	8.817144	2.987329	0.000353
1991	1.9800e+02	-0.7107	-24.537711	0.000801	8.006372	2.712632	0.000321
1992	1.9810e+02	-0.6690	-24.218777	0.000801	8.006372	2.712632	0.000321
1993	1.9820e+02	-0.6353	-23.948289	0.000679	6.790214	2.300587	0.000272
1994	1.9830e+02	-0.5920	-23.580910	0.000922	9.222530	3.124678	0.000369
1995	1.9840e+02	-0.5567	-23.302347	0.000699	6.992907	2.369261	0.000280
1996	1.9850e+02	-0.5134	-22.951117	0.000882	8.817144	2.987329	0.000353
1997	1.9860e+02	-0.4684	-22.628146	0.000811	8.107719	2.746969	0.000325
1998	1.9870e+02	-0.4267	-22.313249	0.000791	7.905026	2.678295	0.000316
1999	1.9880e+02	-0.3995	-21.994316	0.000801	8.006372	2.712632	0.000321
2000	1.9890e+02	-0.3513	-21.639048	0.000892	8.918491	3.021666	0.000357
2001	1.9900e+02	-0.3128	-21.372597	0.000669	6.688868	2.266250	0.000268
2002	1.9910e+02	-0.2823	-21.049626	0.000811	8.107719	2.746969	0.000325
2003	1.9920e+02	-0.2342	-20.722618	0.000821	8.209065	2.781307	0.000329
2004	1.9930e+02	-0.1941	-20.375424	0.000872	8.715798	2.952992	0.000349
2005	1.9940e+02	-0.1540	-20.052453	0.000811	8.107719	2.746969	0.000325
2006	1.9950e+02	-0.1203	-19.757742	0.000740	7.398293	2.506610	0.000296
2007	1.9960e+02	-0.0786	-19.418623	0.000851	8.513105	2.884318	0.000341
2008	1.9970e+02	-0.0465	-19.091615	0.000821	8.209065	2.781307	0.000329
2009	1.9980e+02	0.0080	-18.744421	0.000821	8.209065	2.781307	0.000349

PMax (uC/cm2):	1.54e+02
Pr (uC/cm2):	1.14e+01
-Pr (uC/cm2):	-6.66e+00
PLoss (uC/cm2):	-6.66e+00
-Vc:	-1.42e+00
C (Max-Eff) (nF):	7.70e-01
K (Eff):	2.61e+03
Vert. (+/-Pr) Shift (uC/cm2):	2.38e+00
Offset (uC/cm2):	1.21e+01

A (Loop Area - uC/cm2·Volts):	3.89e-02



Hysteresis Version: 5.48.1 - Radiant Technologies, Inc., 1999 - 9/12/24

