»»»»»»»»»»»»»»»»»»»»»»»»»»»»»»»»»»»» Hysteresis ««««««««««««««««««««««««««««««««««««
»»»  Executed Version:	5.48.1
»»»  Vision Version:	5.48.4 (R)
»»»  Vision Compiled:	9/18/24
»»»  Driver Version:	5.47.0
»»»  Windows Version:	Windows 8 or 8.1
»»»  Processor Information:	x86 (AMD or Intel) - 32 Processors
»»»  Tester Name:	PMF21124-494 (100V)
»»»  Tester S/N:	PMF21124-494
»»»  Internal Amp Type:	100V RevK 270k
»»»  Internal Amp S/N:	iAB2-596/K     
»»»  Execution Count:	1
»»»»»»»»»»»»»»»»»»»»»»»»»»»»»»»»»»»»»»»»»»««««««««««««««««««««««««««««««««««««««««««

Stored:	6/18/2025 - 15:25:23
Configured:	06/18/25 09:47:30 AM
Executed:	06/18/25 03:25:00 PM

»»»»»»»»»»»»»»»»»»»»»»»»»»»»»»»»»»» Sample Info ««««««««««««««««««««««««««««««««««««
Sample Name:	
Lot Name:	
Wafer Name:	
Die Row/Column:	0/0
Capacitor Number:	0
Sample Area (cm2):	1.00e-04
Sample Thickness (microns):	3.00e-01

Amplifier:	Internal

»»»»»»»»»»»»»»»»»»»»»»»»»»»»»»»»»»» Tester Info «««««««««««««««««««««««««««««««««««
Tester Name:	PMF21124-494 (100V)
Tester Serial Number:	PMF21124-494
Return Signal Amp. Level:	0.19 [Index: 3]

»»»»»»»»»»»»»»»»»»»»»»»»»»»»»»»» Hysteresis Info ««««««««««««««««««««««««««««««««««
Task Name:	Hyst-554
Volts:	20.00
Field:	666.67 (kV/cm)
DCBias:	0.00
DCField:	0.00 (kV/cm)
Hysteresis Period (ms):	1.00e+00
Preset:	Enabled
Preset Delay (ms):	1.00e+03
Profile:	Standard Bipolar

»»»»»»»»»»»»»»»»»»»»»»»»»»»»»»»»»»»»»» Data «««««««««««««««««««««««««««««««««««««««
Points:	2001

Valid Data

Point	Time (ms)	Drive Voltage	Measured Polarization (uC/cm2)	Capacitance (uF)	Normalized Capacitance (uF/cm2)	Dielectric Constant	Instantaneous Current (mA)
   1	0.0000e+00	0.0160	-12.167858	0.000778	7.775749	2.634495	0.062110
   2	5.0000e-04	0.0321	-11.857310	0.000778	7.775749	2.634495	0.062110
   3	1.0000e-03	0.0545	-11.639523	0.000545	5.453123	1.847568	0.043557
   4	1.5000e-03	0.0786	-11.470132	0.000424	4.241318	1.436997	0.033878
   5	2.0000e-03	0.1364	-11.187816	0.000707	7.068863	2.394996	0.056463
   6	2.5000e-03	0.1749	-10.897432	0.000727	7.270830	2.463424	0.058077
   7	3.0000e-03	0.2118	-10.667546	0.000576	5.756074	1.950211	0.045977
   8	3.5000e-03	0.2438	-10.469924	0.000495	4.948204	1.676497	0.039524
   9	4.0000e-03	0.2888	-10.272302	0.000495	4.948204	1.676497	0.039524
  10	4.5000e-03	0.3369	-9.961754	0.000778	7.775749	2.634495	0.062110
  11	5.0000e-03	0.3658	-9.590708	0.000929	9.290505	3.147708	0.074209
  12	5.5000e-03	0.4187	-9.320491	0.000677	6.765912	2.292353	0.054044
  13	6.0000e-03	0.4540	-9.042207	0.000697	6.967879	2.360781	0.055657
  14	6.5000e-03	0.4925	-8.711493	0.000828	8.280668	2.805566	0.066143
  15	7.0000e-03	0.5342	-8.574368	0.000343	3.433448	1.163284	0.027425
  16	7.5000e-03	0.5711	-8.167025	0.001020	10.199359	3.455636	0.081469
  17	8.0000e-03	0.6128	-7.912939	0.000636	6.361976	2.155496	0.050817
  18	8.5000e-03	0.6545	-7.832277	0.000202	2.019675	0.684284	0.016132
  19	9.0000e-03	0.6978	-7.412835	0.001050	10.502310	3.558279	0.083888
  20	9.5000e-03	0.7379	-7.134551	0.000697	6.967879	2.360781	0.055657
  21	1.0000e-02	0.7813	-7.037757	0.000242	2.423610	0.821141	0.019359
  22	1.0500e-02	0.8133	-6.481189	0.001394	13.935758	4.721563	0.111314
  23	1.1000e-02	0.8535	-6.271468	0.000525	5.251155	1.779140	0.041944
  24	1.1500e-02	0.8968	-5.803629	0.001171	11.714115	3.968850	0.093568
  25	1.2000e-02	0.9272	-5.658437	0.000364	3.635415	1.231712	0.029038
  26	1.2500e-02	0.9818	-5.299492	0.000899	8.987554	3.045066	0.071789
  27	1.3000e-02	1.0155	-5.077671	0.000555	5.554106	1.881782	0.044364
  28	1.3500e-02	1.0540	-4.755023	0.000808	8.078700	2.737138	0.064530
  29	1.4000e-02	1.0780	-4.335581	0.001050	10.502310	3.558279	0.083888
  30	1.4500e-02	1.1294	-4.073430	0.000656	6.563944	2.223924	0.052430
  31	1.5000e-02	1.1695	-3.940337	0.000333	3.332464	1.129069	0.026618
  32	1.5500e-02	1.2128	-3.605590	0.000838	8.381652	2.839780	0.066949
  33	1.6000e-02	1.2497	-3.246644	0.000899	8.987554	3.045066	0.071789
  34	1.6500e-02	1.2994	-3.016758	0.000576	5.756074	1.950211	0.045977
  35	1.7000e-02	1.3363	-2.649746	0.000919	9.189522	3.113494	0.073402
  36	1.7500e-02	1.3748	-2.286767	0.000909	9.088538	3.079280	0.072596
  37	1.8000e-02	1.4214	-2.040748	0.000616	6.160009	2.087068	0.049204
  38	1.8500e-02	1.4502	-1.750365	0.000727	7.270830	2.463424	0.058077
  39	1.9000e-02	1.4871	-1.580975	0.000424	4.241318	1.436997	0.033878
  40	1.9500e-02	1.5304	-1.105069	0.001192	11.916083	4.037278	0.095181
  41	2.0000e-02	1.5657	-0.931646	0.000434	4.342301	1.471212	0.034685
  42	2.0500e-02	1.6106	-0.592865	0.000848	8.482635	2.873995	0.067756
  43	2.1000e-02	1.6668	-0.241986	0.000879	8.785587	2.976637	0.070176
  44	2.1500e-02	1.6957	0.068563	0.000778	7.775749	2.634495	0.062110
  45	2.2000e-02	1.7278	0.375078	0.000767	7.674765	2.600281	0.061303
  46	2.2500e-02	1.7679	0.633196	0.000646	6.462960	2.189710	0.051624
  47	2.3000e-02	1.8016	1.080870	0.001121	11.209197	3.797779	0.089535
  48	2.3500e-02	1.8545	0.988109	-0.000232	-2.322626	-0.786927	-0.018552
  49	2.4000e-02	1.8962	1.447882	0.001151	11.512148	3.900421	0.091955
  50	2.4500e-02	1.9219	1.718100	0.000677	6.765912	2.292353	0.054044
  51	2.5000e-02	1.9796	2.254502	0.001343	13.430839	4.550492	0.107280
  52	2.5500e-02	2.0181	2.645713	0.000980	9.795424	3.318780	0.078242
  53	2.6000e-02	2.0550	2.774772	0.000323	3.231480	1.094855	0.025812
  54	2.6500e-02	2.0935	3.190181	0.001040	10.401327	3.524065	0.083082
  55	2.7000e-02	2.1352	3.214380	0.000061	0.605903	0.205285	0.004840
  56	2.7500e-02	2.1609	3.609623	0.000990	9.896408	3.352994	0.079049
  57	2.8000e-02	2.2090	3.855642	0.000616	6.160009	2.087068	0.049204
  58	2.8500e-02	2.2539	4.174257	0.000798	7.977717	2.702924	0.063723
  59	2.9000e-02	2.2973	4.601766	0.001070	10.704278	3.626708	0.085502
  60	2.9500e-02	2.3310	4.855851	0.000636	6.361976	2.155496	0.050817
  61	3.0000e-02	2.3759	5.122035	0.000666	6.664928	2.258139	0.053237
  62	3.0500e-02	2.4144	5.561643	0.001101	11.007229	3.729350	0.087922
  63	3.1000e-02	2.4465	5.860092	0.000747	7.472798	2.531852	0.059690
  64	3.1500e-02	2.4866	6.126277	0.000666	6.664928	2.258139	0.053237
  65	3.2000e-02	2.5331	6.295667	0.000424	4.241318	1.436997	0.033878
  66	3.2500e-02	2.5732	6.646546	0.000879	8.785587	2.976637	0.070176
  67	3.3000e-02	2.6101	6.936930	0.000727	7.270830	2.463424	0.058077
  68	3.3500e-02	2.6550	7.150684	0.000535	5.352139	1.813354	0.042751
  69	3.4000e-02	2.6919	7.437034	0.000717	7.169847	2.429210	0.057270
  70	3.4500e-02	2.7304	7.844377	0.001020	10.199359	3.455636	0.081469
  71	3.5000e-02	2.7689	8.259786	0.001040	10.401327	3.524065	0.083082
  72	3.5500e-02	2.8106	8.481606	0.000555	5.554106	1.881782	0.044364
  73	3.6000e-02	2.8571	8.800221	0.000798	7.977717	2.702924	0.063723
  74	3.6500e-02	2.8940	9.163200	0.000909	9.088538	3.079280	0.072596
  75	3.7000e-02	2.9374	9.312425	0.000374	3.736399	1.265926	0.029845
  76	3.7500e-02	2.9614	9.610874	0.000747	7.472798	2.531852	0.059690
  77	3.8000e-02	3.0095	10.054515	0.001111	11.108213	3.763564	0.088728
  78	3.8500e-02	3.0577	10.264236	0.000525	5.251155	1.779140	0.041944
  79	3.9000e-02	3.0865	10.840969	0.001444	14.440677	4.892634	0.115347
  80	3.9500e-02	3.1234	10.857101	0.000040	0.403935	0.136857	0.003226
  81	4.0000e-02	3.1716	11.006326	0.000374	3.736399	1.265926	0.029845
  82	4.0500e-02	3.2133	11.554827	0.001373	13.733791	4.653134	0.109700
  83	4.1000e-02	3.2598	11.829078	0.000687	6.866895	2.326567	0.054850
  84	4.1500e-02	3.2855	12.046866	0.000545	5.453123	1.847568	0.043557
  85	4.2000e-02	3.3400	12.538904	0.001232	12.320018	4.174135	0.098408
  86	4.2500e-02	3.3753	12.700227	0.000404	4.039350	1.368569	0.032265
  87	4.3000e-02	3.4234	12.966412	0.000666	6.664928	2.258139	0.053237
  88	4.3500e-02	3.4507	13.107570	0.000353	3.534431	1.197498	0.028232
  89	4.4000e-02	3.5020	13.643973	0.001343	13.430839	4.550492	0.107280
  90	4.4500e-02	3.5293	13.954521	0.000778	7.775749	2.634495	0.062110
  91	4.5000e-02	3.5726	14.297335	0.000858	8.583619	2.908209	0.068563
  92	4.5500e-02	3.6159	14.547387	0.000626	6.260993	2.121282	0.050010
  93	4.6000e-02	3.6464	14.918432	0.000929	9.290505	3.147708	0.074209
  94	4.6500e-02	3.6817	15.317708	0.001000	9.997392	3.387208	0.079855
  95	4.7000e-02	3.7347	15.406437	0.000222	2.221643	0.752713	0.017746
  96	4.7500e-02	3.7683	15.825879	0.001050	10.502310	3.558279	0.083888
  97	4.8000e-02	3.8133	16.003335	0.000444	4.443285	1.505426	0.035491
  98	4.8500e-02	3.8502	16.378413	0.000939	9.391489	3.181923	0.075016
  99	4.9000e-02	3.8903	16.527638	0.000374	3.736399	1.265926	0.029845
 100	4.9500e-02	3.9384	16.999511	0.001182	11.815099	4.003064	0.094375
 101	5.0000e-02	3.9705	17.350390	0.000879	8.785587	2.976637	0.070176
 102	5.0500e-02	4.0154	17.733535	0.000959	9.593457	3.250351	0.076629
 103	5.1000e-02	4.0555	17.995686	0.000656	6.563944	2.223924	0.052430
 104	5.1500e-02	4.0908	18.455459	0.001151	11.512148	3.900421	0.091955
 105	5.2000e-02	4.1309	18.645015	0.000475	4.746236	1.608068	0.037911
 106	5.2500e-02	4.1694	19.024126	0.000949	9.492473	3.216137	0.075822
 107	5.3000e-02	4.2127	19.213682	0.000475	4.746236	1.608068	0.037911
 108	5.3500e-02	4.2368	19.576661	0.000909	9.088538	3.079280	0.072596
 109	5.4000e-02	4.2945	19.951739	0.000939	9.391489	3.181923	0.075016
 110	5.4500e-02	4.3266	20.177592	0.000566	5.655090	1.915996	0.045171
 111	5.5000e-02	4.3667	20.613167	0.001091	10.906245	3.695136	0.087115
 112	5.5500e-02	4.4148	20.778524	0.000414	4.140334	1.402783	0.033071
 113	5.6000e-02	4.4534	21.133437	0.000889	8.886570	3.010852	0.070983
 114	5.6500e-02	4.4951	21.460118	0.000818	8.179684	2.771352	0.065336
 115	5.7000e-02	4.5336	21.879560	0.001050	10.502310	3.558279	0.083888
 116	5.7500e-02	4.5656	22.331267	0.001131	11.310180	3.831993	0.090341
 117	5.8000e-02	4.6090	22.226406	-0.000263	-2.625578	-0.889570	-0.020972
 118	5.8500e-02	4.6426	22.670047	0.001111	11.108213	3.763564	0.088728
 119	5.9000e-02	4.7004	22.928166	0.000646	6.462960	2.189710	0.051624
 120	5.9500e-02	4.7277	23.347608	0.001050	10.502310	3.558279	0.083888
 121	6.0000e-02	4.7678	23.613792	0.000666	6.664928	2.258139	0.053237
 122	6.0500e-02	4.8159	23.944506	0.000828	8.280668	2.805566	0.066143
 123	6.1000e-02	4.8544	24.170360	0.000566	5.655090	1.915996	0.045171
 124	6.1500e-02	4.8945	24.396213	0.000566	5.655090	1.915996	0.045171
 125	6.2000e-02	4.9266	24.618034	0.000555	5.554106	1.881782	0.044364
 126	6.2500e-02	4.9763	24.916483	0.000747	7.472798	2.531852	0.059690
 127	6.3000e-02	5.0084	25.460951	0.001363	13.632807	4.618920	0.108894
 128	6.3500e-02	5.0581	25.630342	0.000424	4.241318	1.436997	0.033878
 129	6.4000e-02	5.0886	26.001387	0.000929	9.290505	3.147708	0.074209
 130	6.4500e-02	5.1223	26.376465	0.000939	9.391489	3.181923	0.075016
 131	6.5000e-02	5.1672	26.739444	0.000909	9.088538	3.079280	0.072596
 132	6.5500e-02	5.2202	26.904801	0.000414	4.140334	1.402783	0.033071
 133	6.6000e-02	5.2523	27.364574	0.001151	11.512148	3.900421	0.091955
 134	6.6500e-02	5.2972	27.586394	0.000555	5.554106	1.881782	0.044364
 135	6.7000e-02	5.3373	28.199425	0.001535	15.349531	5.200562	0.122606
 136	6.7500e-02	5.3694	28.219591	0.000050	0.504919	0.171071	0.004033
 137	6.8000e-02	5.4175	28.598702	0.000949	9.492473	3.216137	0.075822
 138	6.8500e-02	5.4496	28.768092	0.000424	4.241318	1.436997	0.033878
 139	6.9000e-02	5.4945	29.231899	0.001161	11.613132	3.934636	0.092761
 140	6.9500e-02	5.5330	29.651341	0.001050	10.502310	3.558279	0.083888
 141	7.0000e-02	5.5731	29.840897	0.000475	4.746236	1.608068	0.037911
 142	7.0500e-02	5.6100	30.151445	0.000778	7.775749	2.634495	0.062110
 143	7.1000e-02	5.6549	30.627351	0.001192	11.916083	4.037278	0.095181
 144	7.1500e-02	5.6918	30.897568	0.000677	6.765912	2.292353	0.054044
 145	7.2000e-02	5.7319	31.006462	0.000273	2.726561	0.923784	0.021779
 146	7.2500e-02	5.7672	31.333143	0.000818	8.179684	2.771352	0.065336
 147	7.3000e-02	5.8186	31.800982	0.001171	11.714115	3.968850	0.093568
 148	7.3500e-02	5.8506	32.139763	0.000848	8.482635	2.873995	0.067756
 149	7.4000e-02	5.8956	32.341418	0.000505	5.049188	1.710711	0.040331
 150	7.4500e-02	5.9341	32.676165	0.000838	8.381652	2.839780	0.066949
 151	7.5000e-02	5.9597	32.966548	0.000727	7.270830	2.463424	0.058077
 152	7.5500e-02	6.0079	33.377924	0.001030	10.300343	3.489851	0.082275
 153	7.6000e-02	6.0608	33.648142	0.000677	6.765912	2.292353	0.054044
 154	7.6500e-02	6.0945	33.801399	0.000384	3.837383	1.300140	0.030652
 155	7.7000e-02	6.1234	34.321669	0.001303	13.026904	4.413635	0.104054
 156	7.7500e-02	6.1731	34.599953	0.000697	6.967879	2.360781	0.055657
 157	7.8000e-02	6.2100	34.817740	0.000545	5.453123	1.847568	0.043557
 158	7.8500e-02	6.2613	35.172653	0.000889	8.886570	3.010852	0.070983
 159	7.9000e-02	6.2854	35.668724	0.001242	12.421002	4.208349	0.099214
 160	7.9500e-02	6.3319	35.983306	0.000788	7.876733	2.668709	0.062916
 161	8.0000e-02	6.3720	36.031703	0.000121	1.211805	0.410571	0.009679
 162	8.0500e-02	6.4137	36.168828	0.000343	3.433448	1.163284	0.027425
 163	8.1000e-02	6.4506	37.072242	0.002262	22.620361	7.663986	0.180683
 164	8.1500e-02	6.4923	37.233566	0.000404	4.039350	1.368569	0.032265
 165	8.2000e-02	6.5324	37.411023	0.000444	4.443285	1.505426	0.035491
 166	8.2500e-02	6.5709	37.588479	0.000444	4.443285	1.505426	0.035491
 167	8.3000e-02	6.6030	38.298304	0.001777	17.773141	6.021703	0.141965
 168	8.3500e-02	6.6479	38.439463	0.000353	3.534431	1.197498	0.028232
 169	8.4000e-02	6.6848	38.733879	0.000737	7.371814	2.497638	0.058883
 170	8.4500e-02	6.7330	38.971832	0.000596	5.958041	2.018639	0.047591
 171	8.5000e-02	6.7747	39.290447	0.000798	7.977717	2.702924	0.063723
 172	8.5500e-02	6.8132	39.786518	0.001242	12.421002	4.208349	0.099214
 173	8.6000e-02	6.8645	40.056735	0.000677	6.765912	2.292353	0.054044
 174	8.6500e-02	6.8934	40.097066	0.000101	1.009838	0.342142	0.008066
 175	8.7000e-02	6.9335	40.528608	0.001081	10.805262	3.660922	0.086308
 176	8.7500e-02	6.9704	40.823024	0.000737	7.371814	2.497638	0.058883
 177	8.8000e-02	7.0073	41.093242	0.000677	6.765912	2.292353	0.054044
 178	8.8500e-02	7.0474	41.492518	0.001000	9.997392	3.387208	0.079855
 179	8.9000e-02	7.0923	41.581247	0.000222	2.221643	0.752713	0.017746
 180	8.9500e-02	7.1276	42.008755	0.001070	10.704278	3.626708	0.085502
 181	9.0000e-02	7.1693	42.250741	0.000606	6.059025	2.052853	0.048397
 182	9.0500e-02	7.2126	42.601621	0.000879	8.785587	2.976637	0.070176
 183	9.1000e-02	7.2543	43.093659	0.001232	12.320018	4.174135	0.098408
 184	9.1500e-02	7.2896	43.480836	0.000969	9.694440	3.284565	0.077435
 185	9.2000e-02	7.3249	43.759120	0.000697	6.967879	2.360781	0.055657
 186	9.2500e-02	7.3795	43.900278	0.000353	3.534431	1.197498	0.028232
 187	9.3000e-02	7.4035	44.130165	0.000576	5.756074	1.950211	0.045977
 188	9.3500e-02	7.4549	44.513309	0.000959	9.593457	3.250351	0.076629
 189	9.4000e-02	7.4934	44.993248	0.001202	12.017067	4.071492	0.095988
 190	9.4500e-02	7.5335	45.396558	0.001010	10.098375	3.421422	0.080662
 191	9.5000e-02	7.5704	45.533683	0.000343	3.433448	1.163284	0.027425
 192	9.5500e-02	7.6121	45.848265	0.000788	7.876733	2.668709	0.062916
 193	9.6000e-02	7.6506	46.215277	0.000919	9.189522	3.113494	0.073402
 194	9.6500e-02	7.6923	46.630686	0.001040	10.401327	3.524065	0.083082
 195	9.7000e-02	7.7276	47.195320	0.001414	14.137726	4.789991	0.112927
 196	9.7500e-02	7.7773	47.179187	-0.000040	-0.403935	-0.136857	-0.003226
 197	9.8000e-02	7.8094	47.376809	0.000495	4.948204	1.676497	0.039524
 198	9.8500e-02	7.8511	47.739788	0.000909	9.088538	3.079280	0.072596
 199	9.9000e-02	7.8992	47.965642	0.000566	5.655090	1.915996	0.045171
 200	9.9500e-02	7.9313	48.312488	0.000868	8.684603	2.942423	0.069369
 201	1.0000e-01	7.9666	48.614971	0.000757	7.573782	2.566067	0.060496
 202	1.0050e-01	8.0067	49.038446	0.001060	10.603294	3.592493	0.084695
 203	1.0100e-01	8.0516	49.530484	0.001232	12.320018	4.174135	0.098408
 204	1.0150e-01	8.0950	49.748271	0.000545	5.453123	1.847568	0.043557
 205	1.0200e-01	8.1303	49.917661	0.000424	4.241318	1.436997	0.033878
 206	1.0250e-01	8.1720	50.401633	0.001212	12.118050	4.105707	0.096794
 207	1.0300e-01	8.2121	50.474229	0.000182	1.817708	0.615856	0.014519
 208	1.0350e-01	8.2458	50.942068	0.001171	11.714115	3.968850	0.093568
 209	1.0400e-01	8.2923	51.296981	0.000889	8.886570	3.010852	0.070983
 210	1.0450e-01	8.3292	51.551066	0.000636	6.361976	2.155496	0.050817
 211	1.0500e-01	8.3741	51.918078	0.000919	9.189522	3.113494	0.073402
 212	1.0550e-01	8.4094	52.135866	0.000545	5.453123	1.847568	0.043557
 213	1.0600e-01	8.4655	52.329454	0.000485	4.847220	1.642283	0.038718
 214	1.0650e-01	8.4880	52.773095	0.001111	11.108213	3.763564	0.088728
 215	1.0700e-01	8.5313	53.164306	0.000980	9.795424	3.318780	0.078242
 216	1.0750e-01	8.5762	53.305464	0.000353	3.534431	1.197498	0.028232
 217	1.0800e-01	8.6147	53.632145	0.000818	8.179684	2.771352	0.065336
 218	1.0850e-01	8.6564	53.849933	0.000545	5.453123	1.847568	0.043557
 219	1.0900e-01	8.6982	54.104018	0.000636	6.361976	2.155496	0.050817
 220	1.0950e-01	8.7383	54.793678	0.001727	17.268222	5.850632	0.137932
 221	1.1000e-01	8.7816	55.108259	0.000788	7.876733	2.668709	0.062916
 222	1.1050e-01	8.8104	55.237318	0.000323	3.231480	1.094855	0.025812
 223	1.1100e-01	8.8506	55.600297	0.000909	9.088538	3.079280	0.072596
 224	1.1150e-01	8.8939	56.072170	0.001182	11.815099	4.003064	0.094375
 225	1.1200e-01	8.9324	56.027806	-0.000111	-1.110821	-0.376356	-0.008873
 226	1.1250e-01	8.9741	56.479513	0.001131	11.310180	3.831993	0.090341
 227	1.1300e-01	9.0126	56.870723	0.000980	9.795424	3.318780	0.078242
 228	1.1350e-01	9.0575	57.108676	0.000596	5.958041	2.018639	0.047591
 229	1.1400e-01	9.0992	57.314364	0.000515	5.150171	1.744925	0.041138
 230	1.1450e-01	9.1377	57.637012	0.000808	8.078700	2.737138	0.064530
 231	1.1500e-01	9.1794	57.939495	0.000757	7.573782	2.566067	0.060496
 232	1.1550e-01	9.2083	58.270209	0.000828	8.280668	2.805566	0.066143
 233	1.1600e-01	9.2596	58.633187	0.000909	9.088538	3.079280	0.072596
 234	1.1650e-01	9.2837	59.036497	0.001010	10.098375	3.421422	0.080662
 235	1.1700e-01	9.3350	59.326880	0.000727	7.270830	2.463424	0.058077
 236	1.1750e-01	9.3719	59.459973	0.000333	3.332464	1.129069	0.026618
 237	1.1800e-01	9.4136	59.843117	0.000959	9.593457	3.250351	0.076629
 238	1.1850e-01	9.4521	60.125434	0.000707	7.068863	2.394996	0.056463
 239	1.1900e-01	9.4906	60.617472	0.001232	12.320018	4.174135	0.098408
 240	1.1950e-01	9.5356	60.996583	0.000949	9.492473	3.216137	0.075822
 241	1.2000e-01	9.5692	61.327297	0.000828	8.280668	2.805566	0.066143
 242	1.2050e-01	9.6190	61.367628	0.000101	1.009838	0.342142	0.008066
 243	1.2100e-01	9.6511	61.532985	0.000414	4.140334	1.402783	0.033071
 244	1.2150e-01	9.6912	62.400102	0.002171	21.711507	7.356058	0.173423
 245	1.2200e-01	9.7329	62.549326	0.000374	3.736399	1.265926	0.029845
 246	1.2250e-01	9.7714	62.722749	0.000434	4.342301	1.471212	0.034685
 247	1.2300e-01	9.8099	63.033298	0.000778	7.775749	2.634495	0.062110
 248	1.2350e-01	9.8548	63.432575	0.001000	9.997392	3.387208	0.079855
 249	1.2400e-01	9.8933	63.759256	0.000818	8.179684	2.771352	0.065336
 250	1.2450e-01	9.9286	64.029473	0.000677	6.765912	2.292353	0.054044
 251	1.2500e-01	9.9719	64.307757	0.000697	6.967879	2.360781	0.055657
 252	1.2550e-01	10.0136	64.598140	0.000727	7.270830	2.463424	0.058077
 253	1.2600e-01	10.0505	64.953053	0.000889	8.886570	3.010852	0.070983
 254	1.2650e-01	10.0794	65.223271	0.000677	6.765912	2.292353	0.054044
 255	1.2700e-01	10.1275	65.465257	0.000606	6.059025	2.052853	0.048397
 256	1.2750e-01	10.1692	65.767739	0.000757	7.573782	2.566067	0.060496
 257	1.2800e-01	10.2093	65.997626	0.000576	5.756074	1.950211	0.045977
 258	1.2850e-01	10.2591	66.348505	0.000879	8.785587	2.976637	0.070176
 259	1.2900e-01	10.2944	66.388836	0.000101	1.009838	0.342142	0.008066
 260	1.2950e-01	10.3200	66.961536	0.001434	14.339693	4.858420	0.114540
 261	1.3000e-01	10.3746	67.296283	0.000838	8.381652	2.839780	0.066949
 262	1.3050e-01	10.4083	67.542302	0.000616	6.160009	2.087068	0.049204
 263	1.3100e-01	10.4516	67.973844	0.001081	10.805262	3.660922	0.086308
 264	1.3150e-01	10.4901	68.264227	0.000727	7.270830	2.463424	0.058077
 265	1.3200e-01	10.5302	68.546544	0.000707	7.068863	2.394996	0.056463
 266	1.3250e-01	10.5735	68.748199	0.000505	5.049188	1.710711	0.040331
 267	1.3300e-01	10.6280	69.135376	0.000969	9.694440	3.284565	0.077435
 268	1.3350e-01	10.6665	69.320899	0.000465	4.645253	1.573854	0.037105
 269	1.3400e-01	10.7002	69.772606	0.001131	11.310180	3.831993	0.090341
 270	1.3450e-01	10.7339	70.050890	0.000697	6.967879	2.360781	0.055657
 271	1.3500e-01	10.7692	70.357405	0.000767	7.674765	2.600281	0.061303
 272	1.3550e-01	10.8141	70.510663	0.000384	3.837383	1.300140	0.030652
 273	1.3600e-01	10.8558	70.922039	0.001030	10.300343	3.489851	0.082275
 274	1.3650e-01	10.8976	71.252753	0.000828	8.280668	2.805566	0.066143
 275	1.3700e-01	10.9280	71.506838	0.000636	6.361976	2.155496	0.050817
 276	1.3750e-01	10.9697	71.946446	0.001101	11.007229	3.729350	0.087922
 277	1.3800e-01	11.0066	72.321524	0.000939	9.391489	3.181923	0.075016
 278	1.3850e-01	11.0628	72.648205	0.000818	8.179684	2.771352	0.065336
 279	1.3900e-01	11.0965	72.644172	-0.000010	-0.100984	-0.034214	-0.000807
 280	1.3950e-01	11.1350	72.942621	0.000747	7.472798	2.531852	0.059690
 281	1.4000e-01	11.1751	73.325766	0.000959	9.593457	3.250351	0.076629
 282	1.4050e-01	11.2088	73.850069	0.001313	13.127888	4.447849	0.104861
 283	1.4100e-01	11.2521	74.059790	0.000525	5.251155	1.779140	0.041944
 284	1.4150e-01	11.2954	74.386471	0.000818	8.179684	2.771352	0.065336
 285	1.4200e-01	11.3339	74.555861	0.000424	4.241318	1.436997	0.033878
 286	1.4250e-01	11.3660	74.813979	0.000646	6.462960	2.189710	0.051624
 287	1.4300e-01	11.4125	75.059998	0.000616	6.160009	2.087068	0.049204
 288	1.4350e-01	11.4494	75.463308	0.001010	10.098375	3.421422	0.080662
 289	1.4400e-01	11.4911	75.741592	0.000697	6.967879	2.360781	0.055657
 290	1.4450e-01	11.5312	76.173133	0.001081	10.805262	3.660922	0.086308
 291	1.4500e-01	11.5713	76.447384	0.000687	6.866895	2.326567	0.054850
 292	1.4550e-01	11.6162	76.709535	0.000656	6.563944	2.223924	0.052430
 293	1.4600e-01	11.6483	76.899091	0.000475	4.746236	1.608068	0.037911
 294	1.4650e-01	11.6900	77.346765	0.001121	11.209197	3.797779	0.089535
 295	1.4700e-01	11.7285	77.625049	0.000697	6.967879	2.360781	0.055657
 296	1.4750e-01	11.7783	77.911399	0.000717	7.169847	2.429210	0.057270
 297	1.4800e-01	11.8055	78.230014	0.000798	7.977717	2.702924	0.063723
 298	1.4850e-01	11.8537	78.564761	0.000838	8.381652	2.839780	0.066949
 299	1.4900e-01	11.8922	78.879342	0.000788	7.876733	2.668709	0.062916
 300	1.4950e-01	11.9291	79.379447	0.001252	12.521985	4.242564	0.100021
 301	1.5000e-01	11.9660	79.456076	0.000192	1.918691	0.650070	0.015326
 302	1.5050e-01	12.0109	79.633532	0.000444	4.443285	1.505426	0.035491
 303	1.5100e-01	12.0430	80.190100	0.001394	13.935758	4.721563	0.111314
 304	1.5150e-01	12.0911	80.391754	0.000505	5.049188	1.710711	0.040331
 305	1.5200e-01	12.1328	80.754733	0.000909	9.088538	3.079280	0.072596
 306	1.5250e-01	12.1777	80.992686	0.000596	5.958041	2.018639	0.047591
 307	1.5300e-01	12.2098	81.206440	0.000535	5.352139	1.813354	0.042751
 308	1.5350e-01	12.2531	81.400029	0.000485	4.847220	1.642283	0.038718
 309	1.5400e-01	12.2900	81.658147	0.000646	6.462960	2.189710	0.051624
 310	1.5450e-01	12.3285	82.142119	0.001212	12.118050	4.105707	0.096794
 311	1.5500e-01	12.3718	82.351840	0.000525	5.251155	1.779140	0.041944
 312	1.5550e-01	12.4184	82.626091	0.000687	6.866895	2.326567	0.054850
 313	1.5600e-01	12.4585	82.940673	0.000788	7.876733	2.668709	0.062916
 314	1.5650e-01	12.4954	83.364148	0.001060	10.603294	3.592493	0.084695
 315	1.5700e-01	12.5403	83.706961	0.000858	8.583619	2.908209	0.068563
 316	1.5750e-01	12.5660	83.912650	0.000515	5.150171	1.744925	0.041138
 317	1.5800e-01	12.6093	84.098172	0.000465	4.645253	1.573854	0.037105
 318	1.5850e-01	12.6622	84.332092	0.000586	5.857058	1.984425	0.046784
 319	1.5900e-01	12.6991	84.695071	0.000909	9.088538	3.079280	0.072596
 320	1.5950e-01	12.7408	85.102414	0.001020	10.199359	3.455636	0.081469
 321	1.6000e-01	12.7713	85.416995	0.000788	7.876733	2.668709	0.062916
 322	1.6050e-01	12.8114	85.404896	-0.000030	-0.302951	-0.102643	-0.002420
 323	1.6100e-01	12.8531	85.804173	0.001000	9.997392	3.387208	0.079855
 324	1.6150e-01	12.8964	86.445435	0.001606	16.056417	5.440061	0.128253
 325	1.6200e-01	12.9413	86.586594	0.000353	3.534431	1.197498	0.028232
 326	1.6250e-01	12.9638	86.925374	0.000848	8.482635	2.873995	0.067756
 327	1.6300e-01	13.0071	87.304485	0.000949	9.492473	3.216137	0.075822
 328	1.6350e-01	13.0601	87.413379	0.000273	2.726561	0.923784	0.021779
 329	1.6400e-01	13.0921	87.647299	0.000586	5.857058	1.984425	0.046784
 330	1.6450e-01	13.1322	88.078840	0.001081	10.805262	3.660922	0.086308
 331	1.6500e-01	13.1595	88.466018	0.000969	9.694440	3.284565	0.077435
 332	1.6550e-01	13.2157	88.437786	-0.000071	-0.706886	-0.239500	-0.005646
 333	1.6600e-01	13.2542	88.792699	0.000889	8.886570	3.010852	0.070983
 334	1.6650e-01	13.2943	89.123413	0.000828	8.280668	2.805566	0.066143
 335	1.6700e-01	13.3296	89.454127	0.000828	8.280668	2.805566	0.066143
 336	1.6750e-01	13.3697	89.712245	0.000646	6.462960	2.189710	0.051624
 337	1.6800e-01	13.4114	90.026827	0.000788	7.876733	2.668709	0.062916
 338	1.6850e-01	13.4531	90.369640	0.000858	8.583619	2.908209	0.068563
 339	1.6900e-01	13.4836	90.696321	0.000818	8.179684	2.771352	0.065336
 340	1.6950e-01	13.5221	91.039135	0.000858	8.583619	2.908209	0.068563
 341	1.7000e-01	13.5702	91.184326	0.000364	3.635415	1.231712	0.029038
 342	1.7050e-01	13.6119	91.547305	0.000909	9.088538	3.079280	0.072596
 343	1.7100e-01	13.6440	91.865920	0.000798	7.977717	2.702924	0.063723
 344	1.7150e-01	13.6889	92.184535	0.000798	7.977717	2.702924	0.063723
 345	1.7200e-01	13.7386	92.297462	0.000283	2.827545	0.957998	0.022585
 346	1.7250e-01	13.7804	92.648341	0.000879	8.785587	2.976637	0.070176
 347	1.7300e-01	13.8076	92.926625	0.000697	6.967879	2.360781	0.055657
 348	1.7350e-01	13.8606	93.108114	0.000454	4.544269	1.539640	0.036298
 349	1.7400e-01	13.8862	93.458994	0.000879	8.785587	2.976637	0.070176
 350	1.7450e-01	13.9328	93.914734	0.001141	11.411164	3.866207	0.091148
 351	1.7500e-01	13.9681	94.152687	0.000596	5.958041	2.018639	0.047591
 352	1.7550e-01	14.0066	94.447103	0.000737	7.371814	2.497638	0.058883
 353	1.7600e-01	14.0547	94.640692	0.000485	4.847220	1.642283	0.038718
 354	1.7650e-01	14.0868	95.076266	0.001091	10.906245	3.695136	0.087115
 355	1.7700e-01	14.1253	95.374716	0.000747	7.472798	2.531852	0.059690
 356	1.7750e-01	14.1734	95.584437	0.000525	5.251155	1.779140	0.041944
 357	1.7800e-01	14.2087	95.890952	0.000767	7.674765	2.600281	0.061303
 358	1.7850e-01	14.2504	96.270064	0.000949	9.492473	3.216137	0.075822
 359	1.7900e-01	14.2873	96.499950	0.000576	5.756074	1.950211	0.045977
 360	1.7950e-01	14.3290	96.786300	0.000717	7.169847	2.429210	0.057270
 361	1.8000e-01	14.3691	97.108948	0.000808	8.078700	2.737138	0.064530
 362	1.8050e-01	14.4124	97.330769	0.000555	5.554106	1.881782	0.044364
 363	1.8100e-01	14.4573	97.488059	0.000394	3.938366	1.334355	0.031458
 364	1.8150e-01	14.4975	98.105124	0.001545	15.450514	5.234776	0.123413
 365	1.8200e-01	14.5263	98.205951	0.000252	2.524594	0.855356	0.020165
 366	1.8250e-01	14.5712	98.500367	0.000737	7.371814	2.497638	0.058883
 367	1.8300e-01	14.6049	98.988372	0.001222	12.219034	4.139921	0.097601
 368	1.8350e-01	14.6515	99.044835	0.000141	1.413773	0.478999	0.011293
 369	1.8400e-01	14.6948	99.161795	0.000293	2.928529	0.992212	0.023392
 370	1.8450e-01	14.7333	99.540907	0.000949	9.492473	3.216137	0.075822
 371	1.8500e-01	14.7670	99.972448	0.001081	10.805262	3.660922	0.086308
 372	1.8550e-01	14.8151	100.416089	0.001111	11.108213	3.763564	0.088728
 373	1.8600e-01	14.8504	100.533049	0.000293	2.928529	0.992212	0.023392
 374	1.8650e-01	14.8809	100.831498	0.000747	7.472798	2.531852	0.059690
 375	1.8700e-01	14.9322	101.029120	0.000495	4.948204	1.676497	0.039524
 376	1.8750e-01	14.9723	101.238841	0.000525	5.251155	1.779140	0.041944
 377	1.8800e-01	15.0108	101.827674	0.001474	14.743628	4.995276	0.117766
 378	1.8850e-01	15.0573	102.073693	0.000616	6.160009	2.087068	0.049204
 379	1.8900e-01	15.0990	102.150321	0.000192	1.918691	0.650070	0.015326
 380	1.8950e-01	15.1263	102.626227	0.001192	11.916083	4.037278	0.095181
 381	1.9000e-01	15.1728	102.630260	0.000010	0.100984	0.034214	0.000807
 382	1.9050e-01	15.2113	102.973074	0.000858	8.583619	2.908209	0.068563
 383	1.9100e-01	15.2595	103.190861	0.000545	5.453123	1.847568	0.043557
 384	1.9150e-01	15.3028	103.787759	0.001495	14.945596	5.063705	0.119380
 385	1.9200e-01	15.3220	104.005547	0.000545	5.453123	1.847568	0.043557
 386	1.9250e-01	15.3669	104.453221	0.001121	11.209197	3.797779	0.089535
 387	1.9300e-01	15.4103	104.695207	0.000606	6.059025	2.052853	0.048397
 388	1.9350e-01	15.4520	104.900895	0.000515	5.150171	1.744925	0.041138
 389	1.9400e-01	15.4825	104.989623	0.000222	2.221643	0.752713	0.017746
 390	1.9450e-01	15.5306	105.396966	0.001020	10.199359	3.455636	0.081469
 391	1.9500e-01	15.5595	105.638952	0.000606	6.059025	2.052853	0.048397
 392	1.9550e-01	15.5996	105.993864	0.000889	8.886570	3.010852	0.070983
 393	1.9600e-01	15.6477	106.421373	0.001070	10.704278	3.626708	0.085502
 394	1.9650e-01	15.6862	106.570597	0.000374	3.736399	1.265926	0.029845
 395	1.9700e-01	15.7263	106.832749	0.000656	6.563944	2.223924	0.052430
 396	1.9750e-01	15.7680	107.385283	0.001383	13.834774	4.687348	0.110507
 397	1.9800e-01	15.8209	107.300588	-0.000212	-2.120659	-0.718499	-0.016939
 398	1.9850e-01	15.8530	107.550640	0.000626	6.260993	2.121282	0.050010
 399	1.9900e-01	15.8931	108.058811	0.001272	12.723953	4.310992	0.101634
 400	1.9950e-01	15.9300	108.050745	-0.000020	-0.201968	-0.068428	-0.001613
 401	2.0000e-01	15.9701	108.365326	0.000788	7.876733	2.668709	0.062916
 402	2.0050e-01	16.0231	108.534716	0.000424	4.241318	1.436997	0.033878
 403	2.0100e-01	16.0600	108.808967	0.000687	6.866895	2.326567	0.054850
 404	2.0150e-01	16.0872	109.256641	0.001121	11.209197	3.797779	0.089535
 405	2.0200e-01	16.1241	109.728514	0.001182	11.815099	4.003064	0.094375
 406	2.0250e-01	16.1691	109.926136	0.000495	4.948204	1.676497	0.039524
 407	2.0300e-01	16.2108	110.313313	0.000969	9.694440	3.284565	0.077435
 408	2.0350e-01	16.2557	110.458505	0.000364	3.635415	1.231712	0.029038
 409	2.0400e-01	16.2974	110.708557	0.000626	6.260993	2.121282	0.050010
 410	2.0450e-01	16.3279	110.950543	0.000606	6.059025	2.052853	0.048397
 411	2.0500e-01	16.3648	111.301422	0.000879	8.785587	2.976637	0.070176
 412	2.0550e-01	16.4049	111.374018	0.000182	1.817708	0.615856	0.014519
 413	2.0600e-01	16.4498	111.837824	0.001161	11.613132	3.934636	0.092761
 414	2.0650e-01	16.4915	112.265333	0.001070	10.704278	3.626708	0.085502
 415	2.0700e-01	16.5252	112.329862	0.000162	1.615740	0.547428	0.012906
 416	2.0750e-01	16.5749	112.604113	0.000687	6.866895	2.326567	0.054850
 417	2.0800e-01	16.6054	112.906595	0.000757	7.573782	2.566067	0.060496
 418	2.0850e-01	16.6600	113.293773	0.000969	9.694440	3.284565	0.077435
 419	2.0900e-01	16.6920	113.531726	0.000596	5.958041	2.018639	0.047591
 420	2.0950e-01	16.7338	113.701116	0.000424	4.241318	1.436997	0.033878
 421	2.1000e-01	16.7706	114.281882	0.001454	14.541661	4.926848	0.116153
 422	2.1050e-01	16.8043	114.423040	0.000353	3.534431	1.197498	0.028232
 423	2.1100e-01	16.8509	114.495636	0.000182	1.817708	0.615856	0.014519
 424	2.1150e-01	16.8958	114.919112	0.001060	10.603294	3.592493	0.084695
 425	2.1200e-01	16.9231	115.189329	0.000677	6.765912	2.292353	0.054044
 426	2.1250e-01	16.9792	115.463580	0.000687	6.866895	2.326567	0.054850
 427	2.1300e-01	17.0097	115.749930	0.000717	7.169847	2.429210	0.057270
 428	2.1350e-01	17.0418	116.020147	0.000677	6.765912	2.292353	0.054044
 429	2.1400e-01	17.0947	116.274233	0.000636	6.361976	2.155496	0.050817
 430	2.1450e-01	17.1396	116.608980	0.000838	8.381652	2.839780	0.066949
 431	2.1500e-01	17.1733	116.830800	0.000555	5.554106	1.881782	0.044364
 432	2.1550e-01	17.2150	117.092952	0.000656	6.563944	2.223924	0.052430
 433	2.1600e-01	17.2551	117.326871	0.000586	5.857058	1.984425	0.046784
 434	2.1650e-01	17.2872	117.839075	0.001282	12.824937	4.345206	0.102441
 435	2.1700e-01	17.3289	118.185921	0.000868	8.684603	2.942423	0.069369
 436	2.1750e-01	17.3722	118.278683	0.000232	2.322626	0.786927	0.018552
 437	2.1800e-01	17.4075	118.544867	0.000666	6.664928	2.258139	0.053237
 438	2.1850e-01	17.4428	118.823151	0.000697	6.967879	2.360781	0.055657
 439	2.1900e-01	17.4877	119.319222	0.001242	12.421002	4.208349	0.099214
 440	2.1950e-01	17.5278	119.528943	0.000525	5.251155	1.779140	0.041944
 441	2.2000e-01	17.5696	119.532976	0.000010	0.100984	0.034214	0.000807
 442	2.2050e-01	17.6129	119.976617	0.001111	11.108213	3.763564	0.088728
 443	2.2100e-01	17.6562	120.133908	0.000394	3.938366	1.334355	0.031458
 444	2.2150e-01	17.6915	120.541251	0.001020	10.199359	3.455636	0.081469
 445	2.2200e-01	17.7380	121.013124	0.001182	11.815099	4.003064	0.094375
 446	2.2250e-01	17.7701	121.158315	0.000364	3.635415	1.231712	0.029038
 447	2.2300e-01	17.8166	121.428533	0.000677	6.765912	2.292353	0.054044
 448	2.2350e-01	17.8551	121.601956	0.000434	4.342301	1.471212	0.034685
 449	2.2400e-01	17.8872	121.944769	0.000858	8.583619	2.908209	0.068563
 450	2.2450e-01	17.9321	122.166590	0.000555	5.554106	1.881782	0.044364
 451	2.2500e-01	17.9722	122.561833	0.000990	9.896408	3.352994	0.079049
 452	2.2550e-01	18.0123	122.727190	0.000414	4.140334	1.402783	0.033071
 453	2.2600e-01	18.0476	122.940945	0.000535	5.352139	1.813354	0.042751
 454	2.2650e-01	18.0925	123.118401	0.000444	4.443285	1.505426	0.035491
 455	2.2700e-01	18.1278	123.360387	0.000606	6.059025	2.052853	0.048397
 456	2.2750e-01	18.1711	123.969385	0.001525	15.248547	5.166348	0.121800
 457	2.2800e-01	18.2113	124.094411	0.000313	3.130496	1.060641	0.025005
 458	2.2850e-01	18.2401	124.602581	0.001272	12.723953	4.310992	0.101634
 459	2.2900e-01	18.3043	124.659045	0.000141	1.413773	0.478999	0.011293
 460	2.2950e-01	18.3284	124.985726	0.000818	8.179684	2.771352	0.065336
 461	2.3000e-01	18.3781	125.171248	0.000465	4.645253	1.573854	0.037105
 462	2.3050e-01	18.4086	125.352738	0.000454	4.544269	1.539640	0.036298
 463	2.3100e-01	18.4583	125.772180	0.001050	10.502310	3.558279	0.083888
 464	2.3150e-01	18.4984	126.183556	0.001030	10.300343	3.489851	0.082275
 465	2.3200e-01	18.5321	126.365045	0.000454	4.544269	1.539640	0.036298
 466	2.3250e-01	18.5674	126.558634	0.000485	4.847220	1.642283	0.038718
 467	2.3300e-01	18.6075	126.917580	0.000899	8.987554	3.045066	0.071789
 468	2.3350e-01	18.6444	127.014374	0.000242	2.423610	0.821141	0.019359
 469	2.3400e-01	18.7021	127.353155	0.000848	8.482635	2.873995	0.067756
 470	2.3450e-01	18.7374	127.744365	0.000980	9.795424	3.318780	0.078242
 471	2.3500e-01	18.7711	127.982318	0.000596	5.958041	2.018639	0.047591
 472	2.3550e-01	18.8096	128.494521	0.001282	12.824937	4.345206	0.102441
 473	2.3600e-01	18.8497	128.550985	0.000141	1.413773	0.478999	0.011293
 474	2.3650e-01	18.8979	128.671978	0.000303	3.029513	1.026427	0.024199
 475	2.3700e-01	18.9396	128.877666	0.000515	5.150171	1.744925	0.041138
 476	2.3750e-01	18.9668	129.498763	0.001555	15.551498	5.268990	0.124219
 477	2.3800e-01	19.0134	129.696385	0.000495	4.948204	1.676497	0.039524
 478	2.3850e-01	19.0487	129.764948	0.000172	1.716724	0.581642	0.013713
 479	2.3900e-01	19.0920	130.051298	0.000717	7.169847	2.429210	0.057270
 480	2.3950e-01	19.1401	130.454607	0.001010	10.098375	3.421422	0.080662
 481	2.4000e-01	19.1722	130.652229	0.000495	4.948204	1.676497	0.039524
 482	2.4050e-01	19.2123	131.063605	0.001030	10.300343	3.489851	0.082275
 483	2.4100e-01	19.2524	131.325757	0.000656	6.563944	2.223924	0.052430
 484	2.4150e-01	19.2925	131.531445	0.000515	5.150171	1.744925	0.041138
 485	2.4200e-01	19.3246	131.680669	0.000374	3.736399	1.265926	0.029845
 486	2.4250e-01	19.3727	132.120277	0.001101	11.007229	3.729350	0.087922
 487	2.4300e-01	19.4176	132.237237	0.000293	2.928529	0.992212	0.023392
 488	2.4350e-01	19.4481	132.527620	0.000727	7.270830	2.463424	0.058077
 489	2.4400e-01	19.4930	132.878500	0.000879	8.785587	2.976637	0.070176
 490	2.4450e-01	19.5267	133.043857	0.000414	4.140334	1.402783	0.033071
 491	2.4500e-01	19.5668	133.451200	0.001020	10.199359	3.455636	0.081469
 492	2.4550e-01	19.6134	133.789980	0.000848	8.482635	2.873995	0.067756
 493	2.4600e-01	19.6535	134.048098	0.000646	6.462960	2.189710	0.051624
 494	2.4650e-01	19.6887	134.011800	-0.000091	-0.908854	-0.307928	-0.007260
 495	2.4700e-01	19.7256	134.713560	0.001757	17.571173	5.953275	0.140352
 496	2.4750e-01	19.7706	134.862784	0.000374	3.736399	1.265926	0.029845
 497	2.4800e-01	19.8107	135.028141	0.000414	4.140334	1.402783	0.033071
 498	2.4850e-01	19.8508	135.443550	0.001040	10.401327	3.524065	0.083082
 499	2.4900e-01	19.8941	135.475815	0.000081	0.807870	0.273714	0.006453
 500	2.4950e-01	19.9342	135.770231	0.000737	7.371814	2.497638	0.058883
 501	2.5000e-01	19.9711	135.919456	0.000374	3.736399	1.265926	0.029845
 502	2.5050e-01	19.9775	135.975919	0.000141	1.413773	0.478999	0.011293
 503	2.5100e-01	19.9486	135.963820	0.000030	0.302951	0.102643	-0.002420
 504	2.5150e-01	19.9198	135.919456	0.000111	1.110821	0.376356	-0.008873
 505	2.5200e-01	19.8764	135.604874	0.000788	7.876733	2.668709	-0.062916
 506	2.5250e-01	19.8331	135.395153	0.000525	5.251155	1.779140	-0.041944
 507	2.5300e-01	19.8010	135.161233	0.000586	5.857058	1.984425	-0.046784
 508	2.5350e-01	19.7593	134.975711	0.000465	4.645253	1.573854	-0.037105
 509	2.5400e-01	19.7128	134.770023	0.000515	5.150171	1.744925	-0.041138
 510	2.5450e-01	19.6743	134.709526	0.000151	1.514756	0.513213	-0.012099
 511	2.5500e-01	19.6390	134.370746	0.000848	8.482635	2.873995	-0.067756
 512	2.5550e-01	19.6021	134.140860	0.000576	5.756074	1.950211	-0.045977
 513	2.5600e-01	19.5604	133.866609	0.000687	6.866895	2.326567	-0.054850
 514	2.5650e-01	19.5219	133.842410	0.000061	0.605903	0.205285	-0.004840
 515	2.5700e-01	19.4770	133.463299	0.000949	9.492473	3.216137	-0.075822
 516	2.5750e-01	19.4401	133.233412	0.000576	5.756074	1.950211	-0.045977
 517	2.5800e-01	19.3952	132.797838	0.001091	10.906245	3.695136	-0.087115
 518	2.5850e-01	19.3551	132.878500	-0.000202	-2.019675	-0.684284	0.016132
 519	2.5900e-01	19.3214	132.628448	0.000626	6.260993	2.121282	-0.050010
 520	2.5950e-01	19.2829	132.406627	0.000555	5.554106	1.881782	-0.044364
 521	2.6000e-01	19.2412	132.116244	0.000727	7.270830	2.463424	-0.058077
 522	2.6050e-01	19.2027	132.088012	0.000071	0.706886	0.239500	-0.005646
 523	2.6100e-01	19.1610	131.850060	0.000596	5.958041	2.018639	-0.047591
 524	2.6150e-01	19.1176	131.567743	0.000707	7.068863	2.394996	-0.056463
 525	2.6200e-01	19.0711	131.297525	0.000677	6.765912	2.292353	-0.054044
 526	2.6250e-01	19.0390	131.047473	0.000626	6.260993	2.121282	-0.050010
 527	2.6300e-01	18.9893	130.942612	0.000263	2.625578	0.889570	-0.020972
 528	2.6350e-01	18.9620	130.636097	0.000767	7.674765	2.600281	-0.061303
 529	2.6400e-01	18.9187	130.361846	0.000687	6.866895	2.326567	-0.054850
 530	2.6450e-01	18.8754	130.208588	0.000384	3.837383	1.300140	-0.030652
 531	2.6500e-01	18.8481	129.797212	0.001030	10.300343	3.489851	-0.082275
 532	2.6550e-01	18.8000	129.684286	0.000283	2.827545	0.957998	-0.022585
 533	2.6600e-01	18.7615	129.514895	0.000424	4.241318	1.436997	-0.033878
 534	2.6650e-01	18.7182	129.216446	0.000747	7.472798	2.531852	-0.059690
 535	2.6700e-01	18.6845	129.107552	0.000273	2.726561	0.923784	-0.021779
 536	2.6750e-01	18.6412	128.712309	0.000990	9.896408	3.352994	-0.079049
 537	2.6800e-01	18.5963	128.651812	0.000151	1.514756	0.513213	-0.012099
 538	2.6850e-01	18.5626	128.405793	0.000616	6.160009	2.087068	-0.049204
 539	2.6900e-01	18.5177	128.046848	0.000899	8.987554	3.045066	-0.071789
 540	2.6950e-01	18.4872	127.667736	0.000949	9.492473	3.216137	-0.075822
 541	2.7000e-01	18.4391	127.566909	0.000252	2.524594	0.855356	-0.020165
 542	2.7050e-01	18.3989	127.159566	0.001020	10.199359	3.455636	-0.081469
 543	2.7100e-01	18.3588	126.986143	0.000434	4.342301	1.471212	-0.034685
 544	2.7150e-01	18.3123	126.857083	0.000323	3.231480	1.094855	-0.025812
 545	2.7200e-01	18.2866	126.586866	0.000677	6.765912	2.292353	-0.054044
 546	2.7250e-01	18.2449	126.365045	0.000555	5.554106	1.881782	-0.044364
 547	2.7300e-01	18.2016	125.994000	0.000929	9.290505	3.147708	-0.074209
 548	2.7350e-01	18.1599	125.929471	0.000162	1.615740	0.547428	-0.012906
 549	2.7400e-01	18.1214	125.598757	0.000828	8.280668	2.805566	-0.066143
 550	2.7450e-01	18.0845	125.227712	0.000929	9.290505	3.147708	-0.074209
 551	2.7500e-01	18.0396	125.130917	0.000242	2.423610	0.821141	-0.019359
 552	2.7550e-01	18.0091	124.921196	0.000525	5.251155	1.779140	-0.041944
 553	2.7600e-01	17.9530	124.404959	0.001293	12.925920	4.379420	-0.103247
 554	2.7650e-01	17.9209	124.392860	0.000030	0.302951	0.102643	-0.002420
 555	2.7700e-01	17.8824	124.098444	0.000737	7.371814	2.497638	-0.058883
 556	2.7750e-01	17.8455	123.908888	0.000475	4.746236	1.608068	-0.037911
 557	2.7800e-01	17.8054	123.723366	0.000465	4.645253	1.573854	-0.037105
 558	2.7850e-01	17.7573	123.428950	0.000737	7.371814	2.497638	-0.058883
 559	2.7900e-01	17.7171	123.078070	0.000879	8.785587	2.976637	-0.070176
 560	2.7950e-01	17.6835	122.977243	0.000252	2.524594	0.855356	-0.020165
 561	2.8000e-01	17.6498	122.618297	0.000899	8.987554	3.045066	-0.071789
 562	2.8050e-01	17.5952	122.424708	0.000485	4.847220	1.642283	-0.038718
 563	2.8100e-01	17.5519	122.327914	0.000242	2.423610	0.821141	-0.019359
 564	2.8150e-01	17.5230	122.081895	0.000616	6.160009	2.087068	-0.049204
 565	2.8200e-01	17.4749	121.670519	0.001030	10.300343	3.489851	-0.082275
 566	2.8250e-01	17.4284	121.484996	0.000465	4.645253	1.573854	-0.037105
 567	2.8300e-01	17.3947	121.303507	0.000454	4.544269	1.539640	-0.036298
 568	2.8350e-01	17.3594	121.150249	0.000384	3.837383	1.300140	-0.030652
 569	2.8400e-01	17.3177	120.827601	0.000808	8.078700	2.737138	-0.064530
 570	2.8450e-01	17.2840	120.492854	0.000838	8.381652	2.839780	-0.066949
 571	2.8500e-01	17.2327	120.113743	0.000949	9.492473	3.216137	-0.075822
 572	2.8550e-01	17.2006	120.012915	0.000252	2.524594	0.855356	-0.020165
 573	2.8600e-01	17.1525	119.746731	0.000666	6.664928	2.258139	-0.053237
 574	2.8650e-01	17.1204	119.508778	0.000596	5.958041	2.018639	-0.047591
 575	2.8700e-01	17.0755	119.411983	0.000242	2.423610	0.821141	-0.019359
 576	2.8750e-01	17.0337	119.230494	0.000454	4.544269	1.539640	-0.036298
 577	2.8800e-01	17.0049	118.867515	0.000909	9.088538	3.079280	-0.072596
 578	2.8850e-01	16.9696	118.395643	0.001182	11.815099	4.003064	-0.094375
 579	2.8900e-01	16.9134	118.145590	0.000626	6.260993	2.121282	-0.050010
 580	2.8950e-01	16.8797	117.927803	0.000545	5.453123	1.847568	-0.043557
 581	2.9000e-01	16.8348	117.778578	0.000374	3.736399	1.265926	-0.029845
 582	2.9050e-01	16.8011	117.568857	0.000525	5.251155	1.779140	-0.041944
 583	2.9100e-01	16.7482	117.105051	0.001161	11.613132	3.934636	-0.092761
 584	2.9150e-01	16.7257	117.072786	0.000081	0.807870	0.273714	-0.006453
 585	2.9200e-01	16.6824	116.697708	0.000939	9.391489	3.181923	-0.075016
 586	2.9250e-01	16.6391	116.617046	0.000202	2.019675	0.684284	-0.016132
 587	2.9300e-01	16.5958	116.153240	0.001161	11.613132	3.934636	-0.092761
 588	2.9350e-01	16.5541	116.185505	-0.000081	-0.807870	-0.273714	0.006453
 589	2.9400e-01	16.5172	115.830592	0.000889	8.886570	3.010852	-0.070983
 590	2.9450e-01	16.4771	115.548275	0.000707	7.068863	2.394996	-0.056463
 591	2.9500e-01	16.4338	115.233693	0.000788	7.876733	2.668709	-0.062916
 592	2.9550e-01	16.4017	114.737622	0.001242	12.421002	4.208349	-0.099214
 593	2.9600e-01	16.3600	114.765854	-0.000071	-0.706886	-0.239500	0.005646
 594	2.9650e-01	16.3167	114.600497	0.000414	4.140334	1.402783	-0.033071
 595	2.9700e-01	16.2765	114.419007	0.000454	4.544269	1.539640	-0.036298
 596	2.9750e-01	16.2396	114.116525	0.000757	7.573782	2.566067	-0.060496
 597	2.9800e-01	16.2044	113.689017	0.001070	10.704278	3.626708	-0.085502
 598	2.9850e-01	16.1578	113.370402	0.000798	7.977717	2.702924	-0.063723
 599	2.9900e-01	16.1177	113.233276	0.000343	3.433448	1.163284	-0.027425
 600	2.9950e-01	16.0824	113.084052	0.000374	3.736399	1.265926	-0.029845
 601	3.0000e-01	16.0295	112.761404	0.000808	8.078700	2.737138	-0.064530
 602	3.0050e-01	16.0006	112.519418	0.000606	6.059025	2.052853	-0.048397
 603	3.0100e-01	15.9493	112.176605	0.000858	8.583619	2.908209	-0.068563
 604	3.0150e-01	15.9092	112.168538	0.000020	0.201968	0.068428	-0.001613
 605	3.0200e-01	15.8755	111.829758	0.000848	8.482635	2.873995	-0.067756
 606	3.0250e-01	15.8402	111.406283	0.001060	10.603294	3.592493	-0.084695
 607	3.0300e-01	15.8001	111.220760	0.000465	4.645253	1.573854	-0.037105
 608	3.0350e-01	15.7552	110.922311	0.000747	7.472798	2.531852	-0.059690
 609	3.0400e-01	15.7151	110.688391	0.000586	5.857058	1.984425	-0.046784
 610	3.0450e-01	15.6750	110.567398	0.000303	3.029513	1.026427	-0.024199
 611	3.0500e-01	15.6413	110.317346	0.000626	6.260993	2.121282	-0.050010
 612	3.0550e-01	15.5996	109.897904	0.001050	10.502310	3.558279	-0.083888
 613	3.0600e-01	15.5643	109.728514	0.000424	4.241318	1.436997	-0.033878
 614	3.0650e-01	15.5210	109.446197	0.000707	7.068863	2.394996	-0.056463
 615	3.0700e-01	15.4696	109.006589	0.001101	11.007229	3.729350	-0.087922
 616	3.0750e-01	15.4311	108.825100	0.000454	4.544269	1.539640	-0.036298
 617	3.0800e-01	15.3990	108.526650	0.000747	7.472798	2.531852	-0.059690
 618	3.0850e-01	15.3637	108.228201	0.000747	7.472798	2.531852	-0.059690
 619	3.0900e-01	15.3140	108.038645	0.000475	4.746236	1.608068	-0.037911
 620	3.0950e-01	15.2771	107.889421	0.000374	3.736399	1.265926	-0.029845
 621	3.1000e-01	15.2370	107.675666	0.000535	5.352139	1.813354	-0.042751
 622	3.1050e-01	15.1937	107.268324	0.001020	10.199359	3.455636	-0.081469
 623	3.1100e-01	15.1632	107.054569	0.000535	5.352139	1.813354	-0.042751
 624	3.1150e-01	15.1151	106.760153	0.000737	7.371814	2.497638	-0.058883
 625	3.1200e-01	15.0814	106.389108	0.000929	9.290505	3.147708	-0.074209
 626	3.1250e-01	15.0365	106.211652	0.000444	4.443285	1.505426	-0.035491
 627	3.1300e-01	14.9996	106.066460	0.000364	3.635415	1.231712	-0.029038
 628	3.1350e-01	14.9547	105.808342	0.000646	6.462960	2.189710	-0.051624
 629	3.1400e-01	14.9178	105.505859	0.000757	7.573782	2.566067	-0.060496
 630	3.1450e-01	14.8809	105.348569	0.000394	3.938366	1.334355	-0.031458
 631	3.1500e-01	14.8392	105.054152	0.000737	7.371814	2.497638	-0.058883
 632	3.1550e-01	14.7990	104.808133	0.000616	6.160009	2.087068	-0.049204
 633	3.1600e-01	14.7557	104.574214	0.000586	5.857058	1.984425	-0.046784
 634	3.1650e-01	14.7108	104.174937	0.001000	9.997392	3.387208	-0.079855
 635	3.1700e-01	14.6787	104.037812	0.000343	3.433448	1.163284	-0.027425
 636	3.1750e-01	14.6370	103.699031	0.000848	8.482635	2.873995	-0.067756
 637	3.1800e-01	14.5905	103.489310	0.000525	5.251155	1.779140	-0.041944
 638	3.1850e-01	14.5664	103.041636	0.001121	11.209197	3.797779	-0.089535
 639	3.1900e-01	14.5151	102.718988	0.000808	8.078700	2.737138	-0.064530
 640	3.1950e-01	14.4782	102.553631	0.000414	4.140334	1.402783	-0.033071
 641	3.2000e-01	14.4413	102.134189	0.001050	10.502310	3.558279	-0.083888
 642	3.2050e-01	14.3964	102.073693	0.000151	1.514756	0.513213	-0.012099
 643	3.2100e-01	14.3611	101.976898	0.000242	2.423610	0.821141	-0.019359
 644	3.2150e-01	14.3178	101.734912	0.000606	6.059025	2.052853	-0.048397
 645	3.2200e-01	14.2761	101.331602	0.001010	10.098375	3.421422	-0.080662
 646	3.2250e-01	14.2376	101.004921	0.000818	8.179684	2.771352	-0.065336
 647	3.2300e-01	14.1991	100.863763	0.000353	3.534431	1.197498	-0.028232
 648	3.2350e-01	14.1558	100.581446	0.000707	7.068863	2.394996	-0.056463
 649	3.2400e-01	14.1140	100.145871	0.001091	10.906245	3.695136	-0.087115
 650	3.2450e-01	14.0755	100.093441	0.000131	1.312789	0.444785	-0.010486
 651	3.2500e-01	14.0386	99.794992	0.000747	7.472798	2.531852	-0.059690
 652	3.2550e-01	13.9969	99.557039	0.000596	5.958041	2.018639	-0.047591
 653	3.2600e-01	13.9552	99.194060	0.000909	9.088538	3.079280	-0.072596
 654	3.2650e-01	13.9151	98.790750	0.001010	10.098375	3.421422	-0.080662
 655	3.2700e-01	13.8830	98.835114	-0.000111	-1.110821	-0.376356	0.008873
 656	3.2750e-01	13.8461	98.552797	0.000707	7.068863	2.394996	-0.056463
 657	3.2800e-01	13.7948	98.008329	0.001363	13.632807	4.618920	-0.108894
 658	3.2850e-01	13.7563	97.754244	0.000636	6.361976	2.155496	-0.050817
 659	3.2900e-01	13.7178	97.536457	0.000545	5.453123	1.847568	-0.043557
 660	3.2950e-01	13.6681	97.395298	0.000353	3.534431	1.197498	-0.028232
 661	3.3000e-01	13.6456	97.157345	0.000596	5.958041	2.018639	-0.047591
 662	3.3050e-01	13.5943	96.689506	0.001171	11.714115	3.968850	-0.093568
 663	3.3100e-01	13.5526	96.689506	-0.000000	-0.000000	-0.000000	0.000000
 664	3.3150e-01	13.5141	96.318461	0.000929	9.290505	3.147708	-0.074209
 665	3.3200e-01	13.4723	96.072442	0.000616	6.160009	2.087068	-0.049204
 666	3.3250e-01	13.4371	95.757860	0.000788	7.876733	2.668709	-0.062916
 667	3.3300e-01	13.3921	95.394881	0.000909	9.088538	3.079280	-0.072596
 668	3.3350e-01	13.3568	95.056101	0.000848	8.482635	2.873995	-0.067756
 669	3.3400e-01	13.3119	95.019803	0.000091	0.908854	0.307928	-0.007260
 670	3.3450e-01	13.2830	94.668923	0.000879	8.785587	2.976637	-0.070176
 671	3.3500e-01	13.2365	94.511633	0.000394	3.938366	1.334355	-0.031458
 672	3.3550e-01	13.1900	94.148654	0.000909	9.088538	3.079280	-0.072596
 673	3.3600e-01	13.1595	93.894569	0.000636	6.361976	2.155496	-0.050817
 674	3.3650e-01	13.1194	93.600152	0.000737	7.371814	2.497638	-0.058883
 675	3.3700e-01	13.0777	93.261372	0.000848	8.482635	2.873995	-0.067756
 676	3.3750e-01	13.0344	92.991154	0.000677	6.765912	2.292353	-0.054044
 677	3.3800e-01	13.0007	92.761268	0.000576	5.756074	1.950211	-0.045977
 678	3.3850e-01	12.9478	92.466852	0.000737	7.371814	2.497638	-0.058883
 679	3.3900e-01	12.9221	92.031277	0.001091	10.906245	3.695136	-0.087115
 680	3.3950e-01	12.8788	91.692497	0.000848	8.482635	2.873995	-0.067756
 681	3.4000e-01	12.8371	91.555371	0.000343	3.433448	1.163284	-0.027425
 682	3.4050e-01	12.8002	91.349683	0.000515	5.150171	1.744925	-0.041138
 683	3.4100e-01	12.7601	91.297253	0.000131	1.312789	0.444785	-0.010486
 684	3.4150e-01	12.7216	91.006870	0.000727	7.270830	2.463424	-0.058077
 685	3.4200e-01	12.6863	90.813281	0.000485	4.847220	1.642283	-0.038718
 686	3.4250e-01	12.6446	90.309144	0.001262	12.622969	4.276778	-0.100827
 687	3.4300e-01	12.5996	90.151853	0.000394	3.938366	1.334355	-0.031458
 688	3.4350e-01	12.5595	89.788874	0.000909	9.088538	3.079280	-0.072596
 689	3.4400e-01	12.5114	89.478326	0.000778	7.775749	2.634495	-0.062110
 690	3.4450e-01	12.4825	89.252472	0.000566	5.655090	1.915996	-0.045171
 691	3.4500e-01	12.4440	89.187942	0.000162	1.615740	0.547428	-0.012906
 692	3.4550e-01	12.4007	88.631375	0.001394	13.935758	4.721563	-0.111314
 693	3.4600e-01	12.3590	88.461985	0.000424	4.241318	1.436997	-0.033878
 694	3.4650e-01	12.3173	88.022377	0.001101	11.007229	3.729350	-0.087922
 695	3.4700e-01	12.2820	87.800557	0.000555	5.554106	1.881782	-0.044364
 696	3.4750e-01	12.2435	87.546471	0.000636	6.361976	2.155496	-0.050817
 697	3.4800e-01	12.2034	87.143161	0.001010	10.098375	3.421422	-0.080662
 698	3.4850e-01	12.1697	86.889076	0.000636	6.361976	2.155496	-0.050817
 699	3.4900e-01	12.1200	86.578528	0.000778	7.775749	2.634495	-0.062110
 700	3.4950e-01	12.0895	86.526097	0.000131	1.312789	0.444785	-0.010486
 701	3.5000e-01	12.0414	86.118754	0.001020	10.199359	3.455636	-0.081469
 702	3.5050e-01	12.0061	85.638816	0.001202	12.017067	4.071492	-0.095988
 703	3.5100e-01	11.9596	85.537988	0.000252	2.524594	0.855356	-0.020165
 704	3.5150e-01	11.9323	85.364565	0.000434	4.342301	1.471212	-0.034685
 705	3.5200e-01	11.8842	85.078215	0.000717	7.169847	2.429210	-0.057270
 706	3.5250e-01	11.8424	84.848328	0.000576	5.756074	1.950211	-0.045977
 707	3.5300e-01	11.8023	84.376456	0.001182	11.815099	4.003064	-0.094375
 708	3.5350e-01	11.7638	84.178834	0.000495	4.948204	1.676497	-0.039524
 709	3.5400e-01	11.7157	83.864252	0.000788	7.876733	2.668709	-0.062916
 710	3.5450e-01	11.6772	83.710995	0.000384	3.837383	1.300140	-0.030652
 711	3.5500e-01	11.6451	83.412545	0.000747	7.472798	2.531852	-0.059690
 712	3.5550e-01	11.6082	83.194758	0.000545	5.453123	1.847568	-0.043557
 713	3.5600e-01	11.5585	82.835812	0.000899	8.987554	3.045066	-0.071789
 714	3.5650e-01	11.5200	82.630124	0.000515	5.150171	1.744925	-0.041138
 715	3.5700e-01	11.4735	82.251013	0.000949	9.492473	3.216137	-0.075822
 716	3.5750e-01	11.4366	82.017093	0.000586	5.857058	1.984425	-0.046784
 717	3.5800e-01	11.3997	81.750909	0.000666	6.664928	2.258139	-0.053237
 718	3.5850e-01	11.3596	81.496823	0.000636	6.361976	2.155496	-0.050817
 719	3.5900e-01	11.3211	81.149977	0.000868	8.684603	2.942423	-0.069369
 720	3.5950e-01	11.2762	80.899925	0.000626	6.260993	2.121282	-0.050010
 721	3.6000e-01	11.2360	80.540979	0.000899	8.987554	3.045066	-0.071789
 722	3.6050e-01	11.2072	80.307059	0.000586	5.857058	1.984425	-0.046784
 723	3.6100e-01	11.1623	79.778723	0.001323	13.228872	4.482063	-0.105667
 724	3.6150e-01	11.1157	79.774690	0.000010	0.100984	0.034214	-0.000807
 725	3.6200e-01	11.0772	79.278619	0.001242	12.421002	4.208349	-0.099214
 726	3.6250e-01	11.0435	79.153593	0.000313	3.130496	1.060641	-0.025005
 727	3.6300e-01	11.0002	78.911607	0.000606	6.059025	2.052853	-0.048397
 728	3.6350e-01	10.9633	78.564761	0.000868	8.684603	2.942423	-0.069369
 729	3.6400e-01	10.9184	78.492165	0.000182	1.817708	0.615856	-0.014519
 730	3.6450e-01	10.8783	78.181616	0.000778	7.775749	2.634495	-0.062110
 731	3.6500e-01	10.8430	77.899300	0.000707	7.068863	2.394996	-0.056463
 732	3.6550e-01	10.8061	77.645214	0.000636	6.361976	2.155496	-0.050817
 733	3.6600e-01	10.7564	77.326600	0.000798	7.977717	2.702924	-0.063723
 734	3.6650e-01	10.7195	77.016051	0.000778	7.775749	2.634495	-0.062110
 735	3.6700e-01	10.6938	76.499814	0.001293	12.925920	4.379420	-0.103247
 736	3.6750e-01	10.6361	76.314292	0.000465	4.645253	1.573854	-0.037105
 737	3.6800e-01	10.5976	75.987611	0.000818	8.179684	2.771352	-0.065336
 738	3.6850e-01	10.5559	75.709327	0.000697	6.967879	2.360781	-0.055657
 739	3.6900e-01	10.5157	75.491540	0.000545	5.453123	1.847568	-0.043557
 740	3.6950e-01	10.4805	75.338282	0.000384	3.837383	1.300140	-0.030652
 741	3.7000e-01	10.4403	75.023700	0.000788	7.876733	2.668709	-0.062916
 742	3.7050e-01	10.3938	74.769615	0.000636	6.361976	2.155496	-0.050817
 743	3.7100e-01	10.3553	74.592159	0.000444	4.443285	1.505426	-0.035491
 744	3.7150e-01	10.3184	74.330007	0.000656	6.563944	2.223924	-0.052430
 745	3.7200e-01	10.2687	73.854102	0.001192	11.916083	4.037278	-0.095181
 746	3.7250e-01	10.2446	73.648414	0.000515	5.150171	1.744925	-0.041138
 747	3.7300e-01	10.1997	73.212839	0.001091	10.906245	3.695136	-0.087115
 748	3.7350e-01	10.1612	73.043449	0.000424	4.241318	1.436997	-0.033878
 749	3.7400e-01	10.1227	72.716768	0.000818	8.179684	2.771352	-0.065336
 750	3.7450e-01	10.0794	72.607874	0.000273	2.726561	0.923784	-0.021779
 751	3.7500e-01	10.0393	72.293292	0.000788	7.876733	2.668709	-0.062916
 752	3.7550e-01	10.0008	71.962578	0.000828	8.280668	2.805566	-0.066143
 753	3.7600e-01	9.9671	71.361647	0.001505	15.046579	5.097919	-0.120186
 754	3.7650e-01	9.9190	71.345514	0.000040	0.403935	0.136857	-0.003226
 755	3.7700e-01	9.8773	70.926072	0.001050	10.502310	3.558279	-0.083888
 756	3.7750e-01	9.8323	70.797013	0.000323	3.231480	1.094855	-0.025812
 757	3.7800e-01	9.8003	70.474365	0.000808	8.078700	2.737138	-0.064530
 758	3.7850e-01	9.7537	70.018625	0.001141	11.411164	3.866207	-0.091148
 759	3.7900e-01	9.7168	69.687911	0.000828	8.280668	2.805566	-0.066143
 760	3.7950e-01	9.6799	69.425759	0.000656	6.563944	2.223924	-0.052430
 761	3.8000e-01	9.6398	69.228138	0.000495	4.948204	1.676497	-0.039524
 762	3.8050e-01	9.5965	69.139409	0.000222	2.221643	0.752713	-0.017746
 763	3.8100e-01	9.5628	68.853059	0.000717	7.169847	2.429210	-0.057270
 764	3.8150e-01	9.5227	68.336823	0.001293	12.925920	4.379420	-0.103247
 765	3.8200e-01	9.4794	68.159366	0.000444	4.443285	1.505426	-0.035491
 766	3.8250e-01	9.4473	67.784288	0.000939	9.391489	3.181923	-0.075016
 767	3.8300e-01	9.3896	67.550368	0.000586	5.857058	1.984425	-0.046784
 768	3.8350e-01	9.3591	67.308383	0.000606	6.059025	2.052853	-0.048397
 769	3.8400e-01	9.3142	66.933304	0.000939	9.391489	3.181923	-0.075016
 770	3.8450e-01	9.2773	66.638888	0.000737	7.371814	2.497638	-0.058883
 771	3.8500e-01	9.2468	66.183148	0.001141	11.411164	3.866207	-0.091148
 772	3.8550e-01	9.1955	65.977460	0.000515	5.150171	1.744925	-0.041138
 773	3.8600e-01	9.1666	65.856467	0.000303	3.029513	1.026427	-0.024199
 774	3.8650e-01	9.1169	65.743540	0.000283	2.827545	0.957998	-0.022585
 775	3.8700e-01	9.0784	65.166807	0.001444	14.440677	4.892634	-0.115347
 776	3.8750e-01	9.0399	65.041781	0.000313	3.130496	1.060641	-0.025005
 777	3.8800e-01	8.9965	64.759464	0.000707	7.068863	2.394996	-0.056463
 778	3.8850e-01	8.9564	64.323890	0.001091	10.906245	3.695136	-0.087115
 779	3.8900e-01	8.9195	64.061738	0.000656	6.563944	2.223924	-0.052430
 780	3.8950e-01	8.8810	63.924613	0.000343	3.433448	1.163284	-0.027425
 781	3.9000e-01	8.8473	63.497104	0.001070	10.704278	3.626708	-0.085502
 782	3.9050e-01	8.7864	63.234953	0.000656	6.563944	2.223924	-0.052430
 783	3.9100e-01	8.7543	63.041364	0.000485	4.847220	1.642283	-0.038718
 784	3.9150e-01	8.7270	62.504962	0.001343	13.430839	4.550492	-0.107280
 785	3.9200e-01	8.6805	62.178281	0.000818	8.179684	2.771352	-0.065336
 786	3.9250e-01	8.6340	62.129884	0.000121	1.211805	0.410571	-0.009679
 787	3.9300e-01	8.6003	61.912097	0.000545	5.453123	1.847568	-0.043557
 788	3.9350e-01	8.5570	61.331330	0.001454	14.541661	4.926848	-0.116153
 789	3.9400e-01	8.5201	61.061113	0.000677	6.765912	2.292353	-0.054044
 790	3.9450e-01	8.4703	60.807028	0.000636	6.361976	2.155496	-0.050817
 791	3.9500e-01	8.4367	60.508578	0.000747	7.472798	2.531852	-0.059690
 792	3.9550e-01	8.4030	60.125434	0.000959	9.593457	3.250351	-0.076629
 793	3.9600e-01	8.3548	59.915713	0.000525	5.251155	1.779140	-0.041944
 794	3.9650e-01	8.3228	59.536602	0.000949	9.492473	3.216137	-0.075822
 795	3.9700e-01	8.2794	59.351079	0.000465	4.645253	1.573854	-0.037105
 796	3.9750e-01	8.2458	58.923571	0.001070	10.704278	3.626708	-0.085502
 797	3.9800e-01	8.1880	58.838876	0.000212	2.120659	0.718499	-0.016939
 798	3.9850e-01	8.1655	58.492029	0.000868	8.684603	2.942423	-0.069369
 799	3.9900e-01	8.1094	58.302473	0.000475	4.746236	1.608068	-0.037911
 800	3.9950e-01	8.0853	57.753972	0.001373	13.733791	4.653134	-0.109700
 801	4.0000e-01	8.0388	57.540218	0.000535	5.352139	1.813354	-0.042751
 802	4.0050e-01	7.9987	57.201437	0.000848	8.482635	2.873995	-0.067756
 803	4.0100e-01	7.9570	56.931220	0.000677	6.765912	2.292353	-0.054044
 804	4.0150e-01	7.9121	56.624704	0.000767	7.674765	2.600281	-0.061303
 805	4.0200e-01	7.8720	56.483546	0.000353	3.534431	1.197498	-0.028232
 806	4.0250e-01	7.8415	56.152832	0.000828	8.280668	2.805566	-0.066143
 807	4.0300e-01	7.8030	55.765654	0.000969	9.694440	3.284565	-0.077435
 808	4.0350e-01	7.7549	55.620463	0.000364	3.635415	1.231712	-0.029038
 809	4.0400e-01	7.7228	55.213120	0.001020	10.199359	3.455636	-0.081469
 810	4.0450e-01	7.6827	54.886439	0.000818	8.179684	2.771352	-0.065336
 811	4.0500e-01	7.6345	54.507328	0.000949	9.492473	3.216137	-0.075822
 812	4.0550e-01	7.5960	54.382302	0.000313	3.130496	1.060641	-0.025005
 813	4.0600e-01	7.5607	54.003190	0.000949	9.492473	3.216137	-0.075822
 814	4.0650e-01	7.5158	53.749105	0.000636	6.361976	2.155496	-0.050817
 815	4.0700e-01	7.4773	53.353861	0.000990	9.896408	3.352994	-0.079049
 816	4.0750e-01	7.4228	53.168339	0.000465	4.645253	1.573854	-0.037105
 817	4.0800e-01	7.3987	52.789228	0.000949	9.492473	3.216137	-0.075822
 818	4.0850e-01	7.3602	52.462547	0.000818	8.179684	2.771352	-0.065336
 819	4.0900e-01	7.3153	52.208461	0.000636	6.361976	2.155496	-0.050817
 820	4.0950e-01	7.2768	52.006806	0.000505	5.049188	1.710711	-0.040331
 821	4.1000e-01	7.2271	51.748688	0.000646	6.462960	2.189710	-0.051624
 822	4.1050e-01	7.1886	51.559133	0.000475	4.746236	1.608068	-0.037911
 823	4.1100e-01	7.1597	51.079194	0.001202	12.017067	4.071492	-0.095988
 824	4.1150e-01	7.1212	50.679917	0.001000	9.997392	3.387208	-0.079855
 825	4.1200e-01	7.0779	50.284673	0.000990	9.896408	3.352994	-0.079049
 826	4.1250e-01	7.0362	50.171747	0.000283	2.827545	0.957998	-0.022585
 827	4.1300e-01	6.9993	49.885397	0.000717	7.169847	2.429210	-0.057270
 828	4.1350e-01	6.9624	49.647444	0.000596	5.958041	2.018639	-0.047591
 829	4.1400e-01	6.9158	49.248167	0.001000	9.997392	3.387208	-0.079855
 830	4.1450e-01	6.8806	48.893254	0.000889	8.886570	3.010852	-0.070983
 831	4.1500e-01	6.8372	48.619004	0.000687	6.866895	2.326567	-0.054850
 832	4.1550e-01	6.8019	48.227793	0.000980	9.795424	3.318780	-0.078242
 833	4.1600e-01	6.7667	48.195528	0.000081	0.807870	0.273714	-0.006453
 834	4.1650e-01	6.7233	47.763987	0.001081	10.805262	3.660922	-0.086308
 835	4.1700e-01	6.6672	47.578464	0.000465	4.645253	1.573854	-0.037105
 836	4.1750e-01	6.6415	47.054161	0.001313	13.127888	4.447849	-0.104861
 837	4.1800e-01	6.6046	46.921069	0.000333	3.332464	1.129069	-0.026618
 838	4.1850e-01	6.5709	46.412899	0.001272	12.723953	4.310992	-0.101634
 839	4.1900e-01	6.5196	46.283840	0.000323	3.231480	1.094855	-0.025812
 840	4.1950e-01	6.4683	45.622411	0.001656	16.561336	5.611132	-0.132286
 841	4.2000e-01	6.4378	45.453021	0.000424	4.241318	1.436997	-0.033878
 842	4.2050e-01	6.3993	45.235234	0.000545	5.453123	1.847568	-0.043557
 843	4.2100e-01	6.3528	44.952917	0.000707	7.068863	2.394996	-0.056463
 844	4.2150e-01	6.3143	44.755295	0.000495	4.948204	1.676497	-0.039524
 845	4.2200e-01	6.2742	44.360052	0.000990	9.896408	3.352994	-0.079049
 846	4.2250e-01	6.2437	44.009172	0.000879	8.785587	2.976637	-0.070176
 847	4.2300e-01	6.1955	43.892212	0.000293	2.928529	0.992212	-0.023392
 848	4.2350e-01	6.1651	43.444538	0.001121	11.209197	3.797779	-0.089535
 849	4.2400e-01	6.1169	43.339678	0.000263	2.625578	0.889570	-0.020972
 850	4.2450e-01	6.0720	43.012997	0.000818	8.179684	2.771352	-0.065336
 851	4.2500e-01	6.0319	42.650018	0.000909	9.088538	3.079280	-0.072596
 852	4.2550e-01	5.9950	42.222509	0.001070	10.704278	3.626708	-0.085502
 853	4.2600e-01	5.9597	42.129748	0.000232	2.322626	0.786927	-0.018552
 854	4.2650e-01	5.9292	41.718372	0.001030	10.300343	3.489851	-0.082275
 855	4.2700e-01	5.8843	41.375559	0.000858	8.583619	2.908209	-0.068563
 856	4.2750e-01	5.8346	41.069043	0.000767	7.674765	2.600281	-0.061303
 857	4.2800e-01	5.8073	40.883521	0.000465	4.645253	1.573854	-0.037105
 858	4.2850e-01	5.7672	40.508442	0.000939	9.391489	3.181923	-0.075016
 859	4.2900e-01	5.7223	40.040603	0.001171	11.714115	3.968850	-0.093568
 860	4.2950e-01	5.6774	39.774418	0.000666	6.664928	2.258139	-0.053237
 861	4.3000e-01	5.6276	39.560664	0.000535	5.352139	1.813354	-0.042751
 862	4.3050e-01	5.5908	39.024262	0.001343	13.430839	4.550492	-0.107280
 863	4.3100e-01	5.5603	38.996030	0.000071	0.706886	0.239500	-0.005646
 864	4.3150e-01	5.5154	38.669349	0.000818	8.179684	2.771352	-0.065336
 865	4.3200e-01	5.4785	38.366867	0.000757	7.573782	2.566067	-0.060496
 866	4.3250e-01	5.4432	38.032120	0.000838	8.381652	2.839780	-0.066949
 867	4.3300e-01	5.3998	37.725604	0.000767	7.674765	2.600281	-0.061303
 868	4.3350e-01	5.3565	37.366659	0.000899	8.987554	3.045066	-0.071789
 869	4.3400e-01	5.3212	36.983514	0.000959	9.593457	3.250351	-0.076629
 870	4.3450e-01	5.2811	36.588271	0.000990	9.896408	3.352994	-0.079049
 871	4.3500e-01	5.2362	36.201093	0.000969	9.694440	3.284565	-0.077435
 872	4.3550e-01	5.1993	36.047835	0.000384	3.837383	1.300140	-0.030652
 873	4.3600e-01	5.1592	35.757452	0.000727	7.270830	2.463424	-0.058077
 874	4.3650e-01	5.1143	35.644525	0.000283	2.827545	0.957998	-0.022585
 875	4.3700e-01	5.0870	35.342043	0.000757	7.573782	2.566067	-0.060496
 876	4.3750e-01	5.0357	35.027461	0.000788	7.876733	2.668709	-0.062916
 877	4.3800e-01	5.0004	34.527357	0.001252	12.521985	4.242564	-0.100021
 878	4.3850e-01	4.9603	34.438629	0.000222	2.221643	0.752713	-0.017746
 879	4.3900e-01	4.9138	34.216809	0.000555	5.554106	1.881782	-0.044364
 880	4.3950e-01	4.8881	33.652175	0.001414	14.137726	4.789991	-0.112927
 881	4.4000e-01	4.8416	33.317428	0.000838	8.381652	2.839780	-0.066949
 882	4.4050e-01	4.8047	32.889919	0.001070	10.704278	3.626708	-0.085502
 883	4.4100e-01	4.7598	32.639867	0.000626	6.260993	2.121282	-0.050010
 884	4.4150e-01	4.7261	32.526940	0.000283	2.827545	0.957998	-0.022585
 885	4.4200e-01	4.6779	32.087332	0.001101	11.007229	3.729350	-0.087922
 886	4.4250e-01	4.6426	31.881644	0.000515	5.150171	1.744925	-0.041138
 887	4.4300e-01	4.5961	31.611427	0.000677	6.765912	2.292353	-0.054044
 888	4.4350e-01	4.5576	31.353309	0.000646	6.462960	2.189710	-0.051624
 889	4.4400e-01	4.5271	30.970164	0.000959	9.593457	3.250351	-0.076629
 890	4.4450e-01	4.4742	30.679781	0.000727	7.270830	2.463424	-0.058077
 891	4.4500e-01	4.4437	30.139346	0.001353	13.531823	4.584706	-0.108087
 892	4.4550e-01	4.3924	29.917525	0.000555	5.554106	1.881782	-0.044364
 893	4.4600e-01	4.3619	29.756201	0.000404	4.039350	1.368569	-0.032265
 894	4.4650e-01	4.3282	29.546480	0.000525	5.251155	1.779140	-0.041944
 895	4.4700e-01	4.2785	28.981847	0.001414	14.137726	4.789991	-0.112927
 896	4.4750e-01	4.2416	28.707596	0.000687	6.866895	2.326567	-0.054850
 897	4.4800e-01	4.2015	28.465610	0.000606	6.059025	2.052853	-0.048397
 898	4.4850e-01	4.1630	28.078432	0.000969	9.694440	3.284565	-0.077435
 899	4.4900e-01	4.1245	27.788049	0.000727	7.270830	2.463424	-0.058077
 900	4.4950e-01	4.0844	27.533964	0.000636	6.361976	2.155496	-0.050817
 901	4.5000e-01	4.0379	27.134687	0.001000	9.997392	3.387208	-0.079855
 902	4.5050e-01	3.9945	26.888668	0.000616	6.160009	2.087068	-0.049204
 903	4.5100e-01	3.9609	26.380498	0.001272	12.723953	4.310992	-0.101634
 904	4.5150e-01	3.9240	26.146578	0.000586	5.857058	1.984425	-0.046784
 905	4.5200e-01	3.8838	25.799732	0.000868	8.684603	2.942423	-0.069369
 906	4.5250e-01	3.8470	25.497249	0.000757	7.573782	2.566067	-0.060496
 907	4.5300e-01	3.8084	25.202833	0.000737	7.371814	2.497638	-0.058883
 908	4.5350e-01	3.7603	24.763225	0.001101	11.007229	3.729350	-0.087922
 909	4.5400e-01	3.7218	24.702729	0.000151	1.514756	0.513213	-0.012099
 910	4.5450e-01	3.6769	24.468809	0.000586	5.857058	1.984425	-0.046784
 911	4.5500e-01	3.6432	24.021135	0.001121	11.209197	3.797779	-0.089535
 912	4.5550e-01	3.5951	23.742851	0.000697	6.967879	2.360781	-0.055657
 913	4.5600e-01	3.5566	23.521031	0.000555	5.554106	1.881782	-0.044364
 914	4.5650e-01	3.5229	23.129820	0.000980	9.795424	3.318780	-0.078242
 915	4.5700e-01	3.4796	22.702312	0.001070	10.704278	3.626708	-0.085502
 916	4.5750e-01	3.4427	22.540988	0.000404	4.039350	1.368569	-0.032265
 917	4.5800e-01	3.3994	22.057016	0.001212	12.118050	4.105707	-0.096794
 918	4.5850e-01	3.3577	21.831163	0.000566	5.655090	1.915996	-0.045171
 919	4.5900e-01	3.3192	21.516581	0.000788	7.876733	2.668709	-0.062916
 920	4.5950e-01	3.2871	21.294761	0.000555	5.554106	1.881782	-0.044364
 921	4.6000e-01	3.2389	20.867252	0.001070	10.704278	3.626708	-0.085502
 922	4.6050e-01	3.1972	20.496207	0.000929	9.290505	3.147708	-0.074209
 923	4.6100e-01	3.1587	20.189692	0.000767	7.674765	2.600281	-0.061303
 924	4.6150e-01	3.1283	19.822680	0.000919	9.189522	3.113494	-0.073402
 925	4.6200e-01	3.0753	19.665389	0.000394	3.938366	1.334355	-0.031458
 926	4.6250e-01	3.0384	19.326609	0.000848	8.482635	2.873995	-0.067756
 927	4.6300e-01	2.9983	19.024126	0.000757	7.573782	2.566067	-0.060496
 928	4.6350e-01	2.9646	18.661147	0.000909	9.088538	3.079280	-0.072596
 929	4.6400e-01	2.9197	18.366731	0.000737	7.371814	2.497638	-0.058883
 930	4.6450e-01	2.8700	18.060216	0.000767	7.674765	2.600281	-0.061303
 931	4.6500e-01	2.8347	17.576244	0.001212	12.118050	4.105707	-0.096794
 932	4.6550e-01	2.7994	17.495582	0.000202	2.019675	0.684284	-0.016132
 933	4.6600e-01	2.7577	17.051941	0.001111	11.108213	3.763564	-0.088728
 934	4.6650e-01	2.7208	16.878518	0.000434	4.342301	1.471212	-0.034685
 935	4.6700e-01	2.6775	16.543770	0.000838	8.381652	2.839780	-0.066949
 936	4.6750e-01	2.6486	16.321950	0.000555	5.554106	1.881782	-0.044364
 937	4.6800e-01	2.6037	15.809747	0.001282	12.824937	4.345206	-0.102441
 938	4.6850e-01	2.5555	15.604058	0.000515	5.150171	1.744925	-0.041138
 939	4.6900e-01	2.5251	15.208815	0.000990	9.896408	3.352994	-0.079049
 940	4.6950e-01	2.4817	14.845836	0.000909	9.088538	3.079280	-0.072596
 941	4.7000e-01	2.4368	14.539320	0.000767	7.674765	2.600281	-0.061303
 942	4.7050e-01	2.4015	14.156176	0.000959	9.593457	3.250351	-0.076629
 943	4.7100e-01	2.3550	13.998885	0.000394	3.938366	1.334355	-0.031458
 944	4.7150e-01	2.3165	13.599608	0.001000	9.997392	3.387208	-0.079855
 945	4.7200e-01	2.2828	13.321325	0.000697	6.967879	2.360781	-0.055657
 946	4.7250e-01	2.2411	12.966412	0.000889	8.886570	3.010852	-0.070983
 947	4.7300e-01	2.1994	12.809121	0.000394	3.938366	1.334355	-0.031458
 948	4.7350e-01	2.1561	12.381613	0.001070	10.704278	3.626708	-0.085502
 949	4.7400e-01	2.1096	12.139627	0.000606	6.059025	2.052853	-0.048397
 950	4.7450e-01	2.0823	11.837144	0.000757	7.573782	2.566067	-0.060496
 951	4.7500e-01	2.0454	11.417702	0.001050	10.502310	3.558279	-0.083888
 952	4.7550e-01	1.9941	11.066823	0.000879	8.785587	2.976637	-0.070176
 953	4.7600e-01	1.9540	10.808704	0.000646	6.462960	2.189710	-0.051624
 954	4.7650e-01	1.9090	10.494123	0.000788	7.876733	2.668709	-0.062916
 955	4.7700e-01	1.8802	10.240037	0.000636	6.361976	2.155496	-0.050817
 956	4.7750e-01	1.8320	9.893191	0.000868	8.684603	2.942423	-0.069369
 957	4.7800e-01	1.7887	9.385020	0.001272	12.723953	4.310992	-0.101634
 958	4.7850e-01	1.7647	9.264027	0.000303	3.029513	1.026427	-0.024199
 959	4.7900e-01	1.7181	9.001876	0.000656	6.563944	2.223924	-0.052430
 960	4.7950e-01	1.6796	8.550169	0.001131	11.310180	3.831993	-0.090341
 961	4.8000e-01	1.6363	8.130727	0.001050	10.502310	3.558279	-0.083888
 962	4.8050e-01	1.5946	7.961337	0.000424	4.241318	1.436997	-0.033878
 963	4.8100e-01	1.5529	7.711285	0.000626	6.260993	2.121282	-0.050010
 964	4.8150e-01	1.5160	7.283776	0.001070	10.704278	3.626708	-0.085502
 965	4.8200e-01	1.4871	7.094220	0.000475	4.746236	1.608068	-0.037911
 966	4.8250e-01	1.4454	6.731242	0.000909	9.088538	3.079280	-0.072596
 967	4.8300e-01	1.3925	6.440858	0.000727	7.270830	2.463424	-0.058077
 968	4.8350e-01	1.3588	6.114177	0.000818	8.179684	2.771352	-0.065336
 969	4.8400e-01	1.3091	5.819761	0.000737	7.371814	2.497638	-0.058883
 970	4.8450e-01	1.2834	5.525345	0.000737	7.371814	2.497638	-0.058883
 971	4.8500e-01	1.2304	5.343856	0.000454	4.544269	1.539640	-0.036298
 972	4.8550e-01	1.2080	4.847785	0.001242	12.421002	4.208349	-0.099214
 973	4.8600e-01	1.1583	4.629997	0.000545	5.453123	1.847568	-0.043557
 974	4.8650e-01	1.1262	4.271051	0.000899	8.987554	3.045066	-0.071789
 975	4.8700e-01	1.0829	3.992768	0.000697	6.967879	2.360781	-0.055657
 976	4.8750e-01	1.0347	3.545094	0.001121	11.209197	3.797779	-0.089535
 977	4.8800e-01	1.0091	3.190181	0.000889	8.886570	3.010852	-0.070983
 978	4.8850e-01	0.9561	3.000625	0.000475	4.746236	1.608068	-0.037911
 979	4.8900e-01	0.9240	2.726375	0.000687	6.866895	2.326567	-0.054850
 980	4.8950e-01	0.8791	2.310965	0.001040	10.401327	3.524065	-0.083082
 981	4.9000e-01	0.8374	1.980251	0.000828	8.280668	2.805566	-0.066143
 982	4.9050e-01	0.7893	1.637438	0.000858	8.583619	2.908209	-0.068563
 983	4.9100e-01	0.7556	1.326889	0.000778	7.775749	2.634495	-0.062110
 984	4.9150e-01	0.7155	1.052639	0.000687	6.866895	2.326567	-0.054850
 985	4.9200e-01	0.6802	0.544468	0.001272	12.723953	4.310992	-0.101634
 986	4.9250e-01	0.6337	0.512204	0.000081	0.807870	0.273714	-0.006453
 987	4.9300e-01	0.6000	0.197622	0.000788	7.876733	2.668709	-0.062916
 988	4.9350e-01	0.5583	-0.342813	0.001353	13.531823	4.584706	-0.108087
 989	4.9400e-01	0.5085	-0.548501	0.000515	5.150171	1.744925	-0.041138
 990	4.9450e-01	0.4765	-0.879215	0.000828	8.280668	2.805566	-0.066143
 991	4.9500e-01	0.4428	-1.242194	0.000909	9.088538	3.079280	-0.072596
 992	4.9550e-01	0.3882	-1.524511	0.000707	7.068863	2.394996	-0.056463
 993	4.9600e-01	0.3577	-1.968152	0.001111	11.108213	3.763564	-0.088728
 994	4.9650e-01	0.3160	-2.177873	0.000525	5.251155	1.779140	-0.041944
 995	4.9700e-01	0.2791	-2.460190	0.000707	7.068863	2.394996	-0.056463
 996	4.9750e-01	0.2390	-3.004658	0.001363	13.632807	4.618920	-0.108894
 997	4.9800e-01	0.1989	-3.278909	0.000687	6.866895	2.326567	-0.054850
 998	4.9850e-01	0.1620	-3.532994	0.000636	6.361976	2.155496	-0.050817
 999	4.9900e-01	0.1187	-3.799179	0.000666	6.664928	2.258139	-0.053237
1000	4.9950e-01	0.0818	-3.928238	0.000323	3.231480	1.094855	-0.025812
1001	5.0000e-01	0.0417	-4.541269	0.001535	15.349531	5.200562	-0.122606
1002	5.0050e-01	0.0016	-4.706626	0.000414	4.140334	1.402783	-0.033071
1003	5.0100e-01	-0.0353	-4.920380	0.000535	5.352139	1.813354	-0.042751
1004	5.0150e-01	-0.0642	-5.243028	0.000808	8.078700	2.737138	-0.064530
1005	5.0200e-01	-0.1267	-5.432584	0.000475	4.746236	1.608068	-0.037911
1006	5.0250e-01	-0.1524	-5.807662	0.000939	9.391489	3.181923	-0.075016
1007	5.0300e-01	-0.1893	-6.126277	0.000798	7.977717	2.702924	-0.063723
1008	5.0350e-01	-0.2342	-6.444892	0.000798	7.977717	2.702924	-0.063723
1009	5.0400e-01	-0.2775	-6.731242	0.000717	7.169847	2.429210	-0.057270
1010	5.0450e-01	-0.3128	-7.211180	0.001202	12.017067	4.071492	-0.095988
1011	5.0500e-01	-0.3513	-7.481398	0.000677	6.765912	2.292353	-0.054044
1012	5.0550e-01	-0.3995	-7.791946	0.000778	7.775749	2.634495	-0.062110
1013	5.0600e-01	-0.4444	-8.017800	0.000566	5.655090	1.915996	-0.045171
1014	5.0650e-01	-0.4797	-8.288018	0.000677	6.765912	2.292353	-0.054044
1015	5.0700e-01	-0.5134	-8.723592	0.001091	10.906245	3.695136	-0.087115
1016	5.0750e-01	-0.5567	-8.917181	0.000485	4.847220	1.642283	-0.038718
1017	5.0800e-01	-0.5936	-9.264027	0.000868	8.684603	2.942423	-0.069369
1018	5.0850e-01	-0.6433	-9.562477	0.000747	7.472798	2.531852	-0.059690
1019	5.0900e-01	-0.6802	-9.881092	0.000798	7.977717	2.702924	-0.063723
1020	5.0950e-01	-0.7107	-10.308600	0.001070	10.704278	3.626708	-0.085502
1021	5.1000e-01	-0.7556	-10.562685	0.000636	6.361976	2.155496	-0.050817
1022	5.1050e-01	-0.7973	-10.913565	0.000879	8.785587	2.976637	-0.070176
1023	5.1100e-01	-0.8406	-11.316875	0.001010	10.098375	3.421422	-0.080662
1024	5.1150e-01	-0.8775	-11.554827	0.000596	5.958041	2.018639	-0.047591
1025	5.1200e-01	-0.9192	-11.877475	0.000808	8.078700	2.737138	-0.064530
1026	5.1250e-01	-0.9545	-11.974270	0.000242	2.423610	0.821141	-0.019359
1027	5.1300e-01	-1.0042	-12.256587	0.000707	7.068863	2.394996	-0.056463
1028	5.1350e-01	-1.0299	-12.805088	0.001373	13.733791	4.653134	-0.109700
1029	5.1400e-01	-1.0780	-12.946247	0.000353	3.534431	1.197498	-0.028232
1030	5.1450e-01	-1.1230	-13.131769	0.000465	4.645253	1.573854	-0.037105
1031	5.1500e-01	-1.1599	-13.793197	0.001656	16.561336	5.611132	-0.132286
1032	5.1550e-01	-1.1952	-14.115845	0.000808	8.078700	2.737138	-0.064530
1033	5.1600e-01	-1.2385	-14.200540	0.000212	2.120659	0.718499	-0.016939
1034	5.1650e-01	-1.2754	-14.555453	0.000889	8.886570	3.010852	-0.070983
1035	5.1700e-01	-1.3187	-14.934564	0.000949	9.492473	3.216137	-0.075822
1036	5.1750e-01	-1.3540	-15.495165	0.001404	14.036742	4.755777	-0.112120
1037	5.1800e-01	-1.3861	-15.595992	0.000252	2.524594	0.855356	-0.020165
1038	5.1850e-01	-1.4470	-15.741184	0.000364	3.635415	1.231712	-0.029038
1039	5.1900e-01	-1.4711	-16.204990	0.001161	11.613132	3.934636	-0.092761
1040	5.1950e-01	-1.5176	-16.588135	0.000959	9.593457	3.250351	-0.076629
1041	5.2000e-01	-1.5609	-16.930948	0.000858	8.583619	2.908209	-0.068563
1042	5.2050e-01	-1.5850	-17.249563	0.000798	7.977717	2.702924	-0.063723
1043	5.2100e-01	-1.6427	-17.503648	0.000636	6.361976	2.155496	-0.050817
1044	5.2150e-01	-1.6716	-17.769832	0.000666	6.664928	2.258139	-0.053237
1045	5.2200e-01	-1.7117	-17.870660	0.000252	2.524594	0.855356	-0.020165
1046	5.2250e-01	-1.7550	-18.411095	0.001353	13.531823	4.584706	-0.108087
1047	5.2300e-01	-1.7855	-18.649048	0.000596	5.958041	2.018639	-0.047591
1048	5.2350e-01	-1.8336	-19.217715	0.001424	14.238709	4.824205	-0.113733
1049	5.2400e-01	-1.8753	-19.189483	-0.000071	-0.706886	-0.239500	0.005646
1050	5.2450e-01	-1.9122	-19.419370	0.000576	5.756074	1.950211	-0.045977
1051	5.2500e-01	-1.9572	-19.790415	0.000929	9.290505	3.147708	-0.074209
1052	5.2550e-01	-2.0005	-20.044500	0.000636	6.361976	2.155496	-0.050817
1053	5.2600e-01	-2.0390	-20.500240	0.001141	11.411164	3.866207	-0.091148
1054	5.2650e-01	-2.0759	-20.891451	0.000980	9.795424	3.318780	-0.078242
1055	5.2700e-01	-2.1176	-21.318959	0.001070	10.704278	3.626708	-0.085502
1056	5.2750e-01	-2.1593	-21.383489	0.000162	1.615740	0.547428	-0.012906
1057	5.2800e-01	-2.1994	-21.907792	0.001313	13.127888	4.447849	-0.104861
1058	5.2850e-01	-2.2299	-22.303035	0.000990	9.896408	3.352994	-0.079049
1059	5.2900e-01	-2.2764	-22.424028	0.000303	3.029513	1.026427	-0.024199
1060	5.2950e-01	-2.3085	-22.686180	0.000656	6.563944	2.223924	-0.052430
1061	5.3000e-01	-2.3630	-23.004794	0.000798	7.977717	2.702924	-0.063723
1062	5.3050e-01	-2.3951	-23.279045	0.000687	6.866895	2.326567	-0.054850
1063	5.3100e-01	-2.4320	-23.892076	0.001535	15.349531	5.200562	-0.122606
1064	5.3150e-01	-2.4785	-23.932407	0.000101	1.009838	0.342142	-0.008066
1065	5.3200e-01	-2.5074	-24.299419	0.000919	9.189522	3.113494	-0.073402
1066	5.3250e-01	-2.5652	-24.436544	0.000343	3.433448	1.163284	-0.027425
1067	5.3300e-01	-2.5892	-24.964880	0.001323	13.228872	4.482063	-0.105667
1068	5.3350e-01	-2.6325	-25.255263	0.000727	7.270830	2.463424	-0.058077
1069	5.3400e-01	-2.6743	-25.505316	0.000626	6.260993	2.121282	-0.050010
1070	5.3450e-01	-2.7095	-25.831997	0.000818	8.179684	2.771352	-0.065336
1071	5.3500e-01	-2.7577	-26.247406	0.001040	10.401327	3.524065	-0.083082
1072	5.3550e-01	-2.8010	-26.489392	0.000606	6.059025	2.052853	-0.048397
1073	5.3600e-01	-2.8315	-26.602318	0.000283	2.827545	0.957998	-0.022585
1074	5.3650e-01	-2.8796	-27.078224	0.001192	11.916083	4.037278	-0.095181
1075	5.3700e-01	-2.9133	-27.267780	0.000475	4.746236	1.608068	-0.037911
1076	5.3750e-01	-2.9566	-27.586394	0.000798	7.977717	2.702924	-0.063723
1077	5.3800e-01	-2.9935	-27.913075	0.000818	8.179684	2.771352	-0.065336
1078	5.3850e-01	-3.0320	-28.352683	0.001101	11.007229	3.729350	-0.087922
1079	5.3900e-01	-3.0769	-28.473676	0.000303	3.029513	1.026427	-0.024199
1080	5.3950e-01	-3.1090	-28.711629	0.000596	5.958041	2.018639	-0.047591
1081	5.4000e-01	-3.1523	-29.123005	0.001030	10.300343	3.489851	-0.082275
1082	5.4050e-01	-3.1940	-29.437587	0.000788	7.876733	2.668709	-0.062916
1083	5.4100e-01	-3.2357	-29.933658	0.001242	12.421002	4.208349	-0.099214
1084	5.4150e-01	-3.2807	-29.945757	0.000030	0.302951	0.102643	-0.002420
1085	5.4200e-01	-3.3143	-30.393431	0.001121	11.209197	3.797779	-0.089535
1086	5.4250e-01	-3.3545	-30.611218	0.000545	5.453123	1.847568	-0.043557
1087	5.4300e-01	-3.3994	-31.079058	0.001171	11.714115	3.968850	-0.093568
1088	5.4350e-01	-3.4315	-31.272647	0.000485	4.847220	1.642283	-0.038718
1089	5.4400e-01	-3.4780	-31.583195	0.000778	7.775749	2.634495	-0.062110
1090	5.4450e-01	-3.5149	-31.938108	0.000889	8.886570	3.010852	-0.070983
1091	5.4500e-01	-3.5582	-32.123630	0.000465	4.645253	1.573854	-0.037105
1092	5.4550e-01	-3.5999	-32.454344	0.000828	8.280668	2.805566	-0.066143
1093	5.4600e-01	-3.6384	-32.647933	0.000485	4.847220	1.642283	-0.038718
1094	5.4650e-01	-3.6673	-33.047210	0.001000	9.997392	3.387208	-0.079855
1095	5.4700e-01	-3.7058	-33.547314	0.001252	12.521985	4.242564	-0.100021
1096	5.4750e-01	-3.7603	-33.793333	0.000616	6.160009	2.087068	-0.049204
1097	5.4800e-01	-3.7940	-34.160345	0.000919	9.189522	3.113494	-0.073402
1098	5.4850e-01	-3.8357	-34.333768	0.000434	4.342301	1.471212	-0.034685
1099	5.4900e-01	-3.8742	-34.745144	0.001030	10.300343	3.489851	-0.082275
1100	5.4950e-01	-3.9207	-34.870171	0.000313	3.130496	1.060641	-0.025005
1101	5.5000e-01	-3.9560	-35.208951	0.000848	8.482635	2.873995	-0.067756
1102	5.5050e-01	-3.9945	-35.555797	0.000868	8.684603	2.942423	-0.069369
1103	5.5100e-01	-4.0314	-35.761485	0.000515	5.150171	1.744925	-0.041138
1104	5.5150e-01	-4.0812	-36.108332	0.000868	8.684603	2.942423	-0.069369
1105	5.5200e-01	-4.1181	-36.338218	0.000576	5.756074	1.950211	-0.045977
1106	5.5250e-01	-4.1518	-36.733462	0.000990	9.896408	3.352994	-0.079049
1107	5.5300e-01	-4.1935	-37.068209	0.000838	8.381652	2.839780	-0.066949
1108	5.5350e-01	-4.2368	-37.173070	0.000263	2.625578	0.889570	-0.020972
1109	5.5400e-01	-4.2753	-37.632843	0.001151	11.512148	3.900421	-0.091955
1110	5.5450e-01	-4.3090	-37.915160	0.000707	7.068863	2.394996	-0.056463
1111	5.5500e-01	-4.3619	-38.169245	0.000636	6.361976	2.155496	-0.050817
1112	5.5550e-01	-4.4036	-38.516092	0.000868	8.684603	2.942423	-0.069369
1113	5.5600e-01	-4.4341	-38.786309	0.000677	6.765912	2.292353	-0.054044
1114	5.5650e-01	-4.4726	-39.028295	0.000606	6.059025	2.052853	-0.048397
1115	5.5700e-01	-4.5063	-39.290447	0.000656	6.563944	2.223924	-0.052430
1116	5.5750e-01	-4.5576	-39.580830	0.000727	7.270830	2.463424	-0.058077
1117	5.5800e-01	-4.5913	-39.972040	0.000980	9.795424	3.318780	-0.078242
1118	5.5850e-01	-4.6362	-40.157563	0.000465	4.645253	1.573854	-0.037105
1119	5.5900e-01	-4.6779	-40.395516	0.000596	5.958041	2.018639	-0.047591
1120	5.5950e-01	-4.7100	-40.798825	0.001010	10.098375	3.421422	-0.080662
1121	5.6000e-01	-4.7533	-41.153738	0.000889	8.886570	3.010852	-0.070983
1122	5.6050e-01	-4.7918	-41.629644	0.001192	11.916083	4.037278	-0.095181
1123	5.6100e-01	-4.8384	-41.895828	0.000666	6.664928	2.258139	-0.053237
1124	5.6150e-01	-4.8721	-41.932126	0.000091	0.908854	0.307928	-0.007260
1125	5.6200e-01	-4.9138	-42.339469	0.001020	10.199359	3.455636	-0.081469
1126	5.6250e-01	-4.9587	-42.710514	0.000929	9.290505	3.147708	-0.074209
1127	5.6300e-01	-4.9988	-43.004930	0.000737	7.371814	2.497638	-0.058883
1128	5.6350e-01	-5.0357	-43.347744	0.000858	8.583619	2.908209	-0.068563
1129	5.6400e-01	-5.0806	-43.617961	0.000677	6.765912	2.292353	-0.054044
1130	5.6450e-01	-5.1191	-43.714756	0.000242	2.423610	0.821141	-0.019359
1131	5.6500e-01	-5.1560	-44.073702	0.000899	8.987554	3.045066	-0.071789
1132	5.6550e-01	-5.2057	-44.360052	0.000717	7.169847	2.429210	-0.057270
1133	5.6600e-01	-5.2378	-44.589938	0.000576	5.756074	1.950211	-0.045977
1134	5.6650e-01	-5.2763	-44.876288	0.000717	7.169847	2.429210	-0.057270
1135	5.6700e-01	-5.3116	-45.130373	0.000636	6.361976	2.155496	-0.050817
1136	5.6750e-01	-5.3613	-45.448988	0.000798	7.977717	2.702924	-0.063723
1137	5.6800e-01	-5.3982	-45.763570	0.000788	7.876733	2.668709	-0.062916
1138	5.6850e-01	-5.4287	-46.098317	0.000838	8.381652	2.839780	-0.066949
1139	5.6900e-01	-5.4769	-46.404833	0.000767	7.674765	2.600281	-0.061303
1140	5.6950e-01	-5.5121	-46.646818	0.000606	6.059025	2.052853	-0.048397
1141	5.7000e-01	-5.5667	-46.965433	0.000798	7.977717	2.702924	-0.063723
1142	5.7050e-01	-5.5972	-47.429240	0.001161	11.613132	3.934636	-0.092761
1143	5.7100e-01	-5.6389	-47.610729	0.000454	4.544269	1.539640	-0.036298
1144	5.7150e-01	-5.6678	-47.784152	0.000434	4.342301	1.471212	-0.034685
1145	5.7200e-01	-5.7207	-48.151164	0.000919	9.189522	3.113494	-0.073402
1146	5.7250e-01	-5.7592	-48.425415	0.000687	6.866895	2.326567	-0.054850
1147	5.7300e-01	-5.7945	-48.703699	0.000697	6.967879	2.360781	-0.055657
1148	5.7350e-01	-5.8330	-49.171538	0.001171	11.714115	3.968850	-0.093568
1149	5.7400e-01	-5.8811	-49.328829	0.000394	3.938366	1.334355	-0.031458
1150	5.7450e-01	-5.9180	-49.490153	0.000404	4.039350	1.368569	-0.032265
1151	5.7500e-01	-5.9581	-49.675675	0.000465	4.645253	1.573854	-0.037105
1152	5.7550e-01	-5.9950	-50.018489	0.000858	8.583619	2.908209	-0.068563
1153	5.7600e-01	-6.0399	-50.361302	0.000858	8.583619	2.908209	-0.068563
1154	5.7650e-01	-6.0736	-50.909804	0.001373	13.733791	4.653134	-0.109700
1155	5.7700e-01	-6.1218	-51.042896	0.000333	3.332464	1.129069	-0.026618
1156	5.7750e-01	-6.1554	-51.405875	0.000909	9.088538	3.079280	-0.072596
1157	5.7800e-01	-6.1955	-51.724490	0.000798	7.977717	2.702924	-0.063723
1158	5.7850e-01	-6.2357	-51.789019	0.000162	1.615740	0.547428	-0.012906
1159	5.7900e-01	-6.2838	-52.184263	0.000990	9.896408	3.352994	-0.079049
1160	5.7950e-01	-6.3143	-52.535142	0.000879	8.785587	2.976637	-0.070176
1161	5.8000e-01	-6.3592	-52.813426	0.000697	6.967879	2.360781	-0.055657
1162	5.8050e-01	-6.4073	-52.877956	0.000162	1.615740	0.547428	-0.012906
1163	5.8100e-01	-6.4474	-53.410325	0.001333	13.329856	4.516277	-0.106474
1164	5.8150e-01	-6.4715	-53.749105	0.000848	8.482635	2.873995	-0.067756
1165	5.8200e-01	-6.5212	-53.862032	0.000283	2.827545	0.957998	-0.022585
1166	5.8250e-01	-6.5485	-54.071753	0.000525	5.251155	1.779140	-0.041944
1167	5.8300e-01	-6.5934	-54.446831	0.000939	9.391489	3.181923	-0.075016
1168	5.8350e-01	-6.6255	-54.684784	0.000596	5.958041	2.018639	-0.047591
1169	5.8400e-01	-6.6736	-55.035664	0.000879	8.785587	2.976637	-0.070176
1170	5.8450e-01	-6.7057	-55.305881	0.000677	6.765912	2.292353	-0.054044
1171	5.8500e-01	-6.7586	-55.418808	0.000283	2.827545	0.957998	-0.022585
1172	5.8550e-01	-6.7907	-55.834217	0.001040	10.401327	3.524065	-0.083082
1173	5.8600e-01	-6.8260	-55.983442	0.000374	3.736399	1.265926	-0.029845
1174	5.8650e-01	-6.8661	-56.354487	0.000929	9.290505	3.147708	-0.074209
1175	5.8700e-01	-6.9110	-56.669068	0.000788	7.876733	2.668709	-0.062916
1176	5.8750e-01	-6.9511	-57.040114	0.000929	9.290505	3.147708	-0.074209
1177	5.8800e-01	-6.9912	-57.233702	0.000485	4.847220	1.642283	-0.038718
1178	5.8850e-01	-7.0362	-57.431324	0.000495	4.948204	1.676497	-0.039524
1179	5.8900e-01	-7.0699	-57.842700	0.001030	10.300343	3.489851	-0.082275
1180	5.8950e-01	-7.1116	-58.181480	0.000848	8.482635	2.873995	-0.067756
1181	5.9000e-01	-7.1485	-58.354904	0.000434	4.342301	1.471212	-0.034685
1182	5.9050e-01	-7.1854	-58.701750	0.000868	8.684603	2.942423	-0.069369
1183	5.9100e-01	-7.2367	-58.826776	0.000313	3.130496	1.060641	-0.025005
1184	5.9150e-01	-7.2688	-59.117159	0.000727	7.270830	2.463424	-0.058077
1185	5.9200e-01	-7.3153	-59.500304	0.000959	9.593457	3.250351	-0.076629
1186	5.9250e-01	-7.3378	-59.806819	0.000767	7.674765	2.600281	-0.061303
1187	5.9300e-01	-7.3955	-60.000408	0.000485	4.847220	1.642283	-0.038718
1188	5.9350e-01	-7.4324	-60.343221	0.000858	8.583619	2.908209	-0.068563
1189	5.9400e-01	-7.4693	-60.609406	0.000666	6.664928	2.258139	-0.053237
1190	5.9450e-01	-7.5222	-60.891723	0.000707	7.068863	2.394996	-0.056463
1191	5.9500e-01	-7.5431	-61.024815	0.000333	3.332464	1.129069	-0.026618
1192	5.9550e-01	-7.5928	-61.359562	0.000838	8.381652	2.839780	-0.066949
1193	5.9600e-01	-7.6329	-61.589449	0.000576	5.756074	1.950211	-0.045977
1194	5.9650e-01	-7.6779	-61.726574	0.000343	3.433448	1.163284	-0.027425
1195	5.9700e-01	-7.7083	-62.150049	0.001060	10.603294	3.592493	-0.084695
1196	5.9750e-01	-7.7549	-62.557392	0.001020	10.199359	3.455636	-0.081469
1197	5.9800e-01	-7.7918	-62.787279	0.000576	5.756074	1.950211	-0.045977
1198	5.9850e-01	-7.8287	-63.069596	0.000707	7.068863	2.394996	-0.056463
1199	5.9900e-01	-7.8720	-63.275284	0.000515	5.150171	1.744925	-0.041138
1200	5.9950e-01	-7.9121	-63.585833	0.000778	7.775749	2.634495	-0.062110
1201	6.0000e-01	-7.9490	-63.743123	0.000394	3.938366	1.334355	-0.031458
1202	6.0050e-01	-7.9923	-63.952845	0.000525	5.251155	1.779140	-0.041944
1203	6.0100e-01	-8.0356	-64.307757	0.000889	8.886570	3.010852	-0.070983
1204	6.0150e-01	-8.0693	-64.521511	0.000535	5.352139	1.813354	-0.042751
1205	6.0200e-01	-8.1110	-64.981285	0.001151	11.512148	3.900421	-0.091955
1206	6.0250e-01	-8.1527	-65.037748	0.000141	1.413773	0.478999	-0.011293
1207	6.0300e-01	-8.1960	-65.376528	0.000848	8.482635	2.873995	-0.067756
1208	6.0350e-01	-8.2313	-65.820169	0.001111	11.108213	3.763564	-0.088728
1209	6.0400e-01	-8.2810	-65.925030	0.000263	2.625578	0.889570	-0.020972
1210	6.0450e-01	-8.3115	-66.219446	0.000737	7.371814	2.497638	-0.058883
1211	6.0500e-01	-8.3500	-66.457399	0.000596	5.958041	2.018639	-0.047591
1212	6.0550e-01	-8.3885	-66.828444	0.000929	9.290505	3.147708	-0.074209
1213	6.0600e-01	-8.4351	-67.147059	0.000798	7.977717	2.702924	-0.063723
1214	6.0650e-01	-8.4752	-67.461640	0.000788	7.876733	2.668709	-0.062916
1215	6.0700e-01	-8.5121	-67.554402	0.000232	2.322626	0.786927	-0.018552
1216	6.0750e-01	-8.5554	-67.844785	0.000727	7.270830	2.463424	-0.058077
1217	6.0800e-01	-8.6035	-68.070638	0.000566	5.655090	1.915996	-0.045171
1218	6.0850e-01	-8.6276	-68.566709	0.001242	12.421002	4.208349	-0.099214
1219	6.0900e-01	-8.6725	-68.889357	0.000808	8.078700	2.737138	-0.064530
1220	6.0950e-01	-8.7142	-69.022449	0.000333	3.332464	1.129069	-0.026618
1221	6.1000e-01	-8.7591	-69.252336	0.000576	5.756074	1.950211	-0.045977
1222	6.1050e-01	-8.8008	-69.635480	0.000959	9.593457	3.250351	-0.076629
1223	6.1100e-01	-8.8329	-69.885533	0.000626	6.260993	2.121282	-0.050010
1224	6.1150e-01	-8.8746	-70.022658	0.000343	3.433448	1.163284	-0.027425
1225	6.1200e-01	-8.9099	-70.333207	0.000778	7.775749	2.634495	-0.062110
1226	6.1250e-01	-8.9532	-70.506630	0.000434	4.342301	1.471212	-0.034685
1227	6.1300e-01	-8.9901	-70.877675	0.000929	9.290505	3.147708	-0.074209
1228	6.1350e-01	-9.0318	-71.034966	0.000394	3.938366	1.334355	-0.031458
1229	6.1400e-01	-9.0703	-71.349547	0.000788	7.876733	2.668709	-0.062916
1230	6.1450e-01	-9.1136	-71.656063	0.000767	7.674765	2.600281	-0.061303
1231	6.1500e-01	-9.1586	-72.075505	0.001050	10.502310	3.558279	-0.083888
1232	6.1550e-01	-9.1955	-72.373954	0.000747	7.472798	2.531852	-0.059690
1233	6.1600e-01	-9.2388	-72.482848	0.000273	2.726561	0.923784	-0.021779
1234	6.1650e-01	-9.2805	-72.865992	0.000959	9.593457	3.250351	-0.076629
1235	6.1700e-01	-9.3110	-73.253170	0.000969	9.694440	3.284565	-0.077435
1236	6.1750e-01	-9.3527	-73.176541	-0.000192	-1.918691	-0.650070	0.015326
1237	6.1800e-01	-9.3880	-73.604049	0.001070	10.704278	3.626708	-0.085502
1238	6.1850e-01	-9.4313	-73.967028	0.000909	9.088538	3.079280	-0.072596
1239	6.1900e-01	-9.4682	-74.011392	0.000111	1.110821	0.376356	-0.008873
1240	6.1950e-01	-9.5115	-74.192882	0.000454	4.544269	1.539640	-0.036298
1241	6.2000e-01	-9.5548	-74.507464	0.000788	7.876733	2.668709	-0.062916
1242	6.2050e-01	-9.5949	-74.789780	0.000707	7.068863	2.394996	-0.056463
1243	6.2100e-01	-9.6446	-75.193090	0.001010	10.098375	3.421422	-0.080662
1244	6.2150e-01	-9.6767	-75.410878	0.000545	5.453123	1.847568	-0.043557
1245	6.2200e-01	-9.7056	-75.600433	0.000475	4.746236	1.608068	-0.037911
1246	6.2250e-01	-9.7473	-76.048107	0.001121	11.209197	3.797779	-0.089535
1247	6.2300e-01	-9.7922	-76.169100	0.000303	3.029513	1.026427	-0.024199
1248	6.2350e-01	-9.8275	-76.245729	0.000192	1.918691	0.650070	-0.015326
1249	6.2400e-01	-9.8757	-76.604675	0.000899	8.987554	3.045066	-0.071789
1250	6.2450e-01	-9.9093	-76.770032	0.000414	4.140334	1.402783	-0.033071
1251	6.2500e-01	-9.9559	-77.056382	0.000717	7.169847	2.429210	-0.057270
1252	6.2550e-01	-9.9928	-77.427427	0.000929	9.290505	3.147708	-0.074209
1253	6.2600e-01	-10.0361	-77.475824	0.000121	1.211805	0.410571	-0.009679
1254	6.2650e-01	-10.0762	-77.911399	0.001091	10.906245	3.695136	-0.087115
1255	6.2700e-01	-10.1131	-78.330841	0.001050	10.502310	3.558279	-0.083888
1256	6.2750e-01	-10.1532	-78.431669	0.000252	2.524594	0.855356	-0.020165
1257	6.2800e-01	-10.1933	-78.822879	0.000980	9.795424	3.318780	-0.078242
1258	6.2850e-01	-10.2334	-79.056799	0.000586	5.857058	1.984425	-0.046784
1259	6.2900e-01	-10.2751	-79.298785	0.000606	6.059025	2.052853	-0.048397
1260	6.2950e-01	-10.3104	-79.528671	0.000576	5.756074	1.950211	-0.045977
1261	6.3000e-01	-10.3489	-79.726293	0.000495	4.948204	1.676497	-0.039524
1262	6.3050e-01	-10.3906	-80.057007	0.000828	8.280668	2.805566	-0.066143
1263	6.3100e-01	-10.4355	-80.282861	0.000566	5.655090	1.915996	-0.045171
1264	6.3150e-01	-10.4772	-80.589376	0.000767	7.674765	2.600281	-0.061303
1265	6.3200e-01	-10.5077	-80.871693	0.000707	7.068863	2.394996	-0.056463
1266	6.3250e-01	-10.5559	-81.065282	0.000485	4.847220	1.642283	-0.038718
1267	6.3300e-01	-10.5976	-81.363731	0.000747	7.472798	2.531852	-0.059690
1268	6.3350e-01	-10.6329	-81.351632	-0.000030	-0.302951	-0.102643	0.002420
1269	6.3400e-01	-10.6681	-81.823504	0.001182	11.815099	4.003064	-0.094375
1270	6.3450e-01	-10.7163	-82.230847	0.001020	10.199359	3.455636	-0.081469
1271	6.3500e-01	-10.7532	-82.468800	0.000596	5.958041	2.018639	-0.047591
1272	6.3550e-01	-10.7949	-82.541396	0.000182	1.817708	0.615856	-0.014519
1273	6.3600e-01	-10.8350	-82.868077	0.000818	8.179684	2.771352	-0.065336
1274	6.3650e-01	-10.8671	-83.057633	0.000475	4.746236	1.608068	-0.037911
1275	6.3700e-01	-10.9088	-83.222990	0.000414	4.140334	1.402783	-0.033071
1276	6.3750e-01	-10.9537	-83.376247	0.000384	3.837383	1.300140	-0.030652
1277	6.3800e-01	-10.9906	-83.763425	0.000969	9.694440	3.284565	-0.077435
1278	6.3850e-01	-11.0339	-83.993311	0.000576	5.756074	1.950211	-0.045977
1279	6.3900e-01	-11.0644	-84.235297	0.000606	6.059025	2.052853	-0.048397
1280	6.3950e-01	-11.1189	-84.570045	0.000838	8.381652	2.839780	-0.066949
1281	6.4000e-01	-11.1478	-84.937057	0.000919	9.189522	3.113494	-0.073402
1282	6.4050e-01	-11.1927	-85.183076	0.000616	6.160009	2.087068	-0.049204
1283	6.4100e-01	-11.2328	-85.352466	0.000424	4.241318	1.436997	-0.033878
1284	6.4150e-01	-11.2762	-85.683180	0.000828	8.280668	2.805566	-0.066143
1285	6.4200e-01	-11.3275	-85.945331	0.000656	6.563944	2.223924	-0.052430
1286	6.4250e-01	-11.3483	-86.187317	0.000606	6.059025	2.052853	-0.048397
1287	6.4300e-01	-11.3981	-86.360740	0.000434	4.342301	1.471212	-0.034685
1288	6.4350e-01	-11.4334	-86.505932	0.000364	3.635415	1.231712	-0.029038
1289	6.4400e-01	-11.4799	-86.832613	0.000818	8.179684	2.771352	-0.065336
1290	6.4450e-01	-11.5168	-87.058466	0.000566	5.655090	1.915996	-0.045171
1291	6.4500e-01	-11.5553	-87.207691	0.000374	3.736399	1.265926	-0.029845
1292	6.4550e-01	-11.5906	-87.695696	0.001222	12.219034	4.139921	-0.097601
1293	6.4600e-01	-11.6451	-87.848954	0.000384	3.837383	1.300140	-0.030652
1294	6.4650e-01	-11.6724	-88.099006	0.000626	6.260993	2.121282	-0.050010
1295	6.4700e-01	-11.7221	-88.365190	0.000666	6.664928	2.258139	-0.053237
1296	6.4750e-01	-11.7558	-88.587011	0.000555	5.554106	1.881782	-0.044364
1297	6.4800e-01	-11.8023	-88.784633	0.000495	4.948204	1.676497	-0.039524
1298	6.4850e-01	-11.8328	-89.006453	0.000555	5.554106	1.881782	-0.044364
1299	6.4900e-01	-11.8665	-89.308935	0.000757	7.573782	2.566067	-0.060496
1300	6.4950e-01	-11.9114	-89.554954	0.000616	6.160009	2.087068	-0.049204
1301	6.5000e-01	-11.9531	-89.805007	0.000626	6.260993	2.121282	-0.050010
1302	6.5050e-01	-11.9981	-90.087323	0.000707	7.068863	2.394996	-0.056463
1303	6.5100e-01	-12.0398	-90.252681	0.000414	4.140334	1.402783	-0.033071
1304	6.5150e-01	-12.0719	-90.510799	0.000646	6.462960	2.189710	-0.051624
1305	6.5200e-01	-12.1055	-91.075433	0.001414	14.137726	4.789991	-0.112927
1306	6.5250e-01	-12.1440	-91.244823	0.000424	4.241318	1.436997	-0.033878
1307	6.5300e-01	-12.1986	-91.470676	0.000566	5.655090	1.915996	-0.045171
1308	6.5350e-01	-12.2323	-91.656199	0.000465	4.645253	1.573854	-0.037105
1309	6.5400e-01	-12.2740	-91.761059	0.000263	2.625578	0.889570	-0.020972
1310	6.5450e-01	-12.3141	-92.103873	0.000858	8.583619	2.908209	-0.068563
1311	6.5500e-01	-12.3558	-92.220833	0.000293	2.928529	0.992212	-0.023392
1312	6.5550e-01	-12.3959	-92.503150	0.000707	7.068863	2.394996	-0.056463
1313	6.5600e-01	-12.4296	-92.632209	0.000323	3.231480	1.094855	-0.025812
1314	6.5650e-01	-12.4713	-92.858062	0.000566	5.655090	1.915996	-0.045171
1315	6.5700e-01	-12.5066	-93.454961	0.001495	14.945596	5.063705	-0.119380
1316	6.5750e-01	-12.5547	-93.543689	0.000222	2.221643	0.752713	-0.017746
1317	6.5800e-01	-12.5948	-93.628384	0.000212	2.120659	0.718499	-0.016939
1318	6.5850e-01	-12.6381	-93.898602	0.000677	6.765912	2.292353	-0.054044
1319	6.5900e-01	-12.6783	-94.209150	0.000778	7.775749	2.634495	-0.062110
1320	6.5950e-01	-12.7119	-94.455169	0.000616	6.160009	2.087068	-0.049204
1321	6.6000e-01	-12.7537	-94.689089	0.000586	5.857058	1.984425	-0.046784
1322	6.6050e-01	-12.7970	-94.955273	0.000666	6.664928	2.258139	-0.053237
1323	6.6100e-01	-12.8355	-95.265822	0.000778	7.775749	2.634495	-0.062110
1324	6.6150e-01	-12.8692	-95.899019	0.001585	15.854449	5.371633	-0.126639
1325	6.6200e-01	-12.9044	-95.935316	0.000091	0.908854	0.307928	-0.007260
1326	6.6250e-01	-12.9574	-96.145038	0.000525	5.251155	1.779140	-0.041944
1327	6.6300e-01	-12.9911	-96.266031	0.000303	3.029513	1.026427	-0.024199
1328	6.6350e-01	-13.0280	-96.741936	0.001192	11.916083	4.037278	-0.095181
1329	6.6400e-01	-13.0713	-96.963757	0.000555	5.554106	1.881782	-0.044364
1330	6.6450e-01	-13.1146	-97.000054	0.000091	0.908854	0.307928	-0.007260
1331	6.6500e-01	-13.1563	-97.246073	0.000616	6.160009	2.087068	-0.049204
1332	6.6550e-01	-13.1868	-97.431596	0.000465	4.645253	1.573854	-0.037105
1333	6.6600e-01	-13.2365	-97.786509	0.000889	8.886570	3.010852	-0.070983
1334	6.6650e-01	-13.2847	-97.943800	0.000394	3.938366	1.334355	-0.031458
1335	6.6700e-01	-13.3103	-98.084958	0.000353	3.534431	1.197498	-0.028232
1336	6.6750e-01	-13.3552	-98.347109	0.000656	6.563944	2.223924	-0.052430
1337	6.6800e-01	-13.3937	-98.706055	0.000899	8.987554	3.045066	-0.071789
1338	6.6850e-01	-13.4322	-98.992405	0.000717	7.169847	2.429210	-0.057270
1339	6.6900e-01	-13.4723	-99.137597	0.000364	3.635415	1.231712	-0.029038
1340	6.6950e-01	-13.5092	-99.407814	0.000677	6.765912	2.292353	-0.054044
1341	6.7000e-01	-13.5461	-99.593337	0.000465	4.645253	1.573854	-0.037105
1342	6.7050e-01	-13.5895	-99.956316	0.000909	9.088538	3.079280	-0.072596
1343	6.7100e-01	-13.6264	-99.960349	0.000010	0.100984	0.034214	-0.000807
1344	6.7150e-01	-13.6697	-100.476585	0.001293	12.925920	4.379420	-0.103247
1345	6.7200e-01	-13.7146	-100.492718	0.000040	0.403935	0.136857	-0.003226
1346	6.7250e-01	-13.7563	-100.924259	0.001081	10.805262	3.660922	-0.086308
1347	6.7300e-01	-13.7916	-101.085583	0.000404	4.039350	1.368569	-0.032265
1348	6.7350e-01	-13.8365	-101.412264	0.000818	8.179684	2.771352	-0.065336
1349	6.7400e-01	-13.8766	-101.601820	0.000475	4.746236	1.608068	-0.037911
1350	6.7450e-01	-13.9167	-101.868004	0.000666	6.664928	2.258139	-0.053237
1351	6.7500e-01	-13.9472	-101.920435	0.000131	1.312789	0.444785	-0.010486
1352	6.7550e-01	-13.9905	-102.101924	0.000454	4.544269	1.539640	-0.036298
1353	6.7600e-01	-14.0306	-102.404407	0.000757	7.573782	2.566067	-0.060496
1354	6.7650e-01	-14.0739	-102.731088	0.000818	8.179684	2.771352	-0.065336
1355	6.7700e-01	-14.1140	-103.029537	0.000747	7.472798	2.531852	-0.059690
1356	6.7750e-01	-14.1461	-103.231192	0.000505	5.049188	1.710711	-0.040331
1357	6.7800e-01	-14.1910	-103.352185	0.000303	3.029513	1.026427	-0.024199
1358	6.7850e-01	-14.2279	-103.699031	0.000868	8.684603	2.942423	-0.069369
1359	6.7900e-01	-14.2648	-103.953116	0.000636	6.361976	2.155496	-0.050817
1360	6.7950e-01	-14.3114	-104.118474	0.000414	4.140334	1.402783	-0.033071
1361	6.8000e-01	-14.3563	-104.376592	0.000646	6.462960	2.189710	-0.051624
1362	6.8050e-01	-14.3884	-104.610512	0.000586	5.857058	1.984425	-0.046784
1363	6.8100e-01	-14.4333	-104.719405	0.000273	2.726561	0.923784	-0.021779
1364	6.8150e-01	-14.4686	-105.215476	0.001242	12.421002	4.208349	-0.099214
1365	6.8200e-01	-14.5103	-105.231609	0.000040	0.403935	0.136857	-0.003226
1366	6.8250e-01	-14.5552	-105.195311	-0.000091	-0.908854	-0.307928	0.007260
1367	6.8300e-01	-14.6001	-105.400999	0.000515	5.150171	1.744925	-0.041138
1368	6.8350e-01	-14.6354	-105.876905	0.001192	11.916083	4.037278	-0.095181
1369	6.8400e-01	-14.6739	-106.118890	0.000606	6.059025	2.052853	-0.048397
1370	6.8450e-01	-14.7044	-106.574631	0.001141	11.411164	3.866207	-0.091148
1371	6.8500e-01	-14.7541	-106.772252	0.000495	4.948204	1.676497	-0.039524
1372	6.8550e-01	-14.7878	-106.877113	0.000263	2.625578	0.889570	-0.020972
1373	6.8600e-01	-14.8375	-107.167496	0.000727	7.270830	2.463424	-0.058077
1374	6.8650e-01	-14.8616	-107.457879	0.000727	7.270830	2.463424	-0.058077
1375	6.8700e-01	-14.9194	-107.562740	0.000263	2.625578	0.889570	-0.020972
1376	6.8750e-01	-14.9498	-107.780527	0.000545	5.453123	1.847568	-0.043557
1377	6.8800e-01	-14.9916	-108.103175	0.000808	8.078700	2.737138	-0.064530
1378	6.8850e-01	-15.0365	-108.046712	-0.000141	-1.413773	-0.478999	0.011293
1379	6.8900e-01	-15.0654	-108.458088	0.001030	10.300343	3.489851	-0.082275
1380	6.8950e-01	-15.1151	-108.490352	0.000081	0.807870	0.273714	-0.006453
1381	6.9000e-01	-15.1456	-108.950126	0.001151	11.512148	3.900421	-0.091955
1382	6.9050e-01	-15.1841	-109.171946	0.000555	5.554106	1.881782	-0.044364
1383	6.9100e-01	-15.2290	-109.361502	0.000475	4.746236	1.608068	-0.037911
1384	6.9150e-01	-15.2723	-109.732547	0.000929	9.290505	3.147708	-0.074209
1385	6.9200e-01	-15.3044	-110.002764	0.000677	6.765912	2.292353	-0.054044
1386	6.9250e-01	-15.3605	-110.075360	0.000182	1.817708	0.615856	-0.014519
1387	6.9300e-01	-15.3942	-110.289114	0.000535	5.352139	1.813354	-0.042751
1388	6.9350e-01	-15.4231	-110.466571	0.000444	4.443285	1.505426	-0.035491
1389	6.9400e-01	-15.4712	-110.841649	0.000939	9.391489	3.181923	-0.075016
1390	6.9450e-01	-15.5065	-111.027171	0.000465	4.645253	1.573854	-0.037105
1391	6.9500e-01	-15.5643	-111.099767	0.000182	1.817708	0.615856	-0.014519
1392	6.9550e-01	-15.5915	-111.482912	0.000959	9.593457	3.250351	-0.076629
1393	6.9600e-01	-15.6300	-111.781361	0.000747	7.472798	2.531852	-0.059690
1394	6.9650e-01	-15.6701	-111.978983	0.000495	4.948204	1.676497	-0.039524
1395	6.9700e-01	-15.7199	-112.168538	0.000475	4.746236	1.608068	-0.037911
1396	6.9750e-01	-15.7552	-112.289531	0.000303	3.029513	1.026427	-0.024199
1397	6.9800e-01	-15.7969	-112.668643	0.000949	9.492473	3.216137	-0.075822
1398	6.9850e-01	-15.8370	-113.023555	0.000889	8.886570	3.010852	-0.070983
1399	6.9900e-01	-15.8707	-113.116316	0.000232	2.322626	0.786927	-0.018552
1400	6.9950e-01	-15.9092	-113.317971	0.000505	5.049188	1.710711	-0.040331
1401	7.0000e-01	-15.9493	-113.604321	0.000717	7.169847	2.429210	-0.057270
1402	7.0050e-01	-15.9846	-113.793877	0.000475	4.746236	1.608068	-0.037911
1403	7.0100e-01	-16.0311	-114.177021	0.000959	9.593457	3.250351	-0.076629
1404	7.0150e-01	-16.0728	-114.378676	0.000505	5.049188	1.710711	-0.040331
1405	7.0200e-01	-16.1145	-114.535967	0.000394	3.938366	1.334355	-0.031458
1406	7.0250e-01	-16.1530	-114.652927	0.000293	2.928529	0.992212	-0.023392
1407	7.0300e-01	-16.1883	-114.842483	0.000475	4.746236	1.608068	-0.037911
1408	7.0350e-01	-16.2348	-115.124800	0.000707	7.068863	2.394996	-0.056463
1409	7.0400e-01	-16.2749	-115.322421	0.000495	4.948204	1.676497	-0.039524
1410	7.0450e-01	-16.3215	-115.516010	0.000485	4.847220	1.642283	-0.038718
1411	7.0500e-01	-16.3552	-116.112909	0.001495	14.945596	5.063705	-0.119380
1412	7.0550e-01	-16.3904	-116.052412	-0.000151	-1.514756	-0.513213	0.012099
1413	7.0600e-01	-16.4402	-116.237935	0.000465	4.645253	1.573854	-0.037105
1414	7.0650e-01	-16.4723	-116.500086	0.000656	6.563944	2.223924	-0.052430
1415	7.0700e-01	-16.5108	-116.790469	0.000727	7.270830	2.463424	-0.058077
1416	7.0750e-01	-16.5525	-116.923562	0.000333	3.332464	1.129069	-0.026618
1417	7.0800e-01	-16.5894	-117.193779	0.000677	6.765912	2.292353	-0.054044
1418	7.0850e-01	-16.6311	-117.496262	0.000757	7.573782	2.566067	-0.060496
1419	7.0900e-01	-16.6792	-117.718082	0.000555	5.554106	1.881782	-0.044364
1420	7.0950e-01	-16.7129	-118.004432	0.000717	7.169847	2.429210	-0.057270
1421	7.1000e-01	-16.7594	-118.056862	0.000131	1.312789	0.444785	-0.010486
1422	7.1050e-01	-16.7883	-118.359345	0.000757	7.573782	2.566067	-0.060496
1423	7.1100e-01	-16.8380	-118.375477	0.000040	0.403935	0.136857	-0.003226
1424	7.1150e-01	-16.8765	-118.625529	0.000626	6.260993	2.121282	-0.050010
1425	7.1200e-01	-16.9134	-119.153865	0.001323	13.228872	4.482063	-0.105667
1426	7.1250e-01	-16.9519	-119.303090	0.000374	3.736399	1.265926	-0.029845
1427	7.1300e-01	-16.9872	-119.492645	0.000475	4.746236	1.608068	-0.037911
1428	7.1350e-01	-17.0337	-119.621705	0.000323	3.231480	1.094855	-0.025812
1429	7.1400e-01	-17.0722	-119.964518	0.000858	8.583619	2.908209	-0.068563
1430	7.1450e-01	-17.1091	-120.396059	0.001081	10.805262	3.660922	-0.086308
1431	7.1500e-01	-17.1492	-120.444457	0.000121	1.211805	0.410571	-0.009679
1432	7.1550e-01	-17.1942	-120.521086	0.000192	1.918691	0.650070	-0.015326
1433	7.1600e-01	-17.2375	-120.678376	0.000394	3.938366	1.334355	-0.031458
1434	7.1650e-01	-17.2696	-120.920362	0.000606	6.059025	2.052853	-0.048397
1435	7.1700e-01	-17.3145	-121.178481	0.000646	6.462960	2.189710	-0.051624
1436	7.1750e-01	-17.3562	-121.452731	0.000687	6.866895	2.326567	-0.054850
1437	7.1800e-01	-17.3947	-121.646320	0.000485	4.847220	1.642283	-0.038718
1438	7.1850e-01	-17.4252	-121.698750	0.000131	1.312789	0.444785	-0.010486
1439	7.1900e-01	-17.4733	-122.009299	0.000778	7.775749	2.634495	-0.062110
1440	7.1950e-01	-17.5182	-122.223053	0.000535	5.352139	1.813354	-0.042751
1441	7.2000e-01	-17.5535	-122.513436	0.000727	7.270830	2.463424	-0.058077
1442	7.2050e-01	-17.5904	-122.723157	0.000525	5.251155	1.779140	-0.041944
1443	7.2100e-01	-17.6305	-123.142600	0.001050	10.502310	3.558279	-0.083888
1444	7.2150e-01	-17.6738	-123.368453	0.000566	5.655090	1.915996	-0.045171
1445	7.2200e-01	-17.7091	-123.412817	0.000111	1.110821	0.376356	-0.008873
1446	7.2250e-01	-17.7524	-123.396685	-0.000040	-0.403935	-0.136857	0.003226
1447	7.2300e-01	-17.7797	-123.755631	0.000899	8.987554	3.045066	-0.071789
1448	7.2350e-01	-17.8246	-124.098444	0.000858	8.583619	2.908209	-0.068563
1449	7.2400e-01	-17.8679	-124.207338	0.000273	2.726561	0.923784	-0.021779
1450	7.2450e-01	-17.9113	-124.489655	0.000707	7.068863	2.394996	-0.056463
1451	7.2500e-01	-17.9562	-124.683243	0.000485	4.847220	1.642283	-0.038718
1452	7.2550e-01	-17.9883	-125.034123	0.000879	8.785587	2.976637	-0.070176
1453	7.2600e-01	-18.0300	-125.308374	0.000687	6.866895	2.326567	-0.054850
1454	7.2650e-01	-18.0701	-125.413234	0.000263	2.625578	0.889570	-0.020972
1455	7.2700e-01	-18.1070	-125.768147	0.000889	8.886570	3.010852	-0.070983
1456	7.2750e-01	-18.1503	-125.832676	0.000162	1.615740	0.547428	-0.012906
1457	7.2800e-01	-18.1904	-126.248086	0.001040	10.401327	3.524065	-0.083082
1458	7.2850e-01	-18.2321	-126.381178	0.000333	3.332464	1.129069	-0.026618
1459	7.2900e-01	-18.2706	-126.506204	0.000313	3.130496	1.060641	-0.025005
1460	7.2950e-01	-18.3187	-126.752223	0.000616	6.160009	2.087068	-0.049204
1461	7.3000e-01	-18.3604	-127.038573	0.000717	7.169847	2.429210	-0.057270
1462	7.3050e-01	-18.3957	-127.397519	0.000899	8.987554	3.045066	-0.071789
1463	7.3100e-01	-18.4246	-127.615306	0.000545	5.453123	1.847568	-0.043557
1464	7.3150e-01	-18.4776	-127.800829	0.000465	4.645253	1.573854	-0.037105
1465	7.3200e-01	-18.5161	-128.127509	0.000818	8.179684	2.771352	-0.065336
1466	7.3250e-01	-18.5562	-128.196072	0.000172	1.716724	0.581642	-0.013713
1467	7.3300e-01	-18.5866	-128.486455	0.000727	7.270830	2.463424	-0.058077
1468	7.3350e-01	-18.6380	-128.571150	0.000212	2.120659	0.718499	-0.016939
1469	7.3400e-01	-18.6781	-128.692143	0.000303	3.029513	1.026427	-0.024199
1470	7.3450e-01	-18.7230	-128.889765	0.000495	4.948204	1.676497	-0.039524
1471	7.3500e-01	-18.7551	-129.236612	0.000868	8.684603	2.942423	-0.069369
1472	7.3550e-01	-18.7920	-129.656054	0.001050	10.502310	3.558279	-0.083888
1473	7.3600e-01	-18.8417	-129.631855	-0.000061	-0.605903	-0.205285	0.004840
1474	7.3650e-01	-18.8690	-129.902073	0.000677	6.765912	2.292353	-0.054044
1475	7.3700e-01	-18.9155	-130.103728	0.000505	5.049188	1.710711	-0.040331
1476	7.3750e-01	-18.9492	-130.325548	0.000555	5.554106	1.881782	-0.044364
1477	7.3800e-01	-18.9909	-130.430409	0.000263	2.625578	0.889570	-0.020972
1478	7.3850e-01	-19.0503	-130.761123	0.000828	8.280668	2.805566	-0.066143
1479	7.3900e-01	-19.0743	-131.107969	0.000868	8.684603	2.942423	-0.069369
1480	7.3950e-01	-19.1128	-131.273326	0.000414	4.140334	1.402783	-0.033071
1481	7.4000e-01	-19.1577	-131.386253	0.000283	2.827545	0.957998	-0.022585
1482	7.4050e-01	-19.1946	-131.600007	0.000535	5.352139	1.813354	-0.042751
1483	7.4100e-01	-19.2364	-131.926688	0.000818	8.179684	2.771352	-0.065336
1484	7.4150e-01	-19.2733	-131.991218	0.000162	1.615740	0.547428	-0.012906
1485	7.4200e-01	-19.3166	-132.531653	0.001353	13.531823	4.584706	-0.108087
1486	7.4250e-01	-19.3535	-132.680878	0.000374	3.736399	1.265926	-0.029845
1487	7.4300e-01	-19.3872	-133.027724	0.000868	8.684603	2.942423	-0.069369
1488	7.4350e-01	-19.4289	-133.140651	0.000283	2.827545	0.957998	-0.022585
1489	7.4400e-01	-19.4674	-133.293909	0.000384	3.837383	1.300140	-0.030652
1490	7.4450e-01	-19.5123	-133.398769	0.000263	2.625578	0.889570	-0.020972
1491	7.4500e-01	-19.5508	-133.608490	0.000525	5.251155	1.779140	-0.041944
1492	7.4550e-01	-19.5845	-134.023900	0.001040	10.401327	3.524065	-0.083082
1493	7.4600e-01	-19.6406	-134.350581	0.000818	8.179684	2.771352	-0.065336
1494	7.4650e-01	-19.6679	-134.370746	0.000050	0.504919	0.171071	-0.004033
1495	7.4700e-01	-19.7080	-134.741791	0.000929	9.290505	3.147708	-0.074209
1496	7.4750e-01	-19.7497	-134.802288	0.000151	1.514756	0.513213	-0.012099
1497	7.4800e-01	-19.7850	-134.983777	0.000454	4.544269	1.539640	-0.036298
1498	7.4850e-01	-19.8219	-135.193498	0.000525	5.251155	1.779140	-0.041944
1499	7.4900e-01	-19.8780	-135.475815	0.000707	7.068863	2.394996	-0.056463
1500	7.4950e-01	-19.9133	-135.774264	0.000747	7.472798	2.531852	-0.059690
1501	7.5000e-01	-19.9599	-135.887191	0.000283	2.827545	0.957998	-0.022585
1502	7.5050e-01	-19.9599	-135.975919	0.000222	2.221643	0.752713	-0.017746
1503	7.5100e-01	-19.9294	-135.939621	0.000091	0.908854	0.307928	0.007260
1504	7.5150e-01	-19.8941	-135.826695	0.000283	2.827545	0.957998	0.022585
1505	7.5200e-01	-19.8684	-135.467749	0.000899	8.987554	3.045066	0.071789
1506	7.5250e-01	-19.8171	-135.435484	0.000081	0.807870	0.273714	0.006453
1507	7.5300e-01	-19.7786	-135.362888	0.000182	1.817708	0.615856	0.014519
1508	7.5350e-01	-19.7321	-135.439517	-0.000192	-1.918691	-0.650070	-0.015326
1509	7.5400e-01	-19.6936	-135.253995	0.000465	4.645253	1.573854	0.037105
1510	7.5450e-01	-19.6583	-135.128969	0.000313	3.130496	1.060641	0.025005
1511	7.5500e-01	-19.6150	-134.903115	0.000566	5.655090	1.915996	0.045171
1512	7.5550e-01	-19.5781	-134.354614	0.001373	13.733791	4.653134	0.109700
1513	7.5600e-01	-19.5363	-134.443342	-0.000222	-2.221643	-0.752713	-0.017746
1514	7.5650e-01	-19.5027	-134.338481	0.000263	2.625578	0.889570	0.020972
1515	7.5700e-01	-19.4465	-134.237654	0.000252	2.524594	0.855356	0.020165
1516	7.5750e-01	-19.4080	-133.886774	0.000879	8.785587	2.976637	0.070176
1517	7.5800e-01	-19.3791	-133.866609	0.000050	0.504919	0.171071	0.004033
1518	7.5850e-01	-19.3487	-133.285843	0.001454	14.541661	4.926848	0.116153
1519	7.5900e-01	-19.2893	-133.427001	-0.000353	-3.534431	-1.197498	-0.028232
1520	7.5950e-01	-19.2620	-133.467332	-0.000101	-1.009838	-0.342142	-0.008066
1521	7.6000e-01	-19.2219	-133.185015	0.000707	7.068863	2.394996	0.056463
1522	7.6050e-01	-19.1818	-132.902698	0.000707	7.068863	2.394996	0.056463
1523	7.6100e-01	-19.1433	-132.729275	0.000434	4.342301	1.471212	0.034685
1524	7.6150e-01	-19.0984	-132.753474	-0.000061	-0.605903	-0.205285	-0.004840
1525	7.6200e-01	-19.0615	-132.354197	0.001000	9.997392	3.387208	0.079855
1526	7.6250e-01	-19.0198	-132.257402	0.000242	2.423610	0.821141	0.019359
1527	7.6300e-01	-18.9829	-131.825861	0.001081	10.805262	3.660922	0.086308
1528	7.6350e-01	-18.9348	-131.906523	-0.000202	-2.019675	-0.684284	-0.016132
1529	7.6400e-01	-18.9043	-131.624206	0.000707	7.068863	2.394996	0.056463
1530	7.6450e-01	-18.8626	-131.470948	0.000384	3.837383	1.300140	0.030652
1531	7.6500e-01	-18.8273	-131.265260	0.000515	5.150171	1.744925	0.041138
1532	7.6550e-01	-18.7808	-131.152333	0.000283	2.827545	0.957998	0.022585
1533	7.6600e-01	-18.7423	-130.898248	0.000636	6.361976	2.155496	0.050817
1534	7.6650e-01	-18.7005	-130.736924	0.000404	4.039350	1.368569	0.032265
1535	7.6700e-01	-18.6652	-130.575600	0.000404	4.039350	1.368569	0.032265
1536	7.6750e-01	-18.6251	-130.559468	0.000040	0.403935	0.136857	0.003226
1537	7.6800e-01	-18.5754	-130.410243	0.000374	3.736399	1.265926	0.029845
1538	7.6850e-01	-18.5465	-130.019033	0.000980	9.795424	3.318780	0.078242
1539	7.6900e-01	-18.4984	-130.015000	0.000010	0.100984	0.034214	0.000807
1540	7.6950e-01	-18.4711	-129.688319	0.000818	8.179684	2.771352	0.065336
1541	7.7000e-01	-18.4262	-129.535061	0.000384	3.837383	1.300140	0.030652
1542	7.7050e-01	-18.3733	-129.466498	0.000172	1.716724	0.581642	0.013713
1543	7.7100e-01	-18.3348	-129.184181	0.000707	7.068863	2.394996	0.056463
1544	7.7150e-01	-18.2979	-128.934129	0.000626	6.260993	2.121282	0.050010
1545	7.7200e-01	-18.2658	-128.958328	-0.000061	-0.605903	-0.205285	-0.004840
1546	7.7250e-01	-18.2193	-128.897831	0.000151	1.514756	0.513213	0.012099
1547	7.7300e-01	-18.1808	-128.526786	0.000929	9.290505	3.147708	0.074209
1548	7.7350e-01	-18.1342	-128.313032	0.000535	5.352139	1.813354	0.042751
1549	7.7400e-01	-18.1086	-128.006517	0.000767	7.674765	2.600281	0.061303
1550	7.7450e-01	-18.0572	-127.780663	0.000566	5.655090	1.915996	0.045171
1551	7.7500e-01	-18.0268	-127.724200	0.000141	1.413773	0.478999	0.011293
1552	7.7550e-01	-17.9851	-127.566909	0.000394	3.938366	1.334355	0.031458
1553	7.7600e-01	-17.9417	-127.252327	0.000788	7.876733	2.668709	0.062916
1554	7.7650e-01	-17.9097	-127.135367	0.000293	2.928529	0.992212	0.023392
1555	7.7700e-01	-17.8583	-126.865150	0.000677	6.765912	2.292353	0.054044
1556	7.7750e-01	-17.8134	-126.719958	0.000364	3.635415	1.231712	0.029038
1557	7.7800e-01	-17.7797	-126.675594	0.000111	1.110821	0.376356	0.008873
1558	7.7850e-01	-17.7348	-126.542502	0.000333	3.332464	1.129069	0.026618
1559	7.7900e-01	-17.7075	-126.223887	0.000798	7.977717	2.702924	0.063723
1560	7.7950e-01	-17.6578	-126.018199	0.000515	5.150171	1.744925	0.041138
1561	7.8000e-01	-17.6193	-125.901239	0.000293	2.928529	0.992212	0.023392
1562	7.8050e-01	-17.5824	-125.743948	0.000394	3.938366	1.334355	0.031458
1563	7.8100e-01	-17.5391	-125.385002	0.000899	8.987554	3.045066	0.071789
1564	7.8150e-01	-17.5006	-125.332572	0.000131	1.312789	0.444785	0.010486
1565	7.8200e-01	-17.4685	-125.207546	0.000313	3.130496	1.060641	0.025005
1566	7.8250e-01	-17.4172	-124.973626	0.000586	5.857058	1.984425	0.046784
1567	7.8300e-01	-17.3819	-124.876832	0.000242	2.423610	0.821141	0.019359
1568	7.8350e-01	-17.3402	-124.525952	0.000879	8.785587	2.976637	0.070176
1569	7.8400e-01	-17.3049	-124.404959	0.000303	3.029513	1.026427	0.024199
1570	7.8450e-01	-17.2664	-124.110543	0.000737	7.371814	2.497638	0.058883
1571	7.8500e-01	-17.2246	-123.816127	0.000737	7.371814	2.497638	0.058883
1572	7.8550e-01	-17.1813	-123.699167	0.000293	2.928529	0.992212	0.023392
1573	7.8600e-01	-17.1316	-123.574141	0.000313	3.130496	1.060641	0.025005
1574	7.8650e-01	-17.1011	-123.501545	0.000182	1.817708	0.615856	0.014519
1575	7.8700e-01	-17.0546	-123.267626	0.000586	5.857058	1.984425	0.046784
1576	7.8750e-01	-17.0145	-123.162765	0.000263	2.625578	0.889570	0.020972
1577	7.8800e-01	-16.9776	-122.888514	0.000687	6.866895	2.326567	0.054850
1578	7.8850e-01	-16.9519	-122.618297	0.000677	6.765912	2.292353	0.054044
1579	7.8900e-01	-16.9038	-122.497304	0.000303	3.029513	1.026427	0.024199
1580	7.8950e-01	-16.8589	-122.263384	0.000586	5.857058	1.984425	0.046784
1581	7.9000e-01	-16.8332	-122.178689	0.000212	2.120659	0.718499	0.016939
1582	7.9050e-01	-16.7787	-122.013332	0.000414	4.140334	1.402783	0.033071
1583	7.9100e-01	-16.7450	-121.839909	0.000434	4.342301	1.471212	0.034685
1584	7.9150e-01	-16.6953	-121.569691	0.000677	6.765912	2.292353	0.054044
1585	7.9200e-01	-16.6551	-121.251076	0.000798	7.977717	2.702924	0.063723
1586	7.9250e-01	-16.6166	-121.073620	0.000444	4.443285	1.505426	0.035491
1587	7.9300e-01	-16.5830	-120.835667	0.000596	5.958041	2.018639	0.047591
1588	7.9350e-01	-16.5412	-120.815502	0.000050	0.504919	0.171071	0.004033
1589	7.9400e-01	-16.5043	-120.569483	0.000616	6.160009	2.087068	0.049204
1590	7.9450e-01	-16.4626	-120.359762	0.000525	5.251155	1.779140	0.041944
1591	7.9500e-01	-16.4161	-120.101643	0.000646	6.462960	2.189710	0.051624
1592	7.9550e-01	-16.3840	-119.835459	0.000666	6.664928	2.258139	0.053237
1593	7.9600e-01	-16.3391	-119.545076	0.000727	7.270830	2.463424	0.058077
1594	7.9650e-01	-16.2974	-119.355520	0.000475	4.746236	1.608068	0.037911
1595	7.9700e-01	-16.2573	-119.290990	0.000162	1.615740	0.547428	0.012906
1596	7.9750e-01	-16.2156	-119.040938	0.000626	6.260993	2.121282	0.050010
1597	7.9800e-01	-16.1787	-118.855416	0.000465	4.645253	1.573854	0.037105
1598	7.9850e-01	-16.1306	-118.815085	0.000101	1.009838	0.342142	0.008066
1599	7.9900e-01	-16.0905	-118.496470	0.000798	7.977717	2.702924	0.063723
1600	7.9950e-01	-16.0584	-118.359345	0.000343	3.433448	1.163284	0.027425
1601	8.0000e-01	-16.0183	-117.899571	0.001151	11.512148	3.900421	0.091955
1602	8.0050e-01	-15.9766	-117.956035	-0.000141	-1.413773	-0.478999	-0.011293
1603	8.0100e-01	-15.9381	-117.689850	0.000666	6.664928	2.258139	0.053237
1604	8.0150e-01	-15.8996	-117.576924	0.000283	2.827545	0.957998	0.022585
1605	8.0200e-01	-15.8578	-117.338971	0.000596	5.958041	2.018639	0.047591
1606	8.0250e-01	-15.8306	-116.988091	0.000879	8.785587	2.976637	0.070176
1607	8.0300e-01	-15.7824	-116.762238	0.000566	5.655090	1.915996	0.045171
1608	8.0350e-01	-15.7391	-116.564616	0.000495	4.948204	1.676497	0.039524
1609	8.0400e-01	-15.7038	-116.483954	0.000202	2.019675	0.684284	0.016132
1610	8.0450e-01	-15.6701	-116.274233	0.000525	5.251155	1.779140	0.041944
1611	8.0500e-01	-15.6252	-116.120975	0.000384	3.837383	1.300140	0.030652
1612	8.0550e-01	-15.5803	-115.854790	0.000666	6.664928	2.258139	0.053237
1613	8.0600e-01	-15.5402	-115.665235	0.000475	4.746236	1.608068	0.037911
1614	8.0650e-01	-15.5033	-115.520043	0.000364	3.635415	1.231712	0.029038
1615	8.0700e-01	-15.4632	-115.346620	0.000434	4.342301	1.471212	0.034685
1616	8.0750e-01	-15.4215	-114.987674	0.000899	8.987554	3.045066	0.071789
1617	8.0800e-01	-15.3846	-114.681159	0.000767	7.674765	2.600281	0.061303
1618	8.0850e-01	-15.3413	-114.693258	-0.000030	-0.302951	-0.102643	-0.002420
1619	8.0900e-01	-15.3076	-114.515802	0.000444	4.443285	1.505426	0.035491
1620	8.0950e-01	-15.2563	-114.281882	0.000586	5.857058	1.984425	0.046784
1621	8.1000e-01	-15.2178	-114.144757	0.000343	3.433448	1.163284	0.027425
1622	8.1050e-01	-15.1793	-113.781778	0.000909	9.088538	3.079280	0.072596
1623	8.1100e-01	-15.1407	-113.664818	0.000293	2.928529	0.992212	0.023392
1624	8.1150e-01	-15.0926	-113.402666	0.000656	6.563944	2.223924	0.052430
1625	8.1200e-01	-15.0621	-113.084052	0.000798	7.977717	2.702924	0.063723
1626	8.1250e-01	-15.0156	-112.975158	0.000273	2.726561	0.923784	0.021779
1627	8.1300e-01	-14.9675	-112.531517	0.001111	11.108213	3.763564	0.088728
1628	8.1350e-01	-14.9322	-112.390359	0.000353	3.534431	1.197498	0.028232
1629	8.1400e-01	-14.8985	-112.067711	0.000808	8.078700	2.737138	0.064530
1630	8.1450e-01	-14.8680	-111.765228	0.000757	7.573782	2.566067	0.060496
1631	8.1500e-01	-14.8151	-111.918486	-0.000384	-3.837383	-1.300140	-0.030652
1632	8.1550e-01	-14.7766	-111.809593	0.000273	2.726561	0.923784	0.021779
1633	8.1600e-01	-14.7349	-111.543408	0.000666	6.664928	2.258139	0.053237
1634	8.1650e-01	-14.6980	-111.325621	0.000545	5.453123	1.847568	0.043557
1635	8.1700e-01	-14.6563	-111.115900	0.000525	5.251155	1.779140	0.041944
1636	8.1750e-01	-14.6162	-110.869881	0.000616	6.160009	2.087068	0.049204
1637	8.1800e-01	-14.5873	-110.769053	0.000252	2.524594	0.855356	0.020165
1638	8.1850e-01	-14.5376	-110.410107	0.000899	8.987554	3.045066	0.071789
1639	8.1900e-01	-14.5055	-110.216519	0.000485	4.847220	1.642283	0.038718
1640	8.1950e-01	-14.4622	-110.059228	0.000394	3.938366	1.334355	0.031458
1641	8.2000e-01	-14.4204	-109.881771	0.000444	4.443285	1.505426	0.035491
1642	8.2050e-01	-14.3852	-109.559124	0.000808	8.078700	2.737138	0.064530
1643	8.2100e-01	-14.3354	-109.462329	0.000242	2.423610	0.821141	0.019359
1644	8.2150e-01	-14.2985	-109.236476	0.000566	5.655090	1.915996	0.045171
1645	8.2200e-01	-14.2584	-109.135648	0.000252	2.524594	0.855356	0.020165
1646	8.2250e-01	-14.2183	-108.692007	0.001111	11.108213	3.763564	0.088728
1647	8.2300e-01	-14.1830	-108.708140	-0.000040	-0.403935	-0.136857	-0.003226
1648	8.2350e-01	-14.1397	-108.389525	0.000798	7.977717	2.702924	0.063723
1649	8.2400e-01	-14.1140	-108.107208	0.000707	7.068863	2.394996	0.056463
1650	8.2450e-01	-14.0467	-107.921685	0.000465	4.645253	1.573854	0.037105
1651	8.2500e-01	-14.0146	-107.800693	0.000303	3.029513	1.026427	0.024199
1652	8.2550e-01	-13.9809	-107.627269	0.000434	4.342301	1.471212	0.034685
1653	8.2600e-01	-13.9392	-107.199761	0.001070	10.704278	3.626708	0.085502
1654	8.2650e-01	-13.9071	-107.070702	0.000323	3.231480	1.094855	0.025812
1655	8.2700e-01	-13.8606	-106.913411	0.000394	3.938366	1.334355	0.031458
1656	8.2750e-01	-13.8205	-106.796451	0.000293	2.928529	0.992212	0.023392
1657	8.2800e-01	-13.7755	-106.405240	0.000980	9.795424	3.318780	0.078242
1658	8.2850e-01	-13.7419	-106.195519	0.000525	5.251155	1.779140	0.041944
1659	8.2900e-01	-13.7098	-105.856739	0.000848	8.482635	2.873995	0.067756
1660	8.2950e-01	-13.6665	-105.913202	-0.000141	-1.413773	-0.478999	-0.011293
1661	8.3000e-01	-13.6215	-105.655084	0.000646	6.462960	2.189710	0.051624
1662	8.3050e-01	-13.5734	-105.259840	0.000990	9.896408	3.352994	0.079049
1663	8.3100e-01	-13.5397	-105.005755	0.000636	6.361976	2.155496	0.050817
1664	8.3150e-01	-13.4916	-104.796034	0.000525	5.251155	1.779140	0.041944
1665	8.3200e-01	-13.4595	-104.630677	0.000414	4.140334	1.402783	0.033071
1666	8.3250e-01	-13.4178	-104.606478	0.000061	0.605903	0.205285	0.004840
1667	8.3300e-01	-13.3809	-104.138639	0.001171	11.714115	3.968850	0.093568
1668	8.3350e-01	-13.3344	-104.037812	0.000252	2.524594	0.855356	0.020165
1669	8.3400e-01	-13.2991	-103.876488	0.000404	4.039350	1.368569	0.032265
1670	8.3450e-01	-13.2590	-103.803892	0.000182	1.817708	0.615856	0.014519
1671	8.3500e-01	-13.2189	-103.259424	0.001363	13.632807	4.618920	0.108894
1672	8.3550e-01	-13.1836	-103.005338	0.000636	6.361976	2.155496	0.050817
1673	8.3600e-01	-13.1371	-103.013404	-0.000020	-0.201968	-0.068428	-0.001613
1674	8.3650e-01	-13.0970	-102.920643	0.000232	2.322626	0.786927	0.018552
1675	8.3700e-01	-13.0649	-102.694790	0.000566	5.655090	1.915996	0.045171
1676	8.3750e-01	-13.0183	-102.178553	0.001293	12.925920	4.379420	0.103247
1677	8.3800e-01	-12.9718	-102.118057	0.000151	1.514756	0.513213	0.012099
1678	8.3850e-01	-12.9478	-101.948666	0.000424	4.241318	1.436997	0.033878
1679	8.3900e-01	-12.8964	-101.315470	0.001585	15.854449	5.371633	0.126639
1680	8.3950e-01	-12.8676	-101.396132	-0.000202	-2.019675	-0.684284	-0.016132
1681	8.4000e-01	-12.8210	-101.267073	0.000323	3.231480	1.094855	0.025812
1682	8.4050e-01	-12.7809	-101.081550	0.000465	4.645253	1.573854	0.037105
1683	8.4100e-01	-12.7392	-100.766969	0.000788	7.876733	2.668709	0.062916
1684	8.4150e-01	-12.7023	-100.537082	0.000576	5.756074	1.950211	0.045977
1685	8.4200e-01	-12.6702	-100.157971	0.000949	9.492473	3.216137	0.075822
1686	8.4250e-01	-12.6253	-99.968415	0.000475	4.746236	1.608068	0.037911
1687	8.4300e-01	-12.5788	-99.863554	0.000263	2.625578	0.889570	0.020972
1688	8.4350e-01	-12.5467	-99.411847	0.001131	11.310180	3.831993	0.090341
1689	8.4400e-01	-12.5018	-99.419914	-0.000020	-0.201968	-0.068428	-0.001613
1690	8.4450e-01	-12.4665	-99.165828	0.000636	6.361976	2.155496	0.050817
1691	8.4500e-01	-12.4152	-99.065001	0.000252	2.524594	0.855356	0.020165
1692	8.4550e-01	-12.3783	-98.802850	0.000656	6.563944	2.223924	0.052430
1693	8.4600e-01	-12.3414	-98.399540	0.001010	10.098375	3.421422	0.080662
1694	8.4650e-01	-12.2964	-98.302745	0.000242	2.423610	0.821141	0.019359
1695	8.4700e-01	-12.2676	-98.008329	0.000737	7.371814	2.497638	0.058883
1696	8.4750e-01	-12.2194	-97.669549	0.000848	8.482635	2.873995	0.067756
1697	8.4800e-01	-12.1809	-97.568721	0.000252	2.524594	0.855356	0.020165
1698	8.4850e-01	-12.1360	-97.439662	0.000323	3.231480	1.094855	0.025812
1699	8.4900e-01	-12.1023	-97.004088	0.001091	10.906245	3.695136	0.087115
1700	8.4950e-01	-12.0606	-96.870995	0.000333	3.332464	1.129069	0.026618
1701	8.5000e-01	-12.0237	-96.580612	0.000727	7.270830	2.463424	0.058077
1702	8.5050e-01	-11.9804	-96.286196	0.000737	7.371814	2.497638	0.058883
1703	8.5100e-01	-11.9467	-96.128905	0.000394	3.938366	1.334355	0.031458
1704	8.5150e-01	-11.8922	-95.979681	0.000374	3.736399	1.265926	0.029845
1705	8.5200e-01	-11.8697	-95.600569	0.000949	9.492473	3.216137	0.075822
1706	8.5250e-01	-11.8184	-95.495709	0.000263	2.625578	0.889570	0.020972
1707	8.5300e-01	-11.7815	-95.370683	0.000313	3.130496	1.060641	0.025005
1708	8.5350e-01	-11.7350	-95.136763	0.000586	5.857058	1.984425	0.046784
1709	8.5400e-01	-11.7029	-94.826214	0.000778	7.775749	2.634495	0.062110
1710	8.5450e-01	-11.6548	-94.664890	0.000404	4.039350	1.368569	0.032265
1711	8.5500e-01	-11.6227	-94.443070	0.000555	5.554106	1.881782	0.044364
1712	8.5550e-01	-11.5842	-94.225283	0.000545	5.453123	1.847568	0.043557
1713	8.5600e-01	-11.5376	-93.789708	0.001091	10.906245	3.695136	0.087115
1714	8.5650e-01	-11.5056	-93.539656	0.000626	6.260993	2.121282	0.050010
1715	8.5700e-01	-11.4622	-93.338001	0.000505	5.049188	1.710711	0.040331
1716	8.5750e-01	-11.4286	-93.140379	0.000495	4.948204	1.676497	0.039524
1717	8.5800e-01	-11.3836	-93.100048	0.000101	1.009838	0.342142	0.008066
1718	8.5850e-01	-11.3403	-92.837897	0.000656	6.563944	2.223924	0.052430
1719	8.5900e-01	-11.2970	-92.587845	0.000626	6.260993	2.121282	0.050010
1720	8.5950e-01	-11.2649	-92.269230	0.000798	7.977717	2.702924	0.063723
1721	8.6000e-01	-11.2216	-92.164369	0.000263	2.625578	0.889570	0.020972
1722	8.6050e-01	-11.1799	-91.656199	0.001272	12.723953	4.310992	0.101634
1723	8.6100e-01	-11.1462	-91.559404	0.000242	2.423610	0.821141	0.019359
1724	8.6150e-01	-11.1013	-91.236757	0.000808	8.078700	2.737138	0.064530
1725	8.6200e-01	-11.0676	-91.135929	0.000252	2.524594	0.855356	0.020165
1726	8.6250e-01	-11.0195	-90.906042	0.000576	5.756074	1.950211	0.045977
1727	8.6300e-01	-10.9938	-90.502733	0.001010	10.098375	3.421422	0.080662
1728	8.6350e-01	-10.9328	-90.288978	0.000535	5.352139	1.813354	0.042751
1729	8.6400e-01	-10.9024	-90.268813	0.000050	0.504919	0.171071	0.004033
1730	8.6450e-01	-10.8655	-90.022794	0.000616	6.160009	2.087068	0.049204
1731	8.6500e-01	-10.8238	-89.635616	0.000969	9.694440	3.284565	0.077435
1732	8.6550e-01	-10.7804	-89.482359	0.000384	3.837383	1.300140	0.030652
1733	8.6600e-01	-10.7468	-89.179876	0.000757	7.573782	2.566067	0.060496
1734	8.6650e-01	-10.6970	-89.066950	0.000283	2.827545	0.957998	0.022585
1735	8.6700e-01	-10.6730	-88.683805	0.000959	9.593457	3.250351	0.076629
1736	8.6750e-01	-10.6200	-88.296628	0.000969	9.694440	3.284565	0.077435
1737	8.6800e-01	-10.5831	-88.099006	0.000495	4.948204	1.676497	0.039524
1738	8.6850e-01	-10.5430	-87.913483	0.000465	4.645253	1.573854	0.037105
1739	8.6900e-01	-10.4965	-87.824755	0.000222	2.221643	0.752713	0.017746
1740	8.6950e-01	-10.4564	-87.562604	0.000656	6.563944	2.223924	0.052430
1741	8.7000e-01	-10.4163	-87.167360	0.000990	9.896408	3.352994	0.079049
1742	8.7050e-01	-10.3794	-86.977804	0.000475	4.746236	1.608068	0.037911
1743	8.7100e-01	-10.3409	-86.711620	0.000666	6.664928	2.258139	0.053237
1744	8.7150e-01	-10.3088	-86.715653	-0.000010	-0.100984	-0.034214	-0.000807
1745	8.7200e-01	-10.2607	-86.348641	0.000919	9.189522	3.113494	0.073402
1746	8.7250e-01	-10.2254	-86.151019	0.000495	4.948204	1.676497	0.039524
1747	8.7300e-01	-10.1837	-86.009861	0.000353	3.534431	1.197498	0.028232
1748	8.7350e-01	-10.1388	-85.836438	0.000434	4.342301	1.471212	0.034685
1749	8.7400e-01	-10.1019	-85.304069	0.001333	13.329856	4.516277	0.106474
1750	8.7450e-01	-10.0601	-85.219373	0.000212	2.120659	0.718499	0.016939
1751	8.7500e-01	-10.0200	-84.985454	0.000586	5.857058	1.984425	0.046784
1752	8.7550e-01	-9.9783	-84.626508	0.000899	8.987554	3.045066	0.071789
1753	8.7600e-01	-9.9430	-84.501482	0.000313	3.130496	1.060641	0.025005
1754	8.7650e-01	-9.8933	-84.186900	0.000788	7.876733	2.668709	0.062916
1755	8.7700e-01	-9.8612	-83.920716	0.000666	6.664928	2.258139	0.053237
1756	8.7750e-01	-9.8243	-83.763425	0.000394	3.938366	1.334355	0.031458
1757	8.7800e-01	-9.7810	-83.469009	0.000737	7.371814	2.497638	0.058883
1758	8.7850e-01	-9.7393	-83.154427	0.000788	7.876733	2.668709	0.062916
1759	8.7900e-01	-9.6992	-83.005202	0.000374	3.736399	1.265926	0.029845
1760	8.7950e-01	-9.6559	-82.936640	0.000172	1.716724	0.581642	0.013713
1761	8.8000e-01	-9.6126	-82.509131	0.001070	10.704278	3.626708	0.085502
1762	8.8050e-01	-9.5789	-82.323609	0.000465	4.645253	1.573854	0.037105
1763	8.8100e-01	-9.5452	-82.194550	0.000323	3.231480	1.094855	0.025812
1764	8.8150e-01	-9.5003	-81.674280	0.001303	13.026904	4.413635	0.104054
1765	8.8200e-01	-9.4634	-81.484724	0.000475	4.746236	1.608068	0.037911
1766	8.8250e-01	-9.4217	-81.456492	0.000071	0.706886	0.239500	0.005646
1767	8.8300e-01	-9.3799	-80.912024	0.001363	13.632807	4.618920	0.108894
1768	8.8350e-01	-9.3463	-80.706336	0.000515	5.150171	1.744925	0.041138
1769	8.8400e-01	-9.2981	-80.674071	0.000081	0.807870	0.273714	0.006453
1770	8.8450e-01	-9.2612	-80.419986	0.000636	6.361976	2.155496	0.050817
1771	8.8500e-01	-9.2259	-80.121537	0.000747	7.472798	2.531852	0.059690
1772	8.8550e-01	-9.1842	-79.798889	0.000808	8.078700	2.737138	0.064530
1773	8.8600e-01	-9.1409	-79.694028	0.000263	2.625578	0.889570	0.020972
1774	8.8650e-01	-9.1072	-79.314917	0.000949	9.492473	3.216137	0.075822
1775	8.8700e-01	-9.0639	-79.012435	0.000757	7.573782	2.566067	0.060496
1776	8.8750e-01	-9.0190	-78.657522	0.000889	8.886570	3.010852	0.070983
1777	8.8800e-01	-8.9805	-78.451834	0.000515	5.150171	1.744925	0.041138
1778	8.8850e-01	-8.9436	-78.242113	0.000525	5.251155	1.779140	0.041944
1779	8.8900e-01	-8.8955	-78.040458	0.000505	5.049188	1.710711	0.040331
1780	8.8950e-01	-8.8554	-77.754108	0.000717	7.169847	2.429210	0.057270
1781	8.9000e-01	-8.8185	-77.487923	0.000666	6.664928	2.258139	0.053237
1782	8.9050e-01	-8.7719	-77.350798	0.000343	3.433448	1.163284	0.027425
1783	8.9100e-01	-8.7367	-77.157209	0.000485	4.847220	1.642283	0.038718
1784	8.9150e-01	-8.7030	-76.850694	0.000767	7.674765	2.600281	0.061303
1785	8.9200e-01	-8.6580	-76.544178	0.000767	7.674765	2.600281	0.061303
1786	8.9250e-01	-8.6195	-76.366722	0.000444	4.443285	1.505426	0.035491
1787	8.9300e-01	-8.5794	-76.007776	0.000899	8.987554	3.045066	0.071789
1788	8.9350e-01	-8.5425	-75.826287	0.000454	4.544269	1.539640	0.036298
1789	8.9400e-01	-8.4992	-75.668996	0.000394	3.938366	1.334355	0.031458
1790	8.9450e-01	-8.4703	-75.261653	0.001020	10.199359	3.455636	0.081469
1791	8.9500e-01	-8.4270	-75.003535	0.000646	6.462960	2.189710	0.051624
1792	8.9550e-01	-8.3853	-74.664754	0.000848	8.482635	2.873995	0.067756
1793	8.9600e-01	-8.3420	-74.434868	0.000576	5.756074	1.950211	0.045977
1794	8.9650e-01	-8.3083	-74.241279	0.000485	4.847220	1.642283	0.038718
1795	8.9700e-01	-8.2570	-73.878300	0.000909	9.088538	3.079280	0.072596
1796	8.9750e-01	-8.2185	-73.753274	0.000313	3.130496	1.060641	0.025005
1797	8.9800e-01	-8.1864	-73.479023	0.000687	6.866895	2.326567	0.054850
1798	8.9850e-01	-8.1415	-73.483057	-0.000010	-0.100984	-0.034214	-0.000807
1799	8.9900e-01	-8.0982	-73.216872	0.000666	6.664928	2.258139	0.053237
1800	8.9950e-01	-8.0549	-72.696602	0.001303	13.026904	4.413635	0.104054
1801	9.0000e-01	-8.0196	-72.595775	0.000252	2.524594	0.855356	0.020165
1802	9.0050e-01	-7.9795	-72.349756	0.000616	6.160009	2.087068	0.049204
1803	9.0100e-01	-7.9393	-71.990810	0.000899	8.987554	3.045066	0.071789
1804	9.0150e-01	-7.8976	-71.599599	0.000980	9.795424	3.318780	0.078242
1805	9.0200e-01	-7.8623	-71.414077	0.000465	4.645253	1.573854	0.037105
1806	9.0250e-01	-7.8206	-71.212422	0.000505	5.049188	1.710711	0.040331
1807	9.0300e-01	-7.7837	-70.946238	0.000666	6.664928	2.258139	0.053237
1808	9.0350e-01	-7.7420	-70.845410	0.000252	2.524594	0.855356	0.020165
1809	9.0400e-01	-7.6971	-70.542928	0.000757	7.573782	2.566067	0.060496
1810	9.0450e-01	-7.6634	-70.300942	0.000606	6.059025	2.052853	0.048397
1811	9.0500e-01	-7.6281	-69.897632	0.001010	10.098375	3.421422	0.080662
1812	9.0550e-01	-7.5832	-69.647580	0.000626	6.260993	2.121282	0.050010
1813	9.0600e-01	-7.5415	-69.377362	0.000677	6.765912	2.292353	0.054044
1814	9.0650e-01	-7.5014	-69.062780	0.000788	7.876733	2.668709	0.062916
1815	9.0700e-01	-7.4645	-68.873225	0.000475	4.746236	1.608068	0.037911
1816	9.0750e-01	-7.4196	-68.566709	0.000767	7.674765	2.600281	0.061303
1817	9.0800e-01	-7.3698	-68.344889	0.000555	5.554106	1.881782	0.044364
1818	9.0850e-01	-7.3410	-68.046440	0.000747	7.472798	2.531852	0.059690
1819	9.0900e-01	-7.3041	-67.643130	0.001010	10.098375	3.421422	0.080662
1820	9.0950e-01	-7.2608	-67.469707	0.000434	4.342301	1.471212	0.034685
1821	9.1000e-01	-7.2174	-67.522137	-0.000131	-1.312789	-0.444785	-0.010486
1822	9.1050e-01	-7.1805	-67.046231	0.001192	11.916083	4.037278	0.095181
1823	9.1100e-01	-7.1308	-66.913139	0.000333	3.332464	1.129069	0.026618
1824	9.1150e-01	-7.0987	-66.582425	0.000828	8.280668	2.805566	0.066143
1825	9.1200e-01	-7.0538	-66.251711	0.000828	8.280668	2.805566	0.066143
1826	9.1250e-01	-7.0201	-66.094420	0.000394	3.938366	1.334355	0.031458
1827	9.1300e-01	-6.9800	-65.723375	0.000929	9.290505	3.147708	0.074209
1828	9.1350e-01	-6.9351	-65.537852	0.000465	4.645253	1.573854	0.037105
1829	9.1400e-01	-6.8998	-65.328131	0.000525	5.251155	1.779140	0.041944
1830	9.1450e-01	-6.8613	-64.981285	0.000868	8.684603	2.942423	0.069369
1831	9.1500e-01	-6.8212	-64.630405	0.000879	8.785587	2.976637	0.070176
1832	9.1550e-01	-6.7763	-64.456982	0.000434	4.342301	1.471212	0.034685
1833	9.1600e-01	-6.7362	-64.287592	0.000424	4.241318	1.436997	0.033878
1834	9.1650e-01	-6.7057	-63.690693	0.001495	14.945596	5.063705	0.119380
1835	9.1700e-01	-6.6672	-63.618097	0.000182	1.817708	0.615856	0.014519
1836	9.1750e-01	-6.6271	-63.497104	0.000303	3.029513	1.026427	0.024199
1837	9.1800e-01	-6.5918	-63.174457	0.000808	8.078700	2.737138	0.064530
1838	9.1850e-01	-6.5356	-62.863908	0.000778	7.775749	2.634495	0.062110
1839	9.1900e-01	-6.4907	-62.678385	0.000465	4.645253	1.573854	0.037105
1840	9.1950e-01	-6.4667	-62.057288	0.001555	15.551498	5.268990	0.124219
1841	9.2000e-01	-6.4282	-61.827402	0.000576	5.756074	1.950211	0.045977
1842	9.2050e-01	-6.3784	-61.766905	0.000151	1.514756	0.513213	0.012099
1843	9.2100e-01	-6.3415	-61.621714	0.000364	3.635415	1.231712	0.029038
1844	9.2150e-01	-6.3030	-61.190172	0.001081	10.805262	3.660922	0.086308
1845	9.2200e-01	-6.2613	-60.911888	0.000697	6.967879	2.360781	0.055657
1846	9.2250e-01	-6.2132	-60.710233	0.000505	5.049188	1.710711	0.040331
1847	9.2300e-01	-6.1795	-60.355321	0.000889	8.886570	3.010852	0.070983
1848	9.2350e-01	-6.1394	-60.185930	0.000424	4.241318	1.436997	0.033878
1849	9.2400e-01	-6.1041	-59.980242	0.000515	5.150171	1.744925	0.041138
1850	9.2450e-01	-6.0560	-59.641462	0.000848	8.482635	2.873995	0.067756
1851	9.2500e-01	-6.0255	-59.399476	0.000606	6.059025	2.052853	0.048397
1852	9.2550e-01	-5.9822	-59.129259	0.000677	6.765912	2.292353	0.054044
1853	9.2600e-01	-5.9308	-58.746114	0.000959	9.593457	3.250351	0.076629
1854	9.2650e-01	-5.8956	-58.516228	0.000576	5.756074	1.950211	0.045977
1855	9.2700e-01	-5.8603	-58.306506	0.000525	5.251155	1.779140	0.041944
1856	9.2750e-01	-5.8250	-57.991925	0.000788	7.876733	2.668709	0.062916
1857	9.2800e-01	-5.7913	-57.705575	0.000717	7.169847	2.429210	0.057270
1858	9.2850e-01	-5.7415	-57.511986	0.000485	4.847220	1.642283	0.038718
1859	9.2900e-01	-5.6982	-57.374861	0.000343	3.433448	1.163284	0.027425
1860	9.2950e-01	-5.6581	-57.052213	0.000808	8.078700	2.737138	0.064530
1861	9.3000e-01	-5.6228	-56.846525	0.000515	5.150171	1.744925	0.041138
1862	9.3050e-01	-5.5795	-56.491612	0.000889	8.886570	3.010852	0.070983
1863	9.3100e-01	-5.5442	-56.152832	0.000848	8.482635	2.873995	0.067756
1864	9.3150e-01	-5.4977	-55.789853	0.000909	9.088538	3.079280	0.072596
1865	9.3200e-01	-5.4608	-55.584165	0.000515	5.150171	1.744925	0.041138
1866	9.3250e-01	-5.4319	-55.176822	0.001020	10.199359	3.455636	0.081469
1867	9.3300e-01	-5.3870	-54.950968	0.000566	5.655090	1.915996	0.045171
1868	9.3350e-01	-5.3437	-54.773512	0.000444	4.443285	1.505426	0.035491
1869	9.3400e-01	-5.3036	-54.410533	0.000909	9.088538	3.079280	0.072596
1870	9.3450e-01	-5.2571	-54.438765	-0.000071	-0.706886	-0.239500	-0.005646
1871	9.3500e-01	-5.2202	-54.083852	0.000889	8.886570	3.010852	0.070983
1872	9.3550e-01	-5.1785	-53.696675	0.000969	9.694440	3.284565	0.077435
1873	9.3600e-01	-5.1351	-53.390159	0.000767	7.674765	2.600281	0.061303
1874	9.3650e-01	-5.0934	-52.793261	0.001495	14.945596	5.063705	0.119380
1875	9.3700e-01	-5.0598	-52.696466	0.000242	2.423610	0.821141	0.019359
1876	9.3750e-01	-5.0164	-52.353653	0.000858	8.583619	2.908209	0.068563
1877	9.3800e-01	-4.9892	-51.970509	0.000959	9.593457	3.250351	0.076629
1878	9.3850e-01	-4.9458	-52.014873	-0.000111	-1.110821	-0.376356	-0.008873
1879	9.3900e-01	-4.9041	-51.825317	0.000475	4.746236	1.608068	0.037911
1880	9.3950e-01	-4.8656	-51.220352	0.001515	15.147563	5.132133	0.120993
1881	9.4000e-01	-4.8255	-51.184054	0.000091	0.908854	0.307928	0.007260
1882	9.4050e-01	-4.7854	-50.829142	0.000889	8.886570	3.010852	0.070983
1883	9.4100e-01	-4.7485	-50.502461	0.000818	8.179684	2.771352	0.065336
1884	9.4150e-01	-4.6972	-50.312905	0.000475	4.746236	1.608068	0.037911
1885	9.4200e-01	-4.6635	-50.103184	0.000525	5.251155	1.779140	0.041944
1886	9.4250e-01	-4.6218	-49.865231	0.000596	5.958041	2.018639	0.047591
1887	9.4300e-01	-4.5753	-49.691808	0.000434	4.342301	1.471212	0.034685
1888	9.4350e-01	-4.5400	-49.199770	0.001232	12.320018	4.174135	0.098408
1889	9.4400e-01	-4.5111	-48.723864	0.001192	11.916083	4.037278	0.095181
1890	9.4450e-01	-4.4662	-48.711765	0.000030	0.302951	0.102643	0.002420
1891	9.4500e-01	-4.4309	-48.288290	0.001060	10.603294	3.592493	0.084695
1892	9.4550e-01	-4.3812	-48.066469	0.000555	5.554106	1.881782	0.044364
1893	9.4600e-01	-4.3346	-47.953542	0.000283	2.827545	0.957998	0.022585
1894	9.4650e-01	-4.3042	-47.473604	0.001202	12.017067	4.071492	0.095988
1895	9.4700e-01	-4.2624	-47.130790	0.000858	8.583619	2.908209	0.068563
1896	9.4750e-01	-4.2063	-47.029963	0.000252	2.524594	0.855356	0.020165
1897	9.4800e-01	-4.1854	-46.671017	0.000899	8.987554	3.045066	0.071789
1898	9.4850e-01	-4.1534	-46.223343	0.001121	11.209197	3.797779	0.089535
1899	9.4900e-01	-4.1004	-46.041854	0.000454	4.544269	1.539640	0.036298
1900	9.4950e-01	-4.0667	-45.836166	0.000515	5.150171	1.744925	0.041138
1901	9.5000e-01	-4.0138	-45.594180	0.000606	6.059025	2.052853	0.048397
1902	9.5050e-01	-3.9769	-45.049711	0.001363	13.632807	4.618920	0.108894
1903	9.5100e-01	-3.9512	-44.630269	0.001050	10.502310	3.558279	0.083888
1904	9.5150e-01	-3.8951	-44.432647	0.000495	4.948204	1.676497	0.039524
1905	9.5200e-01	-3.8646	-44.142264	0.000727	7.270830	2.463424	0.058077
1906	9.5250e-01	-3.8261	-43.936576	0.000515	5.150171	1.744925	0.041138
1907	9.5300e-01	-3.7844	-43.541333	0.000990	9.896408	3.352994	0.079049
1908	9.5350e-01	-3.7363	-43.444538	0.000242	2.423610	0.821141	0.019359
1909	9.5400e-01	-3.7042	-43.105758	0.000848	8.482635	2.873995	0.067756
1910	9.5450e-01	-3.6609	-42.875871	0.000576	5.756074	1.950211	0.045977
1911	9.5500e-01	-3.6224	-42.629852	0.000616	6.160009	2.087068	0.049204
1912	9.5550e-01	-3.5823	-42.428197	0.000505	5.049188	1.710711	0.040331
1913	9.5600e-01	-3.5373	-42.073285	0.000889	8.886570	3.010852	0.070983
1914	9.5650e-01	-3.5052	-41.653842	0.001050	10.502310	3.558279	0.083888
1915	9.5700e-01	-3.4539	-41.246499	0.001020	10.199359	3.455636	0.081469
1916	9.5750e-01	-3.4250	-40.919818	0.000818	8.179684	2.771352	0.065336
1917	9.5800e-01	-3.3849	-40.835123	0.000212	2.120659	0.718499	0.016939
1918	9.5850e-01	-3.3336	-40.415681	0.001050	10.502310	3.558279	0.083888
1919	9.5900e-01	-3.3095	-40.205960	0.000525	5.251155	1.779140	0.041944
1920	9.5950e-01	-3.2614	-40.121265	0.000212	2.120659	0.718499	0.016939
1921	9.6000e-01	-3.2197	-39.645359	0.001192	11.916083	4.037278	0.095181
1922	9.6050e-01	-3.1796	-39.435638	0.000525	5.251155	1.779140	0.041944
1923	9.6100e-01	-3.1411	-39.153321	0.000707	7.068863	2.394996	0.056463
1924	9.6150e-01	-3.1010	-39.036361	0.000293	2.928529	0.992212	0.023392
1925	9.6200e-01	-3.0561	-38.705647	0.000828	8.280668	2.805566	0.066143
1926	9.6250e-01	-3.0144	-38.528191	0.000444	4.443285	1.505426	0.035491
1927	9.6300e-01	-2.9775	-38.209576	0.000798	7.977717	2.702924	0.063723
1928	9.6350e-01	-2.9309	-37.705439	0.001262	12.622969	4.276778	0.100827
1929	9.6400e-01	-2.9037	-37.342460	0.000909	9.088538	3.079280	0.072596
1930	9.6450e-01	-2.8636	-37.080309	0.000656	6.563944	2.223924	0.052430
1931	9.6500e-01	-2.8218	-36.745561	0.000838	8.381652	2.839780	0.066949
1932	9.6550e-01	-2.7817	-36.495509	0.000626	6.260993	2.121282	0.050010
1933	9.6600e-01	-2.7481	-36.160762	0.000838	8.381652	2.839780	0.066949
1934	9.6650e-01	-2.7015	-35.765518	0.000990	9.896408	3.352994	0.079049
1935	9.6700e-01	-2.6582	-35.446904	0.000798	7.977717	2.702924	0.063723
1936	9.6750e-01	-2.6245	-35.160554	0.000717	7.169847	2.429210	0.057270
1937	9.6800e-01	-2.5876	-34.906468	0.000636	6.361976	2.155496	0.050817
1938	9.6850e-01	-2.5427	-34.801608	0.000263	2.625578	0.889570	0.020972
1939	9.6900e-01	-2.5010	-34.676582	0.000313	3.130496	1.060641	0.025005
1940	9.6950e-01	-2.4577	-34.035319	0.001606	16.056417	5.440061	0.128253
1941	9.7000e-01	-2.4224	-33.720737	0.000788	7.876733	2.668709	0.062916
1942	9.7050e-01	-2.3839	-33.394056	0.000818	8.179684	2.771352	0.065336
1943	9.7100e-01	-2.3438	-33.289196	0.000263	2.625578	0.889570	0.020972
1944	9.7150e-01	-2.3069	-32.785059	0.001262	12.622969	4.276778	0.100827
1945	9.7200e-01	-2.2523	-32.579371	0.000515	5.150171	1.744925	0.041138
1946	9.7250e-01	-2.2203	-32.208325	0.000929	9.290505	3.147708	0.074209
1947	9.7300e-01	-2.1882	-32.010704	0.000495	4.948204	1.676497	0.039524
1948	9.7350e-01	-2.1400	-31.684023	0.000818	8.179684	2.771352	0.065336
1949	9.7400e-01	-2.0983	-31.655791	0.000071	0.706886	0.239500	0.005646
1950	9.7450e-01	-2.0582	-31.260547	0.000990	9.896408	3.352994	0.079049
1951	9.7500e-01	-2.0149	-30.820940	0.001101	11.007229	3.729350	0.087922
1952	9.7550e-01	-1.9828	-30.699947	0.000303	3.029513	1.026427	0.024199
1953	9.7600e-01	-1.9411	-30.224041	0.001192	11.916083	4.037278	0.095181
1954	9.7650e-01	-1.8994	-30.111114	0.000283	2.827545	0.957998	0.022585
1955	9.7700e-01	-1.8593	-29.522282	0.001474	14.743628	4.995276	0.117766
1956	9.7750e-01	-1.8192	-29.441620	0.000202	2.019675	0.684284	0.016132
1957	9.7800e-01	-1.7871	-28.913284	0.001323	13.228872	4.482063	0.105667
1958	9.7850e-01	-1.7358	-28.594669	0.000798	7.977717	2.702924	0.063723
1959	9.7900e-01	-1.7005	-28.465610	0.000323	3.231480	1.094855	0.025812
1960	9.7950e-01	-1.6636	-28.001804	0.001161	11.613132	3.934636	0.092761
1961	9.8000e-01	-1.6235	-27.784016	0.000545	5.453123	1.847568	0.043557
1962	9.8050e-01	-1.5866	-27.542030	0.000606	6.059025	2.052853	0.048397
1963	9.8100e-01	-1.5465	-27.199217	0.000858	8.583619	2.908209	0.068563
1964	9.8150e-01	-1.5000	-26.848337	0.000879	8.785587	2.976637	0.070176
1965	9.8200e-01	-1.4647	-26.497458	0.000879	8.785587	2.976637	0.070176
1966	9.8250e-01	-1.4230	-26.320001	0.000444	4.443285	1.505426	0.035491
1967	9.8300e-01	-1.3812	-26.118347	0.000505	5.049188	1.710711	0.040331
1968	9.8350e-01	-1.3363	-25.823930	0.000737	7.371814	2.497638	0.058883
1969	9.8400e-01	-1.2946	-25.521448	0.000757	7.573782	2.566067	0.060496
1970	9.8450e-01	-1.2625	-24.985046	0.001343	13.430839	4.550492	0.107280
1971	9.8500e-01	-1.2272	-24.815656	0.000424	4.241318	1.436997	0.033878
1972	9.8550e-01	-1.1743	-24.618034	0.000495	4.948204	1.676497	0.039524
1973	9.8600e-01	-1.1422	-24.295386	0.000808	8.078700	2.737138	0.064530
1974	9.8650e-01	-1.0989	-23.920308	0.000939	9.391489	3.181923	0.075016
1975	9.8700e-01	-1.0604	-23.621859	0.000747	7.472798	2.531852	0.059690
1976	9.8750e-01	-1.0203	-23.210482	0.001030	10.300343	3.489851	0.082275
1977	9.8800e-01	-0.9898	-23.149986	0.000151	1.514756	0.513213	0.012099
1978	9.8850e-01	-0.9401	-22.895901	0.000636	6.361976	2.155496	0.050817
1979	9.8900e-01	-0.8984	-22.440161	0.001141	11.411164	3.866207	0.091148
1980	9.8950e-01	-0.8615	-22.117513	0.000808	8.078700	2.737138	0.064530
1981	9.9000e-01	-0.8246	-21.871494	0.000616	6.160009	2.087068	0.049204
1982	9.9050e-01	-0.7861	-21.359290	0.001282	12.824937	4.345206	0.102441
1983	9.9100e-01	-0.7444	-20.964047	0.000990	9.896408	3.352994	0.079049
1984	9.9150e-01	-0.7043	-20.895484	0.000172	1.716724	0.581642	0.013713
1985	9.9200e-01	-0.6642	-20.560737	0.000838	8.381652	2.839780	0.066949
1986	9.9250e-01	-0.6224	-20.113063	0.001121	11.209197	3.797779	0.089535
1987	9.9300e-01	-0.5888	-19.927540	0.000465	4.645253	1.573854	0.037105
1988	9.9350e-01	-0.5438	-19.911408	0.000040	0.403935	0.136857	0.003226
1989	9.9400e-01	-0.5037	-19.403237	0.001272	12.723953	4.310992	0.101634
1990	9.9450e-01	-0.4572	-19.161251	0.000606	6.059025	2.052853	0.048397
1991	9.9500e-01	-0.4187	-18.749875	0.001030	10.300343	3.489851	0.082275
1992	9.9550e-01	-0.3770	-18.269937	0.001202	12.017067	4.071492	0.095988
1993	9.9600e-01	-0.3417	-18.265904	0.000010	0.100984	0.034214	0.000807
1994	9.9650e-01	-0.3000	-17.919057	0.000868	8.684603	2.942423	0.069369
1995	9.9700e-01	-0.2567	-17.556078	0.000909	9.088538	3.079280	0.072596
1996	9.9750e-01	-0.2166	-17.358456	0.000495	4.948204	1.676497	0.039524
1997	9.9800e-01	-0.1765	-17.140669	0.000545	5.453123	1.847568	0.043557
1998	9.9850e-01	-0.1476	-16.749458	0.000980	9.795424	3.318780	0.078242
1999	9.9900e-01	-0.1043	-16.297751	0.001131	11.310180	3.831993	0.090341
2000	9.9950e-01	-0.0513	-16.100130	0.000495	4.948204	1.676497	0.039524
2001	1.0000e+00	-0.0225	-15.652456	0.000495	4.948204	1.676497	0.089535

PMax (uC/cm2):	1.48e+02
Pr (uC/cm2):	7.41e+00
-Pr (uC/cm2):	-3.53e+00
PLoss (uC/cm2):	-3.48e+00
-Vc:	-9.81e-01
C (Max-Eff) (nF):	7.41e-01
K (Eff):	2.51e+03
Vert. (+/-Pr) Shift (uC/cm2):	1.94e+00
Offset (uC/cm2):	1.21e+01

A (Loop Area - uC/cm2·Volts):	-1.18e-01



Hysteresis Version: 5.48.1 - Radiant Technologies, Inc., 1999 - 9/12/24

