»»»»»»»»»»»»»»»»»»»»»»»»»»»»»»»»»»»» Hysteresis ««««««««««««««««««««««««««««««««««««
»»»  Executed Version:	5.48.1
»»»  Vision Version:	5.48.4 (R)
»»»  Vision Compiled:	9/18/24
»»»  Driver Version:	5.47.0
»»»  Windows Version:	Windows 8 or 8.1
»»»  Processor Information:	x86 (AMD or Intel) - 32 Processors
»»»  Tester Name:	PMF21124-494 (100V)
»»»  Tester S/N:	PMF21124-494
»»»  Internal Amp Type:	100V RevK 270k
»»»  Internal Amp S/N:	iAB2-596/K     
»»»  Execution Count:	1
»»»»»»»»»»»»»»»»»»»»»»»»»»»»»»»»»»»»»»»»»»««««««««««««««««««««««««««««««««««««««««««

Stored:	6/18/2025 - 15:30:30
Configured:	06/18/25 09:47:30 AM
Executed:	06/18/25 03:29:54 PM

»»»»»»»»»»»»»»»»»»»»»»»»»»»»»»»»»»» Sample Info ««««««««««««««««««««««««««««««««««««
Sample Name:	
Lot Name:	
Wafer Name:	
Die Row/Column:	0/0
Capacitor Number:	0
Sample Area (cm2):	1.00e-04
Sample Thickness (microns):	3.00e-01

Amplifier:	Internal

»»»»»»»»»»»»»»»»»»»»»»»»»»»»»»»»»»» Tester Info «««««««««««««««««««««««««««««««««««
Tester Name:	PMF21124-494 (100V)
Tester Serial Number:	PMF21124-494
Return Signal Amp. Level:	0.19 [Index: 3]

»»»»»»»»»»»»»»»»»»»»»»»»»»»»»»»» Hysteresis Info ««««««««««««««««««««««««««««««««««
Task Name:	Hyst-554
Volts:	20.00
Field:	666.67 (kV/cm)
DCBias:	0.00
DCField:	0.00 (kV/cm)
Hysteresis Period (ms):	2.00e+02
Preset:	Enabled
Preset Delay (ms):	1.00e+03
Profile:	Standard Bipolar

»»»»»»»»»»»»»»»»»»»»»»»»»»»»»»»»»»»»»» Data «««««««««««««««««««««««««««««««««««««««
Points:	2009

Valid Data

Point	Time (ms)	Drive Voltage	Measured Polarization (uC/cm2)	Capacitance (uF)	Normalized Capacitance (uF/cm2)	Dielectric Constant	Instantaneous Current (mA)
   1	0.0000e+00	0.0016	-22.363713	0.000375	3.749444	1.270346	0.000150
   2	9.9500e-02	0.0273	-22.214339	0.000375	3.749444	1.270346	0.000150
   3	1.9900e-01	0.0706	-22.008445	0.000517	5.168152	1.751017	0.000207
   4	2.9850e-01	0.1219	-21.838886	0.000426	4.256126	1.442014	0.000170
   5	3.9800e-01	0.1492	-21.653178	0.000466	4.661471	1.579349	0.000187
   6	4.9750e-01	0.1941	-21.447284	0.000517	5.168152	1.751017	0.000207
   7	5.9700e-01	0.2358	-21.237353	0.000527	5.269489	1.785351	0.000211
   8	6.9650e-01	0.2759	-21.059719	0.000446	4.458798	1.510682	0.000179
   9	7.9600e-01	0.3144	-20.817490	0.000608	6.080179	2.060021	0.000243
  10	8.9550e-01	0.3593	-20.656005	0.000405	4.053453	1.373347	0.000162
  11	9.9500e-01	0.3962	-20.438000	0.000547	5.472161	1.854018	0.000219
  12	1.0945e+00	0.4315	-20.264403	0.000436	4.357462	1.476348	0.000174
  13	1.1940e+00	0.4700	-20.050435	0.000537	5.370825	1.819685	0.000215
  14	1.2935e+00	0.5150	-19.872801	0.000446	4.458798	1.510682	0.000179
  15	1.3930e+00	0.5679	-19.679018	0.000486	4.864143	1.648016	0.000195
  16	1.4925e+00	0.5888	-19.505421	0.000436	4.357462	1.476348	0.000174
  17	1.5920e+00	0.6337	-19.319713	0.000466	4.661471	1.579349	0.000187
  18	1.6915e+00	0.6802	-19.105745	0.000537	5.370825	1.819685	0.000215
  19	1.7910e+00	0.7139	-18.940222	0.000415	4.154789	1.407681	0.000166
  20	1.8905e+00	0.7508	-18.770663	0.000426	4.256126	1.442014	0.000170
  21	1.9900e+00	0.7957	-18.580917	0.000476	4.762807	1.613683	0.000191
  22	2.0895e+00	0.8326	-18.403283	0.000446	4.458798	1.510682	0.000179
  23	2.1890e+00	0.8775	-18.173167	0.000578	5.776170	1.957020	0.000231
  24	2.2885e+00	0.9160	-17.967273	0.000517	5.168152	1.751017	0.000207
  25	2.3880e+00	0.9529	-17.797713	0.000426	4.256126	1.442014	0.000170
  26	2.4875e+00	0.9930	-17.539336	0.000649	6.485525	2.197355	0.000260
  27	2.5870e+00	1.0331	-17.398036	0.000355	3.546771	1.201679	0.000142
  28	2.6865e+00	1.0684	-17.204254	0.000486	4.864143	1.648016	0.000195
  29	2.7860e+00	1.1037	-16.990286	0.000537	5.370825	1.819685	0.000215
  30	2.8855e+00	1.1470	-16.808615	0.000456	4.560135	1.545015	0.000183
  31	2.9850e+00	1.1952	-16.570424	0.000598	5.978843	2.025687	0.000239
  32	3.0845e+00	1.2208	-16.388753	0.000456	4.560135	1.545015	0.000183
  33	3.1840e+00	1.2689	-16.194970	0.000486	4.864143	1.648016	0.000195
  34	3.2835e+00	1.3123	-15.993113	0.000507	5.066816	1.716684	0.000203
  35	3.3830e+00	1.3588	-15.819516	0.000436	4.357462	1.476348	0.000174
  36	3.4825e+00	1.3893	-15.601511	0.000547	5.472161	1.854018	0.000219
  37	3.5820e+00	1.4310	-15.423877	0.000446	4.458798	1.510682	0.000179
  38	3.6815e+00	1.4855	-15.246243	0.000446	4.458798	1.510682	0.000179
  39	3.7810e+00	1.5144	-15.072646	0.000436	4.357462	1.476348	0.000174
  40	3.8805e+00	1.5529	-14.842530	0.000578	5.776170	1.957020	0.000231
  41	3.9800e+00	1.5946	-14.677007	0.000415	4.154789	1.407681	0.000166
  42	4.0795e+00	1.6315	-14.491299	0.000466	4.661471	1.579349	0.000187
  43	4.1790e+00	1.6700	-14.277331	0.000537	5.370825	1.819685	0.000215
  44	4.2785e+00	1.7133	-14.079511	0.000497	4.965480	1.682350	0.000199
  45	4.3780e+00	1.7550	-13.853431	0.000567	5.674834	1.922686	0.000227
  46	4.4775e+00	1.7855	-13.663686	0.000476	4.762807	1.613683	0.000191
  47	4.5770e+00	1.8336	-13.429532	0.000588	5.877507	1.991353	0.000235
  48	4.6765e+00	1.8753	-13.272084	0.000395	3.952117	1.339013	0.000158
  49	4.7760e+00	1.9058	-13.046004	0.000567	5.674834	1.922686	0.000227
  50	4.8755e+00	1.9556	-12.864333	0.000456	4.560135	1.545015	0.000183
  51	4.9750e+00	1.9892	-12.634216	0.000578	5.776170	1.957020	0.000231
  52	5.0745e+00	2.0310	-12.416211	0.000547	5.472161	1.854018	0.000219
  53	5.1740e+00	2.0759	-12.254726	0.000405	4.053453	1.373347	0.000162
  54	5.2735e+00	2.1031	-12.056906	0.000497	4.965480	1.682350	0.000199
  55	5.3730e+00	2.1513	-11.842938	0.000537	5.370825	1.819685	0.000215
  56	5.4725e+00	2.1946	-11.641081	0.000507	5.066816	1.716684	0.000203
  57	5.5720e+00	2.2251	-11.515930	0.000314	3.141426	1.064344	0.000126
  58	5.6715e+00	2.2716	-11.281776	0.000588	5.877507	1.991353	0.000235
  59	5.7710e+00	2.3053	-11.144513	0.000345	3.445435	1.167345	0.000138
  60	5.8705e+00	2.3470	-10.894211	0.000628	6.282852	2.128688	0.000252
  61	5.9700e+00	2.3919	-10.700428	0.000486	4.864143	1.648016	0.000195
  62	6.0695e+00	2.4288	-10.502609	0.000497	4.965480	1.682350	0.000199
  63	6.1690e+00	2.4641	-10.312863	0.000476	4.762807	1.613683	0.000191
  64	6.2685e+00	2.5090	-10.054487	0.000649	6.485525	2.197355	0.000260
  65	6.3680e+00	2.5411	-9.836481	0.000547	5.472161	1.854018	0.000219
  66	6.4675e+00	2.5908	-9.638662	0.000497	4.965480	1.682350	0.000199
  67	6.5670e+00	2.6245	-9.444879	0.000486	4.864143	1.648016	0.000195
  68	6.6665e+00	2.6646	-9.271282	0.000436	4.357462	1.476348	0.000174
  69	6.7660e+00	2.6999	-9.053277	0.000547	5.472161	1.854018	0.000219
  70	6.8655e+00	2.7513	-8.835272	0.000547	5.472161	1.854018	0.000219
  71	6.9650e+00	2.7785	-8.625341	0.000527	5.269489	1.785351	0.000211
  72	7.0645e+00	2.8299	-8.480004	0.000365	3.648108	1.236012	0.000146
  73	7.1640e+00	2.8684	-8.245850	0.000588	5.877507	1.991353	0.000235
  74	7.2635e+00	2.9021	-8.043993	0.000507	5.066816	1.716684	0.000203
  75	7.3630e+00	2.9470	-7.906730	0.000345	3.445435	1.167345	0.000138
  76	7.4625e+00	2.9855	-7.704874	0.000507	5.066816	1.716684	0.000203
  77	7.5620e+00	3.0320	-7.539351	0.000415	4.154789	1.407681	0.000166
  78	7.6615e+00	3.0705	-7.297123	0.000608	6.080179	2.060021	0.000243
  79	7.7610e+00	3.1122	-7.111415	0.000466	4.661471	1.579349	0.000187
  80	7.8605e+00	3.1475	-6.861112	0.000628	6.282852	2.128688	0.000252
  81	7.9600e+00	3.1860	-6.671367	0.000476	4.762807	1.613683	0.000191
  82	8.0595e+00	3.2165	-6.457399	0.000537	5.370825	1.819685	0.000215
  83	8.1590e+00	3.2662	-6.231319	0.000567	5.674834	1.922686	0.000227
  84	8.2585e+00	3.2951	-6.005239	0.000567	5.674834	1.922686	0.000227
  85	8.3580e+00	3.3432	-5.807420	0.000497	4.965480	1.682350	0.000199
  86	8.4575e+00	3.3769	-5.637860	0.000426	4.256126	1.442014	0.000170
  87	8.5570e+00	3.4122	-5.383521	0.000638	6.384188	2.163022	0.000256
  88	8.6565e+00	3.4667	-5.185701	0.000497	4.965480	1.682350	0.000199
  89	8.7560e+00	3.5117	-4.983844	0.000507	5.066816	1.716684	0.000203
  90	8.8555e+00	3.5438	-4.786024	0.000497	4.965480	1.682350	0.000199
  91	8.9550e+00	3.5774	-4.576093	0.000527	5.269489	1.785351	0.000211
  92	9.0545e+00	3.6240	-4.398459	0.000446	4.458798	1.510682	0.000179
  93	9.1540e+00	3.6625	-4.200640	0.000497	4.965480	1.682350	0.000199
  94	9.2535e+00	3.6978	-4.043191	0.000395	3.952117	1.339013	0.000158
  95	9.3530e+00	3.7363	-3.796926	0.000618	6.181516	2.094354	0.000248
  96	9.4525e+00	3.7764	-3.603144	0.000486	4.864143	1.648016	0.000195
  97	9.5520e+00	3.8309	-3.405324	0.000497	4.965480	1.682350	0.000199
  98	9.6515e+00	3.8582	-3.187319	0.000547	5.472161	1.854018	0.000219
  99	9.7510e+00	3.9063	-2.949128	0.000598	5.978843	2.025687	0.000239
 100	9.8505e+00	3.9384	-2.771494	0.000446	4.458798	1.510682	0.000179
 101	9.9500e+00	3.9865	-2.505043	0.000669	6.688197	2.266023	0.000268
 102	1.0050e+01	4.0266	-2.274926	0.000578	5.776170	1.957020	0.000231
 103	1.0149e+01	4.0699	-2.089218	0.000466	4.661471	1.579349	0.000187
 104	1.0248e+01	4.0988	-1.867175	0.000557	5.573498	1.888352	0.000223
 105	1.0348e+01	4.1357	-1.665318	0.000507	5.066816	1.716684	0.000203
 106	1.0447e+01	4.1790	-1.463462	0.000507	5.066816	1.716684	0.000203
 107	1.0547e+01	4.2191	-1.273716	0.000476	4.762807	1.613683	0.000191
 108	1.0646e+01	4.2608	-1.051674	0.000557	5.573498	1.888352	0.000223
 109	1.0746e+01	4.3042	-0.829631	0.000557	5.573498	1.888352	0.000223
 110	1.0845e+01	4.3443	-0.627775	0.000507	5.066816	1.716684	0.000203
 111	1.0945e+01	4.3844	-0.474363	0.000385	3.850780	1.304680	0.000154
 112	1.1044e+01	4.4229	-0.272507	0.000507	5.066816	1.716684	0.000203
 113	1.1144e+01	4.4598	-0.034316	0.000598	5.978843	2.025687	0.000239
 114	1.1243e+01	4.5079	0.159467	0.000486	4.864143	1.648016	0.000195
 115	1.1343e+01	4.5336	0.353249	0.000486	4.864143	1.648016	0.000195
 116	1.1443e+01	4.5753	0.571255	0.000547	5.472161	1.854018	0.000219
 117	1.1542e+01	4.6298	0.805409	0.000588	5.877507	1.991353	0.000235
 118	1.1642e+01	4.6619	1.031488	0.000567	5.674834	1.922686	0.000227
 119	1.1741e+01	4.6908	1.289865	0.000649	6.485525	2.197355	0.000260
 120	1.1841e+01	4.7405	1.439239	0.000375	3.749444	1.270346	0.000150
 121	1.1940e+01	4.7774	1.709727	0.000679	6.789534	2.300356	0.000272
 122	1.2040e+01	4.8175	1.931769	0.000557	5.573498	1.888352	0.000223
 123	1.2139e+01	4.8544	2.113441	0.000456	4.560135	1.545015	0.000183
 124	1.2239e+01	4.8977	2.339520	0.000567	5.674834	1.922686	0.000227
 125	1.2338e+01	4.9346	2.492931	0.000385	3.850780	1.304680	0.000154
 126	1.2438e+01	4.9683	2.763419	0.000679	6.789534	2.300356	0.000272
 127	1.2537e+01	5.0180	2.932979	0.000426	4.256126	1.442014	0.000170
 128	1.2636e+01	5.0565	3.163096	0.000578	5.776170	1.957020	0.000231
 129	1.2736e+01	5.0950	3.332656	0.000426	4.256126	1.442014	0.000170
 130	1.2835e+01	5.1255	3.514327	0.000456	4.560135	1.545015	0.000183
 131	1.2935e+01	5.1817	3.716183	0.000507	5.066816	1.716684	0.000203
 132	1.3034e+01	5.2170	3.958412	0.000608	6.080179	2.060021	0.000243
 133	1.3134e+01	5.2603	4.160268	0.000507	5.066816	1.716684	0.000203
 134	1.3233e+01	5.2972	4.350014	0.000476	4.762807	1.613683	0.000191
 135	1.3333e+01	5.3421	4.616465	0.000669	6.688197	2.266023	0.000268
 136	1.3432e+01	5.3742	4.810247	0.000486	4.864143	1.648016	0.000195
 137	1.3532e+01	5.4223	5.068624	0.000649	6.485525	2.197355	0.000260
 138	1.3632e+01	5.4576	5.250295	0.000456	4.560135	1.545015	0.000183
 139	1.3731e+01	5.4929	5.524820	0.000689	6.890870	2.334690	0.000276
 140	1.3831e+01	5.5506	5.726677	0.000507	5.066816	1.716684	0.000203
 141	1.3930e+01	5.5699	5.912385	0.000466	4.661471	1.579349	0.000187
 142	1.4030e+01	5.6164	6.130391	0.000547	5.472161	1.854018	0.000219
 143	1.4129e+01	5.6565	6.340322	0.000527	5.269489	1.785351	0.000211
 144	1.4229e+01	5.6950	6.558327	0.000547	5.472161	1.854018	0.000219
 145	1.4328e+01	5.7367	6.788444	0.000578	5.776170	1.957020	0.000231
 146	1.4428e+01	5.7801	6.978189	0.000476	4.762807	1.613683	0.000191
 147	1.4527e+01	5.8202	7.167935	0.000476	4.762807	1.613683	0.000191
 148	1.4627e+01	5.8538	7.341531	0.000436	4.357462	1.476348	0.000174
 149	1.4726e+01	5.9036	7.575685	0.000588	5.877507	1.991353	0.000235
 150	1.4825e+01	5.9453	7.813876	0.000598	5.978843	2.025687	0.000239
 151	1.4925e+01	5.9758	7.987473	0.000436	4.357462	1.476348	0.000174
 152	1.5024e+01	6.0191	8.177218	0.000476	4.762807	1.613683	0.000191
 153	1.5124e+01	6.0544	8.423484	0.000618	6.181516	2.094354	0.000248
 154	1.5223e+01	6.0945	8.661675	0.000598	5.978843	2.025687	0.000239
 155	1.5323e+01	6.1282	8.899866	0.000598	5.978843	2.025687	0.000239
 156	1.5422e+01	6.1715	9.085574	0.000466	4.661471	1.579349	0.000187
 157	1.5522e+01	6.2148	9.352025	0.000669	6.688197	2.266023	0.000268
 158	1.5621e+01	6.2565	9.561956	0.000527	5.269489	1.785351	0.000211
 159	1.5721e+01	6.2998	9.792073	0.000578	5.776170	1.957020	0.000231
 160	1.5820e+01	6.3383	9.965670	0.000436	4.357462	1.476348	0.000174
 161	1.5920e+01	6.3752	10.175601	0.000527	5.269489	1.785351	0.000211
 162	1.6020e+01	6.4137	10.385532	0.000527	5.269489	1.785351	0.000211
 163	1.6119e+01	6.4426	10.599500	0.000537	5.370825	1.819685	0.000215
 164	1.6218e+01	6.4891	10.837691	0.000598	5.978843	2.025687	0.000239
 165	1.6318e+01	6.5292	11.007251	0.000426	4.256126	1.442014	0.000170
 166	1.6418e+01	6.5661	11.201033	0.000486	4.864143	1.648016	0.000195
 167	1.6517e+01	6.6110	11.374630	0.000436	4.357462	1.476348	0.000174
 168	1.6616e+01	6.6495	11.608784	0.000588	5.877507	1.991353	0.000235
 169	1.6716e+01	6.6864	11.838901	0.000578	5.776170	1.957020	0.000231
 170	1.6816e+01	6.7394	12.016535	0.000446	4.458798	1.510682	0.000179
 171	1.6915e+01	6.7731	12.226466	0.000527	5.269489	1.785351	0.000211
 172	1.7015e+01	6.8036	12.420248	0.000486	4.864143	1.648016	0.000195
 173	1.7114e+01	6.8517	12.674588	0.000638	6.384188	2.163022	0.000256
 174	1.7213e+01	6.8790	12.888556	0.000537	5.370825	1.819685	0.000215
 175	1.7313e+01	6.9271	13.155007	0.000669	6.688197	2.266023	0.000268
 176	1.7413e+01	6.9656	13.344752	0.000476	4.762807	1.613683	0.000191
 177	1.7512e+01	7.0041	13.546609	0.000507	5.066816	1.716684	0.000203
 178	1.7611e+01	7.0538	13.756540	0.000527	5.269489	1.785351	0.000211
 179	1.7711e+01	7.0923	13.994731	0.000598	5.978843	2.025687	0.000239
 180	1.7811e+01	7.1228	14.228885	0.000588	5.877507	1.991353	0.000235
 181	1.7910e+01	7.1645	14.390370	0.000405	4.053453	1.373347	0.000162
 182	1.8009e+01	7.2126	14.592227	0.000507	5.066816	1.716684	0.000203
 183	1.8109e+01	7.2559	14.814270	0.000557	5.573498	1.888352	0.000223
 184	1.8209e+01	7.2864	14.975755	0.000405	4.053453	1.373347	0.000162
 185	1.8308e+01	7.3281	15.169538	0.000486	4.864143	1.648016	0.000195
 186	1.8407e+01	7.3650	15.411766	0.000608	6.080179	2.060021	0.000243
 187	1.8507e+01	7.4019	15.565177	0.000385	3.850780	1.304680	0.000154
 188	1.8607e+01	7.4452	15.811442	0.000618	6.181516	2.094354	0.000248
 189	1.8706e+01	7.4902	16.013299	0.000507	5.066816	1.716684	0.000203
 190	1.8805e+01	7.5271	16.239379	0.000567	5.674834	1.922686	0.000227
 191	1.8905e+01	7.5688	16.445272	0.000517	5.168152	1.751017	0.000207
 192	1.9005e+01	7.6025	16.711723	0.000669	6.688197	2.266023	0.000268
 193	1.9104e+01	7.6442	16.921654	0.000527	5.269489	1.785351	0.000211
 194	1.9203e+01	7.6795	17.091214	0.000426	4.256126	1.442014	0.000170
 195	1.9303e+01	7.7260	17.289034	0.000497	4.965480	1.682350	0.000199
 196	1.9402e+01	7.7645	17.519151	0.000578	5.776170	1.957020	0.000231
 197	1.9502e+01	7.8062	17.729082	0.000527	5.269489	1.785351	0.000211
 198	1.9602e+01	7.8415	17.959198	0.000578	5.776170	1.957020	0.000231
 199	1.9701e+01	7.8928	18.136832	0.000446	4.458798	1.510682	0.000179
 200	1.9800e+01	7.9313	18.358875	0.000557	5.573498	1.888352	0.000223
 201	1.9900e+01	7.9634	18.576880	0.000547	5.472161	1.854018	0.000219
 202	2.0000e+01	8.0003	18.734328	0.000395	3.952117	1.339013	0.000158
 203	2.0099e+01	8.0468	18.911962	0.000446	4.458798	1.510682	0.000179
 204	2.0198e+01	8.0837	19.117856	0.000517	5.168152	1.751017	0.000207
 205	2.0298e+01	8.1270	19.311639	0.000486	4.864143	1.648016	0.000195
 206	2.0398e+01	8.1688	19.541756	0.000578	5.776170	1.957020	0.000231
 207	2.0497e+01	8.1960	19.771872	0.000578	5.776170	1.957020	0.000231
 208	2.0596e+01	8.2474	19.953543	0.000456	4.560135	1.545015	0.000183
 209	2.0696e+01	8.2810	20.175586	0.000557	5.573498	1.888352	0.000223
 210	2.0796e+01	8.3228	20.413777	0.000598	5.978843	2.025687	0.000239
 211	2.0895e+01	8.3661	20.611597	0.000497	4.965480	1.682350	0.000199
 212	2.0994e+01	8.3998	20.837676	0.000567	5.674834	1.922686	0.000227
 213	2.1094e+01	8.4431	21.051644	0.000537	5.370825	1.819685	0.000215
 214	2.1194e+01	8.4752	21.233315	0.000456	4.560135	1.545015	0.000183
 215	2.1293e+01	8.5233	21.487655	0.000638	6.384188	2.163022	0.000256
 216	2.1392e+01	8.5602	21.673363	0.000466	4.661471	1.579349	0.000187
 217	2.1492e+01	8.6051	21.867146	0.000486	4.864143	1.648016	0.000195
 218	2.1591e+01	8.6356	22.060928	0.000486	4.864143	1.648016	0.000195
 219	2.1691e+01	8.6837	22.254711	0.000486	4.864143	1.648016	0.000195
 220	2.1791e+01	8.7286	22.480790	0.000567	5.674834	1.922686	0.000227
 221	2.1890e+01	8.7655	22.650350	0.000426	4.256126	1.442014	0.000170
 222	2.1989e+01	8.7976	22.823947	0.000436	4.357462	1.476348	0.000174
 223	2.2089e+01	8.8441	23.009655	0.000466	4.661471	1.579349	0.000187
 224	2.2189e+01	8.8891	23.219586	0.000527	5.269489	1.785351	0.000211
 225	2.2288e+01	8.9211	23.405294	0.000466	4.661471	1.579349	0.000187
 226	2.2387e+01	8.9645	23.667708	0.000659	6.586861	2.231689	0.000264
 227	2.2487e+01	8.9997	23.837268	0.000426	4.256126	1.442014	0.000170
 228	2.2587e+01	9.0415	24.103719	0.000669	6.688197	2.266023	0.000268
 229	2.2686e+01	9.0735	24.317687	0.000537	5.370825	1.819685	0.000215
 230	2.2785e+01	9.1120	24.519544	0.000507	5.066816	1.716684	0.000203
 231	2.2885e+01	9.1666	24.745624	0.000567	5.674834	1.922686	0.000227
 232	2.2985e+01	9.1939	24.911146	0.000415	4.154789	1.407681	0.000166
 233	2.3084e+01	9.2452	25.161448	0.000628	6.282852	2.128688	0.000252
 234	2.3183e+01	9.2821	25.322934	0.000405	4.053453	1.373347	0.000162
 235	2.3283e+01	9.3158	25.544976	0.000557	5.573498	1.888352	0.000223
 236	2.3383e+01	9.3575	25.754907	0.000527	5.269489	1.785351	0.000211
 237	2.3482e+01	9.4072	25.880059	0.000314	3.141426	1.064344	0.000126
 238	2.3581e+01	9.4457	26.126324	0.000618	6.181516	2.094354	0.000248
 239	2.3681e+01	9.4874	26.328181	0.000507	5.066816	1.716684	0.000203
 240	2.3780e+01	9.5243	26.550223	0.000557	5.573498	1.888352	0.000223
 241	2.3880e+01	9.5596	26.695560	0.000365	3.648108	1.236012	0.000146
 242	2.3980e+01	9.6061	26.889343	0.000486	4.864143	1.648016	0.000195
 243	2.4079e+01	9.6398	27.107348	0.000547	5.472161	1.854018	0.000219
 244	2.4178e+01	9.6799	27.284982	0.000446	4.458798	1.510682	0.000179
 245	2.4278e+01	9.7104	27.490876	0.000517	5.168152	1.751017	0.000207
 246	2.4378e+01	9.7585	27.733104	0.000608	6.080179	2.060021	0.000243
 247	2.4477e+01	9.7987	27.963221	0.000578	5.776170	1.957020	0.000231
 248	2.4576e+01	9.8372	28.128743	0.000415	4.154789	1.407681	0.000166
 249	2.4676e+01	9.8741	28.362897	0.000588	5.877507	1.991353	0.000235
 250	2.4776e+01	9.9206	28.597051	0.000588	5.877507	1.991353	0.000235
 251	2.4875e+01	9.9639	28.786796	0.000476	4.762807	1.613683	0.000191
 252	2.4974e+01	10.0024	28.944245	0.000395	3.952117	1.339013	0.000158
 253	2.5074e+01	10.0361	29.162250	0.000547	5.472161	1.854018	0.000219
 254	2.5174e+01	10.0842	29.360070	0.000497	4.965480	1.682350	0.000199
 255	2.5273e+01	10.1195	29.586149	0.000567	5.674834	1.922686	0.000227
 256	2.5372e+01	10.1500	29.779932	0.000486	4.864143	1.648016	0.000195
 257	2.5472e+01	10.1965	29.969677	0.000476	4.762807	1.613683	0.000191
 258	2.5572e+01	10.2334	30.155385	0.000466	4.661471	1.579349	0.000187
 259	2.5671e+01	10.2847	30.345131	0.000476	4.762807	1.613683	0.000191
 260	2.5770e+01	10.3216	30.530839	0.000466	4.661471	1.579349	0.000187
 261	2.5870e+01	10.3537	30.720584	0.000476	4.762807	1.613683	0.000191
 262	2.5970e+01	10.3938	30.954738	0.000588	5.877507	1.991353	0.000235
 263	2.6069e+01	10.4259	31.132372	0.000446	4.458798	1.510682	0.000179
 264	2.6169e+01	10.4724	31.386712	0.000638	6.384188	2.163022	0.000256
 265	2.6268e+01	10.5141	31.584531	0.000497	4.965480	1.682350	0.000199
 266	2.6367e+01	10.5575	31.786388	0.000507	5.066816	1.716684	0.000203
 267	2.6467e+01	10.5911	32.028616	0.000608	6.080179	2.060021	0.000243
 268	2.6567e+01	10.6393	32.222399	0.000486	4.864143	1.648016	0.000195
 269	2.6666e+01	10.6633	32.444441	0.000557	5.573498	1.888352	0.000223
 270	2.6765e+01	10.7083	32.626112	0.000456	4.560135	1.545015	0.000183
 271	2.6865e+01	10.7564	32.827969	0.000507	5.066816	1.716684	0.000203
 272	2.6965e+01	10.7917	33.045975	0.000547	5.472161	1.854018	0.000219
 273	2.7064e+01	10.8286	33.231683	0.000466	4.661471	1.579349	0.000187
 274	2.7163e+01	10.8751	33.413354	0.000456	4.560135	1.545015	0.000183
 275	2.7263e+01	10.9056	33.655582	0.000608	6.080179	2.060021	0.000243
 276	2.7363e+01	10.9489	33.877625	0.000557	5.573498	1.888352	0.000223
 277	2.7462e+01	10.9970	34.014887	0.000345	3.445435	1.167345	0.000138
 278	2.7561e+01	11.0339	34.240967	0.000567	5.674834	1.922686	0.000227
 279	2.7661e+01	11.0772	34.406489	0.000415	4.154789	1.407681	0.000166
 280	2.7761e+01	11.1221	34.600272	0.000486	4.864143	1.648016	0.000195
 281	2.7860e+01	11.1558	34.802129	0.000507	5.066816	1.716684	0.000203
 282	2.7959e+01	11.1911	35.012060	0.000527	5.269489	1.785351	0.000211
 283	2.8059e+01	11.2280	35.205842	0.000486	4.864143	1.648016	0.000195
 284	2.8159e+01	11.2713	35.448070	0.000608	6.080179	2.060021	0.000243
 285	2.8258e+01	11.3130	35.641853	0.000486	4.864143	1.648016	0.000195
 286	2.8358e+01	11.3564	35.859858	0.000547	5.472161	1.854018	0.000219
 287	2.8457e+01	11.3884	36.077864	0.000547	5.472161	1.854018	0.000219
 288	2.8556e+01	11.4286	36.307980	0.000578	5.776170	1.957020	0.000231
 289	2.8656e+01	11.4638	36.493689	0.000466	4.661471	1.579349	0.000187
 290	2.8756e+01	11.5120	36.667285	0.000436	4.357462	1.476348	0.000174
 291	2.8855e+01	11.5569	36.881254	0.000537	5.370825	1.819685	0.000215
 292	2.8954e+01	11.5954	37.083110	0.000507	5.066816	1.716684	0.000203
 293	2.9054e+01	11.6307	37.309190	0.000567	5.674834	1.922686	0.000227
 294	2.9154e+01	11.6660	37.498935	0.000476	4.762807	1.613683	0.000191
 295	2.9253e+01	11.7157	37.716941	0.000547	5.472161	1.854018	0.000219
 296	2.9352e+01	11.7462	37.886500	0.000426	4.256126	1.442014	0.000170
 297	2.9452e+01	11.7879	38.064134	0.000446	4.458798	1.510682	0.000179
 298	2.9552e+01	11.8376	38.253880	0.000476	4.762807	1.613683	0.000191
 299	2.9651e+01	11.8809	38.475922	0.000557	5.573498	1.888352	0.000223
 300	2.9750e+01	11.9162	38.645482	0.000426	4.256126	1.442014	0.000170
 301	2.9850e+01	11.9451	38.863487	0.000547	5.472161	1.854018	0.000219
 302	2.9950e+01	11.9916	39.073418	0.000527	5.269489	1.785351	0.000211
 303	3.0049e+01	12.0285	39.251052	0.000446	4.458798	1.510682	0.000179
 304	3.0148e+01	12.0622	39.537689	0.000719	7.194879	2.437691	0.000288
 305	3.0248e+01	12.1071	39.727434	0.000476	4.762807	1.613683	0.000191
 306	3.0348e+01	12.1440	39.949477	0.000557	5.573498	1.888352	0.000223
 307	3.0447e+01	12.1874	40.127111	0.000446	4.458798	1.510682	0.000179
 308	3.0547e+01	12.2243	40.320893	0.000486	4.864143	1.648016	0.000195
 309	3.0646e+01	12.2676	40.542936	0.000557	5.573498	1.888352	0.000223
 310	3.0745e+01	12.3029	40.736718	0.000486	4.864143	1.648016	0.000195
 311	3.0845e+01	12.3526	40.978946	0.000608	6.080179	2.060021	0.000243
 312	3.0945e+01	12.3991	41.164655	0.000466	4.661471	1.579349	0.000187
 313	3.1044e+01	12.4200	41.346326	0.000456	4.560135	1.545015	0.000183
 314	3.1143e+01	12.4697	41.540108	0.000486	4.864143	1.648016	0.000195
 315	3.1243e+01	12.5050	41.677371	0.000345	3.445435	1.167345	0.000138
 316	3.1343e+01	12.5531	41.887302	0.000527	5.269489	1.785351	0.000211
 317	3.1442e+01	12.5852	42.121456	0.000588	5.877507	1.991353	0.000235
 318	3.1541e+01	12.6253	42.307164	0.000466	4.661471	1.579349	0.000187
 319	3.1641e+01	12.6702	42.521132	0.000537	5.370825	1.819685	0.000215
 320	3.1741e+01	12.7200	42.759323	0.000598	5.978843	2.025687	0.000239
 321	3.1840e+01	12.7537	42.945031	0.000466	4.661471	1.579349	0.000187
 322	3.1939e+01	12.7905	43.175148	0.000578	5.776170	1.957020	0.000231
 323	3.2039e+01	12.8323	43.372968	0.000497	4.965480	1.682350	0.000199
 324	3.2139e+01	12.8643	43.623270	0.000628	6.282852	2.128688	0.000252
 325	3.2238e+01	12.9028	43.788793	0.000415	4.154789	1.407681	0.000166
 326	3.2337e+01	12.9397	43.998724	0.000527	5.269489	1.785351	0.000211
 327	3.2437e+01	12.9766	44.172321	0.000436	4.357462	1.476348	0.000174
 328	3.2536e+01	13.0167	44.394363	0.000557	5.573498	1.888352	0.000223
 329	3.2636e+01	13.0697	44.600257	0.000517	5.168152	1.751017	0.000207
 330	3.2736e+01	13.1050	44.777891	0.000446	4.458798	1.510682	0.000179
 331	3.2835e+01	13.1371	44.975711	0.000497	4.965480	1.682350	0.000199
 332	3.2934e+01	13.1852	45.173530	0.000497	4.965480	1.682350	0.000199
 333	3.3034e+01	13.2173	45.375387	0.000507	5.066816	1.716684	0.000203
 334	3.3133e+01	13.2638	45.548984	0.000436	4.357462	1.476348	0.000174
 335	3.3233e+01	13.2991	45.750841	0.000507	5.066816	1.716684	0.000203
 336	3.3333e+01	13.3472	45.960772	0.000527	5.269489	1.785351	0.000211
 337	3.3432e+01	13.3825	46.150517	0.000476	4.762807	1.613683	0.000191
 338	3.3532e+01	13.4226	46.376597	0.000567	5.674834	1.922686	0.000227
 339	3.3631e+01	13.4627	46.610751	0.000588	5.877507	1.991353	0.000235
 340	3.3730e+01	13.5012	46.824719	0.000537	5.370825	1.819685	0.000215
 341	3.3830e+01	13.5381	47.046761	0.000557	5.573498	1.888352	0.000223
 342	3.3929e+01	13.5879	47.196135	0.000375	3.749444	1.270346	0.000150
 343	3.4029e+01	13.6199	47.458549	0.000659	6.586861	2.231689	0.000264
 344	3.4129e+01	13.6584	47.615997	0.000395	3.952117	1.339013	0.000158
 345	3.4228e+01	13.6953	47.829966	0.000537	5.370825	1.819685	0.000215
 346	3.4328e+01	13.7338	47.995488	0.000415	4.154789	1.407681	0.000166
 347	3.4427e+01	13.7739	48.205419	0.000527	5.269489	1.785351	0.000211
 348	3.4526e+01	13.8140	48.411313	0.000517	5.168152	1.751017	0.000207
 349	3.4626e+01	13.8558	48.613170	0.000507	5.066816	1.716684	0.000203
 350	3.4725e+01	13.8959	48.823101	0.000527	5.269489	1.785351	0.000211
 351	3.4825e+01	13.9456	48.996698	0.000436	4.357462	1.476348	0.000174
 352	3.4925e+01	13.9793	49.146072	0.000375	3.749444	1.270346	0.000150
 353	3.5024e+01	14.0290	49.372152	0.000567	5.674834	1.922686	0.000227
 354	3.5123e+01	14.0531	49.549785	0.000446	4.458798	1.510682	0.000179
 355	3.5223e+01	14.1012	49.779902	0.000578	5.776170	1.957020	0.000231
 356	3.5322e+01	14.1365	49.981759	0.000507	5.066816	1.716684	0.000203
 357	3.5422e+01	14.1718	50.203801	0.000557	5.573498	1.888352	0.000223
 358	3.5522e+01	14.2183	50.413733	0.000527	5.269489	1.785351	0.000211
 359	3.5621e+01	14.2600	50.639812	0.000567	5.674834	1.922686	0.000227
 360	3.5721e+01	14.2937	50.825520	0.000466	4.661471	1.579349	0.000187
 361	3.5820e+01	14.3402	51.031414	0.000517	5.168152	1.751017	0.000207
 362	3.5919e+01	14.3771	51.245382	0.000537	5.370825	1.819685	0.000215
 363	3.6019e+01	14.4172	51.386682	0.000355	3.546771	1.201679	0.000142
 364	3.6118e+01	14.4590	51.620836	0.000588	5.877507	1.991353	0.000235
 365	3.6218e+01	14.5007	51.838841	0.000547	5.472161	1.854018	0.000219
 366	3.6318e+01	14.5376	52.044735	0.000517	5.168152	1.751017	0.000207
 367	3.6417e+01	14.5745	52.242555	0.000497	4.965480	1.682350	0.000199
 368	3.6517e+01	14.6130	52.428263	0.000466	4.661471	1.579349	0.000187
 369	3.6616e+01	14.6659	52.605897	0.000446	4.458798	1.510682	0.000179
 370	3.6715e+01	14.6932	52.755271	0.000375	3.749444	1.270346	0.000150
 371	3.6815e+01	14.7301	52.965202	0.000527	5.269489	1.785351	0.000211
 372	3.6914e+01	14.7798	53.163022	0.000497	4.965480	1.682350	0.000199
 373	3.7014e+01	14.8231	53.352767	0.000476	4.762807	1.613683	0.000191
 374	3.7114e+01	14.8648	53.558661	0.000517	5.168152	1.751017	0.000207
 375	3.7213e+01	14.8921	53.772629	0.000537	5.370825	1.819685	0.000215
 376	3.7313e+01	14.9338	53.982561	0.000527	5.269489	1.785351	0.000211
 377	3.7412e+01	14.9771	54.200566	0.000547	5.472161	1.854018	0.000219
 378	3.7511e+01	15.0188	54.414534	0.000537	5.370825	1.819685	0.000215
 379	3.7611e+01	15.0589	54.624465	0.000527	5.269489	1.785351	0.000211
 380	3.7711e+01	15.0878	54.822285	0.000497	4.965480	1.682350	0.000199
 381	3.7810e+01	15.1343	55.044327	0.000557	5.573498	1.888352	0.000223
 382	3.7910e+01	15.1744	55.230035	0.000466	4.661471	1.579349	0.000187
 383	3.8009e+01	15.2226	55.448041	0.000547	5.472161	1.854018	0.000219
 384	3.8108e+01	15.2530	55.641823	0.000486	4.864143	1.648016	0.000195
 385	3.8208e+01	15.2932	55.823494	0.000456	4.560135	1.545015	0.000183
 386	3.8307e+01	15.3349	56.053611	0.000578	5.776170	1.957020	0.000231
 387	3.8407e+01	15.3782	56.263542	0.000527	5.269489	1.785351	0.000211
 388	3.8507e+01	15.4071	56.425028	0.000405	4.053453	1.373347	0.000162
 389	3.8606e+01	15.4616	56.647070	0.000557	5.573498	1.888352	0.000223
 390	3.8706e+01	15.4905	56.828741	0.000456	4.560135	1.545015	0.000183
 391	3.8805e+01	15.5338	56.998301	0.000426	4.256126	1.442014	0.000170
 392	3.8904e+01	15.5675	57.167861	0.000426	4.256126	1.442014	0.000170
 393	3.9004e+01	15.6060	57.373755	0.000517	5.168152	1.751017	0.000207
 394	3.9103e+01	15.6557	57.632131	0.000649	6.485525	2.197355	0.000260
 395	3.9203e+01	15.6974	57.817839	0.000466	4.661471	1.579349	0.000187
 396	3.9303e+01	15.7391	58.064105	0.000618	6.181516	2.094354	0.000248
 397	3.9402e+01	15.7760	58.274036	0.000527	5.269489	1.785351	0.000211
 398	3.9502e+01	15.8193	58.463781	0.000476	4.762807	1.613683	0.000191
 399	3.9601e+01	15.8530	58.649489	0.000466	4.661471	1.579349	0.000187
 400	3.9700e+01	15.8899	58.847309	0.000497	4.965480	1.682350	0.000199
 401	3.9800e+01	15.9252	59.049166	0.000507	5.066816	1.716684	0.000203
 402	3.9900e+01	15.9669	59.291394	0.000608	6.080179	2.060021	0.000243
 403	3.9999e+01	16.0167	59.477102	0.000466	4.661471	1.579349	0.000187
 404	4.0099e+01	16.0471	59.658773	0.000456	4.560135	1.545015	0.000183
 405	4.0198e+01	16.0889	59.888890	0.000578	5.776170	1.957020	0.000231
 406	4.0297e+01	16.1306	60.058450	0.000426	4.256126	1.442014	0.000170
 407	4.0397e+01	16.1755	60.264344	0.000517	5.168152	1.751017	0.000207
 408	4.0496e+01	16.2092	60.409681	0.000365	3.648108	1.236012	0.000146
 409	4.0596e+01	16.2445	60.611537	0.000507	5.066816	1.716684	0.000203
 410	4.0696e+01	16.2910	60.821468	0.000527	5.269489	1.785351	0.000211
 411	4.0795e+01	16.3311	61.019288	0.000497	4.965480	1.682350	0.000199
 412	4.0895e+01	16.3680	61.261516	0.000608	6.080179	2.060021	0.000243
 413	4.0994e+01	16.4129	61.447225	0.000466	4.661471	1.579349	0.000187
 414	4.1093e+01	16.4514	61.697527	0.000628	6.282852	2.128688	0.000252
 415	4.1193e+01	16.4851	61.883235	0.000466	4.661471	1.579349	0.000187
 416	4.1292e+01	16.5236	62.109315	0.000567	5.674834	1.922686	0.000227
 417	4.1392e+01	16.5701	62.323283	0.000537	5.370825	1.819685	0.000215
 418	4.1492e+01	16.6086	62.537251	0.000537	5.370825	1.819685	0.000215
 419	4.1591e+01	16.6439	62.759294	0.000557	5.573498	1.888352	0.000223
 420	4.1691e+01	16.6824	62.945002	0.000466	4.661471	1.579349	0.000187
 421	4.1790e+01	16.7257	63.154933	0.000527	5.269489	1.785351	0.000211
 422	4.1889e+01	16.7739	63.360827	0.000517	5.168152	1.751017	0.000207
 423	4.1989e+01	16.8059	63.518275	0.000395	3.952117	1.339013	0.000158
 424	4.2089e+01	16.8509	63.752429	0.000588	5.877507	1.991353	0.000235
 425	4.2188e+01	16.8894	63.970434	0.000547	5.472161	1.854018	0.000219
 426	4.2288e+01	16.9279	64.135957	0.000415	4.154789	1.407681	0.000166
 427	4.2387e+01	16.9664	64.333777	0.000497	4.965480	1.682350	0.000199
 428	4.2486e+01	17.0049	64.535633	0.000507	5.066816	1.716684	0.000203
 429	4.2586e+01	17.0402	64.761713	0.000567	5.674834	1.922686	0.000227
 430	4.2685e+01	17.0915	64.971644	0.000527	5.269489	1.785351	0.000211
 431	4.2785e+01	17.1268	65.165427	0.000486	4.864143	1.648016	0.000195
 432	4.2885e+01	17.1637	65.403618	0.000598	5.978843	2.025687	0.000239
 433	4.2984e+01	17.1990	65.657957	0.000638	6.384188	2.163022	0.000256
 434	4.3084e+01	17.2391	65.855777	0.000497	4.965480	1.682350	0.000199
 435	4.3183e+01	17.2888	66.093968	0.000598	5.978843	2.025687	0.000239
 436	4.3282e+01	17.3289	66.299862	0.000517	5.168152	1.751017	0.000207
 437	4.3382e+01	17.3594	66.501718	0.000507	5.066816	1.716684	0.000203
 438	4.3481e+01	17.4091	66.699538	0.000497	4.965480	1.682350	0.000199
 439	4.3581e+01	17.4476	66.961952	0.000659	6.586861	2.231689	0.000264
 440	4.3681e+01	17.4797	67.175920	0.000537	5.370825	1.819685	0.000215
 441	4.3780e+01	17.5246	67.402000	0.000567	5.674834	1.922686	0.000227
 442	4.3880e+01	17.5680	67.624042	0.000557	5.573498	1.888352	0.000223
 443	4.3979e+01	17.6097	67.813788	0.000476	4.762807	1.613683	0.000191
 444	4.4078e+01	17.6450	68.039867	0.000567	5.674834	1.922686	0.000227
 445	4.4178e+01	17.6802	68.237687	0.000497	4.965480	1.682350	0.000199
 446	4.4278e+01	17.7236	68.411284	0.000436	4.357462	1.476348	0.000174
 447	4.4377e+01	17.7621	68.645438	0.000588	5.877507	1.991353	0.000235
 448	4.4477e+01	17.8006	68.859406	0.000537	5.370825	1.819685	0.000215
 449	4.4576e+01	17.8423	69.113745	0.000638	6.384188	2.163022	0.000256
 450	4.4675e+01	17.8792	69.351936	0.000598	5.978843	2.025687	0.000239
 451	4.4775e+01	17.9257	69.541682	0.000476	4.762807	1.613683	0.000191
 452	4.4874e+01	17.9658	69.800058	0.000649	6.485525	2.197355	0.000260
 453	4.4974e+01	18.0043	70.018064	0.000547	5.472161	1.854018	0.000219
 454	4.5074e+01	18.0460	70.248180	0.000578	5.776170	1.957020	0.000231
 455	4.5173e+01	18.0845	70.462149	0.000537	5.370825	1.819685	0.000215
 456	4.5273e+01	18.1166	70.676117	0.000537	5.370825	1.819685	0.000215
 457	4.5372e+01	18.1583	70.938531	0.000659	6.586861	2.231689	0.000264
 458	4.5471e+01	18.2096	71.188833	0.000628	6.282852	2.128688	0.000252
 459	4.5571e+01	18.2305	71.398764	0.000527	5.269489	1.785351	0.000211
 460	4.5670e+01	18.2818	71.636955	0.000598	5.978843	2.025687	0.000239
 461	4.5770e+01	18.3203	71.867072	0.000578	5.776170	1.957020	0.000231
 462	4.5870e+01	18.3588	72.113337	0.000618	6.181516	2.094354	0.000248
 463	4.5969e+01	18.4038	72.315194	0.000507	5.066816	1.716684	0.000203
 464	4.6069e+01	18.4487	72.561459	0.000618	6.181516	2.094354	0.000248
 465	4.6168e+01	18.4808	72.739093	0.000446	4.458798	1.510682	0.000179
 466	4.6267e+01	18.5241	72.981321	0.000608	6.080179	2.060021	0.000243
 467	4.6367e+01	18.5578	73.223549	0.000608	6.080179	2.060021	0.000243
 468	4.6467e+01	18.6075	73.481926	0.000649	6.485525	2.197355	0.000260
 469	4.6566e+01	18.6460	73.748377	0.000669	6.688197	2.266023	0.000268
 470	4.6666e+01	18.6829	73.986568	0.000598	5.978843	2.025687	0.000239
 471	4.6765e+01	18.7134	74.244945	0.000649	6.485525	2.197355	0.000260
 472	4.6864e+01	18.7695	74.446802	0.000507	5.066816	1.716684	0.000203
 473	4.6964e+01	18.7968	74.701141	0.000638	6.384188	2.163022	0.000256
 474	4.7063e+01	18.8401	74.967592	0.000669	6.688197	2.266023	0.000268
 475	4.7163e+01	18.8882	75.230006	0.000659	6.586861	2.231689	0.000264
 476	4.7263e+01	18.9187	75.468197	0.000598	5.978843	2.025687	0.000239
 477	4.7362e+01	18.9588	75.730611	0.000659	6.586861	2.231689	0.000264
 478	4.7462e+01	18.9941	76.005136	0.000689	6.890870	2.334690	0.000276
 479	4.7561e+01	19.0342	76.235253	0.000578	5.776170	1.957020	0.000231
 480	4.7660e+01	19.0888	76.469407	0.000588	5.877507	1.991353	0.000235
 481	4.7760e+01	19.1160	76.679338	0.000527	5.269489	1.785351	0.000211
 482	4.7859e+01	19.1610	76.978086	0.000750	7.498888	2.540692	0.000300
 483	4.7959e+01	19.2011	77.224351	0.000618	6.181516	2.094354	0.000248
 484	4.8059e+01	19.2412	77.450431	0.000567	5.674834	1.922686	0.000227
 485	4.8158e+01	19.2781	77.728993	0.000699	6.992206	2.369024	0.000280
 486	4.8258e+01	19.3150	77.979295	0.000628	6.282852	2.128688	0.000252
 487	4.8357e+01	19.3583	78.265932	0.000719	7.194879	2.437691	0.000288
 488	4.8456e+01	19.3984	78.568717	0.000760	7.600224	2.575026	0.000304
 489	4.8556e+01	19.4385	78.839205	0.000679	6.789534	2.300356	0.000272
 490	4.8656e+01	19.4786	79.057211	0.000547	5.472161	1.854018	0.000219
 491	4.8755e+01	19.5219	79.327699	0.000679	6.789534	2.300356	0.000272
 492	4.8855e+01	19.5556	79.630484	0.000760	7.600224	2.575026	0.000304
 493	4.8954e+01	19.5989	79.905009	0.000689	6.890870	2.334690	0.000276
 494	4.9053e+01	19.6374	80.171460	0.000669	6.688197	2.266023	0.000268
 495	4.9153e+01	19.6791	80.466171	0.000740	7.397552	2.506358	0.000296
 496	4.9252e+01	19.7240	80.728585	0.000659	6.586861	2.231689	0.000264
 497	4.9352e+01	19.7545	80.986961	0.000649	6.485525	2.197355	0.000260
 498	4.9452e+01	19.8010	81.249375	0.000659	6.586861	2.231689	0.000264
 499	4.9551e+01	19.8299	81.560235	0.000780	7.802897	2.643693	0.000312
 500	4.9651e+01	19.8716	81.858983	0.000750	7.498888	2.540692	0.000300
 501	4.9750e+01	19.9182	82.137545	0.000699	6.992206	2.369024	0.000280
 502	4.9849e+01	19.9534	82.420145	0.000709	7.093543	2.403357	0.000284
 503	4.9949e+01	19.9936	82.678521	0.000649	6.485525	2.197355	0.000260
 504	5.0048e+01	19.9518	82.682558	-0.000010	-0.101336	-0.034334	0.000004
 505	5.0148e+01	19.9214	82.654299	0.000071	0.709354	0.240336	-0.000028
 506	5.0248e+01	19.8716	82.642187	0.000030	0.304009	0.103001	-0.000012
 507	5.0347e+01	19.8395	82.630076	0.000030	0.304009	0.103001	-0.000012
 508	5.0447e+01	19.8026	82.622001	0.000020	0.202673	0.068667	-0.000008
 509	5.0546e+01	19.7465	82.585667	0.000091	0.912027	0.309003	-0.000037
 510	5.0645e+01	19.7128	82.537222	0.000122	1.216036	0.412004	-0.000049
 511	5.0745e+01	19.6823	82.549333	-0.000030	-0.304009	-0.103001	0.000012
 512	5.0844e+01	19.6326	82.472627	0.000193	1.925390	0.652340	-0.000077
 513	5.0944e+01	19.5925	82.472627	-0.000000	-0.000000	-0.000000	0.000000
 514	5.1044e+01	19.5540	82.456479	0.000041	0.405345	0.137335	-0.000016
 515	5.1143e+01	19.5219	82.387848	0.000172	1.722717	0.583672	-0.000069
 516	5.1242e+01	19.4786	82.367662	0.000051	0.506682	0.171668	-0.000020
 517	5.1342e+01	19.4353	82.351513	0.000041	0.405345	0.137335	-0.000016
 518	5.1441e+01	19.4000	82.315179	0.000091	0.912027	0.309003	-0.000037
 519	5.1541e+01	19.3599	82.282882	0.000081	0.810691	0.274669	-0.000032
 520	5.1641e+01	19.3102	82.254622	0.000071	0.709354	0.240336	-0.000028
 521	5.1740e+01	19.2733	82.218288	0.000091	0.912027	0.309003	-0.000037
 522	5.1840e+01	19.2396	82.161768	0.000142	1.418709	0.480671	-0.000057
 523	5.1939e+01	19.2011	82.089100	0.000182	1.824054	0.618006	-0.000073
 524	5.2038e+01	19.1561	82.089100	-0.000000	-0.000000	-0.000000	0.000000
 525	5.2138e+01	19.1192	82.028542	0.000152	1.520045	0.515005	-0.000061
 526	5.2237e+01	19.0775	81.984134	0.000111	1.114700	0.377670	-0.000045
 527	5.2337e+01	19.0422	81.911466	0.000182	1.824054	0.618006	-0.000073
 528	5.2437e+01	18.9941	81.919540	-0.000020	-0.202673	-0.068667	0.000008
 529	5.2536e+01	18.9604	81.871094	0.000122	1.216036	0.412004	-0.000049
 530	5.2636e+01	18.9203	81.854946	0.000041	0.405345	0.137335	-0.000016
 531	5.2735e+01	18.8786	81.786314	0.000172	1.722717	0.583672	-0.000069
 532	5.2834e+01	18.8449	81.733832	0.000132	1.317372	0.446338	-0.000053
 533	5.2934e+01	18.8000	81.745943	-0.000030	-0.304009	-0.103001	0.000012
 534	5.3033e+01	18.7519	81.685386	0.000152	1.520045	0.515005	-0.000061
 535	5.3133e+01	18.7198	81.689423	-0.000010	-0.101336	-0.034334	0.000004
 536	5.3233e+01	18.6893	81.624829	0.000162	1.621381	0.549339	-0.000065
 537	5.3332e+01	18.6412	81.580420	0.000111	1.114700	0.377670	-0.000045
 538	5.3431e+01	18.5915	81.519863	0.000152	1.520045	0.515005	-0.000061
 539	5.3531e+01	18.5658	81.487566	0.000081	0.810691	0.274669	-0.000032
 540	5.3630e+01	18.5257	81.487566	-0.000000	-0.000000	-0.000000	0.000000
 541	5.3730e+01	18.4872	81.390675	0.000243	2.432072	0.824008	-0.000097
 542	5.3830e+01	18.4487	81.410861	-0.000051	-0.506682	-0.171668	0.000020
 543	5.3929e+01	18.3973	81.326081	0.000213	2.128063	0.721007	-0.000085
 544	5.4029e+01	18.3653	81.269561	0.000142	1.418709	0.480671	-0.000057
 545	5.4128e+01	18.3203	81.241301	0.000071	0.709354	0.240336	-0.000028
 546	5.4227e+01	18.2818	81.213041	0.000071	0.709354	0.240336	-0.000028
 547	5.4327e+01	18.2481	81.124224	0.000223	2.229399	0.755341	-0.000089
 548	5.4426e+01	18.2080	81.087890	0.000091	0.912027	0.309003	-0.000037
 549	5.4526e+01	18.1599	81.047519	0.000101	1.013363	0.343337	-0.000041
 550	5.4626e+01	18.1246	81.003110	0.000111	1.114700	0.377670	-0.000045
 551	5.4725e+01	18.0781	80.966776	0.000091	0.912027	0.309003	-0.000037
 552	5.4825e+01	18.0460	80.930442	0.000091	0.912027	0.309003	-0.000037
 553	5.4924e+01	18.0059	80.829513	0.000253	2.533408	0.858342	-0.000101
 554	5.5023e+01	17.9626	80.809328	0.000051	0.506682	0.171668	-0.000020
 555	5.5123e+01	17.9257	80.768956	0.000101	1.013363	0.343337	-0.000041
 556	5.5222e+01	17.8872	80.708399	0.000152	1.520045	0.515005	-0.000061
 557	5.5322e+01	17.8439	80.672065	0.000091	0.912027	0.309003	-0.000037
 558	5.5422e+01	17.8022	80.643805	0.000071	0.709354	0.240336	-0.000028
 559	5.5521e+01	17.7637	80.579211	0.000162	1.621381	0.549339	-0.000065
 560	5.5620e+01	17.7236	80.478282	0.000253	2.533408	0.858342	-0.000101
 561	5.5720e+01	17.6915	80.417725	0.000152	1.520045	0.515005	-0.000061
 562	5.5819e+01	17.6450	80.328908	0.000223	2.229399	0.755341	-0.000089
 563	5.5919e+01	17.6032	80.268351	0.000152	1.520045	0.515005	-0.000061
 564	5.6019e+01	17.5680	80.199720	0.000172	1.722717	0.583672	-0.000069
 565	5.6118e+01	17.5327	80.163386	0.000091	0.912027	0.309003	-0.000037
 566	5.6218e+01	17.4845	80.110903	0.000132	1.317372	0.446338	-0.000053
 567	5.6317e+01	17.4524	80.090717	0.000051	0.506682	0.171668	-0.000020
 568	5.6416e+01	17.4027	79.989789	0.000253	2.533408	0.858342	-0.000101
 569	5.6516e+01	17.3626	79.933269	0.000142	1.418709	0.480671	-0.000057
 570	5.6615e+01	17.3257	79.844452	0.000223	2.229399	0.755341	-0.000089
 571	5.6715e+01	17.2904	79.791969	0.000132	1.317372	0.446338	-0.000053
 572	5.6815e+01	17.2503	79.743524	0.000122	1.216036	0.412004	-0.000049
 573	5.6914e+01	17.2086	79.646632	0.000243	2.432072	0.824008	-0.000097
 574	5.7014e+01	17.1541	79.598187	0.000122	1.216036	0.412004	-0.000049
 575	5.7113e+01	17.1220	79.545704	0.000132	1.317372	0.446338	-0.000053
 576	5.7212e+01	17.0931	79.501296	0.000111	1.114700	0.377670	-0.000045
 577	5.7312e+01	17.0498	79.444776	0.000142	1.418709	0.480671	-0.000057
 578	5.7411e+01	17.0161	79.364033	0.000203	2.026726	0.686674	-0.000081
 579	5.7511e+01	16.9760	79.279253	0.000213	2.128063	0.721007	-0.000085
 580	5.7611e+01	16.9214	79.162176	0.000294	2.938753	0.995677	-0.000118
 581	5.7710e+01	16.8878	79.113730	0.000122	1.216036	0.412004	-0.000049
 582	5.7809e+01	16.8557	79.028951	0.000213	2.128063	0.721007	-0.000085
 583	5.7909e+01	16.8156	78.992616	0.000091	0.912027	0.309003	-0.000037
 584	5.8008e+01	16.7674	78.899762	0.000233	2.330735	0.789675	-0.000093
 585	5.8108e+01	16.7289	78.790760	0.000274	2.736081	0.927009	-0.000110
 586	5.8208e+01	16.6888	78.746351	0.000111	1.114700	0.377670	-0.000045
 587	5.8307e+01	16.6503	78.661571	0.000213	2.128063	0.721007	-0.000085
 588	5.8407e+01	16.6038	78.609089	0.000132	1.317372	0.446338	-0.000053
 589	5.8506e+01	16.5669	78.544494	0.000162	1.621381	0.549339	-0.000065
 590	5.8605e+01	16.5300	78.471826	0.000182	1.824054	0.618006	-0.000073
 591	5.8705e+01	16.4883	78.395120	0.000193	1.925390	0.652340	-0.000077
 592	5.8804e+01	16.4562	78.314378	0.000203	2.026726	0.686674	-0.000081
 593	5.8904e+01	16.4017	78.245746	0.000172	1.722717	0.583672	-0.000069
 594	5.9004e+01	16.3632	78.193264	0.000132	1.317372	0.446338	-0.000053
 595	5.9103e+01	16.3311	78.152892	0.000101	1.013363	0.343337	-0.000041
 596	5.9203e+01	16.2894	78.060038	0.000233	2.330735	0.789675	-0.000093
 597	5.9302e+01	16.2541	77.991407	0.000172	1.722717	0.583672	-0.000069
 598	5.9401e+01	16.2108	77.870293	0.000304	3.040090	1.030010	-0.000122
 599	5.9501e+01	16.1642	77.789550	0.000203	2.026726	0.686674	-0.000081
 600	5.9600e+01	16.1241	77.680547	0.000274	2.736081	0.927009	-0.000110
 601	5.9700e+01	16.0872	77.628065	0.000132	1.317372	0.446338	-0.000053
 602	5.9800e+01	16.0520	77.559433	0.000172	1.722717	0.583672	-0.000069
 603	5.9899e+01	16.0151	77.482728	0.000193	1.925390	0.652340	-0.000077
 604	5.9998e+01	15.9717	77.389874	0.000233	2.330735	0.789675	-0.000093
 605	6.0098e+01	15.9316	77.325279	0.000162	1.621381	0.549339	-0.000065
 606	6.0197e+01	15.8883	77.232425	0.000233	2.330735	0.789675	-0.000093
 607	6.0297e+01	15.8482	77.159757	0.000182	1.824054	0.618006	-0.000073
 608	6.0397e+01	15.8129	77.058828	0.000253	2.533408	0.858342	-0.000101
 609	6.0496e+01	15.7728	77.026531	0.000081	0.810691	0.274669	-0.000032
 610	6.0596e+01	15.7327	76.921566	0.000263	2.634744	0.892676	-0.000105
 611	6.0695e+01	15.6894	76.869083	0.000132	1.317372	0.446338	-0.000053
 612	6.0794e+01	15.6477	76.812563	0.000142	1.418709	0.480671	-0.000057
 613	6.0894e+01	15.6140	76.735858	0.000193	1.925390	0.652340	-0.000077
 614	6.0993e+01	15.5723	76.626855	0.000274	2.736081	0.927009	-0.000110
 615	6.1093e+01	15.5354	76.550149	0.000193	1.925390	0.652340	-0.000077
 616	6.1193e+01	15.4857	76.416924	0.000334	3.344099	1.133011	-0.000134
 617	6.1292e+01	15.4472	76.307921	0.000274	2.736081	0.927009	-0.000110
 618	6.1392e+01	15.4199	76.259476	0.000122	1.216036	0.412004	-0.000049
 619	6.1491e+01	15.3686	76.186807	0.000182	1.824054	0.618006	-0.000073
 620	6.1590e+01	15.3349	76.077804	0.000274	2.736081	0.927009	-0.000110
 621	6.1690e+01	15.2964	75.964765	0.000284	2.837417	0.961343	-0.000114
 622	6.1789e+01	15.2530	75.896133	0.000172	1.722717	0.583672	-0.000069
 623	6.1889e+01	15.2178	75.791168	0.000263	2.634744	0.892676	-0.000105
 624	6.1989e+01	15.1760	75.710425	0.000203	2.026726	0.686674	-0.000081
 625	6.2088e+01	15.1375	75.621608	0.000223	2.229399	0.755341	-0.000089
 626	6.2188e+01	15.0910	75.544902	0.000193	1.925390	0.652340	-0.000077
 627	6.2287e+01	15.0461	75.468197	0.000193	1.925390	0.652340	-0.000077
 628	6.2386e+01	15.0188	75.351120	0.000294	2.938753	0.995677	-0.000118
 629	6.2486e+01	14.9723	75.330934	0.000051	0.506682	0.171668	-0.000020
 630	6.2586e+01	14.9370	75.209820	0.000304	3.040090	1.030010	-0.000122
 631	6.2685e+01	14.8905	75.112929	0.000243	2.432072	0.824008	-0.000097
 632	6.2785e+01	14.8584	75.036223	0.000193	1.925390	0.652340	-0.000077
 633	6.2884e+01	14.8183	74.915109	0.000304	3.040090	1.030010	-0.000122
 634	6.2983e+01	14.7830	74.822255	0.000233	2.330735	0.789675	-0.000093
 635	6.3083e+01	14.7381	74.640584	0.000456	4.560135	1.545015	-0.000183
 636	6.3182e+01	14.6980	74.571953	0.000172	1.722717	0.583672	-0.000069
 637	6.3282e+01	14.6515	74.487173	0.000213	2.128063	0.721007	-0.000085
 638	6.3382e+01	14.6210	74.394319	0.000233	2.330735	0.789675	-0.000093
 639	6.3481e+01	14.5712	74.281279	0.000284	2.837417	0.961343	-0.000114
 640	6.3581e+01	14.5408	74.196499	0.000213	2.128063	0.721007	-0.000085
 641	6.3680e+01	14.4975	74.063274	0.000334	3.344099	1.133011	-0.000134
 642	6.3779e+01	14.4541	73.974457	0.000223	2.229399	0.755341	-0.000089
 643	6.3879e+01	14.4188	73.857380	0.000294	2.938753	0.995677	-0.000118
 644	6.3978e+01	14.3723	73.776637	0.000203	2.026726	0.686674	-0.000081
 645	6.4078e+01	14.3306	73.708006	0.000172	1.722717	0.583672	-0.000069
 646	6.4177e+01	14.2889	73.599003	0.000274	2.736081	0.927009	-0.000110
 647	6.4277e+01	14.2552	73.518260	0.000203	2.026726	0.686674	-0.000081
 648	6.4376e+01	14.2183	73.413295	0.000263	2.634744	0.892676	-0.000105
 649	6.4476e+01	14.1734	73.324478	0.000223	2.229399	0.755341	-0.000089
 650	6.4576e+01	14.1381	73.207401	0.000294	2.938753	0.995677	-0.000118
 651	6.4675e+01	14.0916	73.094361	0.000284	2.837417	0.961343	-0.000114
 652	6.4775e+01	14.0595	72.989396	0.000263	2.634744	0.892676	-0.000105
 653	6.4874e+01	14.0194	72.864244	0.000314	3.141426	1.064344	-0.000126
 654	6.4974e+01	13.9841	72.767353	0.000243	2.432072	0.824008	-0.000097
 655	6.5073e+01	13.9344	72.617979	0.000375	3.749444	1.270346	-0.000150
 656	6.5172e+01	13.8991	72.508976	0.000274	2.736081	0.927009	-0.000110
 657	6.5272e+01	13.8638	72.424197	0.000213	2.128063	0.721007	-0.000085
 658	6.5371e+01	13.8221	72.303083	0.000304	3.040090	1.030010	-0.000122
 659	6.5471e+01	13.7772	72.238488	0.000162	1.621381	0.549339	-0.000065
 660	6.5570e+01	13.7386	72.097189	0.000355	3.546771	1.201679	-0.000142
 661	6.5670e+01	13.6969	72.004334	0.000233	2.330735	0.789675	-0.000093
 662	6.5769e+01	13.6568	71.863035	0.000355	3.546771	1.201679	-0.000142
 663	6.5869e+01	13.6199	71.778255	0.000213	2.128063	0.721007	-0.000085
 664	6.5969e+01	13.5750	71.649067	0.000324	3.242762	1.098678	-0.000130
 665	6.6068e+01	13.5429	71.564287	0.000213	2.128063	0.721007	-0.000085
 666	6.6168e+01	13.5060	71.491618	0.000182	1.824054	0.618006	-0.000073
 667	6.6267e+01	13.4579	71.386653	0.000263	2.634744	0.892676	-0.000105
 668	6.6367e+01	13.4242	71.285724	0.000253	2.533408	0.858342	-0.000101
 669	6.6466e+01	13.3809	71.156536	0.000324	3.242762	1.098678	-0.000130
 670	6.6566e+01	13.3408	71.023310	0.000334	3.344099	1.133011	-0.000134
 671	6.6665e+01	13.2991	70.950642	0.000182	1.824054	0.618006	-0.000073
 672	6.6764e+01	13.2622	70.764934	0.000466	4.661471	1.579349	-0.000187
 673	6.6864e+01	13.2237	70.655931	0.000274	2.736081	0.927009	-0.000110
 674	6.6963e+01	13.1756	70.514631	0.000355	3.546771	1.201679	-0.000142
 675	6.7063e+01	13.1419	70.385443	0.000324	3.242762	1.098678	-0.000130
 676	6.7162e+01	13.1082	70.284515	0.000253	2.533408	0.858342	-0.000101
 677	6.7262e+01	13.0713	70.163401	0.000304	3.040090	1.030010	-0.000122
 678	6.7362e+01	13.0232	70.009989	0.000385	3.850780	1.304680	-0.000154
 679	6.7461e+01	12.9831	69.884838	0.000314	3.141426	1.064344	-0.000126
 680	6.7561e+01	12.9494	69.747576	0.000345	3.445435	1.167345	-0.000138
 681	6.7660e+01	12.8996	69.646647	0.000253	2.533408	0.858342	-0.000101
 682	6.7760e+01	12.8724	69.533607	0.000284	2.837417	0.961343	-0.000114
 683	6.7859e+01	12.8226	69.424605	0.000274	2.736081	0.927009	-0.000110
 684	6.7959e+01	12.7873	69.319639	0.000263	2.634744	0.892676	-0.000105
 685	6.8058e+01	12.7472	69.222748	0.000243	2.432072	0.824008	-0.000097
 686	6.8157e+01	12.7135	69.085485	0.000345	3.445435	1.167345	-0.000138
 687	6.8257e+01	12.6638	68.952260	0.000334	3.344099	1.133011	-0.000134
 688	6.8356e+01	12.6317	68.835183	0.000294	2.938753	0.995677	-0.000118
 689	6.8456e+01	12.5948	68.677735	0.000395	3.952117	1.339013	-0.000158
 690	6.8555e+01	12.5563	68.528361	0.000375	3.749444	1.270346	-0.000150
 691	6.8655e+01	12.5082	68.391098	0.000345	3.445435	1.167345	-0.000138
 692	6.8754e+01	12.4681	68.221538	0.000426	4.256126	1.442014	-0.000170
 693	6.8854e+01	12.4248	68.060053	0.000405	4.053453	1.373347	-0.000162
 694	6.8954e+01	12.3927	67.959124	0.000253	2.533408	0.858342	-0.000101
 695	6.9053e+01	12.3446	67.805713	0.000385	3.850780	1.304680	-0.000154
 696	6.9153e+01	12.3061	67.664414	0.000355	3.546771	1.201679	-0.000142
 697	6.9252e+01	12.2740	67.555411	0.000274	2.736081	0.927009	-0.000110
 698	6.9352e+01	12.2243	67.422185	0.000334	3.344099	1.133011	-0.000134
 699	6.9451e+01	12.1890	67.284923	0.000345	3.445435	1.167345	-0.000138
 700	6.9550e+01	12.1505	67.143623	0.000355	3.546771	1.201679	-0.000142
 701	6.9650e+01	12.1104	67.026546	0.000294	2.938753	0.995677	-0.000118
 702	6.9749e+01	12.0558	66.889283	0.000345	3.445435	1.167345	-0.000138
 703	6.9849e+01	12.0317	66.772207	0.000294	2.938753	0.995677	-0.000118
 704	6.9948e+01	11.9804	66.626870	0.000365	3.648108	1.236012	-0.000146
 705	7.0048e+01	11.9403	66.473458	0.000385	3.850780	1.304680	-0.000154
 706	7.0147e+01	11.9050	66.368493	0.000263	2.634744	0.892676	-0.000105
 707	7.0247e+01	11.8713	66.235267	0.000334	3.344099	1.133011	-0.000134
 708	7.0347e+01	11.8360	66.089931	0.000365	3.648108	1.236012	-0.000146
 709	7.0446e+01	11.7975	65.892111	0.000497	4.965480	1.682350	-0.000199
 710	7.0546e+01	11.7462	65.710440	0.000456	4.560135	1.545015	-0.000183
 711	7.0645e+01	11.7205	65.569140	0.000355	3.546771	1.201679	-0.000142
 712	7.0745e+01	11.6628	65.435915	0.000334	3.344099	1.133011	-0.000134
 713	7.0844e+01	11.6339	65.274429	0.000405	4.053453	1.373347	-0.000162
 714	7.0944e+01	11.5922	65.133129	0.000355	3.546771	1.201679	-0.000142
 715	7.1043e+01	11.5585	64.983755	0.000375	3.749444	1.270346	-0.000150
 716	7.1142e+01	11.5120	64.866678	0.000294	2.938753	0.995677	-0.000118
 717	7.1242e+01	11.4703	64.725379	0.000355	3.546771	1.201679	-0.000142
 718	7.1341e+01	11.4302	64.547745	0.000446	4.458798	1.510682	-0.000179
 719	7.1441e+01	11.3949	64.450853	0.000243	2.432072	0.824008	-0.000097
 720	7.1540e+01	11.3532	64.297442	0.000385	3.850780	1.304680	-0.000154
 721	7.1640e+01	11.3163	64.156143	0.000355	3.546771	1.201679	-0.000142
 722	7.1740e+01	11.2794	64.018880	0.000345	3.445435	1.167345	-0.000138
 723	7.1839e+01	11.2312	63.901803	0.000294	2.938753	0.995677	-0.000118
 724	7.1939e+01	11.1927	63.744355	0.000395	3.952117	1.339013	-0.000158
 725	7.2038e+01	11.1478	63.586906	0.000395	3.952117	1.339013	-0.000158
 726	7.2138e+01	11.1125	63.437532	0.000375	3.749444	1.270346	-0.000150
 727	7.2237e+01	11.0820	63.292196	0.000365	3.648108	1.236012	-0.000146
 728	7.2337e+01	11.0419	63.110524	0.000456	4.560135	1.545015	-0.000183
 729	7.2436e+01	10.9954	62.928853	0.000456	4.560135	1.545015	-0.000183
 730	7.2535e+01	10.9553	62.763331	0.000415	4.154789	1.407681	-0.000166
 731	7.2635e+01	10.9136	62.617994	0.000365	3.648108	1.236012	-0.000146
 732	7.2734e+01	10.8751	62.456508	0.000405	4.053453	1.373347	-0.000162
 733	7.2834e+01	10.8366	62.351543	0.000263	2.634744	0.892676	-0.000105
 734	7.2933e+01	10.7965	62.145649	0.000517	5.168152	1.751017	-0.000207
 735	7.3033e+01	10.7596	62.000312	0.000365	3.648108	1.236012	-0.000146
 736	7.3132e+01	10.7163	61.826715	0.000436	4.357462	1.476348	-0.000174
 737	7.3232e+01	10.6794	61.713675	0.000284	2.837417	0.961343	-0.000114
 738	7.3332e+01	10.6313	61.536041	0.000446	4.458798	1.510682	-0.000179
 739	7.3431e+01	10.5863	61.402816	0.000334	3.344099	1.133011	-0.000134
 740	7.3531e+01	10.5559	61.285739	0.000294	2.938753	0.995677	-0.000118
 741	7.3630e+01	10.5190	61.120217	0.000415	4.154789	1.407681	-0.000166
 742	7.3730e+01	10.4740	60.962768	0.000395	3.952117	1.339013	-0.000158
 743	7.3829e+01	10.4339	60.825506	0.000345	3.445435	1.167345	-0.000138
 744	7.3928e+01	10.3890	60.651909	0.000436	4.357462	1.476348	-0.000174
 745	7.4028e+01	10.3521	60.454089	0.000497	4.965480	1.682350	-0.000199
 746	7.4127e+01	10.3184	60.349124	0.000263	2.634744	0.892676	-0.000105
 747	7.4227e+01	10.2751	60.119007	0.000578	5.776170	1.957020	-0.000231
 748	7.4326e+01	10.2430	59.909076	0.000527	5.269489	1.785351	-0.000211
 749	7.4426e+01	10.1997	59.763739	0.000365	3.648108	1.236012	-0.000146
 750	7.4525e+01	10.1628	59.614365	0.000375	3.749444	1.270346	-0.000150
 751	7.4625e+01	10.1131	59.456917	0.000395	3.952117	1.339013	-0.000158
 752	7.4725e+01	10.0778	59.291394	0.000415	4.154789	1.407681	-0.000166
 753	7.4824e+01	10.0393	59.154131	0.000345	3.445435	1.167345	-0.000138
 754	7.4924e+01	9.9831	58.992646	0.000405	4.053453	1.373347	-0.000162
 755	7.5023e+01	9.9543	58.823086	0.000426	4.256126	1.442014	-0.000170
 756	7.5123e+01	9.9158	58.681787	0.000355	3.546771	1.201679	-0.000142
 757	7.5222e+01	9.8773	58.467818	0.000537	5.370825	1.819685	-0.000215
 758	7.5322e+01	9.8339	58.358816	0.000274	2.736081	0.927009	-0.000110
 759	7.5421e+01	9.8019	58.225590	0.000334	3.344099	1.133011	-0.000134
 760	7.5520e+01	9.7569	58.051993	0.000436	4.357462	1.476348	-0.000174
 761	7.5620e+01	9.7104	57.902619	0.000375	3.749444	1.270346	-0.000150
 762	7.5719e+01	9.6799	57.745171	0.000395	3.952117	1.339013	-0.000158
 763	7.5819e+01	9.6382	57.571574	0.000436	4.357462	1.476348	-0.000174
 764	7.5918e+01	9.5981	57.422200	0.000375	3.749444	1.270346	-0.000150
 765	7.6018e+01	9.5644	57.232455	0.000476	4.762807	1.613683	-0.000191
 766	7.6118e+01	9.5195	57.050784	0.000456	4.560135	1.545015	-0.000183
 767	7.6217e+01	9.4778	56.865075	0.000466	4.661471	1.579349	-0.000187
 768	7.6317e+01	9.4361	56.667256	0.000497	4.965480	1.682350	-0.000199
 769	7.6416e+01	9.4040	56.497696	0.000426	4.256126	1.442014	-0.000170
 770	7.6516e+01	9.3639	56.328136	0.000426	4.256126	1.442014	-0.000170
 771	7.6615e+01	9.3126	56.150502	0.000446	4.458798	1.510682	-0.000179
 772	7.6715e+01	9.2821	55.964794	0.000466	4.661471	1.579349	-0.000187
 773	7.6814e+01	9.2340	55.831569	0.000334	3.344099	1.133011	-0.000134
 774	7.6913e+01	9.1955	55.662009	0.000426	4.256126	1.442014	-0.000170
 775	7.7013e+01	9.1650	55.500524	0.000405	4.053453	1.373347	-0.000162
 776	7.7112e+01	9.1201	55.322890	0.000446	4.458798	1.510682	-0.000179
 777	7.7212e+01	9.0896	55.189664	0.000334	3.344099	1.133011	-0.000134
 778	7.7311e+01	9.0463	55.032216	0.000395	3.952117	1.339013	-0.000158
 779	7.7411e+01	8.9997	54.858619	0.000436	4.357462	1.476348	-0.000174
 780	7.7510e+01	8.9628	54.668874	0.000476	4.762807	1.613683	-0.000191
 781	7.7610e+01	8.9195	54.535648	0.000334	3.344099	1.133011	-0.000134
 782	7.7710e+01	8.8939	54.358014	0.000446	4.458798	1.510682	-0.000179
 783	7.7809e+01	8.8409	54.188454	0.000426	4.256126	1.442014	-0.000170
 784	7.7909e+01	8.7992	54.006783	0.000456	4.560135	1.545015	-0.000183
 785	7.8008e+01	8.7623	53.804927	0.000507	5.066816	1.716684	-0.000203
 786	7.8108e+01	8.7334	53.578847	0.000567	5.674834	1.922686	-0.000227
 787	7.8207e+01	8.6853	53.421399	0.000395	3.952117	1.339013	-0.000158
 788	7.8306e+01	8.6468	53.251839	0.000426	4.256126	1.442014	-0.000170
 789	7.8406e+01	8.6003	53.037871	0.000537	5.370825	1.819685	-0.000215
 790	7.8505e+01	8.5586	52.888497	0.000375	3.749444	1.270346	-0.000150
 791	7.8605e+01	8.5217	52.718937	0.000426	4.256126	1.442014	-0.000170
 792	7.8704e+01	8.4816	52.569563	0.000375	3.749444	1.270346	-0.000150
 793	7.8804e+01	8.4447	52.395966	0.000436	4.357462	1.476348	-0.000174
 794	7.8903e+01	8.4046	52.226406	0.000426	4.256126	1.442014	-0.000170
 795	7.9003e+01	8.3597	52.077032	0.000375	3.749444	1.270346	-0.000150
 796	7.9103e+01	8.3260	51.867101	0.000527	5.269489	1.785351	-0.000211
 797	7.9202e+01	8.2778	51.697542	0.000426	4.256126	1.442014	-0.000170
 798	7.9302e+01	8.2409	51.548168	0.000375	3.749444	1.270346	-0.000150
 799	7.9401e+01	8.1992	51.330162	0.000547	5.472161	1.854018	-0.000219
 800	7.9501e+01	8.1543	51.209048	0.000304	3.040090	1.030010	-0.000122
 801	7.9600e+01	8.1190	51.019303	0.000476	4.762807	1.613683	-0.000191
 802	7.9700e+01	8.0837	50.817446	0.000507	5.066816	1.716684	-0.000203
 803	7.9799e+01	8.0468	50.619626	0.000497	4.965480	1.682350	-0.000199
 804	7.9898e+01	7.9987	50.409695	0.000527	5.269489	1.785351	-0.000211
 805	7.9998e+01	7.9698	50.232061	0.000446	4.458798	1.510682	-0.000179
 806	8.0097e+01	7.9249	50.034242	0.000497	4.965480	1.682350	-0.000199
 807	8.0197e+01	7.8912	49.828348	0.000517	5.168152	1.751017	-0.000207
 808	8.0296e+01	7.8495	49.674937	0.000385	3.850780	1.304680	-0.000154
 809	8.0396e+01	7.8030	49.444820	0.000578	5.776170	1.957020	-0.000231
 810	8.0496e+01	7.7549	49.283335	0.000405	4.053453	1.373347	-0.000162
 811	8.0595e+01	7.7212	49.142035	0.000355	3.546771	1.201679	-0.000142
 812	8.0695e+01	7.6939	48.944215	0.000497	4.965480	1.682350	-0.000199
 813	8.0794e+01	7.6426	48.786767	0.000395	3.952117	1.339013	-0.000158
 814	8.0894e+01	7.6057	48.629319	0.000395	3.952117	1.339013	-0.000158
 815	8.0993e+01	7.5591	48.483982	0.000365	3.648108	1.236012	-0.000146
 816	8.1093e+01	7.5222	48.322496	0.000405	4.053453	1.373347	-0.000162
 817	8.1192e+01	7.4870	48.084305	0.000598	5.978843	2.025687	-0.000239
 818	8.1291e+01	7.4452	47.902634	0.000456	4.560135	1.545015	-0.000183
 819	8.1391e+01	7.4083	47.708852	0.000486	4.864143	1.648016	-0.000195
 820	8.1490e+01	7.3634	47.531218	0.000446	4.458798	1.510682	-0.000179
 821	8.1590e+01	7.3313	47.357621	0.000436	4.357462	1.476348	-0.000174
 822	8.1689e+01	7.2993	47.131541	0.000567	5.674834	1.922686	-0.000227
 823	8.1789e+01	7.2335	46.905462	0.000567	5.674834	1.922686	-0.000227
 824	8.1888e+01	7.2062	46.764162	0.000355	3.546771	1.201679	-0.000142
 825	8.1988e+01	7.1725	46.594602	0.000426	4.256126	1.442014	-0.000170
 826	8.2088e+01	7.1324	46.352374	0.000608	6.080179	2.060021	-0.000243
 827	8.2187e+01	7.0795	46.190889	0.000405	4.053453	1.373347	-0.000162
 828	8.2287e+01	7.0474	45.997106	0.000486	4.864143	1.648016	-0.000195
 829	8.2386e+01	7.0137	45.827546	0.000426	4.256126	1.442014	-0.000170
 830	8.2486e+01	6.9704	45.605504	0.000557	5.573498	1.888352	-0.000223
 831	8.2585e+01	6.9271	45.448056	0.000395	3.952117	1.339013	-0.000158
 832	8.2684e+01	6.8934	45.270422	0.000446	4.458798	1.510682	-0.000179
 833	8.2784e+01	6.8404	45.088750	0.000456	4.560135	1.545015	-0.000183
 834	8.2883e+01	6.8116	44.923228	0.000415	4.154789	1.407681	-0.000166
 835	8.2983e+01	6.7763	44.737520	0.000466	4.661471	1.579349	-0.000187
 836	8.3082e+01	6.7265	44.559886	0.000446	4.458798	1.510682	-0.000179
 837	8.3182e+01	6.6752	44.333806	0.000567	5.674834	1.922686	-0.000227
 838	8.3281e+01	6.6511	44.208655	0.000314	3.141426	1.064344	-0.000126
 839	8.3381e+01	6.6094	43.978538	0.000578	5.776170	1.957020	-0.000231
 840	8.3481e+01	6.5741	43.720161	0.000649	6.485525	2.197355	-0.000260
 841	8.3580e+01	6.5244	43.494082	0.000567	5.674834	1.922686	-0.000227
 842	8.3680e+01	6.4891	43.320485	0.000436	4.357462	1.476348	-0.000174
 843	8.3779e+01	6.4570	43.138814	0.000456	4.560135	1.545015	-0.000183
 844	8.3879e+01	6.4217	42.936957	0.000507	5.066816	1.716684	-0.000203
 845	8.3978e+01	6.3672	42.775472	0.000405	4.053453	1.373347	-0.000162
 846	8.4078e+01	6.3399	42.573615	0.000507	5.066816	1.716684	-0.000203
 847	8.4177e+01	6.2870	42.387907	0.000466	4.661471	1.579349	-0.000187
 848	8.4276e+01	6.2549	42.182013	0.000517	5.168152	1.751017	-0.000207
 849	8.4376e+01	6.2164	42.008416	0.000436	4.357462	1.476348	-0.000174
 850	8.4475e+01	6.1683	41.786373	0.000557	5.573498	1.888352	-0.000223
 851	8.4575e+01	6.1378	41.624888	0.000405	4.053453	1.373347	-0.000162
 852	8.4674e+01	6.0784	41.471477	0.000385	3.850780	1.304680	-0.000154
 853	8.4774e+01	6.0528	41.281731	0.000476	4.762807	1.613683	-0.000191
 854	8.4874e+01	6.0159	41.063726	0.000547	5.472161	1.854018	-0.000219
 855	8.4973e+01	5.9694	40.865907	0.000497	4.965480	1.682350	-0.000199
 856	8.5073e+01	5.9405	40.651938	0.000537	5.370825	1.819685	-0.000215
 857	8.5172e+01	5.9004	40.474304	0.000446	4.458798	1.510682	-0.000179
 858	8.5272e+01	5.8667	40.232076	0.000608	6.080179	2.060021	-0.000243
 859	8.5371e+01	5.8234	40.050405	0.000456	4.560135	1.545015	-0.000183
 860	8.5471e+01	5.7752	39.812214	0.000598	5.978843	2.025687	-0.000239
 861	8.5570e+01	5.7399	39.630543	0.000456	4.560135	1.545015	-0.000183
 862	8.5669e+01	5.6998	39.432723	0.000497	4.965480	1.682350	-0.000199
 863	8.5769e+01	5.6613	39.206644	0.000567	5.674834	1.922686	-0.000227
 864	8.5868e+01	5.6164	39.041121	0.000415	4.154789	1.407681	-0.000166
 865	8.5968e+01	5.5843	38.806967	0.000588	5.877507	1.991353	-0.000235
 866	8.6067e+01	5.5378	38.645482	0.000405	4.053453	1.373347	-0.000162
 867	8.6167e+01	5.4849	38.411328	0.000588	5.877507	1.991353	-0.000235
 868	8.6266e+01	5.4640	38.257917	0.000385	3.850780	1.304680	-0.000154
 869	8.6366e+01	5.4095	38.031837	0.000567	5.674834	1.922686	-0.000227
 870	8.6466e+01	5.3710	37.846129	0.000466	4.661471	1.579349	-0.000187
 871	8.6565e+01	5.3309	37.684644	0.000405	4.053453	1.373347	-0.000162
 872	8.6665e+01	5.2956	37.474712	0.000527	5.269489	1.785351	-0.000211
 873	8.6764e+01	5.2539	37.268819	0.000517	5.168152	1.751017	-0.000207
 874	8.6864e+01	5.2234	37.062925	0.000517	5.168152	1.751017	-0.000207
 875	8.6963e+01	5.1785	36.861068	0.000507	5.066816	1.716684	-0.000203
 876	8.7063e+01	5.1400	36.659211	0.000507	5.066816	1.716684	-0.000203
 877	8.7162e+01	5.0999	36.433131	0.000567	5.674834	1.922686	-0.000227
 878	8.7261e+01	5.0630	36.178792	0.000638	6.384188	2.163022	-0.000256
 879	8.7361e+01	5.0180	35.997121	0.000456	4.560135	1.545015	-0.000183
 880	8.7460e+01	4.9763	35.811413	0.000466	4.661471	1.579349	-0.000187
 881	8.7560e+01	4.9346	35.605519	0.000517	5.168152	1.751017	-0.000207
 882	8.7659e+01	4.9009	35.435959	0.000426	4.256126	1.442014	-0.000170
 883	8.7759e+01	4.8576	35.177582	0.000649	6.485525	2.197355	-0.000260
 884	8.7859e+01	4.8207	34.967651	0.000527	5.269489	1.785351	-0.000211
 885	8.7958e+01	4.7710	34.769832	0.000497	4.965480	1.682350	-0.000199
 886	8.8058e+01	4.7325	34.596235	0.000436	4.357462	1.476348	-0.000174
 887	8.8157e+01	4.6892	34.374192	0.000557	5.573498	1.888352	-0.000223
 888	8.8257e+01	4.6699	34.240967	0.000334	3.344099	1.133011	-0.000134
 889	8.8356e+01	4.6170	33.978553	0.000659	6.586861	2.231689	-0.000264
 890	8.8456e+01	4.5817	33.817068	0.000405	4.053453	1.373347	-0.000162
 891	8.8555e+01	4.5432	33.595025	0.000557	5.573498	1.888352	-0.000223
 892	8.8654e+01	4.4983	33.429502	0.000415	4.154789	1.407681	-0.000166
 893	8.8754e+01	4.4566	33.203423	0.000567	5.674834	1.922686	-0.000227
 894	8.8853e+01	4.4181	32.977343	0.000567	5.674834	1.922686	-0.000227
 895	8.8953e+01	4.3844	32.803746	0.000436	4.357462	1.476348	-0.000174
 896	8.9052e+01	4.3475	32.541333	0.000659	6.586861	2.231689	-0.000264
 897	8.9152e+01	4.3042	32.335439	0.000517	5.168152	1.751017	-0.000207
 898	8.9251e+01	4.2528	32.101285	0.000588	5.877507	1.991353	-0.000235
 899	8.9351e+01	4.2288	31.903465	0.000497	4.965480	1.682350	-0.000199
 900	8.9451e+01	4.1790	31.709683	0.000486	4.864143	1.648016	-0.000195
 901	8.9550e+01	4.1453	31.483603	0.000567	5.674834	1.922686	-0.000227
 902	8.9650e+01	4.0924	31.277709	0.000517	5.168152	1.751017	-0.000207
 903	8.9749e+01	4.0603	31.055667	0.000557	5.573498	1.888352	-0.000223
 904	8.9849e+01	4.0170	30.857847	0.000497	4.965480	1.682350	-0.000199
 905	8.9948e+01	3.9785	30.680213	0.000446	4.458798	1.510682	-0.000179
 906	9.0047e+01	3.9480	30.474319	0.000517	5.168152	1.751017	-0.000207
 907	9.0147e+01	3.9047	30.328982	0.000365	3.648108	1.236012	-0.000146
 908	9.0246e+01	3.8582	30.078680	0.000628	6.282852	2.128688	-0.000252
 909	9.0346e+01	3.8245	29.856637	0.000557	5.573498	1.888352	-0.000223
 910	9.0445e+01	3.7828	29.707263	0.000375	3.749444	1.270346	-0.000150
 911	9.0545e+01	3.7363	29.469072	0.000598	5.978843	2.025687	-0.000239
 912	9.0644e+01	3.7042	29.259141	0.000527	5.269489	1.785351	-0.000211
 913	9.0744e+01	3.6560	29.029025	0.000578	5.776170	1.957020	-0.000231
 914	9.0844e+01	3.6256	28.750462	0.000699	6.992206	2.369024	-0.000280
 915	9.0943e+01	3.5903	28.556680	0.000486	4.864143	1.648016	-0.000195
 916	9.1043e+01	3.5389	28.350786	0.000517	5.168152	1.751017	-0.000207
 917	9.1142e+01	3.5101	28.161040	0.000476	4.762807	1.613683	-0.000191
 918	9.1242e+01	3.4667	27.902664	0.000649	6.485525	2.197355	-0.000260
 919	9.1341e+01	3.4298	27.729067	0.000436	4.357462	1.476348	-0.000174
 920	9.1441e+01	3.3849	27.502987	0.000567	5.674834	1.922686	-0.000227
 921	9.1540e+01	3.3512	27.305168	0.000497	4.965480	1.682350	-0.000199
 922	9.1639e+01	3.3127	27.095237	0.000527	5.269489	1.785351	-0.000211
 923	9.1739e+01	3.2646	26.897417	0.000497	4.965480	1.682350	-0.000199
 924	9.1838e+01	3.2309	26.699597	0.000497	4.965480	1.682350	-0.000199
 925	9.1938e+01	3.1892	26.538112	0.000405	4.053453	1.373347	-0.000162
 926	9.2037e+01	3.1475	26.287809	0.000628	6.282852	2.128688	-0.000252
 927	9.2137e+01	3.0994	26.130361	0.000395	3.952117	1.339013	-0.000158
 928	9.2237e+01	3.0609	25.920430	0.000527	5.269489	1.785351	-0.000211
 929	9.2336e+01	3.0208	25.714536	0.000517	5.168152	1.751017	-0.000207
 930	9.2436e+01	2.9807	25.500568	0.000537	5.370825	1.819685	-0.000215
 931	9.2535e+01	2.9438	25.294674	0.000517	5.168152	1.751017	-0.000207
 932	9.2635e+01	2.9117	25.064557	0.000578	5.776170	1.957020	-0.000231
 933	9.2734e+01	2.8652	24.814255	0.000628	6.282852	2.128688	-0.000252
 934	9.2834e+01	2.8363	24.576064	0.000598	5.978843	2.025687	-0.000239
 935	9.2933e+01	2.7866	24.402467	0.000436	4.357462	1.476348	-0.000174
 936	9.3032e+01	2.7432	24.180425	0.000557	5.573498	1.888352	-0.000223
 937	9.3132e+01	2.6967	23.994716	0.000466	4.661471	1.579349	-0.000187
 938	9.3231e+01	2.6646	23.760562	0.000588	5.877507	1.991353	-0.000235
 939	9.3331e+01	2.6245	23.562743	0.000497	4.965480	1.682350	-0.000199
 940	9.3430e+01	2.5892	23.352812	0.000527	5.269489	1.785351	-0.000211
 941	9.3530e+01	2.5491	23.154992	0.000497	4.965480	1.682350	-0.000199
 942	9.3629e+01	2.5058	22.957172	0.000497	4.965480	1.682350	-0.000199
 943	9.3729e+01	2.4721	22.759353	0.000497	4.965480	1.682350	-0.000199
 944	9.3829e+01	2.4320	22.601904	0.000395	3.952117	1.339013	-0.000158
 945	9.3928e+01	2.3871	22.396011	0.000517	5.168152	1.751017	-0.000207
 946	9.4028e+01	2.3406	22.173968	0.000557	5.573498	1.888352	-0.000223
 947	9.4127e+01	2.3085	21.980186	0.000486	4.864143	1.648016	-0.000195
 948	9.4227e+01	2.2572	21.758143	0.000557	5.573498	1.888352	-0.000223
 949	9.4326e+01	2.2251	21.568398	0.000476	4.762807	1.613683	-0.000191
 950	9.4425e+01	2.1898	21.322132	0.000618	6.181516	2.094354	-0.000248
 951	9.4525e+01	2.1481	21.108164	0.000537	5.370825	1.819685	-0.000215
 952	9.4624e+01	2.1064	20.821528	0.000719	7.194879	2.437691	-0.000288
 953	9.4724e+01	2.0663	20.651968	0.000426	4.256126	1.442014	-0.000170
 954	9.4823e+01	2.0310	20.466260	0.000466	4.661471	1.579349	-0.000187
 955	9.4923e+01	1.9892	20.207883	0.000649	6.485525	2.197355	-0.000260
 956	9.5022e+01	1.9427	20.030249	0.000446	4.458798	1.510682	-0.000179
 957	9.5122e+01	1.9155	19.836466	0.000486	4.864143	1.648016	-0.000195
 958	9.5222e+01	1.8737	19.638647	0.000497	4.965480	1.682350	-0.000199
 959	9.5321e+01	1.8256	19.420641	0.000547	5.472161	1.854018	-0.000219
 960	9.5421e+01	1.7871	19.194562	0.000567	5.674834	1.922686	-0.000227
 961	9.5520e+01	1.7438	19.004816	0.000476	4.762807	1.613683	-0.000191
 962	9.5620e+01	1.7133	18.839294	0.000415	4.154789	1.407681	-0.000166
 963	9.5719e+01	1.6732	18.633400	0.000517	5.168152	1.751017	-0.000207
 964	9.5819e+01	1.6299	18.411358	0.000557	5.573498	1.888352	-0.000223
 965	9.5918e+01	1.5834	18.225649	0.000466	4.661471	1.579349	-0.000187
 966	9.6017e+01	1.5497	18.035904	0.000476	4.762807	1.613683	-0.000191
 967	9.6117e+01	1.5128	17.797713	0.000598	5.978843	2.025687	-0.000239
 968	9.6216e+01	1.4695	17.612005	0.000466	4.661471	1.579349	-0.000187
 969	9.6316e+01	1.4294	17.373814	0.000598	5.978843	2.025687	-0.000239
 970	9.6415e+01	1.3973	17.163883	0.000527	5.269489	1.785351	-0.000211
 971	9.6515e+01	1.3540	16.925692	0.000598	5.978843	2.025687	-0.000239
 972	9.6615e+01	1.3139	16.707686	0.000547	5.472161	1.854018	-0.000219
 973	9.6714e+01	1.2706	16.489681	0.000547	5.472161	1.854018	-0.000219
 974	9.6814e+01	1.2321	16.291861	0.000497	4.965480	1.682350	-0.000199
 975	9.6913e+01	1.1935	16.118264	0.000436	4.357462	1.476348	-0.000174
 976	9.7013e+01	1.1470	15.876036	0.000608	6.080179	2.060021	-0.000243
 977	9.7112e+01	1.1085	15.686291	0.000476	4.762807	1.613683	-0.000191
 978	9.7212e+01	1.0684	15.468286	0.000547	5.472161	1.854018	-0.000219
 979	9.7311e+01	1.0379	15.254317	0.000537	5.370825	1.819685	-0.000215
 980	9.7410e+01	0.9898	15.060535	0.000486	4.864143	1.648016	-0.000195
 981	9.7510e+01	0.9433	14.907124	0.000385	3.850780	1.304680	-0.000154
 982	9.7609e+01	0.9080	14.697193	0.000527	5.269489	1.785351	-0.000211
 983	9.7709e+01	0.8695	14.483224	0.000537	5.370825	1.819685	-0.000215
 984	9.7808e+01	0.8342	14.245033	0.000598	5.978843	2.025687	-0.000239
 985	9.7908e+01	0.7829	14.091622	0.000385	3.850780	1.304680	-0.000154
 986	9.8007e+01	0.7540	13.889766	0.000507	5.066816	1.716684	-0.000203
 987	9.8107e+01	0.7171	13.659649	0.000578	5.776170	1.957020	-0.000231
 988	9.8207e+01	0.6770	13.385124	0.000689	6.890870	2.334690	-0.000276
 989	9.8306e+01	0.6481	13.183267	0.000507	5.066816	1.716684	-0.000203
 990	9.8406e+01	0.5952	13.001596	0.000456	4.560135	1.545015	-0.000183
 991	9.8505e+01	0.5599	12.775516	0.000567	5.674834	1.922686	-0.000227
 992	9.8605e+01	0.5085	12.573659	0.000507	5.066816	1.716684	-0.000203
 993	9.8704e+01	0.4684	12.351617	0.000557	5.573498	1.888352	-0.000223
 994	9.8803e+01	0.4331	12.182057	0.000426	4.256126	1.442014	-0.000170
 995	9.8903e+01	0.4011	11.911569	0.000679	6.789534	2.300356	-0.000272
 996	9.9002e+01	0.3610	11.750084	0.000405	4.053453	1.373347	-0.000162
 997	9.9102e+01	0.3112	11.552264	0.000497	4.965480	1.682350	-0.000199
 998	9.9201e+01	0.2679	11.326184	0.000567	5.674834	1.922686	-0.000227
 999	9.9301e+01	0.2326	11.144513	0.000456	4.560135	1.545015	-0.000183
1000	9.9400e+01	0.1941	10.950731	0.000486	4.864143	1.648016	-0.000195
1001	9.9500e+01	0.1556	10.769060	0.000456	4.560135	1.545015	-0.000183
1002	9.9600e+01	0.1059	10.542980	0.000567	5.674834	1.922686	-0.000227
1003	9.9699e+01	0.0802	10.333049	0.000527	5.269489	1.785351	-0.000211
1004	9.9799e+01	0.0305	10.167526	0.000415	4.154789	1.407681	-0.000166
1005	9.9898e+01	0.0016	9.985855	0.000456	4.560135	1.545015	-0.000183
1006	9.9998e+01	-0.0257	9.727479	0.000649	6.485525	2.197355	-0.000260
1007	1.0010e+02	-0.0642	9.517548	0.000527	5.269489	1.785351	-0.000211
1008	1.0020e+02	-0.1155	9.283394	0.000588	5.877507	1.991353	-0.000235
1009	1.0030e+02	-0.1588	9.057314	0.000567	5.674834	1.922686	-0.000227
1010	1.0040e+02	-0.1829	8.883717	0.000436	4.357462	1.476348	-0.000174
1011	1.0050e+02	-0.2342	8.677823	0.000517	5.168152	1.751017	-0.000207
1012	1.0059e+02	-0.2743	8.427521	0.000628	6.282852	2.128688	-0.000252
1013	1.0069e+02	-0.3048	8.249887	0.000446	4.458798	1.510682	-0.000179
1014	1.0079e+02	-0.3481	8.003622	0.000618	6.181516	2.094354	-0.000248
1015	1.0089e+02	-0.3962	7.813876	0.000476	4.762807	1.613683	-0.000191
1016	1.0099e+02	-0.4331	7.612019	0.000507	5.066816	1.716684	-0.000203
1017	1.0109e+02	-0.4732	7.422274	0.000476	4.762807	1.613683	-0.000191
1018	1.0119e+02	-0.5182	7.200232	0.000557	5.573498	1.888352	-0.000223
1019	1.0129e+02	-0.5486	7.038746	0.000405	4.053453	1.373347	-0.000162
1020	1.0139e+02	-0.5968	6.808629	0.000578	5.776170	1.957020	-0.000231
1021	1.0149e+02	-0.6289	6.622921	0.000466	4.661471	1.579349	-0.000187
1022	1.0159e+02	-0.6802	6.404916	0.000547	5.472161	1.854018	-0.000219
1023	1.0169e+02	-0.7059	6.207096	0.000497	4.965480	1.682350	-0.000199
1024	1.0179e+02	-0.7556	5.968905	0.000598	5.978843	2.025687	-0.000239
1025	1.0189e+02	-0.7973	5.742826	0.000567	5.674834	1.922686	-0.000227
1026	1.0199e+02	-0.8214	5.520783	0.000557	5.573498	1.888352	-0.000223
1027	1.0209e+02	-0.8759	5.327001	0.000486	4.864143	1.648016	-0.000195
1028	1.0219e+02	-0.9192	5.080735	0.000618	6.181516	2.094354	-0.000248
1029	1.0229e+02	-0.9449	4.826396	0.000638	6.384188	2.163022	-0.000256
1030	1.0239e+02	-0.9930	4.652799	0.000436	4.357462	1.476348	-0.000174
1031	1.0248e+02	-1.0379	4.418645	0.000588	5.877507	1.991353	-0.000235
1032	1.0258e+02	-1.0700	4.228900	0.000476	4.762807	1.613683	-0.000191
1033	1.0268e+02	-1.1165	4.031080	0.000497	4.965480	1.682350	-0.000199
1034	1.0278e+02	-1.1550	3.813075	0.000547	5.472161	1.854018	-0.000219
1035	1.0288e+02	-1.2016	3.582958	0.000578	5.776170	1.957020	-0.000231
1036	1.0298e+02	-1.2369	3.413398	0.000426	4.256126	1.442014	-0.000170
1037	1.0308e+02	-1.2802	3.195393	0.000547	5.472161	1.854018	-0.000219
1038	1.0318e+02	-1.3139	3.037945	0.000395	3.952117	1.339013	-0.000158
1039	1.0328e+02	-1.3540	2.823976	0.000537	5.370825	1.819685	-0.000215
1040	1.0338e+02	-1.3925	2.605971	0.000547	5.472161	1.854018	-0.000219
1041	1.0348e+02	-1.4278	2.404114	0.000507	5.066816	1.716684	-0.000203
1042	1.0358e+02	-1.4711	2.218406	0.000466	4.661471	1.579349	-0.000187
1043	1.0368e+02	-1.5112	1.976178	0.000608	6.080179	2.060021	-0.000243
1044	1.0378e+02	-1.5481	1.725876	0.000628	6.282852	2.128688	-0.000252
1045	1.0388e+02	-1.5882	1.515944	0.000527	5.269489	1.785351	-0.000211
1046	1.0398e+02	-1.6203	1.289865	0.000567	5.674834	1.922686	-0.000227
1047	1.0408e+02	-1.6764	1.055711	0.000588	5.877507	1.991353	-0.000235
1048	1.0418e+02	-1.7101	0.878077	0.000446	4.458798	1.510682	-0.000179
1049	1.0428e+02	-1.7406	0.684295	0.000486	4.864143	1.648016	-0.000195
1050	1.0438e+02	-1.7823	0.433992	0.000628	6.282852	2.128688	-0.000252
1051	1.0447e+02	-1.8288	0.187727	0.000618	6.181516	2.094354	-0.000248
1052	1.0457e+02	-1.8689	0.026241	0.000405	4.053453	1.373347	-0.000162
1053	1.0467e+02	-1.9090	-0.211950	0.000598	5.978843	2.025687	-0.000239
1054	1.0477e+02	-1.9459	-0.385546	0.000436	4.357462	1.476348	-0.000174
1055	1.0487e+02	-1.9892	-0.587403	0.000507	5.066816	1.716684	-0.000203
1056	1.0497e+02	-2.0294	-0.805409	0.000547	5.472161	1.854018	-0.000219
1057	1.0507e+02	-2.0775	-0.966894	0.000405	4.053453	1.373347	-0.000162
1058	1.0517e+02	-2.1015	-1.160677	0.000486	4.864143	1.648016	-0.000195
1059	1.0527e+02	-2.1465	-1.394830	0.000588	5.877507	1.991353	-0.000235
1060	1.0537e+02	-2.1882	-1.600724	0.000517	5.168152	1.751017	-0.000207
1061	1.0547e+02	-2.2251	-1.838915	0.000598	5.978843	2.025687	-0.000239
1062	1.0557e+02	-2.2700	-2.028661	0.000476	4.762807	1.613683	-0.000191
1063	1.0567e+02	-2.3069	-2.234555	0.000517	5.168152	1.751017	-0.000207
1064	1.0577e+02	-2.3502	-2.501006	0.000669	6.688197	2.266023	-0.000268
1065	1.0587e+02	-2.3855	-2.747271	0.000618	6.181516	2.094354	-0.000248
1066	1.0597e+02	-2.4336	-2.908756	0.000405	4.053453	1.373347	-0.000162
1067	1.0607e+02	-2.4625	-3.146947	0.000598	5.978843	2.025687	-0.000239
1068	1.0617e+02	-2.5154	-3.385138	0.000598	5.978843	2.025687	-0.000239
1069	1.0627e+02	-2.5443	-3.582958	0.000497	4.965480	1.682350	-0.000199
1070	1.0637e+02	-2.5876	-3.772703	0.000476	4.762807	1.613683	-0.000191
1071	1.0647e+02	-2.6325	-3.982634	0.000527	5.269489	1.785351	-0.000211
1072	1.0656e+02	-2.6727	-4.188528	0.000517	5.168152	1.751017	-0.000207
1073	1.0666e+02	-2.7095	-4.426719	0.000598	5.978843	2.025687	-0.000239
1074	1.0676e+02	-2.7464	-4.592242	0.000415	4.154789	1.407681	-0.000166
1075	1.0686e+02	-2.7882	-4.802173	0.000527	5.269489	1.785351	-0.000211
1076	1.0696e+02	-2.8283	-5.004030	0.000507	5.066816	1.716684	-0.000203
1077	1.0706e+02	-2.8652	-5.217998	0.000537	5.370825	1.819685	-0.000215
1078	1.0716e+02	-2.9053	-5.431966	0.000537	5.370825	1.819685	-0.000215
1079	1.0726e+02	-2.9438	-5.625749	0.000486	4.864143	1.648016	-0.000195
1080	1.0736e+02	-2.9759	-5.843754	0.000547	5.472161	1.854018	-0.000219
1081	1.0746e+02	-3.0176	-6.110205	0.000669	6.688197	2.266023	-0.000268
1082	1.0756e+02	-3.0657	-6.332247	0.000557	5.573498	1.888352	-0.000223
1083	1.0766e+02	-3.1010	-6.517956	0.000466	4.661471	1.579349	-0.000187
1084	1.0776e+02	-3.1411	-6.748072	0.000578	5.776170	1.957020	-0.000231
1085	1.0786e+02	-3.1828	-6.941855	0.000486	4.864143	1.648016	-0.000195
1086	1.0796e+02	-3.2261	-7.180046	0.000598	5.978843	2.025687	-0.000239
1087	1.0806e+02	-3.2710	-7.353643	0.000436	4.357462	1.476348	-0.000174
1088	1.0816e+02	-3.2983	-7.547425	0.000486	4.864143	1.648016	-0.000195
1089	1.0826e+02	-3.3432	-7.753319	0.000517	5.168152	1.751017	-0.000207
1090	1.0836e+02	-3.3833	-8.011696	0.000649	6.485525	2.197355	-0.000260
1091	1.0845e+02	-3.4298	-8.181256	0.000426	4.256126	1.442014	-0.000170
1092	1.0855e+02	-3.4667	-8.366964	0.000466	4.661471	1.579349	-0.000187
1093	1.0865e+02	-3.5069	-8.568821	0.000507	5.066816	1.716684	-0.000203
1094	1.0875e+02	-3.5502	-8.746455	0.000446	4.458798	1.510682	-0.000179
1095	1.0885e+02	-3.5871	-8.952348	0.000517	5.168152	1.751017	-0.000207
1096	1.0895e+02	-3.6240	-9.174391	0.000557	5.573498	1.888352	-0.000223
1097	1.0905e+02	-3.6641	-9.396433	0.000557	5.573498	1.888352	-0.000223
1098	1.0915e+02	-3.6978	-9.642699	0.000618	6.181516	2.094354	-0.000248
1099	1.0925e+02	-3.7347	-9.844555	0.000507	5.066816	1.716684	-0.000203
1100	1.0935e+02	-3.7828	-10.058524	0.000537	5.370825	1.819685	-0.000215
1101	1.0945e+02	-3.8181	-10.240195	0.000456	4.560135	1.545015	-0.000183
1102	1.0955e+02	-3.8470	-10.433977	0.000486	4.864143	1.648016	-0.000195
1103	1.0965e+02	-3.9063	-10.631797	0.000497	4.965480	1.682350	-0.000199
1104	1.0975e+02	-3.9416	-10.853839	0.000557	5.573498	1.888352	-0.000223
1105	1.0985e+02	-3.9785	-11.059733	0.000517	5.168152	1.751017	-0.000207
1106	1.0995e+02	-4.0170	-11.305999	0.000618	6.181516	2.094354	-0.000248
1107	1.1005e+02	-4.0507	-11.503818	0.000497	4.965480	1.682350	-0.000199
1108	1.1015e+02	-4.1004	-11.693564	0.000476	4.762807	1.613683	-0.000191
1109	1.1025e+02	-4.1373	-11.875235	0.000456	4.560135	1.545015	-0.000183
1110	1.1035e+02	-4.1774	-12.069017	0.000486	4.864143	1.648016	-0.000195
1111	1.1044e+02	-4.2239	-12.234540	0.000415	4.154789	1.407681	-0.000166
1112	1.1054e+02	-4.2608	-12.444471	0.000527	5.269489	1.785351	-0.000211
1113	1.1064e+02	-4.3074	-12.654402	0.000527	5.269489	1.785351	-0.000211
1114	1.1074e+02	-4.3539	-12.836073	0.000456	4.560135	1.545015	-0.000183
1115	1.1084e+02	-4.3747	-13.033893	0.000497	4.965480	1.682350	-0.000199
1116	1.1094e+02	-4.4052	-13.259972	0.000567	5.674834	1.922686	-0.000227
1117	1.1104e+02	-4.4614	-13.506238	0.000618	6.181516	2.094354	-0.000248
1118	1.1114e+02	-4.4983	-13.700020	0.000486	4.864143	1.648016	-0.000195
1119	1.1124e+02	-4.5432	-13.909951	0.000527	5.269489	1.785351	-0.000211
1120	1.1134e+02	-4.5705	-14.095659	0.000466	4.661471	1.579349	-0.000187
1121	1.1144e+02	-4.6218	-14.301553	0.000517	5.168152	1.751017	-0.000207
1122	1.1154e+02	-4.6603	-14.519559	0.000547	5.472161	1.854018	-0.000219
1123	1.1164e+02	-4.6908	-14.753713	0.000588	5.877507	1.991353	-0.000235
1124	1.1174e+02	-4.7373	-14.899049	0.000365	3.648108	1.236012	-0.000146
1125	1.1184e+02	-4.7774	-15.157426	0.000649	6.485525	2.197355	-0.000260
1126	1.1194e+02	-4.8127	-15.282577	0.000314	3.141426	1.064344	-0.000126
1127	1.1204e+02	-4.8624	-15.492508	0.000527	5.269489	1.785351	-0.000211
1128	1.1214e+02	-4.9041	-15.682254	0.000476	4.762807	1.613683	-0.000191
1129	1.1224e+02	-4.9458	-15.859888	0.000446	4.458798	1.510682	-0.000179
1130	1.1234e+02	-4.9795	-16.065782	0.000517	5.168152	1.751017	-0.000207
1131	1.1244e+02	-5.0261	-16.263601	0.000497	4.965480	1.682350	-0.000199
1132	1.1253e+02	-5.0630	-16.461421	0.000497	4.965480	1.682350	-0.000199
1133	1.1263e+02	-5.0934	-16.683463	0.000557	5.573498	1.888352	-0.000223
1134	1.1273e+02	-5.1400	-16.893394	0.000527	5.269489	1.785351	-0.000211
1135	1.1283e+02	-5.1817	-17.091214	0.000497	4.965480	1.682350	-0.000199
1136	1.1293e+02	-5.2234	-17.321331	0.000578	5.776170	1.957020	-0.000231
1137	1.1303e+02	-5.2490	-17.511076	0.000476	4.762807	1.613683	-0.000191
1138	1.1313e+02	-5.2924	-17.688710	0.000446	4.458798	1.510682	-0.000179
1139	1.1323e+02	-5.3437	-17.898641	0.000527	5.269489	1.785351	-0.000211
1140	1.1333e+02	-5.3758	-18.112609	0.000537	5.370825	1.819685	-0.000215
1141	1.1343e+02	-5.4127	-18.334652	0.000557	5.573498	1.888352	-0.000223
1142	1.1353e+02	-5.4416	-18.479989	0.000365	3.648108	1.236012	-0.000146
1143	1.1363e+02	-5.4993	-18.710106	0.000578	5.776170	1.957020	-0.000231
1144	1.1373e+02	-5.5426	-18.932148	0.000557	5.573498	1.888352	-0.000223
1145	1.1383e+02	-5.5763	-19.113819	0.000456	4.560135	1.545015	-0.000183
1146	1.1393e+02	-5.6228	-19.275305	0.000405	4.053453	1.373347	-0.000162
1147	1.1403e+02	-5.6517	-19.436790	0.000405	4.053453	1.373347	-0.000162
1148	1.1413e+02	-5.6966	-19.598275	0.000405	4.053453	1.373347	-0.000162
1149	1.1423e+02	-5.7367	-19.828392	0.000578	5.776170	1.957020	-0.000231
1150	1.1433e+02	-5.7736	-20.026212	0.000497	4.965480	1.682350	-0.000199
1151	1.1442e+02	-5.8073	-20.224031	0.000497	4.965480	1.682350	-0.000199
1152	1.1452e+02	-5.8458	-20.466260	0.000608	6.080179	2.060021	-0.000243
1153	1.1462e+02	-5.8907	-20.680228	0.000537	5.370825	1.819685	-0.000215
1154	1.1472e+02	-5.9308	-20.882085	0.000507	5.066816	1.716684	-0.000203
1155	1.1482e+02	-5.9758	-21.083941	0.000507	5.066816	1.716684	-0.000203
1156	1.1492e+02	-6.0143	-21.297910	0.000537	5.370825	1.819685	-0.000215
1157	1.1502e+02	-6.0576	-21.447284	0.000375	3.749444	1.270346	-0.000150
1158	1.1512e+02	-6.0977	-21.657215	0.000527	5.269489	1.785351	-0.000211
1159	1.1522e+02	-6.1282	-21.830812	0.000436	4.357462	1.476348	-0.000174
1160	1.1532e+02	-6.1731	-22.073040	0.000608	6.080179	2.060021	-0.000243
1161	1.1542e+02	-6.2132	-22.242599	0.000426	4.256126	1.442014	-0.000170
1162	1.1552e+02	-6.2581	-22.416196	0.000436	4.357462	1.476348	-0.000174
1163	1.1562e+02	-6.3094	-22.618053	0.000507	5.066816	1.716684	-0.000203
1164	1.1572e+02	-6.3399	-22.815873	0.000497	4.965480	1.682350	-0.000199
1165	1.1582e+02	-6.3736	-22.924875	0.000274	2.736081	0.927009	-0.000110
1166	1.1592e+02	-6.4169	-23.175178	0.000628	6.282852	2.128688	-0.000252
1167	1.1602e+02	-6.4522	-23.340700	0.000415	4.154789	1.407681	-0.000166
1168	1.1612e+02	-6.4859	-23.518334	0.000446	4.458798	1.510682	-0.000179
1169	1.1622e+02	-6.5244	-23.728265	0.000527	5.269489	1.785351	-0.000211
1170	1.1632e+02	-6.5677	-23.934159	0.000517	5.168152	1.751017	-0.000207
1171	1.1642e+02	-6.6126	-24.123905	0.000476	4.762807	1.613683	-0.000191
1172	1.1651e+02	-6.6431	-24.370170	0.000618	6.181516	2.094354	-0.000248
1173	1.1661e+02	-6.6977	-24.555878	0.000466	4.661471	1.579349	-0.000187
1174	1.1671e+02	-6.7217	-24.717364	0.000405	4.053453	1.373347	-0.000162
1175	1.1681e+02	-6.7715	-24.890960	0.000436	4.357462	1.476348	-0.000174
1176	1.1691e+02	-6.8019	-25.121077	0.000578	5.776170	1.957020	-0.000231
1177	1.1701e+02	-6.8469	-25.322934	0.000507	5.066816	1.716684	-0.000203
1178	1.1711e+02	-6.8838	-25.500568	0.000446	4.458798	1.510682	-0.000179
1179	1.1721e+02	-6.9271	-25.666090	0.000415	4.154789	1.407681	-0.000166
1180	1.1731e+02	-6.9624	-25.867947	0.000507	5.066816	1.716684	-0.000203
1181	1.1741e+02	-7.0137	-26.089990	0.000557	5.573498	1.888352	-0.000223
1182	1.1751e+02	-7.0474	-26.255512	0.000415	4.154789	1.407681	-0.000166
1183	1.1761e+02	-7.0891	-26.429109	0.000436	4.357462	1.476348	-0.000174
1184	1.1771e+02	-7.1276	-26.647114	0.000547	5.472161	1.854018	-0.000219
1185	1.1781e+02	-7.1693	-26.776303	0.000324	3.242762	1.098678	-0.000130
1186	1.1791e+02	-7.2094	-27.002382	0.000567	5.674834	1.922686	-0.000227
1187	1.1801e+02	-7.2479	-27.216351	0.000537	5.370825	1.819685	-0.000215
1188	1.1811e+02	-7.2864	-27.426282	0.000527	5.269489	1.785351	-0.000211
1189	1.1821e+02	-7.3265	-27.660436	0.000588	5.877507	1.991353	-0.000235
1190	1.1831e+02	-7.3682	-27.838069	0.000446	4.458798	1.510682	-0.000179
1191	1.1841e+02	-7.4019	-28.031852	0.000486	4.864143	1.648016	-0.000195
1192	1.1850e+02	-7.4452	-28.245820	0.000537	5.370825	1.819685	-0.000215
1193	1.1860e+02	-7.4837	-28.419417	0.000436	4.357462	1.476348	-0.000174
1194	1.1870e+02	-7.5255	-28.576865	0.000395	3.952117	1.339013	-0.000158
1195	1.1880e+02	-7.5656	-28.811019	0.000588	5.877507	1.991353	-0.000235
1196	1.1890e+02	-7.6121	-29.037099	0.000567	5.674834	1.922686	-0.000227
1197	1.1900e+02	-7.6490	-29.198584	0.000405	4.053453	1.373347	-0.000162
1198	1.1910e+02	-7.6907	-29.380255	0.000456	4.560135	1.545015	-0.000183
1199	1.1920e+02	-7.7292	-29.565964	0.000466	4.661471	1.579349	-0.000187
1200	1.1930e+02	-7.7581	-29.775895	0.000527	5.269489	1.785351	-0.000211
1201	1.1940e+02	-7.8094	-29.981789	0.000517	5.168152	1.751017	-0.000207
1202	1.1950e+02	-7.8367	-30.127125	0.000365	3.648108	1.236012	-0.000146
1203	1.1960e+02	-7.8864	-30.288611	0.000405	4.053453	1.373347	-0.000162
1204	1.1970e+02	-7.9233	-30.450096	0.000405	4.053453	1.373347	-0.000162
1205	1.1980e+02	-7.9570	-30.680213	0.000578	5.776170	1.957020	-0.000231
1206	1.1990e+02	-8.0019	-30.886107	0.000517	5.168152	1.751017	-0.000207
1207	1.2000e+02	-8.0420	-31.067778	0.000456	4.560135	1.545015	-0.000183
1208	1.2010e+02	-8.0725	-31.305969	0.000598	5.978843	2.025687	-0.000239
1209	1.2020e+02	-8.1222	-31.499752	0.000486	4.864143	1.648016	-0.000195
1210	1.2030e+02	-8.1639	-31.669311	0.000426	4.256126	1.442014	-0.000170
1211	1.2039e+02	-8.2057	-31.855020	0.000466	4.661471	1.579349	-0.000187
1212	1.2049e+02	-8.2442	-32.093211	0.000598	5.978843	2.025687	-0.000239
1213	1.2059e+02	-8.2778	-32.258733	0.000415	4.154789	1.407681	-0.000166
1214	1.2069e+02	-8.3196	-32.440404	0.000456	4.560135	1.545015	-0.000183
1215	1.2079e+02	-8.3629	-32.601890	0.000405	4.053453	1.373347	-0.000162
1216	1.2089e+02	-8.3982	-32.799709	0.000497	4.965480	1.682350	-0.000199
1217	1.2099e+02	-8.4383	-33.009640	0.000527	5.269489	1.785351	-0.000211
1218	1.2109e+02	-8.4768	-33.207460	0.000497	4.965480	1.682350	-0.000199
1219	1.2119e+02	-8.5249	-33.409317	0.000507	5.066816	1.716684	-0.000203
1220	1.2129e+02	-8.5666	-33.546579	0.000345	3.445435	1.167345	-0.000138
1221	1.2139e+02	-8.6083	-33.736325	0.000476	4.762807	1.613683	-0.000191
1222	1.2149e+02	-8.6468	-33.913959	0.000446	4.458798	1.510682	-0.000179
1223	1.2159e+02	-8.6805	-34.111778	0.000497	4.965480	1.682350	-0.000199
1224	1.2169e+02	-8.7318	-34.354007	0.000608	6.080179	2.060021	-0.000243
1225	1.2179e+02	-8.7527	-34.507418	0.000385	3.850780	1.304680	-0.000154
1226	1.2189e+02	-8.7912	-34.721386	0.000537	5.370825	1.819685	-0.000215
1227	1.2199e+02	-8.8329	-34.870760	0.000375	3.749444	1.270346	-0.000150
1228	1.2209e+02	-8.8842	-35.052431	0.000456	4.560135	1.545015	-0.000183
1229	1.2219e+02	-8.9115	-35.290622	0.000598	5.978843	2.025687	-0.000239
1230	1.2229e+02	-8.9580	-35.448070	0.000395	3.952117	1.339013	-0.000158
1231	1.2239e+02	-9.0046	-35.633779	0.000466	4.661471	1.579349	-0.000187
1232	1.2248e+02	-9.0366	-35.855821	0.000557	5.573498	1.888352	-0.000223
1233	1.2258e+02	-9.0816	-36.057678	0.000507	5.066816	1.716684	-0.000203
1234	1.2268e+02	-9.1217	-36.263572	0.000517	5.168152	1.751017	-0.000207
1235	1.2278e+02	-9.1586	-36.416983	0.000385	3.850780	1.304680	-0.000154
1236	1.2288e+02	-9.2035	-36.594617	0.000446	4.458798	1.510682	-0.000179
1237	1.2298e+02	-9.2404	-36.768214	0.000436	4.357462	1.476348	-0.000174
1238	1.2308e+02	-9.2677	-36.990256	0.000557	5.573498	1.888352	-0.000223
1239	1.2318e+02	-9.3222	-37.180002	0.000476	4.762807	1.613683	-0.000191
1240	1.2328e+02	-9.3607	-37.353598	0.000436	4.357462	1.476348	-0.000174
1241	1.2338e+02	-9.3880	-37.498935	0.000365	3.648108	1.236012	-0.000146
1242	1.2348e+02	-9.4361	-37.720978	0.000557	5.573498	1.888352	-0.000223
1243	1.2358e+02	-9.4682	-37.902649	0.000456	4.560135	1.545015	-0.000183
1244	1.2368e+02	-9.5195	-38.144877	0.000608	6.080179	2.060021	-0.000243
1245	1.2378e+02	-9.5548	-38.318474	0.000436	4.357462	1.476348	-0.000174
1246	1.2388e+02	-9.6029	-38.500145	0.000456	4.560135	1.545015	-0.000183
1247	1.2398e+02	-9.6382	-38.702002	0.000507	5.066816	1.716684	-0.000203
1248	1.2408e+02	-9.6767	-38.867524	0.000415	4.154789	1.407681	-0.000166
1249	1.2418e+02	-9.7200	-39.033047	0.000415	4.154789	1.407681	-0.000166
1250	1.2428e+02	-9.7553	-39.218755	0.000466	4.661471	1.579349	-0.000187
1251	1.2438e+02	-9.8051	-39.412538	0.000486	4.864143	1.648016	-0.000195
1252	1.2447e+02	-9.8404	-39.622469	0.000527	5.269489	1.785351	-0.000211
1253	1.2457e+02	-9.8757	-39.836437	0.000537	5.370825	1.819685	-0.000215
1254	1.2467e+02	-9.9158	-39.989848	0.000385	3.850780	1.304680	-0.000154
1255	1.2477e+02	-9.9591	-40.195742	0.000517	5.168152	1.751017	-0.000207
1256	1.2487e+02	-9.9992	-40.361265	0.000415	4.154789	1.407681	-0.000166
1257	1.2497e+02	-10.0345	-40.526787	0.000415	4.154789	1.407681	-0.000166
1258	1.2507e+02	-10.0762	-40.680198	0.000385	3.850780	1.304680	-0.000154
1259	1.2517e+02	-10.1115	-40.918389	0.000598	5.978843	2.025687	-0.000239
1260	1.2527e+02	-10.1516	-41.104098	0.000466	4.661471	1.579349	-0.000187
1261	1.2537e+02	-10.2013	-41.285769	0.000456	4.560135	1.545015	-0.000183
1262	1.2547e+02	-10.2366	-41.463403	0.000446	4.458798	1.510682	-0.000179
1263	1.2557e+02	-10.2751	-41.669297	0.000517	5.168152	1.751017	-0.000207
1264	1.2567e+02	-10.3168	-41.814633	0.000365	3.648108	1.236012	-0.000146
1265	1.2577e+02	-10.3505	-42.024564	0.000527	5.269489	1.785351	-0.000211
1266	1.2587e+02	-10.3906	-42.186050	0.000405	4.053453	1.373347	-0.000162
1267	1.2597e+02	-10.4339	-42.408092	0.000557	5.573498	1.888352	-0.000223
1268	1.2607e+02	-10.4869	-42.545355	0.000345	3.445435	1.167345	-0.000138
1269	1.2617e+02	-10.5141	-42.678580	0.000334	3.344099	1.133011	-0.000134
1270	1.2627e+02	-10.5494	-42.920809	0.000608	6.080179	2.060021	-0.000243
1271	1.2636e+02	-10.5944	-43.102480	0.000456	4.560135	1.545015	-0.000183
1272	1.2646e+02	-10.6296	-43.255891	0.000385	3.850780	1.304680	-0.000154
1273	1.2656e+02	-10.6810	-43.409302	0.000385	3.850780	1.304680	-0.000154
1274	1.2666e+02	-10.7227	-43.627307	0.000547	5.472161	1.854018	-0.000219
1275	1.2676e+02	-10.7516	-43.845313	0.000547	5.472161	1.854018	-0.000219
1276	1.2686e+02	-10.7933	-43.990650	0.000365	3.648108	1.236012	-0.000146
1277	1.2696e+02	-10.8254	-44.140024	0.000375	3.749444	1.270346	-0.000150
1278	1.2706e+02	-10.8719	-44.362066	0.000557	5.573498	1.888352	-0.000223
1279	1.2716e+02	-10.9104	-44.539700	0.000446	4.458798	1.510682	-0.000179
1280	1.2726e+02	-10.9537	-44.685037	0.000365	3.648108	1.236012	-0.000146
1281	1.2736e+02	-10.9842	-44.894968	0.000527	5.269489	1.785351	-0.000211
1282	1.2746e+02	-11.0291	-45.088750	0.000486	4.864143	1.648016	-0.000195
1283	1.2756e+02	-11.0692	-45.226013	0.000345	3.445435	1.167345	-0.000138
1284	1.2766e+02	-11.1061	-45.431907	0.000517	5.168152	1.751017	-0.000207
1285	1.2776e+02	-11.1623	-45.593392	0.000405	4.053453	1.373347	-0.000162
1286	1.2786e+02	-11.1927	-45.762952	0.000426	4.256126	1.442014	-0.000170
1287	1.2796e+02	-11.2280	-45.936549	0.000436	4.357462	1.476348	-0.000174
1288	1.2806e+02	-11.2713	-46.098034	0.000405	4.053453	1.373347	-0.000162
1289	1.2816e+02	-11.3114	-46.299891	0.000507	5.066816	1.716684	-0.000203
1290	1.2826e+02	-11.3499	-46.489637	0.000476	4.762807	1.613683	-0.000191
1291	1.2835e+02	-11.3901	-46.610751	0.000304	3.040090	1.030010	-0.000122
1292	1.2845e+02	-11.4189	-46.832793	0.000557	5.573498	1.888352	-0.000223
1293	1.2855e+02	-11.4783	-47.022539	0.000476	4.762807	1.613683	-0.000191
1294	1.2865e+02	-11.5072	-47.196135	0.000436	4.357462	1.476348	-0.000174
1295	1.2875e+02	-11.5489	-47.349547	0.000385	3.850780	1.304680	-0.000154
1296	1.2885e+02	-11.5858	-47.502958	0.000385	3.850780	1.304680	-0.000154
1297	1.2895e+02	-11.6243	-47.692703	0.000476	4.762807	1.613683	-0.000191
1298	1.2905e+02	-11.6772	-47.906671	0.000537	5.370825	1.819685	-0.000215
1299	1.2915e+02	-11.7061	-48.084305	0.000446	4.458798	1.510682	-0.000179
1300	1.2925e+02	-11.7398	-48.290199	0.000517	5.168152	1.751017	-0.000207
1301	1.2935e+02	-11.7863	-48.415350	0.000314	3.141426	1.064344	-0.000126
1302	1.2945e+02	-11.8264	-48.580873	0.000415	4.154789	1.407681	-0.000166
1303	1.2955e+02	-11.8649	-48.722173	0.000355	3.546771	1.201679	-0.000142
1304	1.2965e+02	-11.9082	-48.887695	0.000415	4.154789	1.407681	-0.000166
1305	1.2975e+02	-11.9483	-49.073403	0.000466	4.661471	1.579349	-0.000187
1306	1.2985e+02	-11.9981	-49.275260	0.000507	5.066816	1.716684	-0.000203
1307	1.2995e+02	-12.0301	-49.432709	0.000395	3.952117	1.339013	-0.000158
1308	1.3005e+02	-12.0686	-49.622454	0.000476	4.762807	1.613683	-0.000191
1309	1.3015e+02	-12.1023	-49.800088	0.000446	4.458798	1.510682	-0.000179
1310	1.3025e+02	-12.1408	-49.965610	0.000415	4.154789	1.407681	-0.000166
1311	1.3034e+02	-12.1874	-50.155356	0.000476	4.762807	1.613683	-0.000191
1312	1.3044e+02	-12.2339	-50.341064	0.000466	4.661471	1.579349	-0.000187
1313	1.3054e+02	-12.2612	-50.550995	0.000527	5.269489	1.785351	-0.000211
1314	1.3064e+02	-12.2997	-50.712481	0.000405	4.053453	1.373347	-0.000162
1315	1.3074e+02	-12.3430	-50.882040	0.000426	4.256126	1.442014	-0.000170
1316	1.3084e+02	-12.3815	-50.982969	0.000253	2.533408	0.858342	-0.000101
1317	1.3094e+02	-12.4232	-51.168677	0.000466	4.661471	1.579349	-0.000187
1318	1.3104e+02	-12.4665	-51.338237	0.000426	4.256126	1.442014	-0.000170
1319	1.3114e+02	-12.5082	-51.479536	0.000355	3.546771	1.201679	-0.000142
1320	1.3124e+02	-12.5515	-51.649096	0.000426	4.256126	1.442014	-0.000170
1321	1.3134e+02	-12.5884	-51.850953	0.000507	5.066816	1.716684	-0.000203
1322	1.3144e+02	-12.6237	-51.988215	0.000345	3.445435	1.167345	-0.000138
1323	1.3154e+02	-12.6686	-52.177961	0.000476	4.762807	1.613683	-0.000191
1324	1.3164e+02	-12.7023	-52.359632	0.000456	4.560135	1.545015	-0.000183
1325	1.3174e+02	-12.7472	-52.509006	0.000375	3.749444	1.270346	-0.000150
1326	1.3184e+02	-12.7841	-52.686640	0.000446	4.458798	1.510682	-0.000179
1327	1.3194e+02	-12.8210	-52.884460	0.000497	4.965480	1.682350	-0.000199
1328	1.3204e+02	-12.8676	-53.029796	0.000365	3.648108	1.236012	-0.000146
1329	1.3214e+02	-12.9044	-53.215505	0.000466	4.661471	1.579349	-0.000187
1330	1.3224e+02	-12.9430	-53.372953	0.000395	3.952117	1.339013	-0.000158
1331	1.3234e+02	-12.9847	-53.574810	0.000507	5.066816	1.716684	-0.000203
1332	1.3243e+02	-13.0216	-53.732258	0.000395	3.952117	1.339013	-0.000158
1333	1.3253e+02	-13.0585	-53.917966	0.000466	4.661471	1.579349	-0.000187
1334	1.3263e+02	-13.1066	-54.075415	0.000395	3.952117	1.339013	-0.000158
1335	1.3273e+02	-13.1371	-54.216714	0.000355	3.546771	1.201679	-0.000142
1336	1.3283e+02	-13.1884	-54.374163	0.000395	3.952117	1.339013	-0.000158
1337	1.3293e+02	-13.2157	-54.535648	0.000405	4.053453	1.373347	-0.000162
1338	1.3303e+02	-13.2654	-54.721356	0.000466	4.661471	1.579349	-0.000187
1339	1.3313e+02	-13.2943	-54.886879	0.000415	4.154789	1.407681	-0.000166
1340	1.3323e+02	-13.3328	-55.028179	0.000355	3.546771	1.201679	-0.000142
1341	1.3333e+02	-13.3841	-55.185627	0.000395	3.952117	1.339013	-0.000158
1342	1.3343e+02	-13.4194	-55.383447	0.000497	4.965480	1.682350	-0.000199
1343	1.3353e+02	-13.4643	-55.569155	0.000466	4.661471	1.579349	-0.000187
1344	1.3363e+02	-13.5125	-55.718529	0.000375	3.749444	1.270346	-0.000150
1345	1.3373e+02	-13.5365	-55.888089	0.000426	4.256126	1.442014	-0.000170
1346	1.3383e+02	-13.5846	-56.081871	0.000486	4.864143	1.648016	-0.000195
1347	1.3393e+02	-13.6215	-56.235282	0.000385	3.850780	1.304680	-0.000154
1348	1.3403e+02	-13.6633	-56.412916	0.000446	4.458798	1.510682	-0.000179
1349	1.3413e+02	-13.6937	-56.622847	0.000527	5.269489	1.785351	-0.000211
1350	1.3423e+02	-13.7354	-56.788370	0.000415	4.154789	1.407681	-0.000166
1351	1.3432e+02	-13.7916	-56.949855	0.000405	4.053453	1.373347	-0.000162
1352	1.3442e+02	-13.8237	-57.123452	0.000436	4.357462	1.476348	-0.000174
1353	1.3452e+02	-13.8622	-57.256678	0.000334	3.344099	1.133011	-0.000134
1354	1.3462e+02	-13.9103	-57.414126	0.000395	3.952117	1.339013	-0.000158
1355	1.3472e+02	-13.9392	-57.555426	0.000355	3.546771	1.201679	-0.000142
1356	1.3482e+02	-13.9841	-57.712874	0.000395	3.952117	1.339013	-0.000158
1357	1.3492e+02	-14.0226	-57.850137	0.000345	3.445435	1.167345	-0.000138
1358	1.3502e+02	-14.0579	-58.092365	0.000608	6.080179	2.060021	-0.000243
1359	1.3512e+02	-14.1012	-58.241739	0.000375	3.749444	1.270346	-0.000150
1360	1.3522e+02	-14.1477	-58.447633	0.000517	5.168152	1.751017	-0.000207
1361	1.3532e+02	-14.1798	-58.564710	0.000294	2.938753	0.995677	-0.000118
1362	1.3542e+02	-14.2183	-58.746381	0.000456	4.560135	1.545015	-0.000183
1363	1.3552e+02	-14.2648	-58.944200	0.000497	4.965480	1.682350	-0.000199
1364	1.3562e+02	-14.3065	-59.085500	0.000355	3.546771	1.201679	-0.000142
1365	1.3572e+02	-14.3274	-59.275245	0.000476	4.762807	1.613683	-0.000191
1366	1.3582e+02	-14.3611	-59.440768	0.000415	4.154789	1.407681	-0.000166
1367	1.3592e+02	-14.4124	-59.642625	0.000507	5.066816	1.716684	-0.000203
1368	1.3602e+02	-14.4590	-59.836407	0.000486	4.864143	1.648016	-0.000195
1369	1.3612e+02	-14.5087	-59.949447	0.000284	2.837417	0.961343	-0.000114
1370	1.3622e+02	-14.5343	-60.163415	0.000537	5.370825	1.819685	-0.000215
1371	1.3631e+02	-14.5761	-60.300678	0.000345	3.445435	1.167345	-0.000138
1372	1.3641e+02	-14.6242	-60.486386	0.000466	4.661471	1.579349	-0.000187
1373	1.3651e+02	-14.6627	-60.587315	0.000253	2.533408	0.858342	-0.000101
1374	1.3661e+02	-14.6980	-60.773023	0.000466	4.661471	1.579349	-0.000187
1375	1.3671e+02	-14.7333	-60.922397	0.000375	3.749444	1.270346	-0.000150
1376	1.3681e+02	-14.7830	-61.104068	0.000456	4.560135	1.545015	-0.000183
1377	1.3691e+02	-14.8215	-61.285739	0.000456	4.560135	1.545015	-0.000183
1378	1.3701e+02	-14.8584	-61.439150	0.000385	3.850780	1.304680	-0.000154
1379	1.3711e+02	-14.8985	-61.576413	0.000345	3.445435	1.167345	-0.000138
1380	1.3721e+02	-14.9322	-61.762121	0.000466	4.661471	1.579349	-0.000187
1381	1.3731e+02	-14.9723	-61.927644	0.000415	4.154789	1.407681	-0.000166
1382	1.3741e+02	-15.0204	-62.133538	0.000517	5.168152	1.751017	-0.000207
1383	1.3751e+02	-15.0541	-62.278874	0.000365	3.648108	1.236012	-0.000146
1384	1.3761e+02	-15.0942	-62.456508	0.000446	4.458798	1.510682	-0.000179
1385	1.3771e+02	-15.1343	-62.638180	0.000456	4.560135	1.545015	-0.000183
1386	1.3781e+02	-15.1728	-62.811776	0.000436	4.357462	1.476348	-0.000174
1387	1.3791e+02	-15.2194	-62.981336	0.000426	4.256126	1.442014	-0.000170
1388	1.3801e+02	-15.2546	-63.175119	0.000486	4.864143	1.648016	-0.000195
1389	1.3811e+02	-15.2980	-63.304307	0.000324	3.242762	1.098678	-0.000130
1390	1.3821e+02	-15.3300	-63.441570	0.000345	3.445435	1.167345	-0.000138
1391	1.3831e+02	-15.3782	-63.582869	0.000355	3.546771	1.201679	-0.000142
1392	1.3840e+02	-15.4183	-63.784726	0.000507	5.066816	1.716684	-0.000203
1393	1.3850e+02	-15.4520	-63.901803	0.000294	2.938753	0.995677	-0.000118
1394	1.3860e+02	-15.4969	-64.083474	0.000456	4.560135	1.545015	-0.000183
1395	1.3870e+02	-15.5306	-64.248997	0.000415	4.154789	1.407681	-0.000166
1396	1.3880e+02	-15.5739	-64.446816	0.000497	4.965480	1.682350	-0.000199
1397	1.3890e+02	-15.6172	-64.576005	0.000324	3.242762	1.098678	-0.000130
1398	1.3900e+02	-15.6557	-64.773824	0.000497	4.965480	1.682350	-0.000199
1399	1.3910e+02	-15.6942	-64.923198	0.000375	3.749444	1.270346	-0.000150
1400	1.3920e+02	-15.7311	-65.133129	0.000527	5.269489	1.785351	-0.000211
1401	1.3930e+02	-15.7760	-65.282503	0.000375	3.749444	1.270346	-0.000150
1402	1.3940e+02	-15.8033	-65.435915	0.000385	3.850780	1.304680	-0.000154
1403	1.3950e+02	-15.8450	-65.601437	0.000415	4.154789	1.407681	-0.000166
1404	1.3960e+02	-15.8915	-65.831554	0.000578	5.776170	1.957020	-0.000231
1405	1.3970e+02	-15.9364	-65.944594	0.000284	2.837417	0.961343	-0.000114
1406	1.3980e+02	-15.9717	-66.102042	0.000395	3.952117	1.339013	-0.000158
1407	1.3990e+02	-16.0167	-66.283713	0.000456	4.560135	1.545015	-0.000183
1408	1.4000e+02	-16.0520	-66.465384	0.000456	4.560135	1.545015	-0.000183
1409	1.4010e+02	-16.1017	-66.590535	0.000314	3.141426	1.064344	-0.000126
1410	1.4020e+02	-16.1338	-66.731835	0.000355	3.546771	1.201679	-0.000142
1411	1.4029e+02	-16.1675	-66.921581	0.000476	4.762807	1.613683	-0.000191
1412	1.4039e+02	-16.2140	-67.070955	0.000375	3.749444	1.270346	-0.000150
1413	1.4049e+02	-16.2509	-67.212254	0.000355	3.546771	1.201679	-0.000142
1414	1.4059e+02	-16.2830	-67.434297	0.000557	5.573498	1.888352	-0.000223
1415	1.4069e+02	-16.3295	-67.575597	0.000355	3.546771	1.201679	-0.000142
1416	1.4079e+02	-16.3776	-67.773416	0.000497	4.965480	1.682350	-0.000199
1417	1.4089e+02	-16.4049	-67.975273	0.000507	5.066816	1.716684	-0.000203
1418	1.4099e+02	-16.4450	-68.124647	0.000375	3.749444	1.270346	-0.000150
1419	1.4109e+02	-16.4915	-68.269984	0.000365	3.648108	1.236012	-0.000146
1420	1.4119e+02	-16.5332	-68.435506	0.000415	4.154789	1.407681	-0.000166
1421	1.4129e+02	-16.5637	-68.605066	0.000426	4.256126	1.442014	-0.000170
1422	1.4139e+02	-16.6150	-68.774626	0.000426	4.256126	1.442014	-0.000170
1423	1.4149e+02	-16.6519	-68.919963	0.000365	3.648108	1.236012	-0.000146
1424	1.4159e+02	-16.6920	-69.125857	0.000517	5.168152	1.751017	-0.000207
1425	1.4169e+02	-16.7257	-69.246971	0.000304	3.040090	1.030010	-0.000122
1426	1.4179e+02	-16.7674	-69.460939	0.000537	5.370825	1.819685	-0.000215
1427	1.4189e+02	-16.8059	-69.553793	0.000233	2.330735	0.789675	-0.000093
1428	1.4199e+02	-16.8557	-69.731427	0.000446	4.458798	1.510682	-0.000179
1429	1.4209e+02	-16.8829	-69.888875	0.000395	3.952117	1.339013	-0.000158
1430	1.4219e+02	-16.9279	-70.030175	0.000355	3.546771	1.201679	-0.000142
1431	1.4228e+02	-16.9664	-70.211846	0.000456	4.560135	1.545015	-0.000183
1432	1.4238e+02	-17.0017	-70.365257	0.000385	3.850780	1.304680	-0.000154
1433	1.4248e+02	-17.0418	-70.526743	0.000405	4.053453	1.373347	-0.000162
1434	1.4258e+02	-17.0867	-70.708414	0.000456	4.560135	1.545015	-0.000183
1435	1.4268e+02	-17.1252	-70.906234	0.000497	4.965480	1.682350	-0.000199
1436	1.4278e+02	-17.1653	-71.079830	0.000436	4.357462	1.476348	-0.000174
1437	1.4288e+02	-17.2022	-71.221130	0.000355	3.546771	1.201679	-0.000142
1438	1.4298e+02	-17.2391	-71.398764	0.000446	4.458798	1.510682	-0.000179
1439	1.4308e+02	-17.2824	-71.564287	0.000415	4.154789	1.407681	-0.000166
1440	1.4318e+02	-17.3273	-71.721735	0.000395	3.952117	1.339013	-0.000158
1441	1.4328e+02	-17.3706	-71.875146	0.000385	3.850780	1.304680	-0.000154
1442	1.4338e+02	-17.4188	-72.032594	0.000395	3.952117	1.339013	-0.000158
1443	1.4348e+02	-17.4573	-72.198117	0.000415	4.154789	1.407681	-0.000166
1444	1.4358e+02	-17.4845	-72.327305	0.000324	3.242762	1.098678	-0.000130
1445	1.4368e+02	-17.5230	-72.484754	0.000395	3.952117	1.339013	-0.000158
1446	1.4378e+02	-17.5647	-72.626053	0.000355	3.546771	1.201679	-0.000142
1447	1.4388e+02	-17.6032	-72.807724	0.000456	4.560135	1.545015	-0.000183
1448	1.4398e+02	-17.6417	-72.892504	0.000213	2.128063	0.721007	-0.000085
1449	1.4408e+02	-17.6899	-73.142807	0.000628	6.282852	2.128688	-0.000252
1450	1.4418e+02	-17.7252	-73.304292	0.000405	4.053453	1.373347	-0.000162
1451	1.4428e+02	-17.7573	-73.490000	0.000466	4.661471	1.579349	-0.000187
1452	1.4437e+02	-17.8070	-73.599003	0.000274	2.736081	0.927009	-0.000110
1453	1.4447e+02	-17.8407	-73.817008	0.000547	5.472161	1.854018	-0.000219
1454	1.4457e+02	-17.8695	-73.946197	0.000324	3.242762	1.098678	-0.000130
1455	1.4467e+02	-17.9241	-74.099608	0.000385	3.850780	1.304680	-0.000154
1456	1.4477e+02	-17.9690	-74.293390	0.000486	4.864143	1.648016	-0.000195
1457	1.4487e+02	-18.0059	-74.426616	0.000334	3.344099	1.133011	-0.000134
1458	1.4497e+02	-18.0428	-74.616361	0.000476	4.762807	1.613683	-0.000191
1459	1.4507e+02	-18.0749	-74.834367	0.000547	5.472161	1.854018	-0.000219
1460	1.4517e+02	-18.1150	-74.923184	0.000223	2.229399	0.755341	-0.000089
1461	1.4527e+02	-18.1615	-75.108892	0.000466	4.661471	1.579349	-0.000187
1462	1.4537e+02	-18.2016	-75.266340	0.000395	3.952117	1.339013	-0.000158
1463	1.4547e+02	-18.2401	-75.375343	0.000274	2.736081	0.927009	-0.000110
1464	1.4557e+02	-18.2866	-75.548940	0.000436	4.357462	1.476348	-0.000174
1465	1.4567e+02	-18.3203	-75.694277	0.000365	3.648108	1.236012	-0.000146
1466	1.4577e+02	-18.3701	-75.847688	0.000385	3.850780	1.304680	-0.000154
1467	1.4587e+02	-18.3989	-76.013210	0.000415	4.154789	1.407681	-0.000166
1468	1.4597e+02	-18.4310	-76.182770	0.000426	4.256126	1.442014	-0.000170
1469	1.4607e+02	-18.4743	-76.372515	0.000476	4.762807	1.613683	-0.000191
1470	1.4617e+02	-18.5177	-76.558224	0.000466	4.661471	1.579349	-0.000187
1471	1.4626e+02	-18.5642	-76.715672	0.000395	3.952117	1.339013	-0.000158
1472	1.4636e+02	-18.5979	-76.905417	0.000476	4.762807	1.613683	-0.000191
1473	1.4646e+02	-18.6364	-77.074977	0.000426	4.256126	1.442014	-0.000170
1474	1.4656e+02	-18.6845	-77.232425	0.000395	3.952117	1.339013	-0.000158
1475	1.4666e+02	-18.7166	-77.401985	0.000426	4.256126	1.442014	-0.000170
1476	1.4676e+02	-18.7631	-77.535210	0.000334	3.344099	1.133011	-0.000134
1477	1.4686e+02	-18.8096	-77.728993	0.000486	4.864143	1.648016	-0.000195
1478	1.4696e+02	-18.8401	-77.866256	0.000345	3.445435	1.167345	-0.000138
1479	1.4706e+02	-18.8818	-78.068112	0.000507	5.066816	1.716684	-0.000203
1480	1.4716e+02	-18.9187	-78.197301	0.000324	3.242762	1.098678	-0.000130
1481	1.4726e+02	-18.9636	-78.350712	0.000385	3.850780	1.304680	-0.000154
1482	1.4736e+02	-19.0037	-78.475863	0.000314	3.141426	1.064344	-0.000126
1483	1.4746e+02	-19.0471	-78.661571	0.000466	4.661471	1.579349	-0.000187
1484	1.4756e+02	-19.0840	-78.782685	0.000304	3.040090	1.030010	-0.000122
1485	1.4766e+02	-19.1209	-78.980505	0.000497	4.965480	1.682350	-0.000199
1486	1.4776e+02	-19.1513	-79.141990	0.000405	4.053453	1.373347	-0.000162
1487	1.4786e+02	-19.2043	-79.311550	0.000426	4.256126	1.442014	-0.000170
1488	1.4796e+02	-19.2460	-79.513407	0.000507	5.066816	1.716684	-0.000203
1489	1.4806e+02	-19.2781	-79.666818	0.000385	3.850780	1.304680	-0.000154
1490	1.4816e+02	-19.3118	-79.852526	0.000466	4.661471	1.579349	-0.000187
1491	1.4825e+02	-19.3567	-80.014012	0.000405	4.053453	1.373347	-0.000162
1492	1.4835e+02	-19.4000	-80.147237	0.000334	3.344099	1.133011	-0.000134
1493	1.4845e+02	-19.4433	-80.324871	0.000446	4.458798	1.510682	-0.000179
1494	1.4855e+02	-19.4609	-80.518654	0.000486	4.864143	1.648016	-0.000195
1495	1.4865e+02	-19.5123	-80.627656	0.000274	2.736081	0.927009	-0.000110
1496	1.4875e+02	-19.5540	-80.837587	0.000527	5.269489	1.785351	-0.000211
1497	1.4885e+02	-19.6021	-80.978887	0.000355	3.546771	1.201679	-0.000142
1498	1.4895e+02	-19.6438	-81.164595	0.000466	4.661471	1.579349	-0.000187
1499	1.4905e+02	-19.6823	-81.285710	0.000304	3.040090	1.030010	-0.000122
1500	1.4915e+02	-19.7176	-81.463343	0.000446	4.458798	1.510682	-0.000179
1501	1.4925e+02	-19.7513	-81.620792	0.000395	3.952117	1.339013	-0.000158
1502	1.4935e+02	-19.7994	-81.770166	0.000375	3.749444	1.270346	-0.000150
1503	1.4945e+02	-19.8428	-81.972023	0.000507	5.066816	1.716684	-0.000203
1504	1.4955e+02	-19.8684	-82.149657	0.000446	4.458798	1.510682	-0.000179
1505	1.4965e+02	-19.9101	-82.307105	0.000395	3.952117	1.339013	-0.000158
1506	1.4975e+02	-19.9679	-82.521073	0.000537	5.370825	1.819685	-0.000215
1507	1.4985e+02	-20.0016	-82.682558	0.000405	4.053453	1.373347	-0.000162
1508	1.4995e+02	-19.9567	-82.577593	0.000263	2.634744	0.892676	0.000105
1509	1.5005e+02	-19.8989	-82.521073	0.000142	1.418709	0.480671	0.000057
1510	1.5015e+02	-19.8764	-82.444367	0.000193	1.925390	0.652340	0.000077
1511	1.5025e+02	-19.8363	-82.359588	0.000213	2.128063	0.721007	0.000085
1512	1.5034e+02	-19.7978	-82.327291	0.000081	0.810691	0.274669	0.000032
1513	1.5044e+02	-19.7609	-82.206176	0.000304	3.040090	1.030010	0.000122
1514	1.5054e+02	-19.7128	-82.097174	0.000274	2.736081	0.927009	0.000110
1515	1.5064e+02	-19.6695	-82.020468	0.000193	1.925390	0.652340	0.000077
1516	1.5074e+02	-19.6342	-81.943763	0.000193	1.925390	0.652340	0.000077
1517	1.5084e+02	-19.6069	-81.749980	0.000486	4.864143	1.648016	0.000195
1518	1.5094e+02	-19.5588	-81.665200	0.000213	2.128063	0.721007	0.000085
1519	1.5104e+02	-19.5155	-81.552160	0.000284	2.837417	0.961343	0.000114
1520	1.5114e+02	-19.4642	-81.451232	0.000253	2.533408	0.858342	0.000101
1521	1.5124e+02	-19.4417	-81.366452	0.000213	2.128063	0.721007	0.000085
1522	1.5134e+02	-19.3904	-81.277635	0.000223	2.229399	0.755341	0.000089
1523	1.5144e+02	-19.3535	-81.237264	0.000101	1.013363	0.343337	0.000041
1524	1.5154e+02	-19.3182	-81.104038	0.000334	3.344099	1.133011	0.000134
1525	1.5164e+02	-19.2765	-81.031370	0.000182	1.824054	0.618006	0.000073
1526	1.5174e+02	-19.2412	-80.890070	0.000355	3.546771	1.201679	0.000142
1527	1.5184e+02	-19.1914	-80.837587	0.000132	1.317372	0.446338	0.000053
1528	1.5194e+02	-19.1481	-80.680139	0.000395	3.952117	1.339013	0.000158
1529	1.5204e+02	-19.1128	-80.575174	0.000263	2.634744	0.892676	0.000105
1530	1.5214e+02	-19.0872	-80.506542	0.000172	1.722717	0.583672	0.000069
1531	1.5224e+02	-19.0390	-80.377354	0.000324	3.242762	1.098678	0.000130
1532	1.5233e+02	-18.9973	-80.260277	0.000294	2.938753	0.995677	0.000118
1533	1.5243e+02	-18.9636	-80.167423	0.000233	2.330735	0.789675	0.000093
1534	1.5253e+02	-18.9267	-80.030160	0.000345	3.445435	1.167345	0.000138
1535	1.5263e+02	-18.8866	-79.933269	0.000243	2.432072	0.824008	0.000097
1536	1.5273e+02	-18.8433	-79.824266	0.000274	2.736081	0.927009	0.000110
1537	1.5283e+02	-18.8016	-79.650670	0.000436	4.357462	1.476348	0.000174
1538	1.5293e+02	-18.7631	-79.561853	0.000223	2.229399	0.755341	0.000089
1539	1.5303e+02	-18.7262	-79.460924	0.000253	2.533408	0.858342	0.000101
1540	1.5313e+02	-18.6749	-79.364033	0.000243	2.432072	0.824008	0.000097
1541	1.5323e+02	-18.6364	-79.259067	0.000263	2.634744	0.892676	0.000105
1542	1.5333e+02	-18.5995	-79.133916	0.000314	3.141426	1.064344	0.000126
1543	1.5343e+02	-18.5626	-79.045099	0.000223	2.229399	0.755341	0.000089
1544	1.5353e+02	-18.5112	-78.915911	0.000324	3.242762	1.098678	0.000130
1545	1.5363e+02	-18.4808	-78.770574	0.000365	3.648108	1.236012	0.000146
1546	1.5373e+02	-18.4294	-78.681757	0.000223	2.229399	0.755341	0.000089
1547	1.5383e+02	-18.4006	-78.552569	0.000324	3.242762	1.098678	0.000130
1548	1.5393e+02	-18.3637	-78.479900	0.000182	1.824054	0.618006	0.000073
1549	1.5403e+02	-18.3284	-78.358786	0.000304	3.040090	1.030010	0.000122
1550	1.5413e+02	-18.2866	-78.225561	0.000334	3.344099	1.133011	0.000134
1551	1.5422e+02	-18.2417	-78.100409	0.000314	3.141426	1.064344	0.000126
1552	1.5432e+02	-18.2048	-78.011592	0.000223	2.229399	0.755341	0.000089
1553	1.5442e+02	-18.1551	-77.854144	0.000395	3.952117	1.339013	0.000158
1554	1.5452e+02	-18.1294	-77.704770	0.000375	3.749444	1.270346	0.000150
1555	1.5462e+02	-18.0813	-77.579619	0.000314	3.141426	1.064344	0.000126
1556	1.5472e+02	-18.0460	-77.430245	0.000375	3.749444	1.270346	0.000150
1557	1.5482e+02	-18.0075	-77.377762	0.000132	1.317372	0.446338	0.000053
1558	1.5492e+02	-17.9658	-77.301057	0.000193	1.925390	0.652340	0.000077
1559	1.5502e+02	-17.9241	-77.143608	0.000395	3.952117	1.339013	0.000158
1560	1.5512e+02	-17.8888	-77.046717	0.000243	2.432072	0.824008	0.000097
1561	1.5522e+02	-17.8359	-76.909454	0.000345	3.445435	1.167345	0.000138
1562	1.5532e+02	-17.8022	-76.772192	0.000345	3.445435	1.167345	0.000138
1563	1.5542e+02	-17.7701	-76.675301	0.000243	2.432072	0.824008	0.000097
1564	1.5552e+02	-17.7204	-76.513815	0.000405	4.053453	1.373347	0.000162
1565	1.5562e+02	-17.6883	-76.424998	0.000223	2.229399	0.755341	0.000089
1566	1.5572e+02	-17.6434	-76.307921	0.000294	2.938753	0.995677	0.000118
1567	1.5582e+02	-17.6081	-76.178733	0.000324	3.242762	1.098678	0.000130
1568	1.5592e+02	-17.5631	-76.057619	0.000304	3.040090	1.030010	0.000122
1569	1.5602e+02	-17.5182	-75.924393	0.000334	3.344099	1.133011	0.000134
1570	1.5612e+02	-17.4845	-75.783094	0.000355	3.546771	1.201679	0.000142
1571	1.5622e+02	-17.4524	-75.637757	0.000365	3.648108	1.236012	0.000146
1572	1.5631e+02	-17.4139	-75.528754	0.000274	2.736081	0.927009	0.000110
1573	1.5641e+02	-17.3770	-75.343046	0.000466	4.661471	1.579349	0.000187
1574	1.5651e+02	-17.3305	-75.254229	0.000223	2.229399	0.755341	0.000089
1575	1.5661e+02	-17.2920	-75.112929	0.000355	3.546771	1.201679	0.000142
1576	1.5671e+02	-17.2359	-75.020075	0.000233	2.330735	0.789675	0.000093
1577	1.5681e+02	-17.2038	-74.939332	0.000203	2.026726	0.686674	0.000081
1578	1.5691e+02	-17.1653	-74.802070	0.000345	3.445435	1.167345	0.000138
1579	1.5701e+02	-17.1252	-74.689030	0.000284	2.837417	0.961343	0.000114
1580	1.5711e+02	-17.0819	-74.567916	0.000304	3.040090	1.030010	0.000122
1581	1.5721e+02	-17.0450	-74.426616	0.000355	3.546771	1.201679	0.000142
1582	1.5731e+02	-17.0049	-74.289353	0.000345	3.445435	1.167345	0.000138
1583	1.5741e+02	-16.9696	-74.200536	0.000223	2.229399	0.755341	0.000089
1584	1.5751e+02	-16.9247	-74.071348	0.000324	3.242762	1.098678	0.000130
1585	1.5761e+02	-16.8862	-73.877565	0.000486	4.864143	1.648016	0.000195
1586	1.5771e+02	-16.8493	-73.829120	0.000122	1.216036	0.412004	0.000049
1587	1.5781e+02	-16.8011	-73.699931	0.000324	3.242762	1.098678	0.000130
1588	1.5791e+02	-16.7771	-73.534409	0.000415	4.154789	1.407681	0.000166
1589	1.5801e+02	-16.7354	-73.405221	0.000324	3.242762	1.098678	0.000130
1590	1.5811e+02	-16.6824	-73.267958	0.000345	3.445435	1.167345	0.000138
1591	1.5821e+02	-16.6519	-73.142807	0.000314	3.141426	1.064344	0.000126
1592	1.5830e+02	-16.6215	-72.969210	0.000436	4.357462	1.476348	0.000174
1593	1.5840e+02	-16.5749	-72.823873	0.000365	3.648108	1.236012	0.000146
1594	1.5850e+02	-16.5316	-72.739093	0.000213	2.128063	0.721007	0.000085
1595	1.5860e+02	-16.4883	-72.642202	0.000243	2.432072	0.824008	0.000097
1596	1.5870e+02	-16.4466	-72.500902	0.000355	3.546771	1.201679	0.000142
1597	1.5880e+02	-16.4097	-72.355565	0.000365	3.648108	1.236012	0.000146
1598	1.5890e+02	-16.3712	-72.198117	0.000395	3.952117	1.339013	0.000158
1599	1.5900e+02	-16.3215	-72.089114	0.000274	2.736081	0.927009	0.000110
1600	1.5910e+02	-16.3006	-71.939740	0.000375	3.749444	1.270346	0.000150
1601	1.5920e+02	-16.2557	-71.818626	0.000304	3.040090	1.030010	0.000122
1602	1.5930e+02	-16.2044	-71.673289	0.000365	3.648108	1.236012	0.000146
1603	1.5940e+02	-16.1723	-71.560250	0.000284	2.837417	0.961343	0.000114
1604	1.5950e+02	-16.1338	-71.422987	0.000345	3.445435	1.167345	0.000138
1605	1.5960e+02	-16.0969	-71.285724	0.000345	3.445435	1.167345	0.000138
1606	1.5970e+02	-16.0487	-71.180759	0.000263	2.634744	0.892676	0.000105
1607	1.5980e+02	-16.0118	-71.027348	0.000385	3.850780	1.304680	0.000154
1608	1.5990e+02	-15.9750	-70.857788	0.000426	4.256126	1.442014	0.000170
1609	1.6000e+02	-15.9332	-70.716488	0.000355	3.546771	1.201679	0.000142
1610	1.6010e+02	-15.8899	-70.571151	0.000365	3.648108	1.236012	0.000146
1611	1.6019e+02	-15.8514	-70.417740	0.000385	3.850780	1.304680	0.000154
1612	1.6029e+02	-15.8097	-70.268366	0.000375	3.749444	1.270346	0.000150
1613	1.6039e+02	-15.7696	-70.171475	0.000243	2.432072	0.824008	0.000097
1614	1.6049e+02	-15.7279	-70.030175	0.000355	3.546771	1.201679	0.000142
1615	1.6059e+02	-15.6942	-69.909061	0.000304	3.040090	1.030010	0.000122
1616	1.6069e+02	-15.6509	-69.763724	0.000365	3.648108	1.236012	0.000146
1617	1.6079e+02	-15.6028	-69.630499	0.000334	3.344099	1.133011	0.000134
1618	1.6089e+02	-15.5787	-69.513422	0.000294	2.938753	0.995677	0.000118
1619	1.6099e+02	-15.5338	-69.360011	0.000385	3.850780	1.304680	0.000154
1620	1.6109e+02	-15.4889	-69.251008	0.000274	2.736081	0.927009	0.000110
1621	1.6119e+02	-15.4536	-69.093560	0.000395	3.952117	1.339013	0.000158
1622	1.6129e+02	-15.4199	-68.936111	0.000395	3.952117	1.339013	0.000158
1623	1.6139e+02	-15.3782	-68.774626	0.000405	4.053453	1.373347	0.000162
1624	1.6149e+02	-15.3300	-68.649475	0.000314	3.141426	1.064344	0.000126
1625	1.6159e+02	-15.3028	-68.532398	0.000294	2.938753	0.995677	0.000118
1626	1.6169e+02	-15.2466	-68.374949	0.000395	3.952117	1.339013	0.000158
1627	1.6179e+02	-15.2081	-68.221538	0.000385	3.850780	1.304680	0.000154
1628	1.6189e+02	-15.1873	-68.064090	0.000395	3.952117	1.339013	0.000158
1629	1.6199e+02	-15.1359	-67.930864	0.000334	3.344099	1.133011	0.000134
1630	1.6209e+02	-15.0878	-67.797639	0.000334	3.344099	1.133011	0.000134
1631	1.6219e+02	-15.0493	-67.684599	0.000284	2.837417	0.961343	0.000114
1632	1.6228e+02	-15.0140	-67.523114	0.000405	4.053453	1.373347	0.000162
1633	1.6238e+02	-14.9691	-67.349517	0.000436	4.357462	1.476348	0.000174
1634	1.6248e+02	-14.9466	-67.232440	0.000294	2.938753	0.995677	0.000118
1635	1.6258e+02	-14.8969	-67.091140	0.000355	3.546771	1.201679	0.000142
1636	1.6268e+02	-14.8536	-66.970026	0.000304	3.040090	1.030010	0.000122
1637	1.6278e+02	-14.8183	-66.828726	0.000355	3.546771	1.201679	0.000142
1638	1.6288e+02	-14.7750	-66.614758	0.000537	5.370825	1.819685	0.000215
1639	1.6298e+02	-14.7349	-66.513830	0.000253	2.533408	0.858342	0.000101
1640	1.6308e+02	-14.6980	-66.420976	0.000233	2.330735	0.789675	0.000093
1641	1.6318e+02	-14.6595	-66.255453	0.000415	4.154789	1.407681	0.000166
1642	1.6328e+02	-14.6194	-66.122228	0.000334	3.344099	1.133011	0.000134
1643	1.6338e+02	-14.5857	-65.932482	0.000476	4.762807	1.613683	0.000191
1644	1.6348e+02	-14.5440	-65.831554	0.000253	2.533408	0.858342	0.000101
1645	1.6358e+02	-14.4958	-65.678143	0.000385	3.850780	1.304680	0.000154
1646	1.6368e+02	-14.4541	-65.500509	0.000446	4.458798	1.510682	0.000179
1647	1.6378e+02	-14.4124	-65.347098	0.000385	3.850780	1.304680	0.000154
1648	1.6388e+02	-14.3900	-65.221946	0.000314	3.141426	1.064344	0.000126
1649	1.6398e+02	-14.3450	-65.080647	0.000355	3.546771	1.201679	0.000142
1650	1.6408e+02	-14.3001	-64.911087	0.000426	4.256126	1.442014	0.000170
1651	1.6418e+02	-14.2600	-64.761713	0.000375	3.749444	1.270346	0.000150
1652	1.6427e+02	-14.2183	-64.620413	0.000355	3.546771	1.201679	0.000142
1653	1.6437e+02	-14.1798	-64.483151	0.000345	3.445435	1.167345	0.000138
1654	1.6447e+02	-14.1365	-64.374148	0.000274	2.736081	0.927009	0.000110
1655	1.6457e+02	-14.0980	-64.192477	0.000456	4.560135	1.545015	0.000183
1656	1.6467e+02	-14.0563	-64.026954	0.000415	4.154789	1.407681	0.000166
1657	1.6477e+02	-14.0194	-63.889692	0.000345	3.445435	1.167345	0.000138
1658	1.6487e+02	-13.9809	-63.752429	0.000345	3.445435	1.167345	0.000138
1659	1.6497e+02	-13.9392	-63.594981	0.000395	3.952117	1.339013	0.000158
1660	1.6507e+02	-13.8959	-63.465792	0.000324	3.242762	1.098678	0.000130
1661	1.6517e+02	-13.8638	-63.276047	0.000476	4.762807	1.613683	0.000191
1662	1.6527e+02	-13.8285	-63.158970	0.000294	2.938753	0.995677	0.000118
1663	1.6537e+02	-13.7755	-62.997485	0.000405	4.053453	1.373347	0.000162
1664	1.6547e+02	-13.7370	-62.844073	0.000385	3.850780	1.304680	0.000154
1665	1.6557e+02	-13.7130	-62.646254	0.000497	4.965480	1.682350	0.000199
1666	1.6567e+02	-13.6536	-62.496880	0.000375	3.749444	1.270346	0.000150
1667	1.6577e+02	-13.6215	-62.355580	0.000355	3.546771	1.201679	0.000142
1668	1.6587e+02	-13.5750	-62.226392	0.000324	3.242762	1.098678	0.000130
1669	1.6597e+02	-13.5333	-62.089129	0.000345	3.445435	1.167345	0.000138
1670	1.6607e+02	-13.5060	-61.935718	0.000385	3.850780	1.304680	0.000154
1671	1.6616e+02	-13.4643	-61.798455	0.000345	3.445435	1.167345	0.000138
1672	1.6626e+02	-13.4258	-61.628896	0.000426	4.256126	1.442014	0.000170
1673	1.6636e+02	-13.3729	-61.463373	0.000415	4.154789	1.407681	0.000166
1674	1.6646e+02	-13.3408	-61.338222	0.000314	3.141426	1.064344	0.000126
1675	1.6656e+02	-13.2975	-61.156551	0.000456	4.560135	1.545015	0.000183
1676	1.6666e+02	-13.2686	-61.043511	0.000284	2.837417	0.961343	0.000114
1677	1.6676e+02	-13.2365	-60.873951	0.000426	4.256126	1.442014	0.000170
1678	1.6686e+02	-13.1756	-60.720540	0.000385	3.850780	1.304680	0.000154
1679	1.6696e+02	-13.1467	-60.575203	0.000365	3.648108	1.236012	0.000146
1680	1.6706e+02	-13.1098	-60.441978	0.000334	3.344099	1.133011	0.000134
1681	1.6716e+02	-13.0665	-60.264344	0.000446	4.458798	1.510682	0.000179
1682	1.6726e+02	-13.0119	-60.070561	0.000486	4.864143	1.648016	0.000195
1683	1.6736e+02	-12.9798	-59.973670	0.000243	2.432072	0.824008	0.000097
1684	1.6746e+02	-12.9462	-59.836407	0.000345	3.445435	1.167345	0.000138
1685	1.6756e+02	-12.8980	-59.638588	0.000497	4.965480	1.682350	0.000199
1686	1.6766e+02	-12.8627	-59.525548	0.000284	2.837417	0.961343	0.000114
1687	1.6776e+02	-12.8242	-59.347914	0.000446	4.458798	1.510682	0.000179
1688	1.6786e+02	-12.7938	-59.230837	0.000294	2.938753	0.995677	0.000118
1689	1.6796e+02	-12.7472	-59.065314	0.000415	4.154789	1.407681	0.000166
1690	1.6806e+02	-12.7071	-58.907866	0.000395	3.952117	1.339013	0.000158
1691	1.6816e+02	-12.6670	-58.742344	0.000415	4.154789	1.407681	0.000166
1692	1.6825e+02	-12.6157	-58.625267	0.000294	2.938753	0.995677	0.000118
1693	1.6835e+02	-12.5916	-58.423410	0.000507	5.066816	1.716684	0.000203
1694	1.6845e+02	-12.5467	-58.342667	0.000203	2.026726	0.686674	0.000081
1695	1.6855e+02	-12.5082	-58.169070	0.000436	4.357462	1.476348	0.000174
1696	1.6865e+02	-12.4649	-57.971251	0.000497	4.965480	1.682350	0.000199
1697	1.6875e+02	-12.4248	-57.846099	0.000314	3.141426	1.064344	0.000126
1698	1.6885e+02	-12.3911	-57.692688	0.000385	3.850780	1.304680	0.000154
1699	1.6895e+02	-12.3478	-57.535240	0.000395	3.952117	1.339013	0.000158
1700	1.6905e+02	-12.3093	-57.373755	0.000405	4.053453	1.373347	0.000162
1701	1.6915e+02	-12.2644	-57.256678	0.000294	2.938753	0.995677	0.000118
1702	1.6925e+02	-12.2307	-57.111341	0.000365	3.648108	1.236012	0.000146
1703	1.6935e+02	-12.1825	-56.957930	0.000385	3.850780	1.304680	0.000154
1704	1.6945e+02	-12.1408	-56.784333	0.000436	4.357462	1.476348	0.000174
1705	1.6955e+02	-12.1023	-56.606699	0.000446	4.458798	1.510682	0.000179
1706	1.6965e+02	-12.0686	-56.449250	0.000395	3.952117	1.339013	0.000158
1707	1.6975e+02	-12.0237	-56.336211	0.000284	2.837417	0.961343	0.000114
1708	1.6985e+02	-11.9884	-56.170688	0.000415	4.154789	1.407681	0.000166
1709	1.6995e+02	-11.9451	-55.984980	0.000466	4.661471	1.579349	0.000187
1710	1.7005e+02	-11.9114	-55.867903	0.000294	2.938753	0.995677	0.000118
1711	1.7015e+02	-11.8729	-55.662009	0.000517	5.168152	1.751017	0.000207
1712	1.7024e+02	-11.8200	-55.548969	0.000284	2.837417	0.961343	0.000114
1713	1.7034e+02	-11.7879	-55.407669	0.000355	3.546771	1.201679	0.000142
1714	1.7044e+02	-11.7494	-55.242147	0.000415	4.154789	1.407681	0.000166
1715	1.7054e+02	-11.7045	-55.064513	0.000446	4.458798	1.510682	0.000179
1716	1.7064e+02	-11.6772	-54.919176	0.000365	3.648108	1.236012	0.000146
1717	1.7074e+02	-11.6227	-54.777876	0.000355	3.546771	1.201679	0.000142
1718	1.7084e+02	-11.5954	-54.620428	0.000395	3.952117	1.339013	0.000158
1719	1.7094e+02	-11.5473	-54.499314	0.000304	3.040090	1.030010	0.000122
1720	1.7104e+02	-11.4959	-54.325717	0.000436	4.357462	1.476348	0.000174
1721	1.7114e+02	-11.4671	-54.196529	0.000324	3.242762	1.098678	0.000130
1722	1.7124e+02	-11.4173	-53.986598	0.000527	5.269489	1.785351	0.000211
1723	1.7134e+02	-11.3772	-53.825112	0.000405	4.053453	1.373347	0.000162
1724	1.7144e+02	-11.3419	-53.679775	0.000365	3.648108	1.236012	0.000146
1725	1.7154e+02	-11.3130	-53.542513	0.000345	3.445435	1.167345	0.000138
1726	1.7164e+02	-11.2729	-53.372953	0.000426	4.256126	1.442014	0.000170
1727	1.7174e+02	-11.2296	-53.199356	0.000436	4.357462	1.476348	0.000174
1728	1.7184e+02	-11.2008	-53.029796	0.000426	4.256126	1.442014	0.000170
1729	1.7194e+02	-11.1494	-52.900608	0.000324	3.242762	1.098678	0.000130
1730	1.7204e+02	-11.1093	-52.747197	0.000385	3.850780	1.304680	0.000154
1731	1.7213e+02	-11.0740	-52.589749	0.000395	3.952117	1.339013	0.000158
1732	1.7223e+02	-11.0371	-52.395966	0.000486	4.864143	1.648016	0.000195
1733	1.7233e+02	-10.9986	-52.270815	0.000314	3.141426	1.064344	0.000126
1734	1.7243e+02	-10.9617	-52.089144	0.000456	4.560135	1.545015	0.000183
1735	1.7253e+02	-10.9104	-51.955918	0.000334	3.344099	1.133011	0.000134
1736	1.7263e+02	-10.8735	-51.758099	0.000497	4.965480	1.682350	0.000199
1737	1.7273e+02	-10.8286	-51.616799	0.000355	3.546771	1.201679	0.000142
1738	1.7283e+02	-10.7997	-51.487611	0.000324	3.242762	1.098678	0.000130
1739	1.7293e+02	-10.7596	-51.326125	0.000405	4.053453	1.373347	0.000162
1740	1.7303e+02	-10.7147	-51.144454	0.000456	4.560135	1.545015	0.000183
1741	1.7313e+02	-10.6714	-51.027377	0.000294	2.938753	0.995677	0.000118
1742	1.7323e+02	-10.6409	-50.857817	0.000426	4.256126	1.442014	0.000170
1743	1.7333e+02	-10.5927	-50.684221	0.000436	4.357462	1.476348	0.000174
1744	1.7343e+02	-10.5639	-50.526772	0.000395	3.952117	1.339013	0.000158
1745	1.7353e+02	-10.5013	-50.365287	0.000405	4.053453	1.373347	0.000162
1746	1.7363e+02	-10.4708	-50.232061	0.000334	3.344099	1.133011	0.000134
1747	1.7373e+02	-10.4403	-50.034242	0.000497	4.965480	1.682350	0.000199
1748	1.7383e+02	-10.3922	-49.848534	0.000466	4.661471	1.579349	0.000187
1749	1.7393e+02	-10.3585	-49.719345	0.000324	3.242762	1.098678	0.000130
1750	1.7403e+02	-10.3136	-49.574008	0.000365	3.648108	1.236012	0.000146
1751	1.7413e+02	-10.2671	-49.428671	0.000365	3.648108	1.236012	0.000146
1752	1.7422e+02	-10.2302	-49.259112	0.000426	4.256126	1.442014	0.000170
1753	1.7432e+02	-10.1917	-49.089552	0.000426	4.256126	1.442014	0.000170
1754	1.7442e+02	-10.1516	-48.924029	0.000415	4.154789	1.407681	0.000166
1755	1.7452e+02	-10.1131	-48.782730	0.000355	3.546771	1.201679	0.000142
1756	1.7462e+02	-10.0730	-48.641430	0.000355	3.546771	1.201679	0.000142
1757	1.7472e+02	-10.0393	-48.479945	0.000405	4.053453	1.373347	0.000162
1758	1.7482e+02	-10.0024	-48.270013	0.000527	5.269489	1.785351	0.000211
1759	1.7492e+02	-9.9607	-48.132751	0.000345	3.445435	1.167345	0.000138
1760	1.7502e+02	-9.9158	-47.910708	0.000557	5.573498	1.888352	0.000223
1761	1.7512e+02	-9.8741	-47.801706	0.000274	2.736081	0.927009	0.000110
1762	1.7522e+02	-9.8323	-47.656369	0.000365	3.648108	1.236012	0.000146
1763	1.7532e+02	-9.7922	-47.430289	0.000567	5.674834	1.922686	0.000227
1764	1.7542e+02	-9.7618	-47.333398	0.000243	2.432072	0.824008	0.000097
1765	1.7552e+02	-9.7265	-47.127504	0.000517	5.168152	1.751017	0.000207
1766	1.7562e+02	-9.6687	-46.994279	0.000334	3.344099	1.133011	0.000134
1767	1.7572e+02	-9.6366	-46.784348	0.000527	5.269489	1.785351	0.000211
1768	1.7582e+02	-9.5981	-46.643048	0.000355	3.546771	1.201679	0.000142
1769	1.7592e+02	-9.5676	-46.465414	0.000446	4.458798	1.510682	0.000179
1770	1.7602e+02	-9.5243	-46.295854	0.000426	4.256126	1.442014	0.000170
1771	1.7612e+02	-9.4858	-46.162629	0.000334	3.344099	1.133011	0.000134
1772	1.7621e+02	-9.4345	-46.045552	0.000294	2.938753	0.995677	0.000118
1773	1.7631e+02	-9.4040	-45.855806	0.000476	4.762807	1.613683	0.000191
1774	1.7641e+02	-9.3575	-45.625690	0.000578	5.776170	1.957020	0.000231
1775	1.7651e+02	-9.3190	-45.500538	0.000314	3.141426	1.064344	0.000126
1776	1.7661e+02	-9.2869	-45.274459	0.000567	5.674834	1.922686	0.000227
1777	1.7671e+02	-9.2420	-45.108936	0.000415	4.154789	1.407681	0.000166
1778	1.7681e+02	-9.1955	-44.967636	0.000355	3.546771	1.201679	0.000142
1779	1.7691e+02	-9.1698	-44.802114	0.000415	4.154789	1.407681	0.000166
1780	1.7701e+02	-9.1169	-44.644666	0.000395	3.952117	1.339013	0.000158
1781	1.7711e+02	-9.0848	-44.487217	0.000395	3.952117	1.339013	0.000158
1782	1.7721e+02	-9.0399	-44.277286	0.000527	5.269489	1.785351	0.000211
1783	1.7731e+02	-8.9949	-44.115801	0.000405	4.053453	1.373347	0.000162
1784	1.7741e+02	-8.9548	-43.962390	0.000385	3.850780	1.304680	0.000154
1785	1.7751e+02	-8.9147	-43.804941	0.000395	3.952117	1.339013	0.000158
1786	1.7761e+02	-8.8826	-43.623270	0.000456	4.560135	1.545015	0.000183
1787	1.7771e+02	-8.8441	-43.421413	0.000507	5.066816	1.716684	0.000203
1788	1.7781e+02	-8.7928	-43.268002	0.000385	3.850780	1.304680	0.000154
1789	1.7791e+02	-8.7623	-43.114591	0.000385	3.850780	1.304680	0.000154
1790	1.7801e+02	-8.7174	-42.936957	0.000446	4.458798	1.510682	0.000179
1791	1.7810e+02	-8.6821	-42.751249	0.000466	4.661471	1.579349	0.000187
1792	1.7820e+02	-8.6420	-42.597838	0.000385	3.850780	1.304680	0.000154
1793	1.7830e+02	-8.5971	-42.395981	0.000507	5.066816	1.716684	0.000203
1794	1.7840e+02	-8.5618	-42.198161	0.000497	4.965480	1.682350	0.000199
1795	1.7850e+02	-8.5185	-42.064936	0.000334	3.344099	1.133011	0.000134
1796	1.7860e+02	-8.4832	-41.899413	0.000415	4.154789	1.407681	0.000166
1797	1.7870e+02	-8.4447	-41.677371	0.000557	5.573498	1.888352	0.000223
1798	1.7880e+02	-8.4030	-41.511848	0.000415	4.154789	1.407681	0.000166
1799	1.7890e+02	-8.3581	-41.370548	0.000355	3.546771	1.201679	0.000142
1800	1.7900e+02	-8.3228	-41.200989	0.000426	4.256126	1.442014	0.000170
1801	1.7910e+02	-8.2859	-40.999132	0.000507	5.066816	1.716684	0.000203
1802	1.7920e+02	-8.2458	-40.849758	0.000375	3.749444	1.270346	0.000150
1803	1.7930e+02	-8.2057	-40.692310	0.000395	3.952117	1.339013	0.000158
1804	1.7940e+02	-8.1655	-40.466230	0.000567	5.674834	1.922686	0.000227
1805	1.7950e+02	-8.1286	-40.324930	0.000355	3.546771	1.201679	0.000142
1806	1.7960e+02	-8.0901	-40.167482	0.000395	3.952117	1.339013	0.000158
1807	1.7970e+02	-8.0484	-39.977737	0.000476	4.762807	1.613683	0.000191
1808	1.7980e+02	-8.0003	-39.792028	0.000466	4.661471	1.579349	0.000187
1809	1.7990e+02	-7.9586	-39.590172	0.000507	5.066816	1.716684	0.000203
1810	1.8000e+02	-7.9201	-39.420612	0.000426	4.256126	1.442014	0.000170
1811	1.8009e+02	-7.8832	-39.247015	0.000436	4.357462	1.476348	0.000174
1812	1.8019e+02	-7.8383	-39.073418	0.000436	4.357462	1.476348	0.000174
1813	1.8029e+02	-7.8030	-38.899821	0.000436	4.357462	1.476348	0.000174
1814	1.8039e+02	-7.7597	-38.718150	0.000456	4.560135	1.545015	0.000183
1815	1.8049e+02	-7.7228	-38.552628	0.000415	4.154789	1.407681	0.000166
1816	1.8059e+02	-7.6859	-38.362882	0.000476	4.762807	1.613683	0.000191
1817	1.8069e+02	-7.6361	-38.237731	0.000314	3.141426	1.064344	0.000126
1818	1.8079e+02	-7.6041	-38.047986	0.000476	4.762807	1.613683	0.000191
1819	1.8089e+02	-7.5688	-37.850166	0.000497	4.965480	1.682350	0.000199
1820	1.8099e+02	-7.5206	-37.648309	0.000507	5.066816	1.716684	0.000203
1821	1.8109e+02	-7.4854	-37.470675	0.000446	4.458798	1.510682	0.000179
1822	1.8119e+02	-7.4517	-37.280930	0.000476	4.762807	1.613683	0.000191
1823	1.8129e+02	-7.4019	-37.135593	0.000365	3.648108	1.236012	0.000146
1824	1.8139e+02	-7.3666	-36.929699	0.000517	5.168152	1.751017	0.000207
1825	1.8149e+02	-7.3329	-36.756102	0.000436	4.357462	1.476348	0.000174
1826	1.8159e+02	-7.2832	-36.582505	0.000436	4.357462	1.476348	0.000174
1827	1.8169e+02	-7.2383	-36.396797	0.000466	4.661471	1.579349	0.000187
1828	1.8179e+02	-7.2014	-36.198978	0.000497	4.965480	1.682350	0.000199
1829	1.8189e+02	-7.1709	-36.045566	0.000385	3.850780	1.304680	0.000154
1830	1.8199e+02	-7.1196	-35.855821	0.000476	4.762807	1.613683	0.000191
1831	1.8209e+02	-7.0827	-35.653964	0.000507	5.066816	1.716684	0.000203
1832	1.8218e+02	-7.0442	-35.484405	0.000426	4.256126	1.442014	0.000170
1833	1.8228e+02	-7.0041	-35.278511	0.000517	5.168152	1.751017	0.000207
1834	1.8238e+02	-6.9624	-35.092802	0.000466	4.661471	1.579349	0.000187
1835	1.8248e+02	-6.9207	-34.955540	0.000345	3.445435	1.167345	0.000138
1836	1.8258e+02	-6.8790	-34.721386	0.000588	5.877507	1.991353	0.000235
1837	1.8268e+02	-6.8533	-34.539715	0.000456	4.560135	1.545015	0.000183
1838	1.8278e+02	-6.8084	-34.374192	0.000415	4.154789	1.407681	0.000166
1839	1.8288e+02	-6.7731	-34.184447	0.000476	4.762807	1.613683	0.000191
1840	1.8298e+02	-6.7249	-34.010850	0.000436	4.357462	1.476348	0.000174
1841	1.8308e+02	-6.6880	-33.829179	0.000456	4.560135	1.545015	0.000183
1842	1.8318e+02	-6.6431	-33.639434	0.000476	4.762807	1.613683	0.000191
1843	1.8328e+02	-6.6078	-33.453725	0.000466	4.661471	1.579349	0.000187
1844	1.8338e+02	-6.5693	-33.280128	0.000436	4.357462	1.476348	0.000174
1845	1.8348e+02	-6.5276	-33.025789	0.000638	6.384188	2.163022	0.000256
1846	1.8358e+02	-6.4811	-32.900638	0.000314	3.141426	1.064344	0.000126
1847	1.8368e+02	-6.4458	-32.751264	0.000375	3.749444	1.270346	0.000150
1848	1.8378e+02	-6.4105	-32.569593	0.000456	4.560135	1.545015	0.000183
1849	1.8388e+02	-6.3656	-32.379847	0.000476	4.762807	1.613683	0.000191
1850	1.8398e+02	-6.3319	-32.169916	0.000527	5.269489	1.785351	0.000211
1851	1.8407e+02	-6.2838	-32.040728	0.000324	3.242762	1.098678	0.000130
1852	1.8417e+02	-6.2549	-31.806574	0.000588	5.877507	1.991353	0.000235
1853	1.8427e+02	-6.2084	-31.632977	0.000436	4.357462	1.476348	0.000174
1854	1.8437e+02	-6.1779	-31.487640	0.000365	3.648108	1.236012	0.000146
1855	1.8447e+02	-6.1266	-31.261561	0.000567	5.674834	1.922686	0.000227
1856	1.8457e+02	-6.0881	-31.063741	0.000497	4.965480	1.682350	0.000199
1857	1.8467e+02	-6.0592	-30.910330	0.000385	3.850780	1.304680	0.000154
1858	1.8477e+02	-6.0127	-30.732696	0.000446	4.458798	1.510682	0.000179
1859	1.8487e+02	-5.9790	-30.530839	0.000507	5.066816	1.716684	0.000203
1860	1.8497e+02	-5.9325	-30.365316	0.000415	4.154789	1.407681	0.000166
1861	1.8507e+02	-5.8923	-30.203831	0.000405	4.053453	1.373347	0.000162
1862	1.8517e+02	-5.8554	-29.997937	0.000517	5.168152	1.751017	0.000207
1863	1.8527e+02	-5.8057	-29.792043	0.000517	5.168152	1.751017	0.000207
1864	1.8537e+02	-5.7801	-29.626521	0.000415	4.154789	1.407681	0.000166
1865	1.8547e+02	-5.7271	-29.420627	0.000517	5.168152	1.751017	0.000207
1866	1.8557e+02	-5.6998	-29.230881	0.000476	4.762807	1.613683	0.000191
1867	1.8567e+02	-5.6501	-29.077470	0.000385	3.850780	1.304680	0.000154
1868	1.8577e+02	-5.6164	-28.879651	0.000497	4.965480	1.682350	0.000199
1869	1.8587e+02	-5.5747	-28.706054	0.000436	4.357462	1.476348	0.000174
1870	1.8597e+02	-5.5410	-28.512271	0.000486	4.864143	1.648016	0.000195
1871	1.8606e+02	-5.4913	-28.338674	0.000436	4.357462	1.476348	0.000174
1872	1.8616e+02	-5.4576	-28.136818	0.000507	5.066816	1.716684	0.000203
1873	1.8626e+02	-5.4239	-27.918812	0.000547	5.472161	1.854018	0.000219
1874	1.8636e+02	-5.3790	-27.745215	0.000436	4.357462	1.476348	0.000174
1875	1.8646e+02	-5.3373	-27.563544	0.000456	4.560135	1.545015	0.000183
1876	1.8656e+02	-5.2876	-27.393985	0.000426	4.256126	1.442014	0.000170
1877	1.8666e+02	-5.2635	-27.175979	0.000547	5.472161	1.854018	0.000219
1878	1.8676e+02	-5.2105	-27.022568	0.000385	3.850780	1.304680	0.000154
1879	1.8686e+02	-5.1737	-26.840897	0.000456	4.560135	1.545015	0.000183
1880	1.8696e+02	-5.1368	-26.614817	0.000567	5.674834	1.922686	0.000227
1881	1.8706e+02	-5.0870	-26.441221	0.000436	4.357462	1.476348	0.000174
1882	1.8716e+02	-5.0533	-26.295884	0.000365	3.648108	1.236012	0.000146
1883	1.8726e+02	-5.0164	-26.081915	0.000537	5.370825	1.819685	0.000215
1884	1.8736e+02	-4.9731	-25.880059	0.000507	5.066816	1.716684	0.000203
1885	1.8746e+02	-4.9378	-25.649942	0.000578	5.776170	1.957020	0.000231
1886	1.8756e+02	-4.8993	-25.516716	0.000334	3.344099	1.133011	0.000134
1887	1.8766e+02	-4.8512	-25.335045	0.000456	4.560135	1.545015	0.000183
1888	1.8776e+02	-4.8191	-25.165486	0.000426	4.256126	1.442014	0.000170
1889	1.8786e+02	-4.7790	-24.915183	0.000628	6.282852	2.128688	0.000252
1890	1.8796e+02	-4.7389	-24.737549	0.000446	4.458798	1.510682	0.000179
1891	1.8806e+02	-4.7004	-24.527618	0.000527	5.269489	1.785351	0.000211
1892	1.8815e+02	-4.6555	-24.366133	0.000405	4.053453	1.373347	0.000162
1893	1.8825e+02	-4.6170	-24.156202	0.000527	5.269489	1.785351	0.000211
1894	1.8835e+02	-4.5817	-23.994716	0.000405	4.053453	1.373347	0.000162
1895	1.8845e+02	-4.5480	-23.821119	0.000436	4.357462	1.476348	0.000174
1896	1.8855e+02	-4.5047	-23.582928	0.000598	5.978843	2.025687	0.000239
1897	1.8865e+02	-4.4614	-23.445666	0.000345	3.445435	1.167345	0.000138
1898	1.8875e+02	-4.4261	-23.259958	0.000466	4.661471	1.579349	0.000187
1899	1.8885e+02	-4.3796	-23.058101	0.000507	5.066816	1.716684	0.000203
1900	1.8895e+02	-4.3555	-22.868355	0.000476	4.762807	1.613683	0.000191
1901	1.8905e+02	-4.3009	-22.662461	0.000517	5.168152	1.751017	0.000207
1902	1.8915e+02	-4.2624	-22.460605	0.000507	5.066816	1.716684	0.000203
1903	1.8925e+02	-4.2239	-22.311231	0.000375	3.749444	1.270346	0.000150
1904	1.8935e+02	-4.1790	-22.137634	0.000436	4.357462	1.476348	0.000174
1905	1.8945e+02	-4.1469	-21.947888	0.000476	4.762807	1.613683	0.000191
1906	1.8955e+02	-4.1020	-21.729883	0.000547	5.472161	1.854018	0.000219
1907	1.8965e+02	-4.0603	-21.519952	0.000527	5.269489	1.785351	0.000211
1908	1.8975e+02	-4.0170	-21.330207	0.000476	4.762807	1.613683	0.000191
1909	1.8985e+02	-3.9897	-21.136424	0.000486	4.864143	1.648016	0.000195
1910	1.8995e+02	-3.9384	-20.974939	0.000405	4.053453	1.373347	0.000162
1911	1.9004e+02	-3.9111	-20.760971	0.000537	5.370825	1.819685	0.000215
1912	1.9014e+02	-3.8614	-20.571225	0.000476	4.762807	1.613683	0.000191
1913	1.9024e+02	-3.8277	-20.421851	0.000375	3.749444	1.270346	0.000150
1914	1.9034e+02	-3.7828	-20.167512	0.000638	6.384188	2.163022	0.000256
1915	1.9044e+02	-3.7475	-19.985840	0.000456	4.560135	1.545015	0.000183
1916	1.9054e+02	-3.6978	-19.808206	0.000446	4.458798	1.510682	0.000179
1917	1.9064e+02	-3.6577	-19.626535	0.000456	4.560135	1.545015	0.000183
1918	1.9074e+02	-3.6224	-19.424679	0.000507	5.066816	1.716684	0.000203
1919	1.9084e+02	-3.5839	-19.234933	0.000476	4.762807	1.613683	0.000191
1920	1.9094e+02	-3.5470	-19.025002	0.000527	5.269489	1.785351	0.000211
1921	1.9104e+02	-3.4972	-18.811034	0.000537	5.370825	1.819685	0.000215
1922	1.9114e+02	-3.4555	-18.645511	0.000415	4.154789	1.407681	0.000166
1923	1.9124e+02	-3.4266	-18.496137	0.000375	3.749444	1.270346	0.000150
1924	1.9134e+02	-3.3721	-18.270058	0.000567	5.674834	1.922686	0.000227
1925	1.9144e+02	-3.3448	-18.035904	0.000588	5.877507	1.991353	0.000235
1926	1.9154e+02	-3.3047	-17.898641	0.000345	3.445435	1.167345	0.000138
1927	1.9164e+02	-3.2582	-17.700822	0.000497	4.965480	1.682350	0.000199
1928	1.9174e+02	-3.2229	-17.482816	0.000547	5.472161	1.854018	0.000219
1929	1.9184e+02	-3.1892	-17.325368	0.000395	3.952117	1.339013	0.000158
1930	1.9194e+02	-3.1491	-17.119474	0.000517	5.168152	1.751017	0.000207
1931	1.9203e+02	-3.1058	-16.901469	0.000547	5.472161	1.854018	0.000219
1932	1.9213e+02	-3.0545	-16.715761	0.000466	4.661471	1.579349	0.000187
1933	1.9223e+02	-3.0192	-16.493718	0.000557	5.573498	1.888352	0.000223
1934	1.9233e+02	-2.9807	-16.287824	0.000517	5.168152	1.751017	0.000207
1935	1.9243e+02	-2.9534	-16.090004	0.000497	4.965480	1.682350	0.000199
1936	1.9253e+02	-2.9085	-15.948705	0.000355	3.546771	1.201679	0.000142
1937	1.9263e+02	-2.8603	-15.754922	0.000486	4.864143	1.648016	0.000195
1938	1.9273e+02	-2.8283	-15.500583	0.000638	6.384188	2.163022	0.000256
1939	1.9283e+02	-2.7785	-15.310837	0.000476	4.762807	1.613683	0.000191
1940	1.9293e+02	-2.7464	-15.133203	0.000446	4.458798	1.510682	0.000179
1941	1.9303e+02	-2.6951	-14.915198	0.000547	5.472161	1.854018	0.000219
1942	1.9313e+02	-2.6598	-14.681044	0.000588	5.877507	1.991353	0.000235
1943	1.9323e+02	-2.6213	-14.507447	0.000436	4.357462	1.476348	0.000174
1944	1.9333e+02	-2.5876	-14.321739	0.000466	4.661471	1.579349	0.000187
1945	1.9343e+02	-2.5411	-14.123919	0.000497	4.965480	1.682350	0.000199
1946	1.9353e+02	-2.5074	-13.893803	0.000578	5.776170	1.957020	0.000231
1947	1.9363e+02	-2.4673	-13.712132	0.000456	4.560135	1.545015	0.000183
1948	1.9373e+02	-2.4320	-13.534498	0.000446	4.458798	1.510682	0.000179
1949	1.9383e+02	-2.3951	-13.308418	0.000567	5.674834	1.922686	0.000227
1950	1.9393e+02	-2.3486	-13.130784	0.000446	4.458798	1.510682	0.000179
1951	1.9403e+02	-2.3053	-12.856259	0.000689	6.890870	2.334690	0.000276
1952	1.9412e+02	-2.2684	-12.710922	0.000365	3.648108	1.236012	0.000146
1953	1.9422e+02	-2.2203	-12.557511	0.000385	3.850780	1.304680	0.000154
1954	1.9432e+02	-2.1818	-12.347580	0.000527	5.269489	1.785351	0.000211
1955	1.9442e+02	-2.1497	-12.133611	0.000537	5.370825	1.819685	0.000215
1956	1.9452e+02	-2.1080	-11.867161	0.000669	6.688197	2.266023	0.000268
1957	1.9462e+02	-2.0679	-11.709712	0.000395	3.952117	1.339013	0.000158
1958	1.9472e+02	-2.0261	-11.487670	0.000557	5.573498	1.888352	0.000223
1959	1.9482e+02	-1.9941	-11.310036	0.000446	4.458798	1.510682	0.000179
1960	1.9492e+02	-1.9507	-11.067808	0.000608	6.080179	2.060021	0.000243
1961	1.9502e+02	-1.9058	-10.874025	0.000486	4.864143	1.648016	0.000195
1962	1.9512e+02	-1.8753	-10.668131	0.000517	5.168152	1.751017	0.000207
1963	1.9522e+02	-1.8401	-10.458200	0.000527	5.269489	1.785351	0.000211
1964	1.9532e+02	-1.7935	-10.296715	0.000405	4.053453	1.373347	0.000162
1965	1.9542e+02	-1.7470	-10.058524	0.000598	5.978843	2.025687	0.000239
1966	1.9552e+02	-1.7101	-9.836481	0.000557	5.573498	1.888352	0.000223
1967	1.9562e+02	-1.6668	-9.679033	0.000395	3.952117	1.339013	0.000158
1968	1.9572e+02	-1.6347	-9.436805	0.000608	6.080179	2.060021	0.000243
1969	1.9582e+02	-1.5898	-9.243022	0.000486	4.864143	1.648016	0.000195
1970	1.9592e+02	-1.5561	-8.992720	0.000628	6.282852	2.128688	0.000252
1971	1.9601e+02	-1.5144	-8.859494	0.000334	3.344099	1.133011	0.000134
1972	1.9611e+02	-1.4727	-8.641489	0.000547	5.472161	1.854018	0.000219
1973	1.9621e+02	-1.4294	-8.399261	0.000608	6.080179	2.060021	0.000243
1974	1.9631e+02	-1.3925	-8.229701	0.000426	4.256126	1.442014	0.000170
1975	1.9641e+02	-1.3427	-8.015733	0.000537	5.370825	1.819685	0.000215
1976	1.9651e+02	-1.3107	-7.777542	0.000598	5.978843	2.025687	0.000239
1977	1.9661e+02	-1.2641	-7.591834	0.000466	4.661471	1.579349	0.000187
1978	1.9671e+02	-1.2337	-7.389977	0.000507	5.066816	1.716684	0.000203
1979	1.9681e+02	-1.1871	-7.196194	0.000486	4.864143	1.648016	0.000195
1980	1.9691e+02	-1.1486	-6.958003	0.000598	5.978843	2.025687	0.000239
1981	1.9701e+02	-1.1246	-6.788444	0.000426	4.256126	1.442014	0.000170
1982	1.9711e+02	-1.0620	-6.546216	0.000608	6.080179	2.060021	0.000243
1983	1.9721e+02	-1.0347	-6.340322	0.000517	5.168152	1.751017	0.000207
1984	1.9731e+02	-0.9946	-6.134428	0.000517	5.168152	1.751017	0.000207
1985	1.9741e+02	-0.9561	-5.944682	0.000476	4.762807	1.613683	0.000191
1986	1.9751e+02	-0.9192	-5.726677	0.000547	5.472161	1.854018	0.000219
1987	1.9761e+02	-0.8743	-5.500597	0.000567	5.674834	1.922686	0.000227
1988	1.9771e+02	-0.8374	-5.302778	0.000497	4.965480	1.682350	0.000199
1989	1.9781e+02	-0.7893	-5.080735	0.000557	5.573498	1.888352	0.000223
1990	1.9791e+02	-0.7460	-4.882916	0.000497	4.965480	1.682350	0.000199
1991	1.9800e+02	-0.7107	-4.668947	0.000537	5.370825	1.819685	0.000215
1992	1.9810e+02	-0.6706	-4.459016	0.000527	5.269489	1.785351	0.000211
1993	1.9820e+02	-0.6369	-4.196603	0.000659	6.586861	2.231689	0.000264
1994	1.9830e+02	-0.5904	-4.039154	0.000395	3.952117	1.339013	0.000158
1995	1.9840e+02	-0.5599	-3.813075	0.000567	5.674834	1.922686	0.000227
1996	1.9850e+02	-0.5278	-3.595069	0.000547	5.472161	1.854018	0.000219
1997	1.9860e+02	-0.4732	-3.421473	0.000436	4.357462	1.476348	0.000174
1998	1.9870e+02	-0.4331	-3.191356	0.000578	5.776170	1.957020	0.000231
1999	1.9880e+02	-0.3978	-2.945091	0.000618	6.181516	2.094354	0.000248
2000	1.9890e+02	-0.3481	-2.763419	0.000456	4.560135	1.545015	0.000183
2001	1.9900e+02	-0.3208	-2.545414	0.000547	5.472161	1.854018	0.000219
2002	1.9910e+02	-0.2791	-2.347594	0.000497	4.965480	1.682350	0.000199
2003	1.9920e+02	-0.2390	-2.145738	0.000507	5.066816	1.716684	0.000203
2004	1.9930e+02	-0.2021	-1.960029	0.000466	4.661471	1.579349	0.000187
2005	1.9940e+02	-0.1588	-1.709727	0.000628	6.282852	2.128688	0.000252
2006	1.9950e+02	-0.1059	-1.479610	0.000578	5.776170	1.957020	0.000231
2007	1.9960e+02	-0.0706	-1.301976	0.000446	4.458798	1.510682	0.000179
2008	1.9970e+02	-0.0401	-1.096082	0.000517	5.168152	1.751017	0.000207
2009	1.9980e+02	0.0080	-0.890188	0.000517	5.168152	1.751017	0.000207

PMax (uC/cm2):	1.05e+02
Pr (uC/cm2):	3.23e+01
-Pr (uC/cm2):	2.14e+01
PLoss (uC/cm2):	2.15e+01
Vc:	-4.22e+00
-Vc:	-6.23e+00
C (Max-Eff) (nF):	5.25e-01
K (Eff):	1.78e+03
Vert. (+/-Pr) Shift (uC/cm2):	2.68e+01
Horiz. Shift (+/-Vc):	-5.23e+00
Offset (uC/cm2):	2.23e+01

A (Loop Area - uC/cm2·Volts):	-1.25e+00



Hysteresis Version: 5.48.1 - Radiant Technologies, Inc., 1999 - 9/12/24

