»»»»»»»»»»»»»»»»»»»»»»»»»»»»»»»»»»»» Hysteresis ««««««««««««««««««««««««««««««««««««
»»»  Executed Version:	5.48.1
»»»  Vision Version:	5.48.4 (R)
»»»  Vision Compiled:	9/18/24
»»»  Driver Version:	5.47.0
»»»  Windows Version:	Windows 8 or 8.1
»»»  Processor Information:	x86 (AMD or Intel) - 32 Processors
»»»  Tester Name:	PMF21124-494 (100V)
»»»  Tester S/N:	PMF21124-494
»»»  Internal Amp Type:	100V RevK 270k
»»»  Internal Amp S/N:	iAB2-596/K     
»»»  Execution Count:	1
»»»»»»»»»»»»»»»»»»»»»»»»»»»»»»»»»»»»»»»»»»««««««««««««««««««««««««««««««««««««««««««

Stored:	6/18/2025 - 15:34:24
Configured:	06/18/25 09:47:30 AM
Executed:	06/18/25 03:33:48 PM

»»»»»»»»»»»»»»»»»»»»»»»»»»»»»»»»»»» Sample Info ««««««««««««««««««««««««««««««««««««
Sample Name:	
Lot Name:	
Wafer Name:	
Die Row/Column:	0/0
Capacitor Number:	0
Sample Area (cm2):	1.00e-04
Sample Thickness (microns):	3.00e-01

Amplifier:	Internal

»»»»»»»»»»»»»»»»»»»»»»»»»»»»»»»»»»» Tester Info «««««««««««««««««««««««««««««««««««
Tester Name:	PMF21124-494 (100V)
Tester Serial Number:	PMF21124-494
Return Signal Amp. Level:	0.19 [Index: 3]

»»»»»»»»»»»»»»»»»»»»»»»»»»»»»»»» Hysteresis Info ««««««««««««««««««««««««««««««««««
Task Name:	Hyst-554
Volts:	20.00
Field:	666.67 (kV/cm)
DCBias:	0.00
DCField:	0.00 (kV/cm)
Hysteresis Period (ms):	2.00e+02
Preset:	Enabled
Preset Delay (ms):	1.00e+03
Profile:	Standard Bipolar

»»»»»»»»»»»»»»»»»»»»»»»»»»»»»»»»»»»»»» Data «««««««««««««««««««««««««««««««««««««««
Points:	2009

Valid Data

Point	Time (ms)	Drive Voltage	Measured Polarization (uC/cm2)	Capacitance (uF)	Normalized Capacitance (uF/cm2)	Dielectric Constant	Instantaneous Current (mA)
   1	0.0000e+00	0.0096	-140.330838	0.000487	4.867169	1.649042	0.000195
   2	9.9500e-02	0.0321	-140.137056	0.000487	4.867169	1.649042	0.000195
   3	1.9900e-01	0.0706	-139.870605	0.000669	6.692358	2.267432	0.000268
   4	2.9850e-01	0.1187	-139.640488	0.000578	5.779763	1.958237	0.000231
   5	3.9800e-01	0.1604	-139.357889	0.000710	7.097955	2.404852	0.000284
   6	4.9750e-01	0.1989	-139.119698	0.000598	5.982562	2.026947	0.000239
   7	5.9700e-01	0.2374	-138.925915	0.000487	4.867169	1.649042	0.000195
   8	6.9650e-01	0.2695	-138.715984	0.000527	5.272767	1.786462	0.000211
   9	7.9600e-01	0.3208	-138.449533	0.000669	6.692358	2.267432	0.000268
  10	8.9550e-01	0.3577	-138.239602	0.000527	5.272767	1.786462	0.000211
  11	9.9500e-01	0.3882	-137.965077	0.000690	6.895156	2.336142	0.000276
  12	1.0945e+00	0.4412	-137.706700	0.000649	6.489559	2.198722	0.000260
  13	1.1940e+00	0.4813	-137.512918	0.000487	4.867169	1.649042	0.000195
  14	1.2935e+00	0.5134	-137.254541	0.000649	6.489559	2.198722	0.000260
  15	1.3930e+00	0.5486	-137.032498	0.000558	5.576965	1.889527	0.000223
  16	1.4925e+00	0.5968	-136.786233	0.000619	6.185361	2.095657	0.000248
  17	1.5920e+00	0.6353	-136.495559	0.000730	7.300754	2.473562	0.000292
  18	1.6915e+00	0.6658	-136.265443	0.000578	5.779763	1.958237	0.000231
  19	1.7910e+00	0.7107	-136.011103	0.000639	6.388160	2.164367	0.000256
  20	1.8905e+00	0.7508	-135.724466	0.000720	7.199354	2.439207	0.000288
  21	1.9900e+00	0.8021	-135.474164	0.000629	6.286760	2.130012	0.000252
  22	2.0895e+00	0.8358	-135.211750	0.000659	6.590958	2.233077	0.000264
  23	2.1890e+00	0.8775	-134.973559	0.000598	5.982562	2.026947	0.000239
  24	2.2885e+00	0.9096	-134.735368	0.000598	5.982562	2.026947	0.000239
  25	2.3880e+00	0.9561	-134.489103	0.000619	6.185361	2.095657	0.000248
  26	2.4875e+00	0.9978	-134.267060	0.000558	5.576965	1.889527	0.000223
  27	2.5870e+00	1.0299	-134.016758	0.000629	6.286760	2.130012	0.000252
  28	2.6865e+00	1.0716	-133.790678	0.000568	5.678364	1.923882	0.000227
  29	2.7860e+00	1.1149	-133.532302	0.000649	6.489559	2.198722	0.000260
  30	2.8855e+00	1.1550	-133.273925	0.000649	6.489559	2.198722	0.000260
  31	2.9850e+00	1.1952	-133.031697	0.000608	6.083962	2.061302	0.000243
  32	3.0845e+00	1.2337	-132.736986	0.000740	7.402153	2.507917	0.000296
  33	3.1840e+00	1.2673	-132.494758	0.000608	6.083962	2.061302	0.000243
  34	3.2835e+00	1.3074	-132.248493	0.000619	6.185361	2.095657	0.000248
  35	3.3830e+00	1.3492	-132.006264	0.000608	6.083962	2.061302	0.000243
  36	3.4825e+00	1.3925	-131.723665	0.000710	7.097955	2.404852	0.000284
  37	3.5820e+00	1.4310	-131.477400	0.000619	6.185361	2.095657	0.000248
  38	3.6815e+00	1.4727	-131.178652	0.000750	7.503553	2.542272	0.000300
  39	3.7810e+00	1.5096	-130.916238	0.000659	6.590958	2.233077	0.000264
  40	3.8805e+00	1.5513	-130.674010	0.000608	6.083962	2.061302	0.000243
  41	3.9800e+00	1.5882	-130.387373	0.000720	7.199354	2.439207	0.000288
  42	4.0795e+00	1.6315	-130.209739	0.000446	4.461572	1.511621	0.000179
  43	4.1790e+00	1.6748	-129.906954	0.000760	7.604952	2.576627	0.000304
  44	4.2785e+00	1.7149	-129.713171	0.000487	4.867169	1.649042	0.000195
  45	4.3780e+00	1.7550	-129.434609	0.000700	6.996556	2.370497	0.000280
  46	4.4775e+00	1.7935	-129.172195	0.000659	6.590958	2.233077	0.000264
  47	4.5770e+00	1.8352	-128.893633	0.000700	6.996556	2.370497	0.000280
  48	4.6765e+00	1.8641	-128.643330	0.000629	6.286760	2.130012	0.000252
  49	4.7760e+00	1.9155	-128.401102	0.000608	6.083962	2.061302	0.000243
  50	4.8755e+00	1.9475	-128.150800	0.000629	6.286760	2.130012	0.000252
  51	4.9750e+00	1.9957	-127.856089	0.000740	7.402153	2.507917	0.000296
  52	5.0745e+00	2.0294	-127.605786	0.000629	6.286760	2.130012	0.000252
  53	5.1740e+00	2.0711	-127.335298	0.000679	6.793757	2.301787	0.000272
  54	5.2735e+00	2.1080	-127.080959	0.000639	6.388160	2.164367	0.000256
  55	5.3730e+00	2.1449	-126.818545	0.000659	6.590958	2.233077	0.000264
  56	5.4725e+00	2.1818	-126.519797	0.000750	7.503553	2.542272	0.000300
  57	5.5720e+00	2.2283	-126.241235	0.000700	6.996556	2.370497	0.000280
  58	5.6715e+00	2.2652	-125.950561	0.000730	7.300754	2.473562	0.000292
  59	5.7710e+00	2.3085	-125.748704	0.000507	5.069968	1.717752	0.000203
  60	5.8705e+00	2.3438	-125.453993	0.000740	7.402153	2.507917	0.000296
  61	5.9700e+00	2.3791	-125.207728	0.000619	6.185361	2.095657	0.000248
  62	6.0695e+00	2.4336	-124.969537	0.000598	5.982562	2.026947	0.000239
  63	6.1690e+00	2.4657	-124.747494	0.000558	5.576965	1.889527	0.000223
  64	6.2685e+00	2.5058	-124.448746	0.000750	7.503553	2.542272	0.000300
  65	6.3680e+00	2.5427	-124.182295	0.000669	6.692358	2.267432	0.000268
  66	6.4675e+00	2.5892	-123.895659	0.000720	7.199354	2.439207	0.000288
  67	6.5670e+00	2.6229	-123.661505	0.000588	5.881163	1.992592	0.000235
  68	6.6665e+00	2.6678	-123.370831	0.000730	7.300754	2.473562	0.000292
  69	6.7660e+00	2.7031	-123.132640	0.000598	5.982562	2.026947	0.000239
  70	6.8655e+00	2.7432	-122.858115	0.000690	6.895156	2.336142	0.000276
  71	6.9650e+00	2.7914	-122.583590	0.000690	6.895156	2.336142	0.000276
  72	7.0645e+00	2.8315	-122.317139	0.000669	6.692358	2.267432	0.000268
  73	7.1640e+00	2.8603	-122.026465	0.000730	7.300754	2.473562	0.000292
  74	7.2635e+00	2.9069	-121.735791	0.000730	7.300754	2.473562	0.000292
  75	7.3630e+00	2.9454	-121.501637	0.000588	5.881163	1.992592	0.000235
  76	7.4625e+00	2.9903	-121.202889	0.000750	7.503553	2.542272	0.000300
  77	7.5620e+00	3.0208	-120.920290	0.000710	7.097955	2.404852	0.000284
  78	7.6615e+00	3.0641	-120.690173	0.000578	5.779763	1.958237	0.000231
  79	7.7610e+00	3.1058	-120.431796	0.000649	6.489559	2.198722	0.000260
  80	7.8605e+00	3.1363	-120.169382	0.000659	6.590958	2.233077	0.000264
  81	7.9600e+00	3.1908	-119.882746	0.000720	7.199354	2.439207	0.000288
  82	8.0595e+00	3.2197	-119.656666	0.000568	5.678364	1.923882	0.000227
  83	8.1590e+00	3.2662	-119.382141	0.000690	6.895156	2.336142	0.000276
  84	8.2585e+00	3.3111	-119.111653	0.000679	6.793757	2.301787	0.000272
  85	8.3580e+00	3.3400	-118.885573	0.000568	5.678364	1.923882	0.000227
  86	8.4575e+00	3.3897	-118.570677	0.000791	7.909150	2.679693	0.000316
  87	8.5570e+00	3.4347	-118.300189	0.000679	6.793757	2.301787	0.000272
  88	8.6565e+00	3.4587	-118.009515	0.000730	7.300754	2.473562	0.000292
  89	8.7560e+00	3.4988	-117.751138	0.000649	6.489559	2.198722	0.000260
  90	8.8555e+00	3.5389	-117.472576	0.000700	6.996556	2.370497	0.000280
  91	8.9550e+00	3.5806	-117.161716	0.000781	7.807751	2.645338	0.000312
  92	9.0545e+00	3.6191	-116.907377	0.000639	6.388160	2.164367	0.000256
  93	9.1540e+00	3.6560	-116.580369	0.000821	8.213348	2.782758	0.000329
  94	9.2535e+00	3.6978	-116.346215	0.000588	5.881163	1.992592	0.000235
  95	9.3530e+00	3.7379	-116.087838	0.000649	6.489559	2.198722	0.000260
  96	9.4525e+00	3.7908	-115.805239	0.000710	7.097955	2.404852	0.000284
  97	9.5520e+00	3.8197	-115.522639	0.000710	7.097955	2.404852	0.000284
  98	9.6515e+00	3.8534	-115.284448	0.000598	5.982562	2.026947	0.000239
  99	9.7510e+00	3.9095	-115.022034	0.000659	6.590958	2.233077	0.000264
 100	9.8505e+00	3.9352	-114.743472	0.000700	6.996556	2.370497	0.000280
 101	9.9500e+00	3.9801	-114.456835	0.000720	7.199354	2.439207	0.000288
 102	1.0050e+01	4.0234	-114.190384	0.000669	6.692358	2.267432	0.000268
 103	1.0149e+01	4.0587	-113.944119	0.000619	6.185361	2.095657	0.000248
 104	1.0248e+01	4.1020	-113.637297	0.000771	7.706351	2.610982	0.000308
 105	1.0348e+01	4.1421	-113.338549	0.000750	7.503553	2.542272	0.000300
 106	1.0447e+01	4.1790	-113.116506	0.000558	5.576965	1.889527	0.000223
 107	1.0547e+01	4.2127	-112.789498	0.000821	8.213348	2.782758	0.000329
 108	1.0646e+01	4.2624	-112.519010	0.000679	6.793757	2.301787	0.000272
 109	1.0746e+01	4.3042	-112.204114	0.000791	7.909150	2.679693	0.000316
 110	1.0845e+01	4.3411	-111.965923	0.000598	5.982562	2.026947	0.000239
 111	1.0945e+01	4.3892	-111.659100	0.000771	7.706351	2.610982	0.000308
 112	1.1044e+01	4.4261	-111.372464	0.000720	7.199354	2.439207	0.000288
 113	1.1144e+01	4.4598	-111.101976	0.000679	6.793757	2.301787	0.000272
 114	1.1243e+01	4.5015	-110.811302	0.000730	7.300754	2.473562	0.000292
 115	1.1343e+01	4.5384	-110.556962	0.000639	6.388160	2.164367	0.000256
 116	1.1443e+01	4.5849	-110.342994	0.000537	5.374166	1.820817	0.000215
 117	1.1542e+01	4.6122	-110.052320	0.000730	7.300754	2.473562	0.000292
 118	1.1642e+01	4.6651	-109.785869	0.000669	6.692358	2.267432	0.000268
 119	1.1741e+01	4.7004	-109.507307	0.000700	6.996556	2.370497	0.000280
 120	1.1841e+01	4.7421	-109.224707	0.000710	7.097955	2.404852	0.000284
 121	1.1940e+01	4.7886	-108.998628	0.000568	5.678364	1.923882	0.000227
 122	1.2040e+01	4.8191	-108.687768	0.000781	7.807751	2.645338	0.000312
 123	1.2139e+01	4.8544	-108.425355	0.000659	6.590958	2.233077	0.000264
 124	1.2239e+01	4.8961	-108.118532	0.000771	7.706351	2.610982	0.000308
 125	1.2338e+01	4.9378	-107.839970	0.000700	6.996556	2.370497	0.000280
 126	1.2438e+01	4.9795	-107.521036	0.000801	8.010549	2.714048	0.000321
 127	1.2537e+01	5.0164	-107.218251	0.000760	7.604952	2.576627	0.000304
 128	1.2636e+01	5.0598	-106.911429	0.000771	7.706351	2.610982	0.000308
 129	1.2736e+01	5.0950	-106.665163	0.000619	6.185361	2.095657	0.000248
 130	1.2835e+01	5.1351	-106.382564	0.000710	7.097955	2.404852	0.000284
 131	1.2935e+01	5.1704	-106.091890	0.000730	7.300754	2.473562	0.000292
 132	1.3034e+01	5.2138	-105.845625	0.000619	6.185361	2.095657	0.000248
 133	1.3134e+01	5.2603	-105.542840	0.000760	7.604952	2.576627	0.000304
 134	1.3233e+01	5.2956	-105.324834	0.000548	5.475565	1.855172	0.000219
 135	1.3333e+01	5.3373	-105.042235	0.000710	7.097955	2.404852	0.000284
 136	1.3432e+01	5.3758	-104.783858	0.000649	6.489559	2.198722	0.000260
 137	1.3532e+01	5.4191	-104.493184	0.000730	7.300754	2.473562	0.000292
 138	1.3632e+01	5.4688	-104.190399	0.000760	7.604952	2.576627	0.000304
 139	1.3731e+01	5.4977	-103.932022	0.000649	6.489559	2.198722	0.000260
 140	1.3831e+01	5.5442	-103.673646	0.000649	6.489559	2.198722	0.000260
 141	1.3930e+01	5.5875	-103.382972	0.000730	7.300754	2.473562	0.000292
 142	1.4030e+01	5.6212	-103.108447	0.000690	6.895156	2.336142	0.000276
 143	1.4129e+01	5.6565	-102.817773	0.000730	7.300754	2.473562	0.000292
 144	1.4229e+01	5.6918	-102.494802	0.000811	8.111949	2.748403	0.000325
 145	1.4328e+01	5.7303	-102.187980	0.000771	7.706351	2.610982	0.000308
 146	1.4428e+01	5.7720	-101.913455	0.000690	6.895156	2.336142	0.000276
 147	1.4527e+01	5.8073	-101.638929	0.000690	6.895156	2.336142	0.000276
 148	1.4627e+01	5.8603	-101.380553	0.000649	6.489559	2.198722	0.000260
 149	1.4726e+01	5.8940	-101.097953	0.000710	7.097955	2.404852	0.000284
 150	1.4825e+01	5.9357	-100.795168	0.000760	7.604952	2.576627	0.000304
 151	1.4925e+01	5.9822	-100.496420	0.000750	7.503553	2.542272	0.000300
 152	1.5024e+01	6.0111	-100.221895	0.000690	6.895156	2.336142	0.000276
 153	1.5124e+01	6.0560	-99.991778	0.000578	5.779763	1.958237	0.000231
 154	1.5223e+01	6.0881	-99.684956	0.000771	7.706351	2.610982	0.000308
 155	1.5323e+01	6.1346	-99.414468	0.000679	6.793757	2.301787	0.000272
 156	1.5422e+01	6.1763	-99.168202	0.000619	6.185361	2.095657	0.000248
 157	1.5522e+01	6.2244	-98.849269	0.000801	8.010549	2.714048	0.000321
 158	1.5621e+01	6.2517	-98.566669	0.000710	7.097955	2.404852	0.000284
 159	1.5721e+01	6.2934	-98.292144	0.000690	6.895156	2.336142	0.000276
 160	1.5820e+01	6.3255	-97.973210	0.000801	8.010549	2.714048	0.000321
 161	1.5920e+01	6.3768	-97.674462	0.000750	7.503553	2.542272	0.000300
 162	1.6020e+01	6.4041	-97.371677	0.000760	7.604952	2.576627	0.000304
 163	1.6119e+01	6.4635	-97.072929	0.000750	7.503553	2.542272	0.000300
 164	1.6218e+01	6.4923	-96.826664	0.000619	6.185361	2.095657	0.000248
 165	1.6318e+01	6.5340	-96.544064	0.000710	7.097955	2.404852	0.000284
 166	1.6418e+01	6.5661	-96.269539	0.000690	6.895156	2.336142	0.000276
 167	1.6517e+01	6.6078	-95.978865	0.000730	7.300754	2.473562	0.000292
 168	1.6616e+01	6.6463	-95.623597	0.000892	8.923144	3.023243	0.000357
 169	1.6716e+01	6.7009	-95.377332	0.000619	6.185361	2.095657	0.000248
 170	1.6816e+01	6.7378	-95.118955	0.000649	6.489559	2.198722	0.000260
 171	1.6915e+01	6.7634	-94.852504	0.000669	6.692358	2.267432	0.000268
 172	1.7015e+01	6.8068	-94.553756	0.000750	7.503553	2.542272	0.000300
 173	1.7114e+01	6.8469	-94.295379	0.000649	6.489559	2.198722	0.000260
 174	1.7213e+01	6.8918	-93.964334	0.000831	8.314747	2.817113	0.000333
 175	1.7313e+01	6.9367	-93.689809	0.000690	6.895156	2.336142	0.000276
 176	1.7413e+01	6.9640	-93.419321	0.000679	6.793757	2.301787	0.000272
 177	1.7512e+01	7.0089	-93.120573	0.000750	7.503553	2.542272	0.000300
 178	1.7611e+01	7.0426	-92.837973	0.000710	7.097955	2.404852	0.000284
 179	1.7711e+01	7.0859	-92.555374	0.000710	7.097955	2.404852	0.000284
 180	1.7811e+01	7.1292	-92.208180	0.000872	8.720345	2.954533	0.000349
 181	1.7910e+01	7.1741	-91.937692	0.000679	6.793757	2.301787	0.000272
 182	1.8009e+01	7.2030	-91.687390	0.000629	6.286760	2.130012	0.000252
 183	1.8109e+01	7.2495	-91.344233	0.000862	8.618946	2.920178	0.000345
 184	1.8209e+01	7.2944	-91.041448	0.000760	7.604952	2.576627	0.000304
 185	1.8308e+01	7.3346	-90.762886	0.000700	6.996556	2.370497	0.000280
 186	1.8407e+01	7.3714	-90.496435	0.000669	6.692358	2.267432	0.000268
 187	1.8507e+01	7.4051	-90.205761	0.000730	7.300754	2.473562	0.000292
 188	1.8607e+01	7.4517	-89.967570	0.000598	5.982562	2.026947	0.000239
 189	1.8706e+01	7.4854	-89.656710	0.000781	7.807751	2.645338	0.000312
 190	1.8805e+01	7.5463	-89.374111	0.000710	7.097955	2.404852	0.000284
 191	1.8905e+01	7.5624	-89.111697	0.000659	6.590958	2.233077	0.000264
 192	1.9005e+01	7.5993	-88.792763	0.000801	8.010549	2.714048	0.000321
 193	1.9104e+01	7.6490	-88.518238	0.000690	6.895156	2.336142	0.000276
 194	1.9203e+01	7.6907	-88.215453	0.000760	7.604952	2.576627	0.000304
 195	1.9303e+01	7.7292	-87.928816	0.000720	7.199354	2.439207	0.000288
 196	1.9402e+01	7.7597	-87.658328	0.000679	6.793757	2.301787	0.000272
 197	1.9502e+01	7.8158	-87.294986	0.000913	9.125942	3.091953	0.000365
 198	1.9602e+01	7.8511	-87.004312	0.000730	7.300754	2.473562	0.000292
 199	1.9701e+01	7.8864	-86.717676	0.000720	7.199354	2.439207	0.000288
 200	1.9800e+01	7.9281	-86.459299	0.000649	6.489559	2.198722	0.000260
 201	1.9900e+01	7.9682	-86.095957	0.000913	9.125942	3.091953	0.000365
 202	2.0000e+01	8.0083	-85.861803	0.000588	5.881163	1.992592	0.000235
 203	2.0099e+01	8.0404	-85.546906	0.000791	7.909150	2.679693	0.000316
 204	2.0198e+01	8.0805	-85.260270	0.000720	7.199354	2.439207	0.000288
 205	2.0298e+01	8.1254	-84.997856	0.000659	6.590958	2.233077	0.000264
 206	2.0398e+01	8.1607	-84.715256	0.000710	7.097955	2.404852	0.000284
 207	2.0497e+01	8.2008	-84.464954	0.000629	6.286760	2.130012	0.000252
 208	2.0596e+01	8.2425	-84.214651	0.000629	6.286760	2.130012	0.000252
 209	2.0696e+01	8.2875	-83.891681	0.000811	8.111949	2.748403	0.000325
 210	2.0796e+01	8.3228	-83.637341	0.000639	6.388160	2.164367	0.000256
 211	2.0895e+01	8.3564	-83.298222	0.000852	8.517546	2.885823	0.000341
 212	2.0994e+01	8.4062	-83.003511	0.000740	7.402153	2.507917	0.000296
 213	2.1094e+01	8.4383	-82.688614	0.000791	7.909150	2.679693	0.000316
 214	2.1194e+01	8.4784	-82.438312	0.000629	6.286760	2.130012	0.000252
 215	2.1293e+01	8.5265	-82.115341	0.000811	8.111949	2.748403	0.000325
 216	2.1392e+01	8.5538	-81.832741	0.000710	7.097955	2.404852	0.000284
 217	2.1492e+01	8.5987	-81.497659	0.000842	8.416147	2.851468	0.000337
 218	2.1591e+01	8.6468	-81.158540	0.000852	8.517546	2.885823	0.000341
 219	2.1691e+01	8.6773	-80.908237	0.000629	6.286760	2.130012	0.000252
 220	2.1791e+01	8.7286	-80.548932	0.000902	9.024543	3.057598	0.000361
 221	2.1890e+01	8.7607	-80.290556	0.000649	6.489559	2.198722	0.000260
 222	2.1989e+01	8.8121	-80.016030	0.000690	6.895156	2.336142	0.000276
 223	2.2089e+01	8.8473	-79.721319	0.000740	7.402153	2.507917	0.000296
 224	2.2189e+01	8.8794	-79.402386	0.000801	8.010549	2.714048	0.000321
 225	2.2288e+01	8.9195	-79.123823	0.000700	6.996556	2.370497	0.000280
 226	2.2387e+01	8.9532	-78.861410	0.000659	6.590958	2.233077	0.000264
 227	2.2487e+01	9.0094	-78.562661	0.000750	7.503553	2.542272	0.000300
 228	2.2587e+01	9.0382	-78.235653	0.000821	8.213348	2.782758	0.000329
 229	2.2686e+01	9.0784	-77.944980	0.000730	7.300754	2.473562	0.000292
 230	2.2785e+01	9.1265	-77.642195	0.000760	7.604952	2.576627	0.000304
 231	2.2885e+01	9.1634	-77.355558	0.000720	7.199354	2.439207	0.000288
 232	2.2985e+01	9.1955	-77.028550	0.000821	8.213348	2.782758	0.000329
 233	2.3084e+01	9.2420	-76.729802	0.000750	7.503553	2.542272	0.000300
 234	2.3183e+01	9.2789	-76.422980	0.000771	7.706351	2.610982	0.000308
 235	2.3283e+01	9.3142	-76.079823	0.000862	8.618946	2.920178	0.000345
 236	2.3383e+01	9.3655	-75.777038	0.000760	7.604952	2.576627	0.000304
 237	2.3482e+01	9.3992	-75.437918	0.000852	8.517546	2.885823	0.000341
 238	2.3581e+01	9.4361	-75.159356	0.000700	6.996556	2.370497	0.000280
 239	2.3681e+01	9.4746	-74.864645	0.000740	7.402153	2.507917	0.000296
 240	2.3780e+01	9.5179	-74.525526	0.000852	8.517546	2.885823	0.000341
 241	2.3880e+01	9.5628	-74.238889	0.000720	7.199354	2.439207	0.000288
 242	2.3980e+01	9.5949	-73.972438	0.000669	6.692358	2.267432	0.000268
 243	2.4079e+01	9.6430	-73.649467	0.000811	8.111949	2.748403	0.000325
 244	2.4178e+01	9.6831	-73.378979	0.000679	6.793757	2.301787	0.000272
 245	2.4278e+01	9.7233	-72.999488	0.000953	9.531540	3.229373	0.000381
 246	2.4378e+01	9.7650	-72.712852	0.000720	7.199354	2.439207	0.000288
 247	2.4477e+01	9.8019	-72.418141	0.000740	7.402153	2.507917	0.000296
 248	2.4576e+01	9.8323	-72.070947	0.000872	8.720345	2.954533	0.000349
 249	2.4676e+01	9.8692	-71.776236	0.000740	7.402153	2.507917	0.000296
 250	2.4776e+01	9.9238	-71.465377	0.000781	7.807751	2.645338	0.000312
 251	2.4875e+01	9.9559	-71.134332	0.000831	8.314747	2.817113	0.000333
 252	2.4974e+01	9.9928	-70.811361	0.000811	8.111949	2.748403	0.000325
 253	2.5074e+01	10.0313	-70.464167	0.000872	8.720345	2.954533	0.000349
 254	2.5174e+01	10.0682	-70.116973	0.000872	8.720345	2.954533	0.000349
 255	2.5273e+01	10.1115	-69.850523	0.000669	6.692358	2.267432	0.000268
 256	2.5372e+01	10.1500	-69.483143	0.000923	9.227342	3.126308	0.000369
 257	2.5472e+01	10.1997	-69.184395	0.000750	7.503553	2.542272	0.000300
 258	2.5572e+01	10.2350	-68.825090	0.000902	9.024543	3.057598	0.000361
 259	2.5671e+01	10.2799	-68.522305	0.000760	7.604952	2.576627	0.000304
 260	2.5770e+01	10.3200	-68.207408	0.000791	7.909150	2.679693	0.000316
 261	2.5870e+01	10.3601	-67.900586	0.000771	7.706351	2.610982	0.000308
 262	2.5970e+01	10.3954	-67.569541	0.000831	8.314747	2.817113	0.000333
 263	2.6069e+01	10.4436	-67.238496	0.000831	8.314747	2.817113	0.000333
 264	2.6169e+01	10.4788	-66.887265	0.000882	8.821744	2.988888	0.000353
 265	2.6268e+01	10.5174	-66.515848	0.000933	9.328741	3.160663	0.000373
 266	2.6367e+01	10.5607	-66.192878	0.000811	8.111949	2.748403	0.000325
 267	2.6467e+01	10.5992	-65.837610	0.000892	8.923144	3.023243	0.000357
 268	2.6567e+01	10.6345	-65.502527	0.000842	8.416147	2.851468	0.000337
 269	2.6666e+01	10.6746	-65.143222	0.000902	9.024543	3.057598	0.000361
 270	2.6765e+01	10.7179	-64.836400	0.000771	7.706351	2.610982	0.000308
 271	2.6865e+01	10.7435	-64.440761	0.000994	9.937137	3.366793	0.000398
 272	2.6965e+01	10.7965	-64.073381	0.000923	9.227342	3.126308	0.000369
 273	2.7064e+01	10.8302	-63.710039	0.000913	9.125942	3.091953	0.000365
 274	2.7163e+01	10.8719	-63.330548	0.000953	9.531540	3.229373	0.000381
 275	2.7263e+01	10.9184	-63.015652	0.000791	7.909150	2.679693	0.000316
 276	2.7363e+01	10.9617	-62.640198	0.000943	9.430140	3.195018	0.000377
 277	2.7462e+01	10.9874	-62.272819	0.000923	9.227342	3.126308	0.000369
 278	2.7561e+01	11.0403	-61.933699	0.000852	8.517546	2.885823	0.000341
 279	2.7661e+01	11.0692	-61.598617	0.000842	8.416147	2.851468	0.000337
 280	2.7761e+01	11.1157	-61.223163	0.000943	9.430140	3.195018	0.000377
 281	2.7860e+01	11.1574	-60.867896	0.000892	8.923144	3.023243	0.000357
 282	2.7959e+01	11.1911	-60.540888	0.000821	8.213348	2.782758	0.000329
 283	2.8059e+01	11.2425	-60.116988	0.001065	10.646933	3.607278	0.000426
 284	2.8159e+01	11.2697	-59.749609	0.000923	9.227342	3.126308	0.000369
 285	2.8258e+01	11.3114	-59.358007	0.000984	9.835738	3.332438	0.000394
 286	2.8358e+01	11.3532	-58.962367	0.000994	9.937137	3.366793	0.000398
 287	2.8457e+01	11.3884	-58.578840	0.000963	9.632939	3.263728	0.000385
 288	2.8556e+01	11.4302	-58.243757	0.000842	8.416147	2.851468	0.000337
 289	2.8656e+01	11.4687	-57.775450	0.001176	11.762326	3.985184	0.000471
 290	2.8756e+01	11.5104	-57.416144	0.000902	9.024543	3.057598	0.000361
 291	2.8855e+01	11.5521	-56.955911	0.001156	11.559527	3.916474	0.000463
 292	2.8954e+01	11.5777	-56.568346	0.000973	9.734338	3.298083	0.000390
 293	2.9054e+01	11.6307	-56.124261	0.001115	11.153929	3.779054	0.000446
 294	2.9154e+01	11.6756	-55.696325	0.001075	10.748332	3.641633	0.000430
 295	2.9253e+01	11.7109	-55.312797	0.000963	9.632939	3.263728	0.000385
 296	2.9352e+01	11.7590	-54.913120	0.001004	10.038537	3.401148	0.000402
 297	2.9452e+01	11.7911	-54.432701	0.001207	12.066524	4.088249	0.000483
 298	2.9552e+01	11.8376	-54.057248	0.000943	9.430140	3.195018	0.000377
 299	2.9651e+01	11.8809	-53.609125	0.001126	11.255329	3.813409	0.000450
 300	2.9750e+01	11.9066	-53.140818	0.001176	11.762326	3.985184	0.000471
 301	2.9850e+01	11.9435	-52.737104	0.001014	10.139936	3.435503	0.000406
 302	2.9950e+01	11.9852	-52.252648	0.001217	12.167923	4.122604	0.000487
 303	3.0049e+01	12.0285	-51.780303	0.001186	11.863725	4.019539	0.000475
 304	3.0148e+01	12.0638	-51.303921	0.001197	11.965124	4.053894	0.000479
 305	3.0248e+01	12.1071	-50.847725	0.001146	11.458128	3.882119	0.000458
 306	3.0348e+01	12.1424	-50.318860	0.001328	13.283316	4.500509	0.000532
 307	3.0447e+01	12.1809	-49.850552	0.001176	11.762326	3.985184	0.000471
 308	3.0547e+01	12.2323	-49.337836	0.001288	12.877719	4.363089	0.000515
 309	3.0646e+01	12.2708	-48.817045	0.001308	13.080517	4.431799	0.000523
 310	3.0745e+01	12.3045	-48.300292	0.001298	12.979118	4.397444	0.000519
 311	3.0845e+01	12.3462	-47.807761	0.001237	12.370722	4.191314	0.000495
 312	3.0945e+01	12.3911	-47.319268	0.001227	12.269322	4.156959	0.000491
 313	3.1044e+01	12.4344	-46.859035	0.001156	11.559527	3.916474	0.000463
 314	3.1143e+01	12.4617	-46.394764	0.001166	11.660926	3.950829	0.000467
 315	3.1243e+01	12.5114	-45.950679	0.001115	11.153929	3.779054	0.000446
 316	3.1343e+01	12.5531	-45.462186	0.001227	12.269322	4.156959	0.000491
 317	3.1442e+01	12.5852	-45.005989	0.001146	11.458128	3.882119	0.000458
 318	3.1541e+01	12.6317	-44.561904	0.001115	11.153929	3.779054	0.000446
 319	3.1641e+01	12.6718	-44.049188	0.001288	12.877719	4.363089	0.000515
 320	3.1741e+01	12.7071	-43.592992	0.001146	11.458128	3.882119	0.000458
 321	3.1840e+01	12.7472	-43.120647	0.001186	11.863725	4.019539	0.000475
 322	3.1939e+01	12.7938	-42.591782	0.001328	13.283316	4.500509	0.000532
 323	3.2039e+01	12.8403	-42.127511	0.001166	11.660926	3.950829	0.000467
 324	3.2139e+01	12.8659	-41.574424	0.001389	13.891712	4.706639	0.000556
 325	3.2238e+01	12.9141	-41.122265	0.001136	11.356728	3.847764	0.000454
 326	3.2337e+01	12.9526	-40.593400	0.001328	13.283316	4.500509	0.000532
 327	3.2437e+01	12.9895	-40.088758	0.001267	12.674920	4.294379	0.000507
 328	3.2536e+01	13.0232	-39.543745	0.001369	13.688913	4.637929	0.000548
 329	3.2636e+01	13.0649	-38.986620	0.001399	13.993112	4.740995	0.000560
 330	3.2736e+01	13.1018	-38.530423	0.001146	11.458128	3.882119	0.000458
 331	3.2835e+01	13.1467	-37.985410	0.001369	13.688913	4.637929	0.000548
 332	3.2934e+01	13.1884	-37.492880	0.001237	12.370722	4.191314	0.000495
 333	3.3034e+01	13.2141	-36.943829	0.001379	13.790313	4.672284	0.000552
 334	3.3133e+01	13.2686	-36.443224	0.001257	12.573521	4.260024	0.000503
 335	3.3233e+01	13.2927	-35.878025	0.001420	14.195910	4.809705	0.000568
 336	3.3333e+01	13.3440	-35.365309	0.001288	12.877719	4.363089	0.000515
 337	3.3432e+01	13.3809	-34.836444	0.001328	13.283316	4.500509	0.000532
 338	3.3532e+01	13.4258	-34.238948	0.001501	15.007105	5.084545	0.000600
 339	3.3631e+01	13.4659	-33.685861	0.001389	13.891712	4.706639	0.000556
 340	3.3730e+01	13.4964	-33.185256	0.001257	12.573521	4.260024	0.000503
 341	3.3830e+01	13.5429	-32.652354	0.001338	13.384715	4.534864	0.000536
 342	3.3929e+01	13.5846	-32.111378	0.001359	13.587514	4.603574	0.000544
 343	3.4029e+01	13.6264	-31.554253	0.001399	13.993112	4.740995	0.000560
 344	3.4129e+01	13.6713	-31.029425	0.001318	13.181917	4.466154	0.000527
 345	3.4228e+01	13.7034	-30.476338	0.001389	13.891712	4.706639	0.000556
 346	3.4328e+01	13.7451	-29.874804	0.001511	15.108504	5.118900	0.000605
 347	3.4427e+01	13.7836	-29.285383	0.001480	14.804306	5.015835	0.000592
 348	3.4526e+01	13.8205	-28.708072	0.001450	14.500108	4.912770	0.000580
 349	3.4626e+01	13.8622	-28.134799	0.001440	14.398709	4.878415	0.000576
 350	3.4725e+01	13.9055	-27.549414	0.001470	14.702907	4.981480	0.000588
 351	3.4825e+01	13.9376	-26.976141	0.001440	14.398709	4.878415	0.000576
 352	3.4925e+01	13.9889	-26.346348	0.001582	15.818300	5.359385	0.000633
 353	3.5024e+01	14.0194	-25.720592	0.001572	15.716901	5.325030	0.000629
 354	3.5123e+01	14.0579	-25.139244	0.001460	14.601508	4.947125	0.000584
 355	3.5223e+01	14.1012	-24.481191	0.001653	16.528095	5.599870	0.000661
 356	3.5322e+01	14.1333	-23.899844	0.001460	14.601508	4.947125	0.000584
 357	3.5422e+01	14.1718	-23.217568	0.001714	17.136492	5.806001	0.000686
 358	3.5522e+01	14.2279	-22.611997	0.001521	15.209904	5.153255	0.000609
 359	3.5621e+01	14.2520	-22.030650	0.001460	14.601508	4.947125	0.000584
 360	3.5721e+01	14.2937	-21.400857	0.001582	15.818300	5.359385	0.000633
 361	3.5820e+01	14.3370	-20.750878	0.001633	16.325297	5.531160	0.000653
 362	3.5919e+01	14.3803	-20.133196	0.001551	15.514102	5.256320	0.000621
 363	3.6019e+01	14.4204	-19.487254	0.001622	16.223897	5.496805	0.000649
 364	3.6118e+01	14.4622	-18.893795	0.001491	14.905706	5.050190	0.000596
 365	3.6218e+01	14.5007	-18.207482	0.001724	17.237891	5.840356	0.000690
 366	3.6318e+01	14.5424	-17.614023	0.001491	14.905706	5.050190	0.000596
 367	3.6417e+01	14.5712	-16.939822	0.001693	16.933693	5.737290	0.000678
 368	3.6517e+01	14.6258	-16.350400	0.001480	14.804306	5.015835	0.000592
 369	3.6616e+01	14.6595	-15.756941	0.001491	14.905706	5.050190	0.000596
 370	3.6715e+01	14.7012	-15.106962	0.001633	16.325297	5.531160	0.000653
 371	3.6815e+01	14.7301	-14.509466	0.001501	15.007105	5.084545	0.000600
 372	3.6914e+01	14.7798	-13.899858	0.001531	15.311303	5.187610	0.000613
 373	3.7014e+01	14.8151	-13.278139	0.001562	15.615501	5.290675	0.000625
 374	3.7114e+01	14.8552	-12.692755	0.001470	14.702907	4.981480	0.000588
 375	3.7213e+01	14.8921	-12.103333	0.001480	14.804306	5.015835	0.000592
 376	3.7313e+01	14.9434	-11.481614	0.001562	15.615501	5.290675	0.000625
 377	3.7412e+01	14.9739	-10.843747	0.001602	16.021099	5.428095	0.000641
 378	3.7511e+01	15.0156	-10.213953	0.001582	15.818300	5.359385	0.000633
 379	3.7611e+01	15.0541	-9.604346	0.001531	15.311303	5.187610	0.000613
 380	3.7711e+01	15.0958	-9.014924	0.001480	14.804306	5.015835	0.000592
 381	3.7810e+01	15.1343	-8.364945	0.001633	16.325297	5.531160	0.000653
 382	3.7910e+01	15.1728	-7.787635	0.001450	14.500108	4.912770	0.000580
 383	3.8009e+01	15.2113	-7.137656	0.001633	16.325297	5.531160	0.000653
 384	3.8108e+01	15.2530	-6.443269	0.001744	17.440690	5.909066	0.000698
 385	3.8208e+01	15.2915	-5.825587	0.001551	15.514102	5.256320	0.000621
 386	3.8307e+01	15.3317	-5.199831	0.001572	15.716901	5.325030	0.000629
 387	3.8407e+01	15.3702	-4.574075	0.001572	15.716901	5.325030	0.000629
 388	3.8507e+01	15.4199	-3.903910	0.001683	16.832294	5.702935	0.000674
 389	3.8606e+01	15.4472	-3.237783	0.001673	16.730894	5.668580	0.000669
 390	3.8706e+01	15.4905	-2.575693	0.001663	16.629495	5.634225	0.000665
 391	3.8805e+01	15.5370	-1.877268	0.001754	17.542089	5.943421	0.000702
 392	3.8904e+01	15.5803	-1.142509	0.001845	18.454683	6.252616	0.000738
 393	3.9004e+01	15.6188	-0.411788	0.001835	18.353284	6.218261	0.000734
 394	3.9103e+01	15.6573	0.314897	0.001825	18.251885	6.183906	0.000730
 395	3.9203e+01	15.7006	1.077915	0.001916	19.164479	6.493101	0.000767
 396	3.9303e+01	15.7375	1.796525	0.001805	18.049086	6.115196	0.000722
 397	3.9402e+01	15.7664	2.511098	0.001795	17.947687	6.080841	0.000718
 398	3.9502e+01	15.8081	3.229709	0.001805	18.049086	6.115196	0.000722
 399	3.9601e+01	15.8482	3.980616	0.001886	18.860281	6.390036	0.000755
 400	3.9700e+01	15.8899	4.715375	0.001845	18.454683	6.252616	0.000738
 401	3.9800e+01	15.9300	5.470319	0.001896	18.961680	6.424391	0.000759
 402	3.9900e+01	15.9685	6.217189	0.001876	18.758881	6.355681	0.000751
 403	3.9999e+01	15.9974	6.984245	0.001927	19.265878	6.527456	0.000771
 404	4.0099e+01	16.0584	7.731115	0.001876	18.758881	6.355681	0.000751
 405	4.0198e+01	16.0840	8.469911	0.001856	18.556083	6.286971	0.000743
 406	4.0297e+01	16.1257	9.176410	0.001774	17.744888	6.012131	0.000710
 407	4.0397e+01	16.1691	9.951540	0.001947	19.468677	6.596166	0.000779
 408	4.0496e+01	16.2172	10.706484	0.001896	18.961680	6.424391	0.000759
 409	4.0596e+01	16.2541	11.517948	0.002038	20.381271	6.905362	0.000816
 410	4.0696e+01	16.2862	12.321338	0.002018	20.178472	6.836652	0.000807
 411	4.0795e+01	16.3327	13.100505	0.001957	19.570076	6.630521	0.000783
 412	4.0895e+01	16.3728	13.940230	0.002109	21.091067	7.145847	0.000844
 413	4.0994e+01	16.4145	14.731508	0.001987	19.874274	6.733586	0.000795
 414	4.1093e+01	16.4466	15.506638	0.001947	19.468677	6.596166	0.000779
 415	4.1193e+01	16.4787	16.326177	0.002058	20.584070	6.974072	0.000824
 416	4.1292e+01	16.5364	17.125530	0.002008	20.077073	6.802296	0.000803
 417	4.1392e+01	16.5669	17.981403	0.002150	21.496664	7.283267	0.000860
 418	4.1492e+01	16.6070	18.776718	0.001998	19.975674	6.767941	0.000799
 419	4.1591e+01	16.6535	19.624517	0.002129	21.293865	7.214557	0.000852
 420	4.1691e+01	16.6920	20.460204	0.002099	20.989667	7.111492	0.000840
 421	4.1790e+01	16.7321	21.267631	0.002028	20.279872	6.871007	0.000811
 422	4.1889e+01	16.7739	22.046798	0.001957	19.570076	6.630521	0.000783
 423	4.1989e+01	16.8108	22.838077	0.001987	19.874274	6.733586	0.000795
 424	4.2089e+01	16.8541	23.661653	0.002069	20.685469	7.008427	0.000828
 425	4.2188e+01	16.8942	24.444857	0.001967	19.671476	6.664876	0.000787
 426	4.2288e+01	16.9343	25.244210	0.002008	20.077073	6.802296	0.000803
 427	4.2387e+01	16.9728	26.092008	0.002129	21.293865	7.214557	0.000852
 428	4.2486e+01	17.0049	26.943844	0.002140	21.395265	7.248912	0.000856
 429	4.2586e+01	17.0482	27.755308	0.002038	20.381271	6.905362	0.000816
 430	4.2685e+01	17.0915	28.623292	0.002180	21.800862	7.386332	0.000872
 431	4.2785e+01	17.1268	29.398422	0.001947	19.468677	6.596166	0.000779
 432	4.2885e+01	17.1621	30.250258	0.002140	21.395265	7.248912	0.000856
 433	4.2984e+01	17.2102	31.081908	0.002089	20.888268	7.077137	0.000836
 434	4.3084e+01	17.2487	31.913558	0.002089	20.888268	7.077137	0.000836
 435	4.3183e+01	17.2872	32.805765	0.002241	22.409258	7.592462	0.000897
 436	4.3282e+01	17.3289	33.685861	0.002211	22.105060	7.489397	0.000885
 437	4.3382e+01	17.3642	34.590179	0.002271	22.713456	7.695527	0.000909
 438	4.3481e+01	17.3963	35.502572	0.002292	22.916255	7.764237	0.000917
 439	4.3581e+01	17.4492	36.370556	0.002180	21.800862	7.386332	0.000872
 440	4.3681e+01	17.4926	37.266800	0.002251	22.510658	7.626817	0.000901
 441	4.3780e+01	17.5262	38.142858	0.002200	22.003661	7.455042	0.000880
 442	4.3880e+01	17.5696	39.002768	0.002160	21.598063	7.317622	0.000864
 443	4.3979e+01	17.6097	39.919198	0.002302	23.017654	7.798592	0.000921
 444	4.4078e+01	17.6385	40.803331	0.002221	22.206460	7.523752	0.000889
 445	4.4178e+01	17.6947	41.679389	0.002200	22.003661	7.455042	0.000880
 446	4.4278e+01	17.7364	42.531225	0.002140	21.395265	7.248912	0.000856
 447	4.4377e+01	17.7621	43.427469	0.002251	22.510658	7.626817	0.000901
 448	4.4477e+01	17.8134	44.303528	0.002200	22.003661	7.455042	0.000880
 449	4.4576e+01	17.8455	45.203809	0.002261	22.612057	7.661172	0.000905
 450	4.4675e+01	17.8904	46.047570	0.002119	21.192466	7.180202	0.000848
 451	4.4775e+01	17.9241	46.988223	0.002363	23.626051	8.004723	0.000945
 452	4.4874e+01	17.9626	47.848133	0.002160	21.598063	7.317622	0.000864
 453	4.4974e+01	17.9979	48.808971	0.002413	24.133047	8.176498	0.000966
 454	4.5074e+01	18.0364	49.785958	0.002454	24.538645	8.313918	0.000982
 455	4.5173e+01	18.0861	50.742759	0.002403	24.031648	8.142143	0.000962
 456	4.5273e+01	18.1278	51.647077	0.002271	22.713456	7.695527	0.000909
 457	4.5372e+01	18.1727	52.587730	0.002363	23.626051	8.004723	0.000945
 458	4.5471e+01	18.2016	53.512234	0.002322	23.220453	7.867303	0.000929
 459	4.5571e+01	18.2449	54.432701	0.002312	23.119054	7.832947	0.000925
 460	4.5670e+01	18.2818	55.328945	0.002251	22.510658	7.626817	0.000901
 461	4.5770e+01	18.3235	56.249412	0.002312	23.119054	7.832947	0.000925
 462	4.5870e+01	18.3588	57.177953	0.002332	23.321853	7.901658	0.000933
 463	4.5969e+01	18.4070	58.058049	0.002211	22.105060	7.489397	0.000885
 464	4.6069e+01	18.4391	58.974479	0.002302	23.017654	7.798592	0.000921
 465	4.6168e+01	18.4776	59.882834	0.002281	22.814856	7.729882	0.000913
 466	4.6267e+01	18.5145	60.819450	0.002352	23.524651	7.970368	0.000941
 467	4.6367e+01	18.5642	61.756065	0.002352	23.524651	7.970368	0.000941
 468	4.6467e+01	18.6043	62.640198	0.002221	22.206460	7.523752	0.000889
 469	4.6566e+01	18.6380	63.552591	0.002292	22.916255	7.764237	0.000917
 470	4.6666e+01	18.6797	64.529578	0.002454	24.538645	8.313918	0.000982
 471	4.6765e+01	18.7230	65.450045	0.002312	23.119054	7.832947	0.000925
 472	4.6864e+01	18.7599	66.382623	0.002342	23.423252	7.936013	0.000937
 473	4.6964e+01	18.8128	67.327313	0.002373	23.727450	8.039078	0.000949
 474	4.7063e+01	18.8417	68.300262	0.002444	24.437245	8.279563	0.000978
 475	4.7163e+01	18.8802	69.244952	0.002373	23.727450	8.039078	0.000949
 476	4.7263e+01	18.9235	70.161382	0.002302	23.017654	7.798592	0.000921
 477	4.7362e+01	18.9604	71.162592	0.002515	25.147041	8.520048	0.001006
 478	4.7462e+01	19.0005	72.079021	0.002302	23.017654	7.798592	0.000921
 479	4.7561e+01	19.0422	73.051971	0.002444	24.437245	8.279563	0.000978
 480	4.7660e+01	19.0872	74.000698	0.002383	23.828849	8.073433	0.000953
 481	4.7760e+01	19.1128	74.900979	0.002261	22.612057	7.661172	0.000905
 482	4.7859e+01	19.1610	75.890078	0.002484	24.842843	8.416983	0.000994
 483	4.7959e+01	19.1946	76.814582	0.002322	23.220453	7.867303	0.000929
 484	4.8059e+01	19.2492	77.771383	0.002403	24.031648	8.142143	0.000962
 485	4.8158e+01	19.2813	78.780667	0.002535	25.349840	8.588758	0.001014
 486	4.8258e+01	19.3246	79.753617	0.002444	24.437245	8.279563	0.000978
 487	4.8357e+01	19.3599	80.791160	0.002606	26.059635	8.829243	0.001043
 488	4.8456e+01	19.3952	81.828704	0.002606	26.059635	8.829243	0.001043
 489	4.8556e+01	19.4401	82.882397	0.002647	26.465233	8.966664	0.001059
 490	4.8656e+01	19.4818	83.919941	0.002606	26.059635	8.829243	0.001043
 491	4.8755e+01	19.5155	84.953447	0.002596	25.958236	8.794888	0.001039
 492	4.8855e+01	19.5508	85.974843	0.002565	25.654038	8.691823	0.001027
 493	4.8954e+01	19.6005	87.004312	0.002586	25.856837	8.760533	0.001035
 494	4.9053e+01	19.6374	88.021670	0.002555	25.552638	8.657468	0.001022
 495	4.9153e+01	19.6775	89.063252	0.002616	26.161035	8.863598	0.001047
 496	4.9252e+01	19.7192	90.052350	0.002484	24.842843	8.416983	0.000994
 497	4.9352e+01	19.7545	91.093931	0.002616	26.161035	8.863598	0.001047
 498	4.9452e+01	19.8010	92.042658	0.002383	23.828849	8.073433	0.000953
 499	4.9551e+01	19.8444	93.007533	0.002423	24.234447	8.210853	0.000970
 500	4.9651e+01	19.8797	94.000669	0.002494	24.944242	8.451338	0.000998
 501	4.9750e+01	19.9182	95.022064	0.002565	25.654038	8.691823	0.001027
 502	4.9849e+01	19.9615	96.079793	0.002657	26.566632	9.001019	0.001063
 503	4.9949e+01	19.9952	97.105226	0.002576	25.755437	8.726178	0.001031
 504	5.0048e+01	19.9567	97.735019	-0.001582	-15.818300	-5.359385	0.000633
 505	5.0148e+01	19.9133	98.292144	-0.001399	-13.993112	-4.740995	0.000560
 506	5.0248e+01	19.8813	98.881566	-0.001480	-14.804306	-5.015835	0.000592
 507	5.0347e+01	19.8315	99.454839	-0.001440	-14.398709	-4.878415	0.000576
 508	5.0447e+01	19.7914	100.052335	-0.001501	-15.007105	-5.084545	0.000600
 509	5.0546e+01	19.7577	100.573126	-0.001308	-13.080517	-4.431799	0.000523
 510	5.0645e+01	19.7112	101.138325	-0.001420	-14.195910	-4.809705	0.000568
 511	5.0745e+01	19.6839	101.711598	-0.001440	-14.398709	-4.878415	0.000576
 512	5.0844e+01	19.6326	102.240463	-0.001328	-13.283316	-4.500509	0.000532
 513	5.0944e+01	19.5909	102.753179	-0.001288	-12.877719	-4.363089	0.000515
 514	5.1044e+01	19.5540	103.306266	-0.001389	-13.891712	-4.706639	0.000556
 515	5.1143e+01	19.5155	103.863391	-0.001399	-13.993112	-4.740995	0.000560
 516	5.1242e+01	19.4738	104.359959	-0.001247	-12.472121	-4.225669	0.000499
 517	5.1342e+01	19.4401	104.884786	-0.001318	-13.181917	-4.466154	0.000527
 518	5.1441e+01	19.3968	105.336946	-0.001136	-11.356728	-3.847764	0.000454
 519	5.1541e+01	19.3519	105.801216	-0.001166	-11.660926	-3.950829	0.000467
 520	5.1641e+01	19.3182	106.305858	-0.001267	-12.674920	-4.294379	0.000507
 521	5.1740e+01	19.2765	106.790315	-0.001217	-12.167923	-4.122604	0.000487
 522	5.1840e+01	19.2380	107.254585	-0.001166	-11.660926	-3.950829	0.000467
 523	5.1939e+01	19.2091	107.743079	-0.001227	-12.269322	-4.156959	0.000491
 524	5.2038e+01	19.1626	108.280018	-0.001349	-13.486115	-4.569219	0.000540
 525	5.2138e+01	19.1241	108.760437	-0.001207	-12.066524	-4.088249	0.000483
 526	5.2237e+01	19.0840	109.297376	-0.001349	-13.486115	-4.569219	0.000540
 527	5.2337e+01	19.0438	109.789906	-0.001237	-12.370722	-4.191314	0.000495
 528	5.2437e+01	18.9909	110.282437	-0.001237	-12.370722	-4.191314	0.000495
 529	5.2536e+01	18.9620	110.746708	-0.001166	-11.660926	-3.950829	0.000467
 530	5.2636e+01	18.9235	111.231164	-0.001217	-12.167923	-4.122604	0.000487
 531	5.2735e+01	18.8770	111.671212	-0.001105	-11.052530	-3.744699	0.000442
 532	5.2834e+01	18.8481	112.183928	-0.001288	-12.877719	-4.363089	0.000515
 533	5.2934e+01	18.8080	112.615901	-0.001085	-10.849731	-3.675989	0.000434
 534	5.3033e+01	18.7631	113.039801	-0.001065	-10.646933	-3.607278	0.000426
 535	5.3133e+01	18.7230	113.451589	-0.001034	-10.342735	-3.504213	0.000414
 536	5.3233e+01	18.6845	113.903748	-0.001136	-11.356728	-3.847764	0.000454
 537	5.3332e+01	18.6460	114.303424	-0.001004	-10.038537	-3.401148	0.000402
 538	5.3431e+01	18.6107	114.751546	-0.001126	-11.255329	-3.813409	0.000450
 539	5.3531e+01	18.5642	115.207743	-0.001146	-11.458128	-3.882119	0.000458
 540	5.3630e+01	18.5273	115.623568	-0.001044	-10.444134	-3.538568	0.000418
 541	5.3730e+01	18.4888	116.007095	-0.000963	-9.632939	-3.263728	0.000385
 542	5.3830e+01	18.4342	116.447143	-0.001105	-11.052530	-3.744699	0.000442
 543	5.3929e+01	18.3973	116.871042	-0.001065	-10.646933	-3.607278	0.000426
 544	5.4029e+01	18.3588	117.274756	-0.001014	-10.139936	-3.435503	0.000406
 545	5.4128e+01	18.3252	117.666358	-0.000984	-9.835738	-3.332438	0.000394
 546	5.4227e+01	18.2818	118.049886	-0.000963	-9.632939	-3.263728	0.000385
 547	5.4327e+01	18.2401	118.514157	-0.001166	-11.660926	-3.950829	0.000467
 548	5.4426e+01	18.2032	118.901722	-0.000973	-9.734338	-3.298083	0.000390
 549	5.4526e+01	18.1599	119.289287	-0.000973	-9.734338	-3.298083	0.000390
 550	5.4626e+01	18.1246	119.684926	-0.000994	-9.937137	-3.366793	0.000398
 551	5.4725e+01	18.0829	120.116900	-0.001085	-10.849731	-3.675989	0.000434
 552	5.4825e+01	18.0476	120.516576	-0.001004	-10.038537	-3.401148	0.000402
 553	5.4924e+01	18.0059	120.916252	-0.001004	-10.038537	-3.401148	0.000402
 554	5.5023e+01	17.9690	121.303818	-0.000973	-9.734338	-3.298083	0.000390
 555	5.5123e+01	17.9353	121.675234	-0.000933	-9.328741	-3.160663	0.000373
 556	5.5222e+01	17.8808	121.986093	-0.000781	-7.807751	-2.645338	0.000312
 557	5.5322e+01	17.8359	122.341361	-0.000892	-8.923144	-3.023243	0.000357
 558	5.5422e+01	17.8086	122.745075	-0.001014	-10.139936	-3.435503	0.000406
 559	5.5521e+01	17.7621	123.100343	-0.000892	-8.923144	-3.023243	0.000357
 560	5.5620e+01	17.7220	123.500019	-0.001004	-10.038537	-3.401148	0.000402
 561	5.5720e+01	17.6851	123.948141	-0.001126	-11.255329	-3.813409	0.000450
 562	5.5819e+01	17.6417	124.230741	-0.000710	-7.097955	-2.404852	0.000284
 563	5.5919e+01	17.6000	124.606195	-0.000943	-9.430140	-3.195018	0.000377
 564	5.6019e+01	17.5647	124.973574	-0.000923	-9.227342	-3.126308	0.000369
 565	5.6118e+01	17.5246	125.361139	-0.000973	-9.734338	-3.298083	0.000390
 566	5.6218e+01	17.4861	125.700258	-0.000852	-8.517546	-2.885823	0.000341
 567	5.6317e+01	17.4428	126.027266	-0.000821	-8.213348	-2.782758	0.000329
 568	5.6416e+01	17.4123	126.378497	-0.000882	-8.821744	-2.988888	0.000353
 569	5.6516e+01	17.3738	126.721654	-0.000862	-8.618946	-2.920178	0.000345
 570	5.6615e+01	17.3257	127.068847	-0.000872	-8.720345	-2.954533	0.000349
 571	5.6715e+01	17.2856	127.424115	-0.000892	-8.923144	-3.023243	0.000357
 572	5.6815e+01	17.2535	127.743049	-0.000801	-8.010549	-2.714048	0.000321
 573	5.6914e+01	17.2118	128.017574	-0.000690	-6.895156	-2.336142	0.000276
 574	5.7014e+01	17.1701	128.296137	-0.000700	-6.996556	-2.370497	0.000280
 575	5.7113e+01	17.1300	128.590848	-0.000740	-7.402153	-2.507917	0.000296
 576	5.7212e+01	17.0835	128.889596	-0.000750	-7.503553	-2.542272	0.000300
 577	5.7312e+01	17.0402	129.204492	-0.000791	-7.909150	-2.679693	0.000316
 578	5.7411e+01	17.0065	129.495166	-0.000730	-7.300754	-2.473562	0.000292
 579	5.7511e+01	16.9664	129.806025	-0.000781	-7.807751	-2.645338	0.000312
 580	5.7611e+01	16.9263	130.088625	-0.000710	-7.097955	-2.404852	0.000284
 581	5.7710e+01	16.8846	130.375262	-0.000720	-7.199354	-2.439207	0.000288
 582	5.7809e+01	16.8428	130.645750	-0.000679	-6.793757	-2.301787	0.000272
 583	5.7909e+01	16.8059	130.908163	-0.000659	-6.590958	-2.233077	0.000264
 584	5.8008e+01	16.7658	131.174614	-0.000669	-6.692358	-2.267432	0.000268
 585	5.8108e+01	16.7321	131.396657	-0.000558	-5.576965	-1.889527	0.000223
 586	5.8208e+01	16.6856	131.638885	-0.000608	-6.083962	-2.061302	0.000243
 587	5.8307e+01	16.6519	131.860927	-0.000558	-5.576965	-1.889527	0.000223
 588	5.8407e+01	16.6086	132.078933	-0.000548	-5.475565	-1.855172	0.000219
 589	5.8506e+01	16.5701	132.309050	-0.000578	-5.779763	-1.958237	0.000231
 590	5.8605e+01	16.5268	132.555315	-0.000619	-6.185361	-2.095657	0.000248
 591	5.8705e+01	16.4915	132.728912	-0.000436	-4.360172	-1.477266	0.000174
 592	5.8804e+01	16.4498	132.934806	-0.000517	-5.171367	-1.752107	0.000207
 593	5.8904e+01	16.4161	133.140700	-0.000517	-5.171367	-1.752107	0.000207
 594	5.9004e+01	16.3792	133.314296	-0.000436	-4.360172	-1.477266	0.000174
 595	5.9103e+01	16.3311	133.544413	-0.000578	-5.779763	-1.958237	0.000231
 596	5.9203e+01	16.2926	133.770493	-0.000568	-5.678364	-1.923882	0.000227
 597	5.9302e+01	16.2461	133.968312	-0.000497	-4.968569	-1.683397	0.000199
 598	5.9401e+01	16.2156	134.133835	-0.000416	-4.157374	-1.408556	0.000166
 599	5.9501e+01	16.1691	134.384137	-0.000629	-6.286760	-2.130012	0.000252
 600	5.9600e+01	16.1257	134.565808	-0.000456	-4.562971	-1.545976	0.000183
 601	5.9700e+01	16.0840	134.707108	-0.000355	-3.548978	-1.202426	0.000142
 602	5.9800e+01	16.0584	134.872631	-0.000416	-4.157374	-1.408556	0.000166
 603	5.9899e+01	16.0167	135.062376	-0.000477	-4.765770	-1.614687	0.000191
 604	5.9998e+01	15.9701	135.215787	-0.000385	-3.853176	-1.305491	0.000154
 605	6.0098e+01	15.9316	135.369198	-0.000385	-3.853176	-1.305491	0.000154
 606	6.0197e+01	15.8996	135.546832	-0.000446	-4.461572	-1.511621	0.000179
 607	6.0297e+01	15.8466	135.684095	-0.000345	-3.447578	-1.168071	0.000138
 608	6.0397e+01	15.8097	135.736578	-0.000132	-1.318192	-0.446615	0.000053
 609	6.0496e+01	15.7792	135.946509	-0.000527	-5.272767	-1.786462	0.000211
 610	6.0596e+01	15.7407	136.079734	-0.000335	-3.346179	-1.133716	0.000134
 611	6.0695e+01	15.6910	136.160477	-0.000203	-2.027987	-0.687101	0.000081
 612	6.0794e+01	15.6525	136.301777	-0.000355	-3.548978	-1.202426	0.000142
 613	6.0894e+01	15.6252	136.515745	-0.000537	-5.374166	-1.820817	0.000215
 614	6.0993e+01	15.5691	136.592451	-0.000193	-1.926588	-0.652746	0.000077
 615	6.1093e+01	15.5370	136.757973	-0.000416	-4.157374	-1.408556	0.000166
 616	6.1193e+01	15.4921	136.862939	-0.000264	-2.636383	-0.893231	0.000105
 617	6.1292e+01	15.4536	137.036535	-0.000436	-4.360172	-1.477266	0.000174
 618	6.1392e+01	15.4119	137.109204	-0.000183	-1.825188	-0.618391	0.000073
 619	6.1491e+01	15.3782	137.278764	-0.000426	-4.258773	-1.442911	0.000170
 620	6.1590e+01	15.3365	137.379692	-0.000253	-2.534984	-0.858876	0.000101
 621	6.1690e+01	15.2980	137.472546	-0.000233	-2.332185	-0.790166	0.000093
 622	6.1789e+01	15.2514	137.569437	-0.000243	-2.433585	-0.824521	0.000097
 623	6.1889e+01	15.2161	137.674403	-0.000264	-2.636383	-0.893231	0.000105
 624	6.1989e+01	15.1728	137.783406	-0.000274	-2.737783	-0.927586	0.000110
 625	6.2088e+01	15.1343	137.876260	-0.000233	-2.332185	-0.790166	0.000093
 626	6.2188e+01	15.0958	137.969114	-0.000233	-2.332185	-0.790166	0.000093
 627	6.2287e+01	15.0589	138.110414	-0.000355	-3.548978	-1.202426	0.000142
 628	6.2386e+01	15.0172	138.170971	-0.000152	-1.520990	-0.515325	0.000061
 629	6.2486e+01	14.9739	138.207305	-0.000091	-0.912594	-0.309195	0.000037
 630	6.2586e+01	14.9354	138.332456	-0.000314	-3.143380	-1.065006	0.000126
 631	6.2685e+01	14.8985	138.441459	-0.000274	-2.737783	-0.927586	0.000110
 632	6.2785e+01	14.8600	138.506053	-0.000162	-1.622390	-0.549681	0.000065
 633	6.2884e+01	14.8167	138.582758	-0.000193	-1.926588	-0.652746	0.000077
 634	6.2983e+01	14.7750	138.703873	-0.000304	-3.041981	-1.030651	0.000122
 635	6.3083e+01	14.7301	138.760392	-0.000142	-1.419591	-0.480970	0.000057
 636	6.3182e+01	14.6916	138.845172	-0.000213	-2.129387	-0.721456	0.000085
 637	6.3282e+01	14.6579	138.938026	-0.000233	-2.332185	-0.790166	0.000093
 638	6.3382e+01	14.6210	139.026843	-0.000223	-2.230786	-0.755811	0.000089
 639	6.3481e+01	14.5729	139.111623	-0.000213	-2.129387	-0.721456	0.000085
 640	6.3581e+01	14.5327	139.208515	-0.000243	-2.433585	-0.824521	0.000097
 641	6.3680e+01	14.4991	139.252923	-0.000112	-1.115393	-0.377905	0.000045
 642	6.3779e+01	14.4557	139.333666	-0.000203	-2.027987	-0.687101	0.000081
 643	6.3879e+01	14.4108	139.410371	-0.000193	-1.926588	-0.652746	0.000077
 644	6.3978e+01	14.3755	139.483040	-0.000183	-1.825188	-0.618391	0.000073
 645	6.4078e+01	14.3499	139.571857	-0.000223	-2.230786	-0.755811	0.000089
 646	6.4177e+01	14.2969	139.575894	-0.000010	-0.101399	-0.034355	0.000004
 647	6.4277e+01	14.2600	139.656637	-0.000203	-2.027987	-0.687101	0.000081
 648	6.4376e+01	14.2167	139.701045	-0.000112	-1.115393	-0.377905	0.000045
 649	6.4476e+01	14.1846	139.769676	-0.000172	-1.723789	-0.584036	0.000069
 650	6.4576e+01	14.1381	139.838308	-0.000172	-1.723789	-0.584036	0.000069
 651	6.4675e+01	14.0980	139.894828	-0.000142	-1.419591	-0.480970	0.000057
 652	6.4775e+01	14.0595	139.923088	-0.000071	-0.709796	-0.240485	0.000028
 653	6.4874e+01	14.0226	140.015942	-0.000233	-2.332185	-0.790166	0.000093
 654	6.4974e+01	13.9825	140.048239	-0.000081	-0.811195	-0.274840	0.000032
 655	6.5073e+01	13.9376	140.076499	-0.000071	-0.709796	-0.240485	0.000028
 656	6.5172e+01	13.9007	140.128981	-0.000132	-1.318192	-0.446615	0.000053
 657	6.5272e+01	13.8654	140.149167	-0.000051	-0.506997	-0.171775	0.000020
 658	6.5371e+01	13.8205	140.169353	-0.000051	-0.506997	-0.171775	0.000020
 659	6.5471e+01	13.7836	140.185501	-0.000041	-0.405597	-0.137420	0.000016
 660	6.5570e+01	13.7499	140.197613	-0.000030	-0.304198	-0.103065	0.000012
 661	6.5670e+01	13.7018	140.225873	-0.000071	-0.709796	-0.240485	0.000028
 662	6.5769e+01	13.6681	140.237984	-0.000030	-0.304198	-0.103065	0.000012
 663	6.5869e+01	13.6151	140.233947	0.000010	0.101399	0.034355	-0.000004
 664	6.5969e+01	13.5846	140.229910	0.000010	0.101399	0.034355	-0.000004
 665	6.6068e+01	13.5397	140.286430	-0.000142	-1.419591	-0.480970	0.000057
 666	6.6168e+01	13.4964	140.229910	0.000142	1.419591	0.480970	-0.000057
 667	6.6267e+01	13.4659	140.274318	-0.000112	-1.115393	-0.377905	0.000045
 668	6.6367e+01	13.4146	140.322764	-0.000122	-1.216792	-0.412260	0.000049
 669	6.6466e+01	13.3777	140.302578	0.000051	0.506997	0.171775	-0.000020
 670	6.6566e+01	13.3376	140.286430	0.000041	0.405597	0.137420	-0.000016
 671	6.6665e+01	13.3023	140.330838	-0.000112	-1.115393	-0.377905	0.000045
 672	6.6764e+01	13.2702	140.330838	-0.000000	-0.000000	-0.000000	0.000000
 673	6.6864e+01	13.2205	140.306615	0.000061	0.608396	0.206130	-0.000024
 674	6.6963e+01	13.1836	140.282393	0.000061	0.608396	0.206130	-0.000024
 675	6.7063e+01	13.1419	140.270281	0.000030	0.304198	0.103065	-0.000012
 676	6.7162e+01	13.0986	140.266244	0.000010	0.101399	0.034355	-0.000004
 677	6.7262e+01	13.0649	140.233947	0.000081	0.811195	0.274840	-0.000032
 678	6.7362e+01	13.0200	140.169353	0.000162	1.622390	0.549681	-0.000065
 679	6.7461e+01	12.9734	140.145130	0.000061	0.608396	0.206130	-0.000024
 680	6.7561e+01	12.9413	140.108796	0.000091	0.912594	0.309195	-0.000037
 681	6.7660e+01	12.8980	140.092647	0.000041	0.405597	0.137420	-0.000016
 682	6.7760e+01	12.8724	140.040164	0.000132	1.318192	0.446615	-0.000053
 683	6.7859e+01	12.8371	139.931162	0.000274	2.737783	0.927586	-0.000110
 684	6.7959e+01	12.7857	139.919050	0.000030	0.304198	0.103065	-0.000012
 685	6.8058e+01	12.7504	139.834271	0.000213	2.129387	0.721456	-0.000085
 686	6.8157e+01	12.7071	139.838308	-0.000010	-0.101399	-0.034355	0.000004
 687	6.8257e+01	12.6638	139.806011	0.000081	0.811195	0.274840	-0.000032
 688	6.8356e+01	12.6157	139.757565	0.000122	1.216792	0.412260	-0.000049
 689	6.8456e+01	12.5884	139.697008	0.000152	1.520990	0.515325	-0.000061
 690	6.8555e+01	12.5451	139.604154	0.000233	2.332185	0.790166	-0.000093
 691	6.8655e+01	12.5130	139.567820	0.000091	0.912594	0.309195	-0.000037
 692	6.8754e+01	12.4665	139.495151	0.000183	1.825188	0.618391	-0.000073
 693	6.8854e+01	12.4264	139.450743	0.000112	1.115393	0.377905	-0.000045
 694	6.8954e+01	12.3911	139.418446	0.000081	0.811195	0.274840	-0.000032
 695	6.9053e+01	12.3526	139.277146	0.000355	3.548978	1.202426	-0.000142
 696	6.9153e+01	12.3029	139.256960	0.000051	0.506997	0.171775	-0.000020
 697	6.9252e+01	12.2756	139.168143	0.000223	2.230786	0.755811	-0.000089
 698	6.9352e+01	12.2339	139.087400	0.000203	2.027987	0.687101	-0.000081
 699	6.9451e+01	12.1938	139.030881	0.000142	1.419591	0.480970	-0.000057
 700	6.9550e+01	12.1473	138.950138	0.000203	2.027987	0.687101	-0.000081
 701	6.9650e+01	12.1104	138.833061	0.000294	2.940581	0.996296	-0.000118
 702	6.9749e+01	12.0670	138.752318	0.000203	2.027987	0.687101	-0.000081
 703	6.9849e+01	12.0334	138.687724	0.000162	1.622390	0.549681	-0.000065
 704	6.9948e+01	11.9916	138.623130	0.000162	1.622390	0.549681	-0.000065
 705	7.0048e+01	11.9467	138.558536	0.000162	1.622390	0.549681	-0.000065
 706	7.0147e+01	11.9082	138.493941	0.000162	1.622390	0.549681	-0.000065
 707	7.0247e+01	11.8649	138.429347	0.000162	1.622390	0.549681	-0.000065
 708	7.0347e+01	11.8280	138.356679	0.000183	1.825188	0.618391	-0.000073
 709	7.0446e+01	11.7943	138.271899	0.000213	2.129387	0.721456	-0.000085
 710	7.0546e+01	11.7494	138.179045	0.000233	2.332185	0.790166	-0.000093
 711	7.0645e+01	11.7173	138.114451	0.000162	1.622390	0.549681	-0.000065
 712	7.0745e+01	11.6788	138.017559	0.000243	2.433585	0.824521	-0.000097
 713	7.0844e+01	11.6291	137.932780	0.000213	2.129387	0.721456	-0.000085
 714	7.0944e+01	11.5890	137.835888	0.000243	2.433585	0.824521	-0.000097
 715	7.1043e+01	11.5521	137.767257	0.000172	1.723789	0.584036	-0.000069
 716	7.1142e+01	11.5040	137.670366	0.000243	2.433585	0.824521	-0.000097
 717	7.1242e+01	11.4703	137.573475	0.000243	2.433585	0.824521	-0.000097
 718	7.1341e+01	11.4334	137.460435	0.000284	2.839182	0.961941	-0.000114
 719	7.1441e+01	11.3965	137.391803	0.000172	1.723789	0.584036	-0.000069
 720	7.1540e+01	11.3499	137.266652	0.000314	3.143380	1.065006	-0.000126
 721	7.1640e+01	11.3098	137.198021	0.000172	1.723789	0.584036	-0.000069
 722	7.1740e+01	11.2681	137.080944	0.000294	2.940581	0.996296	-0.000118
 723	7.1839e+01	11.2377	136.988090	0.000233	2.332185	0.790166	-0.000093
 724	7.1939e+01	11.2024	136.911384	0.000193	1.926588	0.652746	-0.000077
 725	7.2038e+01	11.1494	136.794307	0.000294	2.940581	0.996296	-0.000118
 726	7.2138e+01	11.1125	136.717602	0.000193	1.926588	0.652746	-0.000077
 727	7.2237e+01	11.0692	136.600525	0.000294	2.940581	0.996296	-0.000118
 728	7.2337e+01	11.0323	136.503634	0.000243	2.433585	0.824521	-0.000097
 729	7.2436e+01	10.9858	136.402705	0.000253	2.534984	0.858876	-0.000101
 730	7.2535e+01	10.9473	136.293703	0.000274	2.737783	0.927586	-0.000110
 731	7.2635e+01	10.9088	136.200848	0.000233	2.332185	0.790166	-0.000093
 732	7.2734e+01	10.8703	136.107994	0.000233	2.332185	0.790166	-0.000093
 733	7.2834e+01	10.8414	135.970732	0.000345	3.447578	1.168071	-0.000138
 734	7.2933e+01	10.7965	135.853655	0.000294	2.940581	0.996296	-0.000118
 735	7.3033e+01	10.7468	135.732541	0.000304	3.041981	1.030651	-0.000122
 736	7.3132e+01	10.7227	135.611427	0.000304	3.041981	1.030651	-0.000122
 737	7.3232e+01	10.6762	135.466090	0.000365	3.650377	1.236781	-0.000146
 738	7.3332e+01	10.6377	135.320753	0.000365	3.650377	1.236781	-0.000146
 739	7.3431e+01	10.5960	135.219824	0.000253	2.534984	0.858876	-0.000101
 740	7.3531e+01	10.5542	135.058339	0.000406	4.055974	1.374201	-0.000162
 741	7.3630e+01	10.5157	134.908965	0.000375	3.751776	1.271136	-0.000150
 742	7.3730e+01	10.4772	134.860519	0.000122	1.216792	0.412260	-0.000049
 743	7.3829e+01	10.4355	134.719220	0.000355	3.548978	1.202426	-0.000142
 744	7.3928e+01	10.3970	134.606180	0.000284	2.839182	0.961941	-0.000114
 745	7.4028e+01	10.3553	134.460843	0.000365	3.650377	1.236781	-0.000146
 746	7.4127e+01	10.3200	134.359914	0.000253	2.534984	0.858876	-0.000101
 747	7.4227e+01	10.2751	134.226689	0.000335	3.346179	1.133716	-0.000134
 748	7.4326e+01	10.2318	134.028869	0.000497	4.968569	1.683397	-0.000199
 749	7.4426e+01	10.1901	133.944090	0.000213	2.129387	0.721456	-0.000085
 750	7.4525e+01	10.1532	133.798753	0.000365	3.650377	1.236781	-0.000146
 751	7.4625e+01	10.1131	133.669564	0.000324	3.244779	1.099361	-0.000130
 752	7.4725e+01	10.0746	133.520190	0.000375	3.751776	1.271136	-0.000150
 753	7.4824e+01	10.0361	133.350631	0.000426	4.258773	1.442911	-0.000170
 754	7.4924e+01	9.9831	133.229516	0.000304	3.041981	1.030651	-0.000122
 755	7.5023e+01	9.9591	133.080142	0.000375	3.751776	1.271136	-0.000150
 756	7.5123e+01	9.9174	132.878286	0.000507	5.069968	1.717752	-0.000203
 757	7.5222e+01	9.8821	132.712763	0.000416	4.157374	1.408556	-0.000166
 758	7.5322e+01	9.8404	132.506869	0.000517	5.171367	1.752107	-0.000207
 759	7.5421e+01	9.7954	132.357495	0.000375	3.751776	1.271136	-0.000150
 760	7.5520e+01	9.7682	132.220233	0.000345	3.447578	1.168071	-0.000138
 761	7.5620e+01	9.7168	132.062784	0.000395	3.954575	1.339846	-0.000158
 762	7.5719e+01	9.6767	131.913410	0.000375	3.751776	1.271136	-0.000150
 763	7.5819e+01	9.6414	131.800370	0.000284	2.839182	0.961941	-0.000114
 764	7.5918e+01	9.5981	131.626774	0.000436	4.360172	1.477266	-0.000174
 765	7.6018e+01	9.5532	131.441065	0.000466	4.664371	1.580332	-0.000187
 766	7.6118e+01	9.5083	131.323988	0.000294	2.940581	0.996296	-0.000118
 767	7.6217e+01	9.4858	131.138280	0.000466	4.664371	1.580332	-0.000187
 768	7.6317e+01	9.4361	130.984869	0.000385	3.853176	1.305491	-0.000154
 769	7.6416e+01	9.3992	130.787049	0.000497	4.968569	1.683397	-0.000199
 770	7.6516e+01	9.3463	130.573081	0.000537	5.374166	1.820817	-0.000215
 771	7.6615e+01	9.3190	130.435819	0.000345	3.447578	1.168071	-0.000138
 772	7.6715e+01	9.2837	130.262222	0.000436	4.360172	1.477266	-0.000174
 773	7.6814e+01	9.2468	130.080551	0.000456	4.562971	1.545976	-0.000183
 774	7.6913e+01	9.2019	129.890805	0.000477	4.765770	1.614687	-0.000191
 775	7.7013e+01	9.1634	129.697023	0.000487	4.867169	1.649042	-0.000195
 776	7.7112e+01	9.1169	129.470943	0.000568	5.678364	1.923882	-0.000227
 777	7.7212e+01	9.0832	129.301383	0.000426	4.258773	1.442911	-0.000170
 778	7.7311e+01	9.0318	129.091452	0.000527	5.272767	1.786462	-0.000211
 779	7.7411e+01	8.9965	128.950153	0.000355	3.548978	1.202426	-0.000142
 780	7.7510e+01	8.9645	128.792704	0.000395	3.954575	1.339846	-0.000158
 781	7.7610e+01	8.9243	128.639293	0.000385	3.853176	1.305491	-0.000154
 782	7.7710e+01	8.8762	128.409176	0.000578	5.779763	1.958237	-0.000231
 783	7.7809e+01	8.8489	128.243654	0.000416	4.157374	1.408556	-0.000166
 784	7.7909e+01	8.8104	128.041797	0.000507	5.069968	1.717752	-0.000203
 785	7.8008e+01	8.7735	127.884349	0.000395	3.954575	1.339846	-0.000158
 786	7.8108e+01	8.7222	127.694603	0.000477	4.765770	1.614687	-0.000191
 787	7.8207e+01	8.6725	127.512932	0.000456	4.562971	1.545976	-0.000183
 788	7.8306e+01	8.6484	127.294927	0.000548	5.475565	1.855172	-0.000219
 789	7.8406e+01	8.5955	127.129404	0.000416	4.157374	1.408556	-0.000166
 790	7.8505e+01	8.5650	126.939659	0.000477	4.765770	1.614687	-0.000191
 791	7.8605e+01	8.5233	126.741839	0.000497	4.968569	1.683397	-0.000199
 792	7.8704e+01	8.4880	126.539983	0.000507	5.069968	1.717752	-0.000203
 793	7.8804e+01	8.4431	126.313903	0.000568	5.678364	1.923882	-0.000227
 794	7.8903e+01	8.4078	126.108009	0.000517	5.171367	1.752107	-0.000207
 795	7.9003e+01	8.3645	125.890004	0.000548	5.475565	1.855172	-0.000219
 796	7.9103e+01	8.3308	125.684110	0.000517	5.171367	1.752107	-0.000207
 797	7.9202e+01	8.2891	125.482253	0.000507	5.069968	1.717752	-0.000203
 798	7.9302e+01	8.2442	125.296545	0.000466	4.664371	1.580332	-0.000187
 799	7.9401e+01	8.1976	125.094688	0.000507	5.069968	1.717752	-0.000203
 800	7.9501e+01	8.1655	124.908980	0.000466	4.664371	1.580332	-0.000187
 801	7.9600e+01	8.1254	124.678863	0.000578	5.779763	1.958237	-0.000231
 802	7.9700e+01	8.0853	124.485080	0.000487	4.867169	1.649042	-0.000195
 803	7.9799e+01	8.0420	124.259001	0.000568	5.678364	1.923882	-0.000227
 804	7.9898e+01	8.0019	124.065218	0.000487	4.867169	1.649042	-0.000195
 805	7.9998e+01	7.9666	123.814916	0.000629	6.286760	2.130012	-0.000252
 806	8.0097e+01	7.9217	123.609022	0.000517	5.171367	1.752107	-0.000207
 807	8.0197e+01	7.8864	123.407165	0.000507	5.069968	1.717752	-0.000203
 808	8.0296e+01	7.8495	123.181086	0.000568	5.678364	1.923882	-0.000227
 809	8.0396e+01	7.8014	122.942895	0.000598	5.982562	2.026947	-0.000239
 810	8.0496e+01	7.7597	122.708741	0.000588	5.881163	1.992592	-0.000235
 811	8.0595e+01	7.7372	122.535144	0.000436	4.360172	1.477266	-0.000174
 812	8.0695e+01	7.6891	122.300990	0.000588	5.881163	1.992592	-0.000235
 813	8.0794e+01	7.6410	122.070873	0.000578	5.779763	1.958237	-0.000231
 814	8.0894e+01	7.6105	121.812497	0.000649	6.489559	2.198722	-0.000260
 815	8.0993e+01	7.5720	121.586417	0.000568	5.678364	1.923882	-0.000227
 816	8.1093e+01	7.5367	121.400709	0.000466	4.664371	1.580332	-0.000187
 817	8.1192e+01	7.4966	121.158481	0.000608	6.083962	2.061302	-0.000243
 818	8.1291e+01	7.4517	120.904141	0.000639	6.388160	2.164367	-0.000256
 819	8.1391e+01	7.4100	120.742656	0.000406	4.055974	1.374201	-0.000162
 820	8.1490e+01	7.3666	120.484279	0.000649	6.489559	2.198722	-0.000260
 821	8.1590e+01	7.3233	120.282422	0.000507	5.069968	1.717752	-0.000203
 822	8.1689e+01	7.2784	120.052305	0.000578	5.779763	1.958237	-0.000231
 823	8.1789e+01	7.2495	119.793929	0.000649	6.489559	2.198722	-0.000260
 824	8.1888e+01	7.1998	119.551701	0.000608	6.083962	2.061302	-0.000243
 825	8.1988e+01	7.1629	119.305435	0.000619	6.185361	2.095657	-0.000248
 826	8.2088e+01	7.1260	119.115690	0.000477	4.765770	1.614687	-0.000191
 827	8.2187e+01	7.0875	118.901722	0.000537	5.374166	1.820817	-0.000215
 828	8.2287e+01	7.0458	118.655456	0.000619	6.185361	2.095657	-0.000248
 829	8.2386e+01	7.0057	118.413228	0.000608	6.083962	2.061302	-0.000243
 830	8.2486e+01	6.9784	118.154852	0.000649	6.489559	2.198722	-0.000260
 831	8.2585e+01	6.9335	117.912624	0.000608	6.083962	2.061302	-0.000243
 832	8.2684e+01	6.8854	117.670395	0.000608	6.083962	2.061302	-0.000243
 833	8.2784e+01	6.8404	117.464501	0.000517	5.171367	1.752107	-0.000207
 834	8.2883e+01	6.8132	117.214199	0.000629	6.286760	2.130012	-0.000252
 835	8.2983e+01	6.7763	117.008305	0.000517	5.171367	1.752107	-0.000207
 836	8.3082e+01	6.7330	116.745891	0.000659	6.590958	2.233077	-0.000264
 837	8.3182e+01	6.6929	116.527886	0.000548	5.475565	1.855172	-0.000219
 838	8.3281e+01	6.6479	116.305843	0.000558	5.576965	1.889527	-0.000223
 839	8.3381e+01	6.6143	116.031318	0.000690	6.895156	2.336142	-0.000276
 840	8.3481e+01	6.5629	115.793127	0.000598	5.982562	2.026947	-0.000239
 841	8.3580e+01	6.5372	115.506491	0.000720	7.199354	2.439207	-0.000288
 842	8.3680e+01	6.4859	115.264262	0.000608	6.083962	2.061302	-0.000243
 843	8.3779e+01	6.4522	115.042220	0.000558	5.576965	1.889527	-0.000223
 844	8.3879e+01	6.4153	114.812103	0.000578	5.779763	1.958237	-0.000231
 845	8.3978e+01	6.3704	114.529504	0.000710	7.097955	2.404852	-0.000284
 846	8.4078e+01	6.3367	114.287276	0.000608	6.083962	2.061302	-0.000243
 847	8.4177e+01	6.2902	114.045047	0.000608	6.083962	2.061302	-0.000243
 848	8.4276e+01	6.2421	113.774559	0.000679	6.793757	2.301787	-0.000272
 849	8.4376e+01	6.2116	113.520220	0.000639	6.388160	2.164367	-0.000256
 850	8.4475e+01	6.1763	113.229546	0.000730	7.300754	2.473562	-0.000292
 851	8.4575e+01	6.1410	112.991355	0.000598	5.982562	2.026947	-0.000239
 852	8.4674e+01	6.0977	112.720867	0.000679	6.793757	2.301787	-0.000272
 853	8.4774e+01	6.0560	112.523047	0.000497	4.968569	1.683397	-0.000199
 854	8.4874e+01	6.0111	112.248522	0.000690	6.895156	2.336142	-0.000276
 855	8.4973e+01	5.9806	111.969960	0.000700	6.996556	2.370497	-0.000280
 856	8.5073e+01	5.9389	111.723694	0.000619	6.185361	2.095657	-0.000248
 857	8.5172e+01	5.8891	111.493578	0.000578	5.779763	1.958237	-0.000231
 858	8.5272e+01	5.8506	111.219052	0.000690	6.895156	2.336142	-0.000276
 859	8.5371e+01	5.8153	111.005084	0.000537	5.374166	1.820817	-0.000215
 860	8.5471e+01	5.7720	110.746708	0.000649	6.489559	2.198722	-0.000260
 861	8.5570e+01	5.7335	110.500442	0.000619	6.185361	2.095657	-0.000248
 862	8.5669e+01	5.6918	110.233991	0.000669	6.692358	2.267432	-0.000268
 863	8.5769e+01	5.6629	109.955429	0.000700	6.996556	2.370497	-0.000280
 864	8.5868e+01	5.6004	109.697052	0.000649	6.489559	2.198722	-0.000260
 865	8.5968e+01	5.5763	109.398304	0.000750	7.503553	2.542272	-0.000300
 866	8.6067e+01	5.5394	109.152039	0.000619	6.185361	2.095657	-0.000248
 867	8.6167e+01	5.4961	108.877514	0.000690	6.895156	2.336142	-0.000276
 868	8.6266e+01	5.4544	108.590877	0.000720	7.199354	2.439207	-0.000288
 869	8.6366e+01	5.4143	108.348649	0.000608	6.083962	2.061302	-0.000243
 870	8.6466e+01	5.3822	108.118532	0.000578	5.779763	1.958237	-0.000231
 871	8.6565e+01	5.3373	107.844007	0.000690	6.895156	2.336142	-0.000276
 872	8.6665e+01	5.3004	107.589667	0.000639	6.388160	2.164367	-0.000256
 873	8.6764e+01	5.2619	107.323216	0.000669	6.692358	2.267432	-0.000268
 874	8.6864e+01	5.2186	107.048691	0.000690	6.895156	2.336142	-0.000276
 875	8.6963e+01	5.1785	106.798389	0.000629	6.286760	2.130012	-0.000252
 876	8.7063e+01	5.1319	106.499641	0.000750	7.503553	2.542272	-0.000300
 877	8.7162e+01	5.0838	106.281635	0.000548	5.475565	1.855172	-0.000219
 878	8.7261e+01	5.0614	105.982887	0.000750	7.503553	2.542272	-0.000300
 879	8.7361e+01	5.0148	105.772956	0.000527	5.272767	1.786462	-0.000211
 880	8.7460e+01	4.9747	105.478245	0.000740	7.402153	2.507917	-0.000296
 881	8.7560e+01	4.9362	105.203720	0.000690	6.895156	2.336142	-0.000276
 882	8.7659e+01	4.9009	104.933232	0.000679	6.793757	2.301787	-0.000272
 883	8.7759e+01	4.8672	104.662744	0.000679	6.793757	2.301787	-0.000272
 884	8.7859e+01	4.8175	104.380145	0.000710	7.097955	2.404852	-0.000284
 885	8.7958e+01	4.7726	104.113694	0.000669	6.692358	2.267432	-0.000268
 886	8.8058e+01	4.7421	103.814946	0.000750	7.503553	2.542272	-0.000300
 887	8.8157e+01	4.6892	103.532346	0.000710	7.097955	2.404852	-0.000284
 888	8.8257e+01	4.6667	103.326452	0.000517	5.171367	1.752107	-0.000207
 889	8.8356e+01	4.6090	103.047890	0.000700	6.996556	2.370497	-0.000280
 890	8.8456e+01	4.5817	102.821810	0.000568	5.678364	1.923882	-0.000227
 891	8.8555e+01	4.5432	102.539211	0.000710	7.097955	2.404852	-0.000284
 892	8.8654e+01	4.5111	102.264685	0.000690	6.895156	2.336142	-0.000276
 893	8.8754e+01	4.4614	101.994197	0.000679	6.793757	2.301787	-0.000272
 894	8.8853e+01	4.4197	101.731783	0.000659	6.590958	2.233077	-0.000264
 895	8.8953e+01	4.3844	101.461295	0.000679	6.793757	2.301787	-0.000272
 896	8.9052e+01	4.3394	101.223104	0.000598	5.982562	2.026947	-0.000239
 897	8.9152e+01	4.2961	100.892059	0.000831	8.314747	2.817113	-0.000333
 898	8.9251e+01	4.2641	100.649831	0.000608	6.083962	2.061302	-0.000243
 899	8.9351e+01	4.2159	100.375306	0.000690	6.895156	2.336142	-0.000276
 900	8.9451e+01	4.1806	100.120966	0.000639	6.388160	2.164367	-0.000256
 901	8.9550e+01	4.1389	99.854515	0.000669	6.692358	2.267432	-0.000268
 902	8.9650e+01	4.1020	99.575953	0.000700	6.996556	2.370497	-0.000280
 903	8.9749e+01	4.0619	99.224722	0.000882	8.821744	2.988888	-0.000353
 904	8.9849e+01	4.0154	98.917900	0.000771	7.706351	2.610982	-0.000308
 905	8.9948e+01	3.9849	98.712006	0.000517	5.171367	1.752107	-0.000207
 906	9.0047e+01	3.9512	98.445555	0.000669	6.692358	2.267432	-0.000268
 907	9.0147e+01	3.9047	98.179104	0.000669	6.692358	2.267432	-0.000268
 908	9.0246e+01	3.8662	97.904579	0.000690	6.895156	2.336142	-0.000276
 909	9.0346e+01	3.8261	97.630054	0.000690	6.895156	2.336142	-0.000276
 910	9.0445e+01	3.7812	97.379751	0.000629	6.286760	2.130012	-0.000252
 911	9.0545e+01	3.7491	97.093114	0.000720	7.199354	2.439207	-0.000288
 912	9.0644e+01	3.6978	96.810515	0.000710	7.097955	2.404852	-0.000284
 913	9.0744e+01	3.6705	96.556175	0.000639	6.388160	2.164367	-0.000256
 914	9.0844e+01	3.6159	96.249353	0.000771	7.706351	2.610982	-0.000308
 915	9.0943e+01	3.5839	95.974828	0.000690	6.895156	2.336142	-0.000276
 916	9.1043e+01	3.5518	95.692228	0.000710	7.097955	2.404852	-0.000284
 917	9.1142e+01	3.4988	95.454037	0.000598	5.982562	2.026947	-0.000239
 918	9.1242e+01	3.4523	95.171438	0.000710	7.097955	2.404852	-0.000284
 919	9.1341e+01	3.4282	94.868653	0.000760	7.604952	2.576627	-0.000304
 920	9.1441e+01	3.3785	94.626425	0.000608	6.083962	2.061302	-0.000243
 921	9.1540e+01	3.3496	94.343825	0.000710	7.097955	2.404852	-0.000284
 922	9.1639e+01	3.3079	94.037003	0.000771	7.706351	2.610982	-0.000308
 923	9.1739e+01	3.2614	93.738255	0.000750	7.503553	2.542272	-0.000300
 924	9.1838e+01	3.2245	93.487952	0.000629	6.286760	2.130012	-0.000252
 925	9.1938e+01	3.1924	93.197279	0.000730	7.300754	2.473562	-0.000292
 926	9.2037e+01	3.1491	92.967162	0.000578	5.779763	1.958237	-0.000231
 927	9.2137e+01	3.1074	92.688599	0.000700	6.996556	2.370497	-0.000280
 928	9.2237e+01	3.0689	92.430223	0.000649	6.489559	2.198722	-0.000260
 929	9.2336e+01	3.0192	92.135512	0.000740	7.402153	2.507917	-0.000296
 930	9.2436e+01	2.9839	91.856949	0.000700	6.996556	2.370497	-0.000280
 931	9.2535e+01	2.9502	91.590498	0.000669	6.692358	2.267432	-0.000268
 932	9.2635e+01	2.9021	91.287713	0.000760	7.604952	2.576627	-0.000304
 933	9.2734e+01	2.8620	91.057597	0.000578	5.779763	1.958237	-0.000231
 934	9.2834e+01	2.8218	90.795183	0.000659	6.590958	2.233077	-0.000264
 935	9.2933e+01	2.7946	90.516620	0.000700	6.996556	2.370497	-0.000280
 936	9.3032e+01	2.7481	90.234021	0.000710	7.097955	2.404852	-0.000284
 937	9.3132e+01	2.7015	89.955459	0.000700	6.996556	2.370497	-0.000280
 938	9.3231e+01	2.6727	89.668822	0.000720	7.199354	2.439207	-0.000288
 939	9.3331e+01	2.6245	89.378148	0.000730	7.300754	2.473562	-0.000292
 940	9.3430e+01	2.5924	89.022880	0.000892	8.923144	3.023243	-0.000357
 941	9.3530e+01	2.5475	88.768541	0.000639	6.388160	2.164367	-0.000256
 942	9.3629e+01	2.5122	88.502090	0.000669	6.692358	2.267432	-0.000268
 943	9.3729e+01	2.4641	88.203342	0.000750	7.503553	2.542272	-0.000300
 944	9.3829e+01	2.4304	87.953039	0.000629	6.286760	2.130012	-0.000252
 945	9.3928e+01	2.3935	87.710811	0.000608	6.083962	2.061302	-0.000243
 946	9.4028e+01	2.3534	87.395914	0.000791	7.909150	2.679693	-0.000316
 947	9.4127e+01	2.2989	87.161761	0.000588	5.881163	1.992592	-0.000235
 948	9.4227e+01	2.2732	86.911458	0.000629	6.286760	2.130012	-0.000252
 949	9.4326e+01	2.2251	86.616747	0.000740	7.402153	2.507917	-0.000296
 950	9.4425e+01	2.1737	86.342222	0.000690	6.895156	2.336142	-0.000276
 951	9.4525e+01	2.1417	86.019251	0.000811	8.111949	2.748403	-0.000325
 952	9.4624e+01	2.1064	85.732615	0.000720	7.199354	2.439207	-0.000288
 953	9.4724e+01	2.0823	85.490386	0.000608	6.083962	2.061302	-0.000243
 954	9.4823e+01	2.0310	85.199713	0.000730	7.300754	2.473562	-0.000292
 955	9.4923e+01	1.9796	84.913076	0.000720	7.199354	2.439207	-0.000288
 956	9.5022e+01	1.9507	84.638551	0.000690	6.895156	2.336142	-0.000276
 957	9.5122e+01	1.9187	84.364026	0.000690	6.895156	2.336142	-0.000276
 958	9.5222e+01	1.8641	84.032980	0.000831	8.314747	2.817113	-0.000333
 959	9.5321e+01	1.8192	83.730195	0.000760	7.604952	2.576627	-0.000304
 960	9.5421e+01	1.7935	83.439521	0.000730	7.300754	2.473562	-0.000292
 961	9.5520e+01	1.7534	83.173070	0.000669	6.692358	2.267432	-0.000268
 962	9.5620e+01	1.7069	82.934879	0.000598	5.982562	2.026947	-0.000239
 963	9.5719e+01	1.6764	82.660354	0.000690	6.895156	2.336142	-0.000276
 964	9.5819e+01	1.6299	82.414089	0.000619	6.185361	2.095657	-0.000248
 965	9.5918e+01	1.5962	82.147638	0.000669	6.692358	2.267432	-0.000268
 966	9.6017e+01	1.5513	81.832741	0.000791	7.909150	2.679693	-0.000316
 967	9.6117e+01	1.5096	81.574365	0.000649	6.489559	2.198722	-0.000260
 968	9.6216e+01	1.4711	81.271580	0.000760	7.604952	2.576627	-0.000304
 969	9.6316e+01	1.4246	80.976869	0.000740	7.402153	2.507917	-0.000296
 970	9.6415e+01	1.3925	80.674083	0.000760	7.604952	2.576627	-0.000304
 971	9.6515e+01	1.3572	80.452041	0.000558	5.576965	1.889527	-0.000223
 972	9.6615e+01	1.3187	80.141182	0.000781	7.807751	2.645338	-0.000312
 973	9.6714e+01	1.2722	79.858582	0.000710	7.097955	2.404852	-0.000284
 974	9.6814e+01	1.2304	79.580020	0.000700	6.996556	2.370497	-0.000280
 975	9.6913e+01	1.1919	79.269160	0.000781	7.807751	2.645338	-0.000312
 976	9.7013e+01	1.1615	78.974449	0.000740	7.402153	2.507917	-0.000296
 977	9.7112e+01	1.1085	78.679738	0.000740	7.402153	2.507917	-0.000296
 978	9.7212e+01	1.0716	78.401176	0.000700	6.996556	2.370497	-0.000280
 979	9.7311e+01	1.0267	78.142799	0.000649	6.489559	2.198722	-0.000260
 980	9.7410e+01	1.0026	77.892497	0.000629	6.286760	2.130012	-0.000252
 981	9.7510e+01	0.9561	77.581637	0.000781	7.807751	2.645338	-0.000312
 982	9.7609e+01	0.9112	77.335372	0.000619	6.185361	2.095657	-0.000248
 983	9.7709e+01	0.8647	77.048736	0.000720	7.199354	2.439207	-0.000288
 984	9.7808e+01	0.8278	76.798433	0.000629	6.286760	2.130012	-0.000252
 985	9.7908e+01	0.7861	76.495648	0.000760	7.604952	2.576627	-0.000304
 986	9.8007e+01	0.7508	76.200937	0.000740	7.402153	2.507917	-0.000296
 987	9.8107e+01	0.7139	75.910263	0.000730	7.300754	2.473562	-0.000292
 988	9.8207e+01	0.6786	75.639775	0.000679	6.793757	2.301787	-0.000272
 989	9.8306e+01	0.6353	75.324879	0.000791	7.909150	2.679693	-0.000316
 990	9.8406e+01	0.5904	75.086688	0.000598	5.982562	2.026947	-0.000239
 991	9.8505e+01	0.5551	74.787940	0.000750	7.503553	2.542272	-0.000300
 992	9.8605e+01	0.5150	74.493229	0.000740	7.402153	2.507917	-0.000296
 993	9.8704e+01	0.4749	74.226778	0.000669	6.692358	2.267432	-0.000268
 994	9.8803e+01	0.4364	73.911881	0.000791	7.909150	2.679693	-0.000316
 995	9.8903e+01	0.3882	73.641393	0.000679	6.793757	2.301787	-0.000272
 996	9.9002e+01	0.3497	73.326496	0.000791	7.909150	2.679693	-0.000316
 997	9.9102e+01	0.3064	73.076194	0.000629	6.286760	2.130012	-0.000252
 998	9.9201e+01	0.2775	72.797632	0.000700	6.996556	2.370497	-0.000280
 999	9.9301e+01	0.2342	72.567515	0.000578	5.779763	1.958237	-0.000231
1000	9.9400e+01	0.1925	72.329324	0.000598	5.982562	2.026947	-0.000239
1001	9.9500e+01	0.1572	72.018464	0.000781	7.807751	2.645338	-0.000312
1002	9.9600e+01	0.1107	71.719716	0.000750	7.503553	2.542272	-0.000300
1003	9.9699e+01	0.0722	71.433080	0.000720	7.199354	2.439207	-0.000288
1004	9.9799e+01	0.0321	71.130295	0.000760	7.604952	2.576627	-0.000304
1005	9.9898e+01	0.0096	70.936512	0.000487	4.867169	1.649042	-0.000195
1006	9.9998e+01	-0.0385	70.633727	0.000760	7.604952	2.576627	-0.000304
1007	1.0010e+02	-0.0738	70.339016	0.000740	7.402153	2.507917	-0.000296
1008	1.0020e+02	-0.1219	70.068528	0.000679	6.793757	2.301787	-0.000272
1009	1.0030e+02	-0.1524	69.781891	0.000720	7.199354	2.439207	-0.000288
1010	1.0040e+02	-0.2021	69.487180	0.000740	7.402153	2.507917	-0.000296
1011	1.0050e+02	-0.2310	69.212655	0.000690	6.895156	2.336142	-0.000276
1012	1.0059e+02	-0.2791	68.889684	0.000811	8.111949	2.748403	-0.000325
1013	1.0069e+02	-0.3225	68.623233	0.000669	6.692358	2.267432	-0.000268
1014	1.0079e+02	-0.3465	68.336597	0.000720	7.199354	2.439207	-0.000288
1015	1.0089e+02	-0.3962	68.017663	0.000801	8.010549	2.714048	-0.000321
1016	1.0099e+02	-0.4235	67.747175	0.000679	6.793757	2.301787	-0.000272
1017	1.0109e+02	-0.4781	67.504947	0.000608	6.083962	2.061302	-0.000243
1018	1.0119e+02	-0.5214	67.194087	0.000781	7.807751	2.645338	-0.000312
1019	1.0129e+02	-0.5535	66.963970	0.000578	5.779763	1.958237	-0.000231
1020	1.0139e+02	-0.5855	66.669260	0.000740	7.402153	2.507917	-0.000296
1021	1.0149e+02	-0.6321	66.386660	0.000710	7.097955	2.404852	-0.000284
1022	1.0159e+02	-0.6786	66.100023	0.000720	7.199354	2.439207	-0.000288
1023	1.0169e+02	-0.7139	65.857795	0.000608	6.083962	2.061302	-0.000243
1024	1.0179e+02	-0.7572	65.555010	0.000760	7.604952	2.576627	-0.000304
1025	1.0189e+02	-0.7973	65.264336	0.000730	7.300754	2.473562	-0.000292
1026	1.0199e+02	-0.8358	64.985774	0.000700	6.996556	2.370497	-0.000280
1027	1.0209e+02	-0.8711	64.719323	0.000669	6.692358	2.267432	-0.000268
1028	1.0219e+02	-0.9208	64.408464	0.000781	7.807751	2.645338	-0.000312
1029	1.0229e+02	-0.9625	64.158161	0.000629	6.286760	2.130012	-0.000252
1030	1.0239e+02	-0.9962	63.802893	0.000892	8.923144	3.023243	-0.000357
1031	1.0248e+02	-1.0363	63.556628	0.000619	6.185361	2.095657	-0.000248
1032	1.0258e+02	-1.0780	63.229620	0.000821	8.213348	2.782758	-0.000329
1033	1.0268e+02	-1.1117	62.955095	0.000690	6.895156	2.336142	-0.000276
1034	1.0278e+02	-1.1518	62.684607	0.000679	6.793757	2.301787	-0.000272
1035	1.0288e+02	-1.1855	62.454490	0.000578	5.779763	1.958237	-0.000231
1036	1.0298e+02	-1.2321	62.184002	0.000679	6.793757	2.301787	-0.000272
1037	1.0308e+02	-1.2722	61.877179	0.000771	7.706351	2.610982	-0.000308
1038	1.0318e+02	-1.3074	61.590543	0.000720	7.199354	2.439207	-0.000288
1039	1.0328e+02	-1.3460	61.295832	0.000740	7.402153	2.507917	-0.000296
1040	1.0338e+02	-1.3780	61.049567	0.000619	6.185361	2.095657	-0.000248
1041	1.0348e+02	-1.4374	60.762930	0.000720	7.199354	2.439207	-0.000288
1042	1.0358e+02	-1.4743	60.504553	0.000649	6.489559	2.198722	-0.000260
1043	1.0368e+02	-1.5160	60.193694	0.000781	7.807751	2.645338	-0.000312
1044	1.0378e+02	-1.5433	59.919169	0.000690	6.895156	2.336142	-0.000276
1045	1.0388e+02	-1.5946	59.648681	0.000679	6.793757	2.301787	-0.000272
1046	1.0398e+02	-1.6251	59.337821	0.000781	7.807751	2.645338	-0.000312
1047	1.0408e+02	-1.6652	59.087519	0.000629	6.286760	2.130012	-0.000252
1048	1.0418e+02	-1.7117	58.768585	0.000801	8.010549	2.714048	-0.000321
1049	1.0428e+02	-1.7566	58.457725	0.000781	7.807751	2.645338	-0.000312
1050	1.0438e+02	-1.7839	58.203386	0.000639	6.388160	2.164367	-0.000256
1051	1.0447e+02	-1.8272	57.896564	0.000771	7.706351	2.610982	-0.000308
1052	1.0457e+02	-1.8641	57.642224	0.000639	6.388160	2.164367	-0.000256
1053	1.0467e+02	-1.9155	57.359625	0.000710	7.097955	2.404852	-0.000284
1054	1.0477e+02	-1.9491	57.101248	0.000649	6.489559	2.198722	-0.000260
1055	1.0487e+02	-1.9876	56.850945	0.000629	6.286760	2.130012	-0.000252
1056	1.0497e+02	-2.0245	56.556235	0.000740	7.402153	2.507917	-0.000296
1057	1.0507e+02	-2.0663	56.293821	0.000659	6.590958	2.233077	-0.000264
1058	1.0517e+02	-2.0999	56.003147	0.000730	7.300754	2.473562	-0.000292
1059	1.0527e+02	-2.1481	55.720547	0.000710	7.097955	2.404852	-0.000284
1060	1.0537e+02	-2.1882	55.446022	0.000690	6.895156	2.336142	-0.000276
1061	1.0547e+02	-2.2283	55.159386	0.000720	7.199354	2.439207	-0.000288
1062	1.0557e+02	-2.2732	54.884860	0.000690	6.895156	2.336142	-0.000276
1063	1.0567e+02	-2.3101	54.602261	0.000710	7.097955	2.404852	-0.000284
1064	1.0577e+02	-2.3406	54.291401	0.000781	7.807751	2.645338	-0.000312
1065	1.0587e+02	-2.3823	54.053210	0.000598	5.982562	2.026947	-0.000239
1066	1.0597e+02	-2.4192	53.750425	0.000760	7.604952	2.576627	-0.000304
1067	1.0607e+02	-2.4641	53.443603	0.000771	7.706351	2.610982	-0.000308
1068	1.0617e+02	-2.4994	53.177152	0.000669	6.692358	2.267432	-0.000268
1069	1.0627e+02	-2.5443	52.858218	0.000801	8.010549	2.714048	-0.000321
1070	1.0637e+02	-2.5844	52.607916	0.000629	6.286760	2.130012	-0.000252
1071	1.0647e+02	-2.6181	52.337428	0.000679	6.793757	2.301787	-0.000272
1072	1.0656e+02	-2.6678	52.050791	0.000720	7.199354	2.439207	-0.000288
1073	1.0666e+02	-2.7031	51.816637	0.000588	5.881163	1.992592	-0.000235
1074	1.0676e+02	-2.7432	51.534038	0.000710	7.097955	2.404852	-0.000284
1075	1.0686e+02	-2.7962	51.259512	0.000690	6.895156	2.336142	-0.000276
1076	1.0696e+02	-2.8202	50.948653	0.000781	7.807751	2.645338	-0.000312
1077	1.0706e+02	-2.8636	50.686239	0.000659	6.590958	2.233077	-0.000264
1078	1.0716e+02	-2.9005	50.431900	0.000639	6.388160	2.164367	-0.000256
1079	1.0726e+02	-2.9518	50.121040	0.000781	7.807751	2.645338	-0.000312
1080	1.0736e+02	-2.9919	49.866701	0.000639	6.388160	2.164367	-0.000256
1081	1.0746e+02	-3.0304	49.559878	0.000771	7.706351	2.610982	-0.000308
1082	1.0756e+02	-3.0737	49.305539	0.000639	6.388160	2.164367	-0.000256
1083	1.0766e+02	-3.1106	49.047162	0.000649	6.489559	2.198722	-0.000260
1084	1.0776e+02	-3.1347	48.748414	0.000750	7.503553	2.542272	-0.000300
1085	1.0786e+02	-3.1876	48.441592	0.000771	7.706351	2.610982	-0.000308
1086	1.0796e+02	-3.2213	48.138807	0.000760	7.604952	2.576627	-0.000304
1087	1.0806e+02	-3.2566	47.876393	0.000659	6.590958	2.233077	-0.000264
1088	1.0816e+02	-3.3143	47.569570	0.000771	7.706351	2.610982	-0.000308
1089	1.0826e+02	-3.3561	47.299082	0.000679	6.793757	2.301787	-0.000272
1090	1.0836e+02	-3.3865	47.032631	0.000669	6.692358	2.267432	-0.000268
1091	1.0845e+02	-3.4266	46.782329	0.000629	6.286760	2.130012	-0.000252
1092	1.0855e+02	-3.4635	46.536064	0.000619	6.185361	2.095657	-0.000248
1093	1.0865e+02	-3.5020	46.253464	0.000710	7.097955	2.404852	-0.000284
1094	1.0875e+02	-3.5502	46.011236	0.000608	6.083962	2.061302	-0.000243
1095	1.0885e+02	-3.5887	45.708451	0.000760	7.604952	2.576627	-0.000304
1096	1.0895e+02	-3.6224	45.462186	0.000619	6.185361	2.095657	-0.000248
1097	1.0905e+02	-3.6689	45.143252	0.000801	8.010549	2.714048	-0.000321
1098	1.0915e+02	-3.7106	44.892949	0.000629	6.286760	2.130012	-0.000252
1099	1.0925e+02	-3.7411	44.638610	0.000639	6.388160	2.164367	-0.000256
1100	1.0935e+02	-3.7812	44.356010	0.000710	7.097955	2.404852	-0.000284
1101	1.0945e+02	-3.8213	44.065337	0.000730	7.300754	2.473562	-0.000292
1102	1.0955e+02	-3.8566	43.810997	0.000639	6.388160	2.164367	-0.000256
1103	1.0965e+02	-3.8983	43.524360	0.000720	7.199354	2.439207	-0.000288
1104	1.0975e+02	-3.9368	43.189278	0.000842	8.416147	2.851468	-0.000337
1105	1.0985e+02	-3.9785	42.918790	0.000679	6.793757	2.301787	-0.000272
1106	1.0995e+02	-4.0250	42.676562	0.000608	6.083962	2.061302	-0.000243
1107	1.1005e+02	-4.0571	42.385888	0.000730	7.300754	2.473562	-0.000292
1108	1.1015e+02	-4.1020	42.083103	0.000760	7.604952	2.576627	-0.000304
1109	1.1025e+02	-4.1518	41.852986	0.000578	5.779763	1.958237	-0.000231
1110	1.1035e+02	-4.1919	41.558275	0.000740	7.402153	2.507917	-0.000296
1111	1.1044e+02	-4.2239	41.384678	0.000436	4.360172	1.477266	-0.000174
1112	1.1054e+02	-4.2624	41.085930	0.000750	7.503553	2.542272	-0.000300
1113	1.1064e+02	-4.3026	40.823517	0.000659	6.590958	2.233077	-0.000264
1114	1.1074e+02	-4.3411	40.480360	0.000862	8.618946	2.920178	-0.000345
1115	1.1084e+02	-4.3812	40.242169	0.000598	5.982562	2.026947	-0.000239
1116	1.1094e+02	-4.4213	40.003978	0.000598	5.982562	2.026947	-0.000239
1117	1.1104e+02	-4.4550	39.705230	0.000750	7.503553	2.542272	-0.000300
1118	1.1114e+02	-4.5015	39.406482	0.000750	7.503553	2.542272	-0.000300
1119	1.1124e+02	-4.5416	39.131957	0.000690	6.895156	2.336142	-0.000276
1120	1.1134e+02	-4.5721	38.913951	0.000548	5.475565	1.855172	-0.000219
1121	1.1144e+02	-4.6218	38.603092	0.000781	7.807751	2.645338	-0.000312
1122	1.1154e+02	-4.6667	38.263973	0.000852	8.517546	2.885823	-0.000341
1123	1.1164e+02	-4.6924	38.017707	0.000619	6.185361	2.095657	-0.000248
1124	1.1174e+02	-4.7277	37.731071	0.000720	7.199354	2.439207	-0.000288
1125	1.1184e+02	-4.7710	37.464620	0.000669	6.692358	2.267432	-0.000268
1126	1.1194e+02	-4.8191	37.210280	0.000639	6.388160	2.164367	-0.000256
1127	1.1204e+02	-4.8624	36.927681	0.000710	7.097955	2.404852	-0.000284
1128	1.1214e+02	-4.8993	36.669304	0.000649	6.489559	2.198722	-0.000260
1129	1.1224e+02	-4.9298	36.423039	0.000619	6.185361	2.095657	-0.000248
1130	1.1234e+02	-4.9827	36.184848	0.000598	5.982562	2.026947	-0.000239
1131	1.1244e+02	-5.0212	35.878025	0.000771	7.706351	2.610982	-0.000308
1132	1.1253e+02	-5.0501	35.595426	0.000710	7.097955	2.404852	-0.000284
1133	1.1263e+02	-5.0983	35.373383	0.000558	5.576965	1.889527	-0.000223
1134	1.1273e+02	-5.1384	35.135192	0.000598	5.982562	2.026947	-0.000239
1135	1.1283e+02	-5.1801	34.840481	0.000740	7.402153	2.507917	-0.000296
1136	1.1293e+02	-5.2073	34.569993	0.000679	6.793757	2.301787	-0.000272
1137	1.1303e+02	-5.2539	34.287394	0.000710	7.097955	2.404852	-0.000284
1138	1.1313e+02	-5.2827	34.016906	0.000679	6.793757	2.301787	-0.000272
1139	1.1323e+02	-5.3357	33.697972	0.000801	8.010549	2.714048	-0.000321
1140	1.1333e+02	-5.3630	33.459781	0.000598	5.982562	2.026947	-0.000239
1141	1.1343e+02	-5.4175	33.108550	0.000882	8.821744	2.988888	-0.000353
1142	1.1353e+02	-5.4576	32.870359	0.000598	5.982562	2.026947	-0.000239
1143	1.1363e+02	-5.4993	32.611982	0.000649	6.489559	2.198722	-0.000260
1144	1.1373e+02	-5.5346	32.349569	0.000659	6.590958	2.233077	-0.000264
1145	1.1383e+02	-5.5747	32.079081	0.000679	6.793757	2.301787	-0.000272
1146	1.1393e+02	-5.6164	31.808592	0.000679	6.793757	2.301787	-0.000272
1147	1.1403e+02	-5.6662	31.582513	0.000568	5.678364	1.923882	-0.000227
1148	1.1413e+02	-5.6934	31.283765	0.000750	7.503553	2.542272	-0.000300
1149	1.1423e+02	-5.7351	31.061722	0.000558	5.576965	1.889527	-0.000223
1150	1.1433e+02	-5.7704	30.771049	0.000730	7.300754	2.473562	-0.000292
1151	1.1442e+02	-5.8121	30.524783	0.000619	6.185361	2.095657	-0.000248
1152	1.1452e+02	-5.8506	30.266407	0.000649	6.489559	2.198722	-0.000260
1153	1.1462e+02	-5.9020	29.963621	0.000760	7.604952	2.576627	-0.000304
1154	1.1472e+02	-5.9292	29.697170	0.000669	6.692358	2.267432	-0.000268
1155	1.1482e+02	-5.9726	29.418608	0.000700	6.996556	2.370497	-0.000280
1156	1.1492e+02	-6.0175	29.131971	0.000720	7.199354	2.439207	-0.000288
1157	1.1502e+02	-6.0512	28.841298	0.000730	7.300754	2.473562	-0.000292
1158	1.1512e+02	-6.0961	28.627330	0.000537	5.374166	1.820817	-0.000215
1159	1.1522e+02	-6.1266	28.328581	0.000750	7.503553	2.542272	-0.000300
1160	1.1532e+02	-6.1731	28.037908	0.000730	7.300754	2.473562	-0.000292
1161	1.1542e+02	-6.2132	27.803754	0.000588	5.881163	1.992592	-0.000235
1162	1.1552e+02	-6.2469	27.549414	0.000639	6.388160	2.164367	-0.000256
1163	1.1562e+02	-6.2934	27.246629	0.000760	7.604952	2.576627	-0.000304
1164	1.1572e+02	-6.3351	27.016512	0.000578	5.779763	1.958237	-0.000231
1165	1.1582e+02	-6.3720	26.746024	0.000679	6.793757	2.301787	-0.000272
1166	1.1592e+02	-6.4153	26.499759	0.000619	6.185361	2.095657	-0.000248
1167	1.1602e+02	-6.4506	26.293865	0.000517	5.171367	1.752107	-0.000207
1168	1.1612e+02	-6.4923	26.035488	0.000649	6.489559	2.198722	-0.000260
1169	1.1622e+02	-6.5260	25.736740	0.000750	7.503553	2.542272	-0.000300
1170	1.1632e+02	-6.5725	25.522772	0.000537	5.374166	1.820817	-0.000215
1171	1.1642e+02	-6.6030	25.240173	0.000710	7.097955	2.404852	-0.000284
1172	1.1651e+02	-6.6399	24.933350	0.000771	7.706351	2.610982	-0.000308
1173	1.1661e+02	-6.6848	24.715345	0.000548	5.475565	1.855172	-0.000219
1174	1.1671e+02	-6.7314	24.408523	0.000771	7.706351	2.610982	-0.000308
1175	1.1681e+02	-6.7634	24.158220	0.000629	6.286760	2.130012	-0.000252
1176	1.1691e+02	-6.8084	23.859472	0.000750	7.503553	2.542272	-0.000300
1177	1.1701e+02	-6.8404	23.601096	0.000649	6.489559	2.198722	-0.000260
1178	1.1711e+02	-6.8854	23.334645	0.000669	6.692358	2.267432	-0.000268
1179	1.1721e+02	-6.9287	23.084342	0.000629	6.286760	2.130012	-0.000252
1180	1.1731e+02	-6.9688	22.805780	0.000700	6.996556	2.370497	-0.000280
1181	1.1741e+02	-7.0073	22.515106	0.000730	7.300754	2.473562	-0.000292
1182	1.1751e+02	-7.0474	22.272878	0.000608	6.083962	2.061302	-0.000243
1183	1.1761e+02	-7.0875	21.970093	0.000760	7.604952	2.576627	-0.000304
1184	1.1771e+02	-7.1276	21.772273	0.000497	4.968569	1.683397	-0.000199
1185	1.1781e+02	-7.1741	21.550231	0.000558	5.576965	1.889527	-0.000223
1186	1.1791e+02	-7.2094	21.275705	0.000690	6.895156	2.336142	-0.000276
1187	1.1801e+02	-7.2415	21.001180	0.000690	6.895156	2.336142	-0.000276
1188	1.1811e+02	-7.2816	20.742803	0.000649	6.489559	2.198722	-0.000260
1189	1.1821e+02	-7.3265	20.496538	0.000619	6.185361	2.095657	-0.000248
1190	1.1831e+02	-7.3634	20.250273	0.000619	6.185361	2.095657	-0.000248
1191	1.1841e+02	-7.4051	19.951525	0.000750	7.503553	2.542272	-0.000300
1192	1.1850e+02	-7.4436	19.648740	0.000760	7.604952	2.576627	-0.000304
1193	1.1860e+02	-7.4886	19.382289	0.000669	6.692358	2.267432	-0.000268
1194	1.1870e+02	-7.5271	19.111801	0.000679	6.793757	2.301787	-0.000272
1195	1.1880e+02	-7.5559	18.849387	0.000659	6.590958	2.233077	-0.000264
1196	1.1890e+02	-7.6105	18.611196	0.000598	5.982562	2.026947	-0.000239
1197	1.1900e+02	-7.6426	18.340708	0.000679	6.793757	2.301787	-0.000272
1198	1.1910e+02	-7.6843	18.094442	0.000619	6.185361	2.095657	-0.000248
1199	1.1920e+02	-7.7356	17.840103	0.000639	6.388160	2.164367	-0.000256
1200	1.1930e+02	-7.7613	17.577689	0.000659	6.590958	2.233077	-0.000264
1201	1.1940e+02	-7.8030	17.339498	0.000598	5.982562	2.026947	-0.000239
1202	1.1950e+02	-7.8415	17.077084	0.000659	6.590958	2.233077	-0.000264
1203	1.1960e+02	-7.8928	16.834856	0.000608	6.083962	2.061302	-0.000243
1204	1.1970e+02	-7.9329	16.596665	0.000598	5.982562	2.026947	-0.000239
1205	1.1980e+02	-7.9634	16.338288	0.000649	6.489559	2.198722	-0.000260
1206	1.1990e+02	-8.0003	16.043577	0.000740	7.402153	2.507917	-0.000296
1207	1.2000e+02	-8.0484	15.809424	0.000588	5.881163	1.992592	-0.000235
1208	1.2010e+02	-8.0837	15.542973	0.000669	6.692358	2.267432	-0.000268
1209	1.2020e+02	-8.1222	15.268447	0.000690	6.895156	2.336142	-0.000276
1210	1.2030e+02	-8.1607	14.985848	0.000710	7.097955	2.404852	-0.000284
1211	1.2039e+02	-8.2057	14.727471	0.000649	6.489559	2.198722	-0.000260
1212	1.2049e+02	-8.2458	14.489280	0.000598	5.982562	2.026947	-0.000239
1213	1.2059e+02	-8.2762	14.194569	0.000740	7.402153	2.507917	-0.000296
1214	1.2069e+02	-8.3228	13.964453	0.000578	5.779763	1.958237	-0.000231
1215	1.2079e+02	-8.3693	13.673779	0.000730	7.300754	2.473562	-0.000292
1216	1.2089e+02	-8.4014	13.451736	0.000558	5.576965	1.889527	-0.000223
1217	1.2099e+02	-8.4415	13.213545	0.000598	5.982562	2.026947	-0.000239
1218	1.2109e+02	-8.4880	12.939020	0.000690	6.895156	2.336142	-0.000276
1219	1.2119e+02	-8.5217	12.680643	0.000649	6.489559	2.198722	-0.000260
1220	1.2129e+02	-8.5554	12.458601	0.000558	5.576965	1.889527	-0.000223
1221	1.2139e+02	-8.6019	12.224447	0.000588	5.881163	1.992592	-0.000235
1222	1.2149e+02	-8.6452	11.937810	0.000720	7.199354	2.439207	-0.000288
1223	1.2159e+02	-8.6789	11.671359	0.000669	6.692358	2.267432	-0.000268
1224	1.2169e+02	-8.7238	11.445280	0.000568	5.678364	1.923882	-0.000227
1225	1.2179e+02	-8.7575	11.182866	0.000659	6.590958	2.233077	-0.000264
1226	1.2189e+02	-8.8024	10.892192	0.000730	7.300754	2.473562	-0.000292
1227	1.2199e+02	-8.8361	10.629778	0.000659	6.590958	2.233077	-0.000264
1228	1.2209e+02	-8.8762	10.383513	0.000619	6.185361	2.095657	-0.000248
1229	1.2219e+02	-8.9195	10.153396	0.000578	5.779763	1.958237	-0.000231
1230	1.2229e+02	-8.9564	9.899057	0.000639	6.388160	2.164367	-0.000256
1231	1.2239e+02	-8.9981	9.636643	0.000659	6.590958	2.233077	-0.000264
1232	1.2248e+02	-9.0366	9.398452	0.000598	5.982562	2.026947	-0.000239
1233	1.2258e+02	-9.0719	9.107778	0.000730	7.300754	2.473562	-0.000292
1234	1.2268e+02	-9.1169	8.881699	0.000568	5.678364	1.923882	-0.000227
1235	1.2278e+02	-9.1650	8.599099	0.000710	7.097955	2.404852	-0.000284
1236	1.2288e+02	-9.2083	8.356871	0.000608	6.083962	2.061302	-0.000243
1237	1.2298e+02	-9.2420	8.114643	0.000608	6.083962	2.061302	-0.000243
1238	1.2308e+02	-9.2821	7.892600	0.000558	5.576965	1.889527	-0.000223
1239	1.2318e+02	-9.3334	7.658446	0.000588	5.881163	1.992592	-0.000235
1240	1.2328e+02	-9.3479	7.351624	0.000771	7.706351	2.610982	-0.000308
1241	1.2338e+02	-9.3976	7.121507	0.000578	5.779763	1.958237	-0.000231
1242	1.2348e+02	-9.4281	6.899465	0.000558	5.576965	1.889527	-0.000223
1243	1.2358e+02	-9.4794	6.628977	0.000679	6.793757	2.301787	-0.000272
1244	1.2368e+02	-9.5067	6.338303	0.000730	7.300754	2.473562	-0.000292
1245	1.2378e+02	-9.5628	6.092038	0.000619	6.185361	2.095657	-0.000248
1246	1.2388e+02	-9.6045	5.813475	0.000700	6.996556	2.370497	-0.000280
1247	1.2398e+02	-9.6414	5.579322	0.000588	5.881163	1.992592	-0.000235
1248	1.2408e+02	-9.6735	5.341131	0.000598	5.982562	2.026947	-0.000239
1249	1.2418e+02	-9.7233	5.098902	0.000608	6.083962	2.061302	-0.000243
1250	1.2428e+02	-9.7473	4.832451	0.000669	6.692358	2.267432	-0.000268
1251	1.2438e+02	-9.7938	4.578112	0.000639	6.388160	2.164367	-0.000256
1252	1.2447e+02	-9.8388	4.331847	0.000619	6.185361	2.095657	-0.000248
1253	1.2457e+02	-9.8724	4.041173	0.000730	7.300754	2.473562	-0.000292
1254	1.2467e+02	-9.9222	3.831242	0.000527	5.272767	1.786462	-0.000211
1255	1.2477e+02	-9.9623	3.589014	0.000608	6.083962	2.061302	-0.000243
1256	1.2487e+02	-9.9960	3.366971	0.000558	5.576965	1.889527	-0.000223
1257	1.2497e+02	-10.0441	3.128780	0.000598	5.982562	2.026947	-0.000239
1258	1.2507e+02	-10.0794	2.898663	0.000578	5.779763	1.958237	-0.000231
1259	1.2517e+02	-10.1147	2.632213	0.000669	6.692358	2.267432	-0.000268
1260	1.2527e+02	-10.1532	2.369799	0.000659	6.590958	2.233077	-0.000264
1261	1.2537e+02	-10.1949	2.123533	0.000619	6.185361	2.095657	-0.000248
1262	1.2547e+02	-10.2270	1.849008	0.000690	6.895156	2.336142	-0.000276
1263	1.2557e+02	-10.2671	1.626966	0.000558	5.576965	1.889527	-0.000223
1264	1.2567e+02	-10.3216	1.364552	0.000659	6.590958	2.233077	-0.000264
1265	1.2577e+02	-10.3553	1.114249	0.000629	6.286760	2.130012	-0.000252
1266	1.2587e+02	-10.3890	0.859910	0.000639	6.388160	2.164367	-0.000256
1267	1.2597e+02	-10.4243	0.601533	0.000649	6.489559	2.198722	-0.000260
1268	1.2607e+02	-10.4724	0.371416	0.000578	5.779763	1.958237	-0.000231
1269	1.2617e+02	-10.5174	0.121114	0.000629	6.286760	2.130012	-0.000252
1270	1.2627e+02	-10.5542	-0.129188	0.000629	6.286760	2.130012	-0.000252
1271	1.2636e+02	-10.5944	-0.343157	0.000537	5.374166	1.820817	-0.000215
1272	1.2646e+02	-10.6313	-0.613645	0.000679	6.793757	2.301787	-0.000272
1273	1.2656e+02	-10.6746	-0.851836	0.000598	5.982562	2.026947	-0.000239
1274	1.2666e+02	-10.7163	-1.094064	0.000608	6.083962	2.061302	-0.000243
1275	1.2676e+02	-10.7548	-1.328218	0.000588	5.881163	1.992592	-0.000235
1276	1.2686e+02	-10.7997	-1.538149	0.000527	5.272767	1.786462	-0.000211
1277	1.2696e+02	-10.8414	-1.804600	0.000669	6.692358	2.267432	-0.000268
1278	1.2706e+02	-10.8655	-2.010494	0.000517	5.171367	1.752107	-0.000207
1279	1.2716e+02	-10.9152	-2.321353	0.000781	7.807751	2.645338	-0.000312
1280	1.2726e+02	-10.9553	-2.551470	0.000578	5.779763	1.958237	-0.000231
1281	1.2736e+02	-10.9858	-2.801772	0.000629	6.286760	2.130012	-0.000252
1282	1.2746e+02	-11.0307	-3.048037	0.000619	6.185361	2.095657	-0.000248
1283	1.2756e+02	-11.0676	-3.310451	0.000659	6.590958	2.233077	-0.000264
1284	1.2766e+02	-11.1157	-3.524419	0.000537	5.374166	1.820817	-0.000215
1285	1.2776e+02	-11.1606	-3.794908	0.000679	6.793757	2.301787	-0.000272
1286	1.2786e+02	-11.2008	-4.037136	0.000608	6.083962	2.061302	-0.000243
1287	1.2796e+02	-11.2280	-4.271290	0.000588	5.881163	1.992592	-0.000235
1288	1.2806e+02	-11.2681	-4.541778	0.000679	6.793757	2.301787	-0.000272
1289	1.2816e+02	-11.3147	-4.747672	0.000517	5.171367	1.752107	-0.000207
1290	1.2826e+02	-11.3499	-5.010085	0.000659	6.590958	2.233077	-0.000264
1291	1.2835e+02	-11.3884	-5.256351	0.000619	6.185361	2.095657	-0.000248
1292	1.2845e+02	-11.4334	-5.482430	0.000568	5.678364	1.923882	-0.000227
1293	1.2855e+02	-11.4703	-5.680250	0.000497	4.968569	1.683397	-0.000199
1294	1.2865e+02	-11.5200	-5.926515	0.000619	6.185361	2.095657	-0.000248
1295	1.2875e+02	-11.5537	-6.160669	0.000588	5.881163	1.992592	-0.000235
1296	1.2885e+02	-11.5858	-6.431157	0.000679	6.793757	2.301787	-0.000272
1297	1.2895e+02	-11.6275	-6.641088	0.000527	5.272767	1.786462	-0.000211
1298	1.2905e+02	-11.6596	-6.923688	0.000710	7.097955	2.404852	-0.000284
1299	1.2915e+02	-11.7045	-7.218399	0.000740	7.402153	2.507917	-0.000296
1300	1.2925e+02	-11.7478	-7.432367	0.000537	5.374166	1.820817	-0.000215
1301	1.2935e+02	-11.7959	-7.658446	0.000568	5.678364	1.923882	-0.000227
1302	1.2945e+02	-11.8296	-7.928935	0.000679	6.793757	2.301787	-0.000272
1303	1.2955e+02	-11.8729	-8.138866	0.000527	5.272767	1.786462	-0.000211
1304	1.2965e+02	-11.9018	-8.393205	0.000639	6.388160	2.164367	-0.000256
1305	1.2975e+02	-11.9467	-8.595062	0.000507	5.069968	1.717752	-0.000203
1306	1.2985e+02	-11.9868	-8.841327	0.000619	6.185361	2.095657	-0.000248
1307	1.2995e+02	-12.0285	-9.087593	0.000619	6.185361	2.095657	-0.000248
1308	1.3005e+02	-12.0670	-9.386341	0.000750	7.503553	2.542272	-0.000300
1309	1.3015e+02	-12.1136	-9.576086	0.000477	4.765770	1.614687	-0.000191
1310	1.3025e+02	-12.1392	-9.842537	0.000669	6.692358	2.267432	-0.000268
1311	1.3034e+02	-12.1825	-10.068617	0.000568	5.678364	1.923882	-0.000227
1312	1.3044e+02	-12.2371	-10.274510	0.000517	5.171367	1.752107	-0.000207
1313	1.3054e+02	-12.2676	-10.476367	0.000507	5.069968	1.717752	-0.000203
1314	1.3064e+02	-12.3077	-10.754930	0.000700	6.996556	2.370497	-0.000280
1315	1.3074e+02	-12.3398	-10.964861	0.000527	5.272767	1.786462	-0.000211
1316	1.3084e+02	-12.3815	-11.227274	0.000659	6.590958	2.233077	-0.000264
1317	1.3094e+02	-12.4248	-11.481614	0.000639	6.388160	2.164367	-0.000256
1318	1.3104e+02	-12.4633	-11.715768	0.000588	5.881163	1.992592	-0.000235
1319	1.3114e+02	-12.5146	-11.957996	0.000608	6.083962	2.061302	-0.000243
1320	1.3124e+02	-12.5419	-12.220410	0.000659	6.590958	2.233077	-0.000264
1321	1.3134e+02	-12.5852	-12.442452	0.000558	5.576965	1.889527	-0.000223
1322	1.3144e+02	-12.6253	-12.668532	0.000568	5.678364	1.923882	-0.000227
1323	1.3154e+02	-12.6574	-12.934983	0.000669	6.692358	2.267432	-0.000268
1324	1.3164e+02	-12.7023	-13.157025	0.000558	5.576965	1.889527	-0.000223
1325	1.3174e+02	-12.7408	-13.395216	0.000598	5.982562	2.026947	-0.000239
1326	1.3184e+02	-12.7922	-13.649556	0.000639	6.388160	2.164367	-0.000256
1327	1.3194e+02	-12.8226	-13.847376	0.000497	4.968569	1.683397	-0.000199
1328	1.3204e+02	-12.8708	-14.093641	0.000619	6.185361	2.095657	-0.000248
1329	1.3214e+02	-12.9093	-14.319720	0.000568	5.678364	1.923882	-0.000227
1330	1.3224e+02	-12.9462	-14.533689	0.000537	5.374166	1.820817	-0.000215
1331	1.3234e+02	-12.9815	-14.739583	0.000517	5.171367	1.752107	-0.000207
1332	1.3243e+02	-13.0280	-14.997959	0.000649	6.489559	2.198722	-0.000260
1333	1.3253e+02	-13.0601	-15.183668	0.000466	4.664371	1.580332	-0.000187
1334	1.3263e+02	-13.0970	-15.498564	0.000791	7.909150	2.679693	-0.000316
1335	1.3273e+02	-13.1467	-15.700421	0.000507	5.069968	1.717752	-0.000203
1336	1.3283e+02	-13.1884	-15.983020	0.000710	7.097955	2.404852	-0.000284
1337	1.3293e+02	-13.2221	-16.205063	0.000558	5.576965	1.889527	-0.000223
1338	1.3303e+02	-13.2510	-16.435180	0.000578	5.779763	1.958237	-0.000231
1339	1.3313e+02	-13.2943	-16.665296	0.000578	5.779763	1.958237	-0.000231
1340	1.3323e+02	-13.3440	-16.911562	0.000619	6.185361	2.095657	-0.000248
1341	1.3333e+02	-13.3761	-17.149753	0.000598	5.982562	2.026947	-0.000239
1342	1.3343e+02	-13.4226	-17.351609	0.000507	5.069968	1.717752	-0.000203
1343	1.3353e+02	-13.4643	-17.593838	0.000608	6.083962	2.061302	-0.000243
1344	1.3363e+02	-13.4948	-17.836066	0.000608	6.083962	2.061302	-0.000243
1345	1.3373e+02	-13.5461	-18.074257	0.000598	5.982562	2.026947	-0.000239
1346	1.3383e+02	-13.5814	-18.292262	0.000548	5.475565	1.855172	-0.000219
1347	1.3393e+02	-13.6199	-18.534490	0.000608	6.083962	2.061302	-0.000243
1348	1.3403e+02	-13.6665	-18.804978	0.000679	6.793757	2.301787	-0.000272
1349	1.3413e+02	-13.7001	-18.990687	0.000466	4.664371	1.580332	-0.000187
1350	1.3423e+02	-13.7403	-19.228878	0.000598	5.982562	2.026947	-0.000239
1351	1.3432e+02	-13.7723	-19.450920	0.000558	5.576965	1.889527	-0.000223
1352	1.3442e+02	-13.8189	-19.725445	0.000690	6.895156	2.336142	-0.000276
1353	1.3452e+02	-13.8590	-19.967673	0.000608	6.083962	2.061302	-0.000243
1354	1.3462e+02	-13.8975	-20.197790	0.000578	5.779763	1.958237	-0.000231
1355	1.3472e+02	-13.9440	-20.399647	0.000507	5.069968	1.717752	-0.000203
1356	1.3482e+02	-13.9793	-20.641875	0.000608	6.083962	2.061302	-0.000243
1357	1.3492e+02	-14.0226	-20.884103	0.000608	6.083962	2.061302	-0.000243
1358	1.3502e+02	-14.0643	-21.126331	0.000608	6.083962	2.061302	-0.000243
1359	1.3512e+02	-14.0996	-21.372597	0.000619	6.185361	2.095657	-0.000248
1360	1.3522e+02	-14.1429	-21.582528	0.000527	5.272767	1.786462	-0.000211
1361	1.3532e+02	-14.1830	-21.820719	0.000598	5.982562	2.026947	-0.000239
1362	1.3542e+02	-14.2279	-22.058910	0.000598	5.982562	2.026947	-0.000239
1363	1.3552e+02	-14.2729	-22.264804	0.000517	5.171367	1.752107	-0.000207
1364	1.3562e+02	-14.2969	-22.531255	0.000669	6.692358	2.267432	-0.000268
1365	1.3572e+02	-14.3274	-22.737148	0.000517	5.171367	1.752107	-0.000207
1366	1.3582e+02	-14.3755	-22.951117	0.000537	5.374166	1.820817	-0.000215
1367	1.3592e+02	-14.4124	-23.197382	0.000619	6.185361	2.095657	-0.000248
1368	1.3602e+02	-14.4606	-23.431536	0.000588	5.881163	1.992592	-0.000235
1369	1.3612e+02	-14.5007	-23.645504	0.000537	5.374166	1.820817	-0.000215
1370	1.3622e+02	-14.5424	-23.915992	0.000679	6.793757	2.301787	-0.000272
1371	1.3631e+02	-14.5761	-24.109775	0.000487	4.867169	1.649042	-0.000195
1372	1.3641e+02	-14.6130	-24.364114	0.000639	6.388160	2.164367	-0.000256
1373	1.3651e+02	-14.6499	-24.578082	0.000537	5.374166	1.820817	-0.000215
1374	1.3661e+02	-14.6948	-24.812236	0.000588	5.881163	1.992592	-0.000235
1375	1.3671e+02	-14.7317	-25.026204	0.000537	5.374166	1.820817	-0.000215
1376	1.3681e+02	-14.7766	-25.292655	0.000669	6.692358	2.267432	-0.000268
1377	1.3691e+02	-14.8199	-25.518735	0.000568	5.678364	1.923882	-0.000227
1378	1.3701e+02	-14.8536	-25.760963	0.000608	6.083962	2.061302	-0.000243
1379	1.3711e+02	-14.8921	-25.978968	0.000548	5.475565	1.855172	-0.000219
1380	1.3721e+02	-14.9338	-26.201011	0.000558	5.576965	1.889527	-0.000223
1381	1.3731e+02	-14.9723	-26.414979	0.000537	5.374166	1.820817	-0.000215
1382	1.3741e+02	-15.0188	-26.689504	0.000690	6.895156	2.336142	-0.000276
1383	1.3751e+02	-15.0541	-26.863101	0.000436	4.360172	1.477266	-0.000174
1384	1.3761e+02	-15.0990	-27.105329	0.000608	6.083962	2.061302	-0.000243
1385	1.3771e+02	-15.1295	-27.335446	0.000578	5.779763	1.958237	-0.000231
1386	1.3781e+02	-15.1696	-27.573637	0.000598	5.982562	2.026947	-0.000239
1387	1.3791e+02	-15.2210	-27.799717	0.000568	5.678364	1.923882	-0.000227
1388	1.3801e+02	-15.2466	-28.050019	0.000629	6.286760	2.130012	-0.000252
1389	1.3811e+02	-15.2915	-28.280136	0.000578	5.779763	1.958237	-0.000231
1390	1.3821e+02	-15.3317	-28.502178	0.000558	5.576965	1.889527	-0.000223
1391	1.3831e+02	-15.3621	-28.764592	0.000659	6.590958	2.233077	-0.000264
1392	1.3840e+02	-15.4199	-28.966449	0.000507	5.069968	1.717752	-0.000203
1393	1.3850e+02	-15.4584	-29.172343	0.000517	5.171367	1.752107	-0.000207
1394	1.3860e+02	-15.5001	-29.422645	0.000629	6.286760	2.130012	-0.000252
1395	1.3870e+02	-15.5402	-29.636613	0.000537	5.374166	1.820817	-0.000215
1396	1.3880e+02	-15.5707	-29.907102	0.000679	6.793757	2.301787	-0.000272
1397	1.3890e+02	-15.6140	-30.121070	0.000537	5.374166	1.820817	-0.000215
1398	1.3900e+02	-15.6557	-30.335038	0.000537	5.374166	1.820817	-0.000215
1399	1.3910e+02	-15.6990	-30.573229	0.000598	5.982562	2.026947	-0.000239
1400	1.3920e+02	-15.7359	-30.775086	0.000507	5.069968	1.717752	-0.000203
1401	1.3930e+02	-15.7728	-31.045574	0.000679	6.793757	2.301787	-0.000272
1402	1.3940e+02	-15.8145	-31.271653	0.000568	5.678364	1.923882	-0.000227
1403	1.3950e+02	-15.8450	-31.525993	0.000639	6.388160	2.164367	-0.000256
1404	1.3960e+02	-15.8947	-31.743998	0.000548	5.475565	1.855172	-0.000219
1405	1.3970e+02	-15.9332	-31.998338	0.000639	6.388160	2.164367	-0.000256
1406	1.3980e+02	-15.9766	-32.208269	0.000527	5.272767	1.786462	-0.000211
1407	1.3990e+02	-16.0086	-32.442423	0.000588	5.881163	1.992592	-0.000235
1408	1.4000e+02	-16.0503	-32.688688	0.000619	6.185361	2.095657	-0.000248
1409	1.4010e+02	-16.0953	-32.894582	0.000517	5.171367	1.752107	-0.000207
1410	1.4020e+02	-16.1241	-33.120662	0.000568	5.678364	1.923882	-0.000227
1411	1.4029e+02	-16.1755	-33.346741	0.000568	5.678364	1.923882	-0.000227
1412	1.4039e+02	-16.2108	-33.641452	0.000740	7.402153	2.507917	-0.000296
1413	1.4049e+02	-16.2493	-33.855420	0.000537	5.374166	1.820817	-0.000215
1414	1.4059e+02	-16.2878	-34.097648	0.000608	6.083962	2.061302	-0.000243
1415	1.4069e+02	-16.3231	-34.303542	0.000517	5.171367	1.752107	-0.000207
1416	1.4079e+02	-16.3680	-34.602290	0.000750	7.503553	2.542272	-0.000300
1417	1.4089e+02	-16.4161	-34.792036	0.000477	4.765770	1.614687	-0.000191
1418	1.4099e+02	-16.4482	-35.054450	0.000659	6.590958	2.233077	-0.000264
1419	1.4109e+02	-16.4867	-35.284566	0.000578	5.779763	1.958237	-0.000231
1420	1.4119e+02	-16.5284	-35.575240	0.000730	7.300754	2.473562	-0.000292
1421	1.4129e+02	-16.5541	-35.805357	0.000578	5.779763	1.958237	-0.000231
1422	1.4139e+02	-16.6054	-36.023362	0.000548	5.475565	1.855172	-0.000219
1423	1.4149e+02	-16.6503	-36.273665	0.000629	6.286760	2.130012	-0.000252
1424	1.4159e+02	-16.6888	-36.511856	0.000598	5.982562	2.026947	-0.000239
1425	1.4169e+02	-16.7241	-36.733898	0.000558	5.576965	1.889527	-0.000223
1426	1.4179e+02	-16.7706	-36.996312	0.000659	6.590958	2.233077	-0.000264
1427	1.4189e+02	-16.8220	-37.230466	0.000588	5.881163	1.992592	-0.000235
1428	1.4199e+02	-16.8525	-37.484805	0.000639	6.388160	2.164367	-0.000256
1429	1.4209e+02	-16.8813	-37.739145	0.000639	6.388160	2.164367	-0.000256
1430	1.4219e+02	-16.9359	-37.981373	0.000608	6.083962	2.061302	-0.000243
1431	1.4228e+02	-16.9712	-38.223601	0.000608	6.083962	2.061302	-0.000243
1432	1.4238e+02	-17.0113	-38.453718	0.000578	5.779763	1.958237	-0.000231
1433	1.4248e+02	-17.0514	-38.699983	0.000619	6.185361	2.095657	-0.000248
1434	1.4258e+02	-17.0899	-38.962397	0.000659	6.590958	2.233077	-0.000264
1435	1.4268e+02	-17.1364	-39.232885	0.000679	6.793757	2.301787	-0.000272
1436	1.4278e+02	-17.1685	-39.511447	0.000700	6.996556	2.370497	-0.000280
1437	1.4288e+02	-17.2054	-39.729453	0.000548	5.475565	1.855172	-0.000219
1438	1.4298e+02	-17.2423	-40.028201	0.000750	7.503553	2.542272	-0.000300
1439	1.4308e+02	-17.2824	-40.246206	0.000548	5.475565	1.855172	-0.000219
1440	1.4318e+02	-17.3257	-40.508620	0.000659	6.590958	2.233077	-0.000264
1441	1.4328e+02	-17.3722	-40.718551	0.000527	5.272767	1.786462	-0.000211
1442	1.4338e+02	-17.3963	-41.037485	0.000801	8.010549	2.714048	-0.000321
1443	1.4348e+02	-17.4460	-41.263564	0.000568	5.678364	1.923882	-0.000227
1444	1.4358e+02	-17.4877	-41.521941	0.000649	6.489559	2.198722	-0.000260
1445	1.4368e+02	-17.5262	-41.788392	0.000669	6.692358	2.267432	-0.000268
1446	1.4378e+02	-17.5599	-42.075029	0.000720	7.199354	2.439207	-0.000288
1447	1.4388e+02	-17.6065	-42.329368	0.000639	6.388160	2.164367	-0.000256
1448	1.4398e+02	-17.6417	-42.539299	0.000527	5.272767	1.786462	-0.000211
1449	1.4408e+02	-17.6851	-42.850159	0.000781	7.807751	2.645338	-0.000312
1450	1.4418e+02	-17.7268	-43.108535	0.000649	6.489559	2.198722	-0.000260
1451	1.4428e+02	-17.7669	-43.346726	0.000598	5.982562	2.026947	-0.000239
1452	1.4437e+02	-17.8150	-43.661623	0.000791	7.909150	2.679693	-0.000316
1453	1.4447e+02	-17.8503	-43.992668	0.000831	8.314747	2.817113	-0.000333
1454	1.4457e+02	-17.8760	-44.194525	0.000507	5.069968	1.717752	-0.000203
1455	1.4467e+02	-17.9193	-44.493273	0.000750	7.503553	2.542272	-0.000300
1456	1.4477e+02	-17.9658	-44.779910	0.000720	7.199354	2.439207	-0.000288
1457	1.4487e+02	-17.9931	-45.074621	0.000740	7.402153	2.507917	-0.000296
1458	1.4497e+02	-18.0460	-45.357220	0.000710	7.097955	2.404852	-0.000284
1459	1.4507e+02	-18.0797	-45.611560	0.000639	6.388160	2.164367	-0.000256
1460	1.4517e+02	-18.1342	-45.918382	0.000771	7.706351	2.610982	-0.000308
1461	1.4527e+02	-18.1519	-46.176759	0.000649	6.489559	2.198722	-0.000260
1462	1.4537e+02	-18.2000	-46.455321	0.000700	6.996556	2.370497	-0.000280
1463	1.4547e+02	-18.2369	-46.721772	0.000669	6.692358	2.267432	-0.000268
1464	1.4557e+02	-18.2899	-47.000334	0.000700	6.996556	2.370497	-0.000280
1465	1.4567e+02	-18.3203	-47.299082	0.000750	7.503553	2.542272	-0.000300
1466	1.4577e+02	-18.3685	-47.646276	0.000872	8.720345	2.954533	-0.000349
1467	1.4587e+02	-18.4054	-47.880430	0.000588	5.881163	1.992592	-0.000235
1468	1.4597e+02	-18.4342	-48.203401	0.000811	8.111949	2.748403	-0.000325
1469	1.4607e+02	-18.4872	-48.518297	0.000791	7.909150	2.679693	-0.000316
1470	1.4617e+02	-18.5225	-48.821082	0.000760	7.604952	2.576627	-0.000304
1471	1.4626e+02	-18.5562	-49.127905	0.000771	7.706351	2.610982	-0.000308
1472	1.4636e+02	-18.5995	-49.479136	0.000882	8.821744	2.988888	-0.000353
1473	1.4646e+02	-18.6412	-49.761735	0.000710	7.097955	2.404852	-0.000284
1474	1.4656e+02	-18.6845	-50.108929	0.000872	8.720345	2.954533	-0.000349
1475	1.4666e+02	-18.7086	-50.359231	0.000629	6.286760	2.130012	-0.000252
1476	1.4676e+02	-18.7647	-50.678165	0.000801	8.010549	2.714048	-0.000321
1477	1.4686e+02	-18.7984	-50.944616	0.000669	6.692358	2.267432	-0.000268
1478	1.4696e+02	-18.8353	-51.299884	0.000892	8.923144	3.023243	-0.000357
1479	1.4706e+02	-18.8802	-51.626892	0.000821	8.213348	2.782758	-0.000329
1480	1.4716e+02	-18.9139	-51.961974	0.000842	8.416147	2.851468	-0.000337
1481	1.4726e+02	-18.9636	-52.244574	0.000710	7.097955	2.404852	-0.000284
1482	1.4736e+02	-19.0021	-52.587730	0.000862	8.618946	2.920178	-0.000345
1483	1.4746e+02	-19.0374	-52.890515	0.000760	7.604952	2.576627	-0.000304
1484	1.4756e+02	-19.0759	-53.270006	0.000953	9.531540	3.229373	-0.000381
1485	1.4766e+02	-19.1192	-53.588940	0.000801	8.010549	2.714048	-0.000321
1486	1.4776e+02	-19.1690	-53.948245	0.000902	9.024543	3.057598	-0.000361
1487	1.4786e+02	-19.1995	-54.259104	0.000781	7.807751	2.645338	-0.000312
1488	1.4796e+02	-19.2444	-54.646669	0.000973	9.734338	3.298083	-0.000390
1489	1.4806e+02	-19.2829	-54.953492	0.000771	7.706351	2.610982	-0.000308
1490	1.4816e+02	-19.3085	-55.345094	0.000984	9.835738	3.332438	-0.000394
1491	1.4825e+02	-19.3599	-55.708436	0.000913	9.125942	3.091953	-0.000365
1492	1.4835e+02	-19.3984	-56.083890	0.000943	9.430140	3.195018	-0.000377
1493	1.4845e+02	-19.4433	-56.435120	0.000882	8.821744	2.988888	-0.000353
1494	1.4855e+02	-19.4786	-56.741943	0.000771	7.706351	2.610982	-0.000308
1495	1.4865e+02	-19.5219	-57.097211	0.000892	8.923144	3.023243	-0.000357
1496	1.4875e+02	-19.5620	-57.476702	0.000953	9.531540	3.229373	-0.000381
1497	1.4885e+02	-19.5957	-57.860229	0.000963	9.632939	3.263728	-0.000385
1498	1.4895e+02	-19.6294	-58.183200	0.000811	8.111949	2.748403	-0.000325
1499	1.4905e+02	-19.6775	-58.578840	0.000994	9.937137	3.366793	-0.000398
1500	1.4915e+02	-19.7112	-58.966405	0.000973	9.734338	3.298083	-0.000390
1501	1.4925e+02	-19.7577	-59.370118	0.001014	10.139936	3.435503	-0.000406
1502	1.4935e+02	-19.8075	-59.741535	0.000933	9.328741	3.160663	-0.000373
1503	1.4945e+02	-19.8347	-60.153322	0.001034	10.342735	3.504213	-0.000414
1504	1.4955e+02	-19.8845	-60.557036	0.001014	10.139936	3.435503	-0.000406
1505	1.4965e+02	-19.9198	-60.928453	0.000933	9.328741	3.160663	-0.000373
1506	1.4975e+02	-19.9583	-61.352352	0.001065	10.646933	3.607278	-0.000426
1507	1.4985e+02	-19.9855	-61.780288	0.001075	10.748332	3.641633	-0.000430
1508	1.4995e+02	-19.9567	-61.873142	-0.000233	-2.332185	-0.790166	-0.000093
1509	1.5005e+02	-19.9085	-61.913514	-0.000101	-1.013994	-0.343550	-0.000041
1510	1.5015e+02	-19.8748	-61.978108	-0.000162	-1.622390	-0.549681	-0.000065
1511	1.5025e+02	-19.8331	-61.974071	0.000010	0.101399	0.034355	0.000004
1512	1.5034e+02	-19.7866	-61.974071	0.000000	0.000000	0.000000	0.000000
1513	1.5044e+02	-19.7513	-61.957922	0.000041	0.405597	0.137420	0.000016
1514	1.5054e+02	-19.7160	-61.998294	-0.000101	-1.013994	-0.343550	-0.000041
1515	1.5064e+02	-19.6791	-61.965996	0.000081	0.811195	0.274840	0.000032
1516	1.5074e+02	-19.6294	-61.986182	-0.000051	-0.506997	-0.171775	-0.000020
1517	1.5084e+02	-19.6021	-61.978108	0.000020	0.202799	0.068710	0.000008
1518	1.5094e+02	-19.5492	-61.905439	0.000183	1.825188	0.618391	0.000073
1519	1.5104e+02	-19.5203	-61.921588	-0.000041	-0.405597	-0.137420	-0.000016
1520	1.5114e+02	-19.4754	-61.844882	0.000193	1.926588	0.652746	0.000077
1521	1.5124e+02	-19.4401	-61.816622	0.000071	0.709796	0.240485	0.000028
1522	1.5134e+02	-19.3968	-61.796437	0.000051	0.506997	0.171775	0.000020
1523	1.5144e+02	-19.3599	-61.715694	0.000203	2.027987	0.687101	0.000081
1524	1.5154e+02	-19.3182	-61.715694	0.000000	0.000000	0.000000	0.000000
1525	1.5164e+02	-19.2797	-61.675323	0.000101	1.013994	0.343550	0.000041
1526	1.5174e+02	-19.2299	-61.651100	0.000061	0.608396	0.206130	0.000024
1527	1.5184e+02	-19.1962	-61.578431	0.000183	1.825188	0.618391	0.000073
1528	1.5194e+02	-19.1529	-61.497689	0.000203	2.027987	0.687101	0.000081
1529	1.5204e+02	-19.1192	-61.416946	0.000203	2.027987	0.687101	0.000081
1530	1.5214e+02	-19.0727	-61.303906	0.000284	2.839182	0.961941	0.000114
1531	1.5224e+02	-19.0438	-61.207015	0.000243	2.433585	0.824521	0.000097
1532	1.5233e+02	-19.0005	-61.126272	0.000203	2.027987	0.687101	0.000081
1533	1.5243e+02	-18.9636	-61.013232	0.000284	2.839182	0.961941	0.000114
1534	1.5253e+02	-18.9219	-60.936527	0.000193	1.926588	0.652746	0.000077
1535	1.5263e+02	-18.8754	-60.831561	0.000264	2.636383	0.893231	0.000105
1536	1.5273e+02	-18.8385	-60.742744	0.000223	2.230786	0.755811	0.000089
1537	1.5283e+02	-18.8000	-60.662002	0.000203	2.027987	0.687101	0.000081
1538	1.5293e+02	-18.7599	-60.520702	0.000355	3.548978	1.202426	0.000142
1539	1.5303e+02	-18.7198	-60.427848	0.000233	2.332185	0.790166	0.000093
1540	1.5313e+02	-18.6813	-60.318845	0.000274	2.737783	0.927586	0.000110
1541	1.5323e+02	-18.6396	-60.205805	0.000284	2.839182	0.961941	0.000114
1542	1.5333e+02	-18.6027	-60.133137	0.000183	1.825188	0.618391	0.000073
1543	1.5343e+02	-18.5626	-60.012023	0.000304	3.041981	1.030651	0.000122
1544	1.5353e+02	-18.5064	-59.903020	0.000274	2.737783	0.927586	0.000110
1545	1.5363e+02	-18.4808	-59.798055	0.000264	2.636383	0.893231	0.000105
1546	1.5373e+02	-18.4391	-59.652718	0.000365	3.650377	1.236781	0.000146
1547	1.5383e+02	-18.3957	-59.547752	0.000264	2.636383	0.893231	0.000105
1548	1.5393e+02	-18.3620	-59.378192	0.000426	4.258773	1.442911	0.000170
1549	1.5403e+02	-18.3235	-59.240930	0.000345	3.447578	1.168071	0.000138
1550	1.5413e+02	-18.2834	-59.103667	0.000345	3.447578	1.168071	0.000138
1551	1.5422e+02	-18.2465	-58.934108	0.000426	4.258773	1.442911	0.000170
1552	1.5432e+02	-18.2064	-58.817031	0.000294	2.940581	0.996296	0.000118
1553	1.5442e+02	-18.1711	-58.679768	0.000345	3.447578	1.168071	0.000138
1554	1.5452e+02	-18.1246	-58.566728	0.000284	2.839182	0.961941	0.000114
1555	1.5462e+02	-18.0829	-58.376983	0.000477	4.765770	1.614687	0.000191
1556	1.5472e+02	-18.0380	-58.284129	0.000233	2.332185	0.790166	0.000093
1557	1.5482e+02	-17.9995	-58.110532	0.000436	4.360172	1.477266	0.000174
1558	1.5492e+02	-17.9610	-58.005566	0.000264	2.636383	0.893231	0.000105
1559	1.5502e+02	-17.9305	-57.844081	0.000406	4.055974	1.374201	0.000162
1560	1.5512e+02	-17.8744	-57.735078	0.000274	2.737783	0.927586	0.000110
1561	1.5522e+02	-17.8391	-57.589741	0.000365	3.650377	1.236781	0.000146
1562	1.5532e+02	-17.8054	-57.432293	0.000395	3.954575	1.339846	0.000158
1563	1.5542e+02	-17.7589	-57.286956	0.000365	3.650377	1.236781	0.000146
1564	1.5552e+02	-17.7204	-57.129508	0.000395	3.954575	1.339846	0.000158
1565	1.5562e+02	-17.6786	-57.012431	0.000294	2.940581	0.996296	0.000118
1566	1.5572e+02	-17.6466	-56.762128	0.000629	6.286760	2.130012	0.000252
1567	1.5582e+02	-17.6049	-56.649089	0.000284	2.839182	0.961941	0.000114
1568	1.5592e+02	-17.5647	-56.487603	0.000406	4.055974	1.374201	0.000162
1569	1.5602e+02	-17.5198	-56.285746	0.000507	5.069968	1.717752	0.000203
1570	1.5612e+02	-17.4845	-56.140410	0.000365	3.650377	1.236781	0.000146
1571	1.5622e+02	-17.4476	-56.011221	0.000324	3.244779	1.099361	0.000130
1572	1.5631e+02	-17.4075	-55.837624	0.000436	4.360172	1.477266	0.000174
1573	1.5641e+02	-17.3738	-55.700362	0.000345	3.447578	1.168071	0.000138
1574	1.5651e+02	-17.3289	-55.530802	0.000426	4.258773	1.442911	0.000170
1575	1.5661e+02	-17.2920	-55.316834	0.000537	5.374166	1.820817	0.000215
1576	1.5671e+02	-17.2503	-55.211868	0.000264	2.636383	0.893231	0.000105
1577	1.5681e+02	-17.2214	-55.046346	0.000416	4.157374	1.408556	0.000166
1578	1.5691e+02	-17.1717	-54.888897	0.000395	3.954575	1.339846	0.000158
1579	1.5701e+02	-17.1188	-54.727412	0.000406	4.055974	1.374201	0.000162
1580	1.5711e+02	-17.0851	-54.606298	0.000304	3.041981	1.030651	0.000122
1581	1.5721e+02	-17.0402	-54.408478	0.000497	4.968569	1.683397	0.000199
1582	1.5731e+02	-17.0113	-54.238919	0.000426	4.258773	1.442911	0.000170
1583	1.5741e+02	-16.9712	-54.057248	0.000456	4.562971	1.545976	0.000183
1584	1.5751e+02	-16.9263	-53.887688	0.000426	4.258773	1.442911	0.000170
1585	1.5761e+02	-16.8926	-53.689868	0.000497	4.968569	1.683397	0.000199
1586	1.5771e+02	-16.8509	-53.520308	0.000426	4.258773	1.442911	0.000170
1587	1.5781e+02	-16.8156	-53.314415	0.000517	5.171367	1.752107	0.000207
1588	1.5791e+02	-16.7706	-53.169078	0.000365	3.650377	1.236781	0.000146
1589	1.5801e+02	-16.7273	-53.015667	0.000385	3.853176	1.305491	0.000154
1590	1.5811e+02	-16.6936	-52.862255	0.000385	3.853176	1.305491	0.000154
1591	1.5821e+02	-16.6503	-52.636176	0.000568	5.678364	1.923882	0.000227
1592	1.5830e+02	-16.6022	-52.506987	0.000324	3.244779	1.099361	0.000130
1593	1.5840e+02	-16.5749	-52.301093	0.000517	5.171367	1.752107	0.000207
1594	1.5850e+02	-16.5284	-52.175942	0.000314	3.143380	1.065006	0.000126
1595	1.5860e+02	-16.4899	-52.010420	0.000416	4.157374	1.408556	0.000166
1596	1.5870e+02	-16.4546	-51.812600	0.000497	4.968569	1.683397	0.000199
1597	1.5880e+02	-16.4113	-51.630929	0.000456	4.562971	1.545976	0.000183
1598	1.5890e+02	-16.3680	-51.505778	0.000314	3.143380	1.065006	0.000126
1599	1.5900e+02	-16.3279	-51.263550	0.000608	6.083962	2.061302	0.000243
1600	1.5910e+02	-16.2926	-51.098027	0.000416	4.157374	1.408556	0.000166
1601	1.5920e+02	-16.2589	-50.896170	0.000507	5.069968	1.717752	0.000203
1602	1.5930e+02	-16.2156	-50.710462	0.000466	4.664371	1.580332	0.000187
1603	1.5940e+02	-16.1723	-50.516679	0.000487	4.867169	1.649042	0.000195
1604	1.5950e+02	-16.1402	-50.330971	0.000466	4.664371	1.580332	0.000187
1605	1.5960e+02	-16.1001	-50.157374	0.000436	4.360172	1.477266	0.000174
1606	1.5970e+02	-16.0552	-49.963592	0.000487	4.867169	1.649042	0.000195
1607	1.5980e+02	-16.0167	-49.785958	0.000446	4.461572	1.511621	0.000179
1608	1.5990e+02	-15.9717	-49.604287	0.000456	4.562971	1.545976	0.000183
1609	1.6000e+02	-15.9332	-49.410504	0.000487	4.867169	1.649042	0.000195
1610	1.6010e+02	-15.8819	-49.253056	0.000395	3.954575	1.339846	0.000158
1611	1.6019e+02	-15.8514	-49.071385	0.000456	4.562971	1.545976	0.000183
1612	1.6029e+02	-15.8017	-48.922011	0.000375	3.751776	1.271136	0.000150
1613	1.6039e+02	-15.7744	-48.760525	0.000406	4.055974	1.374201	0.000162
1614	1.6049e+02	-15.7295	-48.550594	0.000527	5.272767	1.786462	0.000211
1615	1.6059e+02	-15.6958	-48.381035	0.000426	4.258773	1.442911	0.000170
1616	1.6069e+02	-15.6557	-48.179178	0.000507	5.069968	1.717752	0.000203
1617	1.6079e+02	-15.6124	-48.009618	0.000426	4.258773	1.442911	0.000170
1618	1.6089e+02	-15.5787	-47.827947	0.000456	4.562971	1.545976	0.000183
1619	1.6099e+02	-15.5418	-47.650313	0.000446	4.461572	1.511621	0.000179
1620	1.6109e+02	-15.4953	-47.440382	0.000527	5.272767	1.786462	0.000211
1621	1.6119e+02	-15.4616	-47.210265	0.000578	5.779763	1.958237	0.000231
1622	1.6129e+02	-15.4087	-47.032631	0.000446	4.461572	1.511621	0.000179
1623	1.6139e+02	-15.3750	-46.838849	0.000487	4.867169	1.649042	0.000195
1624	1.6149e+02	-15.3349	-46.628918	0.000527	5.272767	1.786462	0.000211
1625	1.6159e+02	-15.2932	-46.487618	0.000355	3.548978	1.202426	0.000142
1626	1.6169e+02	-15.2498	-46.265576	0.000558	5.576965	1.889527	0.000223
1627	1.6179e+02	-15.2145	-46.096016	0.000426	4.258773	1.442911	0.000170
1628	1.6189e+02	-15.1712	-45.942605	0.000385	3.853176	1.305491	0.000154
1629	1.6199e+02	-15.1391	-45.752859	0.000477	4.765770	1.614687	0.000191
1630	1.6209e+02	-15.0926	-45.567151	0.000466	4.664371	1.580332	0.000187
1631	1.6219e+02	-15.0557	-45.381443	0.000466	4.664371	1.580332	0.000187
1632	1.6228e+02	-15.0172	-45.187660	0.000487	4.867169	1.649042	0.000195
1633	1.6238e+02	-14.9755	-44.973692	0.000537	5.374166	1.820817	0.000215
1634	1.6248e+02	-14.9386	-44.796058	0.000446	4.461572	1.511621	0.000179
1635	1.6258e+02	-14.8969	-44.634573	0.000406	4.055974	1.374201	0.000162
1636	1.6268e+02	-14.8568	-44.416567	0.000548	5.475565	1.855172	0.000219
1637	1.6278e+02	-14.8199	-44.242971	0.000436	4.360172	1.477266	0.000174
1638	1.6288e+02	-14.7702	-44.033039	0.000527	5.272767	1.786462	0.000211
1639	1.6298e+02	-14.7381	-43.810997	0.000558	5.576965	1.889527	0.000223
1640	1.6308e+02	-14.7012	-43.617215	0.000487	4.867169	1.649042	0.000195
1641	1.6318e+02	-14.6611	-43.399209	0.000548	5.475565	1.855172	0.000219
1642	1.6328e+02	-14.6178	-43.193315	0.000517	5.171367	1.752107	0.000207
1643	1.6338e+02	-14.5761	-43.027793	0.000416	4.157374	1.408556	0.000166
1644	1.6348e+02	-14.5392	-42.850159	0.000446	4.461572	1.511621	0.000179
1645	1.6358e+02	-14.4910	-42.668488	0.000456	4.562971	1.545976	0.000183
1646	1.6368e+02	-14.4557	-42.486817	0.000456	4.562971	1.545976	0.000183
1647	1.6378e+02	-14.4108	-42.276885	0.000527	5.272767	1.786462	0.000211
1648	1.6388e+02	-14.3739	-42.099251	0.000446	4.461572	1.511621	0.000179
1649	1.6398e+02	-14.3450	-41.941803	0.000395	3.954575	1.339846	0.000158
1650	1.6408e+02	-14.2857	-41.735909	0.000517	5.171367	1.752107	0.000207
1651	1.6418e+02	-14.2584	-41.509830	0.000568	5.678364	1.923882	0.000227
1652	1.6427e+02	-14.2247	-41.299899	0.000527	5.272767	1.786462	0.000211
1653	1.6437e+02	-14.1814	-41.114190	0.000466	4.664371	1.580332	0.000187
1654	1.6447e+02	-14.1397	-40.928482	0.000466	4.664371	1.580332	0.000187
1655	1.6457e+02	-14.0964	-40.742774	0.000466	4.664371	1.580332	0.000187
1656	1.6467e+02	-14.0547	-40.536880	0.000517	5.171367	1.752107	0.000207
1657	1.6477e+02	-14.0194	-40.310800	0.000568	5.678364	1.923882	0.000227
1658	1.6487e+02	-13.9841	-40.121055	0.000477	4.765770	1.614687	0.000191
1659	1.6497e+02	-13.9488	-39.882864	0.000598	5.982562	2.026947	0.000239
1660	1.6507e+02	-13.8959	-39.713304	0.000426	4.258773	1.442911	0.000170
1661	1.6517e+02	-13.8622	-39.487225	0.000568	5.678364	1.923882	0.000227
1662	1.6527e+02	-13.8124	-39.337851	0.000375	3.751776	1.271136	0.000150
1663	1.6537e+02	-13.7820	-39.115808	0.000558	5.576965	1.889527	0.000223
1664	1.6547e+02	-13.7386	-38.950286	0.000416	4.157374	1.408556	0.000166
1665	1.6557e+02	-13.7050	-38.752466	0.000497	4.968569	1.683397	0.000199
1666	1.6567e+02	-13.6633	-38.538498	0.000537	5.374166	1.820817	0.000215
1667	1.6577e+02	-13.6103	-38.324530	0.000537	5.374166	1.820817	0.000215
1668	1.6587e+02	-13.5830	-38.122673	0.000507	5.069968	1.717752	0.000203
1669	1.6597e+02	-13.5381	-37.949076	0.000436	4.360172	1.477266	0.000174
1670	1.6607e+02	-13.5028	-37.747219	0.000507	5.069968	1.717752	0.000203
1671	1.6616e+02	-13.4595	-37.569585	0.000446	4.461572	1.511621	0.000179
1672	1.6626e+02	-13.4178	-37.335431	0.000588	5.881163	1.992592	0.000235
1673	1.6636e+02	-13.3905	-37.141649	0.000487	4.867169	1.649042	0.000195
1674	1.6646e+02	-13.3456	-36.927681	0.000537	5.374166	1.820817	0.000215
1675	1.6656e+02	-13.2991	-36.717750	0.000527	5.272767	1.786462	0.000211
1676	1.6666e+02	-13.2574	-36.511856	0.000517	5.171367	1.752107	0.000207
1677	1.6676e+02	-13.2301	-36.301925	0.000527	5.272767	1.786462	0.000211
1678	1.6686e+02	-13.1868	-36.104105	0.000497	4.968569	1.683397	0.000199
1679	1.6696e+02	-13.1435	-35.873988	0.000578	5.779763	1.958237	0.000231
1680	1.6706e+02	-13.0937	-35.692317	0.000456	4.562971	1.545976	0.000183
1681	1.6716e+02	-13.0569	-35.518720	0.000436	4.360172	1.477266	0.000174
1682	1.6726e+02	-13.0183	-35.312826	0.000517	5.171367	1.752107	0.000207
1683	1.6736e+02	-12.9782	-35.090784	0.000558	5.576965	1.889527	0.000223
1684	1.6746e+02	-12.9446	-34.880853	0.000527	5.272767	1.786462	0.000211
1685	1.6756e+02	-12.9012	-34.715330	0.000416	4.157374	1.408556	0.000166
1686	1.6766e+02	-12.8708	-34.533659	0.000456	4.562971	1.545976	0.000183
1687	1.6776e+02	-12.8130	-34.267208	0.000669	6.692358	2.267432	0.000268
1688	1.6786e+02	-12.7857	-34.073426	0.000487	4.867169	1.649042	0.000195
1689	1.6796e+02	-12.7504	-33.907903	0.000416	4.157374	1.408556	0.000166
1690	1.6806e+02	-12.7200	-33.706046	0.000507	5.069968	1.717752	0.000203
1691	1.6816e+02	-12.6670	-33.488041	0.000548	5.475565	1.855172	0.000219
1692	1.6825e+02	-12.6269	-33.314444	0.000436	4.360172	1.477266	0.000174
1693	1.6835e+02	-12.5948	-33.080290	0.000588	5.881163	1.992592	0.000235
1694	1.6845e+02	-12.5483	-32.850174	0.000578	5.779763	1.958237	0.000231
1695	1.6855e+02	-12.5002	-32.632168	0.000548	5.475565	1.855172	0.000219
1696	1.6865e+02	-12.4633	-32.438386	0.000487	4.867169	1.649042	0.000195
1697	1.6875e+02	-12.4296	-32.236529	0.000507	5.069968	1.717752	0.000203
1698	1.6885e+02	-12.3879	-31.998338	0.000598	5.982562	2.026947	0.000239
1699	1.6895e+02	-12.3478	-31.836852	0.000406	4.055974	1.374201	0.000162
1700	1.6905e+02	-12.3093	-31.643070	0.000487	4.867169	1.649042	0.000195
1701	1.6915e+02	-12.2628	-31.408916	0.000588	5.881163	1.992592	0.000235
1702	1.6925e+02	-12.2291	-31.239356	0.000426	4.258773	1.442911	0.000170
1703	1.6935e+02	-12.1890	-31.021351	0.000548	5.475565	1.855172	0.000219
1704	1.6945e+02	-12.1505	-30.799309	0.000558	5.576965	1.889527	0.000223
1705	1.6955e+02	-12.1104	-30.605526	0.000487	4.867169	1.649042	0.000195
1706	1.6965e+02	-12.0735	-30.375409	0.000578	5.779763	1.958237	0.000231
1707	1.6975e+02	-12.0285	-30.189701	0.000466	4.664371	1.580332	0.000187
1708	1.6985e+02	-11.9965	-29.963621	0.000568	5.678364	1.923882	0.000227
1709	1.6995e+02	-11.9451	-29.761765	0.000507	5.069968	1.717752	0.000203
1710	1.7005e+02	-11.9066	-29.567982	0.000487	4.867169	1.649042	0.000195
1711	1.7015e+02	-11.8729	-29.313643	0.000639	6.388160	2.164367	0.000256
1712	1.7024e+02	-11.8136	-29.087563	0.000568	5.678364	1.923882	0.000227
1713	1.7034e+02	-11.7767	-28.893780	0.000487	4.867169	1.649042	0.000195
1714	1.7044e+02	-11.7414	-28.671738	0.000558	5.576965	1.889527	0.000223
1715	1.7054e+02	-11.7029	-28.473918	0.000497	4.968569	1.683397	0.000199
1716	1.7064e+02	-11.6692	-28.263987	0.000527	5.272767	1.786462	0.000211
1717	1.7074e+02	-11.6307	-28.054056	0.000527	5.272767	1.786462	0.000211
1718	1.7084e+02	-11.5874	-27.823940	0.000578	5.779763	1.958237	0.000231
1719	1.7094e+02	-11.5553	-27.662454	0.000406	4.055974	1.374201	0.000162
1720	1.7104e+02	-11.5104	-27.424263	0.000598	5.982562	2.026947	0.000239
1721	1.7114e+02	-11.4638	-27.214332	0.000527	5.272767	1.786462	0.000211
1722	1.7124e+02	-11.4302	-27.000364	0.000537	5.374166	1.820817	0.000215
1723	1.7134e+02	-11.3772	-26.782358	0.000548	5.475565	1.855172	0.000219
1724	1.7144e+02	-11.3564	-26.560316	0.000558	5.576965	1.889527	0.000223
1725	1.7154e+02	-11.3098	-26.346348	0.000537	5.374166	1.820817	0.000215
1726	1.7164e+02	-11.2762	-26.124305	0.000558	5.576965	1.889527	0.000223
1727	1.7174e+02	-11.2312	-25.950709	0.000436	4.360172	1.477266	0.000174
1728	1.7184e+02	-11.1879	-25.712518	0.000598	5.982562	2.026947	0.000239
1729	1.7194e+02	-11.1542	-25.502586	0.000527	5.272767	1.786462	0.000211
1730	1.7204e+02	-11.1013	-25.248247	0.000639	6.388160	2.164367	0.000256
1731	1.7213e+02	-11.0644	-25.022167	0.000568	5.678364	1.923882	0.000227
1732	1.7223e+02	-11.0371	-24.856645	0.000416	4.157374	1.408556	0.000166
1733	1.7233e+02	-10.9906	-24.622491	0.000588	5.881163	1.992592	0.000235
1734	1.7243e+02	-10.9553	-24.408523	0.000537	5.374166	1.820817	0.000215
1735	1.7253e+02	-10.9024	-24.218777	0.000477	4.765770	1.614687	0.000191
1736	1.7263e+02	-10.8719	-23.976549	0.000608	6.083962	2.061302	0.000243
1737	1.7273e+02	-10.8350	-23.774692	0.000507	5.069968	1.717752	0.000203
1738	1.7283e+02	-10.7917	-23.536501	0.000598	5.982562	2.026947	0.000239
1739	1.7293e+02	-10.7564	-23.342719	0.000487	4.867169	1.649042	0.000195
1740	1.7303e+02	-10.7099	-23.084342	0.000649	6.489559	2.198722	0.000260
1741	1.7313e+02	-10.6842	-22.882485	0.000507	5.069968	1.717752	0.000203
1742	1.7323e+02	-10.6345	-22.656406	0.000568	5.678364	1.923882	0.000227
1743	1.7333e+02	-10.5960	-22.422252	0.000588	5.881163	1.992592	0.000235
1744	1.7343e+02	-10.5542	-22.240581	0.000456	4.562971	1.545976	0.000183
1745	1.7353e+02	-10.5190	-21.990278	0.000629	6.286760	2.130012	0.000252
1746	1.7363e+02	-10.4740	-21.780347	0.000527	5.272767	1.786462	0.000211
1747	1.7373e+02	-10.4179	-21.574453	0.000517	5.171367	1.752107	0.000207
1748	1.7383e+02	-10.3890	-21.344337	0.000578	5.779763	1.958237	0.000231
1749	1.7393e+02	-10.3489	-21.130368	0.000537	5.374166	1.820817	0.000215
1750	1.7403e+02	-10.3136	-20.936586	0.000487	4.867169	1.649042	0.000195
1751	1.7413e+02	-10.2751	-20.670135	0.000669	6.692358	2.267432	0.000268
1752	1.7422e+02	-10.2366	-20.456167	0.000537	5.374166	1.820817	0.000215
1753	1.7432e+02	-10.1901	-20.234124	0.000558	5.576965	1.889527	0.000223
1754	1.7442e+02	-10.1596	-20.048416	0.000466	4.664371	1.580332	0.000187
1755	1.7452e+02	-10.1115	-19.802151	0.000619	6.185361	2.095657	0.000248
1756	1.7462e+02	-10.0746	-19.588183	0.000537	5.374166	1.820817	0.000215
1757	1.7472e+02	-10.0377	-19.370177	0.000548	5.475565	1.855172	0.000219
1758	1.7482e+02	-9.9912	-19.160246	0.000527	5.272767	1.786462	0.000211
1759	1.7492e+02	-9.9623	-18.930129	0.000578	5.779763	1.958237	0.000231
1760	1.7502e+02	-9.9126	-18.691938	0.000598	5.982562	2.026947	0.000239
1761	1.7512e+02	-9.8773	-18.510267	0.000456	4.562971	1.545976	0.000183
1762	1.7522e+02	-9.8372	-18.255928	0.000639	6.388160	2.164367	0.000256
1763	1.7532e+02	-9.7987	-18.074257	0.000456	4.562971	1.545976	0.000183
1764	1.7542e+02	-9.7521	-17.844140	0.000578	5.779763	1.958237	0.000231
1765	1.7552e+02	-9.7104	-17.609986	0.000588	5.881163	1.992592	0.000235
1766	1.7562e+02	-9.6799	-17.343535	0.000669	6.692358	2.267432	0.000268
1767	1.7572e+02	-9.6398	-17.133604	0.000527	5.272767	1.786462	0.000211
1768	1.7582e+02	-9.5949	-16.895413	0.000598	5.982562	2.026947	0.000239
1769	1.7592e+02	-9.5596	-16.669333	0.000568	5.678364	1.923882	0.000227
1770	1.7602e+02	-9.5131	-16.439217	0.000578	5.779763	1.958237	0.000231
1771	1.7612e+02	-9.4794	-16.253508	0.000466	4.664371	1.580332	0.000187
1772	1.7621e+02	-9.4393	-15.983020	0.000679	6.793757	2.301787	0.000272
1773	1.7631e+02	-9.3992	-15.760978	0.000558	5.576965	1.889527	0.000223
1774	1.7641e+02	-9.3655	-15.555084	0.000517	5.171367	1.752107	0.000207
1775	1.7651e+02	-9.3190	-15.324967	0.000578	5.779763	1.958237	0.000231
1776	1.7661e+02	-9.2805	-15.086776	0.000598	5.982562	2.026947	0.000239
1777	1.7671e+02	-9.2484	-14.848585	0.000598	5.982562	2.026947	0.000239
1778	1.7681e+02	-9.2003	-14.602320	0.000619	6.185361	2.095657	0.000248
1779	1.7691e+02	-9.1666	-14.372203	0.000578	5.779763	1.958237	0.000231
1780	1.7701e+02	-9.1233	-14.182458	0.000477	4.765770	1.614687	0.000191
1781	1.7711e+02	-9.0832	-13.964453	0.000548	5.475565	1.855172	0.000219
1782	1.7721e+02	-9.0382	-13.726262	0.000598	5.982562	2.026947	0.000239
1783	1.7731e+02	-9.0030	-13.500182	0.000568	5.678364	1.923882	0.000227
1784	1.7741e+02	-8.9645	-13.274102	0.000568	5.678364	1.923882	0.000227
1785	1.7751e+02	-8.9179	-13.031874	0.000608	6.083962	2.061302	0.000243
1786	1.7761e+02	-8.8778	-12.817906	0.000537	5.374166	1.820817	0.000215
1787	1.7771e+02	-8.8489	-12.567604	0.000629	6.286760	2.130012	0.000252
1788	1.7781e+02	-8.8008	-12.357672	0.000527	5.272767	1.786462	0.000211
1789	1.7791e+02	-8.7671	-12.087184	0.000679	6.793757	2.301787	0.000272
1790	1.7801e+02	-8.7238	-11.840919	0.000619	6.185361	2.095657	0.000248
1791	1.7810e+02	-8.6821	-11.639062	0.000507	5.069968	1.717752	0.000203
1792	1.7820e+02	-8.6484	-11.404908	0.000588	5.881163	1.992592	0.000235
1793	1.7830e+02	-8.6083	-11.150569	0.000639	6.388160	2.164367	0.000256
1794	1.7840e+02	-8.5618	-10.956786	0.000487	4.867169	1.649042	0.000195
1795	1.7850e+02	-8.5249	-10.690335	0.000669	6.692358	2.267432	0.000268
1796	1.7860e+02	-8.4768	-10.504627	0.000466	4.664371	1.580332	0.000187
1797	1.7870e+02	-8.4463	-10.238176	0.000669	6.692358	2.267432	0.000268
1798	1.7880e+02	-8.4078	-10.020171	0.000548	5.475565	1.855172	0.000219
1799	1.7890e+02	-8.3597	-9.749683	0.000679	6.793757	2.301787	0.000272
1800	1.7900e+02	-8.3179	-9.543789	0.000517	5.171367	1.752107	0.000207
1801	1.7910e+02	-8.2859	-9.297524	0.000619	6.185361	2.095657	0.000248
1802	1.7920e+02	-8.2361	-9.051258	0.000619	6.185361	2.095657	0.000248
1803	1.7930e+02	-8.1992	-8.845364	0.000517	5.171367	1.752107	0.000207
1804	1.7940e+02	-8.1639	-8.623322	0.000558	5.576965	1.889527	0.000223
1805	1.7950e+02	-8.1286	-8.356871	0.000669	6.692358	2.267432	0.000268
1806	1.7960e+02	-8.0853	-8.126754	0.000578	5.779763	1.958237	0.000231
1807	1.7970e+02	-8.0388	-7.912786	0.000537	5.374166	1.820817	0.000215
1808	1.7980e+02	-8.0019	-7.702855	0.000527	5.272767	1.786462	0.000211
1809	1.7990e+02	-7.9682	-7.456590	0.000619	6.185361	2.095657	0.000248
1810	1.8000e+02	-7.9201	-7.186102	0.000679	6.793757	2.301787	0.000272
1811	1.8009e+02	-7.8864	-6.968096	0.000548	5.475565	1.855172	0.000219
1812	1.8019e+02	-7.8335	-6.685497	0.000710	7.097955	2.404852	0.000284
1813	1.8029e+02	-7.8078	-6.483640	0.000507	5.069968	1.717752	0.000203
1814	1.8039e+02	-7.7597	-6.237375	0.000619	6.185361	2.095657	0.000248
1815	1.8049e+02	-7.7260	-6.007258	0.000578	5.779763	1.958237	0.000231
1816	1.8059e+02	-7.6859	-5.781178	0.000568	5.678364	1.923882	0.000227
1817	1.8069e+02	-7.6426	-5.559136	0.000558	5.576965	1.889527	0.000223
1818	1.8079e+02	-7.5993	-5.304796	0.000639	6.388160	2.164367	0.000256
1819	1.8089e+02	-7.5672	-5.050457	0.000639	6.388160	2.164367	0.000256
1820	1.8099e+02	-7.5287	-4.840526	0.000527	5.272767	1.786462	0.000211
1821	1.8109e+02	-7.4870	-4.586186	0.000639	6.388160	2.164367	0.000256
1822	1.8119e+02	-7.4436	-4.360107	0.000568	5.678364	1.923882	0.000227
1823	1.8129e+02	-7.4019	-4.097693	0.000659	6.590958	2.233077	0.000264
1824	1.8139e+02	-7.3602	-3.891799	0.000517	5.171367	1.752107	0.000207
1825	1.8149e+02	-7.3249	-3.629385	0.000659	6.590958	2.233077	0.000264
1826	1.8159e+02	-7.2848	-3.387157	0.000608	6.083962	2.061302	0.000243
1827	1.8169e+02	-7.2511	-3.185300	0.000507	5.069968	1.717752	0.000203
1828	1.8179e+02	-7.2046	-2.890589	0.000740	7.402153	2.507917	0.000296
1829	1.8189e+02	-7.1661	-2.648361	0.000608	6.083962	2.061302	0.000243
1830	1.8199e+02	-7.1244	-2.458616	0.000477	4.765770	1.614687	0.000191
1831	1.8209e+02	-7.0939	-2.184090	0.000690	6.895156	2.336142	0.000276
1832	1.8218e+02	-7.0538	-1.945899	0.000598	5.982562	2.026947	0.000239
1833	1.8228e+02	-7.0105	-1.663300	0.000710	7.097955	2.404852	0.000284
1834	1.8238e+02	-6.9576	-1.465480	0.000497	4.968569	1.683397	0.000199
1835	1.8248e+02	-6.9255	-1.199029	0.000669	6.692358	2.267432	0.000268
1836	1.8258e+02	-6.8822	-0.972950	0.000568	5.678364	1.923882	0.000227
1837	1.8268e+02	-6.8437	-0.742833	0.000578	5.779763	1.958237	0.000231
1838	1.8278e+02	-6.8052	-0.488493	0.000639	6.388160	2.164367	0.000256
1839	1.8288e+02	-6.7650	-0.254340	0.000588	5.881163	1.992592	0.000235
1840	1.8298e+02	-6.7298	0.004037	0.000649	6.489559	2.198722	0.000260
1841	1.8308e+02	-6.6945	0.258377	0.000639	6.388160	2.164367	0.000256
1842	1.8318e+02	-6.6447	0.484456	0.000568	5.678364	1.923882	0.000227
1843	1.8328e+02	-6.6014	0.738796	0.000639	6.388160	2.164367	0.000256
1844	1.8338e+02	-6.5677	0.976987	0.000598	5.982562	2.026947	0.000239
1845	1.8348e+02	-6.5356	1.247475	0.000679	6.793757	2.301787	0.000272
1846	1.8358e+02	-6.4891	1.469517	0.000558	5.576965	1.889527	0.000223
1847	1.8368e+02	-6.4458	1.719820	0.000629	6.286760	2.130012	0.000252
1848	1.8378e+02	-6.4121	1.949937	0.000578	5.779763	1.958237	0.000231
1849	1.8388e+02	-6.3720	2.176016	0.000568	5.678364	1.923882	0.000227
1850	1.8398e+02	-6.3303	2.410170	0.000588	5.881163	1.992592	0.000235
1851	1.8407e+02	-6.2902	2.644324	0.000588	5.881163	1.992592	0.000235
1852	1.8417e+02	-6.2549	2.874441	0.000578	5.779763	1.958237	0.000231
1853	1.8427e+02	-6.2132	3.165114	0.000730	7.300754	2.473562	0.000292
1854	1.8437e+02	-6.1619	3.379083	0.000537	5.374166	1.820817	0.000215
1855	1.8447e+02	-6.1362	3.669756	0.000730	7.300754	2.473562	0.000292
1856	1.8457e+02	-6.1073	3.916022	0.000619	6.185361	2.095657	0.000248
1857	1.8467e+02	-6.0512	4.129990	0.000537	5.374166	1.820817	0.000215
1858	1.8477e+02	-6.0079	4.396441	0.000669	6.692358	2.267432	0.000268
1859	1.8487e+02	-5.9726	4.670966	0.000690	6.895156	2.336142	0.000276
1860	1.8497e+02	-5.9341	4.888971	0.000548	5.475565	1.855172	0.000219
1861	1.8507e+02	-5.8923	5.131200	0.000608	6.083962	2.061302	0.000243
1862	1.8517e+02	-5.8587	5.341131	0.000527	5.272767	1.786462	0.000211
1863	1.8527e+02	-5.8186	5.656027	0.000791	7.909150	2.679693	0.000316
1864	1.8537e+02	-5.7801	5.841735	0.000466	4.664371	1.580332	0.000187
1865	1.8547e+02	-5.7367	6.148558	0.000771	7.706351	2.610982	0.000308
1866	1.8557e+02	-5.6854	6.390786	0.000608	6.083962	2.061302	0.000243
1867	1.8567e+02	-5.6453	6.637051	0.000619	6.185361	2.095657	0.000248
1868	1.8577e+02	-5.6196	6.846982	0.000527	5.272767	1.786462	0.000211
1869	1.8587e+02	-5.5667	7.089210	0.000608	6.083962	2.061302	0.000243
1870	1.8597e+02	-5.5298	7.359698	0.000679	6.793757	2.301787	0.000272
1871	1.8606e+02	-5.4961	7.577704	0.000548	5.475565	1.855172	0.000219
1872	1.8616e+02	-5.4496	7.892600	0.000791	7.909150	2.679693	0.000316
1873	1.8626e+02	-5.4079	8.130791	0.000598	5.982562	2.026947	0.000239
1874	1.8636e+02	-5.3694	8.389168	0.000649	6.489559	2.198722	0.000260
1875	1.8646e+02	-5.3309	8.647545	0.000649	6.489559	2.198722	0.000260
1876	1.8656e+02	-5.2972	8.905921	0.000649	6.489559	2.198722	0.000260
1877	1.8666e+02	-5.2507	9.180447	0.000690	6.895156	2.336142	0.000276
1878	1.8676e+02	-5.2218	9.394415	0.000537	5.374166	1.820817	0.000215
1879	1.8686e+02	-5.1737	9.644717	0.000629	6.286760	2.130012	0.000252
1880	1.8696e+02	-5.1351	9.907131	0.000659	6.590958	2.233077	0.000264
1881	1.8706e+02	-5.1015	10.141285	0.000588	5.881163	1.992592	0.000235
1882	1.8716e+02	-5.0646	10.383513	0.000608	6.083962	2.061302	0.000243
1883	1.8726e+02	-5.0212	10.670150	0.000720	7.199354	2.439207	0.000288
1884	1.8736e+02	-4.9795	10.908341	0.000598	5.982562	2.026947	0.000239
1885	1.8746e+02	-4.9346	11.158643	0.000629	6.286760	2.130012	0.000252
1886	1.8756e+02	-4.8945	11.408946	0.000629	6.286760	2.130012	0.000252
1887	1.8766e+02	-4.8528	11.635025	0.000568	5.678364	1.923882	0.000227
1888	1.8776e+02	-4.8175	11.861105	0.000568	5.678364	1.923882	0.000227
1889	1.8786e+02	-4.7742	12.119481	0.000649	6.489559	2.198722	0.000260
1890	1.8796e+02	-4.7357	12.438415	0.000801	8.010549	2.714048	0.000321
1891	1.8806e+02	-4.7052	12.676606	0.000598	5.982562	2.026947	0.000239
1892	1.8815e+02	-4.6603	12.930946	0.000639	6.388160	2.164367	0.000256
1893	1.8825e+02	-4.6234	13.201434	0.000679	6.793757	2.301787	0.000272
1894	1.8835e+02	-4.5753	13.443662	0.000608	6.083962	2.061302	0.000243
1895	1.8845e+02	-4.5448	13.714150	0.000679	6.793757	2.301787	0.000272
1896	1.8855e+02	-4.5031	13.988675	0.000690	6.895156	2.336142	0.000276
1897	1.8865e+02	-4.4694	14.218792	0.000578	5.779763	1.958237	0.000231
1898	1.8875e+02	-4.4277	14.469094	0.000629	6.286760	2.130012	0.000252
1899	1.8885e+02	-4.3812	14.763805	0.000740	7.402153	2.507917	0.000296
1900	1.8895e+02	-4.3346	14.965662	0.000507	5.069968	1.717752	0.000203
1901	1.8905e+02	-4.3058	15.272484	0.000771	7.706351	2.610982	0.000308
1902	1.8915e+02	-4.2576	15.538935	0.000669	6.692358	2.267432	0.000268
1903	1.8925e+02	-4.2095	15.765015	0.000568	5.678364	1.923882	0.000227
1904	1.8935e+02	-4.1774	15.966872	0.000507	5.069968	1.717752	0.000203
1905	1.8945e+02	-4.1389	16.229286	0.000659	6.590958	2.233077	0.000264
1906	1.8955e+02	-4.0988	16.507848	0.000700	6.996556	2.370497	0.000280
1907	1.8965e+02	-4.0571	16.826782	0.000801	8.010549	2.714048	0.000321
1908	1.8975e+02	-4.0186	17.040750	0.000537	5.374166	1.820817	0.000215
1909	1.8985e+02	-3.9737	17.323349	0.000710	7.097955	2.404852	0.000284
1910	1.8995e+02	-3.9464	17.569615	0.000619	6.185361	2.095657	0.000248
1911	1.9004e+02	-3.9063	17.811843	0.000608	6.083962	2.061302	0.000243
1912	1.9014e+02	-3.8550	18.122702	0.000781	7.807751	2.645338	0.000312
1913	1.9024e+02	-3.8245	18.373005	0.000629	6.286760	2.130012	0.000252
1914	1.9034e+02	-3.7844	18.611196	0.000598	5.982562	2.026947	0.000239
1915	1.9044e+02	-3.7459	18.865535	0.000639	6.388160	2.164367	0.000256
1916	1.9054e+02	-3.7026	19.160246	0.000740	7.402153	2.507917	0.000296
1917	1.9064e+02	-3.6673	19.386326	0.000568	5.678364	1.923882	0.000227
1918	1.9074e+02	-3.6352	19.656814	0.000679	6.793757	2.301787	0.000272
1919	1.9084e+02	-3.5855	19.890968	0.000588	5.881163	1.992592	0.000235
1920	1.9094e+02	-3.5438	20.213939	0.000811	8.111949	2.748403	0.000325
1921	1.9104e+02	-3.4988	20.448093	0.000588	5.881163	1.992592	0.000235
1922	1.9114e+02	-3.4603	20.666098	0.000548	5.475565	1.855172	0.000219
1923	1.9124e+02	-3.4218	20.936586	0.000679	6.793757	2.301787	0.000272
1924	1.9134e+02	-3.3753	21.182851	0.000619	6.185361	2.095657	0.000248
1925	1.9144e+02	-3.3545	21.497748	0.000791	7.909150	2.679693	0.000316
1926	1.9154e+02	-3.3063	21.752087	0.000639	6.388160	2.164367	0.000256
1927	1.9164e+02	-3.2614	21.990278	0.000598	5.982562	2.026947	0.000239
1928	1.9174e+02	-3.2245	22.313249	0.000811	8.111949	2.748403	0.000325
1929	1.9184e+02	-3.1812	22.547403	0.000588	5.881163	1.992592	0.000235
1930	1.9194e+02	-3.1443	22.805780	0.000649	6.489559	2.198722	0.000260
1931	1.9203e+02	-3.1138	23.076268	0.000679	6.793757	2.301787	0.000272
1932	1.9213e+02	-3.0673	23.318496	0.000608	6.083962	2.061302	0.000243
1933	1.9223e+02	-3.0288	23.588984	0.000679	6.793757	2.301787	0.000272
1934	1.9233e+02	-2.9855	23.855435	0.000669	6.692358	2.267432	0.000268
1935	1.9243e+02	-2.9470	24.117849	0.000659	6.590958	2.233077	0.000264
1936	1.9253e+02	-2.9021	24.416597	0.000750	7.503553	2.542272	0.000300
1937	1.9263e+02	-2.8603	24.699196	0.000710	7.097955	2.404852	0.000284
1938	1.9273e+02	-2.8218	24.941425	0.000608	6.083962	2.061302	0.000243
1939	1.9283e+02	-2.7866	25.199801	0.000649	6.489559	2.198722	0.000260
1940	1.9293e+02	-2.7464	25.470289	0.000679	6.793757	2.301787	0.000272
1941	1.9303e+02	-2.7047	25.696369	0.000568	5.678364	1.923882	0.000227
1942	1.9313e+02	-2.6694	25.966857	0.000679	6.793757	2.301787	0.000272
1943	1.9323e+02	-2.6261	26.261568	0.000740	7.402153	2.507917	0.000296
1944	1.9333e+02	-2.5940	26.519945	0.000649	6.489559	2.198722	0.000260
1945	1.9343e+02	-2.5539	26.794470	0.000690	6.895156	2.336142	0.000276
1946	1.9353e+02	-2.4994	27.089181	0.000740	7.402153	2.507917	0.000296
1947	1.9363e+02	-2.4657	27.371780	0.000710	7.097955	2.404852	0.000284
1948	1.9373e+02	-2.4352	27.609971	0.000598	5.982562	2.026947	0.000239
1949	1.9383e+02	-2.3871	27.904682	0.000740	7.402153	2.507917	0.000296
1950	1.9393e+02	-2.3486	28.122688	0.000548	5.475565	1.855172	0.000219
1951	1.9403e+02	-2.3101	28.425473	0.000760	7.604952	2.576627	0.000304
1952	1.9412e+02	-2.2652	28.699998	0.000690	6.895156	2.336142	0.000276
1953	1.9422e+02	-2.2299	28.970486	0.000679	6.793757	2.301787	0.000272
1954	1.9432e+02	-2.1898	29.232900	0.000659	6.590958	2.233077	0.000264
1955	1.9442e+02	-2.1497	29.519537	0.000720	7.199354	2.439207	0.000288
1956	1.9452e+02	-2.1015	29.749653	0.000578	5.779763	1.958237	0.000231
1957	1.9462e+02	-2.0711	30.028216	0.000700	6.996556	2.370497	0.000280
1958	1.9472e+02	-2.0342	30.274481	0.000619	6.185361	2.095657	0.000248
1959	1.9482e+02	-1.9909	30.581303	0.000771	7.706351	2.610982	0.000308
1960	1.9492e+02	-1.9507	30.787197	0.000517	5.171367	1.752107	0.000207
1961	1.9502e+02	-1.9106	31.085945	0.000750	7.503553	2.542272	0.000300
1962	1.9512e+02	-1.8737	31.368545	0.000710	7.097955	2.404852	0.000284
1963	1.9522e+02	-1.8304	31.663256	0.000740	7.402153	2.507917	0.000296
1964	1.9532e+02	-1.7839	31.941818	0.000700	6.996556	2.370497	0.000280
1965	1.9542e+02	-1.7422	32.192120	0.000629	6.286760	2.130012	0.000252
1966	1.9552e+02	-1.7069	32.478757	0.000720	7.199354	2.439207	0.000288
1967	1.9562e+02	-1.6620	32.741171	0.000659	6.590958	2.233077	0.000264
1968	1.9572e+02	-1.6315	33.052030	0.000781	7.807751	2.645338	0.000312
1969	1.9582e+02	-1.5850	33.310407	0.000649	6.489559	2.198722	0.000260
1970	1.9592e+02	-1.5529	33.540524	0.000578	5.779763	1.958237	0.000231
1971	1.9601e+02	-1.5080	33.847346	0.000771	7.706351	2.610982	0.000308
1972	1.9611e+02	-1.4727	34.121871	0.000690	6.895156	2.336142	0.000276
1973	1.9621e+02	-1.4310	34.396396	0.000690	6.895156	2.336142	0.000276
1974	1.9631e+02	-1.3957	34.646699	0.000629	6.286760	2.130012	0.000252
1975	1.9641e+02	-1.3524	34.917187	0.000679	6.793757	2.301787	0.000272
1976	1.9651e+02	-1.3058	35.147304	0.000578	5.779763	1.958237	0.000231
1977	1.9661e+02	-1.2754	35.446052	0.000750	7.503553	2.542272	0.000300
1978	1.9671e+02	-1.2208	35.700391	0.000639	6.388160	2.164367	0.000256
1979	1.9681e+02	-1.1919	36.011251	0.000781	7.807751	2.645338	0.000312
1980	1.9691e+02	-1.1567	36.289813	0.000700	6.996556	2.370497	0.000280
1981	1.9701e+02	-1.1165	36.576450	0.000720	7.199354	2.439207	0.000288
1982	1.9711e+02	-1.0748	36.855012	0.000700	6.996556	2.370497	0.000280
1983	1.9721e+02	-1.0267	37.101277	0.000619	6.185361	2.095657	0.000248
1984	1.9731e+02	-0.9898	37.395988	0.000740	7.402153	2.507917	0.000296
1985	1.9741e+02	-0.9513	37.650328	0.000639	6.388160	2.164367	0.000256
1986	1.9751e+02	-0.9144	37.969262	0.000801	8.010549	2.714048	0.000321
1987	1.9761e+02	-0.8759	38.215527	0.000619	6.185361	2.095657	0.000248
1988	1.9771e+02	-0.8374	38.477941	0.000659	6.590958	2.233077	0.000264
1989	1.9781e+02	-0.8005	38.760540	0.000710	7.097955	2.404852	0.000284
1990	1.9791e+02	-0.7492	39.043140	0.000710	7.097955	2.404852	0.000284
1991	1.9800e+02	-0.7107	39.317665	0.000690	6.895156	2.336142	0.000276
1992	1.9810e+02	-0.6786	39.555856	0.000598	5.982562	2.026947	0.000239
1993	1.9820e+02	-0.6385	39.862678	0.000771	7.706351	2.610982	0.000308
1994	1.9830e+02	-0.5984	40.112981	0.000629	6.286760	2.130012	0.000252
1995	1.9840e+02	-0.5535	40.375395	0.000659	6.590958	2.233077	0.000264
1996	1.9850e+02	-0.5101	40.653957	0.000700	6.996556	2.370497	0.000280
1997	1.9860e+02	-0.4813	40.960779	0.000771	7.706351	2.610982	0.000308
1998	1.9870e+02	-0.4364	41.211082	0.000629	6.286760	2.130012	0.000252
1999	1.9880e+02	-0.3850	41.509830	0.000750	7.503553	2.542272	0.000300
2000	1.9890e+02	-0.3561	41.796466	0.000720	7.199354	2.439207	0.000288
2001	1.9900e+02	-0.3144	42.054843	0.000649	6.489559	2.198722	0.000260
2002	1.9910e+02	-0.2775	42.341480	0.000720	7.199354	2.439207	0.000288
2003	1.9920e+02	-0.2438	42.640228	0.000750	7.503553	2.542272	0.000300
2004	1.9930e+02	-0.2005	42.902641	0.000659	6.590958	2.233077	0.000264
2005	1.9940e+02	-0.1508	43.181204	0.000700	6.996556	2.370497	0.000280
2006	1.9950e+02	-0.1235	43.467840	0.000720	7.199354	2.439207	0.000288
2007	1.9960e+02	-0.0818	43.746403	0.000700	6.996556	2.370497	0.000280
2008	1.9970e+02	-0.0385	44.045151	0.000750	7.503553	2.542272	0.000300
2009	1.9980e+02	-0.0048	44.283342	0.000750	7.503553	2.542272	0.000239

PMax (uC/cm2):	2.37e+02
Pr (uC/cm2):	2.11e+02
-Pr (uC/cm2):	1.85e+02
PLoss (uC/cm2):	1.85e+02
C (Max-Eff) (nF):	1.19e+00
K (Eff):	4.02e+03
Vert. (+/-Pr) Shift (uC/cm2):	1.98e+02
Offset (uC/cm2):	1.40e+02

A (Loop Area - uC/cm2·Volts):	-1.07e+01



Hysteresis Version: 5.48.1 - Radiant Technologies, Inc., 1999 - 9/12/24

