»»»»»»»»»»»»»»»»»»»»»»»»»»»»»»»»»»»» Hysteresis ««««««««««««««««««««««««««««««««««««
»»»  Executed Version:	5.48.1
»»»  Vision Version:	5.48.4 (R)
»»»  Vision Compiled:	9/18/24
»»»  Driver Version:	5.47.0
»»»  Windows Version:	Windows 8 or 8.1
»»»  Processor Information:	x86 (AMD or Intel) - 32 Processors
»»»  Tester Name:	PMF21124-494 (100V)
»»»  Tester S/N:	PMF21124-494
»»»  Internal Amp Type:	100V RevK 270k
»»»  Internal Amp S/N:	iAB2-596/K     
»»»  Execution Count:	1
»»»»»»»»»»»»»»»»»»»»»»»»»»»»»»»»»»»»»»»»»»««««««««««««««««««««««««««««««««««««««««««

Stored:	6/18/2025 - 16:0:7
Configured:	06/18/25 09:47:30 AM
Executed:	06/18/25 03:59:33 PM

»»»»»»»»»»»»»»»»»»»»»»»»»»»»»»»»»»» Sample Info ««««««««««««««««««««««««««««««««««««
Sample Name:	
Lot Name:	
Wafer Name:	
Die Row/Column:	0/0
Capacitor Number:	0
Sample Area (cm2):	1.00e-04
Sample Thickness (microns):	3.00e-01

Amplifier:	Internal

»»»»»»»»»»»»»»»»»»»»»»»»»»»»»»»»»»» Tester Info «««««««««««««««««««««««««««««««««««
Tester Name:	PMF21124-494 (100V)
Tester Serial Number:	PMF21124-494
Return Signal Amp. Level:	0.19 [Index: 3]

»»»»»»»»»»»»»»»»»»»»»»»»»»»»»»»» Hysteresis Info ««««««««««««««««««««««««««««««««««
Task Name:	Hyst-554
Volts:	20.00
Field:	666.67 (kV/cm)
DCBias:	0.00
DCField:	0.00 (kV/cm)
Hysteresis Period (ms):	2.00e+02
Preset:	Enabled
Preset Delay (ms):	1.00e+03
Profile:	Standard Bipolar

»»»»»»»»»»»»»»»»»»»»»»»»»»»»»»»»»»»»»» Data «««««««««««««««««««««««««««««««««««««««
Points:	2009

Valid Data

Point	Time (ms)	Drive Voltage	Measured Polarization (uC/cm2)	Capacitance (uF)	Normalized Capacitance (uF/cm2)	Dielectric Constant	Instantaneous Current (mA)
   1	0.0000e+00	-0.0048	-8.118680	0.000375	3.748692	1.270091	0.000150
   2	9.9500e-02	0.0337	-7.969306	0.000375	3.748692	1.270091	0.000150
   3	1.9900e-01	0.0770	-7.690744	0.000699	6.990804	2.368549	0.000280
   4	2.9850e-01	0.1203	-7.460627	0.000578	5.775012	1.956627	0.000231
   5	3.9800e-01	0.1540	-7.206287	0.000638	6.382908	2.162588	0.000256
   6	4.9750e-01	0.1941	-6.980208	0.000567	5.673696	1.922300	0.000227
   7	5.9700e-01	0.2454	-6.725868	0.000638	6.382908	2.162588	0.000256
   8	6.9650e-01	0.2791	-6.479603	0.000618	6.180276	2.093934	0.000248
   9	7.9600e-01	0.3032	-6.314080	0.000415	4.153956	1.407398	0.000166
  10	8.9550e-01	0.3610	-6.079926	0.000588	5.876328	1.990954	0.000235
  11	9.9500e-01	0.4043	-5.837698	0.000608	6.078960	2.059607	0.000243
  12	1.0945e+00	0.4283	-5.482430	0.000892	8.915808	3.020758	0.000357
  13	1.1940e+00	0.4700	-5.280574	0.000507	5.065800	1.716340	0.000203
  14	1.2935e+00	0.5101	-4.973751	0.000770	7.700016	2.608836	0.000308
  15	1.3930e+00	0.5454	-4.779969	0.000486	4.863168	1.647686	0.000195
  16	1.4925e+00	0.5888	-4.497369	0.000709	7.092120	2.402875	0.000284
  17	1.5920e+00	0.6321	-4.230918	0.000669	6.686856	2.265568	0.000268
  18	1.6915e+00	0.6690	-4.004839	0.000567	5.673696	1.922300	0.000227
  19	1.7910e+00	0.7027	-3.734351	0.000679	6.788172	2.299895	0.000272
  20	1.8905e+00	0.7508	-3.475974	0.000648	6.484224	2.196915	0.000260
  21	1.9900e+00	0.7957	-3.241820	0.000588	5.876328	1.990954	0.000235
  22	2.0895e+00	0.8342	-2.955183	0.000719	7.193436	2.437202	0.000288
  23	2.1890e+00	0.8711	-2.765438	0.000476	4.761852	1.613359	0.000191
  24	2.2885e+00	0.9032	-2.515136	0.000628	6.281592	2.128261	0.000252
  25	2.3880e+00	0.9545	-2.216388	0.000750	7.497384	2.540183	0.000300
  26	2.4875e+00	0.9882	-1.921677	0.000740	7.396068	2.505856	0.000296
  27	2.5870e+00	1.0411	-1.683486	0.000598	5.977644	2.025281	0.000239
  28	2.6865e+00	1.0732	-1.461443	0.000557	5.572380	1.887974	0.000223
  29	2.7860e+00	1.1149	-1.207104	0.000638	6.382908	2.162588	0.000256
  30	2.8855e+00	1.1502	-0.928541	0.000699	6.990804	2.368549	0.000280
  31	2.9850e+00	1.1952	-0.649979	0.000699	6.990804	2.368549	0.000280
  32	3.0845e+00	1.2385	-0.419862	0.000578	5.775012	1.956627	0.000231
  33	3.1840e+00	1.2673	-0.153411	0.000669	6.686856	2.265568	0.000268
  34	3.2835e+00	1.3058	0.129188	0.000709	7.092120	2.402875	0.000284
  35	3.3830e+00	1.3460	0.387565	0.000648	6.484224	2.196915	0.000260
  36	3.4825e+00	1.3973	0.670165	0.000709	7.092120	2.402875	0.000284
  37	3.5820e+00	1.4246	0.932578	0.000659	6.585540	2.231241	0.000264
  38	3.6815e+00	1.4727	1.186918	0.000638	6.382908	2.162588	0.000256
  39	3.7810e+00	1.5112	1.481629	0.000740	7.396068	2.505856	0.000296
  40	3.8805e+00	1.5481	1.764228	0.000709	7.092120	2.402875	0.000284
  41	3.9800e+00	1.5834	1.986271	0.000557	5.572380	1.887974	0.000223
  42	4.0795e+00	1.6203	2.252722	0.000669	6.686856	2.265568	0.000268
  43	4.1790e+00	1.6652	2.519173	0.000669	6.686856	2.265568	0.000268
  44	4.2785e+00	1.7101	2.805809	0.000719	7.193436	2.437202	0.000288
  45	4.3780e+00	1.7438	3.084372	0.000699	6.990804	2.368549	0.000280
  46	4.4775e+00	1.7839	3.326600	0.000608	6.078960	2.059607	0.000243
  47	4.5770e+00	1.8288	3.597088	0.000679	6.788172	2.299895	0.000272
  48	4.6765e+00	1.8753	3.871613	0.000689	6.889488	2.334222	0.000276
  49	4.7760e+00	1.9090	4.142101	0.000679	6.788172	2.299895	0.000272
  50	4.8755e+00	1.9443	4.412589	0.000679	6.788172	2.299895	0.000272
  51	4.9750e+00	1.9909	4.723449	0.000780	7.801332	2.643163	0.000312
  52	5.0745e+00	2.0310	4.965677	0.000608	6.078960	2.059607	0.000243
  53	5.1740e+00	2.0695	5.252314	0.000719	7.193436	2.437202	0.000288
  54	5.2735e+00	2.1031	5.506653	0.000638	6.382908	2.162588	0.000256
  55	5.3730e+00	2.1481	5.817513	0.000780	7.801332	2.643163	0.000312
  56	5.4725e+00	2.1898	6.071852	0.000638	6.382908	2.162588	0.000256
  57	5.5720e+00	2.2235	6.318117	0.000618	6.180276	2.093934	0.000248
  58	5.6715e+00	2.2539	6.637051	0.000800	8.003964	2.711817	0.000321
  59	5.7710e+00	2.3069	6.899465	0.000659	6.585540	2.231241	0.000264
  60	5.8705e+00	2.3422	7.182064	0.000709	7.092120	2.402875	0.000284
  61	5.9700e+00	2.3903	7.440441	0.000648	6.484224	2.196915	0.000260
  62	6.0695e+00	2.4208	7.735152	0.000740	7.396068	2.505856	0.000296
  63	6.1690e+00	2.4577	8.009677	0.000689	6.889488	2.334222	0.000276
  64	6.2685e+00	2.5106	8.296314	0.000719	7.193436	2.437202	0.000288
  65	6.3680e+00	2.5491	8.623322	0.000821	8.206596	2.780470	0.000329
  66	6.4675e+00	2.5812	8.869587	0.000618	6.180276	2.093934	0.000248
  67	6.5670e+00	2.6293	9.140075	0.000679	6.788172	2.299895	0.000272
  68	6.6665e+00	2.6694	9.394415	0.000638	6.382908	2.162588	0.000256
  69	6.7660e+00	2.7079	9.685089	0.000729	7.294752	2.471529	0.000292
  70	6.8655e+00	2.7481	9.987874	0.000760	7.598700	2.574509	0.000304
  71	6.9650e+00	2.7866	10.302770	0.000790	7.902648	2.677490	0.000316
  72	7.0645e+00	2.8315	10.536924	0.000588	5.876328	1.990954	0.000235
  73	7.1640e+00	2.8684	10.827598	0.000729	7.294752	2.471529	0.000292
  74	7.2635e+00	2.9021	11.110198	0.000709	7.092120	2.402875	0.000284
  75	7.3630e+00	2.9550	11.360500	0.000628	6.281592	2.128261	0.000252
  76	7.4625e+00	2.9871	11.651174	0.000729	7.294752	2.471529	0.000292
  77	7.5620e+00	3.0288	11.974145	0.000811	8.105280	2.746143	0.000325
  78	7.6615e+00	3.0609	12.248670	0.000689	6.889488	2.334222	0.000276
  79	7.7610e+00	3.0978	12.559529	0.000780	7.801332	2.643163	0.000312
  80	7.8605e+00	3.1427	12.805795	0.000618	6.180276	2.093934	0.000248
  81	7.9600e+00	3.1876	13.104543	0.000750	7.497384	2.540183	0.000300
  82	8.0595e+00	3.2213	13.407328	0.000760	7.598700	2.574509	0.000304
  83	8.1590e+00	3.2646	13.718187	0.000780	7.801332	2.643163	0.000312
  84	8.2585e+00	3.3127	14.016935	0.000750	7.497384	2.540183	0.000300
  85	8.3580e+00	3.3448	14.259163	0.000608	6.078960	2.059607	0.000243
  86	8.4575e+00	3.3833	14.513503	0.000638	6.382908	2.162588	0.000256
  87	8.5570e+00	3.4154	14.820325	0.000770	7.700016	2.608836	0.000308
  88	8.6565e+00	3.4700	15.078702	0.000648	6.484224	2.196915	0.000260
  89	8.7560e+00	3.5036	15.373413	0.000740	7.396068	2.505856	0.000296
  90	8.8555e+00	3.5405	15.672161	0.000750	7.497384	2.540183	0.000300
  91	8.9550e+00	3.5839	15.970909	0.000750	7.497384	2.540183	0.000300
  92	9.0545e+00	3.6240	16.237360	0.000669	6.686856	2.265568	0.000268
  93	9.1540e+00	3.6689	16.548219	0.000780	7.801332	2.643163	0.000312
  94	9.2535e+00	3.6994	16.855042	0.000770	7.700016	2.608836	0.000308
  95	9.3530e+00	3.7443	17.117456	0.000659	6.585540	2.231241	0.000264
  96	9.4525e+00	3.7908	17.383906	0.000669	6.686856	2.265568	0.000268
  97	9.5520e+00	3.8261	17.735137	0.000881	8.814492	2.986431	0.000353
  98	9.6515e+00	3.8566	17.965254	0.000578	5.775012	1.956627	0.000231
  99	9.7510e+00	3.8935	18.268039	0.000760	7.598700	2.574509	0.000304
 100	9.8505e+00	3.9400	18.591010	0.000811	8.105280	2.746143	0.000325
 101	9.9500e+00	3.9849	18.934167	0.000861	8.611860	2.917777	0.000345
 102	1.0050e+01	4.0234	19.212729	0.000699	6.990804	2.368549	0.000280
 103	1.0149e+01	4.0587	19.386326	0.000436	4.356588	1.476052	0.000174
 104	1.0248e+01	4.0956	19.725445	0.000851	8.510544	2.883450	0.000341
 105	1.0348e+01	4.1405	20.048416	0.000811	8.105280	2.746143	0.000325
 106	1.0447e+01	4.1870	20.347164	0.000750	7.497384	2.540183	0.000300
 107	1.0547e+01	4.2207	20.605541	0.000648	6.484224	2.196915	0.000260
 108	1.0646e+01	4.2689	20.928512	0.000811	8.105280	2.746143	0.000325
 109	1.0746e+01	4.3026	21.134406	0.000517	5.167116	1.750666	0.000207
 110	1.0845e+01	4.3411	21.485636	0.000881	8.814492	2.986431	0.000353
 111	1.0945e+01	4.3844	21.756124	0.000679	6.788172	2.299895	0.000272
 112	1.1044e+01	4.4213	22.054873	0.000750	7.497384	2.540183	0.000300
 113	1.1144e+01	4.4630	22.365732	0.000780	7.801332	2.643163	0.000312
 114	1.1243e+01	4.4983	22.640257	0.000689	6.889488	2.334222	0.000276
 115	1.1343e+01	4.5352	22.959191	0.000800	8.003964	2.711817	0.000321
 116	1.1443e+01	4.5833	23.209493	0.000628	6.281592	2.128261	0.000252
 117	1.1542e+01	4.6202	23.479981	0.000679	6.788172	2.299895	0.000272
 118	1.1642e+01	4.6619	23.855435	0.000942	9.422388	3.192392	0.000377
 119	1.1741e+01	4.7052	24.146109	0.000729	7.294752	2.471529	0.000292
 120	1.1841e+01	4.7373	24.436783	0.000729	7.294752	2.471529	0.000292
 121	1.1940e+01	4.7742	24.727456	0.000729	7.294752	2.471529	0.000292
 122	1.2040e+01	4.8207	24.997944	0.000679	6.788172	2.299895	0.000272
 123	1.2139e+01	4.8624	25.276507	0.000699	6.990804	2.368549	0.000280
 124	1.2239e+01	4.9009	25.575255	0.000750	7.497384	2.540183	0.000300
 125	1.2338e+01	4.9378	25.829594	0.000638	6.382908	2.162588	0.000256
 126	1.2438e+01	4.9763	26.132380	0.000760	7.598700	2.574509	0.000304
 127	1.2537e+01	5.0229	26.439202	0.000770	7.700016	2.608836	0.000308
 128	1.2636e+01	5.0598	26.717764	0.000699	6.990804	2.368549	0.000280
 129	1.2736e+01	5.0934	27.012475	0.000740	7.396068	2.505856	0.000296
 130	1.2835e+01	5.1432	27.303149	0.000729	7.294752	2.471529	0.000292
 131	1.2935e+01	5.1753	27.601897	0.000750	7.497384	2.540183	0.000300
 132	1.3034e+01	5.2186	27.912756	0.000780	7.801332	2.643163	0.000312
 133	1.3134e+01	5.2555	28.203430	0.000729	7.294752	2.471529	0.000292
 134	1.3233e+01	5.3004	28.473918	0.000679	6.788172	2.299895	0.000272
 135	1.3333e+01	5.3389	28.780741	0.000770	7.700016	2.608836	0.000308
 136	1.3432e+01	5.3742	29.071414	0.000729	7.294752	2.471529	0.000292
 137	1.3532e+01	5.4223	29.374200	0.000760	7.598700	2.574509	0.000304
 138	1.3632e+01	5.4656	29.693133	0.000800	8.003964	2.711817	0.000321
 139	1.3731e+01	5.4993	30.016104	0.000811	8.105280	2.746143	0.000325
 140	1.3831e+01	5.5330	30.262369	0.000618	6.180276	2.093934	0.000248
 141	1.3930e+01	5.5843	30.549006	0.000719	7.193436	2.437202	0.000288
 142	1.4030e+01	5.6228	30.839680	0.000729	7.294752	2.471529	0.000292
 143	1.4129e+01	5.6565	31.158614	0.000800	8.003964	2.711817	0.000321
 144	1.4229e+01	5.6982	31.421027	0.000659	6.585540	2.231241	0.000264
 145	1.4328e+01	5.7448	31.711701	0.000729	7.294752	2.471529	0.000292
 146	1.4428e+01	5.7865	32.026598	0.000790	7.902648	2.677490	0.000316
 147	1.4527e+01	5.8186	32.276900	0.000628	6.281592	2.128261	0.000252
 148	1.4627e+01	5.8490	32.616020	0.000851	8.510544	2.883450	0.000341
 149	1.4726e+01	5.8940	32.926879	0.000780	7.801332	2.643163	0.000312
 150	1.4825e+01	5.9373	33.136810	0.000527	5.268432	1.784993	0.000211
 151	1.4925e+01	5.9726	33.463818	0.000821	8.206596	2.780470	0.000329
 152	1.5024e+01	6.0175	33.758529	0.000740	7.396068	2.505856	0.000296
 153	1.5124e+01	6.0624	34.065351	0.000770	7.700016	2.608836	0.000308
 154	1.5223e+01	6.0945	34.384285	0.000800	8.003964	2.711817	0.000321
 155	1.5323e+01	6.1330	34.634587	0.000628	6.281592	2.128261	0.000252
 156	1.5422e+01	6.1715	34.949484	0.000790	7.902648	2.677490	0.000316
 157	1.5522e+01	6.2244	35.292641	0.000861	8.611860	2.917777	0.000345
 158	1.5621e+01	6.2565	35.595426	0.000760	7.598700	2.574509	0.000304
 159	1.5721e+01	6.2966	35.805357	0.000527	5.268432	1.784993	0.000211
 160	1.5820e+01	6.3431	36.124291	0.000800	8.003964	2.711817	0.000321
 161	1.5920e+01	6.3784	36.386704	0.000659	6.585540	2.231241	0.000264
 162	1.6020e+01	6.4073	36.746009	0.000902	9.017124	3.055084	0.000361
 163	1.6119e+01	6.4522	37.004386	0.000648	6.484224	2.196915	0.000260
 164	1.6218e+01	6.4923	37.291023	0.000719	7.193436	2.437202	0.000288
 165	1.6318e+01	6.5356	37.585734	0.000740	7.396068	2.505856	0.000296
 166	1.6418e+01	6.5758	37.856222	0.000679	6.788172	2.299895	0.000272
 167	1.6517e+01	6.6014	38.146896	0.000729	7.294752	2.471529	0.000292
 168	1.6616e+01	6.6495	38.477941	0.000831	8.307912	2.814797	0.000333
 169	1.6716e+01	6.6913	38.756503	0.000699	6.990804	2.368549	0.000280
 170	1.6816e+01	6.7233	39.059288	0.000760	7.598700	2.574509	0.000304
 171	1.6915e+01	6.7731	39.313628	0.000638	6.382908	2.162588	0.000256
 172	1.7015e+01	6.8084	39.652747	0.000851	8.510544	2.883450	0.000341
 173	1.7114e+01	6.8453	39.971681	0.000800	8.003964	2.711817	0.000321
 174	1.7213e+01	6.8902	40.258318	0.000719	7.193436	2.437202	0.000288
 175	1.7313e+01	6.9271	40.561103	0.000760	7.598700	2.574509	0.000304
 176	1.7413e+01	6.9784	40.839665	0.000699	6.990804	2.368549	0.000280
 177	1.7512e+01	7.0137	41.122265	0.000709	7.092120	2.402875	0.000284
 178	1.7611e+01	7.0394	41.416976	0.000740	7.396068	2.505856	0.000296
 179	1.7711e+01	7.0907	41.711686	0.000740	7.396068	2.505856	0.000296
 180	1.7811e+01	7.1324	42.014472	0.000760	7.598700	2.574509	0.000304
 181	1.7910e+01	7.1757	42.305145	0.000729	7.294752	2.471529	0.000292
 182	1.8009e+01	7.2094	42.603893	0.000750	7.497384	2.540183	0.000300
 183	1.8109e+01	7.2495	42.898604	0.000740	7.396068	2.505856	0.000296
 184	1.8209e+01	7.2896	43.197352	0.000750	7.497384	2.540183	0.000300
 185	1.8308e+01	7.3346	43.483989	0.000719	7.193436	2.437202	0.000288
 186	1.8407e+01	7.3698	43.782737	0.000750	7.497384	2.540183	0.000300
 187	1.8507e+01	7.4003	44.109745	0.000821	8.206596	2.780470	0.000329
 188	1.8607e+01	7.4468	44.400419	0.000729	7.294752	2.471529	0.000292
 189	1.8706e+01	7.4870	44.654758	0.000638	6.382908	2.162588	0.000256
 190	1.8805e+01	7.5222	44.985804	0.000831	8.307912	2.814797	0.000333
 191	1.8905e+01	7.5688	45.264366	0.000699	6.990804	2.368549	0.000280
 192	1.9005e+01	7.6105	45.575225	0.000780	7.801332	2.643163	0.000312
 193	1.9104e+01	7.6426	45.857825	0.000709	7.092120	2.402875	0.000284
 194	1.9203e+01	7.6843	46.176759	0.000800	8.003964	2.711817	0.000321
 195	1.9303e+01	7.7340	46.515878	0.000851	8.510544	2.883450	0.000341
 196	1.9402e+01	7.7645	46.778292	0.000659	6.585540	2.231241	0.000264
 197	1.9502e+01	7.7998	47.020520	0.000608	6.078960	2.059607	0.000243
 198	1.9602e+01	7.8543	47.339454	0.000800	8.003964	2.711817	0.000321
 199	1.9701e+01	7.8944	47.622053	0.000709	7.092120	2.402875	0.000284
 200	1.9800e+01	7.9265	47.904653	0.000709	7.092120	2.402875	0.000284
 201	1.9900e+01	7.9650	48.272032	0.000922	9.219756	3.123738	0.000369
 202	2.0000e+01	8.0067	48.538483	0.000669	6.686856	2.265568	0.000268
 203	2.0099e+01	8.0404	48.833194	0.000740	7.396068	2.505856	0.000296
 204	2.0198e+01	8.0805	49.107719	0.000689	6.889488	2.334222	0.000276
 205	2.0298e+01	8.1254	49.374170	0.000669	6.686856	2.265568	0.000268
 206	2.0398e+01	8.1607	49.737512	0.000912	9.118440	3.089411	0.000365
 207	2.0497e+01	8.1992	50.048372	0.000780	7.801332	2.643163	0.000312
 208	2.0596e+01	8.2458	50.306748	0.000648	6.484224	2.196915	0.000260
 209	2.0696e+01	8.2859	50.605496	0.000750	7.497384	2.540183	0.000300
 210	2.0796e+01	8.3260	50.920393	0.000790	7.902648	2.677490	0.000316
 211	2.0895e+01	8.3741	51.215104	0.000740	7.396068	2.505856	0.000296
 212	2.0994e+01	8.4142	51.550186	0.000841	8.409228	2.849124	0.000337
 213	2.1094e+01	8.4463	51.832786	0.000709	7.092120	2.402875	0.000284
 214	2.1194e+01	8.4960	52.147682	0.000790	7.902648	2.677490	0.000316
 215	2.1293e+01	8.5281	52.393948	0.000618	6.180276	2.093934	0.000248
 216	2.1392e+01	8.5698	52.716918	0.000811	8.105280	2.746143	0.000325
 217	2.1492e+01	8.6067	52.995481	0.000699	6.990804	2.368549	0.000280
 218	2.1591e+01	8.6452	53.314415	0.000800	8.003964	2.711817	0.000321
 219	2.1691e+01	8.6805	53.568754	0.000638	6.382908	2.162588	0.000256
 220	2.1791e+01	8.7286	53.899799	0.000831	8.307912	2.814797	0.000333
 221	2.1890e+01	8.7607	54.166250	0.000669	6.686856	2.265568	0.000268
 222	2.1989e+01	8.8024	54.481147	0.000790	7.902648	2.677490	0.000316
 223	2.2089e+01	8.8425	54.820266	0.000851	8.510544	2.883450	0.000341
 224	2.2189e+01	8.8939	55.127089	0.000770	7.700016	2.608836	0.000308
 225	2.2288e+01	8.9131	55.369317	0.000608	6.078960	2.059607	0.000243
 226	2.2387e+01	8.9548	55.680176	0.000780	7.801332	2.643163	0.000312
 227	2.2487e+01	8.9949	55.974887	0.000740	7.396068	2.505856	0.000296
 228	2.2587e+01	9.0366	56.309969	0.000841	8.409228	2.849124	0.000337
 229	2.2686e+01	9.0800	56.616792	0.000770	7.700016	2.608836	0.000308
 230	2.2785e+01	9.1169	56.883243	0.000669	6.686856	2.265568	0.000268
 231	2.2885e+01	9.1570	57.218325	0.000841	8.409228	2.849124	0.000337
 232	2.2985e+01	9.2019	57.553407	0.000841	8.409228	2.849124	0.000337
 233	2.3084e+01	9.2420	57.791598	0.000598	5.977644	2.025281	0.000239
 234	2.3183e+01	9.2821	58.078235	0.000719	7.193436	2.437202	0.000288
 235	2.3283e+01	9.3222	58.421391	0.000861	8.611860	2.917777	0.000345
 236	2.3383e+01	9.3703	58.687842	0.000669	6.686856	2.265568	0.000268
 237	2.3482e+01	9.4008	58.994665	0.000770	7.700016	2.608836	0.000308
 238	2.3581e+01	9.4409	59.305524	0.000780	7.801332	2.643163	0.000312
 239	2.3681e+01	9.4842	59.592161	0.000719	7.193436	2.437202	0.000288
 240	2.3780e+01	9.5147	59.882834	0.000729	7.294752	2.471529	0.000292
 241	2.3880e+01	9.5532	60.181582	0.000750	7.497384	2.540183	0.000300
 242	2.3980e+01	9.5997	60.476293	0.000740	7.396068	2.505856	0.000296
 243	2.4079e+01	9.6479	60.827524	0.000881	8.814492	2.986431	0.000353
 244	2.4178e+01	9.6815	61.077827	0.000628	6.281592	2.128261	0.000252
 245	2.4278e+01	9.7088	61.412909	0.000841	8.409228	2.849124	0.000337
 246	2.4378e+01	9.7634	61.687434	0.000689	6.889488	2.334222	0.000276
 247	2.4477e+01	9.8019	62.006368	0.000800	8.003964	2.711817	0.000321
 248	2.4576e+01	9.8372	62.280893	0.000689	6.889488	2.334222	0.000276
 249	2.4676e+01	9.8821	62.603864	0.000811	8.105280	2.746143	0.000325
 250	2.4776e+01	9.9190	62.890501	0.000719	7.193436	2.437202	0.000288
 251	2.4875e+01	9.9527	63.205397	0.000790	7.902648	2.677490	0.000316
 252	2.4974e+01	9.9992	63.487997	0.000709	7.092120	2.402875	0.000284
 253	2.5074e+01	10.0425	63.774633	0.000719	7.193436	2.437202	0.000288
 254	2.5174e+01	10.0746	64.089530	0.000790	7.902648	2.677490	0.000316
 255	2.5273e+01	10.1147	64.347907	0.000648	6.484224	2.196915	0.000260
 256	2.5372e+01	10.1580	64.670877	0.000811	8.105280	2.746143	0.000325
 257	2.5472e+01	10.2029	64.953477	0.000709	7.092120	2.402875	0.000284
 258	2.5572e+01	10.2270	65.272411	0.000800	8.003964	2.711817	0.000321
 259	2.5671e+01	10.2815	65.559047	0.000719	7.193436	2.437202	0.000288
 260	2.5770e+01	10.3232	65.849721	0.000729	7.294752	2.471529	0.000292
 261	2.5870e+01	10.3521	66.144432	0.000740	7.396068	2.505856	0.000296
 262	2.5970e+01	10.3922	66.443180	0.000750	7.497384	2.540183	0.000300
 263	2.6069e+01	10.4403	66.762114	0.000800	8.003964	2.711817	0.000321
 264	2.6169e+01	10.4805	67.093159	0.000831	8.307912	2.814797	0.000333
 265	2.6268e+01	10.5141	67.379795	0.000719	7.193436	2.437202	0.000288
 266	2.6367e+01	10.5542	67.670469	0.000729	7.294752	2.471529	0.000292
 267	2.6467e+01	10.6008	67.953069	0.000709	7.092120	2.402875	0.000284
 268	2.6567e+01	10.6393	68.328522	0.000942	9.422388	3.192392	0.000377
 269	2.6666e+01	10.6665	68.554602	0.000567	5.673696	1.922300	0.000227
 270	2.6765e+01	10.7131	68.841239	0.000719	7.193436	2.437202	0.000288
 271	2.6865e+01	10.7596	69.144024	0.000760	7.598700	2.574509	0.000304
 272	2.6965e+01	10.7949	69.422586	0.000699	6.990804	2.368549	0.000280
 273	2.7064e+01	10.8398	69.717297	0.000740	7.396068	2.505856	0.000296
 274	2.7163e+01	10.8735	70.003934	0.000719	7.193436	2.437202	0.000288
 275	2.7263e+01	10.9136	70.343053	0.000851	8.510544	2.883450	0.000341
 276	2.7363e+01	10.9585	70.641801	0.000750	7.497384	2.540183	0.000300
 277	2.7462e+01	11.0002	70.904215	0.000659	6.585540	2.231241	0.000264
 278	2.7561e+01	11.0339	71.231223	0.000821	8.206596	2.780470	0.000329
 279	2.7661e+01	11.0708	71.513822	0.000709	7.092120	2.402875	0.000284
 280	2.7761e+01	11.1109	71.792385	0.000699	6.990804	2.368549	0.000280
 281	2.7860e+01	11.1462	72.087096	0.000740	7.396068	2.505856	0.000296
 282	2.7959e+01	11.1895	72.373732	0.000719	7.193436	2.437202	0.000288
 283	2.8059e+01	11.2312	72.648258	0.000689	6.889488	2.334222	0.000276
 284	2.8159e+01	11.2729	72.971228	0.000811	8.105280	2.746143	0.000325
 285	2.8258e+01	11.3130	73.286125	0.000790	7.902648	2.677490	0.000316
 286	2.8358e+01	11.3387	73.613133	0.000821	8.206596	2.780470	0.000329
 287	2.8457e+01	11.3949	73.915918	0.000760	7.598700	2.574509	0.000304
 288	2.8556e+01	11.4334	74.194481	0.000699	6.990804	2.368549	0.000280
 289	2.8656e+01	11.4719	74.456894	0.000659	6.585540	2.231241	0.000264
 290	2.8756e+01	11.5216	74.743531	0.000719	7.193436	2.437202	0.000288
 291	2.8855e+01	11.5489	75.030168	0.000719	7.193436	2.437202	0.000288
 292	2.8954e+01	11.5874	75.304693	0.000689	6.889488	2.334222	0.000276
 293	2.9054e+01	11.6403	75.623627	0.000800	8.003964	2.711817	0.000321
 294	2.9154e+01	11.6740	75.898152	0.000689	6.889488	2.334222	0.000276
 295	2.9253e+01	11.7061	76.225160	0.000821	8.206596	2.780470	0.000329
 296	2.9352e+01	11.7510	76.503722	0.000699	6.990804	2.368549	0.000280
 297	2.9452e+01	11.7943	76.766136	0.000659	6.585540	2.231241	0.000264
 298	2.9552e+01	11.8296	77.105255	0.000851	8.510544	2.883450	0.000341
 299	2.9651e+01	11.8665	77.379781	0.000689	6.889488	2.334222	0.000276
 300	2.9750e+01	11.9178	77.686603	0.000770	7.700016	2.608836	0.000308
 301	2.9850e+01	11.9435	77.949017	0.000659	6.585540	2.231241	0.000264
 302	2.9950e+01	11.9868	78.211431	0.000659	6.585540	2.231241	0.000264
 303	3.0049e+01	12.0317	78.570736	0.000902	9.017124	3.055084	0.000361
 304	3.0148e+01	12.0670	78.841224	0.000679	6.788172	2.299895	0.000272
 305	3.0248e+01	12.1152	79.131898	0.000729	7.294752	2.471529	0.000292
 306	3.0348e+01	12.1553	79.422571	0.000729	7.294752	2.471529	0.000292
 307	3.0447e+01	12.1874	79.741505	0.000800	8.003964	2.711817	0.000321
 308	3.0547e+01	12.2307	80.011993	0.000679	6.788172	2.299895	0.000272
 309	3.0646e+01	12.2756	80.286518	0.000689	6.889488	2.334222	0.000276
 310	3.0745e+01	12.3045	80.561044	0.000689	6.889488	2.334222	0.000276
 311	3.0845e+01	12.3478	80.875940	0.000790	7.902648	2.677490	0.000316
 312	3.0945e+01	12.3991	81.170651	0.000740	7.396068	2.505856	0.000296
 313	3.1044e+01	12.4280	81.408842	0.000598	5.977644	2.025281	0.000239
 314	3.1143e+01	12.4729	81.747962	0.000851	8.510544	2.883450	0.000341
 315	3.1243e+01	12.5114	82.022487	0.000689	6.889488	2.334222	0.000276
 316	3.1343e+01	12.5467	82.313161	0.000729	7.294752	2.471529	0.000292
 317	3.1442e+01	12.5868	82.591723	0.000699	6.990804	2.368549	0.000280
 318	3.1541e+01	12.6205	82.934879	0.000861	8.611860	2.917777	0.000345
 319	3.1641e+01	12.6654	83.201330	0.000669	6.686856	2.265568	0.000268
 320	3.1741e+01	12.7119	83.479893	0.000699	6.990804	2.368549	0.000280
 321	3.1840e+01	12.7504	83.714047	0.000588	5.876328	1.990954	0.000235
 322	3.1939e+01	12.7922	84.053166	0.000851	8.510544	2.883450	0.000341
 323	3.2039e+01	12.8274	84.327691	0.000689	6.889488	2.334222	0.000276
 324	3.2139e+01	12.8788	84.606254	0.000699	6.990804	2.368549	0.000280
 325	3.2238e+01	12.9077	84.905002	0.000750	7.497384	2.540183	0.000300
 326	3.2337e+01	12.9413	85.199713	0.000740	7.396068	2.505856	0.000296
 327	3.2437e+01	12.9879	85.498461	0.000750	7.497384	2.540183	0.000300
 328	3.2536e+01	13.0280	85.744726	0.000618	6.180276	2.093934	0.000248
 329	3.2636e+01	13.0745	86.027325	0.000709	7.092120	2.402875	0.000284
 330	3.2736e+01	13.1098	86.330111	0.000760	7.598700	2.574509	0.000304
 331	3.2835e+01	13.1419	86.612710	0.000709	7.092120	2.402875	0.000284
 332	3.2934e+01	13.1932	86.915495	0.000760	7.598700	2.574509	0.000304
 333	3.3034e+01	13.2157	87.169835	0.000638	6.382908	2.162588	0.000256
 334	3.3133e+01	13.2670	87.464546	0.000740	7.396068	2.505856	0.000296
 335	3.3233e+01	13.3055	87.775405	0.000780	7.801332	2.643163	0.000312
 336	3.3333e+01	13.3376	88.082228	0.000770	7.700016	2.608836	0.000308
 337	3.3432e+01	13.3809	88.376938	0.000740	7.396068	2.505856	0.000296
 338	3.3532e+01	13.4114	88.671649	0.000740	7.396068	2.505856	0.000296
 339	3.3631e+01	13.4611	88.942137	0.000679	6.788172	2.299895	0.000272
 340	3.3730e+01	13.4980	89.196477	0.000638	6.382908	2.162588	0.000256
 341	3.3830e+01	13.5349	89.543671	0.000871	8.713176	2.952104	0.000349
 342	3.3929e+01	13.5830	89.858567	0.000790	7.902648	2.677490	0.000316
 343	3.4029e+01	13.6264	90.104833	0.000618	6.180276	2.093934	0.000248
 344	3.4129e+01	13.6713	90.379358	0.000689	6.889488	2.334222	0.000276
 345	3.4228e+01	13.6985	90.661957	0.000709	7.092120	2.402875	0.000284
 346	3.4328e+01	13.7467	90.940520	0.000699	6.990804	2.368549	0.000280
 347	3.4427e+01	13.7772	91.215045	0.000689	6.889488	2.334222	0.000276
 348	3.4526e+01	13.8237	91.505719	0.000729	7.294752	2.471529	0.000292
 349	3.4626e+01	13.8622	91.764095	0.000648	6.484224	2.196915	0.000260
 350	3.4725e+01	13.8991	92.070918	0.000770	7.700016	2.608836	0.000308
 351	3.4825e+01	13.9424	92.389851	0.000800	8.003964	2.711817	0.000321
 352	3.4925e+01	13.9793	92.680525	0.000729	7.294752	2.471529	0.000292
 353	3.5024e+01	14.0226	92.959088	0.000699	6.990804	2.368549	0.000280
 354	3.5123e+01	14.0643	93.229576	0.000679	6.788172	2.299895	0.000272
 355	3.5223e+01	14.1044	93.544472	0.000790	7.902648	2.677490	0.000316
 356	3.5322e+01	14.1317	93.827072	0.000709	7.092120	2.402875	0.000284
 357	3.5422e+01	14.1846	94.097560	0.000679	6.788172	2.299895	0.000272
 358	3.5522e+01	14.2231	94.400345	0.000760	7.598700	2.574509	0.000304
 359	3.5621e+01	14.2536	94.674870	0.000689	6.889488	2.334222	0.000276
 360	3.5721e+01	14.3017	94.977655	0.000760	7.598700	2.574509	0.000304
 361	3.5820e+01	14.3386	95.316775	0.000851	8.510544	2.883450	0.000341
 362	3.5919e+01	14.3819	95.611486	0.000740	7.396068	2.505856	0.000296
 363	3.6019e+01	14.4156	95.873900	0.000659	6.585540	2.231241	0.000264
 364	3.6118e+01	14.4590	96.120165	0.000618	6.180276	2.093934	0.000248
 365	3.6218e+01	14.5039	96.414876	0.000740	7.396068	2.505856	0.000296
 366	3.6318e+01	14.5360	96.689401	0.000689	6.889488	2.334222	0.000276
 367	3.6417e+01	14.5809	96.980075	0.000729	7.294752	2.471529	0.000292
 368	3.6517e+01	14.6146	97.266711	0.000719	7.193436	2.437202	0.000288
 369	3.6616e+01	14.6531	97.553348	0.000719	7.193436	2.437202	0.000288
 370	3.6715e+01	14.6884	97.844022	0.000729	7.294752	2.471529	0.000292
 371	3.6815e+01	14.7317	98.126621	0.000709	7.092120	2.402875	0.000284
 372	3.6914e+01	14.7766	98.425369	0.000750	7.497384	2.540183	0.000300
 373	3.7014e+01	14.8183	98.691820	0.000669	6.686856	2.265568	0.000268
 374	3.7114e+01	14.8568	99.002680	0.000780	7.801332	2.643163	0.000312
 375	3.7213e+01	14.9001	99.269131	0.000669	6.686856	2.265568	0.000268
 376	3.7313e+01	14.9322	99.584027	0.000790	7.902648	2.677490	0.000316
 377	3.7412e+01	14.9771	99.878738	0.000740	7.396068	2.505856	0.000296
 378	3.7511e+01	15.0220	100.205746	0.000821	8.206596	2.780470	0.000329
 379	3.7611e+01	15.0589	100.548903	0.000861	8.611860	2.917777	0.000345
 380	3.7711e+01	15.0926	100.791131	0.000608	6.078960	2.059607	0.000243
 381	3.7810e+01	15.1375	101.089879	0.000750	7.497384	2.540183	0.000300
 382	3.7910e+01	15.1793	101.356330	0.000669	6.686856	2.265568	0.000268
 383	3.8009e+01	15.2242	101.594521	0.000598	5.977644	2.025281	0.000239
 384	3.8108e+01	15.2530	101.901343	0.000770	7.700016	2.608836	0.000308
 385	3.8208e+01	15.2899	102.179906	0.000699	6.990804	2.368549	0.000280
 386	3.8307e+01	15.3365	102.474616	0.000740	7.396068	2.505856	0.000296
 387	3.8407e+01	15.3750	102.793550	0.000800	8.003964	2.711817	0.000321
 388	3.8507e+01	15.4135	103.051927	0.000648	6.484224	2.196915	0.000260
 389	3.8606e+01	15.4616	103.334526	0.000709	7.092120	2.402875	0.000284
 390	3.8706e+01	15.4969	103.633274	0.000750	7.497384	2.540183	0.000300
 391	3.8805e+01	15.5386	103.932022	0.000750	7.497384	2.540183	0.000300
 392	3.8904e+01	15.5723	104.214622	0.000709	7.092120	2.402875	0.000284
 393	3.9004e+01	15.6172	104.497221	0.000709	7.092120	2.402875	0.000284
 394	3.9103e+01	15.6509	104.804044	0.000770	7.700016	2.608836	0.000308
 395	3.9203e+01	15.6958	105.098755	0.000740	7.396068	2.505856	0.000296
 396	3.9303e+01	15.7327	105.417688	0.000800	8.003964	2.711817	0.000321
 397	3.9402e+01	15.7728	105.712399	0.000740	7.396068	2.505856	0.000296
 398	3.9502e+01	15.8177	106.039407	0.000821	8.206596	2.780470	0.000329
 399	3.9601e+01	15.8594	106.313933	0.000689	6.889488	2.334222	0.000276
 400	3.9700e+01	15.8996	106.596532	0.000709	7.092120	2.402875	0.000284
 401	3.9800e+01	15.9461	106.830686	0.000588	5.876328	1.990954	0.000235
 402	3.9900e+01	15.9798	107.125397	0.000740	7.396068	2.505856	0.000296
 403	3.9999e+01	16.0118	107.371662	0.000618	6.180276	2.093934	0.000248
 404	4.0099e+01	16.0503	107.714819	0.000861	8.611860	2.917777	0.000345
 405	4.0198e+01	16.0824	107.981270	0.000669	6.686856	2.265568	0.000268
 406	4.0297e+01	16.1354	108.251758	0.000679	6.788172	2.299895	0.000272
 407	4.0397e+01	16.1642	108.582803	0.000831	8.307912	2.814797	0.000333
 408	4.0496e+01	16.2076	108.841179	0.000648	6.484224	2.196915	0.000260
 409	4.0596e+01	16.2557	109.135890	0.000740	7.396068	2.505856	0.000296
 410	4.0696e+01	16.2926	109.462898	0.000821	8.206596	2.780470	0.000329
 411	4.0795e+01	16.3327	109.725312	0.000659	6.585540	2.231241	0.000264
 412	4.0895e+01	16.3664	110.040209	0.000790	7.902648	2.677490	0.000316
 413	4.0994e+01	16.4177	110.342994	0.000760	7.598700	2.574509	0.000304
 414	4.1093e+01	16.4450	110.641742	0.000750	7.497384	2.540183	0.000300
 415	4.1193e+01	16.4947	110.936453	0.000740	7.396068	2.505856	0.000296
 416	4.1292e+01	16.5284	111.239238	0.000760	7.598700	2.574509	0.000304
 417	4.1392e+01	16.5605	111.509726	0.000679	6.788172	2.299895	0.000272
 418	4.1492e+01	16.6022	111.804437	0.000740	7.396068	2.505856	0.000296
 419	4.1591e+01	16.6519	112.082999	0.000699	6.990804	2.368549	0.000280
 420	4.1691e+01	16.6920	112.329265	0.000618	6.180276	2.093934	0.000248
 421	4.1790e+01	16.7354	112.587641	0.000648	6.484224	2.196915	0.000260
 422	4.1889e+01	16.7739	112.890427	0.000760	7.598700	2.574509	0.000304
 423	4.1989e+01	16.8124	113.136692	0.000618	6.180276	2.093934	0.000248
 424	4.2089e+01	16.8525	113.447551	0.000780	7.801332	2.643163	0.000312
 425	4.2188e+01	16.8846	113.742262	0.000740	7.396068	2.505856	0.000296
 426	4.2288e+01	16.9279	114.008713	0.000669	6.686856	2.265568	0.000268
 427	4.2387e+01	16.9712	114.323610	0.000790	7.902648	2.677490	0.000316
 428	4.2486e+01	17.0097	114.586024	0.000659	6.585540	2.231241	0.000264
 429	4.2586e+01	17.0450	114.864586	0.000699	6.990804	2.368549	0.000280
 430	4.2685e+01	17.0883	115.211780	0.000871	8.713176	2.952104	0.000349
 431	4.2785e+01	17.1300	115.522639	0.000780	7.801332	2.643163	0.000312
 432	4.2885e+01	17.1685	115.853684	0.000831	8.307912	2.814797	0.000333
 433	4.2984e+01	17.2070	116.136284	0.000709	7.092120	2.402875	0.000284
 434	4.3084e+01	17.2439	116.382549	0.000618	6.180276	2.093934	0.000248
 435	4.3183e+01	17.2808	116.685334	0.000760	7.598700	2.574509	0.000304
 436	4.3282e+01	17.3321	116.976008	0.000729	7.294752	2.471529	0.000292
 437	4.3382e+01	17.3674	117.266682	0.000729	7.294752	2.471529	0.000292
 438	4.3481e+01	17.4027	117.496799	0.000578	5.775012	1.956627	0.000231
 439	4.3581e+01	17.4557	117.751138	0.000638	6.382908	2.162588	0.000256
 440	4.3681e+01	17.4845	118.049886	0.000750	7.497384	2.540183	0.000300
 441	4.3780e+01	17.5278	118.336523	0.000719	7.193436	2.437202	0.000288
 442	4.3880e+01	17.5728	118.615085	0.000699	6.990804	2.368549	0.000280
 443	4.3979e+01	17.6016	118.897685	0.000709	7.092120	2.402875	0.000284
 444	4.4078e+01	17.6482	119.176247	0.000699	6.990804	2.368549	0.000280
 445	4.4178e+01	17.6802	119.491144	0.000790	7.902648	2.677490	0.000316
 446	4.4278e+01	17.7268	119.737409	0.000618	6.180276	2.093934	0.000248
 447	4.4377e+01	17.7637	120.048268	0.000780	7.801332	2.643163	0.000312
 448	4.4477e+01	17.8038	120.379313	0.000831	8.307912	2.814797	0.000333
 449	4.4576e+01	17.8407	120.682099	0.000760	7.598700	2.574509	0.000304
 450	4.4675e+01	17.8840	120.924327	0.000608	6.078960	2.059607	0.000243
 451	4.4775e+01	17.9289	121.235186	0.000780	7.801332	2.643163	0.000312
 452	4.4874e+01	17.9626	121.533934	0.000750	7.497384	2.540183	0.000300
 453	4.4974e+01	18.0011	121.800385	0.000669	6.686856	2.265568	0.000268
 454	4.5074e+01	18.0444	122.099133	0.000750	7.497384	2.540183	0.000300
 455	4.5173e+01	18.0845	122.345399	0.000618	6.180276	2.093934	0.000248
 456	4.5273e+01	18.1214	122.636072	0.000729	7.294752	2.471529	0.000292
 457	4.5372e+01	18.1647	122.890412	0.000638	6.382908	2.162588	0.000256
 458	4.5471e+01	18.1984	123.140714	0.000628	6.281592	2.128261	0.000252
 459	4.5571e+01	18.2385	123.407165	0.000669	6.686856	2.265568	0.000268
 460	4.5670e+01	18.2850	123.701876	0.000740	7.396068	2.505856	0.000296
 461	4.5770e+01	18.3268	123.992550	0.000729	7.294752	2.471529	0.000292
 462	4.5870e+01	18.3588	124.250927	0.000648	6.484224	2.196915	0.000260
 463	4.5969e+01	18.4054	124.541600	0.000729	7.294752	2.471529	0.000292
 464	4.6069e+01	18.4487	124.848423	0.000770	7.700016	2.608836	0.000308
 465	4.6168e+01	18.4824	125.126985	0.000699	6.990804	2.368549	0.000280
 466	4.6267e+01	18.5257	125.401510	0.000689	6.889488	2.334222	0.000276
 467	4.6367e+01	18.5594	125.712370	0.000780	7.801332	2.643163	0.000312
 468	4.6467e+01	18.5995	125.982858	0.000679	6.788172	2.299895	0.000272
 469	4.6566e+01	18.6412	126.273532	0.000729	7.294752	2.471529	0.000292
 470	4.6666e+01	18.6813	126.572280	0.000750	7.497384	2.540183	0.000300
 471	4.6765e+01	18.7230	126.871028	0.000750	7.497384	2.540183	0.000300
 472	4.6864e+01	18.7647	127.129404	0.000648	6.484224	2.196915	0.000260
 473	4.6964e+01	18.8016	127.424115	0.000740	7.396068	2.505856	0.000296
 474	4.7063e+01	18.8417	127.678455	0.000638	6.382908	2.162588	0.000256
 475	4.7163e+01	18.8850	127.940869	0.000659	6.585540	2.231241	0.000264
 476	4.7263e+01	18.9316	128.203282	0.000659	6.585540	2.231241	0.000264
 477	4.7362e+01	18.9717	128.453585	0.000628	6.281592	2.128261	0.000252
 478	4.7462e+01	18.9941	128.732147	0.000699	6.990804	2.368549	0.000280
 479	4.7561e+01	19.0422	129.010710	0.000699	6.990804	2.368549	0.000280
 480	4.7660e+01	19.0872	129.285235	0.000689	6.889488	2.334222	0.000276
 481	4.7760e+01	19.1209	129.575909	0.000729	7.294752	2.471529	0.000292
 482	4.7859e+01	19.1545	129.870620	0.000740	7.396068	2.505856	0.000296
 483	4.7959e+01	19.2011	130.124959	0.000638	6.382908	2.162588	0.000256
 484	4.8059e+01	19.2396	130.419670	0.000740	7.396068	2.505856	0.000296
 485	4.8158e+01	19.2797	130.730529	0.000780	7.801332	2.643163	0.000312
 486	4.8258e+01	19.3182	130.988906	0.000648	6.484224	2.196915	0.000260
 487	4.8357e+01	19.3663	131.311877	0.000811	8.105280	2.746143	0.000325
 488	4.8456e+01	19.4000	131.566217	0.000638	6.382908	2.162588	0.000256
 489	4.8556e+01	19.4337	131.836705	0.000679	6.788172	2.299895	0.000272
 490	4.8656e+01	19.4882	132.107193	0.000679	6.788172	2.299895	0.000272
 491	4.8755e+01	19.5139	132.361532	0.000638	6.382908	2.162588	0.000256
 492	4.8855e+01	19.5620	132.656243	0.000740	7.396068	2.505856	0.000296
 493	4.8954e+01	19.5957	132.934806	0.000699	6.990804	2.368549	0.000280
 494	4.9053e+01	19.6374	133.185108	0.000628	6.281592	2.128261	0.000252
 495	4.9153e+01	19.6887	133.439448	0.000638	6.382908	2.162588	0.000256
 496	4.9252e+01	19.7160	133.709936	0.000679	6.788172	2.299895	0.000272
 497	4.9352e+01	19.7577	133.968312	0.000648	6.484224	2.196915	0.000260
 498	4.9452e+01	19.7994	134.238800	0.000679	6.788172	2.299895	0.000272
 499	4.9551e+01	19.8331	134.517363	0.000699	6.990804	2.368549	0.000280
 500	4.9651e+01	19.8764	134.779777	0.000659	6.585540	2.231241	0.000264
 501	4.9750e+01	19.9198	135.066413	0.000719	7.193436	2.437202	0.000288
 502	4.9849e+01	19.9534	135.385347	0.000800	8.003964	2.711817	0.000321
 503	4.9949e+01	20.0032	135.684095	0.000750	7.497384	2.540183	0.000300
 504	5.0048e+01	19.9599	135.558944	0.000314	3.140796	1.064131	-0.000126
 505	5.0148e+01	19.9133	135.389384	0.000426	4.255272	1.441725	-0.000170
 506	5.0248e+01	19.8732	135.227899	0.000405	4.052640	1.373072	-0.000162
 507	5.0347e+01	19.8283	135.078525	0.000375	3.748692	1.270091	-0.000150
 508	5.0447e+01	19.7962	134.917039	0.000405	4.052640	1.373072	-0.000162
 509	5.0546e+01	19.7577	134.699034	0.000547	5.471064	1.853647	-0.000219
 510	5.0645e+01	19.7240	134.545623	0.000385	3.850008	1.304418	-0.000154
 511	5.0745e+01	19.6727	134.380100	0.000415	4.153956	1.407398	-0.000166
 512	5.0844e+01	19.6406	134.182281	0.000496	4.964484	1.682013	-0.000199
 513	5.0944e+01	19.6037	133.915830	0.000669	6.686856	2.265568	-0.000268
 514	5.1044e+01	19.5652	133.770493	0.000365	3.647376	1.235764	-0.000146
 515	5.1143e+01	19.5267	133.560562	0.000527	5.268432	1.784993	-0.000211
 516	5.1242e+01	19.4882	133.354668	0.000517	5.167116	1.750666	-0.000207
 517	5.1342e+01	19.4337	133.164922	0.000476	4.761852	1.613359	-0.000191
 518	5.1441e+01	19.3984	132.963066	0.000507	5.065800	1.716340	-0.000203
 519	5.1541e+01	19.3615	132.809654	0.000385	3.850008	1.304418	-0.000154
 520	5.1641e+01	19.3214	132.623946	0.000466	4.660536	1.579032	-0.000187
 521	5.1740e+01	19.2797	132.458424	0.000415	4.153956	1.407398	-0.000166
 522	5.1840e+01	19.2396	132.268678	0.000476	4.761852	1.613359	-0.000191
 523	5.1939e+01	19.2043	132.014339	0.000638	6.382908	2.162588	-0.000256
 524	5.2038e+01	19.1610	131.836705	0.000446	4.457904	1.510379	-0.000179
 525	5.2138e+01	19.1209	131.671182	0.000415	4.153956	1.407398	-0.000166
 526	5.2237e+01	19.0840	131.465288	0.000517	5.167116	1.750666	-0.000207
 527	5.2337e+01	19.0358	131.247283	0.000547	5.471064	1.853647	-0.000219
 528	5.2437e+01	19.0053	131.045426	0.000507	5.065800	1.716340	-0.000203
 529	5.2536e+01	18.9636	130.875866	0.000426	4.255272	1.441725	-0.000170
 530	5.2636e+01	18.9203	130.653824	0.000557	5.572380	1.887974	-0.000223
 531	5.2735e+01	18.8882	130.435819	0.000547	5.471064	1.853647	-0.000219
 532	5.2834e+01	18.8545	130.173405	0.000659	6.585540	2.231241	-0.000264
 533	5.2934e+01	18.7984	129.975585	0.000496	4.964484	1.682013	-0.000199
 534	5.3033e+01	18.7631	129.797951	0.000446	4.457904	1.510379	-0.000179
 535	5.3133e+01	18.7166	129.531500	0.000669	6.686856	2.265568	-0.000268
 536	5.3233e+01	18.6845	129.313495	0.000547	5.471064	1.853647	-0.000219
 537	5.3332e+01	18.6396	129.147972	0.000415	4.153956	1.407398	-0.000166
 538	5.3431e+01	18.6011	128.934004	0.000537	5.369748	1.819320	-0.000215
 539	5.3531e+01	18.5642	128.744259	0.000476	4.761852	1.613359	-0.000191
 540	5.3630e+01	18.5225	128.538365	0.000517	5.167116	1.750666	-0.000207
 541	5.3730e+01	18.4888	128.348619	0.000476	4.761852	1.613359	-0.000191
 542	5.3830e+01	18.4407	128.138688	0.000527	5.268432	1.784993	-0.000211
 543	5.3929e+01	18.4038	127.892423	0.000618	6.180276	2.093934	-0.000248
 544	5.4029e+01	18.3653	127.722863	0.000426	4.255272	1.441725	-0.000170
 545	5.4128e+01	18.3187	127.504858	0.000547	5.471064	1.853647	-0.000219
 546	5.4227e+01	18.2899	127.286853	0.000547	5.471064	1.853647	-0.000219
 547	5.4327e+01	18.2449	127.060773	0.000567	5.673696	1.922300	-0.000227
 548	5.4426e+01	18.1984	126.858916	0.000507	5.065800	1.716340	-0.000203
 549	5.4526e+01	18.1599	126.612651	0.000618	6.180276	2.093934	-0.000248
 550	5.4626e+01	18.1278	126.346200	0.000669	6.686856	2.265568	-0.000268
 551	5.4725e+01	18.0797	126.144343	0.000507	5.065800	1.716340	-0.000203
 552	5.4825e+01	18.0428	125.926338	0.000547	5.471064	1.853647	-0.000219
 553	5.4924e+01	18.0139	125.740630	0.000466	4.660536	1.579032	-0.000187
 554	5.5023e+01	17.9674	125.441882	0.000750	7.497384	2.540183	-0.000300
 555	5.5123e+01	17.9289	125.264248	0.000446	4.457904	1.510379	-0.000179
 556	5.5222e+01	17.8904	125.046242	0.000547	5.471064	1.853647	-0.000219
 557	5.5322e+01	17.8423	124.913017	0.000334	3.343428	1.132784	-0.000134
 558	5.5422e+01	17.8054	124.658677	0.000638	6.382908	2.162588	-0.000256
 559	5.5521e+01	17.7637	124.464895	0.000486	4.863168	1.647686	-0.000195
 560	5.5620e+01	17.7300	124.234778	0.000578	5.775012	1.956627	-0.000231
 561	5.5720e+01	17.6851	124.004661	0.000578	5.775012	1.956627	-0.000231
 562	5.5819e+01	17.6482	123.790693	0.000537	5.369748	1.819320	-0.000215
 563	5.5919e+01	17.6113	123.576725	0.000537	5.369748	1.819320	-0.000215
 564	5.6019e+01	17.5599	123.350645	0.000567	5.673696	1.922300	-0.000227
 565	5.6118e+01	17.5278	123.124566	0.000567	5.673696	1.922300	-0.000227
 566	5.6218e+01	17.4926	122.862152	0.000659	6.585540	2.231241	-0.000264
 567	5.6317e+01	17.4541	122.680481	0.000456	4.559220	1.544706	-0.000183
 568	5.6416e+01	17.4139	122.422104	0.000648	6.484224	2.196915	-0.000260
 569	5.6516e+01	17.3610	122.187950	0.000588	5.876328	1.990954	-0.000235
 570	5.6615e+01	17.3305	122.002242	0.000466	4.660536	1.579032	-0.000187
 571	5.6715e+01	17.2936	121.723680	0.000699	6.990804	2.368549	-0.000280
 572	5.6815e+01	17.2471	121.505674	0.000547	5.471064	1.853647	-0.000219
 573	5.6914e+01	17.2038	121.279595	0.000567	5.673696	1.922300	-0.000227
 574	5.7014e+01	17.1669	121.110035	0.000426	4.255272	1.441725	-0.000170
 575	5.7113e+01	17.1124	120.896067	0.000537	5.369748	1.819320	-0.000215
 576	5.7212e+01	17.0963	120.690173	0.000517	5.167116	1.750666	-0.000207
 577	5.7312e+01	17.0434	120.423722	0.000669	6.686856	2.265568	-0.000268
 578	5.7411e+01	17.0065	120.205717	0.000547	5.471064	1.853647	-0.000219
 579	5.7511e+01	16.9792	119.991748	0.000537	5.369748	1.819320	-0.000215
 580	5.7611e+01	16.9295	119.741446	0.000628	6.281592	2.128261	-0.000252
 581	5.7710e+01	16.8846	119.527478	0.000537	5.369748	1.819320	-0.000215
 582	5.7809e+01	16.8477	119.305435	0.000557	5.572380	1.887974	-0.000223
 583	5.7909e+01	16.8092	119.087430	0.000547	5.471064	1.853647	-0.000219
 584	5.8008e+01	16.7658	118.881536	0.000517	5.167116	1.750666	-0.000207
 585	5.8108e+01	16.7354	118.619122	0.000659	6.585540	2.231241	-0.000264
 586	5.8208e+01	16.6953	118.389006	0.000578	5.775012	1.956627	-0.000231
 587	5.8307e+01	16.6471	118.142740	0.000618	6.180276	2.093934	-0.000248
 588	5.8407e+01	16.6054	117.868215	0.000689	6.889488	2.334222	-0.000276
 589	5.8506e+01	16.5749	117.617913	0.000628	6.281592	2.128261	-0.000252
 590	5.8605e+01	16.5268	117.375684	0.000608	6.078960	2.059607	-0.000243
 591	5.8705e+01	16.4883	117.149605	0.000567	5.673696	1.922300	-0.000227
 592	5.8804e+01	16.4514	116.939674	0.000527	5.268432	1.784993	-0.000211
 593	5.8904e+01	16.4017	116.762040	0.000446	4.457904	1.510379	-0.000179
 594	5.9004e+01	16.3696	116.535960	0.000567	5.673696	1.922300	-0.000227
 595	5.9103e+01	16.3327	116.301806	0.000588	5.876328	1.990954	-0.000235
 596	5.9203e+01	16.2958	116.063615	0.000598	5.977644	2.025281	-0.000239
 597	5.9302e+01	16.2557	115.849647	0.000537	5.369748	1.819320	-0.000215
 598	5.9401e+01	16.2076	115.595308	0.000638	6.382908	2.162588	-0.000256
 599	5.9501e+01	16.1675	115.393451	0.000507	5.065800	1.716340	-0.000203
 600	5.9600e+01	16.1241	115.155260	0.000598	5.977644	2.025281	-0.000239
 601	5.9700e+01	16.0969	114.929180	0.000567	5.673696	1.922300	-0.000227
 602	5.9800e+01	16.0503	114.654655	0.000689	6.889488	2.334222	-0.000276
 603	5.9899e+01	16.0118	114.420501	0.000588	5.876328	1.990954	-0.000235
 604	5.9998e+01	15.9701	114.186347	0.000588	5.876328	1.990954	-0.000235
 605	6.0098e+01	15.9397	113.956230	0.000578	5.775012	1.956627	-0.000231
 606	6.0197e+01	15.8963	113.738225	0.000547	5.471064	1.853647	-0.000219
 607	6.0297e+01	15.8594	113.451589	0.000719	7.193436	2.437202	-0.000288
 608	6.0397e+01	15.8065	113.197249	0.000638	6.382908	2.162588	-0.000256
 609	6.0496e+01	15.7664	112.922724	0.000689	6.889488	2.334222	-0.000276
 610	6.0596e+01	15.7311	112.704718	0.000547	5.471064	1.853647	-0.000219
 611	6.0695e+01	15.6878	112.506899	0.000496	4.964484	1.682013	-0.000199
 612	6.0794e+01	15.6429	112.264671	0.000608	6.078960	2.059607	-0.000243
 613	6.0894e+01	15.6044	112.066851	0.000496	4.964484	1.682013	-0.000199
 614	6.0993e+01	15.5691	111.828660	0.000598	5.977644	2.025281	-0.000239
 615	6.1093e+01	15.5322	111.562209	0.000669	6.686856	2.265568	-0.000268
 616	6.1193e+01	15.5001	111.319981	0.000608	6.078960	2.059607	-0.000243
 617	6.1292e+01	15.4488	111.122161	0.000496	4.964484	1.682013	-0.000199
 618	6.1392e+01	15.4119	110.883970	0.000598	5.977644	2.025281	-0.000239
 619	6.1491e+01	15.3766	110.653853	0.000578	5.775012	1.956627	-0.000231
 620	6.1590e+01	15.3365	110.387402	0.000669	6.686856	2.265568	-0.000268
 621	6.1690e+01	15.2867	110.133063	0.000638	6.382908	2.162588	-0.000256
 622	6.1789e+01	15.2482	109.902946	0.000578	5.775012	1.956627	-0.000231
 623	6.1889e+01	15.2161	109.660718	0.000608	6.078960	2.059607	-0.000243
 624	6.1989e+01	15.1825	109.370044	0.000729	7.294752	2.471529	-0.000292
 625	6.2088e+01	15.1456	109.107630	0.000659	6.585540	2.231241	-0.000264
 626	6.2188e+01	15.0942	108.861365	0.000618	6.180276	2.093934	-0.000248
 627	6.2287e+01	15.0557	108.623174	0.000598	5.977644	2.025281	-0.000239
 628	6.2386e+01	15.0124	108.364797	0.000648	6.484224	2.196915	-0.000260
 629	6.2486e+01	14.9739	108.130644	0.000588	5.876328	1.990954	-0.000235
 630	6.2586e+01	14.9402	107.932824	0.000496	4.964484	1.682013	-0.000199
 631	6.2685e+01	14.8985	107.698670	0.000588	5.876328	1.990954	-0.000235
 632	6.2785e+01	14.8552	107.452405	0.000618	6.180276	2.093934	-0.000248
 633	6.2884e+01	14.8135	107.214214	0.000598	5.977644	2.025281	-0.000239
 634	6.2983e+01	14.7846	106.984097	0.000578	5.775012	1.956627	-0.000231
 635	6.3083e+01	14.7349	106.725720	0.000648	6.484224	2.196915	-0.000260
 636	6.3182e+01	14.7060	106.491566	0.000588	5.876328	1.990954	-0.000235
 637	6.3282e+01	14.6595	106.249338	0.000608	6.078960	2.059607	-0.000243
 638	6.3382e+01	14.6097	105.970776	0.000699	6.990804	2.368549	-0.000280
 639	6.3481e+01	14.5825	105.708362	0.000659	6.585540	2.231241	-0.000264
 640	6.3581e+01	14.5295	105.490357	0.000547	5.471064	1.853647	-0.000219
 641	6.3680e+01	14.4958	105.227943	0.000659	6.585540	2.231241	-0.000264
 642	6.3779e+01	14.4718	104.961492	0.000669	6.686856	2.265568	-0.000268
 643	6.3879e+01	14.4188	104.703115	0.000648	6.484224	2.196915	-0.000260
 644	6.3978e+01	14.3755	104.440702	0.000659	6.585540	2.231241	-0.000264
 645	6.4078e+01	14.3402	104.170213	0.000679	6.788172	2.299895	-0.000272
 646	6.4177e+01	14.2889	103.944134	0.000567	5.673696	1.922300	-0.000227
 647	6.4277e+01	14.2648	103.714017	0.000578	5.775012	1.956627	-0.000231
 648	6.4376e+01	14.2263	103.467752	0.000618	6.180276	2.093934	-0.000248
 649	6.4476e+01	14.1846	103.225524	0.000608	6.078960	2.059607	-0.000243
 650	6.4576e+01	14.1397	102.967147	0.000648	6.484224	2.196915	-0.000260
 651	6.4675e+01	14.0964	102.720882	0.000618	6.180276	2.093934	-0.000248
 652	6.4775e+01	14.0563	102.478654	0.000608	6.078960	2.059607	-0.000243
 653	6.4874e+01	14.0146	102.175868	0.000760	7.598700	2.574509	-0.000304
 654	6.4974e+01	13.9809	101.957863	0.000547	5.471064	1.853647	-0.000219
 655	6.5073e+01	13.9392	101.715635	0.000608	6.078960	2.059607	-0.000243
 656	6.5172e+01	13.8959	101.437073	0.000699	6.990804	2.368549	-0.000280
 657	6.5272e+01	13.8590	101.219067	0.000547	5.471064	1.853647	-0.000219
 658	6.5371e+01	13.8140	100.960691	0.000648	6.484224	2.196915	-0.000260
 659	6.5471e+01	13.7868	100.694240	0.000669	6.686856	2.265568	-0.000268
 660	6.5570e+01	13.7322	100.427789	0.000669	6.686856	2.265568	-0.000268
 661	6.5670e+01	13.7034	100.161338	0.000669	6.686856	2.265568	-0.000268
 662	6.5769e+01	13.6633	99.878738	0.000709	7.092120	2.402875	-0.000284
 663	6.5869e+01	13.6199	99.628436	0.000628	6.281592	2.128261	-0.000252
 664	6.5969e+01	13.5830	99.337762	0.000729	7.294752	2.471529	-0.000292
 665	6.6068e+01	13.5494	99.139942	0.000496	4.964484	1.682013	-0.000199
 666	6.6168e+01	13.5092	98.901751	0.000598	5.977644	2.025281	-0.000239
 667	6.6267e+01	13.4723	98.651449	0.000628	6.281592	2.128261	-0.000252
 668	6.6367e+01	13.4242	98.413258	0.000598	5.977644	2.025281	-0.000239
 669	6.6466e+01	13.3857	98.162955	0.000628	6.281592	2.128261	-0.000252
 670	6.6566e+01	13.3472	97.884393	0.000699	6.990804	2.368549	-0.000280
 671	6.6665e+01	13.3055	97.613905	0.000679	6.788172	2.299895	-0.000272
 672	6.6764e+01	13.2622	97.403974	0.000527	5.268432	1.784993	-0.000211
 673	6.6864e+01	13.2237	97.145597	0.000648	6.484224	2.196915	-0.000260
 674	6.6963e+01	13.1804	96.883183	0.000659	6.585540	2.231241	-0.000264
 675	6.7063e+01	13.1419	96.584435	0.000750	7.497384	2.540183	-0.000300
 676	6.7162e+01	13.1082	96.382579	0.000507	5.065800	1.716340	-0.000203
 677	6.7262e+01	13.0633	96.087868	0.000740	7.396068	2.505856	-0.000296
 678	6.7362e+01	13.0264	95.837565	0.000628	6.281592	2.128261	-0.000252
 679	6.7461e+01	12.9863	95.595337	0.000608	6.078960	2.059607	-0.000243
 680	6.7561e+01	12.9494	95.332923	0.000659	6.585540	2.231241	-0.000264
 681	6.7660e+01	12.9061	95.034175	0.000750	7.497384	2.540183	-0.000300
 682	6.7760e+01	12.8724	94.767724	0.000669	6.686856	2.265568	-0.000268
 683	6.7859e+01	12.8339	94.493199	0.000689	6.889488	2.334222	-0.000276
 684	6.7959e+01	12.7905	94.299417	0.000486	4.863168	1.647686	-0.000195
 685	6.8058e+01	12.7440	94.045077	0.000638	6.382908	2.162588	-0.000256
 686	6.8157e+01	12.7007	93.774589	0.000679	6.788172	2.299895	-0.000272
 687	6.8257e+01	12.6702	93.520249	0.000638	6.382908	2.162588	-0.000256
 688	6.8356e+01	12.6285	93.273984	0.000618	6.180276	2.093934	-0.000248
 689	6.8456e+01	12.5836	93.011570	0.000659	6.585540	2.231241	-0.000264
 690	6.8555e+01	12.5515	92.753194	0.000648	6.484224	2.196915	-0.000260
 691	6.8655e+01	12.5098	92.486743	0.000669	6.686856	2.265568	-0.000268
 692	6.8754e+01	12.4729	92.252589	0.000588	5.876328	1.990954	-0.000235
 693	6.8854e+01	12.4360	91.978064	0.000689	6.889488	2.334222	-0.000276
 694	6.8954e+01	12.3991	91.699501	0.000699	6.990804	2.368549	-0.000280
 695	6.9053e+01	12.3510	91.453236	0.000618	6.180276	2.093934	-0.000248
 696	6.9153e+01	12.3093	91.186785	0.000669	6.686856	2.265568	-0.000268
 697	6.9252e+01	12.2692	90.932445	0.000638	6.382908	2.162588	-0.000256
 698	6.9352e+01	12.2243	90.678106	0.000638	6.382908	2.162588	-0.000256
 699	6.9451e+01	12.1858	90.367246	0.000780	7.801332	2.643163	-0.000312
 700	6.9550e+01	12.1537	90.064461	0.000760	7.598700	2.574509	-0.000304
 701	6.9650e+01	12.1039	89.781862	0.000709	7.092120	2.402875	-0.000284
 702	6.9749e+01	12.0783	89.543671	0.000598	5.977644	2.025281	-0.000239
 703	6.9849e+01	12.0334	89.345851	0.000496	4.964484	1.682013	-0.000199
 704	6.9948e+01	11.9932	89.083437	0.000659	6.585540	2.231241	-0.000264
 705	7.0048e+01	11.9419	88.845246	0.000598	5.977644	2.025281	-0.000239
 706	7.0147e+01	11.9098	88.566684	0.000699	6.990804	2.368549	-0.000280
 707	7.0247e+01	11.8681	88.320419	0.000618	6.180276	2.093934	-0.000248
 708	7.0347e+01	11.8312	88.037819	0.000709	7.092120	2.402875	-0.000284
 709	7.0446e+01	11.7959	87.827888	0.000527	5.268432	1.784993	-0.000211
 710	7.0546e+01	11.7446	87.533177	0.000740	7.396068	2.505856	-0.000296
 711	7.0645e+01	11.7125	87.270763	0.000659	6.585540	2.231241	-0.000264
 712	7.0745e+01	11.6756	86.988164	0.000709	7.092120	2.402875	-0.000284
 713	7.0844e+01	11.6339	86.745936	0.000608	6.078960	2.059607	-0.000243
 714	7.0944e+01	11.5858	86.447188	0.000750	7.497384	2.540183	-0.000300
 715	7.1043e+01	11.5537	86.217071	0.000578	5.775012	1.956627	-0.000231
 716	7.1142e+01	11.5088	85.970806	0.000618	6.180276	2.093934	-0.000248
 717	7.1242e+01	11.4751	85.740689	0.000578	5.775012	1.956627	-0.000231
 718	7.1341e+01	11.4286	85.381384	0.000902	9.017124	3.055084	-0.000361
 719	7.1441e+01	11.3884	85.110896	0.000679	6.788172	2.299895	-0.000272
 720	7.1540e+01	11.3499	84.844445	0.000669	6.686856	2.265568	-0.000268
 721	7.1640e+01	11.3211	84.630476	0.000537	5.369748	1.819320	-0.000215
 722	7.1740e+01	11.2633	84.355951	0.000689	6.889488	2.334222	-0.000276
 723	7.1839e+01	11.2360	84.077389	0.000699	6.990804	2.368549	-0.000280
 724	7.1939e+01	11.2008	83.851309	0.000567	5.673696	1.922300	-0.000227
 725	7.2038e+01	11.1494	83.572747	0.000699	6.990804	2.368549	-0.000280
 726	7.2138e+01	11.1157	83.306296	0.000669	6.686856	2.265568	-0.000268
 727	7.2237e+01	11.0708	83.060031	0.000618	6.180276	2.093934	-0.000248
 728	7.2337e+01	11.0323	82.773394	0.000719	7.193436	2.437202	-0.000288
 729	7.2436e+01	11.0018	82.482720	0.000729	7.294752	2.471529	-0.000292
 730	7.2535e+01	10.9505	82.276826	0.000517	5.167116	1.750666	-0.000207
 731	7.2635e+01	10.9120	81.990190	0.000719	7.193436	2.437202	-0.000288
 732	7.2734e+01	10.8671	81.760073	0.000578	5.775012	1.956627	-0.000231
 733	7.2834e+01	10.8382	81.461325	0.000750	7.497384	2.540183	-0.000300
 734	7.2933e+01	10.7981	81.194874	0.000669	6.686856	2.265568	-0.000268
 735	7.3033e+01	10.7484	80.871903	0.000811	8.105280	2.746143	-0.000325
 736	7.3132e+01	10.7259	80.637749	0.000588	5.876328	1.990954	-0.000235
 737	7.3232e+01	10.6698	80.383410	0.000638	6.382908	2.162588	-0.000256
 738	7.3332e+01	10.6393	80.076587	0.000770	7.700016	2.608836	-0.000308
 739	7.3431e+01	10.5992	79.826285	0.000628	6.281592	2.128261	-0.000252
 740	7.3531e+01	10.5591	79.612317	0.000537	5.369748	1.819320	-0.000215
 741	7.3630e+01	10.5190	79.337792	0.000689	6.889488	2.334222	-0.000276
 742	7.3730e+01	10.4821	79.115749	0.000557	5.572380	1.887974	-0.000223
 743	7.3829e+01	10.4371	78.776630	0.000851	8.510544	2.883450	-0.000341
 744	7.3928e+01	10.3938	78.522290	0.000638	6.382908	2.162588	-0.000256
 745	7.4028e+01	10.3473	78.288136	0.000588	5.876328	1.990954	-0.000235
 746	7.4127e+01	10.3136	78.005537	0.000709	7.092120	2.402875	-0.000284
 747	7.4227e+01	10.2703	77.747160	0.000648	6.484224	2.196915	-0.000260
 748	7.4326e+01	10.2398	77.456486	0.000729	7.294752	2.471529	-0.000292
 749	7.4426e+01	10.1997	77.206184	0.000628	6.281592	2.128261	-0.000252
 750	7.4525e+01	10.1516	76.967993	0.000598	5.977644	2.025281	-0.000239
 751	7.4625e+01	10.1259	76.701542	0.000669	6.686856	2.265568	-0.000268
 752	7.4725e+01	10.0698	76.358385	0.000861	8.611860	2.917777	-0.000345
 753	7.4824e+01	10.0393	76.116157	0.000608	6.078960	2.059607	-0.000243
 754	7.4924e+01	9.9992	75.849706	0.000669	6.686856	2.265568	-0.000268
 755	7.5023e+01	9.9703	75.575181	0.000689	6.889488	2.334222	-0.000276
 756	7.5123e+01	9.9190	75.268359	0.000770	7.700016	2.608836	-0.000308
 757	7.5222e+01	9.8757	75.018056	0.000628	6.281592	2.128261	-0.000252
 758	7.5322e+01	9.8420	74.763717	0.000638	6.382908	2.162588	-0.000256
 759	7.5421e+01	9.7970	74.473043	0.000729	7.294752	2.471529	-0.000292
 760	7.5520e+01	9.7537	74.226778	0.000618	6.180276	2.093934	-0.000248
 761	7.5620e+01	9.7168	73.956290	0.000679	6.788172	2.299895	-0.000272
 762	7.5719e+01	9.6783	73.681764	0.000689	6.889488	2.334222	-0.000276
 763	7.5819e+01	9.6446	73.447610	0.000588	5.876328	1.990954	-0.000235
 764	7.5918e+01	9.5949	73.165011	0.000709	7.092120	2.402875	-0.000284
 765	7.6018e+01	9.5612	72.886449	0.000699	6.990804	2.368549	-0.000280
 766	7.6118e+01	9.5227	72.599812	0.000719	7.193436	2.437202	-0.000288
 767	7.6217e+01	9.4858	72.333361	0.000669	6.686856	2.265568	-0.000268
 768	7.6317e+01	9.4409	72.083059	0.000628	6.281592	2.128261	-0.000252
 769	7.6416e+01	9.3896	71.784311	0.000750	7.497384	2.540183	-0.000300
 770	7.6516e+01	9.3607	71.509785	0.000689	6.889488	2.334222	-0.000276
 771	7.6615e+01	9.3206	71.271594	0.000598	5.977644	2.025281	-0.000239
 772	7.6715e+01	9.2869	70.993032	0.000699	6.990804	2.368549	-0.000280
 773	7.6814e+01	9.2404	70.702358	0.000729	7.294752	2.471529	-0.000292
 774	7.6913e+01	9.2051	70.443981	0.000648	6.484224	2.196915	-0.000260
 775	7.7013e+01	9.1602	70.100825	0.000861	8.611860	2.917777	-0.000345
 776	7.7112e+01	9.1281	69.907042	0.000486	4.863168	1.647686	-0.000195
 777	7.7212e+01	9.0864	69.588109	0.000800	8.003964	2.711817	-0.000321
 778	7.7311e+01	9.0415	69.362029	0.000567	5.673696	1.922300	-0.000227
 779	7.7411e+01	9.0014	69.030984	0.000831	8.307912	2.814797	-0.000333
 780	7.7510e+01	8.9612	68.812979	0.000547	5.471064	1.853647	-0.000219
 781	7.7610e+01	8.9211	68.485971	0.000821	8.206596	2.780470	-0.000329
 782	7.7710e+01	8.8842	68.219520	0.000669	6.686856	2.265568	-0.000268
 783	7.7809e+01	8.8425	67.949032	0.000679	6.788172	2.299895	-0.000272
 784	7.7909e+01	8.8088	67.718915	0.000578	5.775012	1.956627	-0.000231
 785	7.8008e+01	8.7655	67.420167	0.000750	7.497384	2.540183	-0.000300
 786	7.8108e+01	8.7174	67.141604	0.000699	6.990804	2.368549	-0.000280
 787	7.8207e+01	8.6773	66.846894	0.000740	7.396068	2.505856	-0.000296
 788	7.8306e+01	8.6484	66.568331	0.000699	6.990804	2.368549	-0.000280
 789	7.8406e+01	8.6003	66.269583	0.000750	7.497384	2.540183	-0.000300
 790	7.8505e+01	8.5666	66.027355	0.000608	6.078960	2.059607	-0.000243
 791	7.8605e+01	8.5185	65.712458	0.000790	7.902648	2.677490	-0.000316
 792	7.8704e+01	8.4896	65.446007	0.000669	6.686856	2.265568	-0.000268
 793	7.8804e+01	8.4447	65.127074	0.000800	8.003964	2.711817	-0.000321
 794	7.8903e+01	8.4062	64.888883	0.000598	5.977644	2.025281	-0.000239
 795	7.9003e+01	8.3661	64.610320	0.000699	6.990804	2.368549	-0.000280
 796	7.9103e+01	8.3228	64.311572	0.000750	7.497384	2.540183	-0.000300
 797	7.9202e+01	8.2794	64.033010	0.000699	6.990804	2.368549	-0.000280
 798	7.9302e+01	8.2361	63.766559	0.000669	6.686856	2.265568	-0.000268
 799	7.9401e+01	8.2073	63.492034	0.000689	6.889488	2.334222	-0.000276
 800	7.9501e+01	8.1607	63.217509	0.000689	6.889488	2.334222	-0.000276
 801	7.9600e+01	8.1319	62.926835	0.000729	7.294752	2.471529	-0.000292
 802	7.9700e+01	8.0773	62.656347	0.000679	6.788172	2.299895	-0.000272
 803	7.9799e+01	8.0452	62.402007	0.000638	6.382908	2.162588	-0.000256
 804	7.9898e+01	8.0035	62.066925	0.000841	8.409228	2.849124	-0.000337
 805	7.9998e+01	7.9730	61.812585	0.000638	6.382908	2.162588	-0.000256
 806	8.0097e+01	7.9233	61.550171	0.000659	6.585540	2.231241	-0.000264
 807	8.0197e+01	7.8864	61.271609	0.000699	6.990804	2.368549	-0.000280
 808	8.0296e+01	7.8383	60.993047	0.000699	6.990804	2.368549	-0.000280
 809	8.0396e+01	7.7982	60.694299	0.000750	7.497384	2.540183	-0.000300
 810	8.0496e+01	7.7645	60.395551	0.000750	7.497384	2.540183	-0.000300
 811	8.0595e+01	7.7260	60.064506	0.000831	8.307912	2.814797	-0.000333
 812	8.0695e+01	7.6827	59.765757	0.000750	7.497384	2.540183	-0.000300
 813	8.0794e+01	7.6506	59.535641	0.000578	5.775012	1.956627	-0.000231
 814	8.0894e+01	7.6137	59.265153	0.000679	6.788172	2.299895	-0.000272
 815	8.0993e+01	7.5736	58.970442	0.000740	7.396068	2.505856	-0.000296
 816	8.1093e+01	7.5303	58.675731	0.000740	7.396068	2.505856	-0.000296
 817	8.1192e+01	7.4934	58.405243	0.000679	6.788172	2.299895	-0.000272
 818	8.1291e+01	7.4436	58.146866	0.000648	6.484224	2.196915	-0.000260
 819	8.1391e+01	7.4051	57.872341	0.000689	6.889488	2.334222	-0.000276
 820	8.1490e+01	7.3698	57.573593	0.000750	7.497384	2.540183	-0.000300
 821	8.1590e+01	7.3233	57.307142	0.000669	6.686856	2.265568	-0.000268
 822	8.1689e+01	7.2912	57.016468	0.000729	7.294752	2.471529	-0.000292
 823	8.1789e+01	7.2479	56.657163	0.000902	9.017124	3.055084	-0.000361
 824	8.1888e+01	7.2062	56.390712	0.000669	6.686856	2.265568	-0.000268
 825	8.1988e+01	7.1629	56.108112	0.000709	7.092120	2.402875	-0.000284
 826	8.2088e+01	7.1292	55.817439	0.000729	7.294752	2.471529	-0.000292
 827	8.2187e+01	7.0763	55.526765	0.000729	7.294752	2.471529	-0.000292
 828	8.2287e+01	7.0538	55.248203	0.000699	6.990804	2.368549	-0.000280
 829	8.2386e+01	7.0073	54.949455	0.000750	7.497384	2.540183	-0.000300
 830	8.2486e+01	6.9688	54.666855	0.000709	7.092120	2.402875	-0.000284
 831	8.2585e+01	6.9319	54.315624	0.000881	8.814492	2.986431	-0.000353
 832	8.2684e+01	6.8934	54.033025	0.000709	7.092120	2.402875	-0.000284
 833	8.2784e+01	6.8421	53.794834	0.000598	5.977644	2.025281	-0.000239
 834	8.2883e+01	6.8164	53.560680	0.000588	5.876328	1.990954	-0.000235
 835	8.2983e+01	6.7763	53.290192	0.000679	6.788172	2.299895	-0.000272
 836	8.3082e+01	6.7330	52.983369	0.000770	7.700016	2.608836	-0.000308
 837	8.3182e+01	6.6848	52.696733	0.000719	7.193436	2.437202	-0.000288
 838	8.3281e+01	6.6495	52.381836	0.000790	7.902648	2.677490	-0.000316
 839	8.3381e+01	6.6030	52.075014	0.000770	7.700016	2.608836	-0.000308
 840	8.3481e+01	6.5677	51.848934	0.000567	5.673696	1.922300	-0.000227
 841	8.3580e+01	6.5308	51.521926	0.000821	8.206596	2.780470	-0.000329
 842	8.3680e+01	6.4843	51.259512	0.000659	6.585540	2.231241	-0.000264
 843	8.3779e+01	6.4490	50.976913	0.000709	7.092120	2.402875	-0.000284
 844	8.3879e+01	6.4153	50.641831	0.000841	8.409228	2.849124	-0.000337
 845	8.3978e+01	6.3752	50.367305	0.000689	6.889488	2.334222	-0.000276
 846	8.4078e+01	6.3383	50.092780	0.000689	6.889488	2.334222	-0.000276
 847	8.4177e+01	6.2918	49.822292	0.000679	6.788172	2.299895	-0.000272
 848	8.4276e+01	6.2517	49.471061	0.000881	8.814492	2.986431	-0.000353
 849	8.4376e+01	6.2148	49.200573	0.000679	6.788172	2.299895	-0.000272
 850	8.4475e+01	6.1747	48.873565	0.000821	8.206596	2.780470	-0.000329
 851	8.4575e+01	6.1346	48.635374	0.000598	5.977644	2.025281	-0.000239
 852	8.4674e+01	6.0945	48.356812	0.000699	6.990804	2.368549	-0.000280
 853	8.4774e+01	6.0640	48.066138	0.000729	7.294752	2.471529	-0.000292
 854	8.4874e+01	6.0095	47.787576	0.000699	6.990804	2.368549	-0.000280
 855	8.4973e+01	5.9790	47.472679	0.000790	7.902648	2.677490	-0.000316
 856	8.5073e+01	5.9357	47.177968	0.000740	7.396068	2.505856	-0.000296
 857	8.5172e+01	5.8988	46.875183	0.000760	7.598700	2.574509	-0.000304
 858	8.5272e+01	5.8587	46.632955	0.000608	6.078960	2.059607	-0.000243
 859	8.5371e+01	5.8073	46.301910	0.000831	8.307912	2.814797	-0.000333
 860	8.5471e+01	5.7752	46.035459	0.000669	6.686856	2.265568	-0.000268
 861	8.5570e+01	5.7335	45.760934	0.000689	6.889488	2.334222	-0.000276
 862	8.5669e+01	5.6838	45.486408	0.000689	6.889488	2.334222	-0.000276
 863	8.5769e+01	5.6517	45.143252	0.000861	8.611860	2.917777	-0.000345
 864	8.5868e+01	5.6116	44.856615	0.000719	7.193436	2.437202	-0.000288
 865	8.5968e+01	5.5731	44.569979	0.000719	7.193436	2.437202	-0.000288
 866	8.6067e+01	5.5298	44.247008	0.000811	8.105280	2.746143	-0.000325
 867	8.6167e+01	5.5009	43.924037	0.000811	8.105280	2.746143	-0.000325
 868	8.6266e+01	5.4528	43.673734	0.000628	6.281592	2.128261	-0.000252
 869	8.6366e+01	5.4159	43.395172	0.000699	6.990804	2.368549	-0.000280
 870	8.6466e+01	5.3758	43.136795	0.000648	6.484224	2.196915	-0.000260
 871	8.6565e+01	5.3357	42.789602	0.000871	8.713176	2.952104	-0.000349
 872	8.6665e+01	5.3004	42.511039	0.000699	6.990804	2.368549	-0.000280
 873	8.6764e+01	5.2635	42.272848	0.000598	5.977644	2.025281	-0.000239
 874	8.6864e+01	5.2122	41.925655	0.000871	8.713176	2.952104	-0.000349
 875	8.6963e+01	5.1817	41.647092	0.000699	6.990804	2.368549	-0.000280
 876	8.7063e+01	5.1384	41.380641	0.000669	6.686856	2.265568	-0.000268
 877	8.7162e+01	5.0870	41.077856	0.000760	7.598700	2.574509	-0.000304
 878	8.7261e+01	5.0598	40.819479	0.000648	6.484224	2.196915	-0.000260
 879	8.7361e+01	5.0116	40.484397	0.000841	8.409228	2.849124	-0.000337
 880	8.7460e+01	4.9747	40.238132	0.000618	6.180276	2.093934	-0.000248
 881	8.7560e+01	4.9410	39.947458	0.000729	7.294752	2.471529	-0.000292
 882	8.7659e+01	4.8961	39.620450	0.000821	8.206596	2.780470	-0.000329
 883	8.7759e+01	4.8656	39.345925	0.000689	6.889488	2.334222	-0.000276
 884	8.7859e+01	4.8255	39.083511	0.000659	6.585540	2.231241	-0.000264
 885	8.7958e+01	4.7790	38.720169	0.000912	9.118440	3.089411	-0.000365
 886	8.8058e+01	4.7357	38.421421	0.000750	7.497384	2.540183	-0.000300
 887	8.8157e+01	4.7020	38.179193	0.000608	6.078960	2.059607	-0.000243
 888	8.8257e+01	4.6635	37.876407	0.000760	7.598700	2.574509	-0.000304
 889	8.8356e+01	4.6202	37.561511	0.000790	7.902648	2.677490	-0.000316
 890	8.8456e+01	4.5801	37.246614	0.000790	7.902648	2.677490	-0.000316
 891	8.8555e+01	4.5464	36.992275	0.000638	6.382908	2.162588	-0.000256
 892	8.8654e+01	4.4935	36.758121	0.000588	5.876328	1.990954	-0.000235
 893	8.8754e+01	4.4614	36.382667	0.000942	9.422388	3.192392	-0.000377
 894	8.8853e+01	4.4165	36.132365	0.000628	6.281592	2.128261	-0.000252
 895	8.8953e+01	4.3763	35.829580	0.000760	7.598700	2.574509	-0.000304
 896	8.9052e+01	4.3475	35.514683	0.000790	7.902648	2.677490	-0.000316
 897	8.9152e+01	4.2961	35.236121	0.000699	6.990804	2.368549	-0.000280
 898	8.9251e+01	4.2641	34.929298	0.000770	7.700016	2.608836	-0.000308
 899	8.9351e+01	4.2111	34.658810	0.000679	6.788172	2.299895	-0.000272
 900	8.9451e+01	4.1838	34.347951	0.000780	7.801332	2.643163	-0.000312
 901	8.9550e+01	4.1357	34.049203	0.000750	7.497384	2.540183	-0.000300
 902	8.9650e+01	4.0956	33.758529	0.000729	7.294752	2.471529	-0.000292
 903	8.9749e+01	4.0683	33.484004	0.000689	6.889488	2.334222	-0.000276
 904	8.9849e+01	4.0218	33.197367	0.000719	7.193436	2.437202	-0.000288
 905	8.9948e+01	3.9913	32.906693	0.000729	7.294752	2.471529	-0.000292
 906	9.0047e+01	3.9352	32.611982	0.000740	7.396068	2.505856	-0.000296
 907	9.0147e+01	3.8935	32.349569	0.000659	6.585540	2.231241	-0.000264
 908	9.0246e+01	3.8630	32.010449	0.000851	8.510544	2.883450	-0.000341
 909	9.0346e+01	3.8277	31.723813	0.000719	7.193436	2.437202	-0.000288
 910	9.0445e+01	3.7828	31.421027	0.000760	7.598700	2.574509	-0.000304
 911	9.0545e+01	3.7411	31.114205	0.000770	7.700016	2.608836	-0.000308
 912	9.0644e+01	3.7042	30.863903	0.000628	6.281592	2.128261	-0.000252
 913	9.0744e+01	3.6673	30.553043	0.000780	7.801332	2.643163	-0.000312
 914	9.0844e+01	3.6224	30.217961	0.000841	8.409228	2.849124	-0.000337
 915	9.0943e+01	3.5758	29.971696	0.000618	6.180276	2.093934	-0.000248
 916	9.1043e+01	3.5421	29.685059	0.000719	7.193436	2.437202	-0.000288
 917	9.1142e+01	3.5004	29.386311	0.000750	7.497384	2.540183	-0.000300
 918	9.1242e+01	3.4619	29.115823	0.000679	6.788172	2.299895	-0.000272
 919	9.1341e+01	3.4282	28.788815	0.000821	8.206596	2.780470	-0.000329
 920	9.1441e+01	3.3817	28.530438	0.000648	6.484224	2.196915	-0.000260
 921	9.1540e+01	3.3464	28.243802	0.000719	7.193436	2.437202	-0.000288
 922	9.1639e+01	3.3047	27.957165	0.000719	7.193436	2.437202	-0.000288
 923	9.1739e+01	3.2694	27.614008	0.000861	8.611860	2.917777	-0.000345
 924	9.1838e+01	3.2229	27.299112	0.000790	7.902648	2.677490	-0.000316
 925	9.1938e+01	3.1796	27.008438	0.000729	7.294752	2.471529	-0.000292
 926	9.2037e+01	3.1475	26.681430	0.000821	8.206596	2.780470	-0.000329
 927	9.2137e+01	3.1010	26.402868	0.000699	6.990804	2.368549	-0.000280
 928	9.2237e+01	3.0721	26.132380	0.000679	6.788172	2.299895	-0.000272
 929	9.2336e+01	3.0304	25.821520	0.000780	7.801332	2.643163	-0.000312
 930	9.2436e+01	2.9839	25.546995	0.000689	6.889488	2.334222	-0.000276
 931	9.2535e+01	2.9486	25.187690	0.000902	9.017124	3.055084	-0.000361
 932	9.2635e+01	2.9069	24.953536	0.000588	5.876328	1.990954	-0.000235
 933	9.2734e+01	2.8620	24.642677	0.000780	7.801332	2.643163	-0.000312
 934	9.2834e+01	2.8299	24.352003	0.000729	7.294752	2.471529	-0.000292
 935	9.2933e+01	2.7882	24.049218	0.000760	7.598700	2.574509	-0.000304
 936	9.3032e+01	2.7464	23.782767	0.000669	6.686856	2.265568	-0.000268
 937	9.3132e+01	2.6967	23.471907	0.000780	7.801332	2.643163	-0.000312
 938	9.3231e+01	2.6694	23.181233	0.000729	7.294752	2.471529	-0.000292
 939	9.3331e+01	2.6342	22.874411	0.000770	7.700016	2.608836	-0.000308
 940	9.3430e+01	2.5989	22.620072	0.000638	6.382908	2.162588	-0.000256
 941	9.3530e+01	2.5475	22.272878	0.000871	8.713176	2.952104	-0.000349
 942	9.3629e+01	2.5074	21.970093	0.000760	7.598700	2.574509	-0.000304
 943	9.3729e+01	2.4673	21.659233	0.000780	7.801332	2.643163	-0.000312
 944	9.3829e+01	2.4400	21.392782	0.000669	6.686856	2.265568	-0.000268
 945	9.3928e+01	2.3839	21.065774	0.000821	8.206596	2.780470	-0.000329
 946	9.4028e+01	2.3470	20.779138	0.000719	7.193436	2.437202	-0.000288
 947	9.4127e+01	2.3085	20.472315	0.000770	7.700016	2.608836	-0.000308
 948	9.4227e+01	2.2780	20.205864	0.000669	6.686856	2.265568	-0.000268
 949	9.4326e+01	2.2299	19.890968	0.000790	7.902648	2.677490	-0.000316
 950	9.4425e+01	2.1834	19.559923	0.000831	8.307912	2.814797	-0.000333
 951	9.4525e+01	2.1497	19.313657	0.000618	6.180276	2.093934	-0.000248
 952	9.4624e+01	2.1064	18.986649	0.000821	8.206596	2.780470	-0.000329
 953	9.4724e+01	2.0614	18.728273	0.000648	6.484224	2.196915	-0.000260
 954	9.4823e+01	2.0310	18.368968	0.000902	9.017124	3.055084	-0.000361
 955	9.4923e+01	1.9844	18.102517	0.000669	6.686856	2.265568	-0.000268
 956	9.5022e+01	1.9379	17.795694	0.000770	7.700016	2.608836	-0.000308
 957	9.5122e+01	1.9187	17.533281	0.000659	6.585540	2.231241	-0.000264
 958	9.5222e+01	1.8737	17.214347	0.000800	8.003964	2.711817	-0.000321
 959	9.5321e+01	1.8320	16.887339	0.000821	8.206596	2.780470	-0.000329
 960	9.5421e+01	1.7935	16.548219	0.000851	8.510544	2.883450	-0.000341
 961	9.5520e+01	1.7438	16.281768	0.000669	6.686856	2.265568	-0.000268
 962	9.5620e+01	1.7133	15.995132	0.000719	7.193436	2.437202	-0.000288
 963	9.5719e+01	1.6716	15.672161	0.000811	8.105280	2.746143	-0.000325
 964	9.5819e+01	1.6315	15.324967	0.000871	8.713176	2.952104	-0.000349
 965	9.5918e+01	1.5930	15.034293	0.000729	7.294752	2.471529	-0.000292
 966	9.6017e+01	1.5513	14.771880	0.000659	6.585540	2.231241	-0.000264
 967	9.6117e+01	1.5080	14.489280	0.000709	7.092120	2.402875	-0.000284
 968	9.6216e+01	1.4631	14.162272	0.000821	8.206596	2.780470	-0.000329
 969	9.6316e+01	1.4246	13.847376	0.000790	7.902648	2.677490	-0.000316
 970	9.6415e+01	1.3893	13.556702	0.000729	7.294752	2.471529	-0.000292
 971	9.6515e+01	1.3572	13.294288	0.000659	6.585540	2.231241	-0.000264
 972	9.6615e+01	1.3026	12.934983	0.000902	9.017124	3.055084	-0.000361
 973	9.6714e+01	1.2625	12.640272	0.000740	7.396068	2.505856	-0.000296
 974	9.6814e+01	1.2321	12.389970	0.000628	6.281592	2.128261	-0.000252
 975	9.6913e+01	1.1871	12.107370	0.000709	7.092120	2.402875	-0.000284
 976	9.7013e+01	1.1486	11.808622	0.000750	7.497384	2.540183	-0.000300
 977	9.7112e+01	1.1165	11.477577	0.000831	8.307912	2.814797	-0.000333
 978	9.7212e+01	1.0780	11.138458	0.000851	8.510544	2.883450	-0.000341
 979	9.7311e+01	1.0283	10.843747	0.000740	7.396068	2.505856	-0.000296
 980	9.7410e+01	0.9898	10.561147	0.000709	7.092120	2.402875	-0.000284
 981	9.7510e+01	0.9545	10.209916	0.000881	8.814492	2.986431	-0.000353
 982	9.7609e+01	0.9160	9.907131	0.000760	7.598700	2.574509	-0.000304
 983	9.7709e+01	0.8743	9.608383	0.000750	7.497384	2.540183	-0.000300
 984	9.7808e+01	0.8374	9.325784	0.000709	7.092120	2.402875	-0.000284
 985	9.7908e+01	0.7957	9.006850	0.000800	8.003964	2.711817	-0.000321
 986	9.8007e+01	0.7556	8.704065	0.000760	7.598700	2.574509	-0.000304
 987	9.8107e+01	0.7027	8.364945	0.000851	8.510544	2.883450	-0.000341
 988	9.8207e+01	0.6770	8.082346	0.000709	7.092120	2.402875	-0.000284
 989	9.8306e+01	0.6321	7.815895	0.000669	6.686856	2.265568	-0.000268
 990	9.8406e+01	0.5952	7.517147	0.000750	7.497384	2.540183	-0.000300
 991	9.8505e+01	0.5583	7.238584	0.000699	6.990804	2.368549	-0.000280
 992	9.8605e+01	0.5198	6.923688	0.000790	7.902648	2.677490	-0.000316
 993	9.8704e+01	0.4732	6.641088	0.000709	7.092120	2.402875	-0.000284
 994	9.8803e+01	0.4299	6.301969	0.000851	8.510544	2.883450	-0.000341
 995	9.8903e+01	0.3898	5.995147	0.000770	7.700016	2.608836	-0.000308
 996	9.9002e+01	0.3593	5.672176	0.000811	8.105280	2.746143	-0.000325
 997	9.9102e+01	0.3160	5.357279	0.000790	7.902648	2.677490	-0.000316
 998	9.9201e+01	0.2759	5.042383	0.000790	7.902648	2.677490	-0.000316
 999	9.9301e+01	0.2310	4.707300	0.000841	8.409228	2.849124	-0.000337
1000	9.9400e+01	0.2037	4.428738	0.000699	6.990804	2.368549	-0.000280
1001	9.9500e+01	0.1604	4.113841	0.000790	7.902648	2.677490	-0.000316
1002	9.9600e+01	0.1219	3.815093	0.000750	7.497384	2.540183	-0.000300
1003	9.9699e+01	0.0674	3.520382	0.000740	7.396068	2.505856	-0.000296
1004	9.9799e+01	0.0369	3.221634	0.000750	7.497384	2.540183	-0.000300
1005	9.9898e+01	0.0080	2.979406	0.000608	6.078960	2.059607	-0.000243
1006	9.9998e+01	-0.0337	2.648361	0.000831	8.307912	2.814797	-0.000333
1007	1.0010e+02	-0.0802	2.385947	0.000659	6.585540	2.231241	-0.000264
1008	1.0020e+02	-0.1187	2.159868	0.000567	5.673696	1.922300	-0.000227
1009	1.0030e+02	-0.1572	1.808637	0.000881	8.814492	2.986431	-0.000353
1010	1.0040e+02	-0.1973	1.517963	0.000729	7.294752	2.471529	-0.000292
1011	1.0050e+02	-0.2374	1.243438	0.000689	6.889488	2.334222	-0.000276
1012	1.0059e+02	-0.2759	0.863947	0.000952	9.523704	3.226718	-0.000381
1013	1.0069e+02	-0.3241	0.581348	0.000709	7.092120	2.402875	-0.000284
1014	1.0079e+02	-0.3481	0.262414	0.000800	8.003964	2.711817	-0.000321
1015	1.0089e+02	-0.4027	-0.040371	0.000760	7.598700	2.574509	-0.000304
1016	1.0099e+02	-0.4331	-0.371416	0.000831	8.307912	2.814797	-0.000333
1017	1.0109e+02	-0.4781	-0.662090	0.000729	7.294752	2.471529	-0.000292
1018	1.0119e+02	-0.5150	-0.993135	0.000831	8.307912	2.814797	-0.000333
1019	1.0129e+02	-0.5535	-1.259586	0.000669	6.686856	2.265568	-0.000268
1020	1.0139e+02	-0.5904	-1.602743	0.000861	8.611860	2.917777	-0.000345
1021	1.0149e+02	-0.6369	-1.905528	0.000760	7.598700	2.574509	-0.000304
1022	1.0159e+02	-0.6754	-2.167942	0.000659	6.585540	2.231241	-0.000264
1023	1.0169e+02	-0.7187	-2.462653	0.000740	7.396068	2.505856	-0.000296
1024	1.0179e+02	-0.7604	-2.809846	0.000871	8.713176	2.952104	-0.000349
1025	1.0189e+02	-0.7909	-3.039963	0.000578	5.775012	1.956627	-0.000231
1026	1.0199e+02	-0.8406	-3.350823	0.000780	7.801332	2.643163	-0.000312
1027	1.0209e+02	-0.8727	-3.657645	0.000770	7.700016	2.608836	-0.000308
1028	1.0219e+02	-0.9144	-3.932170	0.000689	6.889488	2.334222	-0.000276
1029	1.0229e+02	-0.9529	-4.263215	0.000831	8.307912	2.814797	-0.000333
1030	1.0239e+02	-0.9850	-4.561963	0.000750	7.497384	2.540183	-0.000300
1031	1.0248e+02	-1.0315	-4.864749	0.000760	7.598700	2.574509	-0.000304
1032	1.0258e+02	-1.0620	-5.195794	0.000831	8.307912	2.814797	-0.000333
1033	1.0268e+02	-1.1021	-5.494542	0.000750	7.497384	2.540183	-0.000300
1034	1.0278e+02	-1.1502	-5.801364	0.000770	7.700016	2.608836	-0.000308
1035	1.0288e+02	-1.1952	-6.168743	0.000922	9.219756	3.123738	-0.000369
1036	1.0298e+02	-1.2288	-6.451343	0.000709	7.092120	2.402875	-0.000284
1037	1.0308e+02	-1.2673	-6.778351	0.000821	8.206596	2.780470	-0.000329
1038	1.0318e+02	-1.3091	-7.056913	0.000699	6.990804	2.368549	-0.000280
1039	1.0328e+02	-1.3556	-7.287030	0.000578	5.775012	1.956627	-0.000231
1040	1.0338e+02	-1.3812	-7.630187	0.000861	8.611860	2.917777	-0.000345
1041	1.0348e+02	-1.4294	-7.916823	0.000719	7.193436	2.437202	-0.000288
1042	1.0358e+02	-1.4679	-8.219608	0.000760	7.598700	2.574509	-0.000304
1043	1.0368e+02	-1.5128	-8.510282	0.000729	7.294752	2.471529	-0.000292
1044	1.0378e+02	-1.5577	-8.788845	0.000699	6.990804	2.368549	-0.000280
1045	1.0388e+02	-1.5866	-9.079518	0.000729	7.294752	2.471529	-0.000292
1046	1.0398e+02	-1.6283	-9.378266	0.000750	7.497384	2.540183	-0.000300
1047	1.0408e+02	-1.6764	-9.689126	0.000780	7.801332	2.643163	-0.000312
1048	1.0418e+02	-1.7101	-9.967688	0.000699	6.990804	2.368549	-0.000280
1049	1.0428e+02	-1.7518	-10.278548	0.000780	7.801332	2.643163	-0.000312
1050	1.0438e+02	-1.7839	-10.589407	0.000780	7.801332	2.643163	-0.000312
1051	1.0447e+02	-1.8288	-10.884118	0.000740	7.396068	2.505856	-0.000296
1052	1.0457e+02	-1.8657	-11.231312	0.000871	8.713176	2.952104	-0.000349
1053	1.0467e+02	-1.8994	-11.538134	0.000770	7.700016	2.608836	-0.000308
1054	1.0477e+02	-1.9363	-11.828808	0.000729	7.294752	2.471529	-0.000292
1055	1.0487e+02	-1.9941	-12.119481	0.000729	7.294752	2.471529	-0.000292
1056	1.0497e+02	-2.0310	-12.470712	0.000881	8.814492	2.986431	-0.000353
1057	1.0507e+02	-2.0711	-12.757349	0.000719	7.193436	2.437202	-0.000288
1058	1.0517e+02	-2.1064	-13.039948	0.000709	7.092120	2.402875	-0.000284
1059	1.0527e+02	-2.1481	-13.338696	0.000750	7.497384	2.540183	-0.000300
1060	1.0537e+02	-2.1834	-13.605147	0.000669	6.686856	2.265568	-0.000268
1061	1.0547e+02	-2.2235	-13.911970	0.000770	7.700016	2.608836	-0.000308
1062	1.0557e+02	-2.2636	-14.178421	0.000669	6.686856	2.265568	-0.000268
1063	1.0567e+02	-2.3069	-14.489280	0.000780	7.801332	2.643163	-0.000312
1064	1.0577e+02	-2.3470	-14.755731	0.000669	6.686856	2.265568	-0.000268
1065	1.0587e+02	-2.3903	-15.038331	0.000709	7.092120	2.402875	-0.000284
1066	1.0597e+02	-2.4336	-15.381487	0.000861	8.611860	2.917777	-0.000345
1067	1.0607e+02	-2.4673	-15.623715	0.000608	6.078960	2.059607	-0.000243
1068	1.0617e+02	-2.5090	-15.934575	0.000780	7.801332	2.643163	-0.000312
1069	1.0627e+02	-2.5395	-16.285806	0.000881	8.814492	2.986431	-0.000353
1070	1.0637e+02	-2.5860	-16.596665	0.000780	7.801332	2.643163	-0.000312
1071	1.0647e+02	-2.6213	-16.867153	0.000679	6.788172	2.299895	-0.000272
1072	1.0656e+02	-2.6630	-17.186087	0.000800	8.003964	2.711817	-0.000321
1073	1.0666e+02	-2.7063	-17.505021	0.000800	8.003964	2.711817	-0.000321
1074	1.0676e+02	-2.7432	-17.783583	0.000699	6.990804	2.368549	-0.000280
1075	1.0686e+02	-2.7817	-18.062145	0.000699	6.990804	2.368549	-0.000280
1076	1.0696e+02	-2.8202	-18.381079	0.000800	8.003964	2.711817	-0.000321
1077	1.0706e+02	-2.8700	-18.700013	0.000800	8.003964	2.711817	-0.000321
1078	1.0716e+02	-2.8988	-18.974538	0.000689	6.889488	2.334222	-0.000276
1079	1.0726e+02	-2.9502	-19.240989	0.000669	6.686856	2.265568	-0.000268
1080	1.0736e+02	-2.9823	-19.507440	0.000669	6.686856	2.265568	-0.000268
1081	1.0746e+02	-3.0320	-19.818299	0.000780	7.801332	2.643163	-0.000312
1082	1.0756e+02	-3.0689	-20.092825	0.000689	6.889488	2.334222	-0.000276
1083	1.0766e+02	-3.1122	-20.363313	0.000679	6.788172	2.299895	-0.000272
1084	1.0776e+02	-3.1459	-20.678209	0.000790	7.902648	2.677490	-0.000316
1085	1.0786e+02	-3.1924	-20.952734	0.000689	6.889488	2.334222	-0.000276
1086	1.0796e+02	-3.2325	-21.279742	0.000821	8.206596	2.780470	-0.000329
1087	1.0806e+02	-3.2614	-21.598676	0.000800	8.003964	2.711817	-0.000321
1088	1.0816e+02	-3.2999	-21.917610	0.000800	8.003964	2.711817	-0.000321
1089	1.0826e+02	-3.3480	-22.188098	0.000679	6.788172	2.299895	-0.000272
1090	1.0836e+02	-3.3801	-22.515106	0.000821	8.206596	2.780470	-0.000329
1091	1.0845e+02	-3.4234	-22.793668	0.000699	6.990804	2.368549	-0.000280
1092	1.0855e+02	-3.4571	-23.112602	0.000800	8.003964	2.711817	-0.000321
1093	1.0865e+02	-3.5069	-23.407313	0.000740	7.396068	2.505856	-0.000296
1094	1.0875e+02	-3.5438	-23.718172	0.000780	7.801332	2.643163	-0.000312
1095	1.0885e+02	-3.5806	-23.960401	0.000608	6.078960	2.059607	-0.000243
1096	1.0895e+02	-3.6127	-24.238963	0.000699	6.990804	2.368549	-0.000280
1097	1.0905e+02	-3.6593	-24.565971	0.000821	8.206596	2.780470	-0.000329
1098	1.0915e+02	-3.6978	-24.808199	0.000608	6.078960	2.059607	-0.000243
1099	1.0925e+02	-3.7427	-25.086761	0.000699	6.990804	2.368549	-0.000280
1100	1.0935e+02	-3.7860	-25.373398	0.000719	7.193436	2.437202	-0.000288
1101	1.0945e+02	-3.8229	-25.672146	0.000750	7.497384	2.540183	-0.000300
1102	1.0955e+02	-3.8630	-25.974931	0.000760	7.598700	2.574509	-0.000304
1103	1.0965e+02	-3.9015	-26.277717	0.000760	7.598700	2.574509	-0.000304
1104	1.0975e+02	-3.9464	-26.564353	0.000719	7.193436	2.437202	-0.000288
1105	1.0985e+02	-3.9785	-26.867138	0.000760	7.598700	2.574509	-0.000304
1106	1.0995e+02	-4.0234	-27.149738	0.000709	7.092120	2.402875	-0.000284
1107	1.1005e+02	-4.0555	-27.517117	0.000922	9.219756	3.123738	-0.000369
1108	1.1015e+02	-4.0956	-27.771457	0.000638	6.382908	2.162588	-0.000256
1109	1.1025e+02	-4.1437	-28.082316	0.000780	7.801332	2.643163	-0.000312
1110	1.1035e+02	-4.1854	-28.368953	0.000719	7.193436	2.437202	-0.000288
1111	1.1044e+02	-4.2207	-28.687887	0.000800	8.003964	2.711817	-0.000321
1112	1.1054e+02	-4.2641	-28.982597	0.000740	7.396068	2.505856	-0.000296
1113	1.1064e+02	-4.3009	-29.269234	0.000719	7.193436	2.437202	-0.000288
1114	1.1074e+02	-4.3427	-29.559908	0.000729	7.294752	2.471529	-0.000292
1115	1.1084e+02	-4.3844	-29.806173	0.000618	6.180276	2.093934	-0.000248
1116	1.1094e+02	-4.4213	-30.088773	0.000709	7.092120	2.402875	-0.000284
1117	1.1104e+02	-4.4566	-30.395595	0.000770	7.700016	2.608836	-0.000308
1118	1.1114e+02	-4.5047	-30.702417	0.000770	7.700016	2.608836	-0.000308
1119	1.1124e+02	-4.5352	-30.993091	0.000729	7.294752	2.471529	-0.000292
1120	1.1134e+02	-4.5849	-31.247431	0.000638	6.382908	2.162588	-0.000256
1121	1.1144e+02	-4.6202	-31.530030	0.000709	7.092120	2.402875	-0.000284
1122	1.1154e+02	-4.6587	-31.824741	0.000740	7.396068	2.505856	-0.000296
1123	1.1164e+02	-4.7036	-32.155786	0.000831	8.307912	2.814797	-0.000333
1124	1.1174e+02	-4.7437	-32.430311	0.000689	6.889488	2.334222	-0.000276
1125	1.1184e+02	-4.7822	-32.781542	0.000881	8.814492	2.986431	-0.000353
1126	1.1194e+02	-4.8175	-33.084327	0.000760	7.598700	2.574509	-0.000304
1127	1.1204e+02	-4.8496	-33.358853	0.000689	6.889488	2.334222	-0.000276
1128	1.1214e+02	-4.8977	-33.681823	0.000811	8.105280	2.746143	-0.000325
1129	1.1224e+02	-4.9282	-33.960386	0.000699	6.990804	2.368549	-0.000280
1130	1.1234e+02	-4.9779	-34.234911	0.000689	6.889488	2.334222	-0.000276
1131	1.1244e+02	-5.0277	-34.574030	0.000851	8.510544	2.883450	-0.000341
1132	1.1253e+02	-5.0565	-34.820296	0.000618	6.180276	2.093934	-0.000248
1133	1.1263e+02	-5.0886	-35.066561	0.000618	6.180276	2.093934	-0.000248
1134	1.1273e+02	-5.1335	-35.377420	0.000780	7.801332	2.643163	-0.000312
1135	1.1283e+02	-5.1833	-35.668094	0.000729	7.294752	2.471529	-0.000292
1136	1.1293e+02	-5.2073	-35.950694	0.000709	7.092120	2.402875	-0.000284
1137	1.1303e+02	-5.2683	-36.273665	0.000811	8.105280	2.746143	-0.000325
1138	1.1313e+02	-5.2859	-36.487633	0.000537	5.369748	1.819320	-0.000215
1139	1.1323e+02	-5.3373	-36.834826	0.000871	8.713176	2.952104	-0.000349
1140	1.1333e+02	-5.3790	-37.117426	0.000709	7.092120	2.402875	-0.000284
1141	1.1343e+02	-5.4175	-37.440397	0.000811	8.105280	2.746143	-0.000325
1142	1.1353e+02	-5.4624	-37.710885	0.000679	6.788172	2.299895	-0.000272
1143	1.1363e+02	-5.5025	-38.009633	0.000750	7.497384	2.540183	-0.000300
1144	1.1373e+02	-5.5410	-38.288195	0.000699	6.990804	2.368549	-0.000280
1145	1.1383e+02	-5.5763	-38.607129	0.000800	8.003964	2.711817	-0.000321
1146	1.1393e+02	-5.6084	-38.913951	0.000770	7.700016	2.608836	-0.000308
1147	1.1403e+02	-5.6565	-39.232885	0.000800	8.003964	2.711817	-0.000321
1148	1.1413e+02	-5.6950	-39.483188	0.000628	6.281592	2.128261	-0.000252
1149	1.1423e+02	-5.7319	-39.777898	0.000740	7.396068	2.505856	-0.000296
1150	1.1433e+02	-5.7688	-40.052424	0.000689	6.889488	2.334222	-0.000276
1151	1.1442e+02	-5.8025	-40.298689	0.000618	6.180276	2.093934	-0.000248
1152	1.1452e+02	-5.8426	-40.617623	0.000800	8.003964	2.711817	-0.000321
1153	1.1462e+02	-5.8891	-40.900222	0.000709	7.092120	2.402875	-0.000284
1154	1.1472e+02	-5.9373	-41.198970	0.000750	7.497384	2.540183	-0.000300
1155	1.1482e+02	-5.9661	-41.441198	0.000608	6.078960	2.059607	-0.000243
1156	1.1492e+02	-6.0143	-41.772243	0.000831	8.307912	2.814797	-0.000333
1157	1.1502e+02	-6.0560	-42.062917	0.000729	7.294752	2.471529	-0.000292
1158	1.1512e+02	-6.0929	-42.321294	0.000648	6.484224	2.196915	-0.000260
1159	1.1522e+02	-6.1362	-42.644265	0.000811	8.105280	2.746143	-0.000325
1160	1.1532e+02	-6.1795	-42.995496	0.000881	8.814492	2.986431	-0.000353
1161	1.1542e+02	-6.2084	-43.270021	0.000689	6.889488	2.334222	-0.000276
1162	1.1552e+02	-6.2533	-43.556657	0.000719	7.193436	2.437202	-0.000288
1163	1.1562e+02	-6.2902	-43.843294	0.000719	7.193436	2.437202	-0.000288
1164	1.1572e+02	-6.3287	-44.154154	0.000780	7.801332	2.643163	-0.000312
1165	1.1582e+02	-6.3736	-44.412530	0.000648	6.484224	2.196915	-0.000260
1166	1.1592e+02	-6.4153	-44.771835	0.000902	9.017124	3.055084	-0.000361
1167	1.1602e+02	-6.4554	-44.993878	0.000557	5.572380	1.887974	-0.000223
1168	1.1612e+02	-6.4923	-45.219957	0.000567	5.673696	1.922300	-0.000227
1169	1.1622e+02	-6.5244	-45.546965	0.000821	8.206596	2.780470	-0.000329
1170	1.1632e+02	-6.5741	-45.797268	0.000628	6.281592	2.128261	-0.000252
1171	1.1642e+02	-6.6062	-46.047570	0.000628	6.281592	2.128261	-0.000252
1172	1.1651e+02	-6.6463	-46.410912	0.000912	9.118440	3.089411	-0.000365
1173	1.1661e+02	-6.6864	-46.669289	0.000648	6.484224	2.196915	-0.000260
1174	1.1671e+02	-6.7282	-46.935740	0.000669	6.686856	2.265568	-0.000268
1175	1.1681e+02	-6.7683	-47.222377	0.000719	7.193436	2.437202	-0.000288
1176	1.1691e+02	-6.8084	-47.525162	0.000760	7.598700	2.574509	-0.000304
1177	1.1701e+02	-6.8437	-47.819873	0.000740	7.396068	2.505856	-0.000296
1178	1.1711e+02	-6.8838	-48.102472	0.000709	7.092120	2.402875	-0.000284
1179	1.1721e+02	-6.9255	-48.397183	0.000740	7.396068	2.505856	-0.000296
1180	1.1731e+02	-6.9608	-48.691894	0.000740	7.396068	2.505856	-0.000296
1181	1.1741e+02	-7.0009	-49.026976	0.000841	8.409228	2.849124	-0.000337
1182	1.1751e+02	-7.0458	-49.281316	0.000638	6.382908	2.162588	-0.000256
1183	1.1761e+02	-7.0875	-49.567953	0.000719	7.193436	2.437202	-0.000288
1184	1.1771e+02	-7.1228	-49.854589	0.000719	7.193436	2.437202	-0.000288
1185	1.1781e+02	-7.1693	-50.112966	0.000648	6.484224	2.196915	-0.000260
1186	1.1791e+02	-7.2078	-50.367305	0.000638	6.382908	2.162588	-0.000256
1187	1.1801e+02	-7.2527	-50.662016	0.000740	7.396068	2.505856	-0.000296
1188	1.1811e+02	-7.2848	-50.948653	0.000719	7.193436	2.437202	-0.000288
1189	1.1821e+02	-7.3281	-51.239327	0.000729	7.294752	2.471529	-0.000292
1190	1.1831e+02	-7.3714	-51.477518	0.000598	5.977644	2.025281	-0.000239
1191	1.1841e+02	-7.4116	-51.796452	0.000800	8.003964	2.711817	-0.000321
1192	1.1850e+02	-7.4404	-52.058865	0.000659	6.585540	2.231241	-0.000264
1193	1.1860e+02	-7.4870	-52.377799	0.000800	8.003964	2.711817	-0.000321
1194	1.1870e+02	-7.5255	-52.652324	0.000689	6.889488	2.334222	-0.000276
1195	1.1880e+02	-7.5624	-52.955109	0.000760	7.598700	2.574509	-0.000304
1196	1.1890e+02	-7.6057	-53.237709	0.000709	7.092120	2.402875	-0.000284
1197	1.1900e+02	-7.6442	-53.544531	0.000770	7.700016	2.608836	-0.000308
1198	1.1910e+02	-7.6875	-53.806945	0.000659	6.585540	2.231241	-0.000264
1199	1.1920e+02	-7.7260	-54.105693	0.000750	7.497384	2.540183	-0.000300
1200	1.1930e+02	-7.7629	-54.372144	0.000669	6.686856	2.265568	-0.000268
1201	1.1940e+02	-7.8030	-54.678966	0.000770	7.700016	2.608836	-0.000308
1202	1.1950e+02	-7.8415	-54.929269	0.000628	6.281592	2.128261	-0.000252
1203	1.1960e+02	-7.8912	-55.268388	0.000851	8.510544	2.883450	-0.000341
1204	1.1970e+02	-7.9233	-55.518691	0.000628	6.281592	2.128261	-0.000252
1205	1.1980e+02	-7.9634	-55.777067	0.000648	6.484224	2.196915	-0.000260
1206	1.1990e+02	-8.0131	-56.051593	0.000689	6.889488	2.334222	-0.000276
1207	1.2000e+02	-8.0324	-56.305932	0.000638	6.382908	2.162588	-0.000256
1208	1.2010e+02	-8.0741	-56.556235	0.000628	6.281592	2.128261	-0.000252
1209	1.2020e+02	-8.1238	-56.798463	0.000608	6.078960	2.059607	-0.000243
1210	1.2030e+02	-8.1591	-57.141619	0.000861	8.611860	2.917777	-0.000345
1211	1.2039e+02	-8.2024	-57.399996	0.000648	6.484224	2.196915	-0.000260
1212	1.2049e+02	-8.2442	-57.678558	0.000699	6.990804	2.368549	-0.000280
1213	1.2059e+02	-8.2810	-57.932898	0.000638	6.382908	2.162588	-0.000256
1214	1.2069e+02	-8.3115	-58.239720	0.000770	7.700016	2.608836	-0.000308
1215	1.2079e+02	-8.3613	-58.550580	0.000780	7.801332	2.643163	-0.000312
1216	1.2089e+02	-8.3966	-58.812993	0.000659	6.585540	2.231241	-0.000264
1217	1.2099e+02	-8.4335	-59.095593	0.000709	7.092120	2.402875	-0.000284
1218	1.2109e+02	-8.4752	-59.362044	0.000669	6.686856	2.265568	-0.000268
1219	1.2119e+02	-8.5297	-59.668866	0.000770	7.700016	2.608836	-0.000308
1220	1.2129e+02	-8.5682	-59.931280	0.000659	6.585540	2.231241	-0.000264
1221	1.2139e+02	-8.6067	-60.209842	0.000699	6.990804	2.368549	-0.000280
1222	1.2149e+02	-8.6388	-60.548962	0.000851	8.510544	2.883450	-0.000341
1223	1.2159e+02	-8.6853	-60.766967	0.000547	5.471064	1.853647	-0.000219
1224	1.2169e+02	-8.7206	-61.001121	0.000588	5.876328	1.990954	-0.000235
1225	1.2179e+02	-8.7735	-61.243349	0.000608	6.078960	2.059607	-0.000243
1226	1.2189e+02	-8.7976	-61.517874	0.000689	6.889488	2.334222	-0.000276
1227	1.2199e+02	-8.8329	-61.804511	0.000719	7.193436	2.437202	-0.000288
1228	1.2209e+02	-8.8794	-62.074999	0.000679	6.788172	2.299895	-0.000272
1229	1.2219e+02	-8.9195	-62.349524	0.000689	6.889488	2.334222	-0.000276
1230	1.2229e+02	-8.9580	-62.607901	0.000648	6.484224	2.196915	-0.000260
1231	1.2239e+02	-9.0046	-62.874352	0.000669	6.686856	2.265568	-0.000268
1232	1.2248e+02	-9.0254	-63.221546	0.000871	8.713176	2.952104	-0.000349
1233	1.2258e+02	-9.0880	-63.520294	0.000750	7.497384	2.540183	-0.000300
1234	1.2268e+02	-9.1201	-63.750410	0.000578	5.775012	1.956627	-0.000231
1235	1.2278e+02	-9.1618	-63.996676	0.000618	6.180276	2.093934	-0.000248
1236	1.2288e+02	-9.1971	-64.311572	0.000790	7.902648	2.677490	-0.000316
1237	1.2298e+02	-9.2484	-64.545726	0.000588	5.876328	1.990954	-0.000235
1238	1.2308e+02	-9.2821	-64.852548	0.000770	7.700016	2.608836	-0.000308
1239	1.2318e+02	-9.3222	-65.135148	0.000709	7.092120	2.402875	-0.000284
1240	1.2328e+02	-9.3607	-65.389488	0.000638	6.382908	2.162588	-0.000256
1241	1.2338e+02	-9.3976	-65.688236	0.000750	7.497384	2.540183	-0.000300
1242	1.2348e+02	-9.4361	-65.926427	0.000598	5.977644	2.025281	-0.000239
1243	1.2358e+02	-9.4682	-66.164618	0.000598	5.977644	2.025281	-0.000239
1244	1.2368e+02	-9.5195	-66.402809	0.000598	5.977644	2.025281	-0.000239
1245	1.2378e+02	-9.5676	-66.665222	0.000659	6.585540	2.231241	-0.000264
1246	1.2388e+02	-9.5965	-66.963970	0.000750	7.497384	2.540183	-0.000300
1247	1.2398e+02	-9.6334	-67.226384	0.000659	6.585540	2.231241	-0.000264
1248	1.2408e+02	-9.6848	-67.521095	0.000740	7.396068	2.505856	-0.000296
1249	1.2418e+02	-9.7040	-67.767360	0.000618	6.180276	2.093934	-0.000248
1250	1.2428e+02	-9.7505	-68.041886	0.000689	6.889488	2.334222	-0.000276
1251	1.2438e+02	-9.7938	-68.336597	0.000740	7.396068	2.505856	-0.000296
1252	1.2447e+02	-9.8356	-68.603048	0.000669	6.686856	2.265568	-0.000268
1253	1.2457e+02	-9.8853	-68.889684	0.000719	7.193436	2.437202	-0.000288
1254	1.2467e+02	-9.9093	-69.095578	0.000517	5.167116	1.750666	-0.000207
1255	1.2477e+02	-9.9591	-69.434698	0.000851	8.510544	2.883450	-0.000341
1256	1.2487e+02	-10.0088	-69.668851	0.000588	5.876328	1.990954	-0.000235
1257	1.2497e+02	-10.0345	-69.927228	0.000648	6.484224	2.196915	-0.000260
1258	1.2507e+02	-10.0762	-70.201753	0.000689	6.889488	2.334222	-0.000276
1259	1.2517e+02	-10.1163	-70.472241	0.000679	6.788172	2.299895	-0.000272
1260	1.2527e+02	-10.1564	-70.766952	0.000740	7.396068	2.505856	-0.000296
1261	1.2537e+02	-10.1917	-71.005143	0.000598	5.977644	2.025281	-0.000239
1262	1.2547e+02	-10.2302	-71.255446	0.000628	6.281592	2.128261	-0.000252
1263	1.2557e+02	-10.2815	-71.489600	0.000588	5.876328	1.990954	-0.000235
1264	1.2567e+02	-10.3120	-71.756051	0.000669	6.686856	2.265568	-0.000268
1265	1.2577e+02	-10.3473	-72.022502	0.000669	6.686856	2.265568	-0.000268
1266	1.2587e+02	-10.3890	-72.288953	0.000669	6.686856	2.265568	-0.000268
1267	1.2597e+02	-10.4291	-72.579626	0.000729	7.294752	2.471529	-0.000292
1268	1.2607e+02	-10.4692	-72.878374	0.000750	7.497384	2.540183	-0.000300
1269	1.2617e+02	-10.5045	-73.140788	0.000659	6.585540	2.231241	-0.000264
1270	1.2627e+02	-10.5607	-73.443573	0.000760	7.598700	2.574509	-0.000304
1271	1.2636e+02	-10.5783	-73.669653	0.000567	5.673696	1.922300	-0.000227
1272	1.2646e+02	-10.6248	-73.907844	0.000598	5.977644	2.025281	-0.000239
1273	1.2656e+02	-10.6681	-74.170258	0.000659	6.585540	2.231241	-0.000264
1274	1.2666e+02	-10.7050	-74.473043	0.000760	7.598700	2.574509	-0.000304
1275	1.2676e+02	-10.7532	-74.727383	0.000638	6.382908	2.162588	-0.000256
1276	1.2686e+02	-10.7965	-74.993833	0.000669	6.686856	2.265568	-0.000268
1277	1.2696e+02	-10.8270	-75.256247	0.000659	6.585540	2.231241	-0.000264
1278	1.2706e+02	-10.8671	-75.526735	0.000679	6.788172	2.299895	-0.000272
1279	1.2716e+02	-10.9184	-75.768964	0.000608	6.078960	2.059607	-0.000243
1280	1.2726e+02	-10.9585	-76.015229	0.000618	6.180276	2.093934	-0.000248
1281	1.2736e+02	-10.9890	-76.289754	0.000689	6.889488	2.334222	-0.000276
1282	1.2746e+02	-11.0355	-76.548131	0.000648	6.484224	2.196915	-0.000260
1283	1.2756e+02	-11.0740	-76.774210	0.000567	5.673696	1.922300	-0.000227
1284	1.2766e+02	-11.1125	-77.068921	0.000740	7.396068	2.505856	-0.000296
1285	1.2776e+02	-11.1398	-77.391892	0.000811	8.105280	2.746143	-0.000325
1286	1.2786e+02	-11.1911	-77.605860	0.000537	5.369748	1.819320	-0.000215
1287	1.2796e+02	-11.2360	-77.864237	0.000648	6.484224	2.196915	-0.000260
1288	1.2806e+02	-11.2697	-78.199319	0.000841	8.409228	2.849124	-0.000337
1289	1.2816e+02	-11.3066	-78.413287	0.000537	5.369748	1.819320	-0.000215
1290	1.2826e+02	-11.3467	-78.687813	0.000689	6.889488	2.334222	-0.000276
1291	1.2835e+02	-11.3868	-78.974449	0.000719	7.193436	2.437202	-0.000288
1292	1.2845e+02	-11.4302	-79.236863	0.000659	6.585540	2.231241	-0.000264
1293	1.2855e+02	-11.4687	-79.475054	0.000598	5.977644	2.025281	-0.000239
1294	1.2865e+02	-11.5120	-79.765728	0.000729	7.294752	2.471529	-0.000292
1295	1.2875e+02	-11.5473	-80.056402	0.000729	7.294752	2.471529	-0.000292
1296	1.2885e+02	-11.5922	-80.238073	0.000456	4.559220	1.544706	-0.000183
1297	1.2895e+02	-11.6339	-80.516635	0.000699	6.990804	2.368549	-0.000280
1298	1.2905e+02	-11.6724	-80.779049	0.000659	6.585540	2.231241	-0.000264
1299	1.2915e+02	-11.7141	-81.021277	0.000608	6.078960	2.059607	-0.000243
1300	1.2925e+02	-11.7574	-81.295802	0.000689	6.889488	2.334222	-0.000276
1301	1.2935e+02	-11.7879	-81.517845	0.000557	5.572380	1.887974	-0.000223
1302	1.2945e+02	-11.8120	-81.836779	0.000800	8.003964	2.711817	-0.000321
1303	1.2955e+02	-11.8697	-82.079007	0.000608	6.078960	2.059607	-0.000243
1304	1.2965e+02	-11.9066	-82.381792	0.000760	7.598700	2.574509	-0.000304
1305	1.2975e+02	-11.9419	-82.619983	0.000598	5.977644	2.025281	-0.000239
1306	1.2985e+02	-11.9900	-82.906620	0.000719	7.193436	2.437202	-0.000288
1307	1.2995e+02	-12.0301	-83.132699	0.000567	5.673696	1.922300	-0.000227
1308	1.3005e+02	-12.0686	-83.399150	0.000669	6.686856	2.265568	-0.000268
1309	1.3015e+02	-12.1023	-83.726158	0.000821	8.206596	2.780470	-0.000329
1310	1.3025e+02	-12.1569	-83.972423	0.000618	6.180276	2.093934	-0.000248
1311	1.3034e+02	-12.1954	-84.222726	0.000628	6.281592	2.128261	-0.000252
1312	1.3044e+02	-12.2307	-84.460917	0.000598	5.977644	2.025281	-0.000239
1313	1.3054e+02	-12.2708	-84.719293	0.000648	6.484224	2.196915	-0.000260
1314	1.3064e+02	-12.3077	-85.001893	0.000709	7.092120	2.402875	-0.000284
1315	1.3074e+02	-12.3446	-85.256233	0.000638	6.382908	2.162588	-0.000256
1316	1.3084e+02	-12.3863	-85.458089	0.000507	5.065800	1.716340	-0.000203
1317	1.3094e+02	-12.4280	-85.720503	0.000659	6.585540	2.231241	-0.000264
1318	1.3104e+02	-12.4633	-85.995028	0.000689	6.889488	2.334222	-0.000276
1319	1.3114e+02	-12.5050	-86.213034	0.000547	5.471064	1.853647	-0.000219
1320	1.3124e+02	-12.5467	-86.503707	0.000729	7.294752	2.471529	-0.000292
1321	1.3134e+02	-12.5884	-86.782270	0.000699	6.990804	2.368549	-0.000280
1322	1.3144e+02	-12.6253	-87.085055	0.000760	7.598700	2.574509	-0.000304
1323	1.3154e+02	-12.6654	-87.323246	0.000598	5.977644	2.025281	-0.000239
1324	1.3164e+02	-12.7007	-87.581623	0.000648	6.484224	2.196915	-0.000260
1325	1.3174e+02	-12.7456	-87.827888	0.000618	6.180276	2.093934	-0.000248
1326	1.3184e+02	-12.7841	-88.126636	0.000750	7.497384	2.540183	-0.000300
1327	1.3194e+02	-12.8242	-88.368864	0.000608	6.078960	2.059607	-0.000243
1328	1.3204e+02	-12.8595	-88.603018	0.000588	5.876328	1.990954	-0.000235
1329	1.3214e+02	-12.9061	-88.893692	0.000729	7.294752	2.471529	-0.000292
1330	1.3224e+02	-12.9413	-89.172254	0.000699	6.990804	2.368549	-0.000280
1331	1.3234e+02	-12.9831	-89.402371	0.000578	5.775012	1.956627	-0.000231
1332	1.3243e+02	-13.0183	-89.644599	0.000608	6.078960	2.059607	-0.000243
1333	1.3253e+02	-13.0649	-89.890864	0.000618	6.180276	2.093934	-0.000248
1334	1.3263e+02	-13.1034	-90.145204	0.000638	6.382908	2.162588	-0.000256
1335	1.3273e+02	-13.1435	-90.367246	0.000557	5.572380	1.887974	-0.000223
1336	1.3283e+02	-13.1724	-90.609475	0.000608	6.078960	2.059607	-0.000243
1337	1.3293e+02	-13.2189	-90.928408	0.000800	8.003964	2.711817	-0.000321
1338	1.3303e+02	-13.2510	-91.166599	0.000598	5.977644	2.025281	-0.000239
1339	1.3313e+02	-13.2911	-91.408827	0.000608	6.078960	2.059607	-0.000243
1340	1.3323e+02	-13.3472	-91.711613	0.000760	7.598700	2.574509	-0.000304
1341	1.3333e+02	-13.3761	-91.990175	0.000699	6.990804	2.368549	-0.000280
1342	1.3343e+02	-13.4258	-92.196069	0.000517	5.167116	1.750666	-0.000207
1343	1.3353e+02	-13.4659	-92.490780	0.000740	7.396068	2.505856	-0.000296
1344	1.3363e+02	-13.4948	-92.724934	0.000588	5.876328	1.990954	-0.000235
1345	1.3373e+02	-13.5333	-93.003496	0.000699	6.990804	2.368549	-0.000280
1346	1.3383e+02	-13.5782	-93.253798	0.000628	6.281592	2.128261	-0.000252
1347	1.3393e+02	-13.6264	-93.536398	0.000709	7.092120	2.402875	-0.000284
1348	1.3403e+02	-13.6633	-93.770552	0.000588	5.876328	1.990954	-0.000235
1349	1.3413e+02	-13.7018	-94.024891	0.000638	6.382908	2.162588	-0.000256
1350	1.3423e+02	-13.7338	-94.311528	0.000719	7.193436	2.437202	-0.000288
1351	1.3432e+02	-13.7788	-94.509348	0.000496	4.964484	1.682013	-0.000199
1352	1.3442e+02	-13.8140	-94.759650	0.000628	6.281592	2.128261	-0.000252
1353	1.3452e+02	-13.8574	-94.977655	0.000547	5.471064	1.853647	-0.000219
1354	1.3462e+02	-13.9087	-95.227958	0.000628	6.281592	2.128261	-0.000252
1355	1.3472e+02	-13.9312	-95.494409	0.000669	6.686856	2.265568	-0.000268
1356	1.3482e+02	-13.9793	-95.797194	0.000760	7.598700	2.574509	-0.000304
1357	1.3492e+02	-14.0178	-96.063645	0.000669	6.686856	2.265568	-0.000268
1358	1.3502e+02	-14.0611	-96.326059	0.000659	6.585540	2.231241	-0.000264
1359	1.3512e+02	-14.1012	-96.531953	0.000517	5.167116	1.750666	-0.000207
1360	1.3522e+02	-14.1413	-96.802441	0.000679	6.788172	2.299895	-0.000272
1361	1.3532e+02	-14.1766	-97.040632	0.000598	5.977644	2.025281	-0.000239
1362	1.3542e+02	-14.2135	-97.299008	0.000648	6.484224	2.196915	-0.000260
1363	1.3552e+02	-14.2584	-97.561422	0.000659	6.585540	2.231241	-0.000264
1364	1.3562e+02	-14.3033	-97.835947	0.000689	6.889488	2.334222	-0.000276
1365	1.3572e+02	-14.3370	-98.102398	0.000669	6.686856	2.265568	-0.000268
1366	1.3582e+02	-14.3771	-98.332515	0.000578	5.775012	1.956627	-0.000231
1367	1.3592e+02	-14.4124	-98.586855	0.000638	6.382908	2.162588	-0.000256
1368	1.3602e+02	-14.4606	-98.800823	0.000537	5.369748	1.819320	-0.000215
1369	1.3612e+02	-14.4942	-99.055162	0.000638	6.382908	2.162588	-0.000256
1370	1.3622e+02	-14.5440	-99.317576	0.000659	6.585540	2.231241	-0.000264
1371	1.3631e+02	-14.5777	-99.547693	0.000578	5.775012	1.956627	-0.000231
1372	1.3641e+02	-14.6130	-99.797995	0.000628	6.281592	2.128261	-0.000252
1373	1.3651e+02	-14.6499	-100.084632	0.000719	7.193436	2.437202	-0.000288
1374	1.3661e+02	-14.6900	-100.322823	0.000598	5.977644	2.025281	-0.000239
1375	1.3671e+02	-14.7349	-100.565051	0.000608	6.078960	2.059607	-0.000243
1376	1.3681e+02	-14.7766	-100.859762	0.000740	7.396068	2.505856	-0.000296
1377	1.3691e+02	-14.8167	-101.049508	0.000476	4.761852	1.613359	-0.000191
1378	1.3701e+02	-14.8616	-101.324033	0.000689	6.889488	2.334222	-0.000276
1379	1.3711e+02	-14.8873	-101.538001	0.000537	5.369748	1.819320	-0.000215
1380	1.3721e+02	-14.9386	-101.832712	0.000740	7.396068	2.505856	-0.000296
1381	1.3731e+02	-14.9675	-102.050717	0.000547	5.471064	1.853647	-0.000219
1382	1.3741e+02	-15.0124	-102.333317	0.000709	7.092120	2.402875	-0.000284
1383	1.3751e+02	-15.0461	-102.555359	0.000557	5.572380	1.887974	-0.000223
1384	1.3761e+02	-15.0990	-102.817773	0.000659	6.585540	2.231241	-0.000264
1385	1.3771e+02	-15.1327	-103.080187	0.000659	6.585540	2.231241	-0.000264
1386	1.3781e+02	-15.1744	-103.269932	0.000476	4.761852	1.613359	-0.000191
1387	1.3791e+02	-15.2145	-103.580792	0.000780	7.801332	2.643163	-0.000312
1388	1.3801e+02	-15.2450	-103.722091	0.000355	3.546060	1.201438	-0.000142
1389	1.3811e+02	-15.3012	-103.972394	0.000628	6.281592	2.128261	-0.000252
1390	1.3821e+02	-15.3300	-104.226733	0.000638	6.382908	2.162588	-0.000256
1391	1.3831e+02	-15.3766	-104.521444	0.000740	7.396068	2.505856	-0.000296
1392	1.3840e+02	-15.4119	-104.759635	0.000598	5.977644	2.025281	-0.000239
1393	1.3850e+02	-15.4504	-104.965529	0.000517	5.167116	1.750666	-0.000207
1394	1.3860e+02	-15.4953	-105.268314	0.000760	7.598700	2.574509	-0.000304
1395	1.3870e+02	-15.5258	-105.510543	0.000608	6.078960	2.059607	-0.000243
1396	1.3880e+02	-15.5707	-105.785068	0.000689	6.889488	2.334222	-0.000276
1397	1.3890e+02	-15.6076	-106.007110	0.000557	5.572380	1.887974	-0.000223
1398	1.3900e+02	-15.6461	-106.289710	0.000709	7.092120	2.402875	-0.000284
1399	1.3910e+02	-15.6830	-106.507715	0.000547	5.471064	1.853647	-0.000219
1400	1.3920e+02	-15.7247	-106.762055	0.000638	6.382908	2.162588	-0.000256
1401	1.3930e+02	-15.7808	-106.955837	0.000486	4.863168	1.647686	-0.000195
1402	1.3940e+02	-15.8225	-107.230362	0.000689	6.889488	2.334222	-0.000276
1403	1.3950e+02	-15.8514	-107.504888	0.000689	6.889488	2.334222	-0.000276
1404	1.3960e+02	-15.8947	-107.702707	0.000496	4.964484	1.682013	-0.000199
1405	1.3970e+02	-15.9284	-107.969158	0.000669	6.686856	2.265568	-0.000268
1406	1.3980e+02	-15.9653	-108.175052	0.000517	5.167116	1.750666	-0.000207
1407	1.3990e+02	-16.0183	-108.437466	0.000659	6.585540	2.231241	-0.000264
1408	1.4000e+02	-16.0520	-108.647397	0.000527	5.268432	1.784993	-0.000211
1409	1.4010e+02	-16.0953	-108.938071	0.000729	7.294752	2.471529	-0.000292
1410	1.4020e+02	-16.1225	-109.196447	0.000648	6.484224	2.196915	-0.000260
1411	1.4029e+02	-16.1594	-109.442713	0.000618	6.180276	2.093934	-0.000248
1412	1.4039e+02	-16.2108	-109.721275	0.000699	6.990804	2.368549	-0.000280
1413	1.4049e+02	-16.2429	-109.955429	0.000588	5.876328	1.990954	-0.000235
1414	1.4059e+02	-16.2942	-110.209769	0.000638	6.382908	2.162588	-0.000256
1415	1.4069e+02	-16.3279	-110.403551	0.000486	4.863168	1.647686	-0.000195
1416	1.4079e+02	-16.3664	-110.670002	0.000669	6.686856	2.265568	-0.000268
1417	1.4089e+02	-16.4097	-110.952601	0.000709	7.092120	2.402875	-0.000284
1418	1.4099e+02	-16.4498	-111.130235	0.000446	4.457904	1.510379	-0.000179
1419	1.4109e+02	-16.4899	-111.392649	0.000659	6.585540	2.231241	-0.000264
1420	1.4119e+02	-16.5236	-111.646989	0.000638	6.382908	2.162588	-0.000256
1421	1.4129e+02	-16.5749	-111.873068	0.000567	5.673696	1.922300	-0.000227
1422	1.4139e+02	-16.6102	-112.147594	0.000689	6.889488	2.334222	-0.000276
1423	1.4149e+02	-16.6535	-112.369636	0.000557	5.572380	1.887974	-0.000223
1424	1.4159e+02	-16.6808	-112.623976	0.000638	6.382908	2.162588	-0.000256
1425	1.4169e+02	-16.7273	-112.878315	0.000638	6.382908	2.162588	-0.000256
1426	1.4179e+02	-16.7642	-113.128618	0.000628	6.281592	2.128261	-0.000252
1427	1.4189e+02	-16.7979	-113.391031	0.000659	6.585540	2.231241	-0.000264
1428	1.4199e+02	-16.8396	-113.621148	0.000578	5.775012	1.956627	-0.000231
1429	1.4209e+02	-16.8813	-113.871451	0.000628	6.281592	2.128261	-0.000252
1430	1.4219e+02	-16.9182	-114.129827	0.000648	6.484224	2.196915	-0.000260
1431	1.4228e+02	-16.9648	-114.396278	0.000669	6.686856	2.265568	-0.000268
1432	1.4238e+02	-17.0049	-114.598135	0.000507	5.065800	1.716340	-0.000203
1433	1.4248e+02	-17.0482	-114.864586	0.000669	6.686856	2.265568	-0.000268
1434	1.4258e+02	-17.0899	-115.110851	0.000618	6.180276	2.093934	-0.000248
1435	1.4268e+02	-17.1284	-115.393451	0.000709	7.092120	2.402875	-0.000284
1436	1.4278e+02	-17.1717	-115.591270	0.000496	4.964484	1.682013	-0.000199
1437	1.4288e+02	-17.2070	-115.914241	0.000811	8.105280	2.746143	-0.000325
1438	1.4298e+02	-17.2455	-116.136284	0.000557	5.572380	1.887974	-0.000223
1439	1.4308e+02	-17.2872	-116.418883	0.000709	7.092120	2.402875	-0.000284
1440	1.4318e+02	-17.3289	-116.653037	0.000588	5.876328	1.990954	-0.000235
1441	1.4328e+02	-17.3642	-116.931600	0.000699	6.990804	2.368549	-0.000280
1442	1.4338e+02	-17.4075	-117.157679	0.000567	5.673696	1.922300	-0.000227
1443	1.4348e+02	-17.4541	-117.432204	0.000689	6.889488	2.334222	-0.000276
1444	1.4358e+02	-17.4877	-117.706730	0.000689	6.889488	2.334222	-0.000276
1445	1.4368e+02	-17.5262	-117.952995	0.000618	6.180276	2.093934	-0.000248
1446	1.4378e+02	-17.5455	-118.195223	0.000608	6.078960	2.059607	-0.000243
1447	1.4388e+02	-17.6016	-118.441488	0.000618	6.180276	2.093934	-0.000248
1448	1.4398e+02	-17.6450	-118.695828	0.000638	6.382908	2.162588	-0.000256
1449	1.4408e+02	-17.6802	-118.954205	0.000648	6.484224	2.196915	-0.000260
1450	1.4418e+02	-17.7252	-119.208544	0.000638	6.382908	2.162588	-0.000256
1451	1.4428e+02	-17.7605	-119.466921	0.000648	6.484224	2.196915	-0.000260
1452	1.4437e+02	-17.8070	-119.729335	0.000659	6.585540	2.231241	-0.000264
1453	1.4447e+02	-17.8359	-120.020008	0.000729	7.294752	2.471529	-0.000292
1454	1.4457e+02	-17.8872	-120.290496	0.000679	6.788172	2.299895	-0.000272
1455	1.4467e+02	-17.9209	-120.540799	0.000628	6.281592	2.128261	-0.000252
1456	1.4477e+02	-17.9642	-120.795138	0.000638	6.382908	2.162588	-0.000256
1457	1.4487e+02	-18.0043	-121.073701	0.000699	6.990804	2.368549	-0.000280
1458	1.4497e+02	-18.0476	-121.311892	0.000598	5.977644	2.025281	-0.000239
1459	1.4507e+02	-18.0861	-121.618714	0.000770	7.700016	2.608836	-0.000308
1460	1.4517e+02	-18.1214	-121.873054	0.000638	6.382908	2.162588	-0.000256
1461	1.4527e+02	-18.1615	-122.167765	0.000740	7.396068	2.505856	-0.000296
1462	1.4537e+02	-18.2064	-122.405956	0.000598	5.977644	2.025281	-0.000239
1463	1.4547e+02	-18.2401	-122.676444	0.000679	6.788172	2.299895	-0.000272
1464	1.4557e+02	-18.2818	-122.959043	0.000709	7.092120	2.402875	-0.000284
1465	1.4567e+02	-18.3187	-123.205308	0.000618	6.180276	2.093934	-0.000248
1466	1.4577e+02	-18.3637	-123.483871	0.000699	6.990804	2.368549	-0.000280
1467	1.4587e+02	-18.3925	-123.750322	0.000669	6.686856	2.265568	-0.000268
1468	1.4597e+02	-18.4374	-124.032921	0.000709	7.092120	2.402875	-0.000284
1469	1.4607e+02	-18.4856	-124.299372	0.000669	6.686856	2.265568	-0.000268
1470	1.4617e+02	-18.5193	-124.602157	0.000760	7.598700	2.574509	-0.000304
1471	1.4626e+02	-18.5658	-124.868608	0.000669	6.686856	2.265568	-0.000268
1472	1.4636e+02	-18.6011	-125.139096	0.000679	6.788172	2.299895	-0.000272
1473	1.4646e+02	-18.6428	-125.425733	0.000719	7.193436	2.437202	-0.000288
1474	1.4656e+02	-18.6797	-125.704295	0.000699	6.990804	2.368549	-0.000280
1475	1.4666e+02	-18.7278	-126.015155	0.000780	7.801332	2.643163	-0.000312
1476	1.4676e+02	-18.7631	-126.257383	0.000608	6.078960	2.059607	-0.000243
1477	1.4686e+02	-18.8080	-126.596502	0.000851	8.510544	2.883450	-0.000341
1478	1.4696e+02	-18.8449	-126.834693	0.000598	5.977644	2.025281	-0.000239
1479	1.4706e+02	-18.8834	-127.181887	0.000871	8.713176	2.952104	-0.000349
1480	1.4716e+02	-18.9171	-127.440264	0.000648	6.484224	2.196915	-0.000260
1481	1.4726e+02	-18.9476	-127.702678	0.000659	6.585540	2.231241	-0.000264
1482	1.4736e+02	-18.9973	-127.973166	0.000679	6.788172	2.299895	-0.000272
1483	1.4746e+02	-19.0374	-128.275951	0.000760	7.598700	2.574509	-0.000304
1484	1.4756e+02	-19.0759	-128.590848	0.000790	7.902648	2.677490	-0.000316
1485	1.4766e+02	-19.1112	-128.861336	0.000679	6.788172	2.299895	-0.000272
1486	1.4776e+02	-19.1529	-129.143935	0.000709	7.092120	2.402875	-0.000284
1487	1.4786e+02	-19.1930	-129.515352	0.000932	9.321072	3.158065	-0.000373
1488	1.4796e+02	-19.2348	-129.725283	0.000527	5.268432	1.784993	-0.000211
1489	1.4806e+02	-19.2861	-130.064402	0.000851	8.510544	2.883450	-0.000341
1490	1.4816e+02	-19.3085	-130.363150	0.000750	7.497384	2.540183	-0.000300
1491	1.4825e+02	-19.3647	-130.698232	0.000841	8.409228	2.849124	-0.000337
1492	1.4835e+02	-19.3968	-130.964683	0.000669	6.686856	2.265568	-0.000268
1493	1.4845e+02	-19.4433	-131.267469	0.000760	7.598700	2.574509	-0.000304
1494	1.4855e+02	-19.4786	-131.582365	0.000790	7.902648	2.677490	-0.000316
1495	1.4865e+02	-19.5219	-131.901299	0.000800	8.003964	2.711817	-0.000321
1496	1.4875e+02	-19.5636	-132.200047	0.000750	7.497384	2.540183	-0.000300
1497	1.4885e+02	-19.6021	-132.527055	0.000821	8.206596	2.780470	-0.000329
1498	1.4895e+02	-19.6310	-132.845989	0.000800	8.003964	2.711817	-0.000321
1499	1.4905e+02	-19.6839	-133.164922	0.000800	8.003964	2.711817	-0.000321
1500	1.4915e+02	-19.7096	-133.427336	0.000659	6.585540	2.231241	-0.000264
1501	1.4925e+02	-19.7561	-133.766456	0.000851	8.510544	2.883450	-0.000341
1502	1.4935e+02	-19.7930	-134.109612	0.000861	8.611860	2.917777	-0.000345
1503	1.4945e+02	-19.8283	-134.392212	0.000709	7.092120	2.402875	-0.000284
1504	1.4955e+02	-19.8684	-134.731331	0.000851	8.510544	2.883450	-0.000341
1505	1.4965e+02	-19.9182	-135.090636	0.000902	9.017124	3.055084	-0.000361
1506	1.4975e+02	-19.9583	-135.397458	0.000770	7.700016	2.608836	-0.000308
1507	1.4985e+02	-19.9952	-135.684095	0.000719	7.193436	2.437202	-0.000288
1508	1.4995e+02	-19.9647	-135.680058	0.000010	0.101316	0.034327	0.000004
1509	1.5005e+02	-19.9262	-135.667946	0.000030	0.303948	0.102980	0.000012
1510	1.5015e+02	-19.8668	-135.611427	0.000142	1.418424	0.480575	0.000057
1511	1.5025e+02	-19.8363	-135.579129	0.000081	0.810528	0.274614	0.000032
1512	1.5034e+02	-19.7978	-135.562981	0.000041	0.405264	0.137307	0.000016
1513	1.5044e+02	-19.7625	-135.441867	0.000304	3.039480	1.029804	0.000122
1514	1.5054e+02	-19.7064	-135.433793	0.000020	0.202632	0.068654	0.000008
1515	1.5064e+02	-19.6631	-135.357087	0.000193	1.925004	0.652209	0.000077
1516	1.5074e+02	-19.6294	-135.256159	0.000253	2.532900	0.858170	0.000101
1517	1.5084e+02	-19.5925	-135.231936	0.000061	0.607896	0.205961	0.000024
1518	1.5094e+02	-19.5508	-135.114859	0.000294	2.938164	0.995477	0.000118
1519	1.5104e+02	-19.5123	-135.005856	0.000274	2.735532	0.926823	0.000110
1520	1.5114e+02	-19.4674	-134.933188	0.000182	1.823688	0.617882	0.000073
1521	1.5124e+02	-19.4385	-134.836297	0.000243	2.431584	0.823843	0.000097
1522	1.5134e+02	-19.3968	-134.690960	0.000365	3.647376	1.235764	0.000146
1523	1.5144e+02	-19.3551	-134.610217	0.000203	2.026320	0.686536	0.000081
1524	1.5154e+02	-19.3230	-134.513326	0.000243	2.431584	0.823843	0.000097
1525	1.5164e+02	-19.2845	-134.372026	0.000355	3.546060	1.201438	0.000142
1526	1.5174e+02	-19.2444	-134.291283	0.000203	2.026320	0.686536	0.000081
1527	1.5184e+02	-19.2075	-134.202466	0.000223	2.228952	0.755189	0.000089
1528	1.5194e+02	-19.1594	-134.065204	0.000344	3.444744	1.167111	0.000138
1529	1.5204e+02	-19.1176	-133.940052	0.000314	3.140796	1.064131	0.000126
1530	1.5214e+02	-19.0904	-133.855273	0.000213	2.127636	0.720863	0.000085
1531	1.5224e+02	-19.0374	-133.705899	0.000375	3.748692	1.270091	0.000150
1532	1.5233e+02	-18.9925	-133.580747	0.000314	3.140796	1.064131	0.000126
1533	1.5243e+02	-18.9588	-133.500005	0.000203	2.026320	0.686536	0.000081
1534	1.5253e+02	-18.9219	-133.378891	0.000304	3.039480	1.029804	0.000122
1535	1.5263e+02	-18.8770	-133.245665	0.000334	3.343428	1.132784	0.000134
1536	1.5273e+02	-18.8369	-133.068031	0.000446	4.457904	1.510379	0.000179
1537	1.5283e+02	-18.8016	-132.938843	0.000324	3.242112	1.098457	0.000130
1538	1.5293e+02	-18.7567	-132.805617	0.000334	3.343428	1.132784	0.000134
1539	1.5303e+02	-18.7230	-132.640095	0.000415	4.153956	1.407398	0.000166
1540	1.5313e+02	-18.6797	-132.506869	0.000334	3.343428	1.132784	0.000134
1541	1.5323e+02	-18.6428	-132.365569	0.000355	3.546060	1.201438	0.000142
1542	1.5333e+02	-18.5979	-132.204084	0.000405	4.052640	1.373072	0.000162
1543	1.5343e+02	-18.5594	-132.062784	0.000355	3.546060	1.201438	0.000142
1544	1.5353e+02	-18.5257	-131.921485	0.000355	3.546060	1.201438	0.000142
1545	1.5363e+02	-18.4888	-131.772110	0.000375	3.748692	1.270091	0.000150
1546	1.5373e+02	-18.4455	-131.646959	0.000314	3.140796	1.064131	0.000126
1547	1.5383e+02	-18.4070	-131.477400	0.000426	4.255272	1.441725	0.000170
1548	1.5393e+02	-18.3588	-131.323988	0.000385	3.850008	1.304418	0.000154
1549	1.5403e+02	-18.3155	-131.186726	0.000344	3.444744	1.167111	0.000138
1550	1.5413e+02	-18.2786	-131.049463	0.000344	3.444744	1.167111	0.000138
1551	1.5422e+02	-18.2353	-130.900089	0.000375	3.748692	1.270091	0.000150
1552	1.5432e+02	-18.2016	-130.766864	0.000334	3.343428	1.132784	0.000134
1553	1.5442e+02	-18.1631	-130.585193	0.000456	4.559220	1.544706	0.000183
1554	1.5452e+02	-18.1262	-130.399484	0.000466	4.660536	1.579032	0.000187
1555	1.5462e+02	-18.0829	-130.189553	0.000527	5.268432	1.784993	0.000211
1556	1.5472e+02	-18.0444	-130.032105	0.000395	3.951324	1.338745	0.000158
1557	1.5482e+02	-18.0027	-129.878694	0.000385	3.850008	1.304418	0.000154
1558	1.5492e+02	-17.9626	-129.713171	0.000415	4.153956	1.407398	0.000166
1559	1.5502e+02	-17.9161	-129.535537	0.000446	4.457904	1.510379	0.000179
1560	1.5512e+02	-17.8760	-129.386163	0.000375	3.748692	1.270091	0.000150
1561	1.5522e+02	-17.8503	-129.208529	0.000446	4.457904	1.510379	0.000179
1562	1.5532e+02	-17.8054	-129.047044	0.000405	4.052640	1.373072	0.000162
1563	1.5542e+02	-17.7589	-128.897670	0.000375	3.748692	1.270091	0.000150
1564	1.5552e+02	-17.7284	-128.683702	0.000537	5.369748	1.819320	0.000215
1565	1.5562e+02	-17.6899	-128.542402	0.000355	3.546060	1.201438	0.000142
1566	1.5572e+02	-17.6401	-128.388991	0.000385	3.850008	1.304418	0.000154
1567	1.5582e+02	-17.6032	-128.215394	0.000436	4.356588	1.476052	0.000174
1568	1.5592e+02	-17.5696	-128.057946	0.000395	3.951324	1.338745	0.000158
1569	1.5602e+02	-17.5214	-127.896460	0.000405	4.052640	1.373072	0.000162
1570	1.5612e+02	-17.4910	-127.706715	0.000476	4.761852	1.613359	0.000191
1571	1.5622e+02	-17.4396	-127.525044	0.000456	4.559220	1.544706	0.000183
1572	1.5631e+02	-17.3963	-127.331261	0.000486	4.863168	1.647686	0.000195
1573	1.5641e+02	-17.3594	-127.084996	0.000618	6.180276	2.093934	0.000248
1574	1.5651e+02	-17.3225	-126.943696	0.000355	3.546060	1.201438	0.000142
1575	1.5661e+02	-17.2824	-126.778174	0.000415	4.153956	1.407398	0.000166
1576	1.5671e+02	-17.2471	-126.600540	0.000446	4.457904	1.510379	0.000179
1577	1.5681e+02	-17.2086	-126.374460	0.000567	5.673696	1.922300	0.000227
1578	1.5691e+02	-17.1653	-126.208937	0.000415	4.153956	1.407398	0.000166
1579	1.5701e+02	-17.1204	-126.059563	0.000375	3.748692	1.270091	0.000150
1580	1.5711e+02	-17.0899	-125.833484	0.000567	5.673696	1.922300	0.000227
1581	1.5721e+02	-17.0450	-125.663924	0.000426	4.255272	1.441725	0.000170
1582	1.5731e+02	-17.0065	-125.466104	0.000496	4.964484	1.682013	0.000199
1583	1.5741e+02	-16.9567	-125.264248	0.000507	5.065800	1.716340	0.000203
1584	1.5751e+02	-16.9343	-125.155245	0.000274	2.735532	0.926823	0.000110
1585	1.5761e+02	-16.8797	-124.989722	0.000415	4.153956	1.407398	0.000166
1586	1.5771e+02	-16.8460	-124.763643	0.000567	5.673696	1.922300	0.000227
1587	1.5781e+02	-16.8059	-124.618306	0.000365	3.647376	1.235764	0.000146
1588	1.5791e+02	-16.7723	-124.420486	0.000496	4.964484	1.682013	0.000199
1589	1.5801e+02	-16.7241	-124.218630	0.000507	5.065800	1.716340	0.000203
1590	1.5811e+02	-16.6824	-123.992550	0.000567	5.673696	1.922300	0.000227
1591	1.5821e+02	-16.6503	-123.814916	0.000446	4.457904	1.510379	0.000179
1592	1.5830e+02	-16.6134	-123.584799	0.000578	5.775012	1.956627	0.000231
1593	1.5840e+02	-16.5749	-123.467722	0.000294	2.938164	0.995477	0.000118
1594	1.5850e+02	-16.5236	-123.213383	0.000638	6.382908	2.162588	0.000256
1595	1.5860e+02	-16.4835	-123.027674	0.000466	4.660536	1.579032	0.000187
1596	1.5870e+02	-16.4498	-122.846003	0.000456	4.559220	1.544706	0.000183
1597	1.5880e+02	-16.4097	-122.660295	0.000466	4.660536	1.579032	0.000187
1598	1.5890e+02	-16.3728	-122.502847	0.000395	3.951324	1.338745	0.000158
1599	1.5900e+02	-16.3279	-122.296953	0.000517	5.167116	1.750666	0.000207
1600	1.5910e+02	-16.2910	-122.139505	0.000395	3.951324	1.338745	0.000158
1601	1.5920e+02	-16.2541	-121.965908	0.000436	4.356588	1.476052	0.000174
1602	1.5930e+02	-16.2028	-121.727717	0.000598	5.977644	2.025281	0.000239
1603	1.5940e+02	-16.1675	-121.517786	0.000527	5.268432	1.784993	0.000211
1604	1.5950e+02	-16.1322	-121.336115	0.000456	4.559220	1.544706	0.000183
1605	1.5960e+02	-16.0921	-121.182703	0.000385	3.850008	1.304418	0.000154
1606	1.5970e+02	-16.0568	-120.952587	0.000578	5.775012	1.956627	0.000231
1607	1.5980e+02	-16.0151	-120.766878	0.000466	4.660536	1.579032	0.000187
1608	1.5990e+02	-15.9733	-120.589244	0.000446	4.457904	1.510379	0.000179
1609	1.6000e+02	-15.9381	-120.274348	0.000790	7.902648	2.677490	0.000316
1610	1.6010e+02	-15.8963	-120.137085	0.000344	3.444744	1.167111	0.000138
1611	1.6019e+02	-15.8514	-119.931191	0.000517	5.167116	1.750666	0.000207
1612	1.6029e+02	-15.8161	-119.737409	0.000486	4.863168	1.647686	0.000195
1613	1.6039e+02	-15.7744	-119.527478	0.000527	5.268432	1.784993	0.000211
1614	1.6049e+02	-15.7295	-119.317547	0.000527	5.268432	1.784993	0.000211
1615	1.6059e+02	-15.6926	-119.127801	0.000476	4.761852	1.613359	0.000191
1616	1.6069e+02	-15.6509	-118.978427	0.000375	3.748692	1.270091	0.000150
1617	1.6079e+02	-15.6172	-118.792719	0.000466	4.660536	1.579032	0.000187
1618	1.6089e+02	-15.5787	-118.586825	0.000517	5.167116	1.750666	0.000207
1619	1.6099e+02	-15.5322	-118.405154	0.000456	4.559220	1.544706	0.000183
1620	1.6109e+02	-15.4921	-118.207334	0.000496	4.964484	1.682013	0.000199
1621	1.6119e+02	-15.4488	-118.017589	0.000476	4.761852	1.613359	0.000191
1622	1.6129e+02	-15.4151	-117.783435	0.000588	5.876328	1.990954	0.000235
1623	1.6139e+02	-15.3702	-117.565430	0.000547	5.471064	1.853647	0.000219
1624	1.6149e+02	-15.3300	-117.420093	0.000365	3.647376	1.235764	0.000146
1625	1.6159e+02	-15.2932	-117.198050	0.000557	5.572380	1.887974	0.000223
1626	1.6169e+02	-15.2611	-116.984082	0.000537	5.369748	1.819320	0.000215
1627	1.6179e+02	-15.2194	-116.774151	0.000527	5.268432	1.784993	0.000211
1628	1.6189e+02	-15.1712	-116.548072	0.000567	5.673696	1.922300	0.000227
1629	1.6199e+02	-15.1359	-116.313918	0.000588	5.876328	1.990954	0.000235
1630	1.6209e+02	-15.0974	-116.103987	0.000527	5.268432	1.784993	0.000211
1631	1.6219e+02	-15.0605	-115.934427	0.000426	4.255272	1.441725	0.000170
1632	1.6228e+02	-15.0172	-115.736607	0.000496	4.964484	1.682013	0.000199
1633	1.6238e+02	-14.9723	-115.526676	0.000527	5.268432	1.784993	0.000211
1634	1.6248e+02	-14.9322	-115.409599	0.000294	2.938164	0.995477	0.000118
1635	1.6258e+02	-14.8937	-115.179483	0.000578	5.775012	1.956627	0.000231
1636	1.6268e+02	-14.8520	-114.981663	0.000496	4.964484	1.682013	0.000199
1637	1.6278e+02	-14.8151	-114.791918	0.000476	4.761852	1.613359	0.000191
1638	1.6288e+02	-14.7798	-114.581987	0.000527	5.268432	1.784993	0.000211
1639	1.6298e+02	-14.7445	-114.392241	0.000476	4.761852	1.613359	0.000191
1640	1.6308e+02	-14.6900	-114.170199	0.000557	5.572380	1.887974	0.000223
1641	1.6318e+02	-14.6579	-113.956230	0.000537	5.369748	1.819320	0.000215
1642	1.6328e+02	-14.6130	-113.778597	0.000446	4.457904	1.510379	0.000179
1643	1.6338e+02	-14.5809	-113.576740	0.000507	5.065800	1.716340	0.000203
1644	1.6348e+02	-14.5408	-113.326437	0.000628	6.281592	2.128261	0.000252
1645	1.6358e+02	-14.4942	-113.128618	0.000496	4.964484	1.682013	0.000199
1646	1.6368e+02	-14.4573	-112.866204	0.000659	6.585540	2.231241	0.000264
1647	1.6378e+02	-14.4188	-112.688570	0.000446	4.457904	1.510379	0.000179
1648	1.6388e+02	-14.3852	-112.474602	0.000537	5.369748	1.819320	0.000215
1649	1.6398e+02	-14.3370	-112.244485	0.000578	5.775012	1.956627	0.000231
1650	1.6408e+02	-14.3033	-112.119334	0.000314	3.140796	1.064131	0.000126
1651	1.6418e+02	-14.2552	-111.925551	0.000486	4.863168	1.647686	0.000195
1652	1.6427e+02	-14.2087	-111.699472	0.000567	5.673696	1.922300	0.000227
1653	1.6437e+02	-14.1798	-111.501652	0.000496	4.964484	1.682013	0.000199
1654	1.6447e+02	-14.1365	-111.319981	0.000456	4.559220	1.544706	0.000183
1655	1.6457e+02	-14.1012	-111.093901	0.000567	5.673696	1.922300	0.000227
1656	1.6467e+02	-14.0579	-110.916267	0.000446	4.457904	1.510379	0.000179
1657	1.6477e+02	-14.0130	-110.670002	0.000618	6.180276	2.093934	0.000248
1658	1.6487e+02	-13.9713	-110.472182	0.000496	4.964484	1.682013	0.000199
1659	1.6497e+02	-13.9424	-110.274363	0.000496	4.964484	1.682013	0.000199
1660	1.6507e+02	-13.8975	-110.064432	0.000527	5.268432	1.784993	0.000211
1661	1.6517e+02	-13.8622	-109.850463	0.000537	5.369748	1.819320	0.000215
1662	1.6527e+02	-13.8157	-109.567864	0.000709	7.092120	2.402875	0.000284
1663	1.6537e+02	-13.7707	-109.386193	0.000456	4.559220	1.544706	0.000183
1664	1.6547e+02	-13.7386	-109.172225	0.000537	5.369748	1.819320	0.000215
1665	1.6557e+02	-13.7034	-108.994591	0.000446	4.457904	1.510379	0.000179
1666	1.6567e+02	-13.6633	-108.756400	0.000598	5.977644	2.025281	0.000239
1667	1.6577e+02	-13.6199	-108.550506	0.000517	5.167116	1.750666	0.000207
1668	1.6587e+02	-13.5814	-108.320389	0.000578	5.775012	1.956627	0.000231
1669	1.6597e+02	-13.5381	-108.130644	0.000476	4.761852	1.613359	0.000191
1670	1.6607e+02	-13.4948	-107.953010	0.000446	4.457904	1.510379	0.000179
1671	1.6616e+02	-13.4595	-107.730967	0.000557	5.572380	1.887974	0.000223
1672	1.6626e+02	-13.4258	-107.553333	0.000446	4.457904	1.510379	0.000179
1673	1.6636e+02	-13.3745	-107.331291	0.000557	5.572380	1.887974	0.000223
1674	1.6646e+02	-13.3344	-107.125397	0.000517	5.167116	1.750666	0.000207
1675	1.6656e+02	-13.3119	-106.907391	0.000547	5.471064	1.853647	0.000219
1676	1.6666e+02	-13.2574	-106.632866	0.000689	6.889488	2.334222	0.000276
1677	1.6676e+02	-13.2253	-106.439084	0.000486	4.863168	1.647686	0.000195
1678	1.6686e+02	-13.1708	-106.273561	0.000415	4.153956	1.407398	0.000166
1679	1.6696e+02	-13.1419	-105.986925	0.000719	7.193436	2.437202	0.000288
1680	1.6706e+02	-13.1034	-105.776993	0.000527	5.268432	1.784993	0.000211
1681	1.6716e+02	-13.0617	-105.538802	0.000598	5.977644	2.025281	0.000239
1682	1.6726e+02	-13.0296	-105.316760	0.000557	5.572380	1.887974	0.000223
1683	1.6736e+02	-12.9847	-105.131052	0.000466	4.660536	1.579032	0.000187
1684	1.6746e+02	-12.9462	-104.892861	0.000598	5.977644	2.025281	0.000239
1685	1.6756e+02	-12.9028	-104.678893	0.000537	5.369748	1.819320	0.000215
1686	1.6766e+02	-12.8611	-104.493184	0.000466	4.660536	1.579032	0.000187
1687	1.6776e+02	-12.8242	-104.295365	0.000496	4.964484	1.682013	0.000199
1688	1.6786e+02	-12.7841	-104.097545	0.000496	4.964484	1.682013	0.000199
1689	1.6796e+02	-12.7376	-103.871465	0.000567	5.673696	1.922300	0.000227
1690	1.6806e+02	-12.7055	-103.677683	0.000486	4.863168	1.647686	0.000195
1691	1.6816e+02	-12.6702	-103.443529	0.000588	5.876328	1.990954	0.000235
1692	1.6825e+02	-12.6221	-103.229561	0.000537	5.369748	1.819320	0.000215
1693	1.6835e+02	-12.5868	-102.995407	0.000588	5.876328	1.990954	0.000235
1694	1.6845e+02	-12.5419	-102.777402	0.000547	5.471064	1.853647	0.000219
1695	1.6855e+02	-12.5050	-102.571508	0.000517	5.167116	1.750666	0.000207
1696	1.6865e+02	-12.4633	-102.345428	0.000567	5.673696	1.922300	0.000227
1697	1.6875e+02	-12.4328	-102.139534	0.000517	5.167116	1.750666	0.000207
1698	1.6885e+02	-12.3975	-101.856935	0.000709	7.092120	2.402875	0.000284
1699	1.6895e+02	-12.3446	-101.642966	0.000537	5.369748	1.819320	0.000215
1700	1.6905e+02	-12.3029	-101.400738	0.000608	6.078960	2.059607	0.000243
1701	1.6915e+02	-12.2612	-101.215030	0.000466	4.660536	1.579032	0.000187
1702	1.6925e+02	-12.2323	-101.001062	0.000537	5.369748	1.819320	0.000215
1703	1.6935e+02	-12.1793	-100.774982	0.000567	5.673696	1.922300	0.000227
1704	1.6945e+02	-12.1376	-100.565051	0.000527	5.268432	1.784993	0.000211
1705	1.6955e+02	-12.1071	-100.326860	0.000598	5.977644	2.025281	0.000239
1706	1.6965e+02	-12.0670	-100.141152	0.000466	4.660536	1.579032	0.000187
1707	1.6975e+02	-12.0221	-99.915072	0.000567	5.673696	1.922300	0.000227
1708	1.6985e+02	-11.9916	-99.672844	0.000608	6.078960	2.059607	0.000243
1709	1.6995e+02	-11.9499	-99.475025	0.000496	4.964484	1.682013	0.000199
1710	1.7005e+02	-11.9082	-99.232796	0.000608	6.078960	2.059607	0.000243
1711	1.7015e+02	-11.8681	-99.026903	0.000517	5.167116	1.750666	0.000207
1712	1.7024e+02	-11.8296	-98.748340	0.000699	6.990804	2.368549	0.000280
1713	1.7034e+02	-11.7815	-98.534372	0.000537	5.369748	1.819320	0.000215
1714	1.7044e+02	-11.7574	-98.300218	0.000588	5.876328	1.990954	0.000235
1715	1.7054e+02	-11.7045	-98.070101	0.000578	5.775012	1.956627	0.000231
1716	1.7064e+02	-11.6788	-97.839985	0.000578	5.775012	1.956627	0.000231
1717	1.7074e+02	-11.6307	-97.617942	0.000557	5.572380	1.887974	0.000223
1718	1.7084e+02	-11.5938	-97.395900	0.000557	5.572380	1.887974	0.000223
1719	1.7094e+02	-11.5489	-97.157709	0.000598	5.977644	2.025281	0.000239
1720	1.7104e+02	-11.4991	-96.959889	0.000496	4.964484	1.682013	0.000199
1721	1.7114e+02	-11.4687	-96.721698	0.000598	5.977644	2.025281	0.000239
1722	1.7124e+02	-11.4270	-96.503693	0.000547	5.471064	1.853647	0.000219
1723	1.7134e+02	-11.3852	-96.249353	0.000638	6.382908	2.162588	0.000256
1724	1.7144e+02	-11.3516	-96.039422	0.000527	5.268432	1.784993	0.000211
1725	1.7154e+02	-11.3082	-95.817380	0.000557	5.572380	1.887974	0.000223
1726	1.7164e+02	-11.2713	-95.579189	0.000598	5.977644	2.025281	0.000239
1727	1.7174e+02	-11.2216	-95.340998	0.000598	5.977644	2.025281	0.000239
1728	1.7184e+02	-11.1943	-95.058398	0.000709	7.092120	2.402875	0.000284
1729	1.7194e+02	-11.1623	-94.913061	0.000365	3.647376	1.235764	0.000146
1730	1.7204e+02	-11.1141	-94.674870	0.000598	5.977644	2.025281	0.000239
1731	1.7213e+02	-11.0660	-94.396308	0.000699	6.990804	2.368549	0.000280
1732	1.7223e+02	-11.0355	-94.162154	0.000588	5.876328	1.990954	0.000235
1733	1.7233e+02	-10.9890	-93.923963	0.000598	5.977644	2.025281	0.000239
1734	1.7243e+02	-10.9473	-93.673661	0.000628	6.281592	2.128261	0.000252
1735	1.7253e+02	-10.9120	-93.455655	0.000547	5.471064	1.853647	0.000219
1736	1.7263e+02	-10.8767	-93.181130	0.000689	6.889488	2.334222	0.000276
1737	1.7273e+02	-10.8270	-92.955050	0.000567	5.673696	1.922300	0.000227
1738	1.7283e+02	-10.7837	-92.741082	0.000537	5.369748	1.819320	0.000215
1739	1.7293e+02	-10.7419	-92.519040	0.000557	5.572380	1.887974	0.000223
1740	1.7303e+02	-10.7147	-92.337369	0.000456	4.559220	1.544706	0.000183
1741	1.7313e+02	-10.6633	-92.070918	0.000669	6.686856	2.265568	0.000268
1742	1.7323e+02	-10.6377	-91.820615	0.000628	6.281592	2.128261	0.000252
1743	1.7333e+02	-10.5879	-91.618758	0.000507	5.065800	1.716340	0.000203
1744	1.7343e+02	-10.5494	-91.368456	0.000628	6.281592	2.128261	0.000252
1745	1.7353e+02	-10.5109	-91.138339	0.000578	5.775012	1.956627	0.000231
1746	1.7363e+02	-10.4692	-90.859777	0.000699	6.990804	2.368549	0.000280
1747	1.7373e+02	-10.4339	-90.653883	0.000517	5.167116	1.750666	0.000207
1748	1.7383e+02	-10.3922	-90.439915	0.000537	5.369748	1.819320	0.000215
1749	1.7393e+02	-10.3489	-90.169427	0.000679	6.788172	2.299895	0.000272
1750	1.7403e+02	-10.3184	-89.931236	0.000598	5.977644	2.025281	0.000239
1751	1.7413e+02	-10.2687	-89.648636	0.000709	7.092120	2.402875	0.000284
1752	1.7422e+02	-10.2366	-89.402371	0.000618	6.180276	2.093934	0.000248
1753	1.7432e+02	-10.1933	-89.160143	0.000608	6.078960	2.059607	0.000243
1754	1.7442e+02	-10.1660	-88.921952	0.000598	5.977644	2.025281	0.000239
1755	1.7452e+02	-10.1211	-88.683761	0.000598	5.977644	2.025281	0.000239
1756	1.7462e+02	-10.0778	-88.485941	0.000496	4.964484	1.682013	0.000199
1757	1.7472e+02	-10.0329	-88.255824	0.000578	5.775012	1.956627	0.000231
1758	1.7482e+02	-9.9880	-87.977262	0.000699	6.990804	2.368549	0.000280
1759	1.7492e+02	-9.9478	-87.759257	0.000547	5.471064	1.853647	0.000219
1760	1.7502e+02	-9.9126	-87.529140	0.000578	5.775012	1.956627	0.000231
1761	1.7512e+02	-9.8724	-87.282875	0.000618	6.180276	2.093934	0.000248
1762	1.7522e+02	-9.8307	-87.060832	0.000557	5.572380	1.887974	0.000223
1763	1.7532e+02	-9.7954	-86.806493	0.000638	6.382908	2.162588	0.000256
1764	1.7542e+02	-9.7457	-86.576376	0.000578	5.775012	1.956627	0.000231
1765	1.7552e+02	-9.7136	-86.317999	0.000648	6.484224	2.196915	0.000260
1766	1.7562e+02	-9.6815	-86.091920	0.000567	5.673696	1.922300	0.000227
1767	1.7572e+02	-9.6350	-85.837580	0.000638	6.382908	2.162588	0.000256
1768	1.7582e+02	-9.5997	-85.615538	0.000557	5.572380	1.887974	0.000223
1769	1.7592e+02	-9.5612	-85.369272	0.000618	6.180276	2.093934	0.000248
1770	1.7602e+02	-9.5195	-85.058413	0.000780	7.801332	2.643163	0.000312
1771	1.7612e+02	-9.4794	-84.820222	0.000598	5.977644	2.025281	0.000239
1772	1.7621e+02	-9.4425	-84.590105	0.000578	5.775012	1.956627	0.000231
1773	1.7631e+02	-9.3960	-84.331728	0.000648	6.484224	2.196915	0.000260
1774	1.7641e+02	-9.3527	-84.097575	0.000588	5.876328	1.990954	0.000235
1775	1.7651e+02	-9.3238	-83.855346	0.000608	6.078960	2.059607	0.000243
1776	1.7661e+02	-9.2725	-83.641378	0.000537	5.369748	1.819320	0.000215
1777	1.7671e+02	-9.2372	-83.383002	0.000648	6.484224	2.196915	0.000260
1778	1.7681e+02	-9.1906	-83.148848	0.000588	5.876328	1.990954	0.000235
1779	1.7691e+02	-9.1570	-82.894508	0.000638	6.382908	2.162588	0.000256
1780	1.7701e+02	-9.1120	-82.696688	0.000496	4.964484	1.682013	0.000199
1781	1.7711e+02	-9.0832	-82.422163	0.000689	6.889488	2.334222	0.000276
1782	1.7721e+02	-9.0366	-82.171861	0.000628	6.281592	2.128261	0.000252
1783	1.7731e+02	-8.9917	-81.877150	0.000740	7.396068	2.505856	0.000296
1784	1.7741e+02	-8.9596	-81.659145	0.000547	5.471064	1.853647	0.000219
1785	1.7751e+02	-8.9195	-81.449214	0.000527	5.268432	1.784993	0.000211
1786	1.7761e+02	-8.8810	-81.215060	0.000588	5.876328	1.990954	0.000235
1787	1.7771e+02	-8.8377	-80.908237	0.000770	7.700016	2.608836	0.000308
1788	1.7781e+02	-8.7976	-80.625638	0.000709	7.092120	2.402875	0.000284
1789	1.7791e+02	-8.7623	-80.367261	0.000648	6.484224	2.196915	0.000260
1790	1.7801e+02	-8.7190	-80.153293	0.000537	5.369748	1.819320	0.000215
1791	1.7810e+02	-8.6773	-79.967585	0.000466	4.660536	1.579032	0.000187
1792	1.7820e+02	-8.6404	-79.697097	0.000679	6.788172	2.299895	0.000272
1793	1.7830e+02	-8.5955	-79.422571	0.000689	6.889488	2.334222	0.000276
1794	1.7840e+02	-8.5602	-79.204566	0.000547	5.471064	1.853647	0.000219
1795	1.7850e+02	-8.5233	-78.913892	0.000729	7.294752	2.471529	0.000292
1796	1.7860e+02	-8.4880	-78.712035	0.000507	5.065800	1.716340	0.000203
1797	1.7870e+02	-8.4367	-78.469807	0.000608	6.078960	2.059607	0.000243
1798	1.7880e+02	-8.4062	-78.219505	0.000628	6.281592	2.128261	0.000252
1799	1.7890e+02	-8.3629	-77.989388	0.000578	5.775012	1.956627	0.000231
1800	1.7900e+02	-8.3260	-77.731012	0.000648	6.484224	2.196915	0.000260
1801	1.7910e+02	-8.2827	-77.476672	0.000638	6.382908	2.162588	0.000256
1802	1.7920e+02	-8.2490	-77.222332	0.000638	6.382908	2.162588	0.000256
1803	1.7930e+02	-8.2057	-76.951844	0.000679	6.788172	2.299895	0.000272
1804	1.7940e+02	-8.1704	-76.741913	0.000527	5.268432	1.784993	0.000211
1805	1.7950e+02	-8.1206	-76.467388	0.000689	6.889488	2.334222	0.000276
1806	1.7960e+02	-8.0853	-76.172677	0.000740	7.396068	2.505856	0.000296
1807	1.7970e+02	-8.0452	-75.914300	0.000648	6.484224	2.196915	0.000260
1808	1.7980e+02	-7.9971	-75.704369	0.000527	5.268432	1.784993	0.000211
1809	1.7990e+02	-7.9602	-75.445993	0.000648	6.484224	2.196915	0.000260
1810	1.8000e+02	-7.9217	-75.199727	0.000618	6.180276	2.093934	0.000248
1811	1.8009e+02	-7.8816	-74.965574	0.000588	5.876328	1.990954	0.000235
1812	1.8019e+02	-7.8431	-74.707197	0.000648	6.484224	2.196915	0.000260
1813	1.8029e+02	-7.8014	-74.452857	0.000638	6.382908	2.162588	0.000256
1814	1.8039e+02	-7.7629	-74.206592	0.000618	6.180276	2.093934	0.000248
1815	1.8049e+02	-7.7212	-73.948215	0.000648	6.484224	2.196915	0.000260
1816	1.8059e+02	-7.6763	-73.693876	0.000638	6.382908	2.162588	0.000256
1817	1.8069e+02	-7.6410	-73.471833	0.000557	5.572380	1.887974	0.000223
1818	1.8079e+02	-7.5976	-73.169048	0.000760	7.598700	2.574509	0.000304
1819	1.8089e+02	-7.5656	-72.926820	0.000608	6.078960	2.059607	0.000243
1820	1.8099e+02	-7.5287	-72.660369	0.000669	6.686856	2.265568	0.000268
1821	1.8109e+02	-7.4805	-72.430252	0.000578	5.775012	1.956627	0.000231
1822	1.8119e+02	-7.4372	-72.183987	0.000618	6.180276	2.093934	0.000248
1823	1.8129e+02	-7.4035	-71.901387	0.000709	7.092120	2.402875	0.000284
1824	1.8139e+02	-7.3779	-71.651085	0.000628	6.281592	2.128261	0.000252
1825	1.8149e+02	-7.3233	-71.400783	0.000628	6.281592	2.128261	0.000252
1826	1.8159e+02	-7.2784	-71.126257	0.000689	6.889488	2.334222	0.000276
1827	1.8169e+02	-7.2383	-70.892104	0.000588	5.876328	1.990954	0.000235
1828	1.8179e+02	-7.2046	-70.649875	0.000608	6.078960	2.059607	0.000243
1829	1.8189e+02	-7.1613	-70.415722	0.000588	5.876328	1.990954	0.000235
1830	1.8199e+02	-7.1276	-70.121011	0.000740	7.396068	2.505856	0.000296
1831	1.8209e+02	-7.0827	-69.915117	0.000517	5.167116	1.750666	0.000207
1832	1.8218e+02	-7.0458	-69.656740	0.000648	6.484224	2.196915	0.000260
1833	1.8228e+02	-7.0025	-69.434698	0.000557	5.572380	1.887974	0.000223
1834	1.8238e+02	-6.9704	-69.115764	0.000800	8.003964	2.711817	0.000321
1835	1.8248e+02	-6.9207	-68.897759	0.000547	5.471064	1.853647	0.000219
1836	1.8258e+02	-6.8902	-68.627270	0.000679	6.788172	2.299895	0.000272
1837	1.8268e+02	-6.8421	-68.401191	0.000567	5.673696	1.922300	0.000227
1838	1.8278e+02	-6.8052	-68.066109	0.000841	8.409228	2.849124	0.000337
1839	1.8288e+02	-6.7650	-67.827918	0.000598	5.977644	2.025281	0.000239
1840	1.8298e+02	-6.7298	-67.605875	0.000557	5.572380	1.887974	0.000223
1841	1.8308e+02	-6.6897	-67.311164	0.000740	7.396068	2.505856	0.000296
1842	1.8318e+02	-6.6479	-67.008379	0.000760	7.598700	2.574509	0.000304
1843	1.8328e+02	-6.6078	-66.754039	0.000638	6.382908	2.162588	0.000256
1844	1.8338e+02	-6.5677	-66.515848	0.000598	5.977644	2.025281	0.000239
1845	1.8348e+02	-6.5244	-66.265546	0.000628	6.281592	2.128261	0.000252
1846	1.8358e+02	-6.4955	-66.027355	0.000598	5.977644	2.025281	0.000239
1847	1.8368e+02	-6.4570	-65.732644	0.000740	7.396068	2.505856	0.000296
1848	1.8378e+02	-6.4153	-65.502527	0.000578	5.775012	1.956627	0.000231
1849	1.8388e+02	-6.3720	-65.260299	0.000608	6.078960	2.059607	0.000243
1850	1.8398e+02	-6.3239	-65.026145	0.000588	5.876328	1.990954	0.000235
1851	1.8407e+02	-6.2934	-64.787954	0.000598	5.977644	2.025281	0.000239
1852	1.8417e+02	-6.2533	-64.509392	0.000699	6.990804	2.368549	0.000280
1853	1.8427e+02	-6.2164	-64.206607	0.000760	7.598700	2.574509	0.000304
1854	1.8437e+02	-6.1747	-63.952267	0.000638	6.382908	2.162588	0.000256
1855	1.8447e+02	-6.1362	-63.710039	0.000608	6.078960	2.059607	0.000243
1856	1.8457e+02	-6.0833	-63.459737	0.000628	6.281592	2.128261	0.000252
1857	1.8467e+02	-6.0592	-63.193286	0.000669	6.686856	2.265568	0.000268
1858	1.8477e+02	-6.0127	-62.930872	0.000659	6.585540	2.231241	0.000264
1859	1.8487e+02	-5.9710	-62.620012	0.000780	7.801332	2.643163	0.000312
1860	1.8497e+02	-5.9437	-62.365673	0.000638	6.382908	2.162588	0.000256
1861	1.8507e+02	-5.8923	-62.070962	0.000740	7.396068	2.505856	0.000296
1862	1.8517e+02	-5.8571	-61.808548	0.000659	6.585540	2.231241	0.000264
1863	1.8527e+02	-5.8105	-61.578431	0.000578	5.775012	1.956627	0.000231
1864	1.8537e+02	-5.7688	-61.332166	0.000618	6.180276	2.093934	0.000248
1865	1.8547e+02	-5.7351	-61.077827	0.000638	6.382908	2.162588	0.000256
1866	1.8557e+02	-5.6886	-60.783116	0.000740	7.396068	2.505856	0.000296
1867	1.8567e+02	-5.6517	-60.552999	0.000578	5.775012	1.956627	0.000231
1868	1.8577e+02	-5.6132	-60.266362	0.000719	7.193436	2.437202	0.000288
1869	1.8587e+02	-5.5779	-60.007986	0.000648	6.484224	2.196915	0.000260
1870	1.8597e+02	-5.5298	-59.737498	0.000679	6.788172	2.299895	0.000272
1871	1.8606e+02	-5.5009	-59.495269	0.000608	6.078960	2.059607	0.000243
1872	1.8616e+02	-5.4560	-59.156150	0.000851	8.510544	2.883450	0.000341
1873	1.8626e+02	-5.4095	-58.950256	0.000517	5.167116	1.750666	0.000207
1874	1.8636e+02	-5.3710	-58.639397	0.000780	7.801332	2.643163	0.000312
1875	1.8646e+02	-5.3357	-58.389094	0.000628	6.281592	2.128261	0.000252
1876	1.8656e+02	-5.2924	-58.138792	0.000628	6.281592	2.128261	0.000252
1877	1.8666e+02	-5.2523	-57.848118	0.000729	7.294752	2.471529	0.000292
1878	1.8676e+02	-5.2154	-57.545333	0.000760	7.598700	2.574509	0.000304
1879	1.8686e+02	-5.1817	-57.278882	0.000669	6.686856	2.265568	0.000268
1880	1.8696e+02	-5.1335	-56.992245	0.000719	7.193436	2.437202	0.000288
1881	1.8706e+02	-5.0918	-56.770203	0.000557	5.572380	1.887974	0.000223
1882	1.8716e+02	-5.0565	-56.467418	0.000760	7.598700	2.574509	0.000304
1883	1.8726e+02	-5.0116	-56.233264	0.000588	5.876328	1.990954	0.000235
1884	1.8736e+02	-4.9779	-55.946627	0.000719	7.193436	2.437202	0.000288
1885	1.8746e+02	-4.9250	-55.700362	0.000618	6.180276	2.093934	0.000248
1886	1.8756e+02	-4.8961	-55.458134	0.000608	6.078960	2.059607	0.000243
1887	1.8766e+02	-4.8512	-55.155348	0.000760	7.598700	2.574509	0.000304
1888	1.8776e+02	-4.8159	-54.901009	0.000638	6.382908	2.162588	0.000256
1889	1.8786e+02	-4.7822	-54.626484	0.000689	6.889488	2.334222	0.000276
1890	1.8796e+02	-4.7373	-54.343884	0.000709	7.092120	2.402875	0.000284
1891	1.8806e+02	-4.6924	-54.033025	0.000780	7.801332	2.643163	0.000312
1892	1.8815e+02	-4.6539	-53.774648	0.000648	6.484224	2.196915	0.000260
1893	1.8825e+02	-4.6186	-53.500123	0.000689	6.889488	2.334222	0.000276
1894	1.8835e+02	-4.5753	-53.233672	0.000669	6.686856	2.265568	0.000268
1895	1.8845e+02	-4.5352	-52.951072	0.000709	7.092120	2.402875	0.000284
1896	1.8855e+02	-4.5015	-52.640213	0.000780	7.801332	2.643163	0.000312
1897	1.8865e+02	-4.4646	-52.333391	0.000770	7.700016	2.608836	0.000308
1898	1.8875e+02	-4.4116	-52.066940	0.000669	6.686856	2.265568	0.000268
1899	1.8885e+02	-4.3747	-51.768192	0.000750	7.497384	2.540183	0.000300
1900	1.8895e+02	-4.3378	-51.558261	0.000527	5.268432	1.784993	0.000211
1901	1.8905e+02	-4.2993	-51.287772	0.000679	6.788172	2.299895	0.000272
1902	1.8915e+02	-4.2560	-50.997099	0.000729	7.294752	2.471529	0.000292
1903	1.8925e+02	-4.2143	-50.766982	0.000578	5.775012	1.956627	0.000231
1904	1.8935e+02	-4.1806	-50.448048	0.000800	8.003964	2.711817	0.000321
1905	1.8945e+02	-4.1357	-50.121040	0.000821	8.206596	2.780470	0.000329
1906	1.8955e+02	-4.1052	-49.890923	0.000578	5.775012	1.956627	0.000231
1907	1.8965e+02	-4.0619	-49.636584	0.000638	6.382908	2.162588	0.000256
1908	1.8975e+02	-4.0346	-49.333799	0.000760	7.598700	2.574509	0.000304
1909	1.8985e+02	-3.9817	-49.018902	0.000790	7.902648	2.677490	0.000316
1910	1.8995e+02	-3.9432	-48.817045	0.000507	5.065800	1.716340	0.000203
1911	1.9004e+02	-3.8983	-48.506186	0.000780	7.801332	2.643163	0.000312
1912	1.9014e+02	-3.8582	-48.207438	0.000750	7.497384	2.540183	0.000300
1913	1.9024e+02	-3.8341	-47.912727	0.000740	7.396068	2.505856	0.000296
1914	1.9034e+02	-3.7972	-47.662425	0.000628	6.281592	2.128261	0.000252
1915	1.9044e+02	-3.7411	-47.311194	0.000881	8.814492	2.986431	0.000353
1916	1.9054e+02	-3.6929	-47.028594	0.000709	7.092120	2.402875	0.000284
1917	1.9064e+02	-3.6625	-46.794440	0.000588	5.876328	1.990954	0.000235
1918	1.9074e+02	-3.6272	-46.499729	0.000740	7.396068	2.505856	0.000296
1919	1.9084e+02	-3.5871	-46.192907	0.000770	7.700016	2.608836	0.000308
1920	1.9094e+02	-3.5454	-45.934530	0.000648	6.484224	2.196915	0.000260
1921	1.9104e+02	-3.5052	-45.647894	0.000719	7.193436	2.437202	0.000288
1922	1.9114e+02	-3.4539	-45.417777	0.000578	5.775012	1.956627	0.000231
1923	1.9124e+02	-3.4266	-45.106918	0.000780	7.801332	2.643163	0.000312
1924	1.9134e+02	-3.3817	-44.775872	0.000831	8.307912	2.814797	0.000333
1925	1.9144e+02	-3.3320	-44.549793	0.000567	5.673696	1.922300	0.000227
1926	1.9154e+02	-3.2967	-44.234896	0.000790	7.902648	2.677490	0.000316
1927	1.9164e+02	-3.2630	-43.984594	0.000628	6.281592	2.128261	0.000252
1928	1.9174e+02	-3.2197	-43.669697	0.000790	7.902648	2.677490	0.000316
1929	1.9184e+02	-3.1940	-43.419395	0.000628	6.281592	2.128261	0.000252
1930	1.9194e+02	-3.1427	-43.128721	0.000729	7.294752	2.471529	0.000292
1931	1.9203e+02	-3.0946	-42.809787	0.000800	8.003964	2.711817	0.000321
1932	1.9213e+02	-3.0609	-42.551411	0.000648	6.484224	2.196915	0.000260
1933	1.9223e+02	-3.0288	-42.228440	0.000811	8.105280	2.746143	0.000325
1934	1.9233e+02	-2.9871	-41.961989	0.000669	6.686856	2.265568	0.000268
1935	1.9243e+02	-2.9454	-41.655167	0.000770	7.700016	2.608836	0.000308
1936	1.9253e+02	-2.9101	-41.396790	0.000648	6.484224	2.196915	0.000260
1937	1.9263e+02	-2.8652	-41.138413	0.000648	6.484224	2.196915	0.000260
1938	1.9273e+02	-2.8218	-40.827554	0.000780	7.801332	2.643163	0.000312
1939	1.9283e+02	-2.7833	-40.540917	0.000719	7.193436	2.437202	0.000288
1940	1.9293e+02	-2.7481	-40.286578	0.000638	6.382908	2.162588	0.000256
1941	1.9303e+02	-2.7079	-39.963607	0.000811	8.105280	2.746143	0.000325
1942	1.9313e+02	-2.6630	-39.697156	0.000669	6.686856	2.265568	0.000268
1943	1.9323e+02	-2.6293	-39.402445	0.000740	7.396068	2.505856	0.000296
1944	1.9333e+02	-2.5876	-39.127920	0.000689	6.889488	2.334222	0.000276
1945	1.9343e+02	-2.5379	-38.821097	0.000770	7.700016	2.608836	0.000308
1946	1.9353e+02	-2.5058	-38.518312	0.000760	7.598700	2.574509	0.000304
1947	1.9363e+02	-2.4753	-38.268010	0.000628	6.281592	2.128261	0.000252
1948	1.9373e+02	-2.4224	-37.985410	0.000709	7.092120	2.402875	0.000284
1949	1.9383e+02	-2.3903	-37.674551	0.000780	7.801332	2.643163	0.000312
1950	1.9393e+02	-2.3470	-37.383877	0.000729	7.294752	2.471529	0.000292
1951	1.9403e+02	-2.3085	-37.060906	0.000811	8.105280	2.746143	0.000325
1952	1.9412e+02	-2.2556	-36.786381	0.000689	6.889488	2.334222	0.000276
1953	1.9422e+02	-2.2203	-36.507818	0.000699	6.990804	2.368549	0.000280
1954	1.9432e+02	-2.1866	-36.209070	0.000750	7.497384	2.540183	0.000300
1955	1.9442e+02	-2.1449	-35.950694	0.000648	6.484224	2.196915	0.000260
1956	1.9452e+02	-2.1160	-35.643871	0.000770	7.700016	2.608836	0.000308
1957	1.9462e+02	-2.0695	-35.381458	0.000659	6.585540	2.231241	0.000264
1958	1.9472e+02	-2.0245	-35.106932	0.000689	6.889488	2.334222	0.000276
1959	1.9482e+02	-1.9909	-34.800110	0.000770	7.700016	2.608836	0.000308
1960	1.9492e+02	-1.9411	-34.537696	0.000659	6.585540	2.231241	0.000264
1961	1.9502e+02	-1.9122	-34.218763	0.000800	8.003964	2.711817	0.000321
1962	1.9512e+02	-1.8689	-33.940200	0.000699	6.990804	2.368549	0.000280
1963	1.9522e+02	-1.8256	-33.653564	0.000719	7.193436	2.437202	0.000288
1964	1.9532e+02	-1.7855	-33.310407	0.000861	8.611860	2.917777	0.000345
1965	1.9542e+02	-1.7486	-33.072216	0.000598	5.977644	2.025281	0.000239
1966	1.9552e+02	-1.7053	-32.805765	0.000669	6.686856	2.265568	0.000268
1967	1.9562e+02	-1.6748	-32.515091	0.000729	7.294752	2.471529	0.000292
1968	1.9572e+02	-1.6299	-32.184046	0.000831	8.307912	2.814797	0.000333
1969	1.9582e+02	-1.5930	-31.913558	0.000679	6.788172	2.299895	0.000272
1970	1.9592e+02	-1.5497	-31.602699	0.000780	7.801332	2.643163	0.000312
1971	1.9601e+02	-1.5080	-31.340285	0.000659	6.585540	2.231241	0.000264
1972	1.9611e+02	-1.4695	-31.029425	0.000780	7.801332	2.643163	0.000312
1973	1.9621e+02	-1.4278	-30.767011	0.000659	6.585540	2.231241	0.000264
1974	1.9631e+02	-1.3893	-30.435966	0.000831	8.307912	2.814797	0.000333
1975	1.9641e+02	-1.3556	-30.185664	0.000628	6.281592	2.128261	0.000252
1976	1.9651e+02	-1.3026	-29.890953	0.000740	7.396068	2.505856	0.000296
1977	1.9661e+02	-1.2754	-29.588168	0.000760	7.598700	2.574509	0.000304
1978	1.9671e+02	-1.2240	-29.253086	0.000841	8.409228	2.849124	0.000337
1979	1.9681e+02	-1.1919	-29.022969	0.000578	5.775012	1.956627	0.000231
1980	1.9691e+02	-1.1550	-28.708072	0.000790	7.902648	2.677490	0.000316
1981	1.9701e+02	-1.1085	-28.429510	0.000699	6.990804	2.368549	0.000280
1982	1.9711e+02	-1.0780	-28.114613	0.000790	7.902648	2.677490	0.000316
1983	1.9721e+02	-1.0347	-27.872385	0.000608	6.078960	2.059607	0.000243
1984	1.9731e+02	-0.9882	-27.569600	0.000760	7.598700	2.574509	0.000304
1985	1.9741e+02	-0.9513	-27.274889	0.000740	7.396068	2.505856	0.000296
1986	1.9751e+02	-0.9160	-26.939807	0.000841	8.409228	2.849124	0.000337
1987	1.9761e+02	-0.8663	-26.677393	0.000659	6.585540	2.231241	0.000264
1988	1.9771e+02	-0.8342	-26.390756	0.000719	7.193436	2.437202	0.000288
1989	1.9781e+02	-0.7861	-26.083934	0.000770	7.700016	2.608836	0.000308
1990	1.9791e+02	-0.7572	-25.793260	0.000729	7.294752	2.471529	0.000292
1991	1.9800e+02	-0.7091	-25.506624	0.000719	7.193436	2.437202	0.000288
1992	1.9810e+02	-0.6706	-25.252284	0.000638	6.382908	2.162588	0.000256
1993	1.9820e+02	-0.6321	-24.941425	0.000780	7.801332	2.643163	0.000312
1994	1.9830e+02	-0.5984	-24.658825	0.000709	7.092120	2.402875	0.000284
1995	1.9840e+02	-0.5535	-24.327780	0.000831	8.307912	2.814797	0.000333
1996	1.9850e+02	-0.5166	-24.077478	0.000628	6.281592	2.128261	0.000252
1997	1.9860e+02	-0.4765	-23.762581	0.000790	7.902648	2.677490	0.000316
1998	1.9870e+02	-0.4380	-23.451722	0.000780	7.801332	2.643163	0.000312
1999	1.9880e+02	-0.3930	-23.221605	0.000578	5.775012	1.956627	0.000231
2000	1.9890e+02	-0.3577	-22.922857	0.000750	7.497384	2.540183	0.000300
2001	1.9900e+02	-0.3273	-22.567589	0.000892	8.915808	3.020758	0.000357
2002	1.9910e+02	-0.2888	-22.321323	0.000618	6.180276	2.093934	0.000248
2003	1.9920e+02	-0.2374	-22.014501	0.000770	7.700016	2.608836	0.000308
2004	1.9930e+02	-0.2021	-21.723827	0.000729	7.294752	2.471529	0.000292
2005	1.9940e+02	-0.1540	-21.425079	0.000750	7.497384	2.540183	0.000300
2006	1.9950e+02	-0.1091	-21.158628	0.000669	6.686856	2.265568	0.000268
2007	1.9960e+02	-0.0642	-20.859880	0.000750	7.497384	2.540183	0.000300
2008	1.9970e+02	-0.0401	-20.561132	0.000750	7.497384	2.540183	0.000300
2009	1.9980e+02	0.0112	-20.246236	0.000750	7.497384	2.540183	0.000316

PMax (uC/cm2):	1.44e+02
Pr (uC/cm2):	1.10e+01
-Pr (uC/cm2):	-1.21e+01
PLoss (uC/cm2):	-1.21e+01
-Vc:	-1.45e+00
C (Max-Eff) (nF):	7.19e-01
K (Eff):	2.44e+03
Vert. (+/-Pr) Shift (uC/cm2):	-5.51e-01
Offset (uC/cm2):	8.11e+00

A (Loop Area - uC/cm2·Volts):	2.22e-01



Hysteresis Version: 5.48.1 - Radiant Technologies, Inc., 1999 - 9/12/24

