»»»»»»»»»»»»»»»»»»»»»»»»»»»»»»»»»»»» Hysteresis ««««««««««««««««««««««««««««««««««««
»»»  Executed Version:	5.48.1
»»»  Vision Version:	5.48.4 (R)
»»»  Vision Compiled:	9/18/24
»»»  Driver Version:	5.47.0
»»»  Windows Version:	Windows 8 or 8.1
»»»  Processor Information:	x86 (AMD or Intel) - 32 Processors
»»»  Tester Name:	PMF21124-494 (100V)
»»»  Tester S/N:	PMF21124-494
»»»  Internal Amp Type:	100V RevK 270k
»»»  Internal Amp S/N:	iAB2-596/K     
»»»  Execution Count:	1
»»»»»»»»»»»»»»»»»»»»»»»»»»»»»»»»»»»»»»»»»»««««««««««««««««««««««««««««««««««««««««««

Stored:	6/18/2025 - 15:54:46
Configured:	06/18/25 09:47:30 AM
Executed:	06/18/25 03:54:22 PM

»»»»»»»»»»»»»»»»»»»»»»»»»»»»»»»»»»» Sample Info ««««««««««««««««««««««««««««««««««««
Sample Name:	
Lot Name:	
Wafer Name:	
Die Row/Column:	0/0
Capacitor Number:	0
Sample Area (cm2):	1.00e-04
Sample Thickness (microns):	3.00e-01

Amplifier:	Internal

»»»»»»»»»»»»»»»»»»»»»»»»»»»»»»»»»»» Tester Info «««««««««««««««««««««««««««««««««««
Tester Name:	PMF21124-494 (100V)
Tester Serial Number:	PMF21124-494
Return Signal Amp. Level:	0.19 [Index: 3]

»»»»»»»»»»»»»»»»»»»»»»»»»»»»»»»» Hysteresis Info ««««««««««««««««««««««««««««««««««
Task Name:	Hyst-554
Volts:	20.00
Field:	666.67 (kV/cm)
DCBias:	0.00
DCField:	0.00 (kV/cm)
Hysteresis Period (ms):	1.00e+00
Preset:	Enabled
Preset Delay (ms):	1.00e+03
Profile:	Standard Bipolar

»»»»»»»»»»»»»»»»»»»»»»»»»»»»»»»»»»»»»» Data «««««««««««««««««««««««««««««««««««««««
Points:	2001

Valid Data

Point	Time (ms)	Drive Voltage	Measured Polarization (uC/cm2)	Capacitance (uF)	Normalized Capacitance (uF/cm2)	Dielectric Constant	Instantaneous Current (mA)
   1	0.0000e+00	0.0176	-7.080105	0.000748	7.477438	2.533424	0.059690
   2	5.0000e-04	0.0337	-6.781655	0.000748	7.477438	2.533424	0.059690
   3	1.0000e-03	0.0529	-6.709060	0.000182	1.818836	0.616238	0.014519
   4	1.5000e-03	0.0995	-6.648563	0.000152	1.515697	0.513532	0.012099
   5	2.0000e-03	0.1267	-6.515471	0.000333	3.334533	1.129770	0.026618
   6	2.5000e-03	0.1733	-6.221055	0.000738	7.376391	2.499189	0.058883
   7	3.0000e-03	0.2102	-5.914539	0.000768	7.679530	2.601895	0.061303
   8	3.5000e-03	0.2535	-5.870175	0.000111	1.111511	0.376590	0.008873
   9	4.0000e-03	0.2920	-5.555593	0.000788	7.881623	2.670366	0.062916
  10	4.5000e-03	0.3289	-5.349905	0.000515	5.153369	1.746009	0.041138
  11	5.0000e-03	0.3722	-4.999026	0.000879	8.791041	2.978485	0.070176
  12	5.5000e-03	0.4059	-4.765106	0.000586	5.860694	1.985657	0.046784
  13	6.0000e-03	0.4540	-4.636047	0.000323	3.233487	1.095535	0.025812
  14	6.5000e-03	0.4877	-4.535219	0.000253	2.526161	0.855887	0.020165
  15	7.0000e-03	0.5390	-4.454557	0.000202	2.020929	0.684709	0.016132
  16	7.5000e-03	0.5743	-4.006883	0.001122	11.216156	3.800137	0.089535
  17	8.0000e-03	0.6080	-3.539044	0.001172	11.721389	3.971314	0.093568
  18	8.5000e-03	0.6465	-3.353521	0.000465	4.648137	1.574831	0.037105
  19	9.0000e-03	0.6898	-3.349488	0.000010	0.101046	0.034235	0.000807
  20	9.5000e-03	0.7219	-2.966344	0.000960	9.599413	3.252369	0.076629
  21	1.0000e-02	0.7748	-2.744524	0.000556	5.557555	1.882951	0.044364
  22	1.0500e-02	0.8166	-2.514637	0.000576	5.759648	1.951422	0.045977
  23	1.1000e-02	0.8567	-2.409776	0.000263	2.627208	0.890122	0.020972
  24	1.1500e-02	0.8952	-2.087129	0.000808	8.083716	2.738837	0.064530
  25	1.2000e-02	0.9369	-1.780613	0.000768	7.679530	2.601895	0.061303
  26	1.2500e-02	0.9690	-1.752381	0.000071	0.707325	0.239648	0.005646
  27	1.3000e-02	1.0042	-1.324873	0.001071	10.710924	3.628959	0.085502
  28	1.3500e-02	1.0556	-0.840901	0.001213	12.125574	4.108256	0.096794
  29	1.4000e-02	1.0893	-0.848967	-0.000020	-0.202093	-0.068471	-0.001613
  30	1.4500e-02	1.1310	-0.542452	0.000768	7.679530	2.601895	0.061303
  31	1.5000e-02	1.1727	-0.413393	0.000323	3.233487	1.095535	0.025812
  32	1.5500e-02	1.2048	-0.207705	0.000515	5.153369	1.746009	0.041138
  33	1.6000e-02	1.2433	-0.131076	0.000192	1.919883	0.650474	0.015326
  34	1.6500e-02	1.2882	0.312565	0.001112	11.115110	3.765901	0.088728
  35	1.7000e-02	1.3299	0.381128	0.000172	1.717790	0.582003	0.013713
  36	1.7500e-02	1.3684	0.679577	0.000748	7.477438	2.533424	0.059690
  37	1.8000e-02	1.4037	1.107086	0.001071	10.710924	3.628959	0.085502
  38	1.8500e-02	1.4550	1.215979	0.000273	2.728254	0.924358	0.021779
  39	1.9000e-02	1.4903	1.312774	0.000243	2.425115	0.821651	0.019359
  40	1.9500e-02	1.5272	1.651554	0.000849	8.487902	2.875779	0.067756
  41	2.0000e-02	1.5721	1.990334	0.000849	8.487902	2.875779	0.067756
  42	2.0500e-02	1.6058	2.151658	0.000404	4.041858	1.369419	0.032265
  43	2.1000e-02	1.6492	2.450107	0.000748	7.477438	2.533424	0.059690
  44	2.1500e-02	1.6925	2.647729	0.000495	4.951276	1.677538	0.039524
  45	2.2000e-02	1.7213	2.885682	0.000596	5.961741	2.019892	0.047591
  46	2.2500e-02	1.7711	3.111536	0.000566	5.658601	1.917186	0.045171
  47	2.3000e-02	1.8192	3.268826	0.000394	3.940812	1.335183	0.031458
  48	2.3500e-02	1.8513	3.744732	0.001192	11.923482	4.039785	0.095181
  49	2.4000e-02	1.8930	3.974619	0.000576	5.759648	1.951422	0.045977
  50	2.4500e-02	1.9379	4.164174	0.000475	4.749183	1.609067	0.037911
  51	2.5000e-02	1.9620	4.442458	0.000697	6.972205	2.362247	0.055657
  52	2.5500e-02	2.0101	4.595716	0.000384	3.839765	1.300948	0.030652
  53	2.6000e-02	2.0454	5.063555	0.001172	11.721389	3.971314	0.093568
  54	2.6500e-02	2.0903	5.228912	0.000414	4.142905	1.403654	0.033071
  55	2.7000e-02	2.1320	5.349905	0.000303	3.031394	1.027064	0.024199
  56	2.7500e-02	2.1689	5.761281	0.001031	10.306738	3.492017	0.082275
  57	2.8000e-02	2.2106	5.983102	0.000556	5.557555	1.882951	0.044364
  58	2.8500e-02	2.2523	6.184757	0.000505	5.052323	1.711773	0.040331
  59	2.9000e-02	2.2957	6.229121	0.000111	1.111511	0.376590	0.008873
  60	2.9500e-02	2.3277	6.644530	0.001041	10.407785	3.526253	0.083082
  61	3.0000e-02	2.3759	6.753424	0.000273	2.728254	0.924358	0.021779
  62	3.0500e-02	2.4176	7.136568	0.000960	9.599413	3.252369	0.076629
  63	3.1000e-02	2.4577	7.350322	0.000536	5.355462	1.814480	0.042751
  64	3.1500e-02	2.4946	7.652805	0.000758	7.578484	2.567660	0.060496
  65	3.2000e-02	2.5315	7.923022	0.000677	6.770112	2.293776	0.054044
  66	3.2500e-02	2.5748	8.253736	0.000829	8.285809	2.807308	0.066143
  67	3.3000e-02	2.6101	8.346498	0.000232	2.324068	0.787416	0.018552
  68	3.3500e-02	2.6566	8.475557	0.000323	3.233487	1.095535	0.025812
  69	3.4000e-02	2.6791	8.806271	0.000829	8.285809	2.807308	0.066143
  70	3.4500e-02	2.7352	9.003893	0.000495	4.951276	1.677538	0.039524
  71	3.5000e-02	2.7833	9.346706	0.000859	8.588949	2.910015	0.068563
  72	3.5500e-02	2.8138	9.733883	0.000970	9.700460	3.286605	0.077435
  73	3.6000e-02	2.8539	9.782281	0.000121	1.212557	0.410826	0.009679
  74	3.6500e-02	2.8924	9.992002	0.000525	5.254416	1.780244	0.041944
  75	3.7000e-02	2.9293	10.314650	0.000808	8.083716	2.738837	0.064530
  76	3.7500e-02	2.9710	10.568735	0.000637	6.365927	2.156834	0.050817
  77	3.8000e-02	3.0095	10.790555	0.000556	5.557555	1.882951	0.044364
  78	3.8500e-02	3.0529	11.177733	0.000970	9.700460	3.286605	0.077435
  79	3.9000e-02	3.0849	11.443917	0.000667	6.669066	2.259541	0.053237
  80	3.9500e-02	3.1299	11.613307	0.000424	4.243951	1.437890	0.033878
  81	4.0000e-02	3.1716	11.693969	0.000202	2.020929	0.684709	0.016132
  82	4.0500e-02	3.2037	12.339265	0.001617	16.167433	5.477674	0.129059
  83	4.1000e-02	3.2486	12.448159	0.000273	2.728254	0.924358	0.021779
  84	4.1500e-02	3.2919	12.460258	0.000030	0.303139	0.102706	0.002420
  85	4.2000e-02	3.3320	12.682079	0.000556	5.557555	1.882951	0.044364
  86	4.2500e-02	3.3673	12.879700	0.000495	4.951276	1.677538	0.039524
  87	4.3000e-02	3.4138	13.145885	0.000667	6.669066	2.259541	0.053237
  88	4.3500e-02	3.4603	13.359639	0.000536	5.355462	1.814480	0.042751
  89	4.4000e-02	3.4940	13.787148	0.001071	10.710924	3.628959	0.085502
  90	4.4500e-02	3.5277	13.968637	0.000455	4.547090	1.540596	0.036298
  91	4.5000e-02	3.5710	14.234822	0.000667	6.669066	2.259541	0.053237
  92	4.5500e-02	3.6079	14.658297	0.001061	10.609878	3.594724	0.084695
  93	4.6000e-02	3.6593	14.617966	-0.000101	-1.010465	-0.342355	-0.008066
  94	4.6500e-02	3.6945	14.718793	0.000253	2.526161	0.855887	0.020165
  95	4.7000e-02	3.7314	15.323758	0.001516	15.156968	5.135320	0.120993
  96	4.7500e-02	3.7732	15.557678	0.000586	5.860694	1.985657	0.046784
  97	4.8000e-02	3.8084	15.751267	0.000485	4.850230	1.643302	0.038718
  98	4.8500e-02	3.8630	16.049716	0.000748	7.477438	2.533424	0.059690
  99	4.9000e-02	3.8951	16.428827	0.000950	9.498367	3.218134	0.075822
 100	4.9500e-02	3.9480	16.537721	0.000273	2.728254	0.924358	0.021779
 101	5.0000e-02	3.9689	16.916832	0.000950	9.498367	3.218134	0.075822
 102	5.0500e-02	4.0122	17.138653	0.000556	5.557555	1.882951	0.044364
 103	5.1000e-02	4.0523	17.287877	0.000374	3.738719	1.266712	0.029845
 104	5.1500e-02	4.0924	17.533896	0.000616	6.163834	2.088363	0.049204
 105	5.2000e-02	4.1341	18.038033	0.001263	12.630807	4.279433	0.100827
 106	5.2500e-02	4.1614	18.183225	0.000364	3.637672	1.232477	0.029038
 107	5.3000e-02	4.2063	18.340516	0.000394	3.940812	1.335183	0.031458
 108	5.3500e-02	4.2560	18.413112	0.000182	1.818836	0.616238	0.014519
 109	5.4000e-02	4.2897	18.860786	0.001122	11.216156	3.800137	0.089535
 110	5.4500e-02	4.3298	19.203599	0.000859	8.588949	2.910015	0.068563
 111	5.5000e-02	4.3763	19.586743	0.000960	9.599413	3.252369	0.076629
 112	5.5500e-02	4.4068	19.796464	0.000525	5.254416	1.780244	0.041944
 113	5.6000e-02	4.4550	20.074748	0.000697	6.972205	2.362247	0.055657
 114	5.6500e-02	4.4951	20.300602	0.000566	5.658601	1.917186	0.045171
 115	5.7000e-02	4.5271	20.647448	0.000869	8.689995	2.944250	0.069369
 116	5.7500e-02	4.5705	20.554687	-0.000232	-2.324068	-0.787416	-0.018552
 117	5.8000e-02	4.6122	20.772474	0.000546	5.456508	1.848715	0.043557
 118	5.8500e-02	4.6539	21.131420	0.000899	8.993134	3.046956	0.071789
 119	5.9000e-02	4.6892	21.639591	0.001273	12.731853	4.313669	0.101634
 120	5.9500e-02	4.7325	21.760584	0.000303	3.031394	1.027064	0.024199
 121	6.0000e-02	4.7678	21.873510	0.000283	2.829301	0.958593	0.022585
 122	6.0500e-02	4.8143	22.236489	0.000909	9.094181	3.081192	0.072596
 123	6.1000e-02	4.8576	22.627700	0.000980	9.801506	3.320840	0.078242
 124	6.1500e-02	4.8993	22.901950	0.000687	6.871159	2.328012	0.054850
 125	6.2000e-02	4.9330	23.143936	0.000606	6.062787	2.054128	0.048397
 126	6.2500e-02	4.9683	23.418187	0.000687	6.871159	2.328012	0.054850
 127	6.3000e-02	5.0148	23.692438	0.000687	6.871159	2.328012	0.054850
 128	6.3500e-02	5.0549	24.176410	0.001213	12.125574	4.108256	0.096794
 129	6.4000e-02	5.0902	24.273204	0.000243	2.425115	0.821651	0.019359
 130	6.4500e-02	5.1319	24.378065	0.000263	2.627208	0.890122	0.020972
 131	6.5000e-02	5.1849	24.575686	0.000495	4.951276	1.677538	0.039524
 132	6.5500e-02	5.2105	24.732977	0.000394	3.940812	1.335183	0.031458
 133	6.6000e-02	5.2490	24.995129	0.000657	6.568019	2.225305	0.052430
 134	6.6500e-02	5.2876	25.358107	0.000909	9.094181	3.081192	0.072596
 135	6.7000e-02	5.3261	25.652524	0.000738	7.376391	2.499189	0.058883
 136	6.7500e-02	5.3710	26.108264	0.001142	11.418249	3.868608	0.091148
 137	6.8000e-02	5.4191	26.374448	0.000667	6.669066	2.259541	0.053237
 138	6.8500e-02	5.4480	26.471243	0.000243	2.425115	0.821651	0.019359
 139	6.9000e-02	5.4977	26.689030	0.000546	5.456508	1.848715	0.043557
 140	6.9500e-02	5.5362	26.967314	0.000697	6.972205	2.362247	0.055657
 141	7.0000e-02	5.5747	27.052009	0.000212	2.121976	0.718945	0.016939
 142	7.0500e-02	5.6196	27.386756	0.000839	8.386856	2.841544	0.066949
 143	7.1000e-02	5.6517	27.882827	0.001243	12.428714	4.210962	0.099214
 144	7.1500e-02	5.6950	27.975588	0.000232	2.324068	0.787416	0.018552
 145	7.2000e-02	5.7367	28.229674	0.000637	6.365927	2.156834	0.050817
 146	7.2500e-02	5.7784	28.939499	0.001778	17.784176	6.025442	0.141965
 147	7.3000e-02	5.8025	28.830605	-0.000273	-2.728254	-0.924358	-0.021779
 148	7.3500e-02	5.8538	29.241981	0.001031	10.306738	3.492017	0.082275
 149	7.4000e-02	5.8956	29.387173	0.000364	3.637672	1.232477	0.029038
 150	7.4500e-02	5.9325	29.641258	0.000637	6.365927	2.156834	0.050817
 151	7.5000e-02	5.9726	29.850979	0.000525	5.254416	1.780244	0.041944
 152	7.5500e-02	6.0143	30.242190	0.000980	9.801506	3.320840	0.078242
 153	7.6000e-02	6.0464	30.653566	0.001031	10.306738	3.492017	0.082275
 154	7.6500e-02	6.0897	30.770526	0.000293	2.930347	0.992828	0.023392
 155	7.7000e-02	6.1346	31.008479	0.000596	5.961741	2.019892	0.047591
 156	7.7500e-02	6.1731	31.145604	0.000344	3.435579	1.164006	0.027425
 157	7.8000e-02	6.2100	31.669907	0.001314	13.136039	4.450610	0.104861
 158	7.8500e-02	6.2613	31.903826	0.000586	5.860694	1.985657	0.046784
 159	7.9000e-02	6.2902	32.291004	0.000970	9.700460	3.286605	0.077435
 160	7.9500e-02	6.3271	32.416030	0.000313	3.132440	1.061299	0.025005
 161	8.0000e-02	6.3704	32.670115	0.000637	6.365927	2.156834	0.050817
 162	8.0500e-02	6.4089	33.210550	0.001354	13.540225	4.587552	0.108087
 163	8.1000e-02	6.4602	33.593695	0.000960	9.599413	3.252369	0.076629
 164	8.1500e-02	6.4875	33.565463	-0.000071	-0.707325	-0.239648	-0.005646
 165	8.2000e-02	6.5356	33.746953	0.000455	4.547090	1.540596	0.036298
 166	8.2500e-02	6.5613	34.097832	0.000879	8.791041	2.978485	0.070176
 167	8.3000e-02	6.6191	34.287388	0.000475	4.749183	1.609067	0.037911
 168	8.3500e-02	6.6511	34.452745	0.000414	4.142905	1.403654	0.033071
 169	8.4000e-02	6.6977	34.783459	0.000829	8.285809	2.807308	0.066143
 170	8.4500e-02	6.7426	35.142405	0.000899	8.993134	3.046956	0.071789
 171	8.5000e-02	6.7811	35.291629	0.000374	3.738719	1.266712	0.029845
 172	8.5500e-02	6.8228	35.473119	0.000455	4.547090	1.540596	0.036298
 173	8.6000e-02	6.8565	35.844164	0.000930	9.296274	3.149663	0.074209
 174	8.6500e-02	6.8966	36.186977	0.000859	8.588949	2.910015	0.068563
 175	8.7000e-02	6.9351	36.364434	0.000445	4.446044	1.506360	0.035491
 176	8.7500e-02	6.9768	36.622552	0.000647	6.466973	2.191070	0.051624
 177	8.8000e-02	7.0121	36.993597	0.000930	9.296274	3.149663	0.074209
 178	8.8500e-02	7.0522	37.469503	0.001192	11.923482	4.039785	0.095181
 179	8.9000e-02	7.0907	37.618727	0.000374	3.738719	1.266712	0.029845
 180	8.9500e-02	7.1292	37.497734	-0.000303	-3.031394	-1.027064	-0.024199
 181	9.0000e-02	7.1709	37.993805	0.001243	12.428714	4.210962	0.099214
 182	9.0500e-02	7.2126	38.231758	0.000596	5.961741	2.019892	0.047591
 183	9.1000e-02	7.2479	38.707664	0.001192	11.923482	4.039785	0.095181
 184	9.1500e-02	7.2977	38.961749	0.000637	6.365927	2.156834	0.050817
 185	9.2000e-02	7.3265	39.336827	0.000940	9.397320	3.183898	0.075016
 186	9.2500e-02	7.3650	39.623177	0.000717	7.174298	2.430718	0.057270
 187	9.3000e-02	7.4067	39.824832	0.000505	5.052323	1.711773	0.040331
 188	9.3500e-02	7.4549	39.804667	-0.000051	-0.505232	-0.171177	-0.004033
 189	9.4000e-02	7.4902	40.022454	0.000546	5.456508	1.848715	0.043557
 190	9.4500e-02	7.5287	40.462062	0.001101	11.014063	3.731666	0.087922
 191	9.5000e-02	7.5720	40.986365	0.001314	13.136039	4.450610	0.104861
 192	9.5500e-02	7.6201	41.268681	0.000707	7.073252	2.396483	0.056463
 193	9.6000e-02	7.6522	41.413873	0.000364	3.637672	1.232477	0.029038
 194	9.6500e-02	7.6827	41.889779	0.001192	11.923482	4.039785	0.095181
 195	9.7000e-02	7.7388	41.913977	0.000061	0.606279	0.205413	0.004840
 196	9.7500e-02	7.7709	42.131765	0.000546	5.456508	1.848715	0.043557
 197	9.8000e-02	7.8142	42.321320	0.000475	4.749183	1.609067	0.037911
 198	9.8500e-02	7.8463	42.656067	0.000839	8.386856	2.841544	0.066949
 199	9.9000e-02	7.8944	43.107774	0.001132	11.317203	3.834372	0.090341
 200	9.9500e-02	7.9393	43.252966	0.000364	3.637672	1.232477	0.029038
 201	1.0000e-01	7.9682	43.519150	0.000667	6.669066	2.259541	0.053237
 202	1.0050e-01	8.0196	43.704673	0.000465	4.648137	1.574831	0.037105
 203	1.0100e-01	8.0436	44.301572	0.001495	14.954875	5.066849	0.119380
 204	1.0150e-01	8.0950	44.487094	0.000465	4.648137	1.574831	0.037105
 205	1.0200e-01	8.1319	44.656484	0.000424	4.243951	1.437890	0.033878
 206	1.0250e-01	8.1671	44.870238	0.000536	5.355462	1.814480	0.042751
 207	1.0300e-01	8.2217	45.067860	0.000495	4.951276	1.677538	0.039524
 208	1.0350e-01	8.2522	45.584097	0.001293	12.933946	4.382140	0.103247
 209	1.0400e-01	8.2907	45.680891	0.000243	2.425115	0.821651	0.019359
 210	1.0450e-01	8.3244	46.164863	0.001213	12.125574	4.108256	0.096794
 211	1.0500e-01	8.3789	46.358452	0.000485	4.850230	1.643302	0.038718
 212	1.0550e-01	8.4190	46.443147	0.000212	2.121976	0.718945	0.016939
 213	1.0600e-01	8.4463	46.773861	0.000829	8.285809	2.807308	0.066143
 214	1.0650e-01	8.4960	47.100542	0.000818	8.184763	2.773073	0.065336
 215	1.0700e-01	8.5345	47.463521	0.000909	9.094181	3.081192	0.072596
 216	1.0750e-01	8.5698	47.665176	0.000505	5.052323	1.711773	0.040331
 217	1.0800e-01	8.6179	47.814400	0.000374	3.738719	1.266712	0.029845
 218	1.0850e-01	8.6580	48.088651	0.000687	6.871159	2.328012	0.054850
 219	1.0900e-01	8.6917	48.552458	0.001162	11.620342	3.937079	0.092761
 220	1.0950e-01	8.7399	48.625053	0.000182	1.818836	0.616238	0.014519
 221	1.1000e-01	8.7752	48.947701	0.000808	8.083716	2.738837	0.064530
 222	1.1050e-01	8.8088	49.274382	0.000818	8.184763	2.773073	0.065336
 223	1.1100e-01	8.8586	49.536534	0.000657	6.568019	2.225305	0.052430
 224	1.1150e-01	8.8858	49.992274	0.001142	11.418249	3.868608	0.091148
 225	1.1200e-01	8.9276	50.081002	0.000222	2.223022	0.753180	0.017746
 226	1.1250e-01	8.9789	50.597239	0.001293	12.933946	4.382140	0.103247
 227	1.1300e-01	9.0190	50.673867	0.000192	1.919883	0.650474	0.015326
 228	1.1350e-01	9.0543	50.766629	0.000232	2.324068	0.787416	0.018552
 229	1.1400e-01	9.0944	51.008615	0.000606	6.062787	2.054128	0.048397
 230	1.1450e-01	9.1393	51.415958	0.001021	10.205692	3.457782	0.081469
 231	1.1500e-01	9.1698	51.621646	0.000515	5.153369	1.746009	0.041138
 232	1.1550e-01	9.2099	51.968492	0.000869	8.689995	2.944250	0.069369
 233	1.1600e-01	9.2468	52.214511	0.000616	6.163834	2.088363	0.049204
 234	1.1650e-01	9.2933	52.597655	0.000960	9.599413	3.252369	0.076629
 235	1.1700e-01	9.3350	52.722681	0.000313	3.132440	1.061299	0.025005
 236	1.1750e-01	9.3767	53.146157	0.001061	10.609878	3.594724	0.084695
 237	1.1800e-01	9.4185	53.263117	0.000293	2.930347	0.992828	0.023392
 238	1.1850e-01	9.4618	53.726923	0.001162	11.620342	3.937079	0.092761
 239	1.1900e-01	9.4987	54.178630	0.001132	11.317203	3.834372	0.090341
 240	1.1950e-01	9.5356	54.222994	0.000111	1.111511	0.376590	0.008873
 241	1.2000e-01	9.5725	54.590006	0.000920	9.195227	3.115427	0.073402
 242	1.2050e-01	9.6158	54.803760	0.000536	5.355462	1.814480	0.042751
 243	1.2100e-01	9.6623	54.985250	0.000455	4.547090	1.540596	0.036298
 244	1.2150e-01	9.6960	55.404692	0.001051	10.508831	3.560488	0.083888
 245	1.2200e-01	9.7329	55.775737	0.000930	9.296274	3.149663	0.074209
 246	1.2250e-01	9.7794	55.864465	0.000222	2.223022	0.753180	0.017746
 247	1.2300e-01	9.8099	56.425066	0.001405	14.045457	4.758730	0.112120
 248	1.2350e-01	9.8596	56.671085	0.000616	6.163834	2.088363	0.049204
 249	1.2400e-01	9.8885	56.905005	0.000586	5.860694	1.985657	0.046784
 250	1.2450e-01	9.9382	57.199421	0.000738	7.376391	2.499189	0.058883
 251	1.2500e-01	9.9751	57.348646	0.000374	3.738719	1.266712	0.029845
 252	1.2550e-01	10.0152	57.481738	0.000333	3.334533	1.129770	0.026618
 253	1.2600e-01	10.0569	57.747922	0.000667	6.669066	2.259541	0.053237
 254	1.2650e-01	10.0954	58.159298	0.001031	10.306738	3.492017	0.082275
 255	1.2700e-01	10.1291	58.498079	0.000849	8.487902	2.875779	0.067756
 256	1.2750e-01	10.1708	58.679568	0.000455	4.547090	1.540596	0.036298
 257	1.2800e-01	10.2190	58.723932	0.000111	1.111511	0.376590	0.008873
 258	1.2850e-01	10.2462	59.131275	0.001021	10.205692	3.457782	0.081469
 259	1.2900e-01	10.2944	59.558784	0.001071	10.710924	3.628959	0.085502
 260	1.2950e-01	10.3345	60.002424	0.001112	11.115110	3.765901	0.088728
 261	1.3000e-01	10.3794	60.115351	0.000283	2.829301	0.958593	0.022585
 262	1.3050e-01	10.4211	60.232311	0.000293	2.930347	0.992828	0.023392
 263	1.3100e-01	10.4516	60.518661	0.000717	7.174298	2.430718	0.057270
 264	1.3150e-01	10.4981	60.651753	0.000333	3.334533	1.129770	0.026618
 265	1.3200e-01	10.5446	61.083295	0.001081	10.811971	3.663195	0.086308
 266	1.3250e-01	10.5671	61.180089	0.000243	2.425115	0.821651	0.019359
 267	1.3300e-01	10.6152	61.664061	0.001213	12.125574	4.108256	0.096794
 268	1.3350e-01	10.6585	62.023007	0.000899	8.993134	3.046956	0.071789
 269	1.3400e-01	10.6986	62.361787	0.000849	8.487902	2.875779	0.067756
 270	1.3450e-01	10.7307	62.555376	0.000485	4.850230	1.643302	0.038718
 271	1.3500e-01	10.7644	62.918355	0.000909	9.094181	3.081192	0.072596
 272	1.3550e-01	10.8173	63.047414	0.000323	3.233487	1.095535	0.025812
 273	1.3600e-01	10.8526	63.394260	0.000869	8.689995	2.944250	0.069369
 274	1.3650e-01	10.8911	63.720941	0.000818	8.184763	2.773073	0.065336
 275	1.3700e-01	10.9312	63.970993	0.000626	6.264880	2.122599	0.050010
 276	1.3750e-01	10.9681	64.128284	0.000394	3.940812	1.335183	0.031458
 277	1.3800e-01	11.0179	64.458998	0.000829	8.285809	2.807308	0.066143
 278	1.3850e-01	11.0548	64.866341	0.001021	10.205692	3.457782	0.081469
 279	1.3900e-01	11.0917	64.801812	-0.000162	-1.616743	-0.547767	-0.012906
 280	1.3950e-01	11.1430	65.221254	0.001051	10.508831	3.560488	0.083888
 281	1.4000e-01	11.1767	65.523736	0.000758	7.578484	2.567660	0.060496
 282	1.4050e-01	11.2136	65.886715	0.000909	9.094181	3.081192	0.072596
 283	1.4100e-01	11.2489	66.181132	0.000738	7.376391	2.499189	0.058883
 284	1.4150e-01	11.2954	66.653004	0.001182	11.822435	4.005549	0.094375
 285	1.4200e-01	11.3291	66.685269	0.000081	0.808372	0.273884	0.006453
 286	1.4250e-01	11.3836	66.806262	0.000303	3.031394	1.027064	0.024199
 287	1.4300e-01	11.4093	67.157141	0.000879	8.791041	2.978485	0.070176
 288	1.4350e-01	11.4510	67.629014	0.001182	11.822435	4.005549	0.094375
 289	1.4400e-01	11.5040	67.729841	0.000253	2.526161	0.855887	0.020165
 290	1.4450e-01	11.5312	68.016191	0.000717	7.174298	2.430718	0.057270
 291	1.4500e-01	11.5794	68.169449	0.000384	3.839765	1.300948	0.030652
 292	1.4550e-01	11.6179	68.750215	0.001455	14.550689	4.929907	0.116153
 293	1.4600e-01	11.6580	69.036565	0.000717	7.174298	2.430718	0.057270
 294	1.4650e-01	11.6981	69.165624	0.000323	3.233487	1.095535	0.025812
 295	1.4700e-01	11.7366	69.399544	0.000586	5.860694	1.985657	0.046784
 296	1.4750e-01	11.7703	69.726225	0.000818	8.184763	2.773073	0.065336
 297	1.4800e-01	11.8072	70.024674	0.000748	7.477438	2.533424	0.059690
 298	1.4850e-01	11.8505	70.161800	0.000344	3.435579	1.164006	0.027425
 299	1.4900e-01	11.9002	70.540911	0.000950	9.498367	3.218134	0.075822
 300	1.4950e-01	11.9355	70.819195	0.000697	6.972205	2.362247	0.055657
 301	1.5000e-01	11.9724	71.089413	0.000677	6.770112	2.293776	0.054044
 302	1.5050e-01	12.0157	71.476590	0.000970	9.700460	3.286605	0.077435
 303	1.5100e-01	12.0430	71.706477	0.000576	5.759648	1.951422	0.045977
 304	1.5150e-01	12.0959	71.891999	0.000465	4.648137	1.574831	0.037105
 305	1.5200e-01	12.1328	72.138018	0.000616	6.163834	2.088363	0.049204
 306	1.5250e-01	12.1665	72.412269	0.000687	6.871159	2.328012	0.054850
 307	1.5300e-01	12.2114	72.605858	0.000485	4.850230	1.643302	0.038718
 308	1.5350e-01	12.2563	72.795413	0.000475	4.749183	1.609067	0.037911
 309	1.5400e-01	12.2916	73.005134	0.000525	5.254416	1.780244	0.041944
 310	1.5450e-01	12.3269	73.448775	0.001112	11.115110	3.765901	0.088728
 311	1.5500e-01	12.3815	73.706894	0.000647	6.466973	2.191070	0.051624
 312	1.5550e-01	12.4119	73.944846	0.000596	5.961741	2.019892	0.047591
 313	1.5600e-01	12.4633	74.041641	0.000243	2.425115	0.821651	0.019359
 314	1.5650e-01	12.4857	74.630473	0.001475	14.752782	4.998378	0.117766
 315	1.5700e-01	12.5403	74.795830	0.000414	4.142905	1.403654	0.033071
 316	1.5750e-01	12.5756	75.162842	0.000920	9.195227	3.115427	0.073402
 317	1.5800e-01	12.6077	75.497589	0.000839	8.386856	2.841544	0.066949
 318	1.5850e-01	12.6526	75.695211	0.000495	4.951276	1.677538	0.039524
 319	1.5900e-01	12.6911	75.997694	0.000758	7.578484	2.567660	0.060496
 320	1.5950e-01	12.7312	76.352606	0.000889	8.892088	3.012721	0.070983
 321	1.6000e-01	12.7777	76.614758	0.000657	6.568019	2.225305	0.052430
 322	1.6050e-01	12.8146	76.848677	0.000586	5.860694	1.985657	0.046784
 323	1.6100e-01	12.8499	77.139060	0.000728	7.275345	2.464953	0.058077
 324	1.6150e-01	12.8964	77.558503	0.001051	10.508831	3.560488	0.083888
 325	1.6200e-01	12.9301	77.667396	0.000273	2.728254	0.924358	0.021779
 326	1.6250e-01	12.9670	77.869051	0.000505	5.052323	1.711773	0.040331
 327	1.6300e-01	13.0216	78.098938	0.000576	5.759648	1.951422	0.045977
 328	1.6350e-01	13.0552	78.236063	0.000344	3.435579	1.164006	0.027425
 329	1.6400e-01	13.0905	78.502248	0.000667	6.669066	2.259541	0.053237
 330	1.6450e-01	13.1210	78.824896	0.000808	8.083716	2.738837	0.064530
 331	1.6500e-01	13.1724	79.204007	0.000950	9.498367	3.218134	0.075822
 332	1.6550e-01	13.2109	79.454059	0.000626	6.264880	2.122599	0.050010
 333	1.6600e-01	13.2510	79.728310	0.000687	6.871159	2.328012	0.054850
 334	1.6650e-01	13.2943	79.954163	0.000566	5.658601	1.917186	0.045171
 335	1.6700e-01	13.3344	80.099355	0.000364	3.637672	1.232477	0.029038
 336	1.6750e-01	13.3745	80.538963	0.001101	11.014063	3.731666	0.087922
 337	1.6800e-01	13.4146	80.789015	0.000626	6.264880	2.122599	0.050010
 338	1.6850e-01	13.4515	81.115696	0.000818	8.184763	2.773073	0.065336
 339	1.6900e-01	13.4804	81.434310	0.000798	7.982670	2.704602	0.063723
 340	1.6950e-01	13.5333	81.619833	0.000465	4.648137	1.574831	0.037105
 341	1.7000e-01	13.5830	81.841653	0.000556	5.557555	1.882951	0.044364
 342	1.7050e-01	13.6135	82.140103	0.000748	7.477438	2.533424	0.059690
 343	1.7100e-01	13.6440	82.712803	0.001435	14.348596	4.861436	0.114540
 344	1.7150e-01	13.6937	82.870094	0.000394	3.940812	1.335183	0.031458
 345	1.7200e-01	13.7290	82.946722	0.000192	1.919883	0.650474	0.015326
 346	1.7250e-01	13.7739	83.152410	0.000515	5.153369	1.746009	0.041138
 347	1.7300e-01	13.8221	83.668647	0.001293	12.933946	4.382140	0.103247
 348	1.7350e-01	13.8574	83.793673	0.000313	3.132440	1.061299	0.025005
 349	1.7400e-01	13.8894	83.959030	0.000414	4.142905	1.403654	0.033071
 350	1.7450e-01	13.9263	84.241347	0.000707	7.073252	2.396483	0.056463
 351	1.7500e-01	13.9809	84.576094	0.000839	8.386856	2.841544	0.066949
 352	1.7550e-01	14.0098	84.878577	0.000758	7.578484	2.567660	0.060496
 353	1.7600e-01	14.0611	85.080232	0.000505	5.052323	1.711773	0.040331
 354	1.7650e-01	14.0932	85.459343	0.000950	9.498367	3.218134	0.075822
 355	1.7700e-01	14.1365	85.943315	0.001213	12.125574	4.108256	0.096794
 356	1.7750e-01	14.1702	86.149003	0.000515	5.153369	1.746009	0.041138
 357	1.7800e-01	14.2103	86.257896	0.000273	2.728254	0.924358	0.021779
 358	1.7850e-01	14.2456	86.528114	0.000677	6.770112	2.293776	0.054044
 359	1.7900e-01	14.2889	86.814464	0.000717	7.174298	2.430718	0.057270
 360	1.7950e-01	14.3338	87.120979	0.000768	7.679530	2.601895	0.061303
 361	1.8000e-01	14.3771	87.431528	0.000778	7.780577	2.636131	0.062110
 362	1.8050e-01	14.4156	87.633183	0.000505	5.052323	1.711773	0.040331
 363	1.8100e-01	14.4509	87.810639	0.000445	4.446044	1.506360	0.035491
 364	1.8150e-01	14.4862	88.278479	0.001172	11.721389	3.971314	0.093568
 365	1.8200e-01	14.5279	88.439803	0.000404	4.041858	1.369419	0.032265
 366	1.8250e-01	14.5745	88.762451	0.000808	8.083716	2.738837	0.064530
 367	1.8300e-01	14.6130	88.806815	0.000111	1.111511	0.376590	0.008873
 368	1.8350e-01	14.6482	89.193992	0.000970	9.700460	3.286605	0.077435
 369	1.8400e-01	14.6868	89.407746	0.000536	5.355462	1.814480	0.042751
 370	1.8450e-01	14.7365	89.556971	0.000374	3.738719	1.266712	0.029845
 371	1.8500e-01	14.7718	89.968347	0.001031	10.306738	3.492017	0.082275
 372	1.8550e-01	14.8151	90.351491	0.000960	9.599413	3.252369	0.076629
 373	1.8600e-01	14.8504	90.666073	0.000788	7.881623	2.670366	0.062916
 374	1.8650e-01	14.8857	90.742702	0.000192	1.919883	0.650474	0.015326
 375	1.8700e-01	14.9290	91.158111	0.001041	10.407785	3.526253	0.083082
 376	1.8750e-01	14.9627	91.444461	0.000717	7.174298	2.430718	0.057270
 377	1.8800e-01	15.0044	91.593686	0.000374	3.738719	1.266712	0.029845
 378	1.8850e-01	15.0525	91.936499	0.000859	8.588949	2.910015	0.068563
 379	1.8900e-01	15.0990	92.259147	0.000808	8.083716	2.738837	0.064530
 380	1.8950e-01	15.1295	92.400306	0.000354	3.536626	1.198241	0.028232
 381	1.9000e-01	15.1680	92.525332	0.000313	3.132440	1.061299	0.025005
 382	1.9050e-01	15.2113	93.041568	0.001293	12.933946	4.382140	0.103247
 383	1.9100e-01	15.2450	93.364216	0.000808	8.083716	2.738837	0.064530
 384	1.9150e-01	15.2883	93.521507	0.000394	3.940812	1.335183	0.031458
 385	1.9200e-01	15.3333	93.904651	0.000960	9.599413	3.252369	0.076629
 386	1.9250e-01	15.3734	94.154703	0.000626	6.264880	2.122599	0.050010
 387	1.9300e-01	15.4103	94.215200	0.000152	1.515697	0.513532	0.012099
 388	1.9350e-01	15.4536	94.348292	0.000333	3.334533	1.129770	0.026618
 389	1.9400e-01	15.4889	94.666907	0.000798	7.982670	2.704602	0.063723
 390	1.9450e-01	15.5402	95.094415	0.001071	10.710924	3.628959	0.085502
 391	1.9500e-01	15.5659	95.525957	0.001081	10.811971	3.663195	0.086308
 392	1.9550e-01	15.6076	95.832472	0.000768	7.679530	2.601895	0.061303
 393	1.9600e-01	15.6493	95.941366	0.000273	2.728254	0.924358	0.021779
 394	1.9650e-01	15.6942	96.219650	0.000697	6.972205	2.362247	0.055657
 395	1.9700e-01	15.7439	96.566496	0.000869	8.689995	2.944250	0.069369
 396	1.9750e-01	15.7792	96.663291	0.000243	2.425115	0.821651	0.019359
 397	1.9800e-01	15.8065	96.965773	0.000758	7.578484	2.567660	0.060496
 398	1.9850e-01	15.8434	97.324719	0.000899	8.993134	3.046956	0.071789
 399	1.9900e-01	15.8996	97.393282	0.000172	1.717790	0.582003	0.013713
 400	1.9950e-01	15.9316	97.768360	0.000940	9.397320	3.183898	0.075016
 401	2.0000e-01	15.9621	98.175703	0.001021	10.205692	3.457782	0.081469
 402	2.0050e-01	16.0118	98.453987	0.000697	6.972205	2.362247	0.055657
 403	2.0100e-01	16.0600	98.542715	0.000222	2.223022	0.753180	0.017746
 404	2.0150e-01	16.0889	98.853263	0.000778	7.780577	2.636131	0.062110
 405	2.0200e-01	16.1306	99.131547	0.000697	6.972205	2.362247	0.055657
 406	2.0250e-01	16.1707	99.288838	0.000394	3.940812	1.335183	0.031458
 407	2.0300e-01	16.2044	99.518725	0.000576	5.759648	1.951422	0.045977
 408	2.0350e-01	16.2509	99.720379	0.000505	5.052323	1.711773	0.040331
 409	2.0400e-01	16.2894	100.034961	0.000788	7.881623	2.670366	0.062916
 410	2.0450e-01	16.3199	100.603628	0.001425	14.247550	4.827201	0.113733
 411	2.0500e-01	16.3808	100.861746	0.000647	6.466973	2.191070	0.051624
 412	2.0550e-01	16.4129	100.837548	-0.000061	-0.606279	-0.205413	-0.004840
 413	2.0600e-01	16.4626	101.188427	0.000879	8.791041	2.978485	0.070176
 414	2.0650e-01	16.4867	101.390082	0.000505	5.052323	1.711773	0.040331
 415	2.0700e-01	16.5332	101.813558	0.001061	10.609878	3.594724	0.084695
 416	2.0750e-01	16.5701	102.007146	0.000485	4.850230	1.643302	0.038718
 417	2.0800e-01	16.6118	102.329794	0.000808	8.083716	2.738837	0.064530
 418	2.0850e-01	16.6535	102.507251	0.000445	4.446044	1.506360	0.035491
 419	2.0900e-01	16.7001	102.878296	0.000930	9.296274	3.149663	0.074209
 420	2.0950e-01	16.7370	103.128348	0.000626	6.264880	2.122599	0.050010
 421	2.1000e-01	16.7658	103.394532	0.000667	6.669066	2.259541	0.053237
 422	2.1050e-01	16.8124	103.608287	0.000536	5.355462	1.814480	0.042751
 423	2.1100e-01	16.8525	103.793809	0.000465	4.648137	1.574831	0.037105
 424	2.1150e-01	16.8942	104.092258	0.000748	7.477438	2.533424	0.059690
 425	2.1200e-01	16.9455	104.374575	0.000707	7.073252	2.396483	0.056463
 426	2.1250e-01	16.9760	104.721422	0.000869	8.689995	2.944250	0.069369
 427	2.1300e-01	17.0177	105.072301	0.000879	8.791041	2.978485	0.070176
 428	2.1350e-01	17.0546	105.286056	0.000536	5.355462	1.814480	0.042751
 429	2.1400e-01	17.0947	105.475611	0.000475	4.749183	1.609067	0.037911
 430	2.1450e-01	17.1284	105.657101	0.000455	4.547090	1.540596	0.036298
 431	2.1500e-01	17.1653	105.971682	0.000788	7.881623	2.670366	0.062916
 432	2.1550e-01	17.2134	106.133006	0.000404	4.041858	1.369419	0.032265
 433	2.1600e-01	17.2551	106.576647	0.001112	11.115110	3.765901	0.088728
 434	2.1650e-01	17.2840	106.830732	0.000637	6.365927	2.156834	0.050817
 435	2.1700e-01	17.3273	106.915427	0.000212	2.121976	0.718945	0.016939
 436	2.1750e-01	17.3787	107.209844	0.000738	7.376391	2.499189	0.058883
 437	2.1800e-01	17.4188	107.661551	0.001132	11.317203	3.834372	0.090341
 438	2.1850e-01	17.4541	107.988232	0.000818	8.184763	2.773073	0.065336
 439	2.1900e-01	17.4910	108.185853	0.000495	4.951276	1.677538	0.039524
 440	2.1950e-01	17.5295	108.694024	0.001273	12.731853	4.313669	0.101634
 441	2.2000e-01	17.5744	108.568998	-0.000313	-3.132440	-1.061299	-0.025005
 442	2.2050e-01	17.6209	108.919877	0.000879	8.791041	2.978485	0.070176
 443	2.2100e-01	17.6514	109.044903	0.000313	3.132440	1.061299	0.025005
 444	2.2150e-01	17.6851	109.476445	0.001081	10.811971	3.663195	0.086308
 445	2.2200e-01	17.7348	109.621637	0.000364	3.637672	1.232477	0.029038
 446	2.2250e-01	17.7781	109.928152	0.000768	7.679530	2.601895	0.061303
 447	2.2300e-01	17.8134	109.956384	0.000071	0.707325	0.239648	0.005646
 448	2.2350e-01	17.8535	110.266932	0.000778	7.780577	2.636131	0.062110
 449	2.2400e-01	17.8952	110.662176	0.000990	9.902552	3.355076	0.079049
 450	2.2450e-01	17.9337	111.017089	0.000889	8.892088	3.012721	0.070983
 451	2.2500e-01	17.9674	111.363935	0.000869	8.689995	2.944250	0.069369
 452	2.2550e-01	18.0139	111.722881	0.000899	8.993134	3.046956	0.071789
 453	2.2600e-01	18.0540	111.892271	0.000424	4.243951	1.437890	0.033878
 454	2.2650e-01	18.0990	112.029396	0.000344	3.435579	1.164006	0.027425
 455	2.2700e-01	18.1262	112.360111	0.000829	8.285809	2.807308	0.066143
 456	2.2750e-01	18.1760	112.634361	0.000687	6.871159	2.328012	0.054850
 457	2.2800e-01	18.2161	112.924744	0.000728	7.275345	2.464953	0.058077
 458	2.2850e-01	18.2546	112.928777	0.000010	0.101046	0.034235	0.000807
 459	2.2900e-01	18.2931	113.360319	0.001081	10.811971	3.663195	0.086308
 460	2.2950e-01	18.3284	113.711199	0.000879	8.791041	2.978485	0.070176
 461	2.3000e-01	18.3749	113.816059	0.000263	2.627208	0.890122	0.020972
 462	2.3050e-01	18.4182	114.106442	0.000728	7.275345	2.464953	0.058077
 463	2.3100e-01	18.4567	114.271799	0.000414	4.142905	1.403654	0.033071
 464	2.3150e-01	18.4904	114.562182	0.000728	7.275345	2.464953	0.058077
 465	2.3200e-01	18.5417	114.804168	0.000606	6.062787	2.054128	0.048397
 466	2.3250e-01	18.5706	115.058253	0.000637	6.365927	2.156834	0.050817
 467	2.3300e-01	18.6043	115.457530	0.001000	10.003599	3.389311	0.079855
 468	2.3350e-01	18.6572	115.570457	0.000283	2.829301	0.958593	0.022585
 469	2.3400e-01	18.6973	115.852774	0.000707	7.073252	2.396483	0.056463
 470	2.3450e-01	18.7310	116.122992	0.000677	6.770112	2.293776	0.054044
 471	2.3500e-01	18.7759	116.324646	0.000505	5.052323	1.711773	0.040331
 472	2.3550e-01	18.8128	116.723923	0.001000	10.003599	3.389311	0.079855
 473	2.3600e-01	18.8545	116.925578	0.000505	5.052323	1.711773	0.040331
 474	2.3650e-01	18.8947	117.103034	0.000445	4.446044	1.506360	0.035491
 475	2.3700e-01	18.9364	117.361153	0.000647	6.466973	2.191070	0.051624
 476	2.3750e-01	18.9749	117.712032	0.000879	8.791041	2.978485	0.070176
 477	2.3800e-01	19.0198	117.861257	0.000374	3.738719	1.266712	0.029845
 478	2.3850e-01	19.0503	118.163739	0.000758	7.578484	2.567660	0.060496
 479	2.3900e-01	19.0968	118.466222	0.000758	7.578484	2.567660	0.060496
 480	2.3950e-01	19.1353	118.704175	0.000596	5.961741	2.019892	0.047591
 481	2.4000e-01	19.1658	119.051021	0.000869	8.689995	2.944250	0.069369
 482	2.4050e-01	19.2219	119.196213	0.000364	3.637672	1.232477	0.029038
 483	2.4100e-01	19.2460	119.571291	0.000940	9.397320	3.183898	0.075016
 484	2.4150e-01	19.2973	119.837475	0.000667	6.669066	2.259541	0.053237
 485	2.4200e-01	19.3342	120.022998	0.000465	4.648137	1.574831	0.037105
 486	2.4250e-01	19.3791	120.502937	0.001202	12.024528	4.074020	0.095988
 487	2.4300e-01	19.4208	120.708625	0.000515	5.153369	1.746009	0.041138
 488	2.4350e-01	19.4609	120.797353	0.000222	2.223022	0.753180	0.017746
 489	2.4400e-01	19.4866	121.039339	0.000606	6.062787	2.054128	0.048397
 490	2.4450e-01	19.5251	121.361987	0.000808	8.083716	2.738837	0.064530
 491	2.4500e-01	19.5684	121.603973	0.000606	6.062787	2.054128	0.048397
 492	2.4550e-01	19.6101	121.833859	0.000576	5.759648	1.951422	0.045977
 493	2.4600e-01	19.6567	122.019382	0.000465	4.648137	1.574831	0.037105
 494	2.4650e-01	19.6952	122.108110	0.000222	2.223022	0.753180	0.017746
 495	2.4700e-01	19.7369	122.588049	0.001202	12.024528	4.074020	0.095988
 496	2.4750e-01	19.7770	122.717108	0.000323	3.233487	1.095535	0.025812
 497	2.4800e-01	19.8235	122.890531	0.000434	4.344998	1.472125	0.034685
 498	2.4850e-01	19.8668	123.301907	0.001031	10.306738	3.492017	0.082275
 499	2.4900e-01	19.9021	123.539860	0.000596	5.961741	2.019892	0.047591
 500	2.4950e-01	19.9294	123.910905	0.000930	9.296274	3.149663	0.074209
 501	2.5000e-01	19.9711	124.152891	0.000606	6.062787	2.054128	0.048397
 502	2.5050e-01	19.9791	124.241619	0.000222	2.223022	0.753180	0.017746
 503	2.5100e-01	19.9663	124.160957	0.000202	2.020929	0.684709	-0.016132
 504	2.5150e-01	19.9246	123.959302	0.000505	5.052323	1.711773	-0.040331
 505	2.5200e-01	19.8861	123.785879	0.000434	4.344998	1.472125	-0.034685
 506	2.5250e-01	19.8331	123.681018	0.000263	2.627208	0.890122	-0.020972
 507	2.5300e-01	19.7930	123.459198	0.000556	5.557555	1.882951	-0.044364
 508	2.5350e-01	19.7609	123.297874	0.000404	4.041858	1.369419	-0.032265
 509	2.5400e-01	19.7176	123.249477	0.000121	1.212557	0.410826	-0.009679
 510	2.5450e-01	19.6791	123.007491	0.000606	6.062787	2.054128	-0.048397
 511	2.5500e-01	19.6390	122.902630	0.000263	2.627208	0.890122	-0.020972
 512	2.5550e-01	19.5989	122.616280	0.000717	7.174298	2.430718	-0.057270
 513	2.5600e-01	19.5572	122.321864	0.000738	7.376391	2.499189	-0.058883
 514	2.5650e-01	19.5171	121.878223	0.001112	11.115110	3.765901	-0.088728
 515	2.5700e-01	19.4754	121.922587	-0.000111	-1.111511	-0.376590	0.008873
 516	2.5750e-01	19.4353	121.785462	0.000344	3.435579	1.164006	-0.027425
 517	2.5800e-01	19.4064	121.357953	0.001071	10.710924	3.628959	-0.085502
 518	2.5850e-01	19.3535	121.200663	0.000394	3.940812	1.335183	-0.031458
 519	2.5900e-01	19.3118	121.168398	0.000081	0.808372	0.273884	-0.006453
 520	2.5950e-01	19.2733	121.103868	0.000162	1.616743	0.547767	-0.012906
 521	2.6000e-01	19.2315	120.869949	0.000586	5.860694	1.985657	-0.046784
 522	2.6050e-01	19.2011	120.732823	0.000344	3.435579	1.164006	-0.027425
 523	2.6100e-01	19.1594	120.309348	0.001061	10.609878	3.594724	-0.084695
 524	2.6150e-01	19.1128	120.220620	0.000222	2.223022	0.753180	-0.017746
 525	2.6200e-01	19.0695	120.139958	0.000202	2.020929	0.684709	-0.016132
 526	2.6250e-01	19.0471	119.841508	0.000748	7.477438	2.533424	-0.059690
 527	2.6300e-01	19.0021	119.454331	0.000970	9.700460	3.286605	-0.077435
 528	2.6350e-01	18.9572	119.321239	0.000333	3.334533	1.129770	-0.026618
 529	2.6400e-01	18.9219	119.200246	0.000303	3.031394	1.027064	-0.024199
 530	2.6450e-01	18.8770	118.909863	0.000728	7.275345	2.464953	-0.058077
 531	2.6500e-01	18.8417	118.792903	0.000293	2.930347	0.992828	-0.023392
 532	2.6550e-01	18.8032	118.603347	0.000475	4.749183	1.609067	-0.037911
 533	2.6600e-01	18.7487	118.385560	0.000546	5.456508	1.848715	-0.043557
 534	2.6650e-01	18.7246	118.208103	0.000445	4.446044	1.506360	-0.035491
 535	2.6700e-01	18.6685	118.095177	0.000283	2.829301	0.958593	-0.022585
 536	2.6750e-01	18.6380	117.921753	0.000434	4.344998	1.472125	-0.034685
 537	2.6800e-01	18.6027	117.607172	0.000788	7.881623	2.670366	-0.062916
 538	2.6850e-01	18.5658	117.264358	0.000859	8.588949	2.910015	-0.068563
 539	2.6900e-01	18.5241	117.219994	0.000111	1.111511	0.376590	-0.008873
 540	2.6950e-01	18.4776	117.099001	0.000303	3.031394	1.027064	-0.024199
 541	2.7000e-01	18.4407	116.550500	0.001374	13.742318	4.656023	-0.109700
 542	2.7050e-01	18.3989	116.397242	0.000384	3.839765	1.300948	-0.030652
 543	2.7100e-01	18.3620	116.248018	0.000374	3.738719	1.266712	-0.029845
 544	2.7150e-01	18.3123	116.074594	0.000434	4.344998	1.472125	-0.034685
 545	2.7200e-01	18.2770	115.764046	0.000778	7.780577	2.636131	-0.062110
 546	2.7250e-01	18.2353	115.651119	0.000283	2.829301	0.958593	-0.022585
 547	2.7300e-01	18.2064	115.622887	0.000071	0.707325	0.239648	-0.005646
 548	2.7350e-01	18.1647	115.405100	0.000546	5.456508	1.848715	-0.043557
 549	2.7400e-01	18.1150	115.167147	0.000596	5.961741	2.019892	-0.047591
 550	2.7450e-01	18.0733	114.808201	0.000899	8.993134	3.046956	-0.071789
 551	2.7500e-01	18.0396	114.477487	0.000829	8.285809	2.807308	-0.066143
 552	2.7550e-01	17.9979	114.187104	0.000728	7.275345	2.464953	-0.058077
 553	2.7600e-01	17.9530	114.001582	0.000465	4.648137	1.574831	-0.037105
 554	2.7650e-01	17.9177	113.864456	0.000344	3.435579	1.164006	-0.027425
 555	2.7700e-01	17.8663	113.735397	0.000323	3.233487	1.095535	-0.025812
 556	2.7750e-01	17.8343	113.590206	0.000364	3.637672	1.232477	-0.029038
 557	2.7800e-01	17.7893	113.376451	0.000536	5.355462	1.814480	-0.042751
 558	2.7850e-01	17.7508	112.896513	0.001202	12.024528	4.074020	-0.095988
 559	2.7900e-01	17.7204	112.630328	0.000667	6.669066	2.259541	-0.053237
 560	2.7950e-01	17.6722	112.795685	-0.000414	-4.142905	-1.403654	0.033071
 561	2.8000e-01	17.6434	112.489170	0.000768	7.679530	2.601895	-0.061303
 562	2.8050e-01	17.6000	112.158456	0.000829	8.285809	2.807308	-0.066143
 563	2.8100e-01	17.5551	112.146356	0.000030	0.303139	0.102706	-0.002420
 564	2.8150e-01	17.5230	111.908403	0.000596	5.961741	2.019892	-0.047591
 565	2.8200e-01	17.4749	111.323604	0.001465	14.651736	4.964142	-0.116960
 566	2.8250e-01	17.4332	111.154214	0.000424	4.243951	1.437890	-0.033878
 567	2.8300e-01	17.3947	111.162280	-0.000020	-0.202093	-0.068471	0.001613
 568	2.8350e-01	17.3610	110.678308	0.001213	12.125574	4.108256	-0.096794
 569	2.8400e-01	17.3225	110.516984	0.000404	4.041858	1.369419	-0.032265
 570	2.8450e-01	17.2728	110.359694	0.000394	3.940812	1.335183	-0.031458
 571	2.8500e-01	17.2359	110.246767	0.000283	2.829301	0.958593	-0.022585
 572	2.8550e-01	17.1974	109.903953	0.000859	8.588949	2.910015	-0.068563
 573	2.8600e-01	17.1492	109.795060	0.000273	2.728254	0.924358	-0.021779
 574	2.8650e-01	17.1140	109.577272	0.000546	5.456508	1.848715	-0.043557
 575	2.8700e-01	17.0755	109.411915	0.000414	4.142905	1.403654	-0.033071
 576	2.8750e-01	17.0321	109.307055	0.000263	2.627208	0.890122	-0.020972
 577	2.8800e-01	17.0081	108.871480	0.001091	10.913017	3.697430	-0.087115
 578	2.8850e-01	16.9567	108.698057	0.000434	4.344998	1.472125	-0.034685
 579	2.8900e-01	16.9150	108.754520	-0.000141	-1.414650	-0.479297	0.011293
 580	2.8950e-01	16.8749	108.331045	0.001061	10.609878	3.594724	-0.084695
 581	2.9000e-01	16.8364	108.149556	0.000455	4.547090	1.540596	-0.036298
 582	2.9050e-01	16.7931	107.851106	0.000748	7.477438	2.533424	-0.059690
 583	2.9100e-01	16.7578	107.645418	0.000515	5.153369	1.746009	-0.041138
 584	2.9150e-01	16.7145	107.395366	0.000626	6.264880	2.122599	-0.050010
 585	2.9200e-01	16.6776	107.048520	0.000869	8.689995	2.944250	-0.069369
 586	2.9250e-01	16.6391	107.008189	0.000101	1.010465	0.342355	-0.008066
 587	2.9300e-01	16.5990	106.834765	0.000434	4.344998	1.472125	-0.034685
 588	2.9350e-01	16.5557	106.540349	0.000738	7.376391	2.499189	-0.058883
 589	2.9400e-01	16.5060	106.358860	0.000455	4.547090	1.540596	-0.036298
 590	2.9450e-01	16.4707	106.100741	0.000647	6.466973	2.191070	-0.051624
 591	2.9500e-01	16.4306	106.048311	0.000131	1.313604	0.445061	-0.010486
 592	2.9550e-01	16.4033	105.636935	0.001031	10.306738	3.492017	-0.082275
 593	2.9600e-01	16.3600	105.229592	0.001021	10.205692	3.457782	-0.081469
 594	2.9650e-01	16.3102	105.161030	0.000172	1.717790	0.582003	-0.013713
 595	2.9700e-01	16.2830	104.789984	0.000930	9.296274	3.149663	-0.074209
 596	2.9750e-01	16.2348	104.620594	0.000424	4.243951	1.437890	-0.033878
 597	2.9800e-01	16.1995	104.539932	0.000202	2.020929	0.684709	-0.016132
 598	2.9850e-01	16.1546	104.168887	0.000930	9.296274	3.149663	-0.074209
 599	2.9900e-01	16.1113	103.769610	0.001000	10.003599	3.389311	-0.079855
 600	2.9950e-01	16.0744	103.721213	0.000121	1.212557	0.410826	-0.009679
 601	3.0000e-01	16.0423	103.620386	0.000253	2.526161	0.855887	-0.020165
 602	3.0050e-01	15.9974	103.249341	0.000930	9.296274	3.149663	-0.074209
 603	3.0100e-01	15.9525	103.124315	0.000313	3.132440	1.061299	-0.025005
 604	3.0150e-01	15.9204	102.926693	0.000495	4.951276	1.677538	-0.039524
 605	3.0200e-01	15.8819	102.466920	0.001152	11.519296	3.902843	-0.091955
 606	3.0250e-01	15.8418	102.224934	0.000606	6.062787	2.054128	-0.048397
 607	3.0300e-01	15.7985	102.091841	0.000333	3.334533	1.129770	-0.026618
 608	3.0350e-01	15.7568	101.874054	0.000546	5.456508	1.848715	-0.043557
 609	3.0400e-01	15.7151	101.761127	0.000283	2.829301	0.958593	-0.022585
 610	3.0450e-01	15.6734	101.478810	0.000707	7.073252	2.396483	-0.056463
 611	3.0500e-01	15.6332	101.418314	0.000152	1.515697	0.513532	-0.012099
 612	3.0550e-01	15.5883	101.156163	0.000657	6.568019	2.225305	-0.052430
 613	3.0600e-01	15.5562	100.623794	0.001334	13.338132	4.519081	-0.106474
 614	3.0650e-01	15.5177	100.414072	0.000525	5.254416	1.780244	-0.041944
 615	3.0700e-01	15.4776	100.208384	0.000515	5.153369	1.746009	-0.041138
 616	3.0750e-01	15.4391	99.934134	0.000687	6.871159	2.328012	-0.054850
 617	3.0800e-01	15.3894	99.756677	0.000445	4.446044	1.506360	-0.035491
 618	3.0850e-01	15.3605	99.538890	0.000546	5.456508	1.848715	-0.043557
 619	3.0900e-01	15.3172	99.486460	0.000131	1.313604	0.445061	-0.010486
 620	3.0950e-01	15.2787	99.429996	0.000141	1.414650	0.479297	-0.011293
 621	3.1000e-01	15.2338	99.018620	0.001031	10.306738	3.492017	-0.082275
 622	3.1050e-01	15.1937	98.643542	0.000940	9.397320	3.183898	-0.075016
 623	3.1100e-01	15.1648	98.429788	0.000536	5.355462	1.814480	-0.042751
 624	3.1150e-01	15.1215	98.191835	0.000596	5.961741	2.019892	-0.047591
 625	3.1200e-01	15.0686	98.187802	0.000010	0.101046	0.034235	-0.000807
 626	3.1250e-01	15.0429	97.961949	0.000566	5.658601	1.917186	-0.045171
 627	3.1300e-01	14.9867	97.570738	0.000980	9.801506	3.320840	-0.078242
 628	3.1350e-01	14.9563	97.260189	0.000778	7.780577	2.636131	-0.062110
 629	3.1400e-01	14.9194	97.183560	0.000192	1.919883	0.650474	-0.015326
 630	3.1450e-01	14.8761	96.643125	0.001354	13.540225	4.587552	-0.108087
 631	3.1500e-01	14.8231	96.647158	-0.000010	-0.101046	-0.034235	0.000807
 632	3.1550e-01	14.7894	96.457603	0.000475	4.749183	1.609067	-0.037911
 633	3.1600e-01	14.7477	96.082525	0.000940	9.397320	3.183898	-0.075016
 634	3.1650e-01	14.7220	95.844572	0.000596	5.961741	2.019892	-0.047591
 635	3.1700e-01	14.6803	95.546122	0.000748	7.477438	2.533424	-0.059690
 636	3.1750e-01	14.6354	95.368666	0.000445	4.446044	1.506360	-0.035491
 637	3.1800e-01	14.5889	95.413030	-0.000111	-1.111511	-0.376590	0.008873
 638	3.1850e-01	14.5536	94.945191	0.001172	11.721389	3.971314	-0.093568
 639	3.1900e-01	14.5119	94.553980	0.000980	9.801506	3.320840	-0.078242
 640	3.1950e-01	14.4798	94.513649	0.000101	1.010465	0.342355	-0.008066
 641	3.2000e-01	14.4381	94.186968	0.000818	8.184763	2.773073	-0.065336
 642	3.2050e-01	14.3996	94.061942	0.000313	3.132440	1.061299	-0.025005
 643	3.2100e-01	14.3611	93.815923	0.000616	6.163834	2.088363	-0.049204
 644	3.2150e-01	14.3130	93.642500	0.000434	4.344998	1.472125	-0.034685
 645	3.2200e-01	14.2745	93.267422	0.000940	9.397320	3.183898	-0.075016
 646	3.2250e-01	14.2295	93.142396	0.000313	3.132440	1.061299	-0.025005
 647	3.2300e-01	14.1943	93.001237	0.000354	3.536626	1.198241	-0.028232
 648	3.2350e-01	14.1541	92.694722	0.000768	7.679530	2.601895	-0.061303
 649	3.2400e-01	14.1205	92.456769	0.000596	5.961741	2.019892	-0.047591
 650	3.2450e-01	14.0739	92.420471	0.000091	0.909418	0.308119	-0.007260
 651	3.2500e-01	14.0290	92.113956	0.000768	7.679530	2.601895	-0.061303
 652	3.2550e-01	13.9953	91.783241	0.000829	8.285809	2.807308	-0.066143
 653	3.2600e-01	13.9632	91.456560	0.000818	8.184763	2.773073	-0.065336
 654	3.2650e-01	13.9071	91.089548	0.000920	9.195227	3.115427	-0.073402
 655	3.2700e-01	13.8734	90.948390	0.000354	3.536626	1.198241	-0.028232
 656	3.2750e-01	13.8333	90.738669	0.000525	5.254416	1.780244	-0.041944
 657	3.2800e-01	13.7932	90.742702	-0.000010	-0.101046	-0.034235	0.000807
 658	3.2850e-01	13.7627	90.492650	0.000626	6.264880	2.122599	-0.050010
 659	3.2900e-01	13.7162	90.000612	0.001233	12.327667	4.176727	-0.098408
 660	3.2950e-01	13.6841	89.617467	0.000960	9.599413	3.252369	-0.076629
 661	3.3000e-01	13.6376	89.536806	0.000202	2.020929	0.684709	-0.016132
 662	3.3050e-01	13.5943	89.294820	0.000606	6.062787	2.054128	-0.048397
 663	3.3100e-01	13.5590	88.968139	0.000818	8.184763	2.773073	-0.065336
 664	3.3150e-01	13.5125	88.689855	0.000697	6.972205	2.362247	-0.055657
 665	3.3200e-01	13.4772	88.512398	0.000445	4.446044	1.506360	-0.035491
 666	3.3250e-01	13.4354	88.371240	0.000354	3.536626	1.198241	-0.028232
 667	3.3300e-01	13.3953	88.088923	0.000707	7.073252	2.396483	-0.056463
 668	3.3350e-01	13.3633	87.830805	0.000647	6.466973	2.191070	-0.051624
 669	3.3400e-01	13.3167	87.508157	0.000808	8.083716	2.738837	-0.064530
 670	3.3450e-01	13.2750	87.371032	0.000344	3.435579	1.164006	-0.027425
 671	3.3500e-01	13.2445	87.181476	0.000475	4.749183	1.609067	-0.037911
 672	3.3550e-01	13.1868	86.995953	0.000465	4.648137	1.574831	-0.037105
 673	3.3600e-01	13.1499	86.749934	0.000616	6.163834	2.088363	-0.049204
 674	3.3650e-01	13.1114	86.334525	0.001041	10.407785	3.526253	-0.083082
 675	3.3700e-01	13.0697	85.999778	0.000839	8.386856	2.841544	-0.066949
 676	3.3750e-01	13.0360	85.777958	0.000556	5.557555	1.882951	-0.044364
 677	3.3800e-01	12.9927	85.729560	0.000121	1.212557	0.410826	-0.009679
 678	3.3850e-01	12.9542	85.568236	0.000404	4.041858	1.369419	-0.032265
 679	3.3900e-01	12.9141	85.092331	0.001192	11.923482	4.039785	-0.095181
 680	3.3950e-01	12.8724	84.983437	0.000273	2.728254	0.924358	-0.021779
 681	3.4000e-01	12.8355	84.773716	0.000525	5.254416	1.780244	-0.041944
 682	3.4050e-01	12.7970	84.664822	0.000273	2.728254	0.924358	-0.021779
 683	3.4100e-01	12.7520	84.305877	0.000899	8.993134	3.046956	-0.071789
 684	3.4150e-01	12.7216	84.043725	0.000657	6.568019	2.225305	-0.052430
 685	3.4200e-01	12.6863	83.838037	0.000515	5.153369	1.746009	-0.041138
 686	3.4250e-01	12.6381	83.583952	0.000637	6.365927	2.156834	-0.050817
 687	3.4300e-01	12.6012	83.410529	0.000434	4.344998	1.472125	-0.034685
 688	3.4350e-01	12.5611	83.293569	0.000293	2.930347	0.992828	-0.023392
 689	3.4400e-01	12.5098	82.793465	0.001253	12.529760	4.245198	-0.100021
 690	3.4450e-01	12.4793	82.390155	0.001010	10.104645	3.423547	-0.080662
 691	3.4500e-01	12.4360	82.224798	0.000414	4.142905	1.403654	-0.033071
 692	3.4550e-01	12.3975	82.123970	0.000253	2.526161	0.855887	-0.020165
 693	3.4600e-01	12.3526	81.886017	0.000596	5.961741	2.019892	-0.047591
 694	3.4650e-01	12.3093	81.611767	0.000687	6.871159	2.328012	-0.054850
 695	3.4700e-01	12.2724	81.422211	0.000475	4.749183	1.609067	-0.037911
 696	3.4750e-01	12.2323	81.143927	0.000697	6.972205	2.362247	-0.055657
 697	3.4800e-01	12.1938	81.127795	0.000040	0.404186	0.136942	-0.003226
 698	3.4850e-01	12.1713	80.805147	0.000808	8.083716	2.738837	-0.064530
 699	3.4900e-01	12.1216	80.405870	0.001000	10.003599	3.389311	-0.079855
 700	3.4950e-01	12.0799	80.301010	0.000263	2.627208	0.890122	-0.020972
 701	3.5000e-01	12.0398	80.006594	0.000738	7.376391	2.499189	-0.058883
 702	3.5050e-01	11.9916	79.667813	0.000849	8.487902	2.875779	-0.067756
 703	3.5100e-01	11.9628	79.667813	-0.000000	-0.000000	-0.000000	0.000000
 704	3.5150e-01	11.9275	79.284669	0.000960	9.599413	3.252369	-0.076629
 705	3.5200e-01	11.8761	78.949922	0.000839	8.386856	2.841544	-0.066949
 706	3.5250e-01	11.8408	78.695836	0.000637	6.365927	2.156834	-0.050817
 707	3.5300e-01	11.7959	78.590976	0.000263	2.627208	0.890122	-0.020972
 708	3.5350e-01	11.7590	78.187666	0.001010	10.104645	3.423547	-0.080662
 709	3.5400e-01	11.7093	77.913415	0.000687	6.871159	2.328012	-0.054850
 710	3.5450e-01	11.6740	77.683529	0.000576	5.759648	1.951422	-0.045977
 711	3.5500e-01	11.6355	77.598834	0.000212	2.121976	0.718945	-0.016939
 712	3.5550e-01	11.5938	77.320550	0.000697	6.972205	2.362247	-0.055657
 713	3.5600e-01	11.5489	77.074531	0.000616	6.163834	2.088363	-0.049204
 714	3.5650e-01	11.5232	76.731717	0.000859	8.588949	2.910015	-0.068563
 715	3.5700e-01	11.4655	76.445367	0.000717	7.174298	2.430718	-0.057270
 716	3.5750e-01	11.4366	76.042058	0.001010	10.104645	3.423547	-0.080662
 717	3.5800e-01	11.4013	76.126753	-0.000212	-2.121976	-0.718945	0.016939
 718	3.5850e-01	11.3483	75.933164	0.000485	4.850230	1.643302	-0.038718
 719	3.5900e-01	11.3259	75.324166	0.001526	15.258014	5.169555	-0.121800
 720	3.5950e-01	11.2858	75.170908	0.000384	3.839765	1.300948	-0.030652
 721	3.6000e-01	11.2377	74.916823	0.000637	6.365927	2.156834	-0.050817
 722	3.6050e-01	11.1959	74.650639	0.000667	6.669066	2.259541	-0.053237
 723	3.6100e-01	11.1494	74.319924	0.000829	8.285809	2.807308	-0.066143
 724	3.6150e-01	11.1093	74.239263	0.000202	2.020929	0.684709	-0.016132
 725	3.6200e-01	11.0852	73.920648	0.000798	7.982670	2.704602	-0.063723
 726	3.6250e-01	11.0291	73.771423	0.000374	3.738719	1.266712	-0.029845
 727	3.6300e-01	10.9890	73.634298	0.000344	3.435579	1.164006	-0.027425
 728	3.6350e-01	10.9601	73.210822	0.001061	10.609878	3.594724	-0.084695
 729	3.6400e-01	10.9184	73.170491	0.000101	1.010465	0.342355	-0.008066
 730	3.6450e-01	10.8831	72.767182	0.001010	10.104645	3.423547	-0.080662
 731	3.6500e-01	10.8430	72.279177	0.001223	12.226621	4.142491	-0.097601
 732	3.6550e-01	10.7901	72.238846	0.000101	1.010465	0.342355	-0.008066
 733	3.6600e-01	10.7548	72.045257	0.000485	4.850230	1.643302	-0.038718
 734	3.6650e-01	10.7195	71.613715	0.001081	10.811971	3.663195	-0.086308
 735	3.6700e-01	10.6778	71.557252	0.000141	1.414650	0.479297	-0.011293
 736	3.6750e-01	10.6457	71.162008	0.000990	9.902552	3.355076	-0.079049
 737	3.6800e-01	10.5944	71.145876	0.000040	0.404186	0.136942	-0.003226
 738	3.6850e-01	10.5559	70.746599	0.001000	10.003599	3.389311	-0.079855
 739	3.6900e-01	10.5254	70.323124	0.001061	10.609878	3.594724	-0.084695
 740	3.6950e-01	10.4805	70.278760	0.000111	1.111511	0.376590	-0.008873
 741	3.7000e-01	10.4323	69.964178	0.000788	7.881623	2.670366	-0.062916
 742	3.7050e-01	10.3970	69.593133	0.000930	9.296274	3.149663	-0.074209
 743	3.7100e-01	10.3553	69.371313	0.000556	5.557555	1.882951	-0.044364
 744	3.7150e-01	10.3152	69.242253	0.000323	3.233487	1.095535	-0.025812
 745	3.7200e-01	10.2751	68.959936	0.000707	7.073252	2.396483	-0.056463
 746	3.7250e-01	10.2286	68.738116	0.000556	5.557555	1.882951	-0.044364
 747	3.7300e-01	10.1965	68.621156	0.000293	2.930347	0.992828	-0.023392
 748	3.7350e-01	10.1548	68.306574	0.000788	7.881623	2.670366	-0.062916
 749	3.7400e-01	10.1179	67.931496	0.000940	9.397320	3.183898	-0.075016
 750	3.7450e-01	10.0794	67.661279	0.000677	6.770112	2.293776	-0.054044
 751	3.7500e-01	10.0361	67.572551	0.000222	2.223022	0.753180	-0.017746
 752	3.7550e-01	9.9944	67.165208	0.001021	10.205692	3.457782	-0.081469
 753	3.7600e-01	9.9446	67.036148	0.000323	3.233487	1.095535	-0.025812
 754	3.7650e-01	9.9126	66.725600	0.000778	7.780577	2.636131	-0.062110
 755	3.7700e-01	9.8789	66.443283	0.000707	7.073252	2.396483	-0.056463
 756	3.7750e-01	9.8291	66.108536	0.000839	8.386856	2.841544	-0.066949
 757	3.7800e-01	9.7922	65.983510	0.000313	3.132440	1.061299	-0.025005
 758	3.7850e-01	9.7602	65.886715	0.000243	2.425115	0.821651	-0.019359
 759	3.7900e-01	9.7120	65.342247	0.001364	13.641271	4.621788	-0.108894
 760	3.7950e-01	9.6687	65.293850	0.000121	1.212557	0.410826	-0.009679
 761	3.8000e-01	9.6382	65.019599	0.000687	6.871159	2.328012	-0.054850
 762	3.8050e-01	9.5965	64.696951	0.000808	8.083716	2.738837	-0.064530
 763	3.8100e-01	9.5612	64.515462	0.000455	4.547090	1.540596	-0.036298
 764	3.8150e-01	9.5211	64.338005	0.000445	4.446044	1.506360	-0.035491
 765	3.8200e-01	9.4714	63.930662	0.001021	10.205692	3.457782	-0.081469
 766	3.8250e-01	9.4409	63.603982	0.000818	8.184763	2.773073	-0.065336
 767	3.8300e-01	9.3928	63.289400	0.000788	7.881623	2.670366	-0.062916
 768	3.8350e-01	9.3511	63.111943	0.000445	4.446044	1.506360	-0.035491
 769	3.8400e-01	9.3029	62.966752	0.000364	3.637672	1.232477	-0.029038
 770	3.8450e-01	9.2837	62.559409	0.001021	10.205692	3.457782	-0.081469
 771	3.8500e-01	9.2436	62.264993	0.000738	7.376391	2.499189	-0.058883
 772	3.8550e-01	9.1939	62.264993	-0.000000	-0.000000	-0.000000	0.000000
 773	3.8600e-01	9.1554	61.938312	0.000818	8.184763	2.773073	-0.065336
 774	3.8650e-01	9.1120	61.704392	0.000586	5.860694	1.985657	-0.046784
 775	3.8700e-01	9.0832	61.208321	0.001243	12.428714	4.210962	-0.099214
 776	3.8750e-01	9.0415	61.014732	0.000485	4.850230	1.643302	-0.038718
 777	3.8800e-01	8.9885	60.954236	0.000152	1.515697	0.513532	-0.012099
 778	3.8850e-01	8.9516	60.510595	0.001112	11.115110	3.765901	-0.088728
 779	3.8900e-01	8.9051	60.260543	0.000626	6.264880	2.122599	-0.050010
 780	3.8950e-01	8.8762	59.913696	0.000869	8.689995	2.944250	-0.069369
 781	3.9000e-01	8.8345	59.873365	0.000101	1.010465	0.342355	-0.008066
 782	3.9050e-01	8.7976	59.466022	0.001021	10.205692	3.457782	-0.081469
 783	3.9100e-01	8.7575	59.215970	0.000626	6.264880	2.122599	-0.050010
 784	3.9150e-01	8.7174	58.994150	0.000556	5.557555	1.882951	-0.044364
 785	3.9200e-01	8.6789	58.606972	0.000970	9.700460	3.286605	-0.077435
 786	3.9250e-01	8.6404	58.453715	0.000384	3.839765	1.300948	-0.030652
 787	3.9300e-01	8.5987	58.159298	0.000738	7.376391	2.499189	-0.058883
 788	3.9350e-01	8.5538	57.937478	0.000556	5.557555	1.882951	-0.044364
 789	3.9400e-01	8.5137	57.703558	0.000586	5.860694	1.985657	-0.046784
 790	3.9450e-01	8.4752	57.497870	0.000515	5.153369	1.746009	-0.041138
 791	3.9500e-01	8.4286	57.526102	-0.000071	-0.707325	-0.239648	0.005646
 792	3.9550e-01	8.4046	56.852574	0.001687	16.874758	5.717323	-0.134705
 793	3.9600e-01	8.3516	56.606555	0.000616	6.163834	2.088363	-0.049204
 794	3.9650e-01	8.3212	56.372636	0.000586	5.860694	1.985657	-0.046784
 795	3.9700e-01	8.2843	55.924962	0.001122	11.216156	3.800137	-0.089535
 796	3.9750e-01	8.2329	55.751539	0.000434	4.344998	1.472125	-0.034685
 797	3.9800e-01	8.1912	55.699108	0.000131	1.313604	0.445061	-0.010486
 798	3.9850e-01	8.1495	55.525685	0.000434	4.344998	1.472125	-0.034685
 799	3.9900e-01	8.1110	55.295798	0.000576	5.759648	1.951422	-0.045977
 800	3.9950e-01	8.0789	55.029614	0.000667	6.669066	2.259541	-0.053237
 801	4.0000e-01	8.0388	54.561774	0.001172	11.721389	3.971314	-0.093568
 802	4.0050e-01	7.9971	54.182663	0.000950	9.498367	3.218134	-0.075822
 803	4.0100e-01	7.9586	53.997141	0.000465	4.648137	1.574831	-0.037105
 804	4.0150e-01	7.9121	53.734989	0.000657	6.568019	2.225305	-0.052430
 805	4.0200e-01	7.8800	53.585765	0.000374	3.738719	1.266712	-0.029845
 806	4.0250e-01	7.8367	53.242951	0.000859	8.588949	2.910015	-0.068563
 807	4.0300e-01	7.7934	52.992899	0.000626	6.264880	2.122599	-0.050010
 808	4.0350e-01	7.7420	52.637986	0.000889	8.892088	3.012721	-0.070983
 809	4.0400e-01	7.7196	52.448431	0.000475	4.749183	1.609067	-0.037911
 810	4.0450e-01	7.6827	52.254842	0.000485	4.850230	1.643302	-0.038718
 811	4.0500e-01	7.6394	52.073353	0.000455	4.547090	1.540596	-0.036298
 812	4.0550e-01	7.5928	51.787003	0.000717	7.174298	2.430718	-0.057270
 813	4.0600e-01	7.5559	51.625679	0.000404	4.041858	1.369419	-0.032265
 814	4.0650e-01	7.5046	51.496620	0.000323	3.233487	1.095535	-0.025812
 815	4.0700e-01	7.4693	50.996515	0.001253	12.529760	4.245198	-0.100021
 816	4.0750e-01	7.4340	50.734364	0.000657	6.568019	2.225305	-0.052430
 817	4.0800e-01	7.3843	50.520610	0.000536	5.355462	1.814480	-0.042751
 818	4.0850e-01	7.3538	50.177796	0.000859	8.588949	2.910015	-0.068563
 819	4.0900e-01	7.3105	49.855148	0.000808	8.083716	2.738837	-0.064530
 820	4.0950e-01	7.2752	49.524434	0.000829	8.285809	2.807308	-0.066143
 821	4.1000e-01	7.2303	49.334879	0.000475	4.749183	1.609067	-0.037911
 822	4.1050e-01	7.1950	49.044496	0.000728	7.275345	2.464953	-0.058077
 823	4.1100e-01	7.1613	48.737980	0.000768	7.679530	2.601895	-0.061303
 824	4.1150e-01	7.1132	48.399200	0.000849	8.487902	2.875779	-0.067756
 825	4.1200e-01	7.0763	48.326604	0.000182	1.818836	0.616238	-0.014519
 826	4.1250e-01	7.0265	48.112850	0.000536	5.355462	1.814480	-0.042751
 827	4.1300e-01	6.9945	47.818434	0.000738	7.376391	2.499189	-0.058883
 828	4.1350e-01	6.9624	47.556282	0.000657	6.568019	2.225305	-0.052430
 829	4.1400e-01	6.9142	47.120708	0.001091	10.913017	3.697430	-0.087115
 830	4.1450e-01	6.8741	46.798060	0.000808	8.083716	2.738837	-0.064530
 831	4.1500e-01	6.8404	46.600438	0.000495	4.951276	1.677538	-0.039524
 832	4.1550e-01	6.7955	46.523809	0.000192	1.919883	0.650474	-0.015326
 833	4.1600e-01	6.7538	46.176962	0.000869	8.689995	2.944250	-0.069369
 834	4.1650e-01	6.7169	45.926910	0.000626	6.264880	2.122599	-0.050010
 835	4.1700e-01	6.6800	45.858348	0.000172	1.717790	0.582003	-0.013713
 836	4.1750e-01	6.6303	45.475203	0.000960	9.599413	3.252369	-0.076629
 837	4.1800e-01	6.5902	45.132390	0.000859	8.588949	2.910015	-0.068563
 838	4.1850e-01	6.5533	44.620186	0.001283	12.832900	4.347904	-0.102441
 839	4.1900e-01	6.5132	44.374167	0.000616	6.163834	2.088363	-0.049204
 840	4.1950e-01	6.4763	43.914394	0.001152	11.519296	3.902843	-0.091955
 841	4.2000e-01	6.4330	43.950692	-0.000091	-0.909418	-0.308119	0.007260
 842	4.2050e-01	6.3897	43.801467	0.000374	3.738719	1.266712	-0.029845
 843	4.2100e-01	6.3624	43.555448	0.000616	6.163834	2.088363	-0.049204
 844	4.2150e-01	6.3255	43.406224	0.000374	3.738719	1.266712	-0.029845
 845	4.2200e-01	6.2806	42.930318	0.001192	11.923482	4.039785	-0.095181
 846	4.2250e-01	6.2308	42.781093	0.000374	3.738719	1.266712	-0.029845
 847	4.2300e-01	6.1972	42.389883	0.000980	9.801506	3.320840	-0.078242
 848	4.2350e-01	6.1570	42.297122	0.000232	2.324068	0.787416	-0.018552
 849	4.2400e-01	6.1201	42.111599	0.000465	4.648137	1.574831	-0.037105
 850	4.2450e-01	6.0752	41.938176	0.000434	4.344998	1.472125	-0.034685
 851	4.2500e-01	6.0367	41.494535	0.001112	11.115110	3.765901	-0.088728
 852	4.2550e-01	6.0014	40.933934	0.001405	14.045457	4.758730	-0.112120
 853	4.2600e-01	5.9549	40.861338	0.000182	1.818836	0.616238	-0.014519
 854	4.2650e-01	5.9148	40.740346	0.000303	3.031394	1.027064	-0.024199
 855	4.2700e-01	5.8779	40.429797	0.000778	7.780577	2.636131	-0.062110
 856	4.2750e-01	5.8346	40.046653	0.000960	9.599413	3.252369	-0.076629
 857	4.2800e-01	5.8025	39.732071	0.000788	7.881623	2.670366	-0.062916
 858	4.2850e-01	5.7544	39.530416	0.000505	5.052323	1.711773	-0.040331
 859	4.2900e-01	5.7127	39.405390	0.000313	3.132440	1.061299	-0.025005
 860	4.2950e-01	5.6758	39.054510	0.000879	8.791041	2.978485	-0.070176
 861	4.3000e-01	5.6293	38.917385	0.000344	3.435579	1.164006	-0.027425
 862	4.3050e-01	5.5988	38.473744	0.001112	11.115110	3.765901	-0.088728
 863	4.3100e-01	5.5603	38.167229	0.000768	7.679530	2.601895	-0.061303
 864	4.3150e-01	5.5154	37.913143	0.000637	6.365927	2.156834	-0.050817
 865	4.3200e-01	5.4720	37.788117	0.000313	3.132440	1.061299	-0.025005
 866	4.3250e-01	5.4383	37.461436	0.000818	8.184763	2.773073	-0.065336
 867	4.3300e-01	5.3982	37.259781	0.000505	5.052323	1.711773	-0.040331
 868	4.3350e-01	5.3549	36.900836	0.000899	8.993134	3.046956	-0.071789
 869	4.3400e-01	5.3180	36.771777	0.000323	3.233487	1.095535	-0.025812
 870	4.3450e-01	5.2699	36.457195	0.000788	7.881623	2.670366	-0.062916
 871	4.3500e-01	5.2362	36.251507	0.000515	5.153369	1.746009	-0.041138
 872	4.3550e-01	5.1977	35.957091	0.000738	7.376391	2.499189	-0.058883
 873	4.3600e-01	5.1560	35.521516	0.001091	10.913017	3.697430	-0.087115
 874	4.3650e-01	5.1239	35.158537	0.000909	9.094181	3.081192	-0.072596
 875	4.3700e-01	5.0742	34.904452	0.000637	6.365927	2.156834	-0.050817
 876	4.3750e-01	5.0421	34.847988	0.000141	1.414650	0.479297	-0.011293
 877	4.3800e-01	5.0020	34.606003	0.000606	6.062787	2.054128	-0.048397
 878	4.3850e-01	4.9555	34.214792	0.000980	9.801506	3.320840	-0.078242
 879	4.3900e-01	4.9122	33.835681	0.000950	9.498367	3.218134	-0.075822
 880	4.3950e-01	4.8769	33.557397	0.000697	6.972205	2.362247	-0.055657
 881	4.4000e-01	4.8336	33.444470	0.000283	2.829301	0.958593	-0.022585
 882	4.4050e-01	4.7902	33.283146	0.000404	4.041858	1.369419	-0.032265
 883	4.4100e-01	4.7469	32.932267	0.000879	8.791041	2.978485	-0.070176
 884	4.4150e-01	4.7180	32.823373	0.000273	2.728254	0.924358	-0.021779
 885	4.4200e-01	4.6731	32.633817	0.000475	4.749183	1.609067	-0.037911
 886	4.4250e-01	4.6410	32.125647	0.001273	12.731853	4.313669	-0.101634
 887	4.4300e-01	4.5913	31.734436	0.000980	9.801506	3.320840	-0.078242
 888	4.4350e-01	4.5560	31.476318	0.000647	6.466973	2.191070	-0.051624
 889	4.4400e-01	4.5159	31.032677	0.001112	11.115110	3.765901	-0.088728
 890	4.4450e-01	4.4854	30.899585	0.000333	3.334533	1.129770	-0.026618
 891	4.4500e-01	4.4341	30.500308	0.001000	10.003599	3.389311	-0.079855
 892	4.4550e-01	4.3956	30.371249	0.000323	3.233487	1.095535	-0.025812
 893	4.4600e-01	4.3571	30.169594	0.000505	5.052323	1.711773	-0.040331
 894	4.4650e-01	4.3154	29.758218	0.001031	10.306738	3.492017	-0.082275
 895	4.4700e-01	4.2865	29.427504	0.000829	8.285809	2.807308	-0.066143
 896	4.4750e-01	4.2368	29.225849	0.000505	5.052323	1.711773	-0.040331
 897	4.4800e-01	4.1967	29.028227	0.000495	4.951276	1.677538	-0.039524
 898	4.4850e-01	4.1550	28.741877	0.000717	7.174298	2.430718	-0.057270
 899	4.4900e-01	4.1149	28.540222	0.000505	5.052323	1.711773	-0.040331
 900	4.4950e-01	4.0731	28.334534	0.000515	5.153369	1.746009	-0.041138
 901	4.5000e-01	4.0298	28.124813	0.000525	5.254416	1.780244	-0.041944
 902	4.5050e-01	3.9913	27.709404	0.001041	10.407785	3.526253	-0.083082
 903	4.5100e-01	3.9512	27.394822	0.000788	7.881623	2.670366	-0.062916
 904	4.5150e-01	3.9191	27.342392	0.000131	1.313604	0.445061	-0.010486
 905	4.5200e-01	3.8678	26.967314	0.000940	9.397320	3.183898	-0.075016
 906	4.5250e-01	3.8389	26.576103	0.000980	9.801506	3.320840	-0.078242
 907	4.5300e-01	3.7908	26.447044	0.000323	3.233487	1.095535	-0.025812
 908	4.5350e-01	3.7555	26.116330	0.000829	8.285809	2.807308	-0.066143
 909	4.5400e-01	3.7154	25.805781	0.000778	7.780577	2.636131	-0.062110
 910	4.5450e-01	3.6817	25.458935	0.000869	8.689995	2.944250	-0.069369
 911	4.5500e-01	3.6336	25.192750	0.000667	6.669066	2.259541	-0.053237
 912	4.5550e-01	3.6063	24.910434	0.000707	7.073252	2.396483	-0.056463
 913	4.5600e-01	3.5534	24.656348	0.000637	6.365927	2.156834	-0.050817
 914	4.5650e-01	3.5181	24.402263	0.000637	6.365927	2.156834	-0.050817
 915	4.5700e-01	3.4619	24.406296	-0.000010	-0.101046	-0.034235	0.000807
 916	4.5750e-01	3.4266	24.079615	0.000818	8.184763	2.773073	-0.065336
 917	4.5800e-01	3.3962	23.664206	0.001041	10.407785	3.526253	-0.083082
 918	4.5850e-01	3.3545	23.398022	0.000667	6.669066	2.259541	-0.053237
 919	4.5900e-01	3.3224	23.147969	0.000626	6.264880	2.122599	-0.050010
 920	4.5950e-01	3.2742	22.764825	0.000960	9.599413	3.252369	-0.076629
 921	4.6000e-01	3.2406	22.530905	0.000586	5.860694	1.985657	-0.046784
 922	4.6050e-01	3.2004	22.325217	0.000515	5.153369	1.746009	-0.041138
 923	4.6100e-01	3.1571	22.083231	0.000606	6.062787	2.054128	-0.048397
 924	4.6150e-01	3.1154	21.821080	0.000657	6.568019	2.225305	-0.052430
 925	4.6200e-01	3.0689	21.558929	0.000657	6.568019	2.225305	-0.052430
 926	4.6250e-01	3.0384	21.272579	0.000717	7.174298	2.430718	-0.057270
 927	4.6300e-01	2.9951	20.877335	0.000990	9.902552	3.355076	-0.079049
 928	4.6350e-01	2.9582	20.736176	0.000354	3.536626	1.198241	-0.028232
 929	4.6400e-01	2.9165	20.461926	0.000687	6.871159	2.328012	-0.054850
 930	4.6450e-01	2.8828	20.002153	0.001152	11.519296	3.902843	-0.091955
 931	4.6500e-01	2.8347	19.683538	0.000798	7.982670	2.704602	-0.063723
 932	4.6550e-01	2.7946	19.675472	0.000020	0.202093	0.068471	-0.001613
 933	4.6600e-01	2.7545	19.304426	0.000930	9.296274	3.149663	-0.074209
 934	4.6650e-01	2.7160	19.122937	0.000455	4.547090	1.540596	-0.036298
 935	4.6700e-01	2.6759	18.659131	0.001162	11.620342	3.937079	-0.092761
 936	4.6750e-01	2.6374	18.554270	0.000263	2.627208	0.890122	-0.020972
 937	4.6800e-01	2.5973	18.384880	0.000424	4.243951	1.437890	-0.033878
 938	4.6850e-01	2.5588	17.977537	0.001021	10.205692	3.457782	-0.081469
 939	4.6900e-01	2.5122	17.731518	0.000616	6.163834	2.088363	-0.049204
 940	4.6950e-01	2.4737	17.404837	0.000818	8.184763	2.773073	-0.065336
 941	4.7000e-01	2.4368	17.062024	0.000859	8.588949	2.910015	-0.068563
 942	4.7050e-01	2.3855	16.876501	0.000465	4.648137	1.574831	-0.037105
 943	4.7100e-01	2.3518	16.630482	0.000616	6.163834	2.088363	-0.049204
 944	4.7150e-01	2.3101	16.340099	0.000728	7.275345	2.464953	-0.058077
 945	4.7200e-01	2.2668	15.880326	0.001152	11.519296	3.902843	-0.091955
 946	4.7250e-01	2.2379	15.775465	0.000263	2.627208	0.890122	-0.020972
 947	4.7300e-01	2.1898	15.178567	0.001495	14.954875	5.066849	-0.119380
 948	4.7350e-01	2.1497	15.093872	0.000212	2.121976	0.718945	-0.016939
 949	4.7400e-01	2.1160	15.134203	-0.000101	-1.010465	-0.342355	0.008066
 950	4.7450e-01	2.0679	14.650231	0.001213	12.125574	4.108256	-0.096794
 951	4.7500e-01	2.0438	14.339682	0.000778	7.780577	2.636131	-0.062110
 952	4.7550e-01	2.0069	14.045266	0.000738	7.376391	2.499189	-0.058883
 953	4.7600e-01	1.9475	13.851677	0.000485	4.850230	1.643302	-0.038718
 954	4.7650e-01	1.9219	13.520963	0.000829	8.285809	2.807308	-0.066143
 955	4.7700e-01	1.8689	13.307209	0.000536	5.355462	1.814480	-0.042751
 956	4.7750e-01	1.8385	12.956329	0.000879	8.791041	2.978485	-0.070176
 957	4.7800e-01	1.7999	12.524788	0.001081	10.811971	3.663195	-0.086308
 958	4.7850e-01	1.7534	12.363464	0.000404	4.041858	1.369419	-0.032265
 959	4.7900e-01	1.7229	12.101312	0.000657	6.568019	2.225305	-0.052430
 960	4.7950e-01	1.6716	11.794797	0.000768	7.679530	2.601895	-0.061303
 961	4.8000e-01	1.6363	11.464083	0.000829	8.285809	2.807308	-0.066143
 962	4.8050e-01	1.5930	11.185799	0.000697	6.972205	2.362247	-0.055657
 963	4.8100e-01	1.5609	10.992210	0.000485	4.850230	1.643302	-0.038718
 964	4.8150e-01	1.5160	10.818787	0.000434	4.344998	1.472125	-0.034685
 965	4.8200e-01	1.4727	10.657463	0.000404	4.041858	1.369419	-0.032265
 966	4.8250e-01	1.4390	10.189624	0.001172	11.721389	3.971314	-0.093568
 967	4.8300e-01	1.3877	10.044432	0.000364	3.637672	1.232477	-0.029038
 968	4.8350e-01	1.3556	9.548361	0.001243	12.428714	4.210962	-0.099214
 969	4.8400e-01	1.3235	9.419302	0.000323	3.233487	1.095535	-0.025812
 970	4.8450e-01	1.2866	9.128919	0.000728	7.275345	2.464953	-0.058077
 971	4.8500e-01	1.2417	8.786105	0.000859	8.588949	2.910015	-0.068563
 972	4.8550e-01	1.1952	8.673179	0.000283	2.829301	0.958593	-0.022585
 973	4.8600e-01	1.1599	8.298100	0.000940	9.397320	3.183898	-0.075016
 974	4.8650e-01	1.1149	7.967386	0.000829	8.285809	2.807308	-0.066143
 975	4.8700e-01	1.0684	7.624573	0.000859	8.588949	2.910015	-0.068563
 976	4.8750e-01	1.0460	7.584242	0.000101	1.010465	0.342355	-0.008066
 977	4.8800e-01	0.9882	7.318057	0.000667	6.669066	2.259541	-0.053237
 978	4.8850e-01	0.9545	6.866350	0.001132	11.317203	3.834372	-0.090341
 979	4.8900e-01	0.9112	6.422710	0.001112	11.115110	3.765901	-0.088728
 980	4.8950e-01	0.8679	6.414643	0.000020	0.202093	0.068471	-0.001613
 981	4.9000e-01	0.8294	5.934705	0.001202	12.024528	4.074020	-0.095988
 982	4.9050e-01	0.7989	5.745149	0.000475	4.749183	1.609067	-0.037911
 983	4.9100e-01	0.7572	5.640288	0.000263	2.627208	0.890122	-0.020972
 984	4.9150e-01	0.7123	5.220846	0.001051	10.508831	3.560488	-0.083888
 985	4.9200e-01	0.6706	4.878033	0.000859	8.588949	2.910015	-0.068563
 986	4.9250e-01	0.6417	4.728808	0.000374	3.738719	1.266712	-0.029845
 987	4.9300e-01	0.5920	4.688477	0.000101	1.010465	0.342355	-0.008066
 988	4.9350e-01	0.5567	4.252902	0.001091	10.913017	3.697430	-0.087115
 989	4.9400e-01	0.5198	3.934288	0.000798	7.982670	2.704602	-0.063723
 990	4.9450e-01	0.4668	3.696335	0.000596	5.961741	2.019892	-0.047591
 991	4.9500e-01	0.4347	3.329323	0.000920	9.195227	3.115427	-0.073402
 992	4.9550e-01	0.3882	3.172032	0.000394	3.940812	1.335183	-0.031458
 993	4.9600e-01	0.3497	2.841318	0.000829	8.285809	2.807308	-0.066143
 994	4.9650e-01	0.3096	2.361379	0.001202	12.024528	4.074020	-0.095988
 995	4.9700e-01	0.2679	2.216188	0.000364	3.637672	1.232477	-0.029038
 996	4.9750e-01	0.2454	2.022599	0.000485	4.850230	1.643302	-0.038718
 997	4.9800e-01	0.1941	1.768514	0.000637	6.365927	2.156834	-0.050817
 998	4.9850e-01	0.1556	1.615256	0.000384	3.839765	1.300948	-0.030652
 999	4.9900e-01	0.1139	1.324873	0.000728	7.275345	2.464953	-0.058077
1000	4.9950e-01	0.0690	0.889298	0.001091	10.913017	3.697430	-0.087115
1001	5.0000e-01	0.0449	0.328698	0.001405	14.045457	4.758730	-0.112120
1002	5.0050e-01	-0.0032	0.199638	0.000323	3.233487	1.095535	-0.025812
1003	5.0100e-01	-0.0305	-0.211738	0.001031	10.306738	3.492017	-0.082275
1004	5.0150e-01	-0.0770	-0.284333	0.000182	1.818836	0.616238	-0.014519
1005	5.0200e-01	-0.1235	-0.441624	0.000394	3.940812	1.335183	-0.031458
1006	5.0250e-01	-0.1412	-0.647312	0.000515	5.153369	1.746009	-0.041138
1007	5.0300e-01	-0.1925	-1.026424	0.000950	9.498367	3.218134	-0.075822
1008	5.0350e-01	-0.2358	-1.248244	0.000556	5.557555	1.882951	-0.044364
1009	5.0400e-01	-0.2791	-1.691885	0.001112	11.115110	3.765901	-0.088728
1010	5.0450e-01	-0.3128	-1.736249	0.000111	1.111511	0.376590	-0.008873
1011	5.0500e-01	-0.3545	-2.075029	0.000849	8.487902	2.875779	-0.067756
1012	5.0550e-01	-0.3995	-2.264585	0.000475	4.749183	1.609067	-0.037911
1013	5.0600e-01	-0.4428	-2.486405	0.000556	5.557555	1.882951	-0.044364
1014	5.0650e-01	-0.4909	-2.679994	0.000485	4.850230	1.643302	-0.038718
1015	5.0700e-01	-0.5085	-3.018774	0.000849	8.487902	2.875779	-0.067756
1016	5.0750e-01	-0.5615	-3.337389	0.000798	7.982670	2.704602	-0.063723
1017	5.0800e-01	-0.6000	-3.656004	0.000798	7.982670	2.704602	-0.063723
1018	5.0850e-01	-0.6433	-3.853626	0.000495	4.951276	1.677538	-0.039524
1019	5.0900e-01	-0.6738	-4.293233	0.001101	11.014063	3.731666	-0.087922
1020	5.0950e-01	-0.7219	-4.490855	0.000495	4.951276	1.677538	-0.039524
1021	5.1000e-01	-0.7652	-4.615881	0.000313	3.132440	1.061299	-0.025005
1022	5.1050e-01	-0.8005	-4.821569	0.000515	5.153369	1.746009	-0.041138
1023	5.1100e-01	-0.8278	-5.305541	0.001213	12.125574	4.108256	-0.096794
1024	5.1150e-01	-0.8775	-5.571726	0.000667	6.669066	2.259541	-0.053237
1025	5.1200e-01	-0.9160	-6.019400	0.001122	11.216156	3.800137	-0.089535
1026	5.1250e-01	-0.9577	-6.281551	0.000657	6.568019	2.225305	-0.052430
1027	5.1300e-01	-0.9978	-6.475140	0.000485	4.850230	1.643302	-0.038718
1028	5.1350e-01	-1.0331	-6.866350	0.000980	9.801506	3.320840	-0.078242
1029	5.1400e-01	-1.0796	-7.080105	0.000536	5.355462	1.814480	-0.042751
1030	5.1450e-01	-1.1101	-7.221263	0.000354	3.536626	1.198241	-0.028232
1031	5.1500e-01	-1.1631	-7.612474	0.000980	9.801506	3.320840	-0.078242
1032	5.1550e-01	-1.1903	-7.842360	0.000576	5.759648	1.951422	-0.045977
1033	5.1600e-01	-1.2337	-8.370696	0.001324	13.237085	4.484846	-0.105667
1034	5.1650e-01	-1.2770	-8.423126	0.000131	1.313604	0.445061	-0.010486
1035	5.1700e-01	-1.3251	-8.681245	0.000647	6.466973	2.191070	-0.051624
1036	5.1750e-01	-1.3668	-8.999860	0.000798	7.982670	2.704602	-0.063723
1037	5.1800e-01	-1.4037	-9.136985	0.000344	3.435579	1.164006	-0.027425
1038	5.1850e-01	-1.4406	-9.274110	0.000344	3.435579	1.164006	-0.027425
1039	5.1900e-01	-1.4871	-9.580626	0.000768	7.679530	2.601895	-0.061303
1040	5.1950e-01	-1.5256	-9.983936	0.001010	10.104645	3.423547	-0.080662
1041	5.2000e-01	-1.5673	-10.250120	0.000667	6.669066	2.259541	-0.053237
1042	5.2050e-01	-1.5882	-10.613099	0.000909	9.094181	3.081192	-0.072596
1043	5.2100e-01	-1.6395	-10.717960	0.000263	2.627208	0.890122	-0.020972
1044	5.2150e-01	-1.6796	-11.080938	0.000909	9.094181	3.081192	-0.072596
1045	5.2200e-01	-1.7213	-11.447950	0.000920	9.195227	3.115427	-0.073402
1046	5.2250e-01	-1.7566	-11.564910	0.000293	2.930347	0.992828	-0.023392
1047	5.2300e-01	-1.7935	-11.964187	0.001000	10.003599	3.389311	-0.079855
1048	5.2350e-01	-1.8417	-12.290868	0.000818	8.184763	2.773073	-0.065336
1049	5.2400e-01	-1.8850	-12.351364	0.000152	1.515697	0.513532	-0.012099
1050	5.2450e-01	-1.9122	-12.637714	0.000717	7.174298	2.430718	-0.057270
1051	5.2500e-01	-1.9588	-12.936164	0.000748	7.477438	2.533424	-0.059690
1052	5.2550e-01	-2.0021	-13.496764	0.001405	14.045457	4.758730	-0.112120
1053	5.2600e-01	-2.0390	-13.617757	0.000303	3.031394	1.027064	-0.024199
1054	5.2650e-01	-2.0775	-13.791181	0.000434	4.344998	1.472125	-0.034685
1055	5.2700e-01	-2.1112	-14.198524	0.001021	10.205692	3.457782	-0.081469
1056	5.2750e-01	-2.1481	-14.299351	0.000253	2.526161	0.855887	-0.020165
1057	5.2800e-01	-2.1994	-14.763157	0.001162	11.620342	3.937079	-0.092761
1058	5.2850e-01	-2.2475	-14.787356	0.000061	0.606279	0.205413	-0.004840
1059	5.2900e-01	-2.2812	-15.267295	0.001202	12.024528	4.074020	-0.095988
1060	5.2950e-01	-2.3149	-15.541545	0.000687	6.871159	2.328012	-0.054850
1061	5.3000e-01	-2.3582	-15.759333	0.000546	5.456508	1.848715	-0.043557
1062	5.3050e-01	-2.4063	-16.077948	0.000798	7.982670	2.704602	-0.063723
1063	5.3100e-01	-2.4513	-16.243305	0.000414	4.142905	1.403654	-0.033071
1064	5.3150e-01	-2.4673	-16.658714	0.001041	10.407785	3.526253	-0.083082
1065	5.3200e-01	-2.5138	-16.896667	0.000596	5.961741	2.019892	-0.047591
1066	5.3250e-01	-2.5684	-17.090255	0.000485	4.850230	1.643302	-0.038718
1067	5.3300e-01	-2.5973	-17.384672	0.000738	7.376391	2.499189	-0.058883
1068	5.3350e-01	-2.6342	-17.707319	0.000808	8.083716	2.738837	-0.064530
1069	5.3400e-01	-2.6775	-17.892842	0.000465	4.648137	1.574831	-0.037105
1070	5.3450e-01	-2.7192	-18.146927	0.000637	6.365927	2.156834	-0.050817
1071	5.3500e-01	-2.7593	-18.485707	0.000849	8.487902	2.875779	-0.067756
1072	5.3550e-01	-2.8026	-18.780124	0.000738	7.376391	2.499189	-0.058883
1073	5.3600e-01	-2.8315	-18.941448	0.000404	4.041858	1.369419	-0.032265
1074	5.3650e-01	-2.8828	-19.385088	0.001112	11.115110	3.765901	-0.088728
1075	5.3700e-01	-2.9101	-19.619008	0.000586	5.860694	1.985657	-0.046784
1076	5.3750e-01	-2.9614	-19.792431	0.000434	4.344998	1.472125	-0.034685
1077	5.3800e-01	-2.9983	-19.990053	0.000495	4.951276	1.677538	-0.039524
1078	5.3850e-01	-3.0400	-20.228006	0.000596	5.961741	2.019892	-0.047591
1079	5.3900e-01	-3.0801	-20.845070	0.001546	15.460107	5.238026	-0.123413
1080	5.3950e-01	-3.1250	-21.220148	0.000940	9.397320	3.183898	-0.075016
1081	5.4000e-01	-3.1635	-21.320976	0.000253	2.526161	0.855887	-0.020165
1082	5.4050e-01	-3.1908	-21.756550	0.001091	10.913017	3.697430	-0.087115
1083	5.4100e-01	-3.2422	-21.808981	0.000131	1.313604	0.445061	-0.010486
1084	5.4150e-01	-3.2839	-22.232456	0.001061	10.609878	3.594724	-0.084695
1085	5.4200e-01	-3.3208	-22.373614	0.000354	3.536626	1.198241	-0.028232
1086	5.4250e-01	-3.3545	-22.494607	0.000303	3.031394	1.027064	-0.024199
1087	5.4300e-01	-3.3978	-22.732560	0.000596	5.961741	2.019892	-0.047591
1088	5.4350e-01	-3.4395	-23.075374	0.000859	8.588949	2.910015	-0.068563
1089	5.4400e-01	-3.4860	-23.385922	0.000778	7.780577	2.636131	-0.062110
1090	5.4450e-01	-3.5165	-23.684372	0.000748	7.477438	2.533424	-0.059690
1091	5.4500e-01	-3.5566	-24.075582	0.000980	9.801506	3.320840	-0.078242
1092	5.4550e-01	-3.5999	-24.136079	0.000152	1.515697	0.513532	-0.012099
1093	5.4600e-01	-3.6400	-24.523256	0.000970	9.700460	3.286605	-0.077435
1094	5.4650e-01	-3.6785	-24.813639	0.000728	7.275345	2.464953	-0.058077
1095	5.4700e-01	-3.7298	-25.079824	0.000667	6.669066	2.259541	-0.053237
1096	5.4750e-01	-3.7716	-25.329876	0.000626	6.264880	2.122599	-0.050010
1097	5.4800e-01	-3.7972	-25.628325	0.000748	7.477438	2.533424	-0.059690
1098	5.4850e-01	-3.8389	-25.717053	0.000222	2.223022	0.753180	-0.017746
1099	5.4900e-01	-3.8758	-25.902576	0.000465	4.648137	1.574831	-0.037105
1100	5.4950e-01	-3.9175	-26.221191	0.000798	7.982670	2.704602	-0.063723
1101	5.5000e-01	-3.9592	-26.588203	0.000920	9.195227	3.115427	-0.073402
1102	5.5050e-01	-3.9913	-26.866486	0.000697	6.972205	2.362247	-0.055657
1103	5.5100e-01	-4.0395	-27.035876	0.000424	4.243951	1.437890	-0.033878
1104	5.5150e-01	-4.0731	-27.310127	0.000687	6.871159	2.328012	-0.054850
1105	5.5200e-01	-4.1213	-27.782000	0.001182	11.822435	4.005549	-0.094375
1106	5.5250e-01	-4.1646	-28.144979	0.000909	9.094181	3.081192	-0.072596
1107	5.5300e-01	-4.1983	-28.274038	0.000323	3.233487	1.095535	-0.025812
1108	5.5350e-01	-4.2384	-28.572487	0.000748	7.477438	2.533424	-0.059690
1109	5.5400e-01	-4.2737	-28.979830	0.001021	10.205692	3.457782	-0.081469
1110	5.5450e-01	-4.3138	-29.455736	0.001192	11.923482	4.039785	-0.095181
1111	5.5500e-01	-4.3587	-29.423471	-0.000081	-0.808372	-0.273884	0.006453
1112	5.5550e-01	-4.3988	-29.560596	0.000344	3.435579	1.164006	-0.027425
1113	5.5600e-01	-4.4357	-29.943741	0.000960	9.599413	3.252369	-0.076629
1114	5.5650e-01	-4.4742	-30.298653	0.000889	8.892088	3.012721	-0.070983
1115	5.5700e-01	-4.5111	-30.544672	0.000616	6.163834	2.088363	-0.049204
1116	5.5750e-01	-4.5640	-30.714062	0.000424	4.243951	1.437890	-0.033878
1117	5.5800e-01	-4.5961	-30.911684	0.000495	4.951276	1.677538	-0.039524
1118	5.5850e-01	-4.6410	-31.246431	0.000839	8.386856	2.841544	-0.066949
1119	5.5900e-01	-4.6892	-31.371457	0.000313	3.132440	1.061299	-0.025005
1120	5.5950e-01	-4.7164	-31.641675	0.000677	6.770112	2.293776	-0.054044
1121	5.6000e-01	-4.7598	-31.903826	0.000657	6.568019	2.225305	-0.052430
1122	5.6050e-01	-4.8079	-32.250673	0.000869	8.689995	2.944250	-0.069369
1123	5.6100e-01	-4.8400	-32.331335	0.000202	2.020929	0.684709	-0.016132
1124	5.6150e-01	-4.8833	-32.641884	0.000778	7.780577	2.636131	-0.062110
1125	5.6200e-01	-4.9202	-33.206517	0.001415	14.146503	4.792965	-0.112927
1126	5.6250e-01	-4.9491	-33.234749	0.000071	0.707325	0.239648	-0.005646
1127	5.6300e-01	-5.0020	-33.424305	0.000475	4.749183	1.609067	-0.037911
1128	5.6350e-01	-5.0469	-33.884078	0.001152	11.519296	3.902843	-0.091955
1129	5.6400e-01	-5.0838	-34.267222	0.000960	9.599413	3.252369	-0.076629
1130	5.6450e-01	-5.1175	-34.561638	0.000738	7.376391	2.499189	-0.058883
1131	5.6500e-01	-5.1624	-34.868154	0.000768	7.679530	2.601895	-0.061303
1132	5.6550e-01	-5.1993	-35.013346	0.000364	3.637672	1.232477	-0.029038
1133	5.6600e-01	-5.2378	-35.368258	0.000889	8.892088	3.012721	-0.070983
1134	5.6650e-01	-5.2731	-35.586046	0.000546	5.456508	1.848715	-0.043557
1135	5.6700e-01	-5.3148	-35.803833	0.000546	5.456508	1.848715	-0.043557
1136	5.6750e-01	-5.3549	-35.940958	0.000344	3.435579	1.164006	-0.027425
1137	5.6800e-01	-5.3998	-36.150679	0.000525	5.254416	1.780244	-0.041944
1138	5.6850e-01	-5.4400	-36.428963	0.000697	6.972205	2.362247	-0.055657
1139	5.6900e-01	-5.4785	-36.646750	0.000546	5.456508	1.848715	-0.043557
1140	5.6950e-01	-5.5234	-37.050060	0.001010	10.104645	3.423547	-0.080662
1141	5.7000e-01	-5.5555	-37.352543	0.000758	7.578484	2.567660	-0.060496
1142	5.7050e-01	-5.5972	-37.606628	0.000637	6.365927	2.156834	-0.050817
1143	5.7100e-01	-5.6421	-37.731654	0.000313	3.132440	1.061299	-0.025005
1144	5.7150e-01	-5.6838	-38.042203	0.000778	7.780577	2.636131	-0.062110
1145	5.7200e-01	-5.7191	-38.401148	0.000899	8.993134	3.046956	-0.071789
1146	5.7250e-01	-5.7576	-38.848822	0.001122	11.216156	3.800137	-0.089535
1147	5.7300e-01	-5.7945	-38.788326	-0.000152	-1.515697	-0.513532	0.012099
1148	5.7350e-01	-5.8442	-39.014179	0.000566	5.658601	1.917186	-0.045171
1149	5.7400e-01	-5.8795	-39.482019	0.001172	11.721389	3.971314	-0.093568
1150	5.7450e-01	-5.9244	-39.667541	0.000465	4.648137	1.574831	-0.037105
1151	5.7500e-01	-5.9629	-39.836931	0.000424	4.243951	1.437890	-0.033878
1152	5.7550e-01	-5.9934	-40.312837	0.001192	11.923482	4.039785	-0.095181
1153	5.7600e-01	-6.0480	-40.675816	0.000909	9.094181	3.081192	-0.072596
1154	5.7650e-01	-6.0768	-40.921835	0.000616	6.163834	2.088363	-0.049204
1155	5.7700e-01	-6.1169	-41.208185	0.000717	7.174298	2.430718	-0.057270
1156	5.7750e-01	-6.1506	-41.409840	0.000505	5.052323	1.711773	-0.040331
1157	5.7800e-01	-6.2068	-41.651826	0.000606	6.062787	2.054128	-0.048397
1158	5.7850e-01	-6.2324	-41.982540	0.000829	8.285809	2.807308	-0.066143
1159	5.7900e-01	-6.2838	-42.075301	0.000232	2.324068	0.787416	-0.018552
1160	5.7950e-01	-6.3191	-42.486677	0.001031	10.306738	3.492017	-0.082275
1161	5.8000e-01	-6.3688	-42.789160	0.000758	7.578484	2.567660	-0.060496
1162	5.8050e-01	-6.4025	-43.055344	0.000667	6.669066	2.259541	-0.053237
1163	5.8100e-01	-6.4474	-43.345727	0.000728	7.275345	2.464953	-0.058077
1164	5.8150e-01	-6.4795	-43.571581	0.000566	5.658601	1.917186	-0.045171
1165	5.8200e-01	-6.5212	-43.543349	-0.000071	-0.707325	-0.239648	0.005646
1166	5.8250e-01	-6.5613	-43.978924	0.001091	10.913017	3.697430	-0.087115
1167	5.8300e-01	-6.5870	-44.208810	0.000576	5.759648	1.951422	-0.045977
1168	5.8350e-01	-6.6335	-44.571789	0.000909	9.094181	3.081192	-0.072596
1169	5.8400e-01	-6.6736	-44.797643	0.000566	5.658601	1.917186	-0.045171
1170	5.8450e-01	-6.7233	-44.829908	0.000081	0.808372	0.273884	-0.006453
1171	5.8500e-01	-6.7602	-45.055761	0.000566	5.658601	1.917186	-0.045171
1172	5.8550e-01	-6.7923	-45.600229	0.001364	13.641271	4.621788	-0.108894
1173	5.8600e-01	-6.8372	-45.725255	0.000313	3.132440	1.061299	-0.025005
1174	5.8650e-01	-6.8790	-45.874480	0.000374	3.738719	1.266712	-0.029845
1175	5.8700e-01	-6.9110	-46.156797	0.000707	7.073252	2.396483	-0.056463
1176	5.8750e-01	-6.9608	-46.612537	0.001142	11.418249	3.868608	-0.091148
1177	5.8800e-01	-6.9993	-46.822258	0.000525	5.254416	1.780244	-0.041944
1178	5.8850e-01	-7.0394	-47.120708	0.000748	7.477438	2.533424	-0.059690
1179	5.8900e-01	-7.0779	-47.237667	0.000293	2.930347	0.992828	-0.023392
1180	5.8950e-01	-7.1164	-47.532084	0.000738	7.376391	2.499189	-0.058883
1181	5.9000e-01	-7.1613	-47.721639	0.000475	4.749183	1.609067	-0.037911
1182	5.9050e-01	-7.1902	-48.032188	0.000778	7.780577	2.636131	-0.062110
1183	5.9100e-01	-7.2351	-48.290306	0.000647	6.466973	2.191070	-0.051624
1184	5.9150e-01	-7.2800	-48.633119	0.000859	8.588949	2.910015	-0.068563
1185	5.9200e-01	-7.3089	-48.911403	0.000697	6.972205	2.362247	-0.055657
1186	5.9250e-01	-7.3586	-49.040462	0.000323	3.233487	1.095535	-0.025812
1187	5.9300e-01	-7.3939	-49.363110	0.000808	8.083716	2.738837	-0.064530
1188	5.9350e-01	-7.4372	-49.705924	0.000859	8.588949	2.910015	-0.068563
1189	5.9400e-01	-7.4789	-49.794652	0.000222	2.223022	0.753180	-0.017746
1190	5.9450e-01	-7.5206	-50.210061	0.001041	10.407785	3.526253	-0.083082
1191	5.9500e-01	-7.5463	-50.387517	0.000445	4.446044	1.506360	-0.035491
1192	5.9550e-01	-7.5976	-50.694033	0.000768	7.679530	2.601895	-0.061303
1193	5.9600e-01	-7.6297	-50.895688	0.000505	5.052323	1.711773	-0.040331
1194	5.9650e-01	-7.6779	-51.153806	0.000647	6.466973	2.191070	-0.051624
1195	5.9700e-01	-7.7148	-51.363527	0.000525	5.254416	1.780244	-0.041944
1196	5.9750e-01	-7.7565	-51.666010	0.000758	7.578484	2.567660	-0.060496
1197	5.9800e-01	-7.7918	-51.992691	0.000818	8.184763	2.773073	-0.065336
1198	5.9850e-01	-7.8351	-52.383901	0.000980	9.801506	3.320840	-0.078242
1199	5.9900e-01	-7.8672	-52.742847	0.000899	8.993134	3.046956	-0.071789
1200	5.9950e-01	-7.9185	-52.904171	0.000404	4.041858	1.369419	-0.032265
1201	6.0000e-01	-7.9538	-52.904171	-0.000000	-0.000000	-0.000000	0.000000
1202	6.0050e-01	-7.9907	-53.303448	0.001000	10.003599	3.389311	-0.079855
1203	6.0100e-01	-8.0436	-53.654327	0.000879	8.791041	2.978485	-0.070176
1204	6.0150e-01	-8.0741	-53.860015	0.000515	5.153369	1.746009	-0.041138
1205	6.0200e-01	-8.1142	-54.154431	0.000738	7.376391	2.499189	-0.058883
1206	6.0250e-01	-8.1575	-54.295590	0.000354	3.536626	1.198241	-0.028232
1207	6.0300e-01	-8.1976	-54.561774	0.000667	6.669066	2.259541	-0.053237
1208	6.0350e-01	-8.2329	-54.916687	0.000889	8.892088	3.012721	-0.070983
1209	6.0400e-01	-8.2762	-55.134474	0.000546	5.456508	1.848715	-0.043557
1210	6.0450e-01	-8.3179	-55.424858	0.000728	7.275345	2.464953	-0.058077
1211	6.0500e-01	-8.3597	-55.695075	0.000677	6.770112	2.293776	-0.054044
1212	6.0550e-01	-8.3966	-55.707174	0.000030	0.303139	0.102706	-0.002420
1213	6.0600e-01	-8.4415	-56.001591	0.000738	7.376391	2.499189	-0.058883
1214	6.0650e-01	-8.4736	-56.408934	0.001021	10.205692	3.457782	-0.081469
1215	6.0700e-01	-8.5040	-56.654953	0.000616	6.163834	2.088363	-0.049204
1216	6.0750e-01	-8.5618	-56.892905	0.000596	5.961741	2.019892	-0.047591
1217	6.0800e-01	-8.6003	-57.054229	0.000404	4.041858	1.369419	-0.032265
1218	6.0850e-01	-8.6404	-57.227653	0.000434	4.344998	1.472125	-0.034685
1219	6.0900e-01	-8.6789	-57.667260	0.001101	11.014063	3.731666	-0.087922
1220	6.0950e-01	-8.7174	-57.784220	0.000293	2.930347	0.992828	-0.023392
1221	6.1000e-01	-8.7511	-58.050405	0.000667	6.669066	2.259541	-0.053237
1222	6.1050e-01	-8.7896	-58.320622	0.000677	6.770112	2.293776	-0.054044
1223	6.1100e-01	-8.8361	-58.647303	0.000818	8.184763	2.773073	-0.065336
1224	6.1150e-01	-8.8923	-58.776362	0.000323	3.233487	1.095535	-0.025812
1225	6.1200e-01	-8.9131	-59.191772	0.001041	10.407785	3.526253	-0.083082
1226	6.1250e-01	-8.9516	-59.530552	0.000849	8.487902	2.875779	-0.067756
1227	6.1300e-01	-9.0046	-59.619280	0.000222	2.223022	0.753180	-0.017746
1228	6.1350e-01	-9.0382	-60.111318	0.001233	12.327667	4.176727	-0.098408
1229	6.1400e-01	-9.0751	-60.292808	0.000455	4.547090	1.540596	-0.036298
1230	6.1450e-01	-9.1104	-60.466231	0.000434	4.344998	1.472125	-0.034685
1231	6.1500e-01	-9.1570	-60.712250	0.000616	6.163834	2.088363	-0.049204
1232	6.1550e-01	-9.1987	-61.071196	0.000899	8.993134	3.046956	-0.071789
1233	6.1600e-01	-9.2420	-61.365612	0.000738	7.376391	2.499189	-0.058883
1234	6.1650e-01	-9.2757	-61.510803	0.000364	3.637672	1.232477	-0.029038
1235	6.1700e-01	-9.3206	-61.530969	0.000051	0.505232	0.171177	-0.004033
1236	6.1750e-01	-9.3559	-61.849584	0.000798	7.982670	2.704602	-0.063723
1237	6.1800e-01	-9.3912	-62.244827	0.000990	9.902552	3.355076	-0.079049
1238	6.1850e-01	-9.4409	-62.414217	0.000424	4.243951	1.437890	-0.033878
1239	6.1900e-01	-9.4682	-62.583608	0.000424	4.243951	1.437890	-0.033878
1240	6.1950e-01	-9.5067	-63.007083	0.001061	10.609878	3.594724	-0.084695
1241	6.2000e-01	-9.5564	-63.019182	0.000030	0.303139	0.102706	-0.002420
1242	6.2050e-01	-9.5981	-63.390227	0.000930	9.296274	3.149663	-0.074209
1243	6.2100e-01	-9.6446	-63.813703	0.001061	10.609878	3.594724	-0.084695
1244	6.2150e-01	-9.6703	-64.027457	0.000536	5.355462	1.814480	-0.042751
1245	6.2200e-01	-9.7104	-64.313807	0.000717	7.174298	2.430718	-0.057270
1246	6.2250e-01	-9.7569	-64.487230	0.000434	4.344998	1.472125	-0.034685
1247	6.2300e-01	-9.8003	-64.777613	0.000728	7.275345	2.464953	-0.058077
1248	6.2350e-01	-9.8307	-65.088162	0.000778	7.780577	2.636131	-0.062110
1249	6.2400e-01	-9.8821	-65.277717	0.000475	4.749183	1.609067	-0.037911
1250	6.2450e-01	-9.9158	-65.455174	0.000445	4.446044	1.506360	-0.035491
1251	6.2500e-01	-9.9527	-65.483405	0.000071	0.707325	0.239648	-0.005646
1252	6.2550e-01	-9.9960	-65.906881	0.001061	10.609878	3.594724	-0.084695
1253	6.2600e-01	-10.0377	-66.152900	0.000616	6.163834	2.088363	-0.049204
1254	6.2650e-01	-10.0730	-66.334389	0.000455	4.547090	1.540596	-0.036298
1255	6.2700e-01	-10.1083	-66.729633	0.000990	9.902552	3.355076	-0.079049
1256	6.2750e-01	-10.1564	-66.862725	0.000333	3.334533	1.129770	-0.026618
1257	6.2800e-01	-10.1981	-66.971619	0.000273	2.728254	0.924358	-0.021779
1258	6.2850e-01	-10.2366	-67.326532	0.000889	8.892088	3.012721	-0.070983
1259	6.2900e-01	-10.2831	-67.677411	0.000879	8.791041	2.978485	-0.070176
1260	6.2950e-01	-10.3216	-67.915364	0.000596	5.961741	2.019892	-0.047591
1261	6.3000e-01	-10.3633	-68.399336	0.001213	12.125574	4.108256	-0.096794
1262	6.3050e-01	-10.4067	-68.419501	0.000051	0.505232	0.171177	-0.004033
1263	6.3100e-01	-10.4403	-68.738116	0.000798	7.982670	2.704602	-0.063723
1264	6.3150e-01	-10.4788	-68.963970	0.000566	5.658601	1.917186	-0.045171
1265	6.3200e-01	-10.5109	-69.141426	0.000445	4.446044	1.506360	-0.035491
1266	6.3250e-01	-10.5462	-69.383412	0.000606	6.062787	2.054128	-0.048397
1267	6.3300e-01	-10.6008	-69.629431	0.000616	6.163834	2.088363	-0.049204
1268	6.3350e-01	-10.6361	-69.907715	0.000697	6.972205	2.362247	-0.055657
1269	6.3400e-01	-10.6762	-70.238429	0.000829	8.285809	2.807308	-0.066143
1270	6.3450e-01	-10.7243	-70.399753	0.000404	4.041858	1.369419	-0.032265
1271	6.3500e-01	-10.7660	-70.464282	0.000162	1.616743	0.547767	-0.012906
1272	6.3550e-01	-10.7949	-70.827261	0.000909	9.094181	3.081192	-0.072596
1273	6.3600e-01	-10.8334	-71.089413	0.000657	6.568019	2.225305	-0.052430
1274	6.3650e-01	-10.8735	-71.323332	0.000586	5.860694	1.985657	-0.046784
1275	6.3700e-01	-10.9200	-71.625815	0.000758	7.578484	2.567660	-0.060496
1276	6.3750e-01	-10.9505	-72.045257	0.001051	10.508831	3.560488	-0.083888
1277	6.3800e-01	-10.9922	-72.174316	0.000323	3.233487	1.095535	-0.025812
1278	6.3850e-01	-11.0371	-72.089621	-0.000212	-2.121976	-0.718945	0.016939
1279	6.3900e-01	-11.0788	-72.577626	0.001223	12.226621	4.142491	-0.097601
1280	6.3950e-01	-11.1173	-72.972870	0.000990	9.902552	3.355076	-0.079049
1281	6.4000e-01	-11.1623	-73.045465	0.000182	1.818836	0.616238	-0.014519
1282	6.4050e-01	-11.1959	-73.384246	0.000849	8.487902	2.875779	-0.067756
1283	6.4100e-01	-11.2377	-73.682695	0.000748	7.477438	2.533424	-0.059690
1284	6.4150e-01	-11.2713	-73.839986	0.000394	3.940812	1.335183	-0.031458
1285	6.4200e-01	-11.3130	-73.944846	0.000263	2.627208	0.890122	-0.020972
1286	6.4250e-01	-11.3483	-74.283627	0.000849	8.487902	2.875779	-0.067756
1287	6.4300e-01	-11.3917	-74.352189	0.000172	1.717790	0.582003	-0.013713
1288	6.4350e-01	-11.4253	-74.703069	0.000879	8.791041	2.978485	-0.070176
1289	6.4400e-01	-11.4815	-75.138644	0.001091	10.913017	3.697430	-0.087115
1290	6.4450e-01	-11.5136	-75.497589	0.000899	8.993134	3.046956	-0.071789
1291	6.4500e-01	-11.5441	-75.646814	0.000374	3.738719	1.266712	-0.029845
1292	6.4550e-01	-11.6002	-75.767807	0.000303	3.031394	1.027064	-0.024199
1293	6.4600e-01	-11.6355	-76.046091	0.000697	6.972205	2.362247	-0.055657
1294	6.4650e-01	-11.6788	-76.308242	0.000657	6.568019	2.225305	-0.052430
1295	6.4700e-01	-11.7157	-76.642989	0.000839	8.386856	2.841544	-0.066949
1296	6.4750e-01	-11.7510	-76.901108	0.000647	6.466973	2.191070	-0.051624
1297	6.4800e-01	-11.8007	-77.078564	0.000445	4.446044	1.506360	-0.035491
1298	6.4850e-01	-11.8376	-77.268120	0.000475	4.749183	1.609067	-0.037911
1299	6.4900e-01	-11.8729	-77.493973	0.000566	5.658601	1.917186	-0.045171
1300	6.4950e-01	-11.9146	-77.711760	0.000546	5.456508	1.848715	-0.043557
1301	6.5000e-01	-11.9515	-77.981978	0.000677	6.770112	2.293776	-0.054044
1302	6.5050e-01	-12.0045	-78.324791	0.000859	8.588949	2.910015	-0.068563
1303	6.5100e-01	-12.0350	-78.413520	0.000222	2.223022	0.753180	-0.017746
1304	6.5150e-01	-12.0799	-78.728101	0.000788	7.881623	2.670366	-0.062916
1305	6.5200e-01	-12.1104	-78.966054	0.000596	5.961741	2.019892	-0.047591
1306	6.5250e-01	-12.1553	-79.377430	0.001031	10.306738	3.492017	-0.082275
1307	6.5300e-01	-12.2018	-79.466158	0.000222	2.223022	0.753180	-0.017746
1308	6.5350e-01	-12.2403	-79.651681	0.000465	4.648137	1.574831	-0.037105
1309	6.5400e-01	-12.2740	-79.841236	0.000475	4.749183	1.609067	-0.037911
1310	6.5450e-01	-12.3141	-80.301010	0.001152	11.519296	3.902843	-0.091955
1311	6.5500e-01	-12.3558	-80.563161	0.000657	6.568019	2.225305	-0.052430
1312	6.5550e-01	-12.4023	-80.780948	0.000546	5.456508	1.848715	-0.043557
1313	6.5600e-01	-12.4264	-80.776915	-0.000010	-0.101046	-0.034235	0.000807
1314	6.5650e-01	-12.4793	-81.018901	0.000606	6.062787	2.054128	-0.048397
1315	6.5700e-01	-12.5194	-81.357682	0.000849	8.487902	2.875779	-0.067756
1316	6.5750e-01	-12.5627	-81.587568	0.000576	5.759648	1.951422	-0.045977
1317	6.5800e-01	-12.6045	-81.833587	0.000616	6.163834	2.088363	-0.049204
1318	6.5850e-01	-12.6462	-82.128003	0.000738	7.376391	2.499189	-0.058883
1319	6.5900e-01	-12.6734	-82.273195	0.000364	3.637672	1.232477	-0.029038
1320	6.5950e-01	-12.7264	-82.410320	0.000344	3.435579	1.164006	-0.027425
1321	6.6000e-01	-12.7504	-82.797498	0.000970	9.700460	3.286605	-0.077435
1322	6.6050e-01	-12.7970	-83.015285	0.000546	5.456508	1.848715	-0.043557
1323	6.6100e-01	-12.8403	-83.216940	0.000505	5.052323	1.711773	-0.040331
1324	6.6150e-01	-12.8868	-83.708978	0.001233	12.327667	4.176727	-0.098408
1325	6.6200e-01	-12.9189	-83.753342	0.000111	1.111511	0.376590	-0.008873
1326	6.6250e-01	-12.9430	-83.963063	0.000525	5.254416	1.780244	-0.041944
1327	6.6300e-01	-12.9959	-84.233281	0.000677	6.770112	2.293776	-0.054044
1328	6.6350e-01	-13.0344	-84.410737	0.000445	4.446044	1.506360	-0.035491
1329	6.6400e-01	-13.0809	-84.572061	0.000404	4.041858	1.369419	-0.032265
1330	6.6450e-01	-13.1130	-84.781782	0.000525	5.254416	1.780244	-0.041944
1331	6.6500e-01	-13.1563	-85.164927	0.000960	9.599413	3.252369	-0.076629
1332	6.6550e-01	-13.1868	-85.261721	0.000243	2.425115	0.821651	-0.019359
1333	6.6600e-01	-13.2381	-85.648898	0.000970	9.700460	3.286605	-0.077435
1334	6.6650e-01	-13.2702	-85.826355	0.000445	4.446044	1.506360	-0.035491
1335	6.6700e-01	-13.3135	-86.100606	0.000687	6.871159	2.328012	-0.054850
1336	6.6750e-01	-13.3536	-86.249830	0.000374	3.738719	1.266712	-0.029845
1337	6.6800e-01	-13.3986	-86.572478	0.000808	8.083716	2.738837	-0.064530
1338	6.6850e-01	-13.4403	-86.806398	0.000586	5.860694	1.985657	-0.046784
1339	6.6900e-01	-13.4740	-87.241972	0.001091	10.913017	3.697430	-0.087115
1340	6.6950e-01	-13.5205	-87.258105	0.000040	0.404186	0.136942	-0.003226
1341	6.7000e-01	-13.5526	-87.536389	0.000697	6.972205	2.362247	-0.055657
1342	6.7050e-01	-13.5943	-87.568653	0.000081	0.808372	0.273884	-0.006453
1343	6.7100e-01	-13.6328	-87.951798	0.000960	9.599413	3.252369	-0.076629
1344	6.7150e-01	-13.6761	-88.117155	0.000414	4.142905	1.403654	-0.033071
1345	6.7200e-01	-13.7210	-88.322843	0.000515	5.153369	1.746009	-0.041138
1346	6.7250e-01	-13.7563	-88.637425	0.000788	7.881623	2.670366	-0.062916
1347	6.7300e-01	-13.7980	-88.899576	0.000657	6.568019	2.225305	-0.052430
1348	6.7350e-01	-13.8349	-89.173827	0.000687	6.871159	2.328012	-0.054850
1349	6.7400e-01	-13.8766	-89.407746	0.000586	5.860694	1.985657	-0.046784
1350	6.7450e-01	-13.9183	-89.512607	0.000263	2.627208	0.890122	-0.020972
1351	6.7500e-01	-13.9552	-89.585203	0.000182	1.818836	0.616238	-0.014519
1352	6.7550e-01	-14.0082	-89.887685	0.000758	7.578484	2.567660	-0.060496
1353	6.7600e-01	-14.0306	-90.468451	0.001455	14.550689	4.929907	-0.116153
1354	6.7650e-01	-14.0755	-90.718503	0.000626	6.264880	2.122599	-0.050010
1355	6.7700e-01	-14.1124	-90.867728	0.000374	3.738719	1.266712	-0.029845
1356	6.7750e-01	-14.1477	-91.101648	0.000586	5.860694	1.985657	-0.046784
1357	6.7800e-01	-14.1910	-91.020986	-0.000202	-2.020929	-0.684709	0.016132
1358	6.7850e-01	-14.2424	-91.367832	0.000869	8.689995	2.944250	-0.069369
1359	6.7900e-01	-14.2825	-91.569487	0.000505	5.052323	1.711773	-0.040331
1360	6.7950e-01	-14.3049	-92.021194	0.001132	11.317203	3.834372	-0.090341
1361	6.8000e-01	-14.3563	-92.247048	0.000566	5.658601	1.917186	-0.045171
1362	6.8050e-01	-14.3916	-92.412405	0.000414	4.142905	1.403654	-0.033071
1363	6.8100e-01	-14.4317	-92.763284	0.000879	8.791041	2.978485	-0.070176
1364	6.8150e-01	-14.4750	-92.981072	0.000546	5.456508	1.848715	-0.043557
1365	6.8200e-01	-14.5135	-93.166594	0.000465	4.648137	1.574831	-0.037105
1366	6.8250e-01	-14.5584	-93.327918	0.000404	4.041858	1.369419	-0.032265
1367	6.8300e-01	-14.5985	-93.557805	0.000576	5.759648	1.951422	-0.045977
1368	6.8350e-01	-14.6338	-93.727195	0.000424	4.243951	1.437890	-0.033878
1369	6.8400e-01	-14.6787	-94.005479	0.000697	6.972205	2.362247	-0.055657
1370	6.8450e-01	-14.7172	-94.279729	0.000687	6.871159	2.328012	-0.054850
1371	6.8500e-01	-14.7477	-94.566079	0.000717	7.174298	2.430718	-0.057270
1372	6.8550e-01	-14.8007	-94.594311	0.000071	0.707325	0.239648	-0.005646
1373	6.8600e-01	-14.8392	-94.856463	0.000657	6.568019	2.225305	-0.052430
1374	6.8650e-01	-14.8664	-95.203309	0.000869	8.689995	2.944250	-0.069369
1375	6.8700e-01	-14.9162	-95.227508	0.000061	0.606279	0.205413	-0.004840
1376	6.8750e-01	-14.9482	-95.505791	0.000697	6.972205	2.362247	-0.055657
1377	6.8800e-01	-15.0028	-95.792141	0.000717	7.174298	2.430718	-0.057270
1378	6.8850e-01	-15.0317	-96.114789	0.000808	8.083716	2.738837	-0.064530
1379	6.8900e-01	-15.0718	-96.393073	0.000697	6.972205	2.362247	-0.055657
1380	6.8950e-01	-15.1135	-96.667324	0.000687	6.871159	2.328012	-0.054850
1381	6.9000e-01	-15.1520	-96.933508	0.000667	6.669066	2.259541	-0.053237
1382	6.9050e-01	-15.2065	-97.070634	0.000344	3.435579	1.164006	-0.027425
1383	6.9100e-01	-15.2354	-97.312620	0.000606	6.062787	2.054128	-0.048397
1384	6.9150e-01	-15.2867	-97.449745	0.000344	3.435579	1.164006	-0.027425
1385	6.9200e-01	-15.3300	-97.752227	0.000758	7.578484	2.567660	-0.060496
1386	6.9250e-01	-15.3509	-97.961949	0.000525	5.254416	1.780244	-0.041944
1387	6.9300e-01	-15.3958	-98.026478	0.000162	1.616743	0.547767	-0.012906
1388	6.9350e-01	-15.4375	-98.252332	0.000566	5.658601	1.917186	-0.045171
1389	6.9400e-01	-15.4792	-98.635476	0.000960	9.599413	3.252369	-0.076629
1390	6.9450e-01	-15.5193	-98.929892	0.000738	7.376391	2.499189	-0.058883
1391	6.9500e-01	-15.5530	-99.014587	0.000212	2.121976	0.718945	-0.016939
1392	6.9550e-01	-15.5915	-99.317070	0.000758	7.578484	2.567660	-0.060496
1393	6.9600e-01	-15.6381	-99.506625	0.000475	4.749183	1.609067	-0.037911
1394	6.9650e-01	-15.6798	-99.764744	0.000647	6.466973	2.191070	-0.051624
1395	6.9700e-01	-15.7247	-100.026895	0.000657	6.568019	2.225305	-0.052430
1396	6.9750e-01	-15.7680	-100.087391	0.000152	1.515697	0.513532	-0.012099
1397	6.9800e-01	-15.7953	-100.434238	0.000869	8.689995	2.944250	-0.069369
1398	6.9850e-01	-15.8322	-100.611694	0.000445	4.446044	1.506360	-0.035491
1399	6.9900e-01	-15.8803	-100.906110	0.000738	7.376391	2.499189	-0.058883
1400	6.9950e-01	-15.9220	-101.172295	0.000667	6.669066	2.259541	-0.053237
1401	7.0000e-01	-15.9573	-101.652234	0.001202	12.024528	4.074020	-0.095988
1402	7.0050e-01	-16.0054	-101.696598	0.000111	1.111511	0.376590	-0.008873
1403	7.0100e-01	-16.0407	-101.986981	0.000728	7.275345	2.464953	-0.058077
1404	7.0150e-01	-16.0840	-101.853889	-0.000333	-3.334533	-1.129770	0.026618
1405	7.0200e-01	-16.1161	-102.426589	0.001435	14.348596	4.861436	-0.114540
1406	7.0250e-01	-16.1530	-102.559681	0.000333	3.334533	1.129770	-0.026618
1407	7.0300e-01	-16.1947	-102.632277	0.000182	1.818836	0.616238	-0.014519
1408	7.0350e-01	-16.2364	-102.958958	0.000818	8.184763	2.773073	-0.065336
1409	7.0400e-01	-16.2749	-103.297738	0.000849	8.487902	2.875779	-0.067756
1410	7.0450e-01	-16.3102	-103.463095	0.000414	4.142905	1.403654	-0.033071
1411	7.0500e-01	-16.3487	-103.571989	0.000273	2.728254	0.924358	-0.021779
1412	7.0550e-01	-16.3953	-103.850272	0.000697	6.972205	2.362247	-0.055657
1413	7.0600e-01	-16.4354	-104.128556	0.000697	6.972205	2.362247	-0.055657
1414	7.0650e-01	-16.4803	-104.326178	0.000495	4.951276	1.677538	-0.039524
1415	7.0700e-01	-16.5172	-104.588330	0.000657	6.568019	2.225305	-0.052430
1416	7.0750e-01	-16.5493	-104.733521	0.000364	3.637672	1.232477	-0.029038
1417	7.0800e-01	-16.6006	-104.915010	0.000455	4.547090	1.540596	-0.036298
1418	7.0850e-01	-16.6407	-105.096500	0.000455	4.547090	1.540596	-0.036298
1419	7.0900e-01	-16.6728	-105.306221	0.000525	5.254416	1.780244	-0.041944
1420	7.0950e-01	-16.7177	-105.560306	0.000637	6.365927	2.156834	-0.050817
1421	7.1000e-01	-16.7723	-105.870855	0.000778	7.780577	2.636131	-0.062110
1422	7.1050e-01	-16.7979	-106.084609	0.000536	5.355462	1.814480	-0.042751
1423	7.1100e-01	-16.8364	-106.318529	0.000586	5.860694	1.985657	-0.046784
1424	7.1150e-01	-16.8749	-106.725872	0.001021	10.205692	3.457782	-0.081469
1425	7.1200e-01	-16.9166	-106.754103	0.000071	0.707325	0.239648	-0.005646
1426	7.1250e-01	-16.9567	-106.939626	0.000465	4.648137	1.574831	-0.037105
1427	7.1300e-01	-17.0017	-107.092884	0.000384	3.839765	1.300948	-0.030652
1428	7.1350e-01	-17.0289	-107.318737	0.000566	5.658601	1.917186	-0.045171
1429	7.1400e-01	-17.0690	-107.742213	0.001061	10.609878	3.594724	-0.084695
1430	7.1450e-01	-17.1156	-107.830941	0.000222	2.223022	0.753180	-0.017746
1431	7.1500e-01	-17.1541	-108.165688	0.000839	8.386856	2.841544	-0.066949
1432	7.1550e-01	-17.1894	-108.339111	0.000434	4.344998	1.472125	-0.034685
1433	7.1600e-01	-17.2375	-108.536733	0.000495	4.951276	1.677538	-0.039524
1434	7.1650e-01	-17.2856	-108.923911	0.000970	9.700460	3.286605	-0.077435
1435	7.1700e-01	-17.3209	-109.016672	0.000232	2.324068	0.787416	-0.018552
1436	7.1750e-01	-17.3546	-109.093301	0.000192	1.919883	0.650474	-0.015326
1437	7.1800e-01	-17.3931	-109.311088	0.000546	5.456508	1.848715	-0.043557
1438	7.1850e-01	-17.4380	-109.577272	0.000667	6.669066	2.259541	-0.053237
1439	7.1900e-01	-17.4749	-109.980582	0.001010	10.104645	3.423547	-0.080662
1440	7.1950e-01	-17.5198	-110.295164	0.000788	7.881623	2.670366	-0.062916
1441	7.2000e-01	-17.5599	-110.283065	-0.000030	-0.303139	-0.102706	0.002420
1442	7.2050e-01	-17.6016	-110.597646	0.000788	7.881623	2.670366	-0.062916
1443	7.2100e-01	-17.6369	-110.674275	0.000192	1.919883	0.650474	-0.015326
1444	7.2150e-01	-17.6738	-110.916261	0.000606	6.062787	2.054128	-0.048397
1445	7.2200e-01	-17.7139	-111.367968	0.001132	11.317203	3.834372	-0.090341
1446	7.2250e-01	-17.7573	-111.521226	0.000384	3.839765	1.300948	-0.030652
1447	7.2300e-01	-17.7861	-111.759179	0.000596	5.961741	2.019892	-0.047591
1448	7.2350e-01	-17.8375	-111.960834	0.000505	5.052323	1.711773	-0.040331
1449	7.2400e-01	-17.8792	-112.166522	0.000515	5.153369	1.746009	-0.041138
1450	7.2450e-01	-17.9129	-112.452872	0.000717	7.174298	2.430718	-0.057270
1451	7.2500e-01	-17.9466	-112.783586	0.000829	8.285809	2.807308	-0.066143
1452	7.2550e-01	-17.9947	-112.924744	0.000354	3.536626	1.198241	-0.028232
1453	7.2600e-01	-18.0364	-113.037671	0.000283	2.829301	0.958593	-0.022585
1454	7.2650e-01	-18.0765	-113.279657	0.000606	6.062787	2.054128	-0.048397
1455	7.2700e-01	-18.1214	-113.545841	0.000667	6.669066	2.259541	-0.053237
1456	7.2750e-01	-18.1519	-113.787827	0.000606	6.062787	2.054128	-0.048397
1457	7.2800e-01	-18.1904	-114.090310	0.000758	7.578484	2.567660	-0.060496
1458	7.2850e-01	-18.2321	-114.416991	0.000818	8.184763	2.773073	-0.065336
1459	7.2900e-01	-18.2706	-114.622679	0.000515	5.153369	1.746009	-0.041138
1460	7.2950e-01	-18.3059	-114.788036	0.000414	4.142905	1.403654	-0.033071
1461	7.3000e-01	-18.3508	-115.054220	0.000667	6.669066	2.259541	-0.053237
1462	7.3050e-01	-18.3989	-115.086485	0.000081	0.808372	0.273884	-0.006453
1463	7.3100e-01	-18.4407	-115.280074	0.000485	4.850230	1.643302	-0.038718
1464	7.3150e-01	-18.4695	-115.776145	0.001243	12.428714	4.210962	-0.099214
1465	7.3200e-01	-18.5209	-116.074594	0.000748	7.477438	2.533424	-0.059690
1466	7.3250e-01	-18.5578	-116.018131	-0.000141	-1.414650	-0.479297	0.011293
1467	7.3300e-01	-18.5979	-116.304481	0.000717	7.174298	2.430718	-0.057270
1468	7.3350e-01	-18.6300	-116.356911	0.000131	1.313604	0.445061	-0.010486
1469	7.3400e-01	-18.6845	-116.848949	0.001233	12.327667	4.176727	-0.098408
1470	7.3450e-01	-18.7198	-117.062703	0.000536	5.355462	1.814480	-0.042751
1471	7.3500e-01	-18.7551	-117.244193	0.000455	4.547090	1.540596	-0.036298
1472	7.3550e-01	-18.7952	-117.538609	0.000738	7.376391	2.499189	-0.058883
1473	7.3600e-01	-18.8401	-117.691867	0.000384	3.839765	1.300948	-0.030652
1474	7.3650e-01	-18.8866	-117.756396	0.000162	1.616743	0.547767	-0.012906
1475	7.3700e-01	-18.9251	-118.010482	0.000637	6.365927	2.156834	-0.050817
1476	7.3750e-01	-18.9652	-118.296832	0.000717	7.174298	2.430718	-0.057270
1477	7.3800e-01	-18.9925	-118.675943	0.000950	9.498367	3.218134	-0.075822
1478	7.3850e-01	-19.0326	-118.756605	0.000202	2.020929	0.684709	-0.016132
1479	7.3900e-01	-19.0775	-119.115551	0.000899	8.993134	3.046956	-0.071789
1480	7.3950e-01	-19.1064	-119.272842	0.000394	3.940812	1.335183	-0.031458
1481	7.4000e-01	-19.1626	-119.534993	0.000657	6.568019	2.225305	-0.052430
1482	7.4050e-01	-19.1930	-119.684218	0.000374	3.738719	1.266712	-0.029845
1483	7.4100e-01	-19.2315	-119.974601	0.000728	7.275345	2.464953	-0.058077
1484	7.4150e-01	-19.2733	-120.156090	0.000455	4.547090	1.540596	-0.036298
1485	7.4200e-01	-19.3198	-120.712658	0.001394	13.944411	4.724494	-0.111314
1486	7.4250e-01	-19.3487	-120.752989	0.000101	1.010465	0.342355	-0.008066
1487	7.4300e-01	-19.3936	-120.595698	-0.000394	-3.940812	-1.335183	0.031458
1488	7.4350e-01	-19.4321	-121.071603	0.001192	11.923482	4.039785	-0.095181
1489	7.4400e-01	-19.4754	-121.438615	0.000920	9.195227	3.115427	-0.073402
1490	7.4450e-01	-19.5091	-121.321656	-0.000293	-2.930347	-0.992828	0.023392
1491	7.4500e-01	-19.5524	-121.874190	0.001384	13.843364	4.690259	-0.110507
1492	7.4550e-01	-19.5941	-122.160540	0.000717	7.174298	2.430718	-0.057270
1493	7.4600e-01	-19.6326	-122.281533	0.000303	3.031394	1.027064	-0.024199
1494	7.4650e-01	-19.6759	-122.551751	0.000677	6.770112	2.293776	-0.054044
1495	7.4700e-01	-19.7112	-122.713075	0.000404	4.041858	1.369419	-0.032265
1496	7.4750e-01	-19.7609	-122.922796	0.000525	5.254416	1.780244	-0.041944
1497	7.4800e-01	-19.7882	-123.100252	0.000445	4.446044	1.506360	-0.035491
1498	7.4850e-01	-19.8347	-123.314006	0.000536	5.355462	1.814480	-0.042751
1499	7.4900e-01	-19.8813	-123.451132	0.000344	3.435579	1.164006	-0.027425
1500	7.4950e-01	-19.9149	-123.818144	0.000920	9.195227	3.115427	-0.073402
1501	7.5000e-01	-19.9470	-124.108527	0.000728	7.275345	2.464953	-0.058077
1502	7.5050e-01	-19.9567	-124.241619	0.000333	3.334533	1.129770	-0.026618
1503	7.5100e-01	-19.9342	-124.015765	0.000566	5.658601	1.917186	0.045171
1504	7.5150e-01	-19.8925	-123.995600	0.000051	0.505232	0.171177	0.004033
1505	7.5200e-01	-19.8556	-123.963335	0.000081	0.808372	0.273884	0.006453
1506	7.5250e-01	-19.8123	-123.999633	-0.000091	-0.909418	-0.308119	-0.007260
1507	7.5300e-01	-19.7706	-123.664886	0.000839	8.386856	2.841544	0.066949
1508	7.5350e-01	-19.7353	-123.624555	0.000101	1.010465	0.342355	0.008066
1509	7.5400e-01	-19.7032	-123.418867	0.000515	5.153369	1.746009	0.041138
1510	7.5450e-01	-19.6615	-123.176881	0.000606	6.062787	2.054128	0.048397
1511	7.5500e-01	-19.6166	-123.209146	-0.000081	-0.808372	-0.273884	-0.006453
1512	7.5550e-01	-19.5748	-122.955061	0.000637	6.365927	2.156834	0.050817
1513	7.5600e-01	-19.5444	-122.592082	0.000909	9.094181	3.081192	0.072596
1514	7.5650e-01	-19.4962	-122.688876	-0.000243	-2.425115	-0.821651	-0.019359
1515	7.5700e-01	-19.4577	-122.604181	0.000212	2.121976	0.718945	0.016939
1516	7.5750e-01	-19.4241	-122.588049	0.000040	0.404186	0.136942	0.003226
1517	7.5800e-01	-19.3695	-122.551751	0.000091	0.909418	0.308119	0.007260
1518	7.5850e-01	-19.3438	-121.962918	0.001475	14.752782	4.998378	0.117766
1519	7.5900e-01	-19.2941	-122.192805	-0.000576	-5.759648	-1.951422	-0.045977
1520	7.5950e-01	-19.2604	-121.793528	0.001000	10.003599	3.389311	0.079855
1521	7.6000e-01	-19.2219	-121.628171	0.000414	4.142905	1.403654	0.033071
1522	7.6050e-01	-19.1770	-121.603973	0.000061	0.606279	0.205413	0.004840
1523	7.6100e-01	-19.1465	-121.345854	0.000647	6.466973	2.191070	0.051624
1524	7.6150e-01	-19.1032	-121.277292	0.000172	1.717790	0.582003	0.013713
1525	7.6200e-01	-19.0599	-121.208729	0.000172	1.717790	0.582003	0.013713
1526	7.6250e-01	-19.0294	-121.083703	0.000313	3.132440	1.061299	0.025005
1527	7.6300e-01	-18.9813	-121.027239	0.000141	1.414650	0.479297	0.011293
1528	7.6350e-01	-18.9412	-120.789287	0.000596	5.961741	2.019892	0.047591
1529	7.6400e-01	-18.9043	-120.543268	0.000616	6.163834	2.088363	0.049204
1530	7.6450e-01	-18.8626	-120.402109	0.000354	3.536626	1.198241	0.028232
1531	7.6500e-01	-18.8160	-120.131892	0.000677	6.770112	2.293776	0.054044
1532	7.6550e-01	-18.7727	-120.002832	0.000323	3.233487	1.095535	0.025812
1533	7.6600e-01	-18.7390	-120.127858	-0.000313	-3.132440	-1.061299	-0.025005
1534	7.6650e-01	-18.6973	-119.841508	0.000717	7.174298	2.430718	0.057270
1535	7.6700e-01	-18.6652	-119.660019	0.000455	4.547090	1.540596	0.036298
1536	7.6750e-01	-18.6284	-119.502728	0.000394	3.940812	1.335183	0.031458
1537	7.6800e-01	-18.5770	-119.236544	0.000667	6.669066	2.259541	0.053237
1538	7.6850e-01	-18.5465	-119.167981	0.000172	1.717790	0.582003	0.013713
1539	7.6900e-01	-18.4952	-118.966326	0.000505	5.052323	1.711773	0.040331
1540	7.6950e-01	-18.4599	-118.696108	0.000677	6.770112	2.293776	0.054044
1541	7.7000e-01	-18.4166	-118.635612	0.000152	1.515697	0.513532	0.012099
1542	7.7050e-01	-18.3813	-118.482354	0.000384	3.839765	1.300948	0.030652
1543	7.7100e-01	-18.3412	-118.316997	0.000414	4.142905	1.403654	0.033071
1544	7.7150e-01	-18.2979	-118.159706	0.000394	3.940812	1.335183	0.031458
1545	7.7200e-01	-18.2658	-117.901588	0.000647	6.466973	2.191070	0.051624
1546	7.7250e-01	-18.2161	-117.566841	0.000839	8.386856	2.841544	0.066949
1547	7.7300e-01	-18.1808	-117.554742	0.000030	0.303139	0.102706	0.002420
1548	7.7350e-01	-18.1391	-117.433749	0.000303	3.031394	1.027064	0.024199
1549	7.7400e-01	-18.0957	-117.312756	0.000303	3.031394	1.027064	0.024199
1550	7.7450e-01	-18.0637	-117.264358	0.000121	1.212557	0.410826	0.009679
1551	7.7500e-01	-18.0268	-116.840883	0.001061	10.609878	3.594724	0.084695
1552	7.7550e-01	-17.9818	-116.824751	0.000040	0.404186	0.136942	0.003226
1553	7.7600e-01	-17.9417	-116.675526	0.000374	3.738719	1.266712	0.029845
1554	7.7650e-01	-17.9016	-116.554533	0.000303	3.031394	1.027064	0.024199
1555	7.7700e-01	-17.8599	-116.264150	0.000728	7.275345	2.464953	0.058077
1556	7.7750e-01	-17.8166	-116.018131	0.000616	6.163834	2.088363	0.049204
1557	7.7800e-01	-17.7733	-115.973767	0.000111	1.111511	0.376590	0.008873
1558	7.7850e-01	-17.7348	-115.792277	0.000455	4.547090	1.540596	0.036298
1559	7.7900e-01	-17.7027	-115.554325	0.000596	5.961741	2.019892	0.047591
1560	7.7950e-01	-17.6642	-115.465596	0.000222	2.223022	0.753180	0.017746
1561	7.8000e-01	-17.6209	-115.171180	0.000738	7.376391	2.499189	0.058883
1562	7.8050e-01	-17.5888	-115.106651	0.000162	1.616743	0.547767	0.012906
1563	7.8100e-01	-17.5391	-114.832400	0.000687	6.871159	2.328012	0.054850
1564	7.8150e-01	-17.4926	-114.828367	0.000010	0.101046	0.034235	0.000807
1565	7.8200e-01	-17.4476	-114.501686	0.000818	8.184763	2.773073	0.065336
1566	7.8250e-01	-17.4252	-114.400858	0.000253	2.526161	0.855887	0.020165
1567	7.8300e-01	-17.3770	-114.183071	0.000546	5.456508	1.848715	0.043557
1568	7.8350e-01	-17.3402	-113.892688	0.000728	7.275345	2.464953	0.058077
1569	7.8400e-01	-17.3017	-113.751530	0.000354	3.536626	1.198241	0.028232
1570	7.8450e-01	-17.2567	-113.662801	0.000222	2.223022	0.753180	0.017746
1571	7.8500e-01	-17.2311	-113.469213	0.000485	4.850230	1.643302	0.038718
1572	7.8550e-01	-17.1717	-113.307889	0.000404	4.041858	1.369419	0.032265
1573	7.8600e-01	-17.1428	-113.049770	0.000647	6.466973	2.191070	0.051624
1574	7.8650e-01	-17.1011	-112.981208	0.000172	1.717790	0.582003	0.013713
1575	7.8700e-01	-17.0642	-112.924744	0.000141	1.414650	0.479297	0.011293
1576	7.8750e-01	-17.0225	-112.505302	0.001051	10.508831	3.560488	0.083888
1577	7.8800e-01	-16.9872	-112.295581	0.000525	5.254416	1.780244	0.041944
1578	7.8850e-01	-16.9391	-112.206853	0.000222	2.223022	0.753180	0.017746
1579	7.8900e-01	-16.8974	-112.045529	0.000404	4.041858	1.369419	0.032265
1580	7.8950e-01	-16.8621	-111.916470	0.000323	3.233487	1.095535	0.025812
1581	7.9000e-01	-16.8220	-111.609954	0.000768	7.679530	2.601895	0.061303
1582	7.9050e-01	-16.7787	-111.561557	0.000121	1.212557	0.410826	0.009679
1583	7.9100e-01	-16.7354	-111.408299	0.000384	3.839765	1.300948	0.030652
1584	7.9150e-01	-16.6920	-111.045320	0.000909	9.094181	3.081192	0.072596
1585	7.9200e-01	-16.6503	-110.940460	0.000263	2.627208	0.890122	0.020972
1586	7.9250e-01	-16.6247	-110.642011	0.000748	7.477438	2.533424	0.059690
1587	7.9300e-01	-16.5814	-110.553282	0.000222	2.223022	0.753180	0.017746
1588	7.9350e-01	-16.5364	-110.347594	0.000515	5.153369	1.746009	0.041138
1589	7.9400e-01	-16.5011	-110.154006	0.000485	4.850230	1.643302	0.038718
1590	7.9450e-01	-16.4546	-109.996715	0.000394	3.940812	1.335183	0.031458
1591	7.9500e-01	-16.4161	-109.851523	0.000364	3.637672	1.232477	0.029038
1592	7.9550e-01	-16.3712	-109.883788	-0.000081	-0.808372	-0.273884	-0.006453
1593	7.9600e-01	-16.3359	-109.649868	0.000586	5.860694	1.985657	0.046784
1594	7.9650e-01	-16.3070	-109.270757	0.000950	9.498367	3.218134	0.075822
1595	7.9700e-01	-16.2637	-109.129599	0.000354	3.536626	1.198241	0.028232
1596	7.9750e-01	-16.2268	-108.903745	0.000566	5.658601	1.917186	0.045171
1597	7.9800e-01	-16.1819	-108.738388	0.000414	4.142905	1.403654	0.033071
1598	7.9850e-01	-16.1418	-108.601263	0.000344	3.435579	1.164006	0.027425
1599	7.9900e-01	-16.1017	-108.238284	0.000909	9.094181	3.081192	0.072596
1600	7.9950e-01	-16.0600	-108.105191	0.000333	3.334533	1.129770	0.026618
1601	8.0000e-01	-16.0247	-107.992265	0.000283	2.829301	0.958593	0.022585
1602	8.0050e-01	-15.9782	-107.891437	0.000253	2.526161	0.855887	0.020165
1603	8.0100e-01	-15.9300	-107.713981	0.000445	4.446044	1.506360	0.035491
1604	8.0150e-01	-15.9060	-107.492160	0.000556	5.557555	1.882951	0.044364
1605	8.0200e-01	-15.8578	-107.338903	0.000384	3.839765	1.300948	0.030652
1606	8.0250e-01	-15.8193	-107.125149	0.000536	5.355462	1.814480	0.042751
1607	8.0300e-01	-15.7824	-106.701673	0.001061	10.609878	3.594724	0.084695
1608	8.0350e-01	-15.7407	-106.552449	0.000374	3.738719	1.266712	0.029845
1609	8.0400e-01	-15.7006	-106.463720	0.000222	2.223022	0.753180	0.017746
1610	8.0450e-01	-15.6637	-106.334661	0.000323	3.233487	1.095535	0.025812
1611	8.0500e-01	-15.6124	-105.971682	0.000909	9.094181	3.081192	0.072596
1612	8.0550e-01	-15.5835	-105.963616	0.000020	0.202093	0.068471	0.001613
1613	8.0600e-01	-15.5450	-105.899087	0.000162	1.616743	0.547767	0.012906
1614	8.0650e-01	-15.5001	-105.572406	0.000818	8.184763	2.773073	0.065336
1615	8.0700e-01	-15.4712	-105.403015	0.000424	4.243951	1.437890	0.033878
1616	8.0750e-01	-15.4247	-105.023904	0.000950	9.498367	3.218134	0.075822
1617	8.0800e-01	-15.3702	-104.927110	0.000243	2.425115	0.821651	0.019359
1618	8.0850e-01	-15.3381	-104.854514	0.000182	1.818836	0.616238	0.014519
1619	8.0900e-01	-15.3060	-104.596396	0.000647	6.466973	2.191070	0.051624
1620	8.0950e-01	-15.2514	-104.390708	0.000515	5.153369	1.746009	0.041138
1621	8.1000e-01	-15.2113	-104.213251	0.000445	4.446044	1.506360	0.035491
1622	8.1050e-01	-15.1696	-104.132589	0.000202	2.020929	0.684709	0.016132
1623	8.1100e-01	-15.1359	-103.939001	0.000485	4.850230	1.643302	0.038718
1624	8.1150e-01	-15.0974	-103.797842	0.000354	3.536626	1.198241	0.028232
1625	8.1200e-01	-15.0589	-103.479227	0.000798	7.982670	2.704602	0.063723
1626	8.1250e-01	-15.0124	-103.350168	0.000323	3.233487	1.095535	0.025812
1627	8.1300e-01	-14.9787	-103.088017	0.000657	6.568019	2.225305	0.052430
1628	8.1350e-01	-14.9306	-102.878296	0.000525	5.254416	1.780244	0.041944
1629	8.1400e-01	-14.9017	-102.781501	0.000243	2.425115	0.821651	0.019359
1630	8.1450e-01	-14.8664	-102.495151	0.000717	7.174298	2.430718	0.057270
1631	8.1500e-01	-14.8215	-102.491118	0.000010	0.101046	0.034235	0.000807
1632	8.1550e-01	-14.7782	-102.273331	0.000546	5.456508	1.848715	0.043557
1633	8.1600e-01	-14.7461	-101.793392	0.001202	12.024528	4.074020	0.095988
1634	8.1650e-01	-14.7012	-101.801458	-0.000020	-0.202093	-0.068471	-0.001613
1635	8.1700e-01	-14.6627	-101.563506	0.000596	5.961741	2.019892	0.047591
1636	8.1750e-01	-14.6146	-101.434446	0.000323	3.233487	1.095535	0.025812
1637	8.1800e-01	-14.5729	-101.152129	0.000707	7.073252	2.396483	0.056463
1638	8.1850e-01	-14.5424	-101.091633	0.000152	1.515697	0.513532	0.012099
1639	8.1900e-01	-14.5023	-100.760919	0.000829	8.285809	2.807308	0.066143
1640	8.1950e-01	-14.4606	-100.627827	0.000333	3.334533	1.129770	0.026618
1641	8.2000e-01	-14.4253	-100.159987	0.001172	11.721389	3.971314	0.093568
1642	8.2050e-01	-14.3803	-99.982531	0.000445	4.446044	1.506360	0.035491
1643	8.2100e-01	-14.3290	-100.071259	-0.000222	-2.223022	-0.753180	-0.017746
1644	8.2150e-01	-14.2969	-99.813141	0.000647	6.466973	2.191070	0.051624
1645	8.2200e-01	-14.2600	-99.429996	0.000960	9.599413	3.252369	0.076629
1646	8.2250e-01	-14.2167	-99.280772	0.000374	3.738719	1.266712	0.029845
1647	8.2300e-01	-14.1702	-99.208176	0.000182	1.818836	0.616238	0.014519
1648	8.2350e-01	-14.1477	-98.954091	0.000637	6.365927	2.156834	0.050817
1649	8.2400e-01	-14.0948	-98.816965	0.000344	3.435579	1.164006	0.027425
1650	8.2450e-01	-14.0611	-98.558847	0.000647	6.466973	2.191070	0.051624
1651	8.2500e-01	-14.0226	-98.284596	0.000687	6.871159	2.328012	0.054850
1652	8.2550e-01	-13.9745	-98.111173	0.000434	4.344998	1.472125	0.034685
1653	8.2600e-01	-13.9408	-98.050677	0.000152	1.515697	0.513532	0.012099
1654	8.2650e-01	-13.9007	-97.921618	0.000323	3.233487	1.095535	0.025812
1655	8.2700e-01	-13.8509	-97.611069	0.000778	7.780577	2.636131	0.062110
1656	8.2750e-01	-13.8140	-97.502175	0.000273	2.728254	0.924358	0.021779
1657	8.2800e-01	-13.7723	-97.066601	0.001091	10.913017	3.697430	0.087115
1658	8.2850e-01	-13.7306	-96.856879	0.000525	5.254416	1.780244	0.041944
1659	8.2900e-01	-13.7018	-96.836714	0.000051	0.505232	0.171177	0.004033
1660	8.2950e-01	-13.6600	-96.602794	0.000586	5.860694	1.985657	0.046784
1661	8.3000e-01	-13.6135	-96.296279	0.000768	7.679530	2.601895	0.061303
1662	8.3050e-01	-13.5750	-96.276113	0.000051	0.505232	0.171177	0.004033
1663	8.3100e-01	-13.5429	-96.062359	0.000536	5.355462	1.814480	0.042751
1664	8.3150e-01	-13.4916	-95.731645	0.000829	8.285809	2.807308	0.066143
1665	8.3200e-01	-13.4675	-95.477560	0.000637	6.365927	2.156834	0.050817
1666	8.3250e-01	-13.4258	-95.344468	0.000333	3.334533	1.129770	0.026618
1667	8.3300e-01	-13.3905	-95.029886	0.000788	7.881623	2.670366	0.062916
1668	8.3350e-01	-13.3408	-94.868562	0.000404	4.041858	1.369419	0.032265
1669	8.3400e-01	-13.2959	-94.683039	0.000465	4.648137	1.574831	0.037105
1670	8.3450e-01	-13.2590	-94.533815	0.000374	3.738719	1.266712	0.029845
1671	8.3500e-01	-13.2237	-94.263597	0.000677	6.770112	2.293776	0.054044
1672	8.3550e-01	-13.1756	-94.166803	0.000243	2.425115	0.821651	0.019359
1673	8.3600e-01	-13.1419	-93.840122	0.000818	8.184763	2.773073	0.065336
1674	8.3650e-01	-13.0986	-93.739294	0.000253	2.526161	0.855887	0.020165
1675	8.3700e-01	-13.0520	-93.658632	0.000202	2.020929	0.684709	0.016132
1676	8.3750e-01	-13.0119	-93.364216	0.000738	7.376391	2.499189	0.058883
1677	8.3800e-01	-12.9782	-93.299687	0.000162	1.616743	0.547767	0.012906
1678	8.3850e-01	-12.9301	-92.940741	0.000899	8.993134	3.046956	0.071789
1679	8.3900e-01	-12.9012	-92.573729	0.000920	9.195227	3.115427	0.073402
1680	8.3950e-01	-12.8499	-92.597927	-0.000061	-0.606279	-0.205413	-0.004840
1681	8.4000e-01	-12.8226	-92.533398	0.000162	1.616743	0.547767	0.012906
1682	8.4050e-01	-12.7857	-92.134121	0.001000	10.003599	3.389311	0.079855
1683	8.4100e-01	-12.7408	-91.835672	0.000748	7.477438	2.533424	0.059690
1684	8.4150e-01	-12.7023	-91.621917	0.000536	5.355462	1.814480	0.042751
1685	8.4200e-01	-12.6590	-91.525123	0.000243	2.425115	0.821651	0.019359
1686	8.4250e-01	-12.6125	-91.299270	0.000566	5.658601	1.917186	0.045171
1687	8.4300e-01	-12.5756	-91.117780	0.000455	4.547090	1.540596	0.036298
1688	8.4350e-01	-12.5355	-90.855629	0.000657	6.568019	2.225305	0.052430
1689	8.4400e-01	-12.4954	-90.569279	0.000717	7.174298	2.430718	0.057270
1690	8.4450e-01	-12.4569	-90.476517	0.000232	2.324068	0.787416	0.018552
1691	8.4500e-01	-12.4136	-90.161936	0.000788	7.881623	2.670366	0.062916
1692	8.4550e-01	-12.3670	-89.843321	0.000798	7.982670	2.704602	0.063723
1693	8.4600e-01	-12.3366	-89.577137	0.000667	6.669066	2.259541	0.053237
1694	8.4650e-01	-12.3061	-89.613434	-0.000091	-0.909418	-0.308119	-0.007260
1695	8.4700e-01	-12.2579	-89.573103	0.000101	1.010465	0.342355	0.008066
1696	8.4750e-01	-12.2130	-89.214158	0.000899	8.993134	3.046956	0.071789
1697	8.4800e-01	-12.1793	-88.988304	0.000566	5.658601	1.917186	0.045171
1698	8.4850e-01	-12.1360	-88.826980	0.000404	4.041858	1.369419	0.032265
1699	8.4900e-01	-12.1055	-88.669689	0.000394	3.940812	1.335183	0.031458
1700	8.4950e-01	-12.0542	-88.286545	0.000960	9.599413	3.252369	0.076629
1701	8.5000e-01	-12.0237	-88.270413	0.000040	0.404186	0.136942	0.003226
1702	8.5050e-01	-11.9772	-87.883235	0.000970	9.700460	3.286605	0.077435
1703	8.5100e-01	-11.9355	-87.685613	0.000495	4.951276	1.677538	0.039524
1704	8.5150e-01	-11.8938	-87.471859	0.000536	5.355462	1.814480	0.042751
1705	8.5200e-01	-11.8601	-87.153244	0.000798	7.982670	2.704602	0.063723
1706	8.5250e-01	-11.8168	-87.092748	0.000152	1.515697	0.513532	0.012099
1707	8.5300e-01	-11.7783	-86.991920	0.000253	2.526161	0.855887	0.020165
1708	8.5350e-01	-11.7350	-86.584577	0.001021	10.205692	3.457782	0.081469
1709	8.5400e-01	-11.6997	-86.560379	0.000061	0.606279	0.205413	0.004840
1710	8.5450e-01	-11.6580	-86.358724	0.000505	5.052323	1.711773	0.040331
1711	8.5500e-01	-11.6162	-86.036076	0.000808	8.083716	2.738837	0.064530
1712	8.5550e-01	-11.5729	-85.773925	0.000657	6.568019	2.225305	0.052430
1713	8.5600e-01	-11.5392	-85.596468	0.000445	4.446044	1.506360	0.035491
1714	8.5650e-01	-11.5007	-85.322217	0.000687	6.871159	2.328012	0.054850
1715	8.5700e-01	-11.4622	-85.068132	0.000637	6.365927	2.156834	0.050817
1716	8.5750e-01	-11.4205	-84.971338	0.000243	2.425115	0.821651	0.019359
1717	8.5800e-01	-11.3804	-84.789848	0.000455	4.547090	1.540596	0.036298
1718	8.5850e-01	-11.3403	-84.471234	0.000798	7.982670	2.704602	0.063723
1719	8.5900e-01	-11.3002	-84.241347	0.000576	5.759648	1.951422	0.045977
1720	8.5950e-01	-11.2601	-84.205049	0.000091	0.909418	0.308119	0.007260
1721	8.6000e-01	-11.2312	-83.805772	0.001000	10.003599	3.389311	0.079855
1722	8.6050e-01	-11.1783	-83.503290	0.000758	7.578484	2.567660	0.060496
1723	8.6100e-01	-11.1398	-83.390363	0.000283	2.829301	0.958593	0.022585
1724	8.6150e-01	-11.1029	-83.273403	0.000293	2.930347	0.992828	0.023392
1725	8.6200e-01	-11.0532	-82.926557	0.000869	8.689995	2.944250	0.069369
1726	8.6250e-01	-11.0211	-82.656339	0.000677	6.770112	2.293776	0.054044
1727	8.6300e-01	-10.9810	-82.563578	0.000232	2.324068	0.787416	0.018552
1728	8.6350e-01	-10.9264	-82.422420	0.000354	3.536626	1.198241	0.028232
1729	8.6400e-01	-10.8976	-82.079606	0.000859	8.588949	2.910015	0.068563
1730	8.6450e-01	-10.8639	-81.869885	0.000525	5.254416	1.780244	0.041944
1731	8.6500e-01	-10.8141	-81.853753	0.000040	0.404186	0.136942	0.003226
1732	8.6550e-01	-10.7740	-81.587568	0.000667	6.669066	2.259541	0.053237
1733	8.6600e-01	-10.7435	-81.414145	0.000434	4.344998	1.472125	0.034685
1734	8.6650e-01	-10.6954	-81.119729	0.000738	7.376391	2.499189	0.058883
1735	8.6700e-01	-10.6553	-80.942272	0.000445	4.446044	1.506360	0.035491
1736	8.6750e-01	-10.6264	-80.575260	0.000920	9.195227	3.115427	0.073402
1737	8.6800e-01	-10.5831	-80.381672	0.000485	4.850230	1.643302	0.038718
1738	8.6850e-01	-10.5398	-80.220348	0.000404	4.041858	1.369419	0.032265
1739	8.6900e-01	-10.4997	-80.046925	0.000434	4.344998	1.472125	0.034685
1740	8.6950e-01	-10.4516	-80.010627	0.000091	0.909418	0.308119	0.007260
1741	8.7000e-01	-10.4259	-79.514555	0.001243	12.428714	4.210962	0.099214
1742	8.7050e-01	-10.3778	-79.131411	0.000960	9.599413	3.252369	0.076629
1743	8.7100e-01	-10.3248	-79.155610	-0.000061	-0.606279	-0.205413	-0.004840
1744	8.7150e-01	-10.2960	-79.083014	0.000182	1.818836	0.616238	0.014519
1745	8.7200e-01	-10.2478	-78.913624	0.000424	4.243951	1.437890	0.033878
1746	8.7250e-01	-10.2125	-78.353023	0.001405	14.045457	4.758730	0.112120
1747	8.7300e-01	-10.1756	-78.203798	0.000374	3.738719	1.266712	0.029845
1748	8.7350e-01	-10.1275	-78.107004	0.000243	2.425115	0.821651	0.019359
1749	8.7400e-01	-10.0890	-77.780323	0.000818	8.184763	2.773073	0.065336
1750	8.7450e-01	-10.0698	-77.514139	0.000667	6.669066	2.259541	0.053237
1751	8.7500e-01	-10.0200	-77.256020	0.000647	6.466973	2.191070	0.051624
1752	8.7550e-01	-9.9863	-77.074531	0.000455	4.547090	1.540596	0.036298
1753	8.7600e-01	-9.9430	-76.933372	0.000354	3.536626	1.198241	0.028232
1754	8.7650e-01	-9.8933	-76.723651	0.000525	5.254416	1.780244	0.041944
1755	8.7700e-01	-9.8612	-76.679287	0.000111	1.111511	0.376590	0.008873
1756	8.7750e-01	-9.8147	-76.497798	0.000455	4.547090	1.540596	0.036298
1757	8.7800e-01	-9.7810	-75.900899	0.001495	14.954875	5.066849	0.119380
1758	8.7850e-01	-9.7329	-75.917032	-0.000040	-0.404186	-0.136942	-0.003226
1759	8.7900e-01	-9.7040	-75.646814	0.000677	6.770112	2.293776	0.054044
1760	8.7950e-01	-9.6591	-75.279802	0.000920	9.195227	3.115427	0.073402
1761	8.8000e-01	-9.6094	-75.178974	0.000253	2.526161	0.855887	0.020165
1762	8.8050e-01	-9.5725	-74.811963	0.000920	9.195227	3.115427	0.073402
1763	8.8100e-01	-9.5340	-74.751466	0.000152	1.515697	0.513532	0.012099
1764	8.8150e-01	-9.4971	-74.239263	0.001283	12.832900	4.347904	0.102441
1765	8.8200e-01	-9.4618	-74.198932	0.000101	1.010465	0.342355	0.008066
1766	8.8250e-01	-9.4185	-74.073905	0.000313	3.132440	1.061299	0.025005
1767	8.8300e-01	-9.3767	-73.706894	0.000920	9.195227	3.115427	0.073402
1768	8.8350e-01	-9.3366	-73.456841	0.000626	6.264880	2.122599	0.050010
1769	8.8400e-01	-9.2965	-73.497172	-0.000101	-1.010465	-0.342355	-0.008066
1770	8.8450e-01	-9.2644	-73.271319	0.000566	5.658601	1.917186	0.045171
1771	8.8500e-01	-9.2179	-73.037399	0.000586	5.860694	1.985657	0.046784
1772	8.8550e-01	-9.1826	-72.755082	0.000707	7.073252	2.396483	0.056463
1773	8.8600e-01	-9.1345	-72.488898	0.000667	6.669066	2.259541	0.053237
1774	8.8650e-01	-9.0992	-72.117853	0.000930	9.296274	3.149663	0.074209
1775	8.8700e-01	-9.0607	-72.004926	0.000283	2.829301	0.958593	0.022585
1776	8.8750e-01	-9.0238	-71.726642	0.000697	6.972205	2.362247	0.055657
1777	8.8800e-01	-8.9853	-71.625815	0.000253	2.526161	0.855887	0.020165
1778	8.8850e-01	-8.9356	-71.359630	0.000667	6.669066	2.259541	0.053237
1779	8.8900e-01	-8.8987	-71.085379	0.000687	6.871159	2.328012	0.054850
1780	8.8950e-01	-8.8522	-70.899857	0.000465	4.648137	1.574831	0.037105
1781	8.9000e-01	-8.8185	-70.823228	0.000192	1.919883	0.650474	0.015326
1782	8.9050e-01	-8.7832	-70.480415	0.000859	8.588949	2.910015	0.068563
1783	8.9100e-01	-8.7318	-70.129535	0.000879	8.791041	2.978485	0.070176
1784	8.9150e-01	-8.6982	-69.851251	0.000697	6.972205	2.362247	0.055657
1785	8.9200e-01	-8.6709	-69.839152	0.000030	0.303139	0.102706	0.002420
1786	8.9250e-01	-8.6228	-69.540703	0.000748	7.477438	2.533424	0.059690
1787	8.9300e-01	-8.5762	-69.520537	0.000051	0.505232	0.171177	0.004033
1788	8.9350e-01	-8.5490	-69.056731	0.001162	11.620342	3.937079	0.092761
1789	8.9400e-01	-8.5008	-68.818778	0.000596	5.961741	2.019892	0.047591
1790	8.9450e-01	-8.4639	-68.653421	0.000414	4.142905	1.403654	0.033071
1791	8.9500e-01	-8.4126	-68.584858	0.000172	1.717790	0.582003	0.013713
1792	8.9550e-01	-8.3805	-67.899232	0.001718	17.177897	5.820029	0.137125
1793	8.9600e-01	-8.3356	-67.854867	0.000111	1.111511	0.376590	0.008873
1794	8.9650e-01	-8.2907	-67.689510	0.000414	4.142905	1.403654	0.033071
1795	8.9700e-01	-8.2602	-67.270068	0.001051	10.508831	3.560488	0.083888
1796	8.9750e-01	-8.2169	-67.048248	0.000556	5.557555	1.882951	0.044364
1797	8.9800e-01	-8.1768	-67.056314	-0.000020	-0.202093	-0.068471	-0.001613
1798	8.9850e-01	-8.1463	-66.689302	0.000920	9.195227	3.115427	0.073402
1799	8.9900e-01	-8.0982	-66.536044	0.000384	3.839765	1.300948	0.030652
1800	8.9950e-01	-8.0693	-66.326323	0.000525	5.254416	1.780244	0.041944
1801	9.0000e-01	-8.0147	-66.169032	0.000394	3.940812	1.335183	0.031458
1802	9.0050e-01	-7.9843	-65.898815	0.000677	6.770112	2.293776	0.054044
1803	9.0100e-01	-7.9426	-65.769755	0.000323	3.233487	1.095535	0.025812
1804	9.0150e-01	-7.9041	-65.394677	0.000940	9.397320	3.183898	0.075016
1805	9.0200e-01	-7.8559	-65.225287	0.000424	4.243951	1.437890	0.033878
1806	9.0250e-01	-7.8174	-64.914739	0.000778	7.780577	2.636131	0.062110
1807	9.0300e-01	-7.7853	-64.636455	0.000697	6.972205	2.362247	0.055657
1808	9.0350e-01	-7.7420	-64.543693	0.000232	2.324068	0.787416	0.018552
1809	9.0400e-01	-7.6987	-64.208946	0.000839	8.386856	2.841544	0.066949
1810	9.0450e-01	-7.6650	-63.999225	0.000525	5.254416	1.780244	0.041944
1811	9.0500e-01	-7.6249	-63.628180	0.000930	9.296274	3.149663	0.074209
1812	9.0550e-01	-7.5896	-63.402327	0.000566	5.658601	1.917186	0.045171
1813	9.0600e-01	-7.5415	-63.188572	0.000536	5.355462	1.814480	0.042751
1814	9.0650e-01	-7.4998	-63.027248	0.000404	4.041858	1.369419	0.032265
1815	9.0700e-01	-7.4613	-62.773163	0.000637	6.365927	2.156834	0.050817
1816	9.0750e-01	-7.4212	-62.523111	0.000626	6.264880	2.122599	0.050010
1817	9.0800e-01	-7.3987	-62.156099	0.000920	9.195227	3.115427	0.073402
1818	9.0850e-01	-7.3378	-62.212562	-0.000141	-1.414650	-0.479297	-0.011293
1819	9.0900e-01	-7.2961	-61.889915	0.000808	8.083716	2.738837	0.064530
1820	9.0950e-01	-7.2640	-61.603565	0.000717	7.174298	2.430718	0.057270
1821	9.1000e-01	-7.2207	-61.397877	0.000515	5.153369	1.746009	0.041138
1822	9.1050e-01	-7.1789	-61.018765	0.000950	9.498367	3.218134	0.075822
1823	9.1100e-01	-7.1469	-60.909872	0.000273	2.728254	0.924358	0.021779
1824	9.1150e-01	-7.1051	-60.679985	0.000576	5.759648	1.951422	0.045977
1825	9.1200e-01	-7.0602	-60.393635	0.000717	7.174298	2.430718	0.057270
1826	9.1250e-01	-7.0233	-60.111318	0.000707	7.073252	2.396483	0.056463
1827	9.1300e-01	-6.9800	-59.780604	0.000829	8.285809	2.807308	0.066143
1828	9.1350e-01	-6.9479	-59.679777	0.000253	2.526161	0.855887	0.020165
1829	9.1400e-01	-6.8950	-59.627346	0.000131	1.313604	0.445061	0.010486
1830	9.1450e-01	-6.8661	-59.393427	0.000586	5.860694	1.985657	0.046784
1831	9.1500e-01	-6.8212	-59.078845	0.000788	7.881623	2.670366	0.062916
1832	9.1550e-01	-6.7763	-58.615039	0.001162	11.620342	3.937079	0.092761
1833	9.1600e-01	-6.7378	-58.397251	0.000546	5.456508	1.848715	0.043557
1834	9.1650e-01	-6.7009	-58.187530	0.000525	5.254416	1.780244	0.041944
1835	9.1700e-01	-6.6608	-57.921346	0.000667	6.669066	2.259541	0.053237
1836	9.1750e-01	-6.6159	-57.808419	0.000283	2.829301	0.958593	0.022585
1837	9.1800e-01	-6.5838	-57.598698	0.000525	5.254416	1.780244	0.041944
1838	9.1850e-01	-6.5372	-57.388977	0.000525	5.254416	1.780244	0.041944
1839	9.1900e-01	-6.4955	-57.191355	0.000495	4.951276	1.677538	0.039524
1840	9.1950e-01	-6.4683	-56.735615	0.001142	11.418249	3.868608	0.091148
1841	9.2000e-01	-6.4266	-56.425066	0.000778	7.780577	2.636131	0.062110
1842	9.2050e-01	-6.3865	-56.255676	0.000424	4.243951	1.437890	0.033878
1843	9.2100e-01	-6.3303	-56.267775	-0.000030	-0.303139	-0.102706	-0.002420
1844	9.2150e-01	-6.3062	-55.860432	0.001021	10.205692	3.457782	0.081469
1845	9.2200e-01	-6.2645	-55.618446	0.000606	6.062787	2.054128	0.048397
1846	9.2250e-01	-6.2260	-55.465189	0.000384	3.839765	1.300948	0.030652
1847	9.2300e-01	-6.1875	-55.380493	0.000212	2.121976	0.718945	0.016939
1848	9.2350e-01	-6.1410	-55.053812	0.000818	8.184763	2.773073	0.065336
1849	9.2400e-01	-6.1089	-54.803760	0.000626	6.264880	2.122599	0.050010
1850	9.2450e-01	-6.0656	-54.569841	0.000586	5.860694	1.985657	0.046784
1851	9.2500e-01	-6.0255	-54.315755	0.000637	6.365927	2.156834	0.050817
1852	9.2550e-01	-5.9822	-53.968909	0.000869	8.689995	2.944250	0.069369
1853	9.2600e-01	-5.9421	-53.565599	0.001010	10.104645	3.423547	0.080662
1854	9.2650e-01	-5.9052	-53.363944	0.000505	5.052323	1.711773	0.040331
1855	9.2700e-01	-5.8587	-53.351845	0.000030	0.303139	0.102706	0.002420
1856	9.2750e-01	-5.8234	-52.980800	0.000930	9.296274	3.149663	0.074209
1857	9.2800e-01	-5.7849	-52.900138	0.000202	2.020929	0.684709	0.016132
1858	9.2850e-01	-5.7480	-52.577490	0.000808	8.083716	2.738837	0.064530
1859	9.2900e-01	-5.7175	-52.303239	0.000687	6.871159	2.328012	0.054850
1860	9.2950e-01	-5.6613	-52.202412	0.000253	2.526161	0.855887	0.020165
1861	9.3000e-01	-5.6276	-51.629712	0.001435	14.348596	4.861436	0.114540
1862	9.3050e-01	-5.5891	-51.436123	0.000485	4.850230	1.643302	0.038718
1863	9.3100e-01	-5.5490	-51.274799	0.000404	4.041858	1.369419	0.032265
1864	9.3150e-01	-5.5073	-51.105409	0.000424	4.243951	1.437890	0.033878
1865	9.3200e-01	-5.4624	-50.952151	0.000384	3.839765	1.300948	0.030652
1866	9.3250e-01	-5.4287	-50.589172	0.000909	9.094181	3.081192	0.072596
1867	9.3300e-01	-5.3854	-50.177796	0.001031	10.306738	3.492017	0.082275
1868	9.3350e-01	-5.3485	-50.048737	0.000323	3.233487	1.095535	0.025812
1869	9.3400e-01	-5.3052	-49.919678	0.000323	3.233487	1.095535	0.025812
1870	9.3450e-01	-5.2747	-49.427640	0.001233	12.327667	4.176727	0.098408
1871	9.3500e-01	-5.2314	-49.129191	0.000748	7.477438	2.533424	0.059690
1872	9.3550e-01	-5.1865	-49.028363	0.000253	2.526161	0.855887	0.020165
1873	9.3600e-01	-5.1480	-48.782344	0.000616	6.163834	2.088363	0.049204
1874	9.3650e-01	-5.1111	-48.407266	0.000940	9.397320	3.183898	0.075016
1875	9.3700e-01	-5.0565	-48.237876	0.000424	4.243951	1.437890	0.033878
1876	9.3750e-01	-5.0229	-48.028155	0.000525	5.254416	1.780244	0.041944
1877	9.3800e-01	-4.9844	-47.774069	0.000637	6.365927	2.156834	0.050817
1878	9.3850e-01	-4.9410	-47.649043	0.000313	3.132440	1.061299	0.025005
1879	9.3900e-01	-4.9073	-47.189270	0.001152	11.519296	3.902843	0.091955
1880	9.3950e-01	-4.8672	-46.947284	0.000606	6.062787	2.054128	0.048397
1881	9.4000e-01	-4.8207	-46.947284	0.000000	0.000000	0.000000	0.000000
1882	9.4050e-01	-4.7854	-46.616570	0.000829	8.285809	2.807308	0.066143
1883	9.4100e-01	-4.7405	-46.402816	0.000536	5.355462	1.814480	0.042751
1884	9.4150e-01	-4.7020	-46.003539	0.001000	10.003599	3.389311	0.079855
1885	9.4200e-01	-4.6651	-45.809950	0.000485	4.850230	1.643302	0.038718
1886	9.4250e-01	-4.6250	-45.394541	0.001041	10.407785	3.526253	0.083082
1887	9.4300e-01	-4.5849	-45.346144	0.000121	1.212557	0.410826	0.009679
1888	9.4350e-01	-4.5368	-45.011397	0.000839	8.386856	2.841544	0.066949
1889	9.4400e-01	-4.5063	-44.737146	0.000687	6.871159	2.328012	0.054850
1890	9.4450e-01	-4.4646	-44.551624	0.000465	4.648137	1.574831	0.037105
1891	9.4500e-01	-4.4181	-44.289472	0.000657	6.568019	2.225305	0.052430
1892	9.4550e-01	-4.3828	-44.043453	0.000616	6.163834	2.088363	0.049204
1893	9.4600e-01	-4.3427	-43.793401	0.000626	6.264880	2.122599	0.050010
1894	9.4650e-01	-4.2961	-43.567548	0.000566	5.658601	1.917186	0.045171
1895	9.4700e-01	-4.2592	-43.232800	0.000839	8.386856	2.841544	0.066949
1896	9.4750e-01	-4.2239	-43.196503	0.000091	0.909418	0.308119	0.007260
1897	9.4800e-01	-4.1822	-42.910153	0.000717	7.174298	2.430718	0.057270
1898	9.4850e-01	-4.1469	-42.740762	0.000424	4.243951	1.437890	0.033878
1899	9.4900e-01	-4.1036	-42.393916	0.000869	8.689995	2.944250	0.069369
1900	9.4950e-01	-4.0651	-42.006738	0.000970	9.700460	3.286605	0.077435
1901	9.5000e-01	-4.0218	-41.889779	0.000293	2.930347	0.992828	0.023392
1902	9.5050e-01	-3.9865	-41.768786	0.000303	3.031394	1.027064	0.024199
1903	9.5100e-01	-3.9400	-41.405807	0.000909	9.094181	3.081192	0.072596
1904	9.5150e-01	-3.9143	-40.937967	0.001172	11.721389	3.971314	0.093568
1905	9.5200e-01	-3.8662	-40.691948	0.000616	6.163834	2.088363	0.049204
1906	9.5250e-01	-3.8261	-40.377367	0.000788	7.881623	2.670366	0.062916
1907	9.5300e-01	-3.7892	-40.337036	0.000101	1.010465	0.342355	0.008066
1908	9.5350e-01	-3.7411	-40.228142	0.000273	2.728254	0.924358	0.021779
1909	9.5400e-01	-3.7010	-39.873229	0.000889	8.892088	3.012721	0.070983
1910	9.5450e-01	-3.6593	-39.594946	0.000697	6.972205	2.362247	0.055657
1911	9.5500e-01	-3.6288	-39.248099	0.000869	8.689995	2.944250	0.069369
1912	9.5550e-01	-3.5790	-38.933517	0.000788	7.881623	2.670366	0.062916
1913	9.5600e-01	-3.5470	-38.917385	0.000040	0.404186	0.136942	0.003226
1914	9.5650e-01	-3.5020	-38.534241	0.000960	9.599413	3.252369	0.076629
1915	9.5700e-01	-3.4700	-38.264023	0.000677	6.770112	2.293776	0.054044
1916	9.5750e-01	-3.4315	-37.876846	0.000970	9.700460	3.286605	0.077435
1917	9.5800e-01	-3.3753	-37.675191	0.000505	5.052323	1.711773	0.040331
1918	9.5850e-01	-3.3480	-37.384807	0.000728	7.275345	2.464953	0.058077
1919	9.5900e-01	-3.3047	-37.324311	0.000152	1.515697	0.513532	0.012099
1920	9.5950e-01	-3.2614	-37.090391	0.000586	5.860694	1.985657	0.046784
1921	9.6000e-01	-3.2277	-36.820174	0.000677	6.770112	2.293776	0.054044
1922	9.6050e-01	-3.1828	-36.416864	0.001010	10.104645	3.423547	0.080662
1923	9.6100e-01	-3.1443	-36.203110	0.000536	5.355462	1.814480	0.042751
1924	9.6150e-01	-3.1042	-36.037753	0.000414	4.142905	1.403654	0.033071
1925	9.6200e-01	-3.0737	-35.711072	0.000818	8.184763	2.773073	0.065336
1926	9.6250e-01	-3.0224	-35.565880	0.000364	3.637672	1.232477	0.029038
1927	9.6300e-01	-2.9742	-35.202901	0.000909	9.094181	3.081192	0.072596
1928	9.6350e-01	-2.9438	-35.021412	0.000455	4.547090	1.540596	0.036298
1929	9.6400e-01	-2.8988	-34.771360	0.000626	6.264880	2.122599	0.050010
1930	9.6450e-01	-2.8636	-34.569705	0.000505	5.052323	1.711773	0.040331
1931	9.6500e-01	-2.8251	-34.170428	0.001000	10.003599	3.389311	0.079855
1932	9.6550e-01	-2.7801	-34.029269	0.000354	3.536626	1.198241	0.028232
1933	9.6600e-01	-2.7529	-33.654191	0.000940	9.397320	3.183898	0.075016
1934	9.6650e-01	-2.7128	-33.440437	0.000536	5.355462	1.814480	0.042751
1935	9.6700e-01	-2.6646	-33.351709	0.000222	2.223022	0.753180	0.017746
1936	9.6750e-01	-2.6293	-32.847572	0.001263	12.630807	4.279433	0.100827
1937	9.6800e-01	-2.5812	-32.730612	0.000293	2.930347	0.992828	0.023392
1938	9.6850e-01	-2.5443	-32.395865	0.000839	8.386856	2.841544	0.066949
1939	9.6900e-01	-2.5122	-32.105481	0.000728	7.275345	2.464953	0.058077
1940	9.6950e-01	-2.4609	-32.053051	0.000131	1.313604	0.445061	0.010486
1941	9.7000e-01	-2.4336	-31.802999	0.000626	6.264880	2.122599	0.050010
1942	9.7050e-01	-2.3711	-31.476318	0.000818	8.184763	2.773073	0.065336
1943	9.7100e-01	-2.3566	-31.064942	0.001031	10.306738	3.492017	0.082275
1944	9.7150e-01	-2.3053	-30.746327	0.000798	7.982670	2.704602	0.063723
1945	9.7200e-01	-2.2556	-30.484176	0.000657	6.568019	2.225305	0.052430
1946	9.7250e-01	-2.2267	-30.314786	0.000424	4.243951	1.437890	0.033878
1947	9.7300e-01	-2.1866	-30.016336	0.000748	7.477438	2.533424	0.059690
1948	9.7350e-01	-2.1449	-29.794516	0.000556	5.557555	1.882951	0.044364
1949	9.7400e-01	-2.0983	-29.717887	0.000192	1.919883	0.650474	0.015326
1950	9.7450e-01	-2.0614	-29.298445	0.001051	10.508831	3.560488	0.083888
1951	9.7500e-01	-2.0229	-28.983863	0.000788	7.881623	2.670366	0.062916
1952	9.7550e-01	-1.9925	-28.899168	0.000212	2.121976	0.718945	0.016939
1953	9.7600e-01	-1.9395	-28.556355	0.000859	8.588949	2.910015	0.068563
1954	9.7650e-01	-1.9026	-28.310336	0.000616	6.163834	2.088363	0.049204
1955	9.7700e-01	-1.8657	-28.011886	0.000748	7.477438	2.533424	0.059690
1956	9.7750e-01	-1.8240	-27.661007	0.000879	8.791041	2.978485	0.070176
1957	9.7800e-01	-1.7871	-27.427087	0.000586	5.860694	1.985657	0.046784
1958	9.7850e-01	-1.7470	-27.003612	0.001061	10.609878	3.594724	0.084695
1959	9.7900e-01	-1.7053	-27.011678	-0.000020	-0.202093	-0.068471	-0.001613
1960	9.7950e-01	-1.6492	-26.765659	0.000616	6.163834	2.088363	0.049204
1961	9.8000e-01	-1.6267	-26.467210	0.000748	7.477438	2.533424	0.059690
1962	9.8050e-01	-1.5898	-26.221191	0.000616	6.163834	2.088363	0.049204
1963	9.8100e-01	-1.5481	-25.821914	0.001000	10.003599	3.389311	0.079855
1964	9.8150e-01	-1.5080	-25.575895	0.000616	6.163834	2.088363	0.049204
1965	9.8200e-01	-1.4663	-25.430703	0.000364	3.637672	1.232477	0.029038
1966	9.8250e-01	-1.4230	-25.104022	0.000818	8.184763	2.773073	0.065336
1967	9.8300e-01	-1.3828	-24.805573	0.000748	7.477438	2.533424	0.059690
1968	9.8350e-01	-1.3411	-24.652315	0.000384	3.839765	1.300948	0.030652
1969	9.8400e-01	-1.2994	-24.474859	0.000445	4.446044	1.506360	0.035491
1970	9.8450e-01	-1.2529	-24.107847	0.000920	9.195227	3.115427	0.073402
1971	9.8500e-01	-1.2256	-23.777133	0.000829	8.285809	2.807308	0.066143
1972	9.8550e-01	-1.1855	-23.486750	0.000728	7.275345	2.464953	0.058077
1973	9.8600e-01	-1.1486	-23.252830	0.000586	5.860694	1.985657	0.046784
1974	9.8650e-01	-1.1053	-22.901950	0.000879	8.791041	2.978485	0.070176
1975	9.8700e-01	-1.0668	-22.724494	0.000445	4.446044	1.506360	0.035491
1976	9.8750e-01	-1.0203	-22.643832	0.000202	2.020929	0.684709	0.016132
1977	9.8800e-01	-0.9866	-22.127595	0.001293	12.933946	4.382140	0.103247
1978	9.8850e-01	-0.9417	-21.970305	0.000394	3.940812	1.335183	0.031458
1979	9.8900e-01	-0.8984	-21.740418	0.000576	5.759648	1.951422	0.045977
1980	9.8950e-01	-0.8679	-21.401638	0.000849	8.487902	2.875779	0.067756
1981	9.9000e-01	-0.8198	-21.139486	0.000657	6.568019	2.225305	0.052430
1982	9.9050e-01	-0.7732	-21.139486	0.000000	0.000000	0.000000	0.000000
1983	9.9100e-01	-0.7428	-20.659548	0.001202	12.024528	4.074020	0.095988
1984	9.9150e-01	-0.6994	-20.514356	0.000364	3.637672	1.232477	0.029038
1985	9.9200e-01	-0.6674	-20.127179	0.000970	9.700460	3.286605	0.077435
1986	9.9250e-01	-0.6192	-20.022318	0.000263	2.627208	0.890122	0.020972
1987	9.9300e-01	-0.5807	-19.578677	0.001112	11.115110	3.765901	0.088728
1988	9.9350e-01	-0.5470	-19.320559	0.000647	6.466973	2.191070	0.051624
1989	9.9400e-01	-0.4909	-19.014043	0.000768	7.679530	2.601895	0.061303
1990	9.9450e-01	-0.4684	-18.743826	0.000677	6.770112	2.293776	0.054044
1991	9.9500e-01	-0.4219	-18.388913	0.000889	8.892088	3.012721	0.070983
1992	9.9550e-01	-0.3818	-18.284053	0.000263	2.627208	0.890122	0.020972
1993	9.9600e-01	-0.3417	-17.828312	0.001142	11.418249	3.868608	0.091148
1994	9.9650e-01	-0.3048	-17.747650	0.000202	2.020929	0.684709	0.016132
1995	9.9700e-01	-0.2647	-17.348374	0.001000	10.003599	3.389311	0.079855
1996	9.9750e-01	-0.2246	-17.074123	0.000687	6.871159	2.328012	0.054850
1997	9.9800e-01	-0.1861	-16.767607	0.000768	7.679530	2.601895	0.061303
1998	9.9850e-01	-0.1348	-16.707111	0.000152	1.515697	0.513532	0.012099
1999	9.9900e-01	-0.1011	-16.453026	0.000637	6.365927	2.156834	0.050817
2000	9.9950e-01	-0.0642	-16.041650	0.001031	10.306738	3.492017	0.082275
2001	1.0000e+00	-0.0273	-15.791598	0.001031	10.306738	3.492017	0.050010

PMax (uC/cm2):	1.31e+02
Pr (uC/cm2):	7.34e+00
-Pr (uC/cm2):	-8.66e+00
PLoss (uC/cm2):	-8.71e+00
-Vc:	-1.09e+00
C (Max-Eff) (nF):	6.58e-01
K (Eff):	2.23e+03
Vert. (+/-Pr) Shift (uC/cm2):	-6.63e-01
Offset (uC/cm2):	7.13e+00

A (Loop Area - uC/cm2·Volts):	-1.52e-01



Hysteresis Version: 5.48.1 - Radiant Technologies, Inc., 1999 - 9/12/24

