»»»»»»»»»»»»»»»»»»»»»»»»»»»»»»»»»»»» Hysteresis ««««««««««««««««««««««««««««««««««««
»»»  Executed Version:	5.48.1
»»»  Vision Version:	5.48.4 (R)
»»»  Vision Compiled:	9/18/24
»»»  Driver Version:	5.47.0
»»»  Windows Version:	Windows 8 or 8.1
»»»  Processor Information:	x86 (AMD or Intel) - 32 Processors
»»»  Tester Name:	PMF21124-494 (100V)
»»»  Tester S/N:	PMF21124-494
»»»  Internal Amp Type:	100V RevK 270k
»»»  Internal Amp S/N:	iAB2-596/K     
»»»  Execution Count:	1
»»»»»»»»»»»»»»»»»»»»»»»»»»»»»»»»»»»»»»»»»»««««««««««««««««««««««««««««««««««««««««««

Stored:	6/18/2025 - 15:55:40
Configured:	06/18/25 09:47:30 AM
Executed:	06/18/25 03:54:55 PM

»»»»»»»»»»»»»»»»»»»»»»»»»»»»»»»»»»» Sample Info ««««««««««««««««««««««««««««««««««««
Sample Name:	
Lot Name:	
Wafer Name:	
Die Row/Column:	0/0
Capacitor Number:	0
Sample Area (cm2):	1.00e-04
Sample Thickness (microns):	3.00e-01

Amplifier:	Internal

»»»»»»»»»»»»»»»»»»»»»»»»»»»»»»»»»»» Tester Info «««««««««««««««««««««««««««««««««««
Tester Name:	PMF21124-494 (100V)
Tester Serial Number:	PMF21124-494
Return Signal Amp. Level:	0.19 [Index: 3]

»»»»»»»»»»»»»»»»»»»»»»»»»»»»»»»» Hysteresis Info ««««««««««««««««««««««««««««««««««
Task Name:	Hyst-554
Volts:	20.00
Field:	666.67 (kV/cm)
DCBias:	0.00
DCField:	0.00 (kV/cm)
Hysteresis Period (ms):	2.00e+02
Preset:	Enabled
Preset Delay (ms):	1.00e+03
Profile:	Standard Bipolar

»»»»»»»»»»»»»»»»»»»»»»»»»»»»»»»»»»»»»» Data «««««««««««««««««««««««««««««««««««««««
Points:	2009

Valid Data

Point	Time (ms)	Drive Voltage	Measured Polarization (uC/cm2)	Capacitance (uF)	Normalized Capacitance (uF/cm2)	Dielectric Constant	Instantaneous Current (mA)
   1	0.0000e+00	0.0048	-8.597081	0.000324	3.243478	1.098920	0.000130
   2	9.9500e-02	0.0305	-8.467892	0.000324	3.243478	1.098920	0.000130
   3	1.9900e-01	0.0738	-8.233738	0.000588	5.878804	1.991793	0.000235
   4	2.9850e-01	0.1123	-7.967287	0.000669	6.689673	2.266523	0.000268
   5	3.9800e-01	0.1524	-7.704874	0.000659	6.588314	2.232181	0.000264
   6	4.9750e-01	0.2005	-7.490905	0.000537	5.372010	1.820086	0.000215
   7	5.9700e-01	0.2342	-7.204269	0.000720	7.196466	2.438229	0.000288
   8	6.9650e-01	0.2727	-6.958003	0.000618	6.182880	2.094816	0.000248
   9	7.9600e-01	0.3112	-6.639070	0.000801	8.007336	2.712959	0.000321
  10	8.9550e-01	0.3561	-6.404916	0.000588	5.878804	1.991793	0.000235
  11	9.9500e-01	0.3914	-6.150576	0.000639	6.385597	2.163499	0.000256
  12	1.0945e+00	0.4347	-5.892200	0.000649	6.486956	2.197840	0.000260
  13	1.1940e+00	0.4684	-5.658046	0.000588	5.878804	1.991793	0.000235
  14	1.2935e+00	0.5198	-5.395632	0.000659	6.588314	2.232181	0.000264
  15	1.3930e+00	0.5551	-5.133218	0.000659	6.588314	2.232181	0.000264
  16	1.4925e+00	0.5888	-4.886953	0.000618	6.182880	2.094816	0.000248
  17	1.5920e+00	0.6305	-4.604353	0.000710	7.095108	2.403888	0.000284
  18	1.6915e+00	0.6818	-4.378274	0.000568	5.676086	1.923110	0.000227
  19	1.7910e+00	0.7155	-4.136046	0.000608	6.081521	2.060475	0.000243
  20	1.8905e+00	0.7508	-3.881706	0.000639	6.385597	2.163499	0.000256
  21	1.9900e+00	0.7861	-3.631404	0.000628	6.284238	2.129158	0.000252
  22	2.0895e+00	0.8358	-3.352841	0.000699	6.993749	2.369546	0.000280
  23	2.1890e+00	0.8743	-3.082353	0.000679	6.791032	2.300864	0.000272
  24	2.2885e+00	0.9208	-2.844162	0.000598	5.980162	2.026134	0.000239
  25	2.3880e+00	0.9529	-2.553488	0.000730	7.297825	2.472570	0.000292
  26	2.4875e+00	0.9866	-2.222443	0.000831	8.311412	2.815983	0.000333
  27	2.5870e+00	1.0363	-1.992326	0.000578	5.777445	1.957451	0.000231
  28	2.6865e+00	1.0636	-1.729913	0.000659	6.588314	2.232181	0.000264
  29	2.7860e+00	1.1037	-1.427127	0.000760	7.601901	2.575594	0.000304
  30	2.8855e+00	1.1470	-1.188936	0.000598	5.980162	2.026134	0.000239
  31	2.9850e+00	1.1952	-0.886151	0.000760	7.601901	2.575594	0.000304
  32	3.0845e+00	1.2240	-0.668146	0.000547	5.473369	1.854428	0.000219
  33	3.1840e+00	1.2738	-0.373435	0.000740	7.399184	2.506911	0.000296
  34	3.2835e+00	1.3058	-0.058538	0.000791	7.905977	2.678618	0.000316
  35	3.3830e+00	1.3604	0.179653	0.000598	5.980162	2.026134	0.000239
  36	3.4825e+00	1.4005	0.413806	0.000588	5.878804	1.991793	0.000235
  37	3.5820e+00	1.4326	0.664109	0.000628	6.284238	2.129158	0.000252
  38	3.6815e+00	1.4775	0.926523	0.000659	6.588314	2.232181	0.000264
  39	3.7810e+00	1.5096	1.184899	0.000649	6.486956	2.197840	0.000260
  40	3.8805e+00	1.5433	1.475573	0.000730	7.297825	2.472570	0.000292
  41	3.9800e+00	1.5850	1.733950	0.000649	6.486956	2.197840	0.000260
  42	4.0795e+00	1.6331	2.008475	0.000689	6.892390	2.335205	0.000276
  43	4.1790e+00	1.6700	2.347594	0.000851	8.514129	2.884665	0.000341
  44	4.2785e+00	1.7149	2.569637	0.000557	5.574727	1.888769	0.000223
  45	4.3780e+00	1.7518	2.937016	0.000922	9.223640	3.125054	0.000369
  46	4.4775e+00	1.7871	3.191356	0.000639	6.385597	2.163499	0.000256
  47	4.5770e+00	1.8272	3.449732	0.000649	6.486956	2.197840	0.000260
  48	4.6765e+00	1.8705	3.708109	0.000649	6.486956	2.197840	0.000260
  49	4.7760e+00	1.9106	4.023006	0.000791	7.905977	2.678618	0.000316
  50	4.8755e+00	1.9427	4.245048	0.000557	5.574727	1.888769	0.000223
  51	4.9750e+00	1.9876	4.559945	0.000791	7.905977	2.678618	0.000316
  52	5.0745e+00	2.0278	4.838507	0.000699	6.993749	2.369546	0.000280
  53	5.1740e+00	2.0775	5.121107	0.000710	7.095108	2.403888	0.000284
  54	5.2735e+00	2.1144	5.367372	0.000618	6.182880	2.094816	0.000248
  55	5.3730e+00	2.1449	5.581340	0.000537	5.372010	1.820086	0.000215
  56	5.4725e+00	2.1866	5.904311	0.000811	8.108694	2.747300	0.000325
  57	5.5720e+00	2.2331	6.162688	0.000649	6.486956	2.197840	0.000260
  58	5.6715e+00	2.2620	6.457399	0.000740	7.399184	2.506911	0.000296
  59	5.7710e+00	2.3085	6.711738	0.000639	6.385597	2.163499	0.000256
  60	5.8705e+00	2.3454	7.042783	0.000831	8.311412	2.815983	0.000333
  61	5.9700e+00	2.3967	7.329420	0.000720	7.196466	2.438229	0.000288
  62	6.0695e+00	2.4192	7.603945	0.000689	6.892390	2.335205	0.000276
  63	6.1690e+00	2.4625	7.866359	0.000659	6.588314	2.232181	0.000264
  64	6.2685e+00	2.5170	8.181256	0.000791	7.905977	2.678618	0.000316
  65	6.3680e+00	2.5507	8.484041	0.000760	7.601901	2.575594	0.000304
  66	6.4675e+00	2.5989	8.693972	0.000527	5.270651	1.785745	0.000211
  67	6.5670e+00	2.6229	9.016943	0.000811	8.108694	2.747300	0.000325
  68	6.6665e+00	2.6662	9.271282	0.000639	6.385597	2.163499	0.000256
  69	6.7660e+00	2.7047	9.598290	0.000821	8.210053	2.781641	0.000329
  70	6.8655e+00	2.7513	9.852630	0.000639	6.385597	2.163499	0.000256
  71	6.9650e+00	2.7849	10.159452	0.000770	7.703260	2.609935	0.000308
  72	7.0645e+00	2.8267	10.385532	0.000568	5.676086	1.923110	0.000227
  73	7.1640e+00	2.8716	10.688317	0.000760	7.601901	2.575594	0.000304
  74	7.2635e+00	2.9133	10.926508	0.000598	5.980162	2.026134	0.000239
  75	7.3630e+00	2.9422	11.237367	0.000780	7.804618	2.644276	0.000312
  76	7.4625e+00	2.9871	11.463447	0.000568	5.676086	1.923110	0.000227
  77	7.5620e+00	3.0256	11.810641	0.000872	8.716847	2.953348	0.000349
  78	7.6615e+00	3.0657	12.048832	0.000598	5.980162	2.026134	0.000239
  79	7.7610e+00	3.1074	12.375840	0.000821	8.210053	2.781641	0.000329
  80	7.8605e+00	3.1491	12.650365	0.000689	6.892390	2.335205	0.000276
  81	7.9600e+00	3.1892	12.961224	0.000780	7.804618	2.644276	0.000312
  82	8.0595e+00	3.2277	13.207490	0.000618	6.182880	2.094816	0.000248
  83	8.1590e+00	3.2694	13.526423	0.000801	8.007336	2.712959	0.000321
  84	8.2585e+00	3.3095	13.813060	0.000720	7.196466	2.438229	0.000288
  85	8.3580e+00	3.3448	14.099697	0.000720	7.196466	2.438229	0.000288
  86	8.4575e+00	3.3769	14.394407	0.000740	7.399184	2.506911	0.000296
  87	8.5570e+00	3.4218	14.656821	0.000659	6.588314	2.232181	0.000264
  88	8.6565e+00	3.4619	14.967681	0.000780	7.804618	2.644276	0.000312
  89	8.7560e+00	3.5181	15.234132	0.000669	6.689673	2.266523	0.000268
  90	8.8555e+00	3.5486	15.504620	0.000679	6.791032	2.300864	0.000272
  91	8.9550e+00	3.5871	15.742811	0.000598	5.980162	2.026134	0.000239
  92	9.0545e+00	3.6240	16.033485	0.000730	7.297825	2.472570	0.000292
  93	9.1540e+00	3.6641	16.267638	0.000588	5.878804	1.991793	0.000235
  94	9.2535e+00	3.7010	16.598684	0.000831	8.311412	2.815983	0.000333
  95	9.3530e+00	3.7427	16.917617	0.000801	8.007336	2.712959	0.000321
  96	9.4525e+00	3.7892	17.208291	0.000730	7.297825	2.472570	0.000292
  97	9.5520e+00	3.8245	17.531262	0.000811	8.108694	2.747300	0.000325
  98	9.6515e+00	3.8566	17.821936	0.000730	7.297825	2.472570	0.000292
  99	9.7510e+00	3.9015	18.112609	0.000730	7.297825	2.472570	0.000292
 100	9.8505e+00	3.9432	18.415395	0.000760	7.601901	2.575594	0.000304
 101	9.9500e+00	3.9753	18.681846	0.000669	6.689673	2.266523	0.000268
 102	1.0050e+01	4.0154	18.992705	0.000780	7.804618	2.644276	0.000312
 103	1.0149e+01	4.0651	19.271267	0.000699	6.993749	2.369546	0.000280
 104	1.0248e+01	4.1020	19.557904	0.000720	7.196466	2.438229	0.000288
 105	1.0348e+01	4.1437	19.820318	0.000659	6.588314	2.232181	0.000264
 106	1.0447e+01	4.1854	20.135214	0.000791	7.905977	2.678618	0.000316
 107	1.0547e+01	4.2143	20.421851	0.000720	7.196466	2.438229	0.000288
 108	1.0646e+01	4.2657	20.664079	0.000608	6.081521	2.060475	0.000243
 109	1.0746e+01	4.2929	20.942642	0.000699	6.993749	2.369546	0.000280
 110	1.0845e+01	4.3459	21.289835	0.000872	8.716847	2.953348	0.000349
 111	1.0945e+01	4.3812	21.548212	0.000649	6.486956	2.197840	0.000260
 112	1.1044e+01	4.4213	21.798514	0.000628	6.284238	2.129158	0.000252
 113	1.1144e+01	4.4662	22.125522	0.000821	8.210053	2.781641	0.000329
 114	1.1243e+01	4.5031	22.472716	0.000872	8.716847	2.953348	0.000349
 115	1.1343e+01	4.5528	22.751278	0.000699	6.993749	2.369546	0.000280
 116	1.1443e+01	4.5833	23.033878	0.000710	7.095108	2.403888	0.000284
 117	1.1542e+01	4.6202	23.296292	0.000659	6.588314	2.232181	0.000264
 118	1.1642e+01	4.6571	23.615225	0.000801	8.007336	2.712959	0.000321
 119	1.1741e+01	4.6972	23.926085	0.000780	7.804618	2.644276	0.000312
 120	1.1841e+01	4.7421	24.208684	0.000710	7.095108	2.403888	0.000284
 121	1.1940e+01	4.7758	24.479173	0.000679	6.791032	2.300864	0.000272
 122	1.2040e+01	4.8175	24.769846	0.000730	7.297825	2.472570	0.000292
 123	1.2139e+01	4.8480	25.084743	0.000791	7.905977	2.678618	0.000316
 124	1.2239e+01	4.8945	25.351194	0.000669	6.689673	2.266523	0.000268
 125	1.2338e+01	4.9378	25.645905	0.000740	7.399184	2.506911	0.000296
 126	1.2438e+01	4.9779	25.928504	0.000710	7.095108	2.403888	0.000284
 127	1.2537e+01	5.0212	26.215141	0.000720	7.196466	2.438229	0.000288
 128	1.2636e+01	5.0614	26.497740	0.000710	7.095108	2.403888	0.000284
 129	1.2736e+01	5.0934	26.800526	0.000760	7.601901	2.575594	0.000304
 130	1.2835e+01	5.1351	27.038717	0.000598	5.980162	2.026134	0.000239
 131	1.2935e+01	5.1640	27.373799	0.000841	8.412771	2.850324	0.000337
 132	1.3034e+01	5.2170	27.680621	0.000770	7.703260	2.609935	0.000308
 133	1.3134e+01	5.2619	28.019741	0.000851	8.514129	2.884665	0.000341
 134	1.3233e+01	5.2956	28.241783	0.000557	5.574727	1.888769	0.000223
 135	1.3333e+01	5.3325	28.544568	0.000760	7.601901	2.575594	0.000304
 136	1.3432e+01	5.3758	28.895799	0.000882	8.818205	2.987689	0.000353
 137	1.3532e+01	5.4127	29.162250	0.000669	6.689673	2.266523	0.000268
 138	1.3632e+01	5.4512	29.444850	0.000710	7.095108	2.403888	0.000284
 139	1.3731e+01	5.5025	29.788006	0.000862	8.615488	2.919006	0.000345
 140	1.3831e+01	5.5378	30.026197	0.000598	5.980162	2.026134	0.000239
 141	1.3930e+01	5.5731	30.345131	0.000801	8.007336	2.712959	0.000321
 142	1.4030e+01	5.6116	30.647916	0.000760	7.601901	2.575594	0.000304
 143	1.4129e+01	5.6613	30.974924	0.000821	8.210053	2.781641	0.000329
 144	1.4229e+01	5.6870	31.241375	0.000669	6.689673	2.266523	0.000268
 145	1.4328e+01	5.7367	31.519937	0.000699	6.993749	2.369546	0.000280
 146	1.4428e+01	5.7736	31.782351	0.000659	6.588314	2.232181	0.000264
 147	1.4527e+01	5.8186	32.081099	0.000750	7.500542	2.541253	0.000300
 148	1.4627e+01	5.8490	32.355624	0.000689	6.892390	2.335205	0.000276
 149	1.4726e+01	5.8988	32.650335	0.000740	7.399184	2.506911	0.000296
 150	1.4825e+01	5.9308	32.977343	0.000821	8.210053	2.781641	0.000329
 151	1.4925e+01	5.9710	33.259943	0.000710	7.095108	2.403888	0.000284
 152	1.5024e+01	6.0095	33.578877	0.000801	8.007336	2.712959	0.000321
 153	1.5124e+01	6.0608	33.889736	0.000780	7.804618	2.644276	0.000312
 154	1.5223e+01	6.0897	34.196558	0.000770	7.703260	2.609935	0.000308
 155	1.5323e+01	6.1298	34.515492	0.000801	8.007336	2.712959	0.000321
 156	1.5422e+01	6.1667	34.802129	0.000720	7.196466	2.438229	0.000288
 157	1.5522e+01	6.2164	35.088765	0.000720	7.196466	2.438229	0.000288
 158	1.5621e+01	6.2533	35.427885	0.000851	8.514129	2.884665	0.000341
 159	1.5721e+01	6.2966	35.670113	0.000608	6.081521	2.060475	0.000243
 160	1.5820e+01	6.3447	36.025381	0.000892	8.919564	3.022030	0.000357
 161	1.5920e+01	6.3784	36.303943	0.000699	6.993749	2.369546	0.000280
 162	1.6020e+01	6.4137	36.606728	0.000760	7.601901	2.575594	0.000304
 163	1.6119e+01	6.4618	36.885291	0.000699	6.993749	2.369546	0.000280
 164	1.6218e+01	6.4827	37.123482	0.000598	5.980162	2.026134	0.000239
 165	1.6318e+01	6.5324	37.418193	0.000740	7.399184	2.506911	0.000296
 166	1.6418e+01	6.5709	37.725015	0.000770	7.703260	2.609935	0.000308
 167	1.6517e+01	6.6110	38.056060	0.000831	8.311412	2.815983	0.000333
 168	1.6616e+01	6.6431	38.350771	0.000740	7.399184	2.506911	0.000296
 169	1.6716e+01	6.6897	38.681816	0.000831	8.311412	2.815983	0.000333
 170	1.6816e+01	6.7314	38.976527	0.000740	7.399184	2.506911	0.000296
 171	1.6915e+01	6.7731	39.275275	0.000750	7.500542	2.541253	0.000300
 172	1.7015e+01	6.8148	39.590172	0.000791	7.905977	2.678618	0.000316
 173	1.7114e+01	6.8485	39.880845	0.000730	7.297825	2.472570	0.000292
 174	1.7213e+01	6.8870	40.195742	0.000791	7.905977	2.678618	0.000316
 175	1.7313e+01	6.9191	40.510639	0.000791	7.905977	2.678618	0.000316
 176	1.7413e+01	6.9720	40.785164	0.000689	6.892390	2.335205	0.000276
 177	1.7512e+01	7.0009	41.087949	0.000760	7.601901	2.575594	0.000304
 178	1.7611e+01	7.0506	41.418994	0.000831	8.311412	2.815983	0.000333
 179	1.7711e+01	7.0971	41.693519	0.000689	6.892390	2.335205	0.000276
 180	1.7811e+01	7.1356	42.020527	0.000821	8.210053	2.781641	0.000329
 181	1.7910e+01	7.1645	42.246607	0.000568	5.676086	1.923110	0.000227
 182	1.8009e+01	7.2078	42.517095	0.000679	6.791032	2.300864	0.000272
 183	1.8109e+01	7.2367	42.856214	0.000851	8.514129	2.884665	0.000341
 184	1.8209e+01	7.2880	43.130740	0.000689	6.892390	2.335205	0.000276
 185	1.8308e+01	7.3313	43.473896	0.000862	8.615488	2.919006	0.000345
 186	1.8407e+01	7.3650	43.768607	0.000740	7.399184	2.506911	0.000296
 187	1.8507e+01	7.4180	44.087541	0.000801	8.007336	2.712959	0.000321
 188	1.8607e+01	7.4436	44.394363	0.000770	7.703260	2.609935	0.000308
 189	1.8706e+01	7.4918	44.717334	0.000811	8.108694	2.747300	0.000325
 190	1.8805e+01	7.5351	45.016082	0.000750	7.500542	2.541253	0.000300
 191	1.8905e+01	7.5640	45.363276	0.000872	8.716847	2.953348	0.000349
 192	1.9005e+01	7.6041	45.617615	0.000639	6.385597	2.163499	0.000256
 193	1.9104e+01	7.6394	45.944623	0.000821	8.210053	2.781641	0.000329
 194	1.9203e+01	7.6859	46.231260	0.000720	7.196466	2.438229	0.000288
 195	1.9303e+01	7.7244	46.513859	0.000710	7.095108	2.403888	0.000284
 196	1.9402e+01	7.7613	46.820682	0.000770	7.703260	2.609935	0.000308
 197	1.9502e+01	7.8014	47.111355	0.000730	7.297825	2.472570	0.000292
 198	1.9602e+01	7.8543	47.397992	0.000720	7.196466	2.438229	0.000288
 199	1.9701e+01	7.8848	47.720963	0.000811	8.108694	2.747300	0.000325
 200	1.9800e+01	7.9281	47.959154	0.000598	5.980162	2.026134	0.000239
 201	1.9900e+01	7.9618	48.282125	0.000811	8.108694	2.747300	0.000325
 202	2.0000e+01	8.0131	48.597021	0.000791	7.905977	2.678618	0.000316
 203	2.0099e+01	8.0500	48.940178	0.000862	8.615488	2.919006	0.000345
 204	2.0198e+01	8.0869	49.210666	0.000679	6.791032	2.300864	0.000272
 205	2.0298e+01	8.1238	49.517488	0.000770	7.703260	2.609935	0.000308
 206	2.0398e+01	8.1688	49.840459	0.000811	8.108694	2.747300	0.000325
 207	2.0497e+01	8.2137	50.163430	0.000811	8.108694	2.747300	0.000325
 208	2.0596e+01	8.2425	50.466215	0.000760	7.601901	2.575594	0.000304
 209	2.0696e+01	8.2843	50.760926	0.000740	7.399184	2.506911	0.000296
 210	2.0796e+01	8.3260	51.067749	0.000770	7.703260	2.609935	0.000308
 211	2.0895e+01	8.3597	51.350348	0.000710	7.095108	2.403888	0.000284
 212	2.0994e+01	8.4014	51.636985	0.000720	7.196466	2.438229	0.000288
 213	2.1094e+01	8.4383	51.972067	0.000841	8.412771	2.850324	0.000337
 214	2.1194e+01	8.4816	52.266778	0.000740	7.399184	2.506911	0.000296
 215	2.1293e+01	8.5217	52.561489	0.000740	7.399184	2.506911	0.000296
 216	2.1392e+01	8.5746	52.888497	0.000821	8.210053	2.781641	0.000329
 217	2.1492e+01	8.5987	53.154948	0.000669	6.689673	2.266523	0.000268
 218	2.1591e+01	8.6404	53.445621	0.000730	7.297825	2.472570	0.000292
 219	2.1691e+01	8.6885	53.699961	0.000639	6.385597	2.163499	0.000256
 220	2.1791e+01	8.7158	54.022932	0.000811	8.108694	2.747300	0.000325
 221	2.1890e+01	8.7639	54.353977	0.000831	8.311412	2.815983	0.000333
 222	2.1989e+01	8.8024	54.632539	0.000699	6.993749	2.369546	0.000280
 223	2.2089e+01	8.8425	54.959547	0.000821	8.210053	2.781641	0.000329
 224	2.2189e+01	8.8874	55.278481	0.000801	8.007336	2.712959	0.000321
 225	2.2288e+01	8.9195	55.589341	0.000780	7.804618	2.644276	0.000312
 226	2.2387e+01	8.9645	55.892126	0.000760	7.601901	2.575594	0.000304
 227	2.2487e+01	9.0030	56.182799	0.000730	7.297825	2.472570	0.000292
 228	2.2587e+01	9.0447	56.477510	0.000740	7.399184	2.506911	0.000296
 229	2.2686e+01	9.0800	56.768184	0.000730	7.297825	2.472570	0.000292
 230	2.2785e+01	9.1185	57.062895	0.000740	7.399184	2.506911	0.000296
 231	2.2885e+01	9.1618	57.353569	0.000730	7.297825	2.472570	0.000292
 232	2.2985e+01	9.2003	57.644243	0.000730	7.297825	2.472570	0.000292
 233	2.3084e+01	9.2292	57.963176	0.000801	8.007336	2.712959	0.000321
 234	2.3183e+01	9.2853	58.241739	0.000699	6.993749	2.369546	0.000280
 235	2.3283e+01	9.3142	58.516264	0.000689	6.892390	2.335205	0.000276
 236	2.3383e+01	9.3639	58.806938	0.000730	7.297825	2.472570	0.000292
 237	2.3482e+01	9.4072	59.109723	0.000760	7.601901	2.575594	0.000304
 238	2.3581e+01	9.4361	59.436731	0.000821	8.210053	2.781641	0.000329
 239	2.3681e+01	9.4810	59.763739	0.000821	8.210053	2.781641	0.000329
 240	2.3780e+01	9.5211	60.062487	0.000750	7.500542	2.541253	0.000300
 241	2.3880e+01	9.5580	60.353161	0.000730	7.297825	2.472570	0.000292
 242	2.3980e+01	9.5997	60.623649	0.000679	6.791032	2.300864	0.000272
 243	2.4079e+01	9.6366	60.950657	0.000821	8.210053	2.781641	0.000329
 244	2.4178e+01	9.6783	61.229219	0.000699	6.993749	2.369546	0.000280
 245	2.4278e+01	9.7265	61.527967	0.000750	7.500542	2.541253	0.000300
 246	2.4378e+01	9.7489	61.830752	0.000760	7.601901	2.575594	0.000304
 247	2.4477e+01	9.8051	62.141612	0.000780	7.804618	2.644276	0.000312
 248	2.4576e+01	9.8339	62.404026	0.000659	6.588314	2.232181	0.000264
 249	2.4676e+01	9.8724	62.731034	0.000821	8.210053	2.781641	0.000329
 250	2.4776e+01	9.9222	63.017670	0.000720	7.196466	2.438229	0.000288
 251	2.4875e+01	9.9623	63.316418	0.000750	7.500542	2.541253	0.000300
 252	2.4974e+01	10.0024	63.586906	0.000679	6.791032	2.300864	0.000272
 253	2.5074e+01	10.0393	63.849320	0.000659	6.588314	2.232181	0.000264
 254	2.5174e+01	10.0714	64.184403	0.000841	8.412771	2.850324	0.000337
 255	2.5273e+01	10.1195	64.483151	0.000750	7.500542	2.541253	0.000300
 256	2.5372e+01	10.1596	64.785936	0.000760	7.601901	2.575594	0.000304
 257	2.5472e+01	10.1901	65.092758	0.000770	7.703260	2.609935	0.000308
 258	2.5572e+01	10.2350	65.367283	0.000689	6.892390	2.335205	0.000276
 259	2.5671e+01	10.2703	65.706403	0.000851	8.514129	2.884665	0.000341
 260	2.5770e+01	10.3152	66.001114	0.000740	7.399184	2.506911	0.000296
 261	2.5870e+01	10.3505	66.243342	0.000608	6.081521	2.060475	0.000243
 262	2.5970e+01	10.3938	66.566313	0.000811	8.108694	2.747300	0.000325
 263	2.6069e+01	10.4355	66.893321	0.000821	8.210053	2.781641	0.000329
 264	2.6169e+01	10.4772	67.192069	0.000750	7.500542	2.541253	0.000300
 265	2.6268e+01	10.5157	67.482742	0.000730	7.297825	2.472570	0.000292
 266	2.6367e+01	10.5494	67.769379	0.000720	7.196466	2.438229	0.000288
 267	2.6467e+01	10.5960	68.043904	0.000689	6.892390	2.335205	0.000276
 268	2.6567e+01	10.6457	68.374949	0.000831	8.311412	2.815983	0.000333
 269	2.6666e+01	10.6762	68.641400	0.000669	6.689673	2.266523	0.000268
 270	2.6765e+01	10.7131	68.903814	0.000659	6.588314	2.232181	0.000264
 271	2.6865e+01	10.7580	69.198525	0.000740	7.399184	2.506911	0.000296
 272	2.6965e+01	10.8045	69.537645	0.000851	8.514129	2.884665	0.000341
 273	2.7064e+01	10.8334	69.824281	0.000720	7.196466	2.438229	0.000288
 274	2.7163e+01	10.8831	70.143215	0.000801	8.007336	2.712959	0.000321
 275	2.7263e+01	10.9152	70.413703	0.000679	6.791032	2.300864	0.000272
 276	2.7363e+01	10.9489	70.728600	0.000791	7.905977	2.678618	0.000316
 277	2.7462e+01	10.9938	71.051570	0.000811	8.108694	2.747300	0.000325
 278	2.7561e+01	11.0339	71.318021	0.000669	6.689673	2.266523	0.000268
 279	2.7661e+01	11.0692	71.588509	0.000679	6.791032	2.300864	0.000272
 280	2.7761e+01	11.1141	71.891295	0.000760	7.601901	2.575594	0.000304
 281	2.7860e+01	11.1542	72.202154	0.000780	7.804618	2.644276	0.000312
 282	2.7959e+01	11.1895	72.484754	0.000710	7.095108	2.403888	0.000284
 283	2.8059e+01	11.2328	72.779465	0.000740	7.399184	2.506911	0.000296
 284	2.8159e+01	11.2745	73.041878	0.000659	6.588314	2.232181	0.000264
 285	2.8258e+01	11.3082	73.360812	0.000801	8.007336	2.712959	0.000321
 286	2.8358e+01	11.3548	73.639374	0.000699	6.993749	2.369546	0.000280
 287	2.8457e+01	11.3997	73.950234	0.000780	7.804618	2.644276	0.000312
 288	2.8556e+01	11.4270	74.152091	0.000507	5.067934	1.717063	0.000203
 289	2.8656e+01	11.4719	74.499284	0.000872	8.716847	2.953348	0.000349
 290	2.8756e+01	11.5104	74.793995	0.000740	7.399184	2.506911	0.000296
 291	2.8855e+01	11.5617	75.108892	0.000791	7.905977	2.678618	0.000316
 292	2.8954e+01	11.6018	75.379380	0.000679	6.791032	2.300864	0.000272
 293	2.9054e+01	11.6243	75.730611	0.000882	8.818205	2.987689	0.000353
 294	2.9154e+01	11.6724	75.997062	0.000669	6.689673	2.266523	0.000268
 295	2.9253e+01	11.7109	76.299847	0.000760	7.601901	2.575594	0.000304
 296	2.9352e+01	11.7558	76.614743	0.000791	7.905977	2.678618	0.000316
 297	2.9452e+01	11.7847	76.897343	0.000710	7.095108	2.403888	0.000284
 298	2.9552e+01	11.8280	77.143608	0.000618	6.182880	2.094816	0.000248
 299	2.9651e+01	11.8713	77.454468	0.000780	7.804618	2.644276	0.000312
 300	2.9750e+01	11.9146	77.741104	0.000720	7.196466	2.438229	0.000288
 301	2.9850e+01	11.9547	78.031778	0.000730	7.297825	2.472570	0.000292
 302	2.9950e+01	11.9836	78.350712	0.000801	8.007336	2.712959	0.000321
 303	3.0049e+01	12.0205	78.617163	0.000669	6.689673	2.266523	0.000268
 304	3.0148e+01	12.0654	78.936097	0.000801	8.007336	2.712959	0.000321
 305	3.0248e+01	12.1039	79.206585	0.000679	6.791032	2.300864	0.000272
 306	3.0348e+01	12.1440	79.420553	0.000537	5.372010	1.820086	0.000215
 307	3.0447e+01	12.1841	79.763709	0.000862	8.615488	2.919006	0.000345
 308	3.0547e+01	12.2339	80.070532	0.000770	7.703260	2.609935	0.000308
 309	3.0646e+01	12.2708	80.365243	0.000740	7.399184	2.506911	0.000296
 310	3.0745e+01	12.3077	80.680139	0.000791	7.905977	2.678618	0.000316
 311	3.0845e+01	12.3510	81.019259	0.000851	8.514129	2.884665	0.000341
 312	3.0945e+01	12.3943	81.285710	0.000669	6.689673	2.266523	0.000268
 313	3.1044e+01	12.4296	81.592532	0.000770	7.703260	2.609935	0.000308
 314	3.1143e+01	12.4729	81.891280	0.000750	7.500542	2.541253	0.000300
 315	3.1243e+01	12.5018	82.161768	0.000679	6.791032	2.300864	0.000272
 316	3.1343e+01	12.5547	82.448405	0.000720	7.196466	2.438229	0.000288
 317	3.1442e+01	12.5964	82.775413	0.000821	8.210053	2.781641	0.000329
 318	3.1541e+01	12.6205	83.045901	0.000679	6.791032	2.300864	0.000272
 319	3.1641e+01	12.6734	83.360797	0.000791	7.905977	2.678618	0.000316
 320	3.1741e+01	12.7023	83.667620	0.000770	7.703260	2.609935	0.000308
 321	3.1840e+01	12.7520	83.966368	0.000750	7.500542	2.541253	0.000300
 322	3.1939e+01	12.7905	84.220707	0.000639	6.385597	2.163499	0.000256
 323	3.2039e+01	12.8210	84.507344	0.000720	7.196466	2.438229	0.000288
 324	3.2139e+01	12.8708	84.761683	0.000639	6.385597	2.163499	0.000256
 325	3.2238e+01	12.9125	85.084654	0.000811	8.108694	2.747300	0.000325
 326	3.2337e+01	12.9558	85.347068	0.000659	6.588314	2.232181	0.000264
 327	3.2437e+01	12.9750	85.678113	0.000831	8.311412	2.815983	0.000333
 328	3.2536e+01	13.0216	85.956676	0.000699	6.993749	2.369546	0.000280
 329	3.2636e+01	13.0552	86.271572	0.000791	7.905977	2.678618	0.000316
 330	3.2736e+01	13.1114	86.562246	0.000730	7.297825	2.472570	0.000292
 331	3.2835e+01	13.1435	86.856957	0.000740	7.399184	2.506911	0.000296
 332	3.2934e+01	13.1788	87.115334	0.000649	6.486956	2.197840	0.000260
 333	3.3034e+01	13.2205	87.458490	0.000862	8.615488	2.919006	0.000345
 334	3.3133e+01	13.2558	87.733015	0.000689	6.892390	2.335205	0.000276
 335	3.3233e+01	13.2991	88.015615	0.000710	7.095108	2.403888	0.000284
 336	3.3333e+01	13.3408	88.314363	0.000750	7.500542	2.541253	0.000300
 337	3.3432e+01	13.3841	88.592925	0.000699	6.993749	2.369546	0.000280
 338	3.3532e+01	13.4274	88.923970	0.000831	8.311412	2.815983	0.000333
 339	3.3631e+01	13.4643	89.210607	0.000720	7.196466	2.438229	0.000288
 340	3.3730e+01	13.4964	89.533578	0.000811	8.108694	2.747300	0.000325
 341	3.3830e+01	13.5317	89.791955	0.000649	6.486956	2.197840	0.000260
 342	3.3929e+01	13.5879	90.062443	0.000679	6.791032	2.300864	0.000272
 343	3.4029e+01	13.6247	90.385413	0.000811	8.108694	2.747300	0.000325
 344	3.4129e+01	13.6633	90.672050	0.000720	7.196466	2.438229	0.000288
 345	3.4228e+01	13.7050	90.999058	0.000821	8.210053	2.781641	0.000329
 346	3.4328e+01	13.7435	91.277620	0.000699	6.993749	2.369546	0.000280
 347	3.4427e+01	13.7804	91.604628	0.000821	8.210053	2.781641	0.000329
 348	3.4526e+01	13.8173	91.883191	0.000699	6.993749	2.369546	0.000280
 349	3.4626e+01	13.8590	92.153679	0.000679	6.791032	2.300864	0.000272
 350	3.4725e+01	13.9007	92.472613	0.000801	8.007336	2.712959	0.000321
 351	3.4825e+01	13.9408	92.763286	0.000730	7.297825	2.472570	0.000292
 352	3.4925e+01	13.9777	93.074146	0.000780	7.804618	2.644276	0.000312
 353	3.5024e+01	14.0226	93.368857	0.000740	7.399184	2.506911	0.000296
 354	3.5123e+01	14.0659	93.631271	0.000659	6.588314	2.232181	0.000264
 355	3.5223e+01	14.0964	93.954241	0.000811	8.108694	2.747300	0.000325
 356	3.5322e+01	14.1381	94.277212	0.000811	8.108694	2.747300	0.000325
 357	3.5422e+01	14.1766	94.535589	0.000649	6.486956	2.197840	0.000260
 358	3.5522e+01	14.2183	94.818189	0.000710	7.095108	2.403888	0.000284
 359	3.5621e+01	14.2488	95.100788	0.000710	7.095108	2.403888	0.000284
 360	3.5721e+01	14.2985	95.383388	0.000710	7.095108	2.403888	0.000284
 361	3.5820e+01	14.3386	95.682136	0.000750	7.500542	2.541253	0.000300
 362	3.5919e+01	14.3787	95.980884	0.000750	7.500542	2.541253	0.000300
 363	3.6019e+01	14.4188	96.324040	0.000862	8.615488	2.919006	0.000345
 364	3.6118e+01	14.4557	96.606640	0.000710	7.095108	2.403888	0.000284
 365	3.6218e+01	14.4958	96.925573	0.000801	8.007336	2.712959	0.000321
 366	3.6318e+01	14.5440	97.212210	0.000720	7.196466	2.438229	0.000288
 367	3.6417e+01	14.5696	97.519032	0.000770	7.703260	2.609935	0.000308
 368	3.6517e+01	14.6114	97.805669	0.000720	7.196466	2.438229	0.000288
 369	3.6616e+01	14.6515	98.076157	0.000679	6.791032	2.300864	0.000272
 370	3.6715e+01	14.7076	98.399128	0.000811	8.108694	2.747300	0.000325
 371	3.6815e+01	14.7333	98.677690	0.000699	6.993749	2.369546	0.000280
 372	3.6914e+01	14.7718	99.000661	0.000811	8.108694	2.747300	0.000325
 373	3.7014e+01	14.8151	99.303446	0.000760	7.601901	2.575594	0.000304
 374	3.7114e+01	14.8600	99.565860	0.000659	6.588314	2.232181	0.000264
 375	3.7213e+01	14.8985	99.884794	0.000801	8.007336	2.712959	0.000321
 376	3.7313e+01	14.9338	100.203728	0.000801	8.007336	2.712959	0.000321
 377	3.7412e+01	14.9723	100.466141	0.000659	6.588314	2.232181	0.000264
 378	3.7511e+01	15.0188	100.716444	0.000628	6.284238	2.129158	0.000252
 379	3.7611e+01	15.0605	101.023266	0.000770	7.703260	2.609935	0.000308
 380	3.7711e+01	15.1039	101.293754	0.000679	6.791032	2.300864	0.000272
 381	3.7810e+01	15.1375	101.640948	0.000872	8.716847	2.953348	0.000349
 382	3.7910e+01	15.1793	101.927585	0.000720	7.196466	2.438229	0.000288
 383	3.8009e+01	15.2161	102.250555	0.000811	8.108694	2.747300	0.000325
 384	3.8108e+01	15.2546	102.529118	0.000699	6.993749	2.369546	0.000280
 385	3.8208e+01	15.2915	102.823829	0.000740	7.399184	2.506911	0.000296
 386	3.8307e+01	15.3300	103.158911	0.000841	8.412771	2.850324	0.000337
 387	3.8407e+01	15.3734	103.429399	0.000679	6.791032	2.300864	0.000272
 388	3.8507e+01	15.4231	103.752370	0.000811	8.108694	2.747300	0.000325
 389	3.8606e+01	15.4552	104.014784	0.000659	6.588314	2.232181	0.000264
 390	3.8706e+01	15.4953	104.313532	0.000750	7.500542	2.541253	0.000300
 391	3.8805e+01	15.5418	104.584020	0.000679	6.791032	2.300864	0.000272
 392	3.8904e+01	15.5739	104.931214	0.000872	8.716847	2.953348	0.000349
 393	3.9004e+01	15.6140	105.185553	0.000639	6.385597	2.163499	0.000256
 394	3.9103e+01	15.6541	105.480264	0.000740	7.399184	2.506911	0.000296
 395	3.9203e+01	15.6942	105.783049	0.000760	7.601901	2.575594	0.000304
 396	3.9303e+01	15.7311	106.009129	0.000568	5.676086	1.923110	0.000227
 397	3.9402e+01	15.7760	106.299803	0.000730	7.297825	2.472570	0.000292
 398	3.9502e+01	15.8113	106.667182	0.000922	9.223640	3.125054	0.000369
 399	3.9601e+01	15.8546	106.933633	0.000669	6.689673	2.266523	0.000268
 400	3.9700e+01	15.8915	107.232381	0.000750	7.500542	2.541253	0.000300
 401	3.9800e+01	15.9300	107.543240	0.000780	7.804618	2.644276	0.000312
 402	3.9900e+01	15.9798	107.833914	0.000730	7.297825	2.472570	0.000292
 403	3.9999e+01	16.0215	108.136699	0.000760	7.601901	2.575594	0.000304
 404	4.0099e+01	16.0503	108.407187	0.000679	6.791032	2.300864	0.000272
 405	4.0198e+01	16.0985	108.705935	0.000750	7.500542	2.541253	0.000300
 406	4.0297e+01	16.1290	108.984498	0.000699	6.993749	2.369546	0.000280
 407	4.0397e+01	16.1659	109.263060	0.000699	6.993749	2.369546	0.000280
 408	4.0496e+01	16.2060	109.573920	0.000780	7.804618	2.644276	0.000312
 409	4.0596e+01	16.2493	109.868631	0.000740	7.399184	2.506911	0.000296
 410	4.0696e+01	16.2894	110.171416	0.000760	7.601901	2.575594	0.000304
 411	4.0795e+01	16.3295	110.478238	0.000770	7.703260	2.609935	0.000308
 412	4.0895e+01	16.3712	110.724503	0.000618	6.182880	2.094816	0.000248
 413	4.0994e+01	16.4209	110.974806	0.000628	6.284238	2.129158	0.000252
 414	4.1093e+01	16.4562	111.257405	0.000710	7.095108	2.403888	0.000284
 415	4.1193e+01	16.4915	111.552116	0.000740	7.399184	2.506911	0.000296
 416	4.1292e+01	16.5332	111.850864	0.000750	7.500542	2.541253	0.000300
 417	4.1392e+01	16.5605	112.181909	0.000831	8.311412	2.815983	0.000333
 418	4.1492e+01	16.6054	112.480657	0.000750	7.500542	2.541253	0.000300
 419	4.1591e+01	16.6503	112.759220	0.000699	6.993749	2.369546	0.000280
 420	4.1691e+01	16.6856	113.017596	0.000649	6.486956	2.197840	0.000260
 421	4.1790e+01	16.7209	113.308270	0.000730	7.297825	2.472570	0.000292
 422	4.1889e+01	16.7658	113.607018	0.000750	7.500542	2.541253	0.000300
 423	4.1989e+01	16.8140	113.925952	0.000801	8.007336	2.712959	0.000321
 424	4.2089e+01	16.8460	114.184329	0.000649	6.486956	2.197840	0.000260
 425	4.2188e+01	16.8829	114.479040	0.000740	7.399184	2.506911	0.000296
 426	4.2288e+01	16.9247	114.769713	0.000730	7.297825	2.472570	0.000292
 427	4.2387e+01	16.9599	115.068461	0.000750	7.500542	2.541253	0.000300
 428	4.2486e+01	17.0065	115.367209	0.000750	7.500542	2.541253	0.000300
 429	4.2586e+01	17.0498	115.661920	0.000740	7.399184	2.506911	0.000296
 430	4.2685e+01	17.0883	115.904148	0.000608	6.081521	2.060475	0.000243
 431	4.2785e+01	17.1300	116.150414	0.000618	6.182880	2.094816	0.000248
 432	4.2885e+01	17.1653	116.469347	0.000801	8.007336	2.712959	0.000321
 433	4.2984e+01	17.2118	116.772133	0.000760	7.601901	2.575594	0.000304
 434	4.3084e+01	17.2455	117.050695	0.000699	6.993749	2.369546	0.000280
 435	4.3183e+01	17.2856	117.361554	0.000780	7.804618	2.644276	0.000312
 436	4.3282e+01	17.3353	117.640117	0.000699	6.993749	2.369546	0.000280
 437	4.3382e+01	17.3722	117.930791	0.000730	7.297825	2.472570	0.000292
 438	4.3481e+01	17.4172	118.185130	0.000639	6.385597	2.163499	0.000256
 439	4.3581e+01	17.4460	118.536361	0.000882	8.818205	2.987689	0.000353
 440	4.3681e+01	17.4926	118.786663	0.000628	6.284238	2.129158	0.000252
 441	4.3780e+01	17.5295	119.109634	0.000811	8.108694	2.747300	0.000325
 442	4.3880e+01	17.5599	119.359937	0.000628	6.284238	2.129158	0.000252
 443	4.3979e+01	17.6016	119.674833	0.000791	7.905977	2.678618	0.000316
 444	4.4078e+01	17.6514	119.913024	0.000598	5.980162	2.026134	0.000239
 445	4.4178e+01	17.6835	120.235995	0.000811	8.108694	2.747300	0.000325
 446	4.4278e+01	17.7236	120.530706	0.000740	7.399184	2.506911	0.000296
 447	4.4377e+01	17.7749	120.813306	0.000710	7.095108	2.403888	0.000284
 448	4.4477e+01	17.8118	121.132239	0.000801	8.007336	2.712959	0.000321
 449	4.4576e+01	17.8471	121.398690	0.000669	6.689673	2.266523	0.000268
 450	4.4675e+01	17.8872	121.709550	0.000780	7.804618	2.644276	0.000312
 451	4.4775e+01	17.9273	121.984075	0.000689	6.892390	2.335205	0.000276
 452	4.4874e+01	17.9610	122.307046	0.000811	8.108694	2.747300	0.000325
 453	4.4974e+01	18.0107	122.646165	0.000851	8.514129	2.884665	0.000341
 454	4.5074e+01	18.0444	122.912616	0.000669	6.689673	2.266523	0.000268
 455	4.5173e+01	18.0797	123.223476	0.000780	7.804618	2.644276	0.000312
 456	4.5273e+01	18.1294	123.534335	0.000780	7.804618	2.644276	0.000312
 457	4.5372e+01	18.1583	123.841157	0.000770	7.703260	2.609935	0.000308
 458	4.5471e+01	18.2032	124.180277	0.000851	8.514129	2.884665	0.000341
 459	4.5571e+01	18.2433	124.479025	0.000750	7.500542	2.541253	0.000300
 460	4.5670e+01	18.2786	124.761624	0.000710	7.095108	2.403888	0.000284
 461	4.5770e+01	18.3252	125.088632	0.000821	8.210053	2.781641	0.000329
 462	4.5870e+01	18.3604	125.367195	0.000699	6.993749	2.369546	0.000280
 463	4.5969e+01	18.4102	125.678054	0.000780	7.804618	2.644276	0.000312
 464	4.6069e+01	18.4423	125.940468	0.000659	6.588314	2.232181	0.000264
 465	4.6168e+01	18.4840	126.219030	0.000699	6.993749	2.369546	0.000280
 466	4.6267e+01	18.5241	126.513741	0.000740	7.399184	2.506911	0.000296
 467	4.6367e+01	18.5610	126.776155	0.000659	6.588314	2.232181	0.000264
 468	4.6467e+01	18.6027	127.078940	0.000760	7.601901	2.575594	0.000304
 469	4.6566e+01	18.6460	127.373651	0.000740	7.399184	2.506911	0.000296
 470	4.6666e+01	18.6845	127.652213	0.000699	6.993749	2.369546	0.000280
 471	4.6765e+01	18.7278	127.959036	0.000770	7.703260	2.609935	0.000308
 472	4.6864e+01	18.7599	128.225487	0.000669	6.689673	2.266523	0.000268
 473	4.6964e+01	18.7984	128.483863	0.000649	6.486956	2.197840	0.000260
 474	4.7063e+01	18.8481	128.770500	0.000720	7.196466	2.438229	0.000288
 475	4.7163e+01	18.8786	129.053100	0.000710	7.095108	2.403888	0.000284
 476	4.7263e+01	18.9155	129.372033	0.000801	8.007336	2.712959	0.000321
 477	4.7362e+01	18.9620	129.646559	0.000689	6.892390	2.335205	0.000276
 478	4.7462e+01	18.9941	129.937232	0.000730	7.297825	2.472570	0.000292
 479	4.7561e+01	19.0406	130.248092	0.000780	7.804618	2.644276	0.000312
 480	4.7660e+01	19.0759	130.530691	0.000710	7.095108	2.403888	0.000284
 481	4.7760e+01	19.1192	130.789068	0.000649	6.486956	2.197840	0.000260
 482	4.7859e+01	19.1561	131.108002	0.000801	8.007336	2.712959	0.000321
 483	4.7959e+01	19.1979	131.386564	0.000699	6.993749	2.369546	0.000280
 484	4.8059e+01	19.2396	131.616681	0.000578	5.777445	1.957451	0.000231
 485	4.8158e+01	19.2829	131.915429	0.000750	7.500542	2.541253	0.000300
 486	4.8258e+01	19.3214	132.222251	0.000770	7.703260	2.609935	0.000308
 487	4.8357e+01	19.3663	132.500813	0.000699	6.993749	2.369546	0.000280
 488	4.8456e+01	19.4032	132.811673	0.000780	7.804618	2.644276	0.000312
 489	4.8556e+01	19.4385	133.086198	0.000689	6.892390	2.335205	0.000276
 490	4.8656e+01	19.4770	133.372835	0.000720	7.196466	2.438229	0.000288
 491	4.8755e+01	19.5171	133.671583	0.000750	7.500542	2.541253	0.000300
 492	4.8855e+01	19.5636	133.946108	0.000689	6.892390	2.335205	0.000276
 493	4.8954e+01	19.6005	134.232745	0.000720	7.196466	2.438229	0.000288
 494	4.9053e+01	19.6358	134.507270	0.000689	6.892390	2.335205	0.000276
 495	4.9153e+01	19.6743	134.793907	0.000720	7.196466	2.438229	0.000288
 496	4.9252e+01	19.7112	135.088617	0.000740	7.399184	2.506911	0.000296
 497	4.9352e+01	19.7513	135.375254	0.000720	7.196466	2.438229	0.000288
 498	4.9452e+01	19.7962	135.653817	0.000699	6.993749	2.369546	0.000280
 499	4.9551e+01	19.8315	135.948527	0.000740	7.399184	2.506911	0.000296
 500	4.9651e+01	19.8797	136.223053	0.000689	6.892390	2.335205	0.000276
 501	4.9750e+01	19.9133	136.546023	0.000811	8.108694	2.747300	0.000325
 502	4.9849e+01	19.9518	136.852846	0.000770	7.703260	2.609935	0.000308
 503	4.9949e+01	19.9919	137.107185	0.000639	6.385597	2.163499	0.000256
 504	5.0048e+01	19.9534	137.006257	0.000253	2.533967	0.858531	-0.000101
 505	5.0148e+01	19.9149	136.873031	0.000334	3.344836	1.133261	-0.000134
 506	5.0248e+01	19.8861	136.755955	0.000294	2.939402	0.995896	-0.000118
 507	5.0347e+01	19.8347	136.562172	0.000487	4.865217	1.648380	-0.000195
 508	5.0447e+01	19.8010	136.432984	0.000324	3.243478	1.098920	-0.000130
 509	5.0546e+01	19.7609	136.231127	0.000507	5.067934	1.717063	-0.000203
 510	5.0645e+01	19.7208	136.053493	0.000446	4.459782	1.511015	-0.000179
 511	5.0745e+01	19.6807	135.879896	0.000436	4.358423	1.476674	-0.000174
 512	5.0844e+01	19.6422	135.726485	0.000385	3.851630	1.304968	-0.000154
 513	5.0944e+01	19.5957	135.528665	0.000497	4.966575	1.682721	-0.000199
 514	5.1044e+01	19.5604	135.391403	0.000345	3.446195	1.167603	-0.000138
 515	5.1143e+01	19.5187	135.181472	0.000527	5.270651	1.785745	-0.000211
 516	5.1242e+01	19.4882	134.963466	0.000547	5.473369	1.854428	-0.000219
 517	5.1342e+01	19.4321	134.826204	0.000345	3.446195	1.167603	-0.000138
 518	5.1441e+01	19.4112	134.608198	0.000547	5.473369	1.854428	-0.000219
 519	5.1541e+01	19.3535	134.430564	0.000446	4.459782	1.511015	-0.000179
 520	5.1641e+01	19.3182	134.261005	0.000426	4.257065	1.442333	-0.000170
 521	5.1740e+01	19.2797	134.055111	0.000517	5.169293	1.751404	-0.000207
 522	5.1840e+01	19.2396	133.837105	0.000547	5.473369	1.854428	-0.000219
 523	5.1939e+01	19.1979	133.695806	0.000355	3.547554	1.201944	-0.000142
 524	5.2038e+01	19.1690	133.590840	0.000264	2.635326	0.892873	-0.000105
 525	5.2138e+01	19.1289	133.481837	0.000274	2.736684	0.927214	-0.000110
 526	5.2237e+01	19.0775	133.348612	0.000334	3.344836	1.133261	-0.000134
 527	5.2337e+01	19.0342	133.146755	0.000507	5.067934	1.717063	-0.000203
 528	5.2437e+01	19.0037	132.944898	0.000507	5.067934	1.717063	-0.000203
 529	5.2536e+01	18.9620	132.682485	0.000659	6.588314	2.232181	-0.000264
 530	5.2636e+01	18.9203	132.533111	0.000375	3.750271	1.270626	-0.000150
 531	5.2735e+01	18.8802	132.302994	0.000578	5.777445	1.957451	-0.000231
 532	5.2834e+01	18.8449	132.117286	0.000466	4.662499	1.579698	-0.000187
 533	5.2934e+01	18.7968	131.907355	0.000527	5.270651	1.785745	-0.000211
 534	5.3033e+01	18.7583	131.685312	0.000557	5.574727	1.888769	-0.000223
 535	5.3133e+01	18.7182	131.523827	0.000405	4.054347	1.373650	-0.000162
 536	5.3233e+01	18.6781	131.293710	0.000578	5.777445	1.957451	-0.000231
 537	5.3332e+01	18.6508	131.116076	0.000446	4.459782	1.511015	-0.000179
 538	5.3431e+01	18.6059	130.898071	0.000547	5.473369	1.854428	-0.000219
 539	5.3531e+01	18.5642	130.724474	0.000436	4.358423	1.476674	-0.000174
 540	5.3630e+01	18.5209	130.482246	0.000608	6.081521	2.060475	-0.000243
 541	5.3730e+01	18.4840	130.292500	0.000476	4.763858	1.614039	-0.000191
 542	5.3830e+01	18.4439	130.082569	0.000527	5.270651	1.785745	-0.000211
 543	5.3929e+01	18.4022	129.917047	0.000416	4.155706	1.407991	-0.000166
 544	5.4029e+01	18.3653	129.674818	0.000608	6.081521	2.060475	-0.000243
 545	5.4128e+01	18.3252	129.497185	0.000446	4.459782	1.511015	-0.000179
 546	5.4227e+01	18.2866	129.258993	0.000598	5.980162	2.026134	-0.000239
 547	5.4327e+01	18.2465	129.077322	0.000456	4.561141	1.545356	-0.000183
 548	5.4426e+01	18.2016	128.863354	0.000537	5.372010	1.820086	-0.000215
 549	5.4526e+01	18.1567	128.673609	0.000476	4.763858	1.614039	-0.000191
 550	5.4626e+01	18.1230	128.431381	0.000608	6.081521	2.060475	-0.000243
 551	5.4725e+01	18.0797	128.221450	0.000527	5.270651	1.785745	-0.000211
 552	5.4825e+01	18.0508	128.019593	0.000507	5.067934	1.717063	-0.000203
 553	5.4924e+01	18.0043	127.825810	0.000487	4.865217	1.648380	-0.000195
 554	5.5023e+01	17.9642	127.627991	0.000497	4.966575	1.682721	-0.000199
 555	5.5123e+01	17.9289	127.450357	0.000446	4.459782	1.511015	-0.000179
 556	5.5222e+01	17.8936	127.300983	0.000375	3.750271	1.270626	-0.000150
 557	5.5322e+01	17.8471	127.171794	0.000324	3.243478	1.098920	-0.000130
 558	5.5422e+01	17.8118	127.095089	0.000193	1.925815	0.652484	-0.000077
 559	5.5521e+01	17.7669	126.820564	0.000689	6.892390	2.335205	-0.000276
 560	5.5620e+01	17.7220	126.578335	0.000608	6.081521	2.060475	-0.000243
 561	5.5720e+01	17.6851	126.376479	0.000507	5.067934	1.717063	-0.000203
 562	5.5819e+01	17.6401	126.134250	0.000608	6.081521	2.060475	-0.000243
 563	5.5919e+01	17.6000	125.896059	0.000598	5.980162	2.026134	-0.000239
 564	5.6019e+01	17.5680	125.682091	0.000537	5.372010	1.820086	-0.000215
 565	5.6118e+01	17.5246	125.439863	0.000608	6.081521	2.060475	-0.000243
 566	5.6218e+01	17.4877	125.201672	0.000598	5.980162	2.026134	-0.000239
 567	5.6317e+01	17.4460	125.032112	0.000426	4.257065	1.442333	-0.000170
 568	5.6416e+01	17.4059	124.753550	0.000699	6.993749	2.369546	-0.000280
 569	5.6516e+01	17.3674	124.535545	0.000547	5.473369	1.854428	-0.000219
 570	5.6615e+01	17.3273	124.289279	0.000618	6.182880	2.094816	-0.000248
 571	5.6715e+01	17.2824	124.047051	0.000608	6.081521	2.060475	-0.000243
 572	5.6815e+01	17.2519	123.837120	0.000527	5.270651	1.785745	-0.000211
 573	5.6914e+01	17.2086	123.586818	0.000628	6.284238	2.129158	-0.000252
 574	5.7014e+01	17.1749	123.384961	0.000507	5.067934	1.717063	-0.000203
 575	5.7113e+01	17.1252	123.170993	0.000537	5.372010	1.820086	-0.000215
 576	5.7212e+01	17.0883	122.892430	0.000699	6.993749	2.369546	-0.000280
 577	5.7312e+01	17.0466	122.646165	0.000618	6.182880	2.094816	-0.000248
 578	5.7411e+01	17.0097	122.407974	0.000598	5.980162	2.026134	-0.000239
 579	5.7511e+01	16.9696	122.149597	0.000649	6.486956	2.197840	-0.000260
 580	5.7611e+01	16.9263	121.907369	0.000608	6.081521	2.060475	-0.000243
 581	5.7710e+01	16.8797	121.681290	0.000568	5.676086	1.923110	-0.000227
 582	5.7809e+01	16.8460	121.447136	0.000588	5.878804	1.991793	-0.000235
 583	5.7909e+01	16.8011	121.196833	0.000628	6.284238	2.129158	-0.000252
 584	5.8008e+01	16.7787	120.982865	0.000537	5.372010	1.820086	-0.000215
 585	5.8108e+01	16.7289	120.732563	0.000628	6.284238	2.129158	-0.000252
 586	5.8208e+01	16.6936	120.490335	0.000608	6.081521	2.060475	-0.000243
 587	5.8307e+01	16.6487	120.300589	0.000476	4.763858	1.614039	-0.000191
 588	5.8407e+01	16.6231	120.050287	0.000628	6.284238	2.129158	-0.000252
 589	5.8506e+01	16.5717	119.771725	0.000699	6.993749	2.369546	-0.000280
 590	5.8605e+01	16.5284	119.537571	0.000588	5.878804	1.991793	-0.000235
 591	5.8705e+01	16.4835	119.311491	0.000568	5.676086	1.923110	-0.000227
 592	5.8804e+01	16.4594	119.077337	0.000588	5.878804	1.991793	-0.000235
 593	5.8904e+01	16.4065	118.843183	0.000588	5.878804	1.991793	-0.000235
 594	5.9004e+01	16.3728	118.572695	0.000679	6.791032	2.300864	-0.000272
 595	5.9103e+01	16.3327	118.350653	0.000557	5.574727	1.888769	-0.000223
 596	5.9203e+01	16.2830	118.092276	0.000649	6.486956	2.197840	-0.000260
 597	5.9302e+01	16.2413	117.902531	0.000476	4.763858	1.614039	-0.000191
 598	5.9401e+01	16.2124	117.619931	0.000710	7.095108	2.403888	-0.000284
 599	5.9501e+01	16.1691	117.405963	0.000537	5.372010	1.820086	-0.000215
 600	5.9600e+01	16.1257	117.123363	0.000710	7.095108	2.403888	-0.000284
 601	5.9700e+01	16.0905	116.961878	0.000405	4.054347	1.373650	-0.000162
 602	5.9800e+01	16.0520	116.634870	0.000821	8.210053	2.781641	-0.000329
 603	5.9899e+01	16.0086	116.433013	0.000507	5.067934	1.717063	-0.000203
 604	5.9998e+01	15.9750	116.138302	0.000740	7.399184	2.506911	-0.000296
 605	6.0098e+01	15.9252	115.904148	0.000588	5.878804	1.991793	-0.000235
 606	6.0197e+01	15.8979	115.710366	0.000487	4.865217	1.648380	-0.000195
 607	6.0297e+01	15.8514	115.423729	0.000720	7.196466	2.438229	-0.000288
 608	6.0397e+01	15.8113	115.161315	0.000659	6.588314	2.232181	-0.000264
 609	6.0496e+01	15.7760	114.947347	0.000537	5.372010	1.820086	-0.000215
 610	6.0596e+01	15.7471	114.733379	0.000537	5.372010	1.820086	-0.000215
 611	6.0695e+01	15.6926	114.462891	0.000679	6.791032	2.300864	-0.000272
 612	6.0794e+01	15.6477	114.196440	0.000669	6.689673	2.266523	-0.000268
 613	6.0894e+01	15.6060	113.958249	0.000598	5.980162	2.026134	-0.000239
 614	6.0993e+01	15.5723	113.679687	0.000699	6.993749	2.369546	-0.000280
 615	6.1093e+01	15.5258	113.485904	0.000487	4.865217	1.648380	-0.000195
 616	6.1193e+01	15.4985	113.219453	0.000669	6.689673	2.266523	-0.000268
 617	6.1292e+01	15.4520	112.928779	0.000730	7.297825	2.472570	-0.000292
 618	6.1392e+01	15.4135	112.706737	0.000557	5.574727	1.888769	-0.000223
 619	6.1491e+01	15.3702	112.464509	0.000608	6.081521	2.060475	-0.000243
 620	6.1590e+01	15.3349	112.202095	0.000659	6.588314	2.232181	-0.000264
 621	6.1690e+01	15.2915	111.923533	0.000699	6.993749	2.369546	-0.000280
 622	6.1789e+01	15.2466	111.697453	0.000568	5.676086	1.923110	-0.000227
 623	6.1889e+01	15.2113	111.455225	0.000608	6.081521	2.060475	-0.000243
 624	6.1989e+01	15.1793	111.184737	0.000679	6.791032	2.300864	-0.000272
 625	6.2088e+01	15.1359	110.922323	0.000659	6.588314	2.232181	-0.000264
 626	6.2188e+01	15.0942	110.696243	0.000568	5.676086	1.923110	-0.000227
 627	6.2287e+01	15.0654	110.437867	0.000649	6.486956	2.197840	-0.000260
 628	6.2386e+01	15.0252	110.191601	0.000618	6.182880	2.094816	-0.000248
 629	6.2486e+01	14.9819	109.904965	0.000720	7.196466	2.438229	-0.000288
 630	6.2586e+01	14.9418	109.674848	0.000578	5.777445	1.957451	-0.000231
 631	6.2685e+01	14.9001	109.456843	0.000547	5.473369	1.854428	-0.000219
 632	6.2785e+01	14.8600	109.174243	0.000710	7.095108	2.403888	-0.000284
 633	6.2884e+01	14.8119	108.895681	0.000699	6.993749	2.369546	-0.000280
 634	6.2983e+01	14.7782	108.649416	0.000618	6.182880	2.094816	-0.000248
 635	6.3083e+01	14.7349	108.407187	0.000608	6.081521	2.060475	-0.000243
 636	6.3182e+01	14.6996	108.156885	0.000628	6.284238	2.129158	-0.000252
 637	6.3282e+01	14.6563	107.902545	0.000639	6.385597	2.163499	-0.000256
 638	6.3382e+01	14.6178	107.656280	0.000618	6.182880	2.094816	-0.000248
 639	6.3481e+01	14.5729	107.385792	0.000679	6.791032	2.300864	-0.000272
 640	6.3581e+01	14.5327	107.111267	0.000689	6.892390	2.335205	-0.000276
 641	6.3680e+01	14.5055	106.869039	0.000608	6.081521	2.060475	-0.000243
 642	6.3779e+01	14.4606	106.638922	0.000578	5.777445	1.957451	-0.000231
 643	6.3879e+01	14.4237	106.384582	0.000639	6.385597	2.163499	-0.000256
 644	6.3978e+01	14.3787	106.110057	0.000689	6.892390	2.335205	-0.000276
 645	6.4078e+01	14.3402	105.843606	0.000669	6.689673	2.266523	-0.000268
 646	6.4177e+01	14.2937	105.565044	0.000699	6.993749	2.369546	-0.000280
 647	6.4277e+01	14.2568	105.310704	0.000639	6.385597	2.163499	-0.000256
 648	6.4376e+01	14.2247	105.080588	0.000578	5.777445	1.957451	-0.000231
 649	6.4476e+01	14.1766	104.866619	0.000537	5.372010	1.820086	-0.000215
 650	6.4576e+01	14.1397	104.563834	0.000760	7.601901	2.575594	-0.000304
 651	6.4675e+01	14.1012	104.321606	0.000608	6.081521	2.060475	-0.000243
 652	6.4775e+01	14.0627	104.051118	0.000679	6.791032	2.300864	-0.000272
 653	6.4874e+01	14.0178	103.796778	0.000639	6.385597	2.163499	-0.000256
 654	6.4974e+01	13.9745	103.526290	0.000679	6.791032	2.300864	-0.000272
 655	6.5073e+01	13.9328	103.308285	0.000547	5.473369	1.854428	-0.000219
 656	6.5172e+01	13.8975	103.037797	0.000679	6.791032	2.300864	-0.000272
 657	6.5272e+01	13.8526	102.771346	0.000669	6.689673	2.266523	-0.000268
 658	6.5371e+01	13.8173	102.517006	0.000639	6.385597	2.163499	-0.000256
 659	6.5471e+01	13.7788	102.303038	0.000537	5.372010	1.820086	-0.000215
 660	6.5570e+01	13.7354	102.012364	0.000730	7.297825	2.472570	-0.000292
 661	6.5670e+01	13.7082	101.717653	0.000740	7.399184	2.506911	-0.000296
 662	6.5769e+01	13.6681	101.451203	0.000669	6.689673	2.266523	-0.000268
 663	6.5869e+01	13.6151	101.213012	0.000598	5.980162	2.026134	-0.000239
 664	6.5969e+01	13.5798	100.966746	0.000618	6.182880	2.094816	-0.000248
 665	6.6068e+01	13.5429	100.696258	0.000679	6.791032	2.300864	-0.000272
 666	6.6168e+01	13.5012	100.458067	0.000598	5.980162	2.026134	-0.000239
 667	6.6267e+01	13.4611	100.227950	0.000578	5.777445	1.957451	-0.000231
 668	6.6367e+01	13.4178	99.933239	0.000740	7.399184	2.506911	-0.000296
 669	6.6466e+01	13.3745	99.703123	0.000578	5.777445	1.957451	-0.000231
 670	6.6566e+01	13.3440	99.432635	0.000679	6.791032	2.300864	-0.000272
 671	6.6665e+01	13.3071	99.166184	0.000669	6.689673	2.266523	-0.000268
 672	6.6764e+01	13.2654	98.919918	0.000618	6.182880	2.094816	-0.000248
 673	6.6864e+01	13.2221	98.669616	0.000628	6.284238	2.129158	-0.000252
 674	6.6963e+01	13.1820	98.382979	0.000720	7.196466	2.438229	-0.000288
 675	6.7063e+01	13.1387	98.136714	0.000618	6.182880	2.094816	-0.000248
 676	6.7162e+01	13.1050	97.886412	0.000628	6.284238	2.129158	-0.000252
 677	6.7262e+01	13.0617	97.599775	0.000720	7.196466	2.438229	-0.000288
 678	6.7362e+01	13.0248	97.329287	0.000679	6.791032	2.300864	-0.000272
 679	6.7461e+01	12.9863	97.074947	0.000639	6.385597	2.163499	-0.000256
 680	6.7561e+01	12.9446	96.776199	0.000750	7.500542	2.541253	-0.000300
 681	6.7660e+01	12.9173	96.574343	0.000507	5.067934	1.717063	-0.000203
 682	6.7760e+01	12.8724	96.275595	0.000750	7.500542	2.541253	-0.000300
 683	6.7859e+01	12.8210	96.005106	0.000679	6.791032	2.300864	-0.000272
 684	6.7959e+01	12.7825	95.803250	0.000507	5.067934	1.717063	-0.000203
 685	6.8058e+01	12.7504	95.561021	0.000608	6.081521	2.060475	-0.000243
 686	6.8157e+01	12.7039	95.266311	0.000740	7.399184	2.506911	-0.000296
 687	6.8257e+01	12.6686	95.003897	0.000659	6.588314	2.232181	-0.000264
 688	6.8356e+01	12.6253	94.721297	0.000710	7.095108	2.403888	-0.000284
 689	6.8456e+01	12.5868	94.470995	0.000628	6.284238	2.129158	-0.000252
 690	6.8555e+01	12.5467	94.228767	0.000608	6.081521	2.060475	-0.000243
 691	6.8655e+01	12.5082	93.970390	0.000649	6.486956	2.197840	-0.000260
 692	6.8754e+01	12.4617	93.707976	0.000659	6.588314	2.232181	-0.000264
 693	6.8854e+01	12.4280	93.457674	0.000628	6.284238	2.129158	-0.000252
 694	6.8954e+01	12.3847	93.171037	0.000720	7.196466	2.438229	-0.000288
 695	6.9053e+01	12.3478	92.932846	0.000598	5.980162	2.026134	-0.000239
 696	6.9153e+01	12.3061	92.654284	0.000699	6.993749	2.369546	-0.000280
 697	6.9252e+01	12.2708	92.375721	0.000699	6.993749	2.369546	-0.000280
 698	6.9352e+01	12.2291	92.048713	0.000821	8.210053	2.781641	-0.000329
 699	6.9451e+01	12.1841	91.875117	0.000436	4.358423	1.476674	-0.000174
 700	6.9550e+01	12.1456	91.572331	0.000760	7.601901	2.575594	-0.000304
 701	6.9650e+01	12.1087	91.285695	0.000720	7.196466	2.438229	-0.000288
 702	6.9749e+01	12.0670	91.059615	0.000568	5.676086	1.923110	-0.000227
 703	6.9849e+01	12.0285	90.752793	0.000770	7.703260	2.609935	-0.000308
 704	6.9948e+01	11.9932	90.542862	0.000527	5.270651	1.785745	-0.000211
 705	7.0048e+01	11.9499	90.232002	0.000780	7.804618	2.644276	-0.000312
 706	7.0147e+01	11.9082	89.985737	0.000618	6.182880	2.094816	-0.000248
 707	7.0247e+01	11.8681	89.727360	0.000649	6.486956	2.197840	-0.000260
 708	7.0347e+01	11.8360	89.460909	0.000669	6.689673	2.266523	-0.000268
 709	7.0446e+01	11.7847	89.242904	0.000547	5.473369	1.854428	-0.000219
 710	7.0546e+01	11.7478	88.919933	0.000811	8.108694	2.747300	-0.000325
 711	7.0645e+01	11.7125	88.685779	0.000588	5.878804	1.991793	-0.000235
 712	7.0745e+01	11.6692	88.395106	0.000730	7.297825	2.472570	-0.000292
 713	7.0844e+01	11.6355	88.124617	0.000679	6.791032	2.300864	-0.000272
 714	7.0944e+01	11.5794	87.886426	0.000598	5.980162	2.026134	-0.000239
 715	7.1043e+01	11.5585	87.599790	0.000720	7.196466	2.438229	-0.000288
 716	7.1142e+01	11.5168	87.309116	0.000730	7.297825	2.472570	-0.000292
 717	7.1242e+01	11.4671	87.078999	0.000578	5.777445	1.957451	-0.000231
 718	7.1341e+01	11.4398	86.784288	0.000740	7.399184	2.506911	-0.000296
 719	7.1441e+01	11.3933	86.505726	0.000699	6.993749	2.369546	-0.000280
 720	7.1540e+01	11.3483	86.263498	0.000608	6.081521	2.060475	-0.000243
 721	7.1640e+01	11.3098	85.984936	0.000699	6.993749	2.369546	-0.000280
 722	7.1740e+01	11.2745	85.766930	0.000547	5.473369	1.854428	-0.000219
 723	7.1839e+01	11.2248	85.460108	0.000770	7.703260	2.609935	-0.000308
 724	7.1939e+01	11.1911	85.197694	0.000659	6.588314	2.232181	-0.000264
 725	7.2038e+01	11.1494	84.919132	0.000699	6.993749	2.369546	-0.000280
 726	7.2138e+01	11.1061	84.660755	0.000649	6.486956	2.197840	-0.000260
 727	7.2237e+01	11.0676	84.341821	0.000801	8.007336	2.712959	-0.000321
 728	7.2337e+01	11.0275	84.119779	0.000557	5.574727	1.888769	-0.000223
 729	7.2436e+01	10.9906	83.857365	0.000659	6.588314	2.232181	-0.000264
 730	7.2535e+01	10.9473	83.550543	0.000770	7.703260	2.609935	-0.000308
 731	7.2635e+01	10.9136	83.255832	0.000740	7.399184	2.506911	-0.000296
 732	7.2734e+01	10.8735	83.021678	0.000588	5.878804	1.991793	-0.000235
 733	7.2834e+01	10.8462	82.726967	0.000740	7.399184	2.506911	-0.000296
 734	7.2933e+01	10.7949	82.476665	0.000628	6.284238	2.129158	-0.000252
 735	7.3033e+01	10.7676	82.210214	0.000669	6.689673	2.266523	-0.000268
 736	7.3132e+01	10.7195	81.919540	0.000730	7.297825	2.472570	-0.000292
 737	7.3232e+01	10.6794	81.640977	0.000699	6.993749	2.369546	-0.000280
 738	7.3332e+01	10.6313	81.362415	0.000699	6.993749	2.369546	-0.000280
 739	7.3431e+01	10.5927	81.112113	0.000628	6.284238	2.129158	-0.000252
 740	7.3531e+01	10.5478	80.853736	0.000649	6.486956	2.197840	-0.000260
 741	7.3630e+01	10.5206	80.579211	0.000689	6.892390	2.335205	-0.000276
 742	7.3730e+01	10.4805	80.256240	0.000811	8.108694	2.747300	-0.000325
 743	7.3829e+01	10.4371	79.989789	0.000669	6.689673	2.266523	-0.000268
 744	7.3928e+01	10.3906	79.703152	0.000720	7.196466	2.438229	-0.000288
 745	7.4028e+01	10.3537	79.440738	0.000659	6.588314	2.232181	-0.000264
 746	7.4127e+01	10.3168	79.158139	0.000710	7.095108	2.403888	-0.000284
 747	7.4227e+01	10.2799	78.867465	0.000730	7.297825	2.472570	-0.000292
 748	7.4326e+01	10.2254	78.609089	0.000649	6.486956	2.197840	-0.000260
 749	7.4426e+01	10.1997	78.298229	0.000780	7.804618	2.644276	-0.000312
 750	7.4525e+01	10.1596	78.047927	0.000628	6.284238	2.129158	-0.000252
 751	7.4625e+01	10.1195	77.761290	0.000720	7.196466	2.438229	-0.000288
 752	7.4725e+01	10.0810	77.519062	0.000608	6.081521	2.060475	-0.000243
 753	7.4824e+01	10.0441	77.212240	0.000770	7.703260	2.609935	-0.000308
 754	7.4924e+01	9.9976	76.937714	0.000689	6.892390	2.335205	-0.000276
 755	7.5023e+01	9.9607	76.683375	0.000639	6.385597	2.163499	-0.000256
 756	7.5123e+01	9.9158	76.376552	0.000770	7.703260	2.609935	-0.000308
 757	7.5222e+01	9.8885	76.114139	0.000659	6.588314	2.232181	-0.000264
 758	7.5322e+01	9.8291	75.823465	0.000730	7.297825	2.472570	-0.000292
 759	7.5421e+01	9.7922	75.573162	0.000628	6.284238	2.129158	-0.000252
 760	7.5520e+01	9.7537	75.290563	0.000710	7.095108	2.403888	-0.000284
 761	7.5620e+01	9.7168	74.987778	0.000760	7.601901	2.575594	-0.000304
 762	7.5719e+01	9.6783	74.749587	0.000598	5.980162	2.026134	-0.000239
 763	7.5819e+01	9.6430	74.442764	0.000770	7.703260	2.609935	-0.000308
 764	7.5918e+01	9.5981	74.168239	0.000689	6.892390	2.335205	-0.000276
 765	7.6018e+01	9.5596	73.877565	0.000730	7.297825	2.472570	-0.000292
 766	7.6118e+01	9.5195	73.582855	0.000740	7.399184	2.506911	-0.000296
 767	7.6217e+01	9.4762	73.332552	0.000628	6.284238	2.129158	-0.000252
 768	7.6317e+01	9.4377	73.009581	0.000811	8.108694	2.747300	-0.000325
 769	7.6416e+01	9.3960	72.735056	0.000689	6.892390	2.335205	-0.000276
 770	7.6516e+01	9.3671	72.468605	0.000669	6.689673	2.266523	-0.000268
 771	7.6615e+01	9.3126	72.210228	0.000649	6.486956	2.197840	-0.000260
 772	7.6715e+01	9.2805	71.891295	0.000801	8.007336	2.712959	-0.000321
 773	7.6814e+01	9.2420	71.604658	0.000720	7.196466	2.438229	-0.000288
 774	7.6913e+01	9.1939	71.346281	0.000649	6.486956	2.197840	-0.000260
 775	7.7013e+01	9.1586	71.063682	0.000710	7.095108	2.403888	-0.000284
 776	7.7112e+01	9.1120	70.781082	0.000710	7.095108	2.403888	-0.000284
 777	7.7212e+01	9.0751	70.498483	0.000710	7.095108	2.403888	-0.000284
 778	7.7311e+01	9.0382	70.215883	0.000710	7.095108	2.403888	-0.000284
 779	7.7411e+01	9.0062	69.949432	0.000669	6.689673	2.266523	-0.000268
 780	7.7510e+01	8.9532	69.691056	0.000649	6.486956	2.197840	-0.000260
 781	7.7610e+01	8.9308	69.376159	0.000791	7.905977	2.678618	-0.000316
 782	7.7710e+01	8.8874	69.073374	0.000760	7.601901	2.575594	-0.000304
 783	7.7809e+01	8.8425	68.758477	0.000791	7.905977	2.678618	-0.000316
 784	7.7909e+01	8.7992	68.500101	0.000649	6.486956	2.197840	-0.000260
 785	7.8008e+01	8.7655	68.205390	0.000740	7.399184	2.506911	-0.000296
 786	7.8108e+01	8.7190	67.963162	0.000608	6.081521	2.060475	-0.000243
 787	7.8207e+01	8.6821	67.668451	0.000740	7.399184	2.506911	-0.000296
 788	7.8306e+01	8.6468	67.337406	0.000831	8.311412	2.815983	-0.000333
 789	7.8406e+01	8.6083	67.095177	0.000608	6.081521	2.060475	-0.000243
 790	7.8505e+01	8.5570	66.800466	0.000740	7.399184	2.506911	-0.000296
 791	7.8605e+01	8.5201	66.497681	0.000760	7.601901	2.575594	-0.000304
 792	7.8704e+01	8.4832	66.223156	0.000689	6.892390	2.335205	-0.000276
 793	7.8804e+01	8.4335	65.920371	0.000760	7.601901	2.575594	-0.000304
 794	7.8903e+01	8.4062	65.657957	0.000659	6.588314	2.232181	-0.000264
 795	7.9003e+01	8.3629	65.314801	0.000862	8.615488	2.919006	-0.000345
 796	7.9103e+01	8.3308	65.104869	0.000527	5.270651	1.785745	-0.000211
 797	7.9202e+01	8.2794	64.785936	0.000801	8.007336	2.712959	-0.000321
 798	7.9302e+01	8.2409	64.507373	0.000699	6.993749	2.369546	-0.000280
 799	7.9401e+01	8.2089	64.192477	0.000791	7.905977	2.678618	-0.000316
 800	7.9501e+01	8.1623	63.905840	0.000720	7.196466	2.438229	-0.000288
 801	7.9600e+01	8.1335	63.603055	0.000760	7.601901	2.575594	-0.000304
 802	7.9700e+01	8.0805	63.352753	0.000628	6.284238	2.129158	-0.000252
 803	7.9799e+01	8.0484	63.078227	0.000689	6.892390	2.335205	-0.000276
 804	7.9898e+01	8.0035	62.779479	0.000750	7.500542	2.541253	-0.000300
 805	7.9998e+01	7.9682	62.476694	0.000760	7.601901	2.575594	-0.000304
 806	8.0097e+01	7.9217	62.210243	0.000669	6.689673	2.266523	-0.000268
 807	8.0197e+01	7.8864	61.927644	0.000710	7.095108	2.403888	-0.000284
 808	8.0296e+01	7.8463	61.628896	0.000750	7.500542	2.541253	-0.000300
 809	8.0396e+01	7.8030	61.374556	0.000639	6.385597	2.163499	-0.000256
 810	8.0496e+01	7.7741	61.015251	0.000902	9.020923	3.056371	-0.000361
 811	8.0595e+01	7.7324	60.756874	0.000649	6.486956	2.197840	-0.000260
 812	8.0695e+01	7.6746	60.494460	0.000659	6.588314	2.232181	-0.000264
 813	8.0794e+01	7.6538	60.179564	0.000791	7.905977	2.678618	-0.000316
 814	8.0894e+01	7.6169	59.925224	0.000639	6.385597	2.163499	-0.000256
 815	8.0993e+01	7.5591	59.630513	0.000740	7.399184	2.506911	-0.000296
 816	8.1093e+01	7.5206	59.319654	0.000780	7.804618	2.644276	-0.000312
 817	8.1192e+01	7.4918	59.117797	0.000507	5.067934	1.717063	-0.000203
 818	8.1291e+01	7.4565	58.786752	0.000831	8.311412	2.815983	-0.000333
 819	8.1391e+01	7.4051	58.479930	0.000770	7.703260	2.609935	-0.000308
 820	8.1490e+01	7.3650	58.209442	0.000679	6.791032	2.300864	-0.000272
 821	8.1590e+01	7.3265	57.926842	0.000710	7.095108	2.403888	-0.000284
 822	8.1689e+01	7.2880	57.591760	0.000841	8.412771	2.850324	-0.000337
 823	8.1789e+01	7.2431	57.373755	0.000547	5.473369	1.854428	-0.000219
 824	8.1888e+01	7.2110	57.042709	0.000831	8.311412	2.815983	-0.000333
 825	8.1988e+01	7.1677	56.776258	0.000669	6.689673	2.266523	-0.000268
 826	8.2088e+01	7.1356	56.416953	0.000902	9.020923	3.056371	-0.000361
 827	8.2187e+01	7.0923	56.194911	0.000557	5.574727	1.888769	-0.000223
 828	8.2287e+01	7.0506	55.884051	0.000780	7.804618	2.644276	-0.000312
 829	8.2386e+01	7.0121	55.625675	0.000649	6.486956	2.197840	-0.000260
 830	8.2486e+01	6.9656	55.314815	0.000780	7.804618	2.644276	-0.000312
 831	8.2585e+01	6.9255	54.991844	0.000811	8.108694	2.747300	-0.000325
 832	8.2684e+01	6.8838	54.745579	0.000618	6.182880	2.094816	-0.000248
 833	8.2784e+01	6.8533	54.467017	0.000699	6.993749	2.369546	-0.000280
 834	8.2883e+01	6.8036	54.152120	0.000791	7.905977	2.678618	-0.000316
 835	8.2983e+01	6.7747	53.849335	0.000760	7.601901	2.575594	-0.000304
 836	8.3082e+01	6.7233	53.590958	0.000649	6.486956	2.197840	-0.000260
 837	8.3182e+01	6.6864	53.308359	0.000710	7.095108	2.403888	-0.000284
 838	8.3281e+01	6.6447	53.033834	0.000689	6.892390	2.335205	-0.000276
 839	8.3381e+01	6.6078	52.731048	0.000760	7.601901	2.575594	-0.000304
 840	8.3481e+01	6.5661	52.436338	0.000740	7.399184	2.506911	-0.000296
 841	8.3580e+01	6.5308	52.165849	0.000679	6.791032	2.300864	-0.000272
 842	8.3680e+01	6.4939	51.871139	0.000740	7.399184	2.506911	-0.000296
 843	8.3779e+01	6.4586	51.596613	0.000689	6.892390	2.335205	-0.000276
 844	8.3879e+01	6.4089	51.285754	0.000780	7.804618	2.644276	-0.000312
 845	8.3978e+01	6.3672	50.982969	0.000760	7.601901	2.575594	-0.000304
 846	8.4078e+01	6.3335	50.708443	0.000689	6.892390	2.335205	-0.000276
 847	8.4177e+01	6.2822	50.441992	0.000669	6.689673	2.266523	-0.000268
 848	8.4276e+01	6.2517	50.147282	0.000740	7.399184	2.506911	-0.000296
 849	8.4376e+01	6.2100	49.812199	0.000841	8.412771	2.850324	-0.000337
 850	8.4475e+01	6.1763	49.517488	0.000740	7.399184	2.506911	-0.000296
 851	8.4575e+01	6.1314	49.251037	0.000669	6.689673	2.266523	-0.000268
 852	8.4674e+01	6.0913	48.956327	0.000740	7.399184	2.506911	-0.000296
 853	8.4774e+01	6.0464	48.653541	0.000760	7.601901	2.575594	-0.000304
 854	8.4874e+01	6.0111	48.366905	0.000720	7.196466	2.438229	-0.000288
 855	8.4973e+01	5.9677	48.068157	0.000750	7.500542	2.541253	-0.000300
 856	8.5073e+01	5.9276	47.842077	0.000568	5.676086	1.923110	-0.000227
 857	8.5172e+01	5.8956	47.523143	0.000801	8.007336	2.712959	-0.000321
 858	8.5272e+01	5.8490	47.252655	0.000679	6.791032	2.300864	-0.000272
 859	8.5371e+01	5.8057	46.978130	0.000689	6.892390	2.335205	-0.000276
 860	8.5471e+01	5.7736	46.695531	0.000710	7.095108	2.403888	-0.000284
 861	8.5570e+01	5.7335	46.372560	0.000811	8.108694	2.747300	-0.000325
 862	8.5669e+01	5.6982	46.085923	0.000720	7.196466	2.438229	-0.000288
 863	8.5769e+01	5.6645	45.795249	0.000730	7.297825	2.472570	-0.000292
 864	8.5868e+01	5.6244	45.468241	0.000821	8.210053	2.781641	-0.000329
 865	8.5968e+01	5.5795	45.217939	0.000628	6.284238	2.129158	-0.000252
 866	8.6067e+01	5.5378	44.890931	0.000821	8.210053	2.781641	-0.000329
 867	8.6167e+01	5.4961	44.563923	0.000821	8.210053	2.781641	-0.000329
 868	8.6266e+01	5.4608	44.281323	0.000710	7.095108	2.403888	-0.000284
 869	8.6366e+01	5.4159	44.022947	0.000649	6.486956	2.197840	-0.000260
 870	8.6466e+01	5.3902	43.716124	0.000770	7.703260	2.609935	-0.000308
 871	8.6565e+01	5.3453	43.429488	0.000720	7.196466	2.438229	-0.000288
 872	8.6665e+01	5.3052	43.142851	0.000720	7.196466	2.438229	-0.000288
 873	8.6764e+01	5.2539	42.884474	0.000649	6.486956	2.197840	-0.000260
 874	8.6864e+01	5.2170	42.573615	0.000780	7.804618	2.644276	-0.000312
 875	8.6963e+01	5.1704	42.335424	0.000598	5.980162	2.026134	-0.000239
 876	8.7063e+01	5.1319	42.028602	0.000770	7.703260	2.609935	-0.000308
 877	8.7162e+01	5.0966	41.741965	0.000720	7.196466	2.438229	-0.000288
 878	8.7261e+01	5.0565	41.463403	0.000699	6.993749	2.369546	-0.000280
 879	8.7361e+01	5.0229	41.152543	0.000780	7.804618	2.644276	-0.000312
 880	8.7460e+01	4.9811	40.825535	0.000821	8.210053	2.781641	-0.000329
 881	8.7560e+01	4.9346	40.510639	0.000791	7.905977	2.678618	-0.000316
 882	8.7659e+01	4.9009	40.236113	0.000689	6.892390	2.335205	-0.000276
 883	8.7759e+01	4.8512	39.933328	0.000760	7.601901	2.575594	-0.000304
 884	8.7859e+01	4.8239	39.646692	0.000720	7.196466	2.438229	-0.000288
 885	8.7958e+01	4.7726	39.356018	0.000730	7.297825	2.472570	-0.000292
 886	8.8058e+01	4.7389	39.065344	0.000730	7.297825	2.472570	-0.000292
 887	8.8157e+01	4.7036	38.734299	0.000831	8.311412	2.815983	-0.000333
 888	8.8257e+01	4.6587	38.500145	0.000588	5.878804	1.991793	-0.000235
 889	8.8356e+01	4.6250	38.161026	0.000851	8.514129	2.884665	-0.000341
 890	8.8456e+01	4.5737	37.894575	0.000669	6.689673	2.266523	-0.000268
 891	8.8555e+01	4.5400	37.551418	0.000862	8.615488	2.919006	-0.000345
 892	8.8654e+01	4.5031	37.305153	0.000618	6.182880	2.094816	-0.000248
 893	8.8754e+01	4.4582	37.010442	0.000740	7.399184	2.506911	-0.000296
 894	8.8853e+01	4.4181	36.756102	0.000639	6.385597	2.163499	-0.000256
 895	8.8953e+01	4.3844	36.453317	0.000760	7.601901	2.575594	-0.000304
 896	8.9052e+01	4.3507	36.174755	0.000699	6.993749	2.369546	-0.000280
 897	8.9152e+01	4.2929	35.819487	0.000892	8.919564	3.022030	-0.000357
 898	8.9251e+01	4.2657	35.524776	0.000740	7.399184	2.506911	-0.000296
 899	8.9351e+01	4.2191	35.197768	0.000821	8.210053	2.781641	-0.000329
 900	8.9451e+01	4.1822	34.919206	0.000699	6.993749	2.369546	-0.000280
 901	8.9550e+01	4.1421	34.640643	0.000699	6.993749	2.369546	-0.000280
 902	8.9650e+01	4.1020	34.337858	0.000760	7.601901	2.575594	-0.000304
 903	8.9749e+01	4.0619	34.006813	0.000831	8.311412	2.815983	-0.000333
 904	8.9849e+01	4.0202	33.716139	0.000730	7.297825	2.472570	-0.000292
 905	8.9948e+01	3.9785	33.413354	0.000760	7.601901	2.575594	-0.000304
 906	9.0047e+01	3.9432	33.114606	0.000750	7.500542	2.541253	-0.000300
 907	9.0147e+01	3.9047	32.827969	0.000720	7.196466	2.438229	-0.000288
 908	9.0246e+01	3.8566	32.533258	0.000740	7.399184	2.506911	-0.000296
 909	9.0346e+01	3.8213	32.234510	0.000750	7.500542	2.541253	-0.000300
 910	9.0445e+01	3.7732	31.927688	0.000770	7.703260	2.609935	-0.000308
 911	9.0545e+01	3.7266	31.713720	0.000537	5.372010	1.820086	-0.000215
 912	9.0644e+01	3.7026	31.382675	0.000831	8.311412	2.815983	-0.000333
 913	9.0744e+01	3.6593	31.124298	0.000649	6.486956	2.197840	-0.000260
 914	9.0844e+01	3.6256	30.797290	0.000821	8.210053	2.781641	-0.000329
 915	9.0943e+01	3.5806	30.429911	0.000922	9.223640	3.125054	-0.000369
 916	9.1043e+01	3.5470	30.139237	0.000730	7.297825	2.472570	-0.000292
 917	9.1142e+01	3.5004	29.844526	0.000740	7.399184	2.506911	-0.000296
 918	9.1242e+01	3.4635	29.541741	0.000760	7.601901	2.575594	-0.000304
 919	9.1341e+01	3.4266	29.218770	0.000811	8.108694	2.747300	-0.000325
 920	9.1441e+01	3.3897	28.895799	0.000811	8.108694	2.747300	-0.000325
 921	9.1540e+01	3.3496	28.681831	0.000537	5.372010	1.820086	-0.000215
 922	9.1639e+01	3.3031	28.334637	0.000872	8.716847	2.953348	-0.000349
 923	9.1739e+01	3.2662	28.039926	0.000740	7.399184	2.506911	-0.000296
 924	9.1838e+01	3.2245	27.720993	0.000801	8.007336	2.712959	-0.000321
 925	9.1938e+01	3.1844	27.438393	0.000710	7.095108	2.403888	-0.000284
 926	9.2037e+01	3.1523	27.123496	0.000791	7.905977	2.678618	-0.000316
 927	9.2137e+01	3.1058	26.832823	0.000730	7.297825	2.472570	-0.000292
 928	9.2237e+01	3.0673	26.534075	0.000750	7.500542	2.541253	-0.000300
 929	9.2336e+01	3.0224	26.255512	0.000699	6.993749	2.369546	-0.000280
 930	9.2436e+01	2.9855	25.997136	0.000649	6.486956	2.197840	-0.000260
 931	9.2535e+01	2.9325	25.666090	0.000831	8.311412	2.815983	-0.000333
 932	9.2635e+01	2.9021	25.359268	0.000770	7.703260	2.609935	-0.000308
 933	9.2734e+01	2.8716	24.999963	0.000902	9.020923	3.056371	-0.000361
 934	9.2834e+01	2.8315	24.693141	0.000770	7.703260	2.609935	-0.000308
 935	9.2933e+01	2.7930	24.450913	0.000608	6.081521	2.060475	-0.000243
 936	9.3032e+01	2.7545	24.131979	0.000801	8.007336	2.712959	-0.000321
 937	9.3132e+01	2.7144	23.833231	0.000750	7.500542	2.541253	-0.000300
 938	9.3231e+01	2.6678	23.461814	0.000932	9.324999	3.159395	-0.000373
 939	9.3331e+01	2.6358	23.207475	0.000639	6.385597	2.163499	-0.000256
 940	9.3430e+01	2.5876	22.916801	0.000730	7.297825	2.472570	-0.000292
 941	9.3530e+01	2.5443	22.585756	0.000831	8.311412	2.815983	-0.000333
 942	9.3629e+01	2.5074	22.295082	0.000730	7.297825	2.472570	-0.000292
 943	9.3729e+01	2.4705	22.012483	0.000710	7.095108	2.403888	-0.000284
 944	9.3829e+01	2.4288	21.701623	0.000780	7.804618	2.644276	-0.000312
 945	9.3928e+01	2.3855	21.386727	0.000791	7.905977	2.678618	-0.000316
 946	9.4028e+01	2.3454	21.116238	0.000679	6.791032	2.300864	-0.000272
 947	9.4127e+01	2.3037	20.797305	0.000801	8.007336	2.712959	-0.000321
 948	9.4227e+01	2.2700	20.542965	0.000639	6.385597	2.163499	-0.000256
 949	9.4326e+01	2.2347	20.240180	0.000760	7.601901	2.575594	-0.000304
 950	9.4425e+01	2.2026	19.860689	0.000953	9.527716	3.228078	-0.000381
 951	9.4525e+01	2.1449	19.594238	0.000669	6.689673	2.266523	-0.000268
 952	9.4624e+01	2.1064	19.263193	0.000831	8.311412	2.815983	-0.000333
 953	9.4724e+01	2.0663	18.976557	0.000720	7.196466	2.438229	-0.000288
 954	9.4823e+01	2.0310	18.649549	0.000821	8.210053	2.781641	-0.000329
 955	9.4923e+01	1.9957	18.350800	0.000750	7.500542	2.541253	-0.000300
 956	9.5022e+01	1.9524	17.991495	0.000902	9.020923	3.056371	-0.000361
 957	9.5122e+01	1.8978	17.729082	0.000659	6.588314	2.232181	-0.000264
 958	9.5222e+01	1.8657	17.398036	0.000831	8.311412	2.815983	-0.000333
 959	9.5321e+01	1.8256	17.066991	0.000831	8.311412	2.815983	-0.000333
 960	9.5421e+01	1.7871	16.804578	0.000659	6.588314	2.232181	-0.000264
 961	9.5520e+01	1.7550	16.526015	0.000699	6.993749	2.369546	-0.000280
 962	9.5620e+01	1.7101	16.190933	0.000841	8.412771	2.850324	-0.000337
 963	9.5719e+01	1.6652	15.884111	0.000770	7.703260	2.609935	-0.000308
 964	9.5819e+01	1.6315	15.625734	0.000649	6.486956	2.197840	-0.000260
 965	9.5918e+01	1.5882	15.318912	0.000770	7.703260	2.609935	-0.000308
 966	9.6017e+01	1.5513	15.032275	0.000720	7.196466	2.438229	-0.000288
 967	9.6117e+01	1.5160	14.741601	0.000730	7.297825	2.472570	-0.000292
 968	9.6216e+01	1.4695	14.398445	0.000862	8.615488	2.919006	-0.000345
 969	9.6316e+01	1.4422	14.083548	0.000791	7.905977	2.678618	-0.000316
 970	9.6415e+01	1.3909	13.760577	0.000811	8.108694	2.747300	-0.000325
 971	9.6515e+01	1.3508	13.441643	0.000801	8.007336	2.712959	-0.000321
 972	9.6615e+01	1.3155	13.199415	0.000608	6.081521	2.060475	-0.000243
 973	9.6714e+01	1.2786	12.848184	0.000882	8.818205	2.987689	-0.000353
 974	9.6814e+01	1.2353	12.505028	0.000862	8.615488	2.919006	-0.000345
 975	9.6913e+01	1.1903	12.246651	0.000649	6.486956	2.197840	-0.000260
 976	9.7013e+01	1.1502	11.911569	0.000841	8.412771	2.850324	-0.000337
 977	9.7112e+01	1.1085	11.588598	0.000811	8.108694	2.747300	-0.000325
 978	9.7212e+01	1.0668	11.354444	0.000588	5.878804	1.991793	-0.000235
 979	9.7311e+01	1.0331	11.023399	0.000831	8.311412	2.815983	-0.000333
 980	9.7410e+01	0.9834	10.724651	0.000750	7.500542	2.541253	-0.000300
 981	9.7510e+01	0.9513	10.405717	0.000801	8.007336	2.712959	-0.000321
 982	9.7609e+01	0.9080	10.207898	0.000497	4.966575	1.682721	-0.000199
 983	9.7709e+01	0.8711	9.832444	0.000943	9.426357	3.193736	-0.000377
 984	9.7808e+01	0.8406	9.553882	0.000699	6.993749	2.369546	-0.000280
 985	9.7908e+01	0.7893	9.234948	0.000801	8.007336	2.712959	-0.000321
 986	9.8007e+01	0.7524	8.956386	0.000699	6.993749	2.369546	-0.000280
 987	9.8107e+01	0.7171	8.605155	0.000882	8.818205	2.987689	-0.000353
 988	9.8207e+01	0.6674	8.286221	0.000801	8.007336	2.712959	-0.000321
 989	9.8306e+01	0.6273	7.967287	0.000801	8.007336	2.712959	-0.000321
 990	9.8406e+01	0.5936	7.664502	0.000760	7.601901	2.575594	-0.000304
 991	9.8505e+01	0.5503	7.365754	0.000750	7.500542	2.541253	-0.000300
 992	9.8605e+01	0.5118	7.087192	0.000699	6.993749	2.369546	-0.000280
 993	9.8704e+01	0.4749	6.764221	0.000811	8.108694	2.747300	-0.000325
 994	9.8803e+01	0.4331	6.461436	0.000760	7.601901	2.575594	-0.000304
 995	9.8903e+01	0.4027	6.122316	0.000851	8.514129	2.884665	-0.000341
 996	9.9002e+01	0.3417	5.847791	0.000689	6.892390	2.335205	-0.000276
 997	9.9102e+01	0.3128	5.565192	0.000710	7.095108	2.403888	-0.000284
 998	9.9201e+01	0.2775	5.270481	0.000740	7.399184	2.506911	-0.000296
 999	9.9301e+01	0.2182	5.004030	0.000669	6.689673	2.266523	-0.000268
1000	9.9400e+01	0.2021	4.677022	0.000821	8.210053	2.781641	-0.000329
1001	9.9500e+01	0.1540	4.410571	0.000669	6.689673	2.266523	-0.000268
1002	9.9600e+01	0.1123	4.079526	0.000831	8.311412	2.815983	-0.000333
1003	9.9699e+01	0.0786	3.805000	0.000689	6.892390	2.335205	-0.000276
1004	9.9799e+01	0.0385	3.453770	0.000882	8.818205	2.987689	-0.000353
1005	9.9898e+01	0.0144	3.223653	0.000578	5.777445	1.957451	-0.000231
1006	9.9998e+01	-0.0353	2.872422	0.000882	8.818205	2.987689	-0.000353
1007	1.0010e+02	-0.0770	2.585785	0.000720	7.196466	2.438229	-0.000288
1008	1.0020e+02	-0.1139	2.278963	0.000770	7.703260	2.609935	-0.000308
1009	1.0030e+02	-0.1572	1.972141	0.000770	7.703260	2.609935	-0.000308
1010	1.0040e+02	-0.1957	1.681467	0.000730	7.297825	2.472570	-0.000292
1011	1.0050e+02	-0.2358	1.382719	0.000750	7.500542	2.541253	-0.000300
1012	1.0059e+02	-0.2775	1.083971	0.000750	7.500542	2.541253	-0.000300
1013	1.0069e+02	-0.3048	0.769074	0.000791	7.905977	2.678618	-0.000316
1014	1.0079e+02	-0.3577	0.474363	0.000740	7.399184	2.506911	-0.000296
1015	1.0089e+02	-0.3978	0.179653	0.000740	7.399184	2.506911	-0.000296
1016	1.0099e+02	-0.4460	-0.062576	0.000608	6.081521	2.060475	-0.000243
1017	1.0109e+02	-0.4781	-0.393621	0.000831	8.311412	2.815983	-0.000333
1018	1.0119e+02	-0.5182	-0.676220	0.000710	7.095108	2.403888	-0.000284
1019	1.0129e+02	-0.5519	-0.958820	0.000710	7.095108	2.403888	-0.000284
1020	1.0139e+02	-0.5952	-1.253531	0.000740	7.399184	2.506911	-0.000296
1021	1.0149e+02	-0.6401	-1.592650	0.000851	8.514129	2.884665	-0.000341
1022	1.0159e+02	-0.6722	-1.883324	0.000730	7.297825	2.472570	-0.000292
1023	1.0169e+02	-0.7107	-2.198220	0.000791	7.905977	2.678618	-0.000316
1024	1.0179e+02	-0.7588	-2.537340	0.000851	8.514129	2.884665	-0.000341
1025	1.0189e+02	-0.8005	-2.828014	0.000730	7.297825	2.472570	-0.000292
1026	1.0199e+02	-0.8326	-3.110613	0.000710	7.095108	2.403888	-0.000284
1027	1.0209e+02	-0.8695	-3.449732	0.000851	8.514129	2.884665	-0.000341
1028	1.0219e+02	-0.9224	-3.720221	0.000679	6.791032	2.300864	-0.000272
1029	1.0229e+02	-0.9593	-4.023006	0.000760	7.601901	2.575594	-0.000304
1030	1.0239e+02	-0.9978	-4.317717	0.000740	7.399184	2.506911	-0.000296
1031	1.0248e+02	-1.0315	-4.624539	0.000770	7.703260	2.609935	-0.000308
1032	1.0258e+02	-1.0684	-4.971733	0.000872	8.716847	2.953348	-0.000349
1033	1.0268e+02	-1.1053	-5.246258	0.000689	6.892390	2.335205	-0.000276
1034	1.0278e+02	-1.1583	-5.488486	0.000608	6.081521	2.060475	-0.000243
1035	1.0288e+02	-1.1839	-5.791271	0.000760	7.601901	2.575594	-0.000304
1036	1.0298e+02	-1.2304	-6.073871	0.000710	7.095108	2.403888	-0.000284
1037	1.0308e+02	-1.2770	-6.376656	0.000760	7.601901	2.575594	-0.000304
1038	1.0318e+02	-1.3219	-6.695590	0.000801	8.007336	2.712959	-0.000321
1039	1.0328e+02	-1.3492	-6.970115	0.000689	6.892390	2.335205	-0.000276
1040	1.0338e+02	-1.3909	-7.260789	0.000730	7.297825	2.472570	-0.000292
1041	1.0348e+02	-1.4390	-7.563574	0.000760	7.601901	2.575594	-0.000304
1042	1.0358e+02	-1.4679	-7.882508	0.000801	8.007336	2.712959	-0.000321
1043	1.0368e+02	-1.5096	-8.261998	0.000953	9.527716	3.228078	-0.000381
1044	1.0378e+02	-1.5513	-8.512301	0.000628	6.284238	2.129158	-0.000252
1045	1.0388e+02	-1.5978	-8.790863	0.000699	6.993749	2.369546	-0.000280
1046	1.0398e+02	-1.6363	-9.113834	0.000811	8.108694	2.747300	-0.000325
1047	1.0408e+02	-1.6716	-9.424693	0.000780	7.804618	2.644276	-0.000312
1048	1.0418e+02	-1.7117	-9.703256	0.000699	6.993749	2.369546	-0.000280
1049	1.0428e+02	-1.7502	-10.082747	0.000953	9.527716	3.228078	-0.000381
1050	1.0438e+02	-1.7839	-10.272492	0.000476	4.763858	1.614039	-0.000191
1051	1.0447e+02	-1.8320	-10.603537	0.000831	8.311412	2.815983	-0.000333
1052	1.0457e+02	-1.8721	-10.837691	0.000588	5.878804	1.991793	-0.000235
1053	1.0467e+02	-1.9058	-11.128365	0.000730	7.297825	2.472570	-0.000292
1054	1.0477e+02	-1.9507	-11.455373	0.000821	8.210053	2.781641	-0.000329
1055	1.0487e+02	-1.9860	-11.758158	0.000760	7.601901	2.575594	-0.000304
1056	1.0497e+02	-2.0261	-12.048832	0.000730	7.297825	2.472570	-0.000292
1057	1.0507e+02	-2.0663	-12.367765	0.000801	8.007336	2.712959	-0.000321
1058	1.0517e+02	-2.1031	-12.682662	0.000791	7.905977	2.678618	-0.000316
1059	1.0527e+02	-2.1577	-12.965261	0.000710	7.095108	2.403888	-0.000284
1060	1.0537e+02	-2.1769	-13.292269	0.000821	8.210053	2.781641	-0.000329
1061	1.0547e+02	-2.2315	-13.611203	0.000801	8.007336	2.712959	-0.000321
1062	1.0557e+02	-2.2716	-13.905914	0.000740	7.399184	2.506911	-0.000296
1063	1.0567e+02	-2.3021	-14.172365	0.000669	6.689673	2.266523	-0.000268
1064	1.0577e+02	-2.3438	-14.503410	0.000831	8.311412	2.815983	-0.000333
1065	1.0587e+02	-2.3887	-14.798121	0.000740	7.399184	2.506911	-0.000296
1066	1.0597e+02	-2.4304	-15.092832	0.000740	7.399184	2.506911	-0.000296
1067	1.0607e+02	-2.4721	-15.391580	0.000750	7.500542	2.541253	-0.000300
1068	1.0617e+02	-2.5090	-15.710514	0.000801	8.007336	2.712959	-0.000321
1069	1.0627e+02	-2.5523	-15.944668	0.000588	5.878804	1.991793	-0.000235
1070	1.0637e+02	-2.5812	-16.247453	0.000760	7.601901	2.575594	-0.000304
1071	1.0647e+02	-2.6213	-16.546201	0.000750	7.500542	2.541253	-0.000300
1072	1.0656e+02	-2.6678	-16.877246	0.000831	8.311412	2.815983	-0.000333
1073	1.0666e+02	-2.7095	-17.167920	0.000730	7.297825	2.472570	-0.000292
1074	1.0676e+02	-2.7497	-17.454556	0.000720	7.196466	2.438229	-0.000288
1075	1.0686e+02	-2.7930	-17.733119	0.000699	6.993749	2.369546	-0.000280
1076	1.0696e+02	-2.8347	-18.019755	0.000720	7.196466	2.438229	-0.000288
1077	1.0706e+02	-2.8652	-18.350800	0.000831	8.311412	2.815983	-0.000333
1078	1.0716e+02	-2.9021	-18.685883	0.000841	8.412771	2.850324	-0.000337
1079	1.0726e+02	-2.9470	-19.033076	0.000872	8.716847	2.953348	-0.000349
1080	1.0736e+02	-2.9775	-19.303565	0.000679	6.791032	2.300864	-0.000272
1081	1.0746e+02	-3.0304	-19.582127	0.000699	6.993749	2.369546	-0.000280
1082	1.0756e+02	-3.0641	-19.929321	0.000872	8.716847	2.953348	-0.000349
1083	1.0766e+02	-3.1026	-20.191734	0.000659	6.588314	2.232181	-0.000264
1084	1.0776e+02	-3.1459	-20.559114	0.000922	9.223640	3.125054	-0.000369
1085	1.0786e+02	-3.1828	-20.781156	0.000557	5.574727	1.888769	-0.000223
1086	1.0796e+02	-3.2245	-21.092016	0.000780	7.804618	2.644276	-0.000312
1087	1.0806e+02	-3.2742	-21.358467	0.000669	6.689673	2.266523	-0.000268
1088	1.0816e+02	-3.3031	-21.653178	0.000740	7.399184	2.506911	-0.000296
1089	1.0826e+02	-3.3400	-21.968074	0.000791	7.905977	2.678618	-0.000316
1090	1.0836e+02	-3.3849	-22.266822	0.000750	7.500542	2.541253	-0.000300
1091	1.0845e+02	-3.4250	-22.521162	0.000639	6.385597	2.163499	-0.000256
1092	1.0855e+02	-3.4603	-22.819910	0.000750	7.500542	2.541253	-0.000300
1093	1.0865e+02	-3.5101	-23.163066	0.000862	8.615488	2.919006	-0.000345
1094	1.0875e+02	-3.5261	-23.429517	0.000669	6.689673	2.266523	-0.000268
1095	1.0885e+02	-3.5887	-23.768637	0.000851	8.514129	2.884665	-0.000341
1096	1.0895e+02	-3.6175	-24.115830	0.000872	8.716847	2.953348	-0.000349
1097	1.0905e+02	-3.6625	-24.378244	0.000659	6.588314	2.232181	-0.000264
1098	1.0915e+02	-3.6929	-24.660844	0.000710	7.095108	2.403888	-0.000284
1099	1.0925e+02	-3.7347	-25.004000	0.000862	8.615488	2.919006	-0.000345
1100	1.0935e+02	-3.7828	-25.286600	0.000710	7.095108	2.403888	-0.000284
1101	1.0945e+02	-3.8277	-25.577273	0.000730	7.297825	2.472570	-0.000292
1102	1.0955e+02	-3.8598	-25.880059	0.000760	7.601901	2.575594	-0.000304
1103	1.0965e+02	-3.8919	-26.158621	0.000699	6.993749	2.369546	-0.000280
1104	1.0975e+02	-3.9480	-26.437183	0.000699	6.993749	2.369546	-0.000280
1105	1.0985e+02	-3.9833	-26.715746	0.000699	6.993749	2.369546	-0.000280
1106	1.0995e+02	-4.0266	-27.010457	0.000740	7.399184	2.506911	-0.000296
1107	1.1005e+02	-4.0667	-27.325353	0.000791	7.905977	2.678618	-0.000316
1108	1.1015e+02	-4.1004	-27.648324	0.000811	8.108694	2.747300	-0.000325
1109	1.1025e+02	-4.1389	-27.902664	0.000639	6.385597	2.163499	-0.000256
1110	1.1035e+02	-4.1854	-28.229672	0.000821	8.210053	2.781641	-0.000329
1111	1.1044e+02	-4.2127	-28.520345	0.000730	7.297825	2.472570	-0.000292
1112	1.1054e+02	-4.2544	-28.815056	0.000740	7.399184	2.506911	-0.000296
1113	1.1064e+02	-4.2977	-29.166287	0.000882	8.818205	2.987689	-0.000353
1114	1.1074e+02	-4.3346	-29.440812	0.000689	6.892390	2.335205	-0.000276
1115	1.1084e+02	-4.3796	-29.788006	0.000872	8.716847	2.953348	-0.000349
1116	1.1094e+02	-4.4132	-30.026197	0.000598	5.980162	2.026134	-0.000239
1117	1.1104e+02	-4.4598	-30.373391	0.000872	8.716847	2.953348	-0.000349
1118	1.1114e+02	-4.5015	-30.647916	0.000689	6.892390	2.335205	-0.000276
1119	1.1124e+02	-4.5336	-30.926478	0.000699	6.993749	2.369546	-0.000280
1120	1.1134e+02	-4.5865	-31.221189	0.000740	7.399184	2.506911	-0.000296
1121	1.1144e+02	-4.6170	-31.487640	0.000669	6.689673	2.266523	-0.000268
1122	1.1154e+02	-4.6747	-31.786388	0.000750	7.500542	2.541253	-0.000300
1123	1.1164e+02	-4.7084	-32.101285	0.000791	7.905977	2.678618	-0.000316
1124	1.1174e+02	-4.7341	-32.387921	0.000720	7.196466	2.438229	-0.000288
1125	1.1184e+02	-4.7710	-32.666484	0.000699	6.993749	2.369546	-0.000280
1126	1.1194e+02	-4.8207	-32.989455	0.000811	8.108694	2.747300	-0.000325
1127	1.1204e+02	-4.8560	-33.280128	0.000730	7.297825	2.472570	-0.000292
1128	1.1214e+02	-4.8913	-33.574839	0.000740	7.399184	2.506911	-0.000296
1129	1.1224e+02	-4.9298	-33.825142	0.000628	6.284238	2.129158	-0.000252
1130	1.1234e+02	-4.9683	-34.152150	0.000821	8.210053	2.781641	-0.000329
1131	1.1244e+02	-5.0229	-34.531641	0.000953	9.527716	3.228078	-0.000381
1132	1.1253e+02	-5.0549	-34.830389	0.000750	7.500542	2.541253	-0.000300
1133	1.1263e+02	-5.0983	-35.117025	0.000720	7.196466	2.438229	-0.000288
1134	1.1273e+02	-5.1368	-35.383476	0.000669	6.689673	2.266523	-0.000268
1135	1.1283e+02	-5.1801	-35.666076	0.000710	7.095108	2.403888	-0.000284
1136	1.1293e+02	-5.2138	-35.997121	0.000831	8.311412	2.815983	-0.000333
1137	1.1303e+02	-5.2587	-36.287795	0.000730	7.297825	2.472570	-0.000292
1138	1.1313e+02	-5.2876	-36.562320	0.000689	6.892390	2.335205	-0.000276
1139	1.1323e+02	-5.3341	-36.816659	0.000639	6.385597	2.163499	-0.000256
1140	1.1333e+02	-5.3758	-37.087147	0.000679	6.791032	2.300864	-0.000272
1141	1.1343e+02	-5.4159	-37.418193	0.000831	8.311412	2.815983	-0.000333
1142	1.1353e+02	-5.4592	-37.688681	0.000679	6.791032	2.300864	-0.000272
1143	1.1363e+02	-5.4993	-37.959169	0.000679	6.791032	2.300864	-0.000272
1144	1.1373e+02	-5.5282	-38.298288	0.000851	8.514129	2.884665	-0.000341
1145	1.1383e+02	-5.5827	-38.548591	0.000628	6.284238	2.129158	-0.000252
1146	1.1393e+02	-5.6148	-38.879636	0.000831	8.311412	2.815983	-0.000333
1147	1.1403e+02	-5.6597	-39.138012	0.000649	6.486956	2.197840	-0.000260
1148	1.1413e+02	-5.6822	-39.477132	0.000851	8.514129	2.884665	-0.000341
1149	1.1423e+02	-5.7448	-39.796066	0.000801	8.007336	2.712959	-0.000321
1150	1.1433e+02	-5.7720	-40.082702	0.000720	7.196466	2.438229	-0.000288
1151	1.1442e+02	-5.8153	-40.377413	0.000740	7.399184	2.506911	-0.000296
1152	1.1452e+02	-5.8506	-40.660013	0.000710	7.095108	2.403888	-0.000284
1153	1.1462e+02	-5.9020	-40.962798	0.000760	7.601901	2.575594	-0.000304
1154	1.1472e+02	-5.9325	-41.209063	0.000618	6.182880	2.094816	-0.000248
1155	1.1482e+02	-5.9806	-41.499737	0.000730	7.297825	2.472570	-0.000292
1156	1.1492e+02	-6.0175	-41.778299	0.000699	6.993749	2.369546	-0.000280
1157	1.1502e+02	-6.0624	-42.040713	0.000659	6.588314	2.232181	-0.000264
1158	1.1512e+02	-6.0977	-42.331387	0.000730	7.297825	2.472570	-0.000292
1159	1.1522e+02	-6.1346	-42.585726	0.000639	6.385597	2.163499	-0.000256
1160	1.1532e+02	-6.1747	-42.916771	0.000831	8.311412	2.815983	-0.000333
1161	1.1542e+02	-6.2116	-43.219557	0.000760	7.601901	2.575594	-0.000304
1162	1.1552e+02	-6.2597	-43.502156	0.000710	7.095108	2.403888	-0.000284
1163	1.1562e+02	-6.2918	-43.772644	0.000679	6.791032	2.300864	-0.000272
1164	1.1572e+02	-6.3287	-44.047169	0.000689	6.892390	2.335205	-0.000276
1165	1.1582e+02	-6.3640	-44.333806	0.000720	7.196466	2.438229	-0.000288
1166	1.1592e+02	-6.4121	-44.668888	0.000841	8.412771	2.850324	-0.000337
1167	1.1602e+02	-6.4538	-44.951488	0.000710	7.095108	2.403888	-0.000284
1168	1.1612e+02	-6.4955	-45.266384	0.000791	7.905977	2.678618	-0.000316
1169	1.1622e+02	-6.5276	-45.569170	0.000760	7.601901	2.575594	-0.000304
1170	1.1632e+02	-6.5741	-45.819472	0.000628	6.284238	2.129158	-0.000252
1171	1.1642e+02	-6.6030	-46.106109	0.000720	7.196466	2.438229	-0.000288
1172	1.1651e+02	-6.6511	-46.441191	0.000841	8.412771	2.850324	-0.000337
1173	1.1661e+02	-6.6832	-46.655159	0.000537	5.372010	1.820086	-0.000215
1174	1.1671e+02	-6.7346	-46.901424	0.000618	6.182880	2.094816	-0.000248
1175	1.1681e+02	-6.7683	-47.200172	0.000750	7.500542	2.541253	-0.000300
1176	1.1691e+02	-6.8132	-47.454512	0.000639	6.385597	2.163499	-0.000256
1177	1.1701e+02	-6.8549	-47.753260	0.000750	7.500542	2.541253	-0.000300
1178	1.1711e+02	-6.8918	-48.019711	0.000669	6.689673	2.266523	-0.000268
1179	1.1721e+02	-6.9255	-48.310385	0.000730	7.297825	2.472570	-0.000292
1180	1.1731e+02	-6.9640	-48.609133	0.000750	7.500542	2.541253	-0.000300
1181	1.1741e+02	-7.0073	-48.879621	0.000679	6.791032	2.300864	-0.000272
1182	1.1751e+02	-7.0426	-49.194518	0.000791	7.905977	2.678618	-0.000316
1183	1.1761e+02	-7.0859	-49.513451	0.000801	8.007336	2.712959	-0.000321
1184	1.1771e+02	-7.1228	-49.792014	0.000699	6.993749	2.369546	-0.000280
1185	1.1781e+02	-7.1629	-50.038279	0.000618	6.182880	2.094816	-0.000248
1186	1.1791e+02	-7.1998	-50.353175	0.000791	7.905977	2.678618	-0.000316
1187	1.1801e+02	-7.2431	-50.607515	0.000639	6.385597	2.163499	-0.000256
1188	1.1811e+02	-7.2912	-50.942597	0.000841	8.412771	2.850324	-0.000337
1189	1.1821e+02	-7.3265	-51.209048	0.000669	6.689673	2.266523	-0.000268
1190	1.1831e+02	-7.3666	-51.499722	0.000730	7.297825	2.472570	-0.000292
1191	1.1841e+02	-7.4003	-51.750024	0.000628	6.284238	2.129158	-0.000252
1192	1.1850e+02	-7.4420	-52.036661	0.000720	7.196466	2.438229	-0.000288
1193	1.1860e+02	-7.4854	-52.355595	0.000801	8.007336	2.712959	-0.000321
1194	1.1870e+02	-7.5190	-52.577637	0.000557	5.574727	1.888769	-0.000223
1195	1.1880e+02	-7.5640	-52.848125	0.000679	6.791032	2.300864	-0.000272
1196	1.1890e+02	-7.6057	-53.106502	0.000649	6.486956	2.197840	-0.000260
1197	1.1900e+02	-7.6474	-53.441584	0.000841	8.412771	2.850324	-0.000337
1198	1.1910e+02	-7.6891	-53.679775	0.000598	5.980162	2.026134	-0.000239
1199	1.1920e+02	-7.7196	-53.950263	0.000679	6.791032	2.300864	-0.000272
1200	1.1930e+02	-7.7661	-54.244974	0.000740	7.399184	2.506911	-0.000296
1201	1.1940e+02	-7.8014	-54.519500	0.000689	6.892390	2.335205	-0.000276
1202	1.1950e+02	-7.8447	-54.814210	0.000740	7.399184	2.506911	-0.000296
1203	1.1960e+02	-7.8768	-55.121033	0.000770	7.703260	2.609935	-0.000308
1204	1.1970e+02	-7.9249	-55.407669	0.000720	7.196466	2.438229	-0.000288
1205	1.1980e+02	-7.9634	-55.666046	0.000649	6.486956	2.197840	-0.000260
1206	1.1990e+02	-8.0051	-55.956720	0.000730	7.297825	2.472570	-0.000292
1207	1.2000e+02	-8.0436	-56.239319	0.000710	7.095108	2.403888	-0.000284
1208	1.2010e+02	-8.0853	-56.477510	0.000598	5.980162	2.026134	-0.000239
1209	1.2020e+02	-8.1142	-56.776258	0.000750	7.500542	2.541253	-0.000300
1210	1.2030e+02	-8.1607	-57.034635	0.000649	6.486956	2.197840	-0.000260
1211	1.2039e+02	-8.2008	-57.301086	0.000669	6.689673	2.266523	-0.000268
1212	1.2049e+02	-8.2409	-57.595797	0.000740	7.399184	2.506911	-0.000296
1213	1.2059e+02	-8.2827	-57.833988	0.000598	5.980162	2.026134	-0.000239
1214	1.2069e+02	-8.3115	-58.132736	0.000750	7.500542	2.541253	-0.000300
1215	1.2079e+02	-8.3645	-58.407261	0.000689	6.892390	2.335205	-0.000276
1216	1.2089e+02	-8.3950	-58.665638	0.000649	6.486956	2.197840	-0.000260
1217	1.2099e+02	-8.4415	-58.960349	0.000740	7.399184	2.506911	-0.000296
1218	1.2109e+02	-8.4800	-59.222763	0.000659	6.588314	2.232181	-0.000264
1219	1.2119e+02	-8.5169	-59.509399	0.000720	7.196466	2.438229	-0.000288
1220	1.2129e+02	-8.5538	-59.800073	0.000730	7.297825	2.472570	-0.000292
1221	1.2139e+02	-8.5955	-60.135155	0.000841	8.412771	2.850324	-0.000337
1222	1.2149e+02	-8.6324	-60.397569	0.000659	6.588314	2.232181	-0.000264
1223	1.2159e+02	-8.6821	-60.655946	0.000649	6.486956	2.197840	-0.000260
1224	1.2169e+02	-8.7174	-60.958731	0.000760	7.601901	2.575594	-0.000304
1225	1.2179e+02	-8.7623	-61.221145	0.000659	6.588314	2.232181	-0.000264
1226	1.2189e+02	-8.7960	-61.487596	0.000669	6.689673	2.266523	-0.000268
1227	1.2199e+02	-8.8441	-61.762121	0.000689	6.892390	2.335205	-0.000276
1228	1.2209e+02	-8.8858	-61.988201	0.000568	5.676086	1.923110	-0.000227
1229	1.2219e+02	-8.9324	-62.274837	0.000720	7.196466	2.438229	-0.000288
1230	1.2229e+02	-8.9596	-62.545325	0.000679	6.791032	2.300864	-0.000272
1231	1.2239e+02	-9.0046	-62.835999	0.000730	7.297825	2.472570	-0.000292
1232	1.2248e+02	-9.0366	-63.126673	0.000730	7.297825	2.472570	-0.000292
1233	1.2258e+02	-9.0784	-63.368901	0.000608	6.081521	2.060475	-0.000243
1234	1.2268e+02	-9.1120	-63.627278	0.000649	6.486956	2.197840	-0.000260
1235	1.2278e+02	-9.1538	-63.905840	0.000699	6.993749	2.369546	-0.000280
1236	1.2288e+02	-9.2067	-64.192477	0.000720	7.196466	2.438229	-0.000288
1237	1.2298e+02	-9.2404	-64.499299	0.000770	7.703260	2.609935	-0.000308
1238	1.2308e+02	-9.2773	-64.741527	0.000608	6.081521	2.060475	-0.000243
1239	1.2318e+02	-9.3158	-65.044312	0.000760	7.601901	2.575594	-0.000304
1240	1.2328e+02	-9.3559	-65.302689	0.000649	6.486956	2.197840	-0.000260
1241	1.2338e+02	-9.3976	-65.641809	0.000851	8.514129	2.884665	-0.000341
1242	1.2348e+02	-9.4393	-65.896148	0.000639	6.385597	2.163499	-0.000256
1243	1.2358e+02	-9.4778	-66.130302	0.000588	5.878804	1.991793	-0.000235
1244	1.2368e+02	-9.5131	-66.449236	0.000801	8.007336	2.712959	-0.000321
1245	1.2378e+02	-9.5596	-66.687427	0.000598	5.980162	2.026134	-0.000239
1246	1.2388e+02	-9.5949	-66.982138	0.000740	7.399184	2.506911	-0.000296
1247	1.2398e+02	-9.6382	-67.228403	0.000618	6.182880	2.094816	-0.000248
1248	1.2408e+02	-9.6783	-67.478705	0.000628	6.284238	2.129158	-0.000252
1249	1.2418e+02	-9.7265	-67.724971	0.000618	6.182880	2.094816	-0.000248
1250	1.2428e+02	-9.7650	-68.015644	0.000730	7.297825	2.472570	-0.000292
1251	1.2438e+02	-9.7938	-68.310355	0.000740	7.399184	2.506911	-0.000296
1252	1.2447e+02	-9.8372	-68.560658	0.000628	6.284238	2.129158	-0.000252
1253	1.2457e+02	-9.8741	-68.839220	0.000699	6.993749	2.369546	-0.000280
1254	1.2467e+02	-9.9158	-69.121820	0.000710	7.095108	2.403888	-0.000284
1255	1.2477e+02	-9.9543	-69.448828	0.000821	8.210053	2.781641	-0.000329
1256	1.2487e+02	-9.9880	-69.687019	0.000598	5.980162	2.026134	-0.000239
1257	1.2497e+02	-10.0313	-69.993841	0.000770	7.703260	2.609935	-0.000308
1258	1.2507e+02	-10.0762	-70.288552	0.000740	7.399184	2.506911	-0.000296
1259	1.2517e+02	-10.1131	-70.530780	0.000608	6.081521	2.060475	-0.000243
1260	1.2527e+02	-10.1580	-70.809342	0.000699	6.993749	2.369546	-0.000280
1261	1.2537e+02	-10.1981	-71.087905	0.000699	6.993749	2.369546	-0.000280
1262	1.2547e+02	-10.2350	-71.326096	0.000598	5.980162	2.026134	-0.000239
1263	1.2557e+02	-10.2735	-71.588509	0.000659	6.588314	2.232181	-0.000264
1264	1.2567e+02	-10.3168	-71.883220	0.000740	7.399184	2.506911	-0.000296
1265	1.2577e+02	-10.3617	-72.101226	0.000547	5.473369	1.854428	-0.000219
1266	1.2587e+02	-10.3986	-72.379788	0.000699	6.993749	2.369546	-0.000280
1267	1.2597e+02	-10.4275	-72.658350	0.000699	6.993749	2.369546	-0.000280
1268	1.2607e+02	-10.4708	-72.949024	0.000730	7.297825	2.472570	-0.000292
1269	1.2617e+02	-10.5270	-73.199327	0.000628	6.284238	2.129158	-0.000252
1270	1.2627e+02	-10.5559	-73.445592	0.000618	6.182880	2.094816	-0.000248
1271	1.2636e+02	-10.5927	-73.756451	0.000780	7.804618	2.644276	-0.000312
1272	1.2646e+02	-10.6345	-74.047125	0.000730	7.297825	2.472570	-0.000292
1273	1.2656e+02	-10.6746	-74.345873	0.000750	7.500542	2.541253	-0.000300
1274	1.2666e+02	-10.7099	-74.616361	0.000679	6.791032	2.300864	-0.000272
1275	1.2676e+02	-10.7500	-74.858589	0.000608	6.081521	2.060475	-0.000243
1276	1.2686e+02	-10.7917	-75.149263	0.000730	7.297825	2.472570	-0.000292
1277	1.2696e+02	-10.8318	-75.419751	0.000679	6.791032	2.300864	-0.000272
1278	1.2706e+02	-10.8719	-75.690239	0.000679	6.791032	2.300864	-0.000272
1279	1.2716e+02	-10.9088	-75.952653	0.000659	6.588314	2.232181	-0.000264
1280	1.2726e+02	-10.9569	-76.231216	0.000699	6.993749	2.369546	-0.000280
1281	1.2736e+02	-10.9890	-76.477481	0.000618	6.182880	2.094816	-0.000248
1282	1.2746e+02	-11.0387	-76.715672	0.000598	5.980162	2.026134	-0.000239
1283	1.2756e+02	-11.0692	-76.994234	0.000699	6.993749	2.369546	-0.000280
1284	1.2766e+02	-11.1141	-77.252611	0.000649	6.486956	2.197840	-0.000260
1285	1.2776e+02	-11.1574	-77.551359	0.000750	7.500542	2.541253	-0.000300
1286	1.2786e+02	-11.1863	-77.809736	0.000649	6.486956	2.197840	-0.000260
1287	1.2796e+02	-11.2248	-78.088298	0.000699	6.993749	2.369546	-0.000280
1288	1.2806e+02	-11.2681	-78.358786	0.000679	6.791032	2.300864	-0.000272
1289	1.2816e+02	-11.3098	-78.653497	0.000740	7.399184	2.506911	-0.000296
1290	1.2826e+02	-11.3435	-78.940134	0.000720	7.196466	2.438229	-0.000288
1291	1.2835e+02	-11.3852	-79.190436	0.000628	6.284238	2.129158	-0.000252
1292	1.2845e+02	-11.4237	-79.477073	0.000720	7.196466	2.438229	-0.000288
1293	1.2855e+02	-11.4719	-79.735449	0.000649	6.486956	2.197840	-0.000260
1294	1.2865e+02	-11.5104	-79.981715	0.000618	6.182880	2.094816	-0.000248
1295	1.2875e+02	-11.5457	-80.272388	0.000730	7.297825	2.472570	-0.000292
1296	1.2885e+02	-11.5826	-80.490394	0.000547	5.473369	1.854428	-0.000219
1297	1.2895e+02	-11.6323	-80.793179	0.000760	7.601901	2.575594	-0.000304
1298	1.2905e+02	-11.6708	-81.067704	0.000689	6.892390	2.335205	-0.000276
1299	1.2915e+02	-11.7125	-81.322044	0.000639	6.385597	2.163499	-0.000256
1300	1.2925e+02	-11.7558	-81.523901	0.000507	5.067934	1.717063	-0.000203
1301	1.2935e+02	-11.7975	-81.802463	0.000699	6.993749	2.369546	-0.000280
1302	1.2945e+02	-11.8264	-82.052765	0.000628	6.284238	2.129158	-0.000252
1303	1.2955e+02	-11.8761	-82.363625	0.000780	7.804618	2.644276	-0.000312
1304	1.2965e+02	-11.9050	-82.646224	0.000710	7.095108	2.403888	-0.000284
1305	1.2975e+02	-11.9435	-82.908638	0.000659	6.588314	2.232181	-0.000264
1306	1.2985e+02	-11.9900	-83.211423	0.000760	7.601901	2.575594	-0.000304
1307	1.2995e+02	-12.0285	-83.473837	0.000659	6.588314	2.232181	-0.000264
1308	1.3005e+02	-12.0654	-83.740288	0.000669	6.689673	2.266523	-0.000268
1309	1.3015e+02	-12.1023	-83.990590	0.000628	6.284238	2.129158	-0.000252
1310	1.3025e+02	-12.1392	-84.232819	0.000608	6.081521	2.060475	-0.000243
1311	1.3034e+02	-12.1922	-84.495232	0.000659	6.588314	2.232181	-0.000264
1312	1.3044e+02	-12.2275	-84.789943	0.000740	7.399184	2.506911	-0.000296
1313	1.3054e+02	-12.2708	-85.044283	0.000639	6.385597	2.163499	-0.000256
1314	1.3064e+02	-12.2964	-85.318808	0.000689	6.892390	2.335205	-0.000276
1315	1.3074e+02	-12.3510	-85.573148	0.000639	6.385597	2.163499	-0.000256
1316	1.3084e+02	-12.3815	-85.795190	0.000557	5.574727	1.888769	-0.000223
1317	1.3094e+02	-12.4248	-86.061641	0.000669	6.689673	2.266523	-0.000268
1318	1.3104e+02	-12.4665	-86.328092	0.000669	6.689673	2.266523	-0.000268
1319	1.3114e+02	-12.5034	-86.529949	0.000507	5.067934	1.717063	-0.000203
1320	1.3124e+02	-12.5467	-86.848883	0.000801	8.007336	2.712959	-0.000321
1321	1.3134e+02	-12.5852	-87.087074	0.000598	5.980162	2.026134	-0.000239
1322	1.3144e+02	-12.6237	-87.353525	0.000669	6.689673	2.266523	-0.000268
1323	1.3154e+02	-12.6638	-87.611901	0.000649	6.486956	2.197840	-0.000260
1324	1.3164e+02	-12.7023	-87.890464	0.000699	6.993749	2.369546	-0.000280
1325	1.3174e+02	-12.7360	-88.173063	0.000710	7.095108	2.403888	-0.000284
1326	1.3184e+02	-12.7873	-88.431440	0.000649	6.486956	2.197840	-0.000260
1327	1.3194e+02	-12.8226	-88.661557	0.000578	5.777445	1.957451	-0.000231
1328	1.3204e+02	-12.8708	-88.972416	0.000780	7.804618	2.644276	-0.000312
1329	1.3214e+02	-12.9044	-89.202533	0.000578	5.777445	1.957451	-0.000231
1330	1.3224e+02	-12.9317	-89.460909	0.000649	6.486956	2.197840	-0.000260
1331	1.3234e+02	-12.9782	-89.682952	0.000557	5.574727	1.888769	-0.000223
1332	1.3243e+02	-13.0248	-89.957477	0.000689	6.892390	2.335205	-0.000276
1333	1.3253e+02	-13.0665	-90.187594	0.000578	5.777445	1.957451	-0.000231
1334	1.3263e+02	-13.1034	-90.441933	0.000639	6.385597	2.163499	-0.000256
1335	1.3273e+02	-13.1435	-90.700310	0.000649	6.486956	2.197840	-0.000260
1336	1.3283e+02	-13.1836	-90.986947	0.000720	7.196466	2.438229	-0.000288
1337	1.3293e+02	-13.2253	-91.221101	0.000588	5.878804	1.991793	-0.000235
1338	1.3303e+02	-13.2686	-91.483514	0.000659	6.588314	2.232181	-0.000264
1339	1.3313e+02	-13.3039	-91.758040	0.000689	6.892390	2.335205	-0.000276
1340	1.3323e+02	-13.3376	-91.992193	0.000588	5.878804	1.991793	-0.000235
1341	1.3333e+02	-13.3697	-92.246533	0.000639	6.385597	2.163499	-0.000256
1342	1.3343e+02	-13.4194	-92.565467	0.000801	8.007336	2.712959	-0.000321
1343	1.3353e+02	-13.4611	-92.795584	0.000578	5.777445	1.957451	-0.000231
1344	1.3363e+02	-13.5028	-93.037812	0.000608	6.081521	2.060475	-0.000243
1345	1.3373e+02	-13.5397	-93.320411	0.000710	7.095108	2.403888	-0.000284
1346	1.3383e+02	-13.5750	-93.574751	0.000639	6.385597	2.163499	-0.000256
1347	1.3393e+02	-13.6312	-93.776607	0.000507	5.067934	1.717063	-0.000203
1348	1.3403e+02	-13.6504	-94.067281	0.000730	7.297825	2.472570	-0.000292
1349	1.3413e+02	-13.6969	-94.285287	0.000547	5.473369	1.854428	-0.000219
1350	1.3423e+02	-13.7370	-94.543663	0.000649	6.486956	2.197840	-0.000260
1351	1.3432e+02	-13.7836	-94.834337	0.000730	7.297825	2.472570	-0.000292
1352	1.3442e+02	-13.8189	-95.048305	0.000537	5.372010	1.820086	-0.000215
1353	1.3452e+02	-13.8590	-95.274385	0.000568	5.676086	1.923110	-0.000227
1354	1.3462e+02	-13.8959	-95.569096	0.000740	7.399184	2.506911	-0.000296
1355	1.3472e+02	-13.9296	-95.811324	0.000608	6.081521	2.060475	-0.000243
1356	1.3482e+02	-13.9841	-96.033366	0.000557	5.574727	1.888769	-0.000223
1357	1.3492e+02	-14.0194	-96.307892	0.000689	6.892390	2.335205	-0.000276
1358	1.3502e+02	-14.0515	-96.578380	0.000679	6.791032	2.300864	-0.000272
1359	1.3512e+02	-14.0948	-96.860979	0.000710	7.095108	2.403888	-0.000284
1360	1.3522e+02	-14.1333	-97.095133	0.000588	5.878804	1.991793	-0.000235
1361	1.3532e+02	-14.1718	-97.345435	0.000628	6.284238	2.129158	-0.000252
1362	1.3542e+02	-14.2199	-97.595738	0.000628	6.284238	2.129158	-0.000252
1363	1.3552e+02	-14.2552	-97.858152	0.000659	6.588314	2.232181	-0.000264
1364	1.3562e+02	-14.2873	-98.108454	0.000628	6.284238	2.129158	-0.000252
1365	1.3572e+02	-14.3354	-98.362794	0.000639	6.385597	2.163499	-0.000256
1366	1.3582e+02	-14.3739	-98.605022	0.000608	6.081521	2.060475	-0.000243
1367	1.3592e+02	-14.4092	-98.863399	0.000649	6.486956	2.197840	-0.000260
1368	1.3602e+02	-14.4590	-99.077367	0.000537	5.372010	1.820086	-0.000215
1369	1.3612e+02	-14.5087	-99.311521	0.000588	5.878804	1.991793	-0.000235
1370	1.3622e+02	-14.5360	-99.549712	0.000598	5.980162	2.026134	-0.000239
1371	1.3631e+02	-14.5712	-99.787903	0.000598	5.980162	2.026134	-0.000239
1372	1.3641e+02	-14.6242	-100.066465	0.000699	6.993749	2.369546	-0.000280
1373	1.3651e+02	-14.6643	-100.292545	0.000568	5.676086	1.923110	-0.000227
1374	1.3661e+02	-14.6964	-100.554958	0.000659	6.588314	2.232181	-0.000264
1375	1.3671e+02	-14.7317	-100.821409	0.000669	6.689673	2.266523	-0.000268
1376	1.3681e+02	-14.7702	-101.108046	0.000720	7.196466	2.438229	-0.000288
1377	1.3691e+02	-14.8103	-101.342200	0.000588	5.878804	1.991793	-0.000235
1378	1.3701e+02	-14.8616	-101.576354	0.000588	5.878804	1.991793	-0.000235
1379	1.3711e+02	-14.8873	-101.838768	0.000659	6.588314	2.232181	-0.000264
1380	1.3721e+02	-14.9274	-102.101181	0.000659	6.588314	2.232181	-0.000264
1381	1.3731e+02	-14.9739	-102.359558	0.000649	6.486956	2.197840	-0.000260
1382	1.3741e+02	-15.0204	-102.585638	0.000568	5.676086	1.923110	-0.000227
1383	1.3751e+02	-15.0541	-102.827866	0.000608	6.081521	2.060475	-0.000243
1384	1.3761e+02	-15.0878	-103.078168	0.000628	6.284238	2.129158	-0.000252
1385	1.3771e+02	-15.1247	-103.340582	0.000659	6.588314	2.232181	-0.000264
1386	1.3781e+02	-15.1744	-103.578773	0.000598	5.980162	2.026134	-0.000239
1387	1.3791e+02	-15.2145	-103.788704	0.000527	5.270651	1.785745	-0.000211
1388	1.3801e+02	-15.2514	-104.010747	0.000557	5.574727	1.888769	-0.000223
1389	1.3811e+02	-15.2996	-104.273160	0.000659	6.588314	2.232181	-0.000264
1390	1.3821e+02	-15.3365	-104.555760	0.000710	7.095108	2.403888	-0.000284
1391	1.3831e+02	-15.3798	-104.757617	0.000507	5.067934	1.717063	-0.000203
1392	1.3840e+02	-15.4167	-105.112885	0.000892	8.919564	3.022030	-0.000357
1393	1.3850e+02	-15.4600	-105.298593	0.000466	4.662499	1.579698	-0.000187
1394	1.3860e+02	-15.4953	-105.532747	0.000588	5.878804	1.991793	-0.000235
1395	1.3870e+02	-15.5370	-105.847643	0.000791	7.905977	2.678618	-0.000316
1396	1.3880e+02	-15.5578	-106.065649	0.000547	5.473369	1.854428	-0.000219
1397	1.3890e+02	-15.6076	-106.299803	0.000588	5.878804	1.991793	-0.000235
1398	1.3900e+02	-15.6525	-106.542031	0.000608	6.081521	2.060475	-0.000243
1399	1.3910e+02	-15.7070	-106.788296	0.000618	6.182880	2.094816	-0.000248
1400	1.3920e+02	-15.7391	-107.078970	0.000730	7.297825	2.472570	-0.000292
1401	1.3930e+02	-15.7760	-107.325235	0.000618	6.182880	2.094816	-0.000248
1402	1.3940e+02	-15.8129	-107.543240	0.000547	5.473369	1.854428	-0.000219
1403	1.3950e+02	-15.8594	-107.769320	0.000568	5.676086	1.923110	-0.000227
1404	1.3960e+02	-15.8947	-107.995400	0.000568	5.676086	1.923110	-0.000227
1405	1.3970e+02	-15.9348	-108.245702	0.000628	6.284238	2.129158	-0.000252
1406	1.3980e+02	-15.9717	-108.475819	0.000578	5.777445	1.957451	-0.000231
1407	1.3990e+02	-16.0215	-108.726121	0.000628	6.284238	2.129158	-0.000252
1408	1.4000e+02	-16.0471	-109.024869	0.000750	7.500542	2.541253	-0.000300
1409	1.4010e+02	-16.0905	-109.283246	0.000649	6.486956	2.197840	-0.000260
1410	1.4020e+02	-16.1306	-109.537585	0.000639	6.385597	2.163499	-0.000256
1411	1.4029e+02	-16.1723	-109.812111	0.000689	6.892390	2.335205	-0.000276
1412	1.4039e+02	-16.2060	-110.062413	0.000628	6.284238	2.129158	-0.000252
1413	1.4049e+02	-16.2445	-110.296567	0.000588	5.878804	1.991793	-0.000235
1414	1.4059e+02	-16.2878	-110.510535	0.000537	5.372010	1.820086	-0.000215
1415	1.4069e+02	-16.3263	-110.768912	0.000649	6.486956	2.197840	-0.000260
1416	1.4079e+02	-16.3664	-111.083808	0.000791	7.905977	2.678618	-0.000316
1417	1.4089e+02	-16.4097	-111.265480	0.000456	4.561141	1.545356	-0.000183
1418	1.4099e+02	-16.4482	-111.556153	0.000730	7.297825	2.472570	-0.000292
1419	1.4109e+02	-16.4947	-111.790307	0.000588	5.878804	1.991793	-0.000235
1420	1.4119e+02	-16.5220	-112.044647	0.000639	6.385597	2.163499	-0.000256
1421	1.4129e+02	-16.5589	-112.230355	0.000466	4.662499	1.579698	-0.000187
1422	1.4139e+02	-16.6199	-112.508917	0.000699	6.993749	2.369546	-0.000280
1423	1.4149e+02	-16.6471	-112.751145	0.000608	6.081521	2.060475	-0.000243
1424	1.4159e+02	-16.6840	-113.009522	0.000649	6.486956	2.197840	-0.000260
1425	1.4169e+02	-16.7241	-113.259825	0.000628	6.284238	2.129158	-0.000252
1426	1.4179e+02	-16.7706	-113.558573	0.000750	7.500542	2.541253	-0.000300
1427	1.4189e+02	-16.8027	-113.841172	0.000710	7.095108	2.403888	-0.000284
1428	1.4199e+02	-16.8380	-114.038992	0.000497	4.966575	1.682721	-0.000199
1429	1.4209e+02	-16.8878	-114.293331	0.000639	6.385597	2.163499	-0.000256
1430	1.4219e+02	-16.9375	-114.543634	0.000628	6.284238	2.129158	-0.000252
1431	1.4228e+02	-16.9744	-114.797973	0.000639	6.385597	2.163499	-0.000256
1432	1.4238e+02	-17.0081	-115.056350	0.000649	6.486956	2.197840	-0.000260
1433	1.4248e+02	-17.0434	-115.298578	0.000608	6.081521	2.060475	-0.000243
1434	1.4258e+02	-17.0867	-115.593289	0.000740	7.399184	2.506911	-0.000296
1435	1.4268e+02	-17.1300	-115.835517	0.000608	6.081521	2.060475	-0.000243
1436	1.4278e+02	-17.1637	-116.093894	0.000649	6.486956	2.197840	-0.000260
1437	1.4288e+02	-17.2006	-116.332085	0.000598	5.980162	2.026134	-0.000239
1438	1.4298e+02	-17.2471	-116.622759	0.000730	7.297825	2.472570	-0.000292
1439	1.4308e+02	-17.2920	-116.824615	0.000507	5.067934	1.717063	-0.000203
1440	1.4318e+02	-17.3289	-117.115289	0.000730	7.297825	2.472570	-0.000292
1441	1.4328e+02	-17.3674	-117.410000	0.000740	7.399184	2.506911	-0.000296
1442	1.4338e+02	-17.4075	-117.628005	0.000547	5.473369	1.854428	-0.000219
1443	1.4348e+02	-17.4492	-117.902531	0.000689	6.892390	2.335205	-0.000276
1444	1.4358e+02	-17.4861	-118.205316	0.000760	7.601901	2.575594	-0.000304
1445	1.4368e+02	-17.5343	-118.447544	0.000608	6.081521	2.060475	-0.000243
1446	1.4378e+02	-17.5631	-118.697846	0.000628	6.284238	2.129158	-0.000252
1447	1.4388e+02	-17.6049	-119.004669	0.000770	7.703260	2.609935	-0.000308
1448	1.4398e+02	-17.6498	-119.275157	0.000679	6.791032	2.300864	-0.000272
1449	1.4408e+02	-17.6883	-119.517385	0.000608	6.081521	2.060475	-0.000243
1450	1.4418e+02	-17.7123	-119.804022	0.000720	7.196466	2.438229	-0.000288
1451	1.4428e+02	-17.7621	-120.082584	0.000699	6.993749	2.369546	-0.000280
1452	1.4437e+02	-17.8102	-120.296552	0.000537	5.372010	1.820086	-0.000215
1453	1.4447e+02	-17.8439	-120.607412	0.000780	7.804618	2.644276	-0.000312
1454	1.4457e+02	-17.8824	-120.894048	0.000720	7.196466	2.438229	-0.000288
1455	1.4467e+02	-17.9225	-121.180685	0.000720	7.196466	2.438229	-0.000288
1456	1.4477e+02	-17.9738	-121.414839	0.000588	5.878804	1.991793	-0.000235
1457	1.4487e+02	-17.9899	-121.705513	0.000730	7.297825	2.472570	-0.000292
1458	1.4497e+02	-18.0444	-121.988112	0.000710	7.095108	2.403888	-0.000284
1459	1.4507e+02	-18.0845	-122.206117	0.000547	5.473369	1.854428	-0.000219
1460	1.4517e+02	-18.1214	-122.508903	0.000760	7.601901	2.575594	-0.000304
1461	1.4527e+02	-18.1599	-122.759205	0.000628	6.284238	2.129158	-0.000252
1462	1.4537e+02	-18.1968	-123.086213	0.000821	8.210053	2.781641	-0.000329
1463	1.4547e+02	-18.2449	-123.328441	0.000608	6.081521	2.060475	-0.000243
1464	1.4557e+02	-18.2754	-123.627189	0.000750	7.500542	2.541253	-0.000300
1465	1.4567e+02	-18.3187	-123.909789	0.000710	7.095108	2.403888	-0.000284
1466	1.4577e+02	-18.3653	-124.192388	0.000710	7.095108	2.403888	-0.000284
1467	1.4587e+02	-18.4070	-124.462876	0.000679	6.791032	2.300864	-0.000272
1468	1.4597e+02	-18.4391	-124.769699	0.000770	7.703260	2.609935	-0.000308
1469	1.4607e+02	-18.4856	-125.048261	0.000699	6.993749	2.369546	-0.000280
1470	1.4617e+02	-18.5257	-125.371232	0.000811	8.108694	2.747300	-0.000325
1471	1.4626e+02	-18.5802	-125.629608	0.000649	6.486956	2.197840	-0.000260
1472	1.4636e+02	-18.6107	-125.928357	0.000750	7.500542	2.541253	-0.000300
1473	1.4646e+02	-18.6412	-126.263439	0.000841	8.412771	2.850324	-0.000337
1474	1.4656e+02	-18.6749	-126.485481	0.000557	5.574727	1.888769	-0.000223
1475	1.4666e+02	-18.7166	-126.816526	0.000831	8.311412	2.815983	-0.000333
1476	1.4676e+02	-18.7631	-127.111237	0.000740	7.399184	2.506911	-0.000296
1477	1.4686e+02	-18.7936	-127.377688	0.000669	6.689673	2.266523	-0.000268
1478	1.4696e+02	-18.8337	-127.720845	0.000862	8.615488	2.919006	-0.000345
1479	1.4706e+02	-18.8850	-128.039778	0.000801	8.007336	2.712959	-0.000321
1480	1.4716e+02	-18.9091	-128.314304	0.000689	6.892390	2.335205	-0.000276
1481	1.4726e+02	-18.9652	-128.592866	0.000699	6.993749	2.369546	-0.000280
1482	1.4736e+02	-18.9973	-128.911800	0.000801	8.007336	2.712959	-0.000321
1483	1.4746e+02	-19.0406	-129.198436	0.000720	7.196466	2.438229	-0.000288
1484	1.4756e+02	-19.0807	-129.521407	0.000811	8.108694	2.747300	-0.000325
1485	1.4766e+02	-19.1289	-129.840341	0.000801	8.007336	2.712959	-0.000321
1486	1.4776e+02	-19.1658	-130.102755	0.000659	6.588314	2.232181	-0.000264
1487	1.4786e+02	-19.1995	-130.441874	0.000851	8.514129	2.884665	-0.000341
1488	1.4796e+02	-19.2315	-130.764845	0.000811	8.108694	2.747300	-0.000325
1489	1.4806e+02	-19.2909	-131.019185	0.000639	6.385597	2.163499	-0.000256
1490	1.4816e+02	-19.3230	-131.350230	0.000831	8.311412	2.815983	-0.000333
1491	1.4825e+02	-19.3454	-131.673201	0.000811	8.108694	2.747300	-0.000325
1492	1.4835e+02	-19.4064	-132.036543	0.000912	9.122281	3.090713	-0.000365
1493	1.4845e+02	-19.4337	-132.315105	0.000699	6.993749	2.369546	-0.000280
1494	1.4855e+02	-19.4818	-132.678447	0.000912	9.122281	3.090713	-0.000365
1495	1.4865e+02	-19.5107	-132.985270	0.000770	7.703260	2.609935	-0.000308
1496	1.4875e+02	-19.5540	-133.308241	0.000811	8.108694	2.747300	-0.000325
1497	1.4885e+02	-19.6005	-133.615063	0.000770	7.703260	2.609935	-0.000308
1498	1.4895e+02	-19.6326	-134.010702	0.000993	9.933151	3.365443	-0.000398
1499	1.4905e+02	-19.6711	-134.317525	0.000770	7.703260	2.609935	-0.000308
1500	1.4915e+02	-19.7160	-134.632421	0.000791	7.905977	2.678618	-0.000316
1501	1.4925e+02	-19.7641	-134.963466	0.000831	8.311412	2.815983	-0.000333
1502	1.4935e+02	-19.7994	-135.294511	0.000831	8.311412	2.815983	-0.000333
1503	1.4945e+02	-19.8363	-135.665928	0.000932	9.324999	3.159395	-0.000373
1504	1.4955e+02	-19.8684	-136.021196	0.000892	8.919564	3.022030	-0.000357
1505	1.4965e+02	-19.9198	-136.392612	0.000932	9.324999	3.159395	-0.000373
1506	1.4975e+02	-19.9599	-136.759992	0.000922	9.223640	3.125054	-0.000369
1507	1.4985e+02	-19.9984	-137.107185	0.000872	8.716847	2.953348	-0.000349
1508	1.4995e+02	-19.9518	-137.107185	0.000000	0.000000	0.000000	0.000000
1509	1.5005e+02	-19.9037	-137.062777	0.000111	1.114945	0.377754	0.000045
1510	1.5015e+02	-19.8684	-136.998183	0.000162	1.621739	0.549460	0.000065
1511	1.5025e+02	-19.8315	-136.982034	0.000041	0.405435	0.137365	0.000016
1512	1.5034e+02	-19.7914	-136.917440	0.000162	1.621739	0.549460	0.000065
1513	1.5044e+02	-19.7625	-136.868994	0.000122	1.216304	0.412095	0.000049
1514	1.5054e+02	-19.7128	-136.804400	0.000162	1.621739	0.549460	0.000065
1515	1.5064e+02	-19.6743	-136.711546	0.000233	2.331250	0.789849	0.000093
1516	1.5074e+02	-19.6374	-136.590432	0.000304	3.040760	1.030238	0.000122
1517	1.5084e+02	-19.6117	-136.505652	0.000213	2.128532	0.721166	0.000085
1518	1.5094e+02	-19.5572	-136.469318	0.000091	0.912228	0.309071	0.000037
1519	1.5104e+02	-19.5155	-136.388575	0.000203	2.027174	0.686825	0.000081
1520	1.5114e+02	-19.4658	-136.279573	0.000274	2.736684	0.927214	0.000110
1521	1.5124e+02	-19.4369	-136.214978	0.000162	1.621739	0.549460	0.000065
1522	1.5134e+02	-19.4000	-136.114050	0.000253	2.533967	0.858531	0.000101
1523	1.5144e+02	-19.3551	-135.984862	0.000324	3.243478	1.098920	0.000130
1524	1.5154e+02	-19.3166	-135.871822	0.000284	2.838043	0.961555	0.000114
1525	1.5164e+02	-19.2797	-135.754745	0.000294	2.939402	0.995896	0.000118
1526	1.5174e+02	-19.2412	-135.649779	0.000264	2.635326	0.892873	0.000105
1527	1.5184e+02	-19.2043	-135.520591	0.000324	3.243478	1.098920	0.000130
1528	1.5194e+02	-19.1481	-135.375254	0.000365	3.648913	1.236285	0.000146
1529	1.5204e+02	-19.1128	-135.250103	0.000314	3.142119	1.064579	0.000126
1530	1.5214e+02	-19.0823	-135.104766	0.000365	3.648913	1.236285	0.000146
1531	1.5224e+02	-19.0406	-134.967503	0.000345	3.446195	1.167603	0.000138
1532	1.5233e+02	-18.9989	-134.866575	0.000253	2.533967	0.858531	0.000101
1533	1.5243e+02	-18.9604	-134.709127	0.000395	3.952989	1.339309	0.000158
1534	1.5253e+02	-18.9316	-134.543604	0.000416	4.155706	1.407991	0.000166
1535	1.5263e+02	-18.8722	-134.430564	0.000284	2.838043	0.961555	0.000114
1536	1.5273e+02	-18.8449	-134.281190	0.000375	3.750271	1.270626	0.000150
1537	1.5283e+02	-18.7968	-134.095482	0.000466	4.662499	1.579698	0.000187
1538	1.5293e+02	-18.7615	-133.990517	0.000264	2.635326	0.892873	0.000105
1539	1.5303e+02	-18.7262	-133.804808	0.000466	4.662499	1.579698	0.000187
1540	1.5313e+02	-18.6765	-133.663509	0.000355	3.547554	1.201944	0.000142
1541	1.5323e+02	-18.6396	-133.530283	0.000334	3.344836	1.133261	0.000134
1542	1.5333e+02	-18.6027	-133.332463	0.000497	4.966575	1.682721	0.000199
1543	1.5343e+02	-18.5626	-133.187127	0.000365	3.648913	1.236285	0.000146
1544	1.5353e+02	-18.5193	-133.074087	0.000284	2.838043	0.961555	0.000114
1545	1.5363e+02	-18.4824	-132.872230	0.000507	5.067934	1.717063	0.000203
1546	1.5373e+02	-18.4391	-132.718819	0.000385	3.851630	1.304968	0.000154
1547	1.5383e+02	-18.3957	-132.565408	0.000385	3.851630	1.304968	0.000154
1548	1.5393e+02	-18.3604	-132.371625	0.000487	4.865217	1.648380	0.000195
1549	1.5403e+02	-18.3171	-132.165731	0.000517	5.169293	1.751404	0.000207
1550	1.5413e+02	-18.2834	-132.068840	0.000243	2.432608	0.824190	0.000097
1551	1.5422e+02	-18.2433	-131.822575	0.000618	6.182880	2.094816	0.000248
1552	1.5432e+02	-18.2064	-131.713572	0.000274	2.736684	0.927214	0.000110
1553	1.5442e+02	-18.1663	-131.548049	0.000416	4.155706	1.407991	0.000166
1554	1.5452e+02	-18.1326	-131.301784	0.000618	6.182880	2.094816	0.000248
1555	1.5462e+02	-18.0829	-131.204893	0.000243	2.432608	0.824190	0.000097
1556	1.5472e+02	-18.0476	-130.962665	0.000608	6.081521	2.060475	0.000243
1557	1.5482e+02	-18.0011	-130.797142	0.000416	4.155706	1.407991	0.000166
1558	1.5492e+02	-17.9642	-130.655842	0.000355	3.547554	1.201944	0.000142
1559	1.5502e+02	-17.9289	-130.470134	0.000466	4.662499	1.579698	0.000187
1560	1.5512e+02	-17.8856	-130.280389	0.000476	4.763858	1.614039	0.000191
1561	1.5522e+02	-17.8455	-130.110829	0.000426	4.257065	1.442333	0.000170
1562	1.5532e+02	-17.8070	-129.985678	0.000314	3.142119	1.064579	0.000126
1563	1.5542e+02	-17.7621	-129.795933	0.000476	4.763858	1.614039	0.000191
1564	1.5552e+02	-17.7204	-129.606187	0.000476	4.763858	1.614039	0.000191
1565	1.5562e+02	-17.6786	-129.400293	0.000517	5.169293	1.751404	0.000207
1566	1.5572e+02	-17.6466	-129.214585	0.000466	4.662499	1.579698	0.000187
1567	1.5582e+02	-17.6032	-129.028877	0.000466	4.662499	1.579698	0.000187
1568	1.5592e+02	-17.5599	-128.863354	0.000416	4.155706	1.407991	0.000166
1569	1.5602e+02	-17.5311	-128.641312	0.000557	5.574727	1.888769	0.000223
1570	1.5612e+02	-17.4926	-128.451566	0.000476	4.763858	1.614039	0.000191
1571	1.5622e+02	-17.4396	-128.302192	0.000375	3.750271	1.270626	0.000150
1572	1.5631e+02	-17.4107	-128.072076	0.000578	5.777445	1.957451	0.000231
1573	1.5641e+02	-17.3706	-127.910590	0.000405	4.054347	1.373650	0.000162
1574	1.5651e+02	-17.3305	-127.684511	0.000568	5.676086	1.923110	0.000227
1575	1.5661e+02	-17.2920	-127.535137	0.000375	3.750271	1.270626	0.000150
1576	1.5671e+02	-17.2439	-127.337317	0.000497	4.966575	1.682721	0.000199
1577	1.5681e+02	-17.2054	-127.155646	0.000456	4.561141	1.545356	0.000183
1578	1.5691e+02	-17.1669	-127.022420	0.000334	3.344836	1.133261	0.000134
1579	1.5701e+02	-17.1284	-126.816526	0.000517	5.169293	1.751404	0.000207
1580	1.5711e+02	-17.0899	-126.663115	0.000385	3.851630	1.304968	0.000154
1581	1.5721e+02	-17.0514	-126.453184	0.000527	5.270651	1.785745	0.000211
1582	1.5731e+02	-16.9985	-126.235179	0.000547	5.473369	1.854428	0.000219
1583	1.5741e+02	-16.9664	-126.013136	0.000557	5.574727	1.888769	0.000223
1584	1.5751e+02	-16.9214	-125.855688	0.000395	3.952989	1.339309	0.000158
1585	1.5761e+02	-16.8942	-125.625571	0.000578	5.777445	1.957451	0.000231
1586	1.5771e+02	-16.8573	-125.431789	0.000487	4.865217	1.648380	0.000195
1587	1.5781e+02	-16.8108	-125.274341	0.000395	3.952989	1.339309	0.000158
1588	1.5791e+02	-16.7739	-125.044224	0.000578	5.777445	1.957451	0.000231
1589	1.5801e+02	-16.7257	-124.882738	0.000405	4.054347	1.373650	0.000162
1590	1.5811e+02	-16.6920	-124.648584	0.000588	5.878804	1.991793	0.000235
1591	1.5821e+02	-16.6535	-124.483062	0.000416	4.155706	1.407991	0.000166
1592	1.5830e+02	-16.6006	-124.297354	0.000466	4.662499	1.579698	0.000187
1593	1.5840e+02	-16.5685	-124.091460	0.000517	5.169293	1.751404	0.000207
1594	1.5850e+02	-16.5364	-123.909789	0.000456	4.561141	1.545356	0.000183
1595	1.5860e+02	-16.4915	-123.744266	0.000416	4.155706	1.407991	0.000166
1596	1.5870e+02	-16.4482	-123.542409	0.000507	5.067934	1.717063	0.000203
1597	1.5880e+02	-16.4129	-123.288070	0.000639	6.385597	2.163499	0.000256
1598	1.5890e+02	-16.3680	-123.074102	0.000537	5.372010	1.820086	0.000215
1599	1.5900e+02	-16.3247	-122.932802	0.000355	3.547554	1.201944	0.000142
1600	1.5910e+02	-16.2958	-122.714796	0.000547	5.473369	1.854428	0.000219
1601	1.5920e+02	-16.2477	-122.492754	0.000557	5.574727	1.888769	0.000223
1602	1.5930e+02	-16.2140	-122.294934	0.000497	4.966575	1.682721	0.000199
1603	1.5940e+02	-16.1675	-122.105189	0.000476	4.763858	1.614039	0.000191
1604	1.5950e+02	-16.1370	-121.919481	0.000466	4.662499	1.579698	0.000187
1605	1.5960e+02	-16.0872	-121.709550	0.000527	5.270651	1.785745	0.000211
1606	1.5970e+02	-16.0536	-121.511730	0.000497	4.966575	1.682721	0.000199
1607	1.5980e+02	-16.0135	-121.257390	0.000639	6.385597	2.163499	0.000256
1608	1.5990e+02	-15.9701	-121.067645	0.000476	4.763858	1.614039	0.000191
1609	1.6000e+02	-15.9252	-120.938457	0.000324	3.243478	1.098920	0.000130
1610	1.6010e+02	-15.8979	-120.720451	0.000547	5.473369	1.854428	0.000219
1611	1.6019e+02	-15.8482	-120.554929	0.000416	4.155706	1.407991	0.000166
1612	1.6029e+02	-15.8001	-120.300589	0.000639	6.385597	2.163499	0.000256
1613	1.6039e+02	-15.7696	-120.126992	0.000436	4.358423	1.476674	0.000174
1614	1.6049e+02	-15.7295	-119.904950	0.000557	5.574727	1.888769	0.000223
1615	1.6059e+02	-15.6846	-119.727316	0.000446	4.459782	1.511015	0.000179
1616	1.6069e+02	-15.6525	-119.521422	0.000517	5.169293	1.751404	0.000207
1617	1.6079e+02	-15.6108	-119.376085	0.000365	3.648913	1.236285	0.000146
1618	1.6089e+02	-15.5755	-119.113671	0.000659	6.588314	2.232181	0.000264
1619	1.6099e+02	-15.5370	-118.903740	0.000527	5.270651	1.785745	0.000211
1620	1.6109e+02	-15.4953	-118.701884	0.000507	5.067934	1.717063	0.000203
1621	1.6119e+02	-15.4439	-118.427358	0.000689	6.892390	2.335205	0.000276
1622	1.6129e+02	-15.4215	-118.233576	0.000487	4.865217	1.648380	0.000195
1623	1.6139e+02	-15.3718	-118.076127	0.000395	3.952989	1.339309	0.000158
1624	1.6149e+02	-15.3284	-117.858122	0.000547	5.473369	1.854428	0.000219
1625	1.6159e+02	-15.2996	-117.648191	0.000527	5.270651	1.785745	0.000211
1626	1.6169e+02	-15.2563	-117.442297	0.000517	5.169293	1.751404	0.000207
1627	1.6179e+02	-15.2113	-117.256589	0.000466	4.662499	1.579698	0.000187
1628	1.6189e+02	-15.1776	-117.018398	0.000598	5.980162	2.026134	0.000239
1629	1.6199e+02	-15.1391	-116.889210	0.000324	3.243478	1.098920	0.000130
1630	1.6209e+02	-15.0974	-116.651019	0.000598	5.980162	2.026134	0.000239
1631	1.6219e+02	-15.0525	-116.441088	0.000527	5.270651	1.785745	0.000211
1632	1.6228e+02	-15.0140	-116.235194	0.000517	5.169293	1.751404	0.000207
1633	1.6238e+02	-14.9835	-116.061597	0.000436	4.358423	1.476674	0.000174
1634	1.6248e+02	-14.9322	-115.803220	0.000649	6.486956	2.197840	0.000260
1635	1.6258e+02	-14.8953	-115.613475	0.000476	4.763858	1.614039	0.000191
1636	1.6268e+02	-14.8552	-115.435841	0.000446	4.459782	1.511015	0.000179
1637	1.6278e+02	-14.8183	-115.129018	0.000770	7.703260	2.609935	0.000308
1638	1.6288e+02	-14.7750	-114.890827	0.000598	5.980162	2.026134	0.000239
1639	1.6298e+02	-14.7413	-114.693008	0.000497	4.966575	1.682721	0.000199
1640	1.6308e+02	-14.6948	-114.499225	0.000487	4.865217	1.648380	0.000195
1641	1.6318e+02	-14.6563	-114.273146	0.000568	5.676086	1.923110	0.000227
1642	1.6328e+02	-14.6210	-114.075326	0.000497	4.966575	1.682721	0.000199
1643	1.6338e+02	-14.5712	-113.869432	0.000517	5.169293	1.751404	0.000207
1644	1.6348e+02	-14.5376	-113.651427	0.000547	5.473369	1.854428	0.000219
1645	1.6358e+02	-14.4975	-113.473793	0.000446	4.459782	1.511015	0.000179
1646	1.6368e+02	-14.4573	-113.271936	0.000507	5.067934	1.717063	0.000203
1647	1.6378e+02	-14.4237	-113.041819	0.000578	5.777445	1.957451	0.000231
1648	1.6388e+02	-14.3755	-112.864185	0.000446	4.459782	1.511015	0.000179
1649	1.6398e+02	-14.3402	-112.686551	0.000446	4.459782	1.511015	0.000179
1650	1.6408e+02	-14.2985	-112.420100	0.000669	6.689673	2.266523	0.000268
1651	1.6418e+02	-14.2504	-112.206132	0.000537	5.372010	1.820086	0.000215
1652	1.6427e+02	-14.2167	-111.967941	0.000598	5.980162	2.026134	0.000239
1653	1.6437e+02	-14.1798	-111.778196	0.000476	4.763858	1.614039	0.000191
1654	1.6447e+02	-14.1333	-111.580376	0.000497	4.966575	1.682721	0.000199
1655	1.6457e+02	-14.1092	-111.342185	0.000598	5.980162	2.026134	0.000239
1656	1.6467e+02	-14.0451	-111.140328	0.000507	5.067934	1.717063	0.000203
1657	1.6477e+02	-14.0242	-110.833506	0.000770	7.703260	2.609935	0.000308
1658	1.6487e+02	-13.9857	-110.643761	0.000476	4.763858	1.614039	0.000191
1659	1.6497e+02	-13.9440	-110.437867	0.000517	5.169293	1.751404	0.000207
1660	1.6507e+02	-13.8959	-110.167379	0.000679	6.791032	2.300864	0.000272
1661	1.6517e+02	-13.8542	-109.965522	0.000507	5.067934	1.717063	0.000203
1662	1.6527e+02	-13.8189	-109.779814	0.000466	4.662499	1.579698	0.000187
1663	1.6537e+02	-13.7804	-109.549697	0.000578	5.777445	1.957451	0.000231
1664	1.6547e+02	-13.7338	-109.323617	0.000568	5.676086	1.923110	0.000227
1665	1.6557e+02	-13.7018	-109.154058	0.000426	4.257065	1.442333	0.000170
1666	1.6567e+02	-13.6633	-108.911829	0.000608	6.081521	2.060475	0.000243
1667	1.6577e+02	-13.6183	-108.693824	0.000547	5.473369	1.854428	0.000219
1668	1.6587e+02	-13.5766	-108.459670	0.000588	5.878804	1.991793	0.000235
1669	1.6597e+02	-13.5413	-108.265888	0.000487	4.865217	1.648380	0.000195
1670	1.6607e+02	-13.4980	-108.007511	0.000649	6.486956	2.197840	0.000260
1671	1.6616e+02	-13.4611	-107.797580	0.000527	5.270651	1.785745	0.000211
1672	1.6626e+02	-13.4274	-107.611872	0.000466	4.662499	1.579698	0.000187
1673	1.6636e+02	-13.3889	-107.337346	0.000689	6.892390	2.335205	0.000276
1674	1.6646e+02	-13.3408	-107.078970	0.000649	6.486956	2.197840	0.000260
1675	1.6656e+02	-13.3039	-106.901336	0.000446	4.459782	1.511015	0.000179
1676	1.6666e+02	-13.2622	-106.642959	0.000649	6.486956	2.197840	0.000260
1677	1.6676e+02	-13.2253	-106.396694	0.000618	6.182880	2.094816	0.000248
1678	1.6686e+02	-13.1868	-106.150429	0.000618	6.182880	2.094816	0.000248
1679	1.6696e+02	-13.1371	-105.976832	0.000436	4.358423	1.476674	0.000174
1680	1.6706e+02	-13.1018	-105.770938	0.000517	5.169293	1.751404	0.000207
1681	1.6716e+02	-13.0569	-105.504487	0.000669	6.689673	2.266523	0.000268
1682	1.6726e+02	-13.0200	-105.298593	0.000517	5.169293	1.751404	0.000207
1683	1.6736e+02	-12.9798	-105.104810	0.000487	4.865217	1.648380	0.000195
1684	1.6746e+02	-12.9365	-104.911028	0.000487	4.865217	1.648380	0.000195
1685	1.6756e+02	-12.9061	-104.684948	0.000568	5.676086	1.923110	0.000227
1686	1.6766e+02	-12.8595	-104.382163	0.000760	7.601901	2.575594	0.000304
1687	1.6776e+02	-12.8194	-104.212603	0.000426	4.257065	1.442333	0.000170
1688	1.6786e+02	-12.7873	-103.982487	0.000578	5.777445	1.957451	0.000231
1689	1.6796e+02	-12.7520	-103.716036	0.000669	6.689673	2.266523	0.000268
1690	1.6806e+02	-12.7119	-103.477845	0.000598	5.980162	2.026134	0.000239
1691	1.6816e+02	-12.6654	-103.247728	0.000578	5.777445	1.957451	0.000231
1692	1.6825e+02	-12.6253	-102.993388	0.000639	6.385597	2.163499	0.000256
1693	1.6835e+02	-12.5900	-102.779420	0.000537	5.372010	1.820086	0.000215
1694	1.6845e+02	-12.5483	-102.525081	0.000639	6.385597	2.163499	0.000256
1695	1.6855e+02	-12.5050	-102.303038	0.000557	5.574727	1.888769	0.000223
1696	1.6865e+02	-12.4617	-102.089070	0.000537	5.372010	1.820086	0.000215
1697	1.6875e+02	-12.4232	-101.879139	0.000527	5.270651	1.785745	0.000211
1698	1.6885e+02	-12.3879	-101.657096	0.000557	5.574727	1.888769	0.000223
1699	1.6895e+02	-12.3494	-101.435054	0.000557	5.574727	1.888769	0.000223
1700	1.6905e+02	-12.3013	-101.164566	0.000679	6.791032	2.300864	0.000272
1701	1.6915e+02	-12.2547	-100.946561	0.000547	5.473369	1.854428	0.000219
1702	1.6925e+02	-12.2355	-100.728555	0.000547	5.473369	1.854428	0.000219
1703	1.6935e+02	-12.1874	-100.478253	0.000628	6.284238	2.129158	0.000252
1704	1.6945e+02	-12.1473	-100.264285	0.000537	5.372010	1.820086	0.000215
1705	1.6955e+02	-12.1104	-100.018019	0.000618	6.182880	2.094816	0.000248
1706	1.6965e+02	-12.0719	-99.779828	0.000598	5.980162	2.026134	0.000239
1707	1.6975e+02	-12.0237	-99.541637	0.000598	5.980162	2.026134	0.000239
1708	1.6985e+02	-11.9804	-99.283261	0.000649	6.486956	2.197840	0.000260
1709	1.6995e+02	-11.9547	-99.053144	0.000578	5.777445	1.957451	0.000231
1710	1.7005e+02	-11.9082	-98.786693	0.000669	6.689673	2.266523	0.000268
1711	1.7015e+02	-11.8665	-98.544465	0.000608	6.081521	2.060475	0.000243
1712	1.7024e+02	-11.8280	-98.306274	0.000598	5.980162	2.026134	0.000239
1713	1.7034e+02	-11.7815	-98.100380	0.000517	5.169293	1.751404	0.000207
1714	1.7044e+02	-11.7414	-97.842003	0.000649	6.486956	2.197840	0.000260
1715	1.7054e+02	-11.7093	-97.708778	0.000334	3.344836	1.133261	0.000134
1716	1.7064e+02	-11.6644	-97.414067	0.000740	7.399184	2.506911	0.000296
1717	1.7074e+02	-11.6291	-97.220284	0.000487	4.865217	1.648380	0.000195
1718	1.7084e+02	-11.5938	-96.925573	0.000740	7.399184	2.506911	0.000296
1719	1.7094e+02	-11.5441	-96.695457	0.000578	5.777445	1.957451	0.000231
1720	1.7104e+02	-11.5136	-96.473414	0.000557	5.574727	1.888769	0.000223
1721	1.7114e+02	-11.4687	-96.271557	0.000507	5.067934	1.717063	0.000203
1722	1.7124e+02	-11.4350	-95.984921	0.000720	7.196466	2.438229	0.000288
1723	1.7134e+02	-11.3884	-95.783064	0.000507	5.067934	1.717063	0.000203
1724	1.7144e+02	-11.3564	-95.496427	0.000720	7.196466	2.438229	0.000288
1725	1.7154e+02	-11.3163	-95.229976	0.000669	6.689673	2.266523	0.000268
1726	1.7164e+02	-11.2697	-95.007934	0.000557	5.574727	1.888769	0.000223
1727	1.7174e+02	-11.2393	-94.753594	0.000639	6.385597	2.163499	0.000256
1728	1.7184e+02	-11.1863	-94.507329	0.000618	6.182880	2.094816	0.000248
1729	1.7194e+02	-11.1590	-94.293361	0.000537	5.372010	1.820086	0.000215
1730	1.7204e+02	-11.1061	-94.034984	0.000649	6.486956	2.197840	0.000260
1731	1.7213e+02	-11.0740	-93.881573	0.000385	3.851630	1.304968	0.000154
1732	1.7223e+02	-11.0259	-93.655493	0.000568	5.676086	1.923110	0.000227
1733	1.7233e+02	-10.9874	-93.389042	0.000669	6.689673	2.266523	0.000268
1734	1.7243e+02	-10.9521	-93.106443	0.000710	7.095108	2.403888	0.000284
1735	1.7253e+02	-10.9104	-92.896512	0.000527	5.270651	1.785745	0.000211
1736	1.7263e+02	-10.8735	-92.682544	0.000537	5.372010	1.820086	0.000215
1737	1.7273e+02	-10.8334	-92.436278	0.000618	6.182880	2.094816	0.000248
1738	1.7283e+02	-10.7933	-92.181939	0.000639	6.385597	2.163499	0.000256
1739	1.7293e+02	-10.7516	-91.927599	0.000639	6.385597	2.163499	0.000256
1740	1.7303e+02	-10.7131	-91.673260	0.000639	6.385597	2.163499	0.000256
1741	1.7313e+02	-10.6778	-91.374512	0.000750	7.500542	2.541253	0.000300
1742	1.7323e+02	-10.6409	-91.192841	0.000456	4.561141	1.545356	0.000183
1743	1.7333e+02	-10.5992	-90.914278	0.000699	6.993749	2.369546	0.000280
1744	1.7343e+02	-10.5607	-90.627642	0.000720	7.196466	2.438229	0.000288
1745	1.7353e+02	-10.5222	-90.413673	0.000537	5.372010	1.820086	0.000215
1746	1.7363e+02	-10.4853	-90.236039	0.000446	4.459782	1.511015	0.000179
1747	1.7373e+02	-10.4259	-89.969588	0.000669	6.689673	2.266523	0.000268
1748	1.7383e+02	-10.3874	-89.812140	0.000395	3.952989	1.339309	0.000158
1749	1.7393e+02	-10.3409	-89.493206	0.000801	8.007336	2.712959	0.000321
1750	1.7403e+02	-10.3216	-89.319610	0.000436	4.358423	1.476674	0.000174
1751	1.7413e+02	-10.2687	-89.041047	0.000699	6.993749	2.369546	0.000280
1752	1.7422e+02	-10.2350	-88.794782	0.000618	6.182880	2.094816	0.000248
1753	1.7432e+02	-10.1981	-88.556591	0.000598	5.980162	2.026134	0.000239
1754	1.7442e+02	-10.1628	-88.290140	0.000669	6.689673	2.266523	0.000268
1755	1.7452e+02	-10.1227	-88.108469	0.000456	4.561141	1.545356	0.000183
1756	1.7462e+02	-10.0810	-87.753201	0.000892	8.919564	3.022030	0.000357
1757	1.7472e+02	-10.0329	-87.535196	0.000547	5.473369	1.854428	0.000219
1758	1.7482e+02	-9.9992	-87.268745	0.000669	6.689673	2.266523	0.000268
1759	1.7492e+02	-9.9511	-87.070925	0.000497	4.966575	1.682721	0.000199
1760	1.7502e+02	-9.9174	-86.764103	0.000770	7.703260	2.609935	0.000308
1761	1.7512e+02	-9.8789	-86.574357	0.000476	4.763858	1.614039	0.000191
1762	1.7522e+02	-9.8388	-86.311944	0.000659	6.588314	2.232181	0.000264
1763	1.7532e+02	-9.8003	-86.089901	0.000557	5.574727	1.888769	0.000223
1764	1.7542e+02	-9.7441	-85.847673	0.000608	6.081521	2.060475	0.000243
1765	1.7552e+02	-9.7168	-85.625630	0.000557	5.574727	1.888769	0.000223
1766	1.7562e+02	-9.6751	-85.359179	0.000669	6.689673	2.266523	0.000268
1767	1.7572e+02	-9.6463	-85.149248	0.000527	5.270651	1.785745	0.000211
1768	1.7582e+02	-9.5981	-84.902983	0.000618	6.182880	2.094816	0.000248
1769	1.7592e+02	-9.5580	-84.628458	0.000689	6.892390	2.335205	0.000276
1770	1.7602e+02	-9.5163	-84.430638	0.000497	4.966575	1.682721	0.000199
1771	1.7612e+02	-9.4778	-84.168224	0.000659	6.588314	2.232181	0.000264
1772	1.7621e+02	-9.4409	-83.873514	0.000740	7.399184	2.506911	0.000296
1773	1.7631e+02	-9.3992	-83.659545	0.000537	5.372010	1.820086	0.000215
1774	1.7641e+02	-9.3527	-83.332537	0.000821	8.210053	2.781641	0.000329
1775	1.7651e+02	-9.3222	-83.122606	0.000527	5.270651	1.785745	0.000211
1776	1.7661e+02	-9.2773	-82.900564	0.000557	5.574727	1.888769	0.000223
1777	1.7671e+02	-9.2404	-82.634113	0.000669	6.689673	2.266523	0.000268
1778	1.7681e+02	-9.1923	-82.379773	0.000639	6.385597	2.163499	0.000256
1779	1.7691e+02	-9.1634	-82.165805	0.000537	5.372010	1.820086	0.000215
1780	1.7701e+02	-9.1120	-81.887243	0.000699	6.993749	2.369546	0.000280
1781	1.7711e+02	-9.0816	-81.697497	0.000476	4.763858	1.614039	0.000191
1782	1.7721e+02	-9.0495	-81.443158	0.000639	6.385597	2.163499	0.000256
1783	1.7731e+02	-9.0078	-81.184781	0.000649	6.486956	2.197840	0.000260
1784	1.7741e+02	-8.9500	-80.970813	0.000537	5.372010	1.820086	0.000215
1785	1.7751e+02	-8.9211	-80.668028	0.000760	7.601901	2.575594	0.000304
1786	1.7761e+02	-8.8810	-80.474245	0.000487	4.865217	1.648380	0.000195
1787	1.7771e+02	-8.8441	-80.179534	0.000740	7.399184	2.506911	0.000296
1788	1.7781e+02	-8.8040	-79.953455	0.000568	5.676086	1.923110	0.000227
1789	1.7791e+02	-8.7559	-79.630484	0.000811	8.108694	2.747300	0.000325
1790	1.7801e+02	-8.7286	-79.384219	0.000618	6.182880	2.094816	0.000248
1791	1.7810e+02	-8.6821	-79.154102	0.000578	5.777445	1.957451	0.000231
1792	1.7820e+02	-8.6420	-78.903799	0.000628	6.284238	2.129158	0.000252
1793	1.7830e+02	-8.6003	-78.677720	0.000568	5.676086	1.923110	0.000227
1794	1.7840e+02	-8.5698	-78.403195	0.000689	6.892390	2.335205	0.000276
1795	1.7850e+02	-8.5169	-78.152892	0.000628	6.284238	2.129158	0.000252
1796	1.7860e+02	-8.4736	-77.898553	0.000639	6.385597	2.163499	0.000256
1797	1.7870e+02	-8.4495	-77.676510	0.000557	5.574727	1.888769	0.000223
1798	1.7880e+02	-8.4078	-77.406022	0.000679	6.791032	2.300864	0.000272
1799	1.7890e+02	-8.3516	-77.208202	0.000497	4.966575	1.682721	0.000199
1800	1.7900e+02	-8.3115	-76.933677	0.000689	6.892390	2.335205	0.000276
1801	1.7910e+02	-8.2810	-76.695486	0.000598	5.980162	2.026134	0.000239
1802	1.7920e+02	-8.2393	-76.461332	0.000588	5.878804	1.991793	0.000235
1803	1.7930e+02	-8.2040	-76.186807	0.000689	6.892390	2.335205	0.000276
1804	1.7940e+02	-8.1591	-75.892096	0.000740	7.399184	2.506911	0.000296
1805	1.7950e+02	-8.1206	-75.657942	0.000588	5.878804	1.991793	0.000235
1806	1.7960e+02	-8.0853	-75.383417	0.000689	6.892390	2.335205	0.000276
1807	1.7970e+02	-8.0452	-75.121003	0.000659	6.588314	2.232181	0.000264
1808	1.7980e+02	-8.0067	-74.866664	0.000639	6.385597	2.163499	0.000256
1809	1.7990e+02	-7.9618	-74.584064	0.000710	7.095108	2.403888	0.000284
1810	1.8000e+02	-7.9249	-74.341836	0.000608	6.081521	2.060475	0.000243
1811	1.8009e+02	-7.8832	-74.055199	0.000720	7.196466	2.438229	0.000288
1812	1.8019e+02	-7.8463	-73.841231	0.000537	5.372010	1.820086	0.000215
1813	1.8029e+02	-7.8126	-73.599003	0.000608	6.081521	2.060475	0.000243
1814	1.8039e+02	-7.7613	-73.344664	0.000639	6.385597	2.163499	0.000256
1815	1.8049e+02	-7.7164	-73.114547	0.000578	5.777445	1.957451	0.000231
1816	1.8059e+02	-7.6811	-72.868282	0.000618	6.182880	2.094816	0.000248
1817	1.8069e+02	-7.6522	-72.605868	0.000659	6.588314	2.232181	0.000264
1818	1.8079e+02	-7.6121	-72.331342	0.000689	6.892390	2.335205	0.000276
1819	1.8089e+02	-7.5720	-72.089114	0.000608	6.081521	2.060475	0.000243
1820	1.8099e+02	-7.5335	-71.814589	0.000689	6.892390	2.335205	0.000276
1821	1.8109e+02	-7.4821	-71.548138	0.000669	6.689673	2.266523	0.000268
1822	1.8119e+02	-7.4485	-71.261501	0.000720	7.196466	2.438229	0.000288
1823	1.8129e+02	-7.4051	-70.999088	0.000659	6.588314	2.232181	0.000264
1824	1.8139e+02	-7.3618	-70.700340	0.000750	7.500542	2.541253	0.000300
1825	1.8149e+02	-7.3265	-70.454074	0.000618	6.182880	2.094816	0.000248
1826	1.8159e+02	-7.2944	-70.163401	0.000730	7.297825	2.472570	0.000292
1827	1.8169e+02	-7.2495	-69.921172	0.000608	6.081521	2.060475	0.000243
1828	1.8179e+02	-7.2030	-69.658759	0.000659	6.588314	2.232181	0.000264
1829	1.8189e+02	-7.1741	-69.428642	0.000578	5.777445	1.957451	0.000231
1830	1.8199e+02	-7.1260	-69.113745	0.000791	7.905977	2.678618	0.000316
1831	1.8209e+02	-7.0859	-68.883629	0.000578	5.777445	1.957451	0.000231
1832	1.8218e+02	-7.0506	-68.633326	0.000628	6.284238	2.129158	0.000252
1833	1.8228e+02	-7.0089	-68.403209	0.000578	5.777445	1.957451	0.000231
1834	1.8238e+02	-6.9672	-68.136758	0.000669	6.689673	2.266523	0.000268
1835	1.8248e+02	-6.9126	-67.846085	0.000730	7.297825	2.472570	0.000292
1836	1.8258e+02	-6.8902	-67.591745	0.000639	6.385597	2.163499	0.000256
1837	1.8268e+02	-6.8437	-67.325294	0.000669	6.689673	2.266523	0.000268
1838	1.8278e+02	-6.8068	-67.050769	0.000689	6.892390	2.335205	0.000276
1839	1.8288e+02	-6.7667	-66.820652	0.000578	5.777445	1.957451	0.000231
1840	1.8298e+02	-6.7298	-66.497681	0.000811	8.108694	2.747300	0.000325
1841	1.8308e+02	-6.6880	-66.263527	0.000588	5.878804	1.991793	0.000235
1842	1.8318e+02	-6.6560	-65.936519	0.000821	8.210053	2.781641	0.000329
1843	1.8328e+02	-6.6110	-65.694291	0.000608	6.081521	2.060475	0.000243
1844	1.8338e+02	-6.5758	-65.419766	0.000689	6.892390	2.335205	0.000276
1845	1.8348e+02	-6.5196	-65.121018	0.000750	7.500542	2.541253	0.000300
1846	1.8358e+02	-6.4891	-64.882827	0.000598	5.980162	2.026134	0.000239
1847	1.8368e+02	-6.4362	-64.624450	0.000649	6.486956	2.197840	0.000260
1848	1.8378e+02	-6.4153	-64.382222	0.000608	6.081521	2.060475	0.000243
1849	1.8388e+02	-6.3704	-64.135957	0.000618	6.182880	2.094816	0.000248
1850	1.8398e+02	-6.3255	-63.849320	0.000720	7.196466	2.438229	0.000288
1851	1.8407e+02	-6.2886	-63.631315	0.000547	5.473369	1.854428	0.000219
1852	1.8417e+02	-6.2533	-63.344678	0.000720	7.196466	2.438229	0.000288
1853	1.8427e+02	-6.2164	-63.070153	0.000689	6.892390	2.335205	0.000276
1854	1.8437e+02	-6.1747	-62.787554	0.000710	7.095108	2.403888	0.000284
1855	1.8447e+02	-6.1314	-62.557437	0.000578	5.777445	1.957451	0.000231
1856	1.8457e+02	-6.0961	-62.262726	0.000740	7.399184	2.506911	0.000296
1857	1.8467e+02	-6.0512	-61.980126	0.000710	7.095108	2.403888	0.000284
1858	1.8477e+02	-6.0271	-61.725787	0.000639	6.385597	2.163499	0.000256
1859	1.8487e+02	-5.9726	-61.447225	0.000699	6.993749	2.369546	0.000280
1860	1.8497e+02	-5.9405	-61.148476	0.000750	7.500542	2.541253	0.000300
1861	1.8507e+02	-5.8907	-60.849728	0.000750	7.500542	2.541253	0.000300
1862	1.8517e+02	-5.8506	-60.550980	0.000750	7.500542	2.541253	0.000300
1863	1.8527e+02	-5.8089	-60.320864	0.000578	5.777445	1.957451	0.000231
1864	1.8537e+02	-5.7801	-60.054413	0.000669	6.689673	2.266523	0.000268
1865	1.8547e+02	-5.7383	-59.812185	0.000608	6.081521	2.060475	0.000243
1866	1.8557e+02	-5.6870	-59.521511	0.000730	7.297825	2.472570	0.000292
1867	1.8567e+02	-5.6501	-59.275245	0.000618	6.182880	2.094816	0.000248
1868	1.8577e+02	-5.6084	-58.932089	0.000862	8.615488	2.919006	0.000345
1869	1.8587e+02	-5.5667	-58.730232	0.000507	5.067934	1.717063	0.000203
1870	1.8597e+02	-5.5330	-58.431484	0.000750	7.500542	2.541253	0.000300
1871	1.8606e+02	-5.4961	-58.165033	0.000669	6.689673	2.266523	0.000268
1872	1.8616e+02	-5.4544	-57.858211	0.000770	7.703260	2.609935	0.000308
1873	1.8626e+02	-5.4191	-57.607908	0.000628	6.284238	2.129158	0.000252
1874	1.8636e+02	-5.3710	-57.272826	0.000841	8.412771	2.850324	0.000337
1875	1.8646e+02	-5.3309	-57.062895	0.000527	5.270651	1.785745	0.000211
1876	1.8656e+02	-5.3116	-56.735887	0.000821	8.210053	2.781641	0.000329
1877	1.8666e+02	-5.2635	-56.441176	0.000740	7.399184	2.506911	0.000296
1878	1.8676e+02	-5.2186	-56.138391	0.000760	7.601901	2.575594	0.000304
1879	1.8686e+02	-5.1704	-55.912311	0.000568	5.676086	1.923110	0.000227
1880	1.8696e+02	-5.1368	-55.601452	0.000780	7.804618	2.644276	0.000312
1881	1.8706e+02	-5.0950	-55.339038	0.000659	6.588314	2.232181	0.000264
1882	1.8716e+02	-5.0581	-55.108921	0.000578	5.777445	1.957451	0.000231
1883	1.8726e+02	-5.0116	-54.830359	0.000699	6.993749	2.369546	0.000280
1884	1.8736e+02	-4.9715	-54.563908	0.000669	6.689673	2.266523	0.000268
1885	1.8746e+02	-4.9362	-54.224789	0.000851	8.514129	2.884665	0.000341
1886	1.8756e+02	-4.8929	-53.986598	0.000598	5.980162	2.026134	0.000239
1887	1.8766e+02	-4.8624	-53.732258	0.000639	6.385597	2.163499	0.000256
1888	1.8776e+02	-4.8191	-53.433510	0.000750	7.500542	2.541253	0.000300
1889	1.8786e+02	-4.7758	-53.106502	0.000821	8.210053	2.781641	0.000329
1890	1.8796e+02	-4.7469	-52.823903	0.000710	7.095108	2.403888	0.000284
1891	1.8806e+02	-4.6940	-52.561489	0.000659	6.588314	2.232181	0.000264
1892	1.8815e+02	-4.6651	-52.307149	0.000639	6.385597	2.163499	0.000256
1893	1.8825e+02	-4.6218	-52.012438	0.000740	7.399184	2.506911	0.000296
1894	1.8835e+02	-4.5753	-51.729839	0.000710	7.095108	2.403888	0.000284
1895	1.8845e+02	-4.5464	-51.431091	0.000750	7.500542	2.541253	0.000300
1896	1.8855e+02	-4.4951	-51.136380	0.000740	7.399184	2.506911	0.000296
1897	1.8865e+02	-4.4710	-50.841669	0.000740	7.399184	2.506911	0.000296
1898	1.8875e+02	-4.4197	-50.591367	0.000628	6.284238	2.129158	0.000252
1899	1.8885e+02	-4.3796	-50.332990	0.000649	6.486956	2.197840	0.000260
1900	1.8895e+02	-4.3378	-50.074613	0.000649	6.486956	2.197840	0.000260
1901	1.8905e+02	-4.3042	-49.800088	0.000689	6.892390	2.335205	0.000276
1902	1.8915e+02	-4.2657	-49.521526	0.000699	6.993749	2.369546	0.000280
1903	1.8925e+02	-4.2223	-49.230852	0.000730	7.297825	2.472570	0.000292
1904	1.8935e+02	-4.1838	-48.952289	0.000699	6.993749	2.369546	0.000280
1905	1.8945e+02	-4.1389	-48.665653	0.000720	7.196466	2.438229	0.000288
1906	1.8955e+02	-4.1068	-48.358830	0.000770	7.703260	2.609935	0.000308
1907	1.8965e+02	-4.0603	-48.084305	0.000689	6.892390	2.335205	0.000276
1908	1.8975e+02	-4.0330	-47.809780	0.000689	6.892390	2.335205	0.000276
1909	1.8985e+02	-3.9801	-47.559478	0.000628	6.284238	2.129158	0.000252
1910	1.8995e+02	-3.9336	-47.268804	0.000730	7.297825	2.472570	0.000292
1911	1.9004e+02	-3.8983	-46.961981	0.000770	7.703260	2.609935	0.000308
1912	1.9014e+02	-3.8566	-46.647085	0.000791	7.905977	2.678618	0.000316
1913	1.9024e+02	-3.8181	-46.380634	0.000669	6.689673	2.266523	0.000268
1914	1.9034e+02	-3.7732	-46.102072	0.000699	6.993749	2.369546	0.000280
1915	1.9044e+02	-3.7459	-45.851769	0.000628	6.284238	2.129158	0.000252
1916	1.9054e+02	-3.6962	-45.536873	0.000791	7.905977	2.678618	0.000316
1917	1.9064e+02	-3.6689	-45.286570	0.000628	6.284238	2.129158	0.000252
1918	1.9074e+02	-3.6256	-44.995896	0.000730	7.297825	2.472570	0.000292
1919	1.9084e+02	-3.5774	-44.737520	0.000649	6.486956	2.197840	0.000260
1920	1.9094e+02	-3.5389	-44.422623	0.000791	7.905977	2.678618	0.000316
1921	1.9104e+02	-3.5085	-44.144061	0.000699	6.993749	2.369546	0.000280
1922	1.9114e+02	-3.4603	-43.873573	0.000679	6.791032	2.300864	0.000272
1923	1.9124e+02	-3.4282	-43.627307	0.000618	6.182880	2.094816	0.000248
1924	1.9134e+02	-3.3833	-43.328559	0.000750	7.500542	2.541253	0.000300
1925	1.9144e+02	-3.3496	-43.054034	0.000689	6.892390	2.335205	0.000276
1926	1.9154e+02	-3.3095	-42.755286	0.000750	7.500542	2.541253	0.000300
1927	1.9164e+02	-3.2678	-42.448464	0.000770	7.703260	2.609935	0.000308
1928	1.9174e+02	-3.2181	-42.169901	0.000699	6.993749	2.369546	0.000280
1929	1.9184e+02	-3.1860	-41.879228	0.000730	7.297825	2.472570	0.000292
1930	1.9194e+02	-3.1411	-41.604702	0.000689	6.892390	2.335205	0.000276
1931	1.9203e+02	-3.1010	-41.318066	0.000720	7.196466	2.438229	0.000288
1932	1.9213e+02	-3.0609	-41.031429	0.000720	7.196466	2.438229	0.000288
1933	1.9223e+02	-3.0288	-40.756904	0.000689	6.892390	2.335205	0.000276
1934	1.9233e+02	-2.9823	-40.470267	0.000720	7.196466	2.438229	0.000288
1935	1.9243e+02	-2.9422	-40.187668	0.000710	7.095108	2.403888	0.000284
1936	1.9253e+02	-2.9085	-39.860660	0.000821	8.210053	2.781641	0.000329
1937	1.9263e+02	-2.8603	-39.614394	0.000618	6.182880	2.094816	0.000248
1938	1.9273e+02	-2.8347	-39.323721	0.000730	7.297825	2.472570	0.000292
1939	1.9283e+02	-2.7866	-39.008824	0.000791	7.905977	2.678618	0.000316
1940	1.9293e+02	-2.7497	-38.730262	0.000699	6.993749	2.369546	0.000280
1941	1.9303e+02	-2.7063	-38.447662	0.000710	7.095108	2.403888	0.000284
1942	1.9313e+02	-2.6646	-38.185248	0.000659	6.588314	2.232181	0.000264
1943	1.9323e+02	-2.6261	-37.882463	0.000760	7.601901	2.575594	0.000304
1944	1.9333e+02	-2.5892	-37.624087	0.000649	6.486956	2.197840	0.000260
1945	1.9343e+02	-2.5539	-37.317264	0.000770	7.703260	2.609935	0.000308
1946	1.9353e+02	-2.4962	-37.030628	0.000720	7.196466	2.438229	0.000288
1947	1.9363e+02	-2.4673	-36.731880	0.000750	7.500542	2.541253	0.000300
1948	1.9373e+02	-2.4320	-36.437169	0.000740	7.399184	2.506911	0.000296
1949	1.9383e+02	-2.3855	-36.198978	0.000598	5.980162	2.026134	0.000239
1950	1.9393e+02	-2.3550	-35.859858	0.000851	8.514129	2.884665	0.000341
1951	1.9403e+02	-2.3069	-35.625704	0.000588	5.878804	1.991793	0.000235
1952	1.9412e+02	-2.2652	-35.330993	0.000740	7.399184	2.506911	0.000296
1953	1.9422e+02	-2.2331	-35.032245	0.000750	7.500542	2.541253	0.000300
1954	1.9432e+02	-2.1914	-34.765794	0.000669	6.689673	2.266523	0.000268
1955	1.9442e+02	-2.1465	-34.454935	0.000780	7.804618	2.644276	0.000312
1956	1.9452e+02	-2.1192	-34.196558	0.000649	6.486956	2.197840	0.000260
1957	1.9462e+02	-2.0630	-33.889736	0.000770	7.703260	2.609935	0.000308
1958	1.9472e+02	-2.0326	-33.619248	0.000679	6.791032	2.300864	0.000272
1959	1.9482e+02	-1.9860	-33.316463	0.000760	7.601901	2.575594	0.000304
1960	1.9492e+02	-1.9491	-33.013677	0.000760	7.601901	2.575594	0.000304
1961	1.9502e+02	-1.9106	-32.743189	0.000679	6.791032	2.300864	0.000272
1962	1.9512e+02	-1.8689	-32.440404	0.000760	7.601901	2.575594	0.000304
1963	1.9522e+02	-1.8352	-32.145693	0.000740	7.399184	2.506911	0.000296
1964	1.9532e+02	-1.7855	-31.863094	0.000710	7.095108	2.403888	0.000284
1965	1.9542e+02	-1.7358	-31.552234	0.000780	7.804618	2.644276	0.000312
1966	1.9552e+02	-1.7117	-31.297895	0.000639	6.385597	2.163499	0.000256
1967	1.9562e+02	-1.6732	-30.982998	0.000791	7.905977	2.678618	0.000316
1968	1.9572e+02	-1.6235	-30.732696	0.000628	6.284238	2.129158	0.000252
1969	1.9582e+02	-1.5914	-30.405688	0.000821	8.210053	2.781641	0.000329
1970	1.9592e+02	-1.5529	-30.135200	0.000679	6.791032	2.300864	0.000272
1971	1.9601e+02	-1.5224	-29.852600	0.000710	7.095108	2.403888	0.000284
1972	1.9611e+02	-1.4663	-29.529629	0.000811	8.108694	2.747300	0.000325
1973	1.9621e+02	-1.4310	-29.279327	0.000628	6.284238	2.129158	0.000252
1974	1.9631e+02	-1.3925	-28.948282	0.000831	8.311412	2.815983	0.000333
1975	1.9641e+02	-1.3588	-28.669719	0.000699	6.993749	2.369546	0.000280
1976	1.9651e+02	-1.3123	-28.407306	0.000659	6.588314	2.232181	0.000264
1977	1.9661e+02	-1.2738	-28.116632	0.000730	7.297825	2.472570	0.000292
1978	1.9671e+02	-1.2337	-27.781550	0.000841	8.412771	2.850324	0.000337
1979	1.9681e+02	-1.1759	-27.527210	0.000639	6.385597	2.163499	0.000256
1980	1.9691e+02	-1.1550	-27.220388	0.000770	7.703260	2.609935	0.000308
1981	1.9701e+02	-1.1101	-26.917603	0.000760	7.601901	2.575594	0.000304
1982	1.9711e+02	-1.0668	-26.598669	0.000801	8.007336	2.712959	0.000321
1983	1.9721e+02	-1.0315	-26.344329	0.000639	6.385597	2.163499	0.000256
1984	1.9731e+02	-0.9914	-26.053655	0.000730	7.297825	2.472570	0.000292
1985	1.9741e+02	-0.9593	-25.746833	0.000770	7.703260	2.609935	0.000308
1986	1.9751e+02	-0.9112	-25.452122	0.000740	7.399184	2.506911	0.000296
1987	1.9761e+02	-0.8775	-25.157411	0.000740	7.399184	2.506911	0.000296
1988	1.9771e+02	-0.8310	-24.882886	0.000689	6.892390	2.335205	0.000276
1989	1.9781e+02	-0.8037	-24.567990	0.000791	7.905977	2.678618	0.000316
1990	1.9791e+02	-0.7572	-24.257130	0.000780	7.804618	2.644276	0.000312
1991	1.9800e+02	-0.7139	-23.946271	0.000780	7.804618	2.644276	0.000312
1992	1.9810e+02	-0.6738	-23.704042	0.000608	6.081521	2.060475	0.000243
1993	1.9820e+02	-0.6305	-23.401257	0.000760	7.601901	2.575594	0.000304
1994	1.9830e+02	-0.6000	-23.082324	0.000801	8.007336	2.712959	0.000321
1995	1.9840e+02	-0.5695	-22.771464	0.000780	7.804618	2.644276	0.000312
1996	1.9850e+02	-0.5101	-22.529236	0.000608	6.081521	2.060475	0.000243
1997	1.9860e+02	-0.4732	-22.238562	0.000730	7.297825	2.472570	0.000292
1998	1.9870e+02	-0.4347	-21.887331	0.000882	8.818205	2.987689	0.000353
1999	1.9880e+02	-0.3930	-21.552249	0.000841	8.412771	2.850324	0.000337
2000	1.9890e+02	-0.3497	-21.322132	0.000578	5.777445	1.957451	0.000231
2001	1.9900e+02	-0.3144	-21.023384	0.000750	7.500542	2.541253	0.000300
2002	1.9910e+02	-0.2727	-20.704451	0.000801	8.007336	2.712959	0.000321
2003	1.9920e+02	-0.2310	-20.397628	0.000770	7.703260	2.609935	0.000308
2004	1.9930e+02	-0.1973	-20.123103	0.000689	6.892390	2.335205	0.000276
2005	1.9940e+02	-0.1524	-19.816281	0.000770	7.703260	2.609935	0.000308
2006	1.9950e+02	-0.1203	-19.517533	0.000750	7.500542	2.541253	0.000300
2007	1.9960e+02	-0.0770	-19.214748	0.000760	7.601901	2.575594	0.000304
2008	1.9970e+02	-0.0449	-18.952334	0.000659	6.588314	2.232181	0.000264
2009	1.9980e+02	0.0032	-18.621289	0.000659	6.588314	2.232181	0.000333

PMax (uC/cm2):	1.46e+02
Pr (uC/cm2):	1.17e+01
-Pr (uC/cm2):	-1.00e+01
PLoss (uC/cm2):	-1.00e+01
-Vc:	-1.56e+00
C (Max-Eff) (nF):	7.29e-01
K (Eff):	2.47e+03
Vert. (+/-Pr) Shift (uC/cm2):	8.39e-01
Offset (uC/cm2):	8.59e+00

A (Loop Area - uC/cm2·Volts):	1.22e-01



Hysteresis Version: 5.48.1 - Radiant Technologies, Inc., 1999 - 9/12/24

