»»»»»»»»»»»»»»»»»»»»»»»»»»»»»»»»»»»» Hysteresis ««««««««««««««««««««««««««««««««««««
»»»  Executed Version:	5.48.1
»»»  Vision Version:	5.48.4 (R)
»»»  Vision Compiled:	9/18/24
»»»  Driver Version:	5.47.0
»»»  Windows Version:	Windows 8 or 8.1
»»»  Processor Information:	x86 (AMD or Intel) - 32 Processors
»»»  Tester Name:	PMF21124-494 (100V)
»»»  Tester S/N:	PMF21124-494
»»»  Internal Amp Type:	100V RevK 270k
»»»  Internal Amp S/N:	iAB2-596/K     
»»»  Execution Count:	1
»»»»»»»»»»»»»»»»»»»»»»»»»»»»»»»»»»»»»»»»»»««««««««««««««««««««««««««««««««««««««««««

Stored:	6/18/2025 - 15:51:28
Configured:	06/18/25 09:47:30 AM
Executed:	06/18/25 03:50:59 PM

»»»»»»»»»»»»»»»»»»»»»»»»»»»»»»»»»»» Sample Info ««««««««««««««««««««««««««««««««««««
Sample Name:	
Lot Name:	
Wafer Name:	
Die Row/Column:	0/0
Capacitor Number:	0
Sample Area (cm2):	1.00e-04
Sample Thickness (microns):	3.00e-01

Amplifier:	Internal

»»»»»»»»»»»»»»»»»»»»»»»»»»»»»»»»»»» Tester Info «««««««««««««««««««««««««««««««««««
Tester Name:	PMF21124-494 (100V)
Tester Serial Number:	PMF21124-494
Return Signal Amp. Level:	0.19 [Index: 3]

»»»»»»»»»»»»»»»»»»»»»»»»»»»»»»»» Hysteresis Info ««««««««««««««««««««««««««««««««««
Task Name:	Hyst-554
Volts:	20.00
Field:	666.67 (kV/cm)
DCBias:	0.00
DCField:	0.00 (kV/cm)
Hysteresis Period (ms):	1.00e+00
Preset:	Enabled
Preset Delay (ms):	1.00e+03
Profile:	Standard Bipolar

»»»»»»»»»»»»»»»»»»»»»»»»»»»»»»»»»»»»»» Data «««««««««««««««««««««««««««««««««««««««
Points:	2001

Valid Data

Point	Time (ms)	Drive Voltage	Measured Polarization (uC/cm2)	Capacitance (uF)	Normalized Capacitance (uF/cm2)	Dielectric Constant	Instantaneous Current (mA)
   1	0.0000e+00	0.0128	-7.136568	0.000081	0.808177	0.273818	0.006453
   2	5.0000e-04	0.0401	-7.104303	0.000081	0.808177	0.273818	0.006453
   3	1.0000e-03	0.0626	-7.039774	0.000162	1.616353	0.547635	0.012906
   4	1.5000e-03	0.1027	-7.063972	-0.000061	-0.606133	-0.205363	-0.004840
   5	2.0000e-03	0.1428	-7.015575	0.000121	1.212265	0.410727	0.009679
   6	2.5000e-03	0.1813	-7.011542	0.000010	0.101022	0.034227	0.000807
   7	3.0000e-03	0.2134	-6.910714	0.000253	2.525552	0.855680	0.020165
   8	3.5000e-03	0.2519	-6.870383	0.000101	1.010221	0.342272	0.008066
   9	4.0000e-03	0.2936	-6.769556	0.000253	2.525552	0.855680	0.020165
  10	4.5000e-03	0.3401	-6.628398	0.000354	3.535773	1.197952	0.028232
  11	5.0000e-03	0.3818	-6.547736	0.000202	2.020442	0.684544	0.016132
  12	5.5000e-03	0.4139	-6.467074	0.000202	2.020442	0.684544	0.016132
  13	6.0000e-03	0.4652	-6.317849	0.000374	3.737817	1.266407	0.029845
  14	6.5000e-03	0.5021	-6.188790	0.000323	3.232707	1.095271	0.025812
  15	7.0000e-03	0.5406	-6.063764	0.000313	3.131685	1.061044	0.025005
  16	7.5000e-03	0.5695	-5.934705	0.000323	3.232707	1.095271	0.025812
  17	8.0000e-03	0.6096	-5.789513	0.000364	3.636795	1.232180	0.029038
  18	8.5000e-03	0.6577	-5.624156	0.000414	4.141906	1.403316	0.033071
  19	9.0000e-03	0.6994	-5.458799	0.000414	4.141906	1.403316	0.033071
  20	9.5000e-03	0.7363	-5.301508	0.000394	3.939862	1.334861	0.031458
  21	1.0000e-02	0.7748	-5.172449	0.000323	3.232707	1.095271	0.025812
  22	1.0500e-02	0.8117	-5.011125	0.000404	4.040884	1.369088	0.032265
  23	1.1000e-02	0.8727	-4.813503	0.000495	4.950082	1.677133	0.039524
  24	1.1500e-02	0.8984	-4.668312	0.000364	3.636795	1.232180	0.029038
  25	1.2000e-02	0.9321	-4.470690	0.000495	4.950082	1.677133	0.039524
  26	1.2500e-02	0.9834	-4.265002	0.000515	5.152127	1.745588	0.041138
  27	1.3000e-02	1.0123	-4.091579	0.000434	4.343950	1.471770	0.034685
  28	1.3500e-02	1.0556	-3.910089	0.000455	4.545994	1.540224	0.036298
  29	1.4000e-02	1.0989	-3.688269	0.000556	5.556215	1.882497	0.044364
  30	1.4500e-02	1.1374	-3.502746	0.000465	4.647016	1.574452	0.037105
  31	1.5000e-02	1.1727	-3.329323	0.000434	4.343950	1.471770	0.034685
  32	1.5500e-02	1.2144	-3.111536	0.000546	5.455193	1.848269	0.043557
  33	1.6000e-02	1.2561	-2.857450	0.000636	6.364392	2.156314	0.050817
  34	1.6500e-02	1.2946	-2.684027	0.000434	4.343950	1.471770	0.034685
  35	1.7000e-02	1.3411	-2.490438	0.000485	4.849060	1.642906	0.038718
  36	1.7500e-02	1.3764	-2.300883	0.000475	4.748038	1.608679	0.037911
  37	1.8000e-02	1.4197	-2.066963	0.000586	5.859281	1.985178	0.046784
  38	1.8500e-02	1.4550	-1.893540	0.000434	4.343950	1.471770	0.034685
  39	1.9000e-02	1.4935	-1.671719	0.000556	5.556215	1.882497	0.044364
  40	1.9500e-02	1.5336	-1.449899	0.000556	5.556215	1.882497	0.044364
  41	2.0000e-02	1.5754	-1.260343	0.000475	4.748038	1.608679	0.037911
  42	2.0500e-02	1.6074	-1.010291	0.000626	6.263370	2.122087	0.050010
  43	2.1000e-02	1.6540	-0.840901	0.000424	4.242928	1.437543	0.033878
  44	2.1500e-02	1.6973	-0.619081	0.000556	5.556215	1.882497	0.044364
  45	2.2000e-02	1.7374	-0.401293	0.000546	5.455193	1.848269	0.043557
  46	2.2500e-02	1.7791	-0.179473	0.000556	5.556215	1.882497	0.044364
  47	2.3000e-02	1.8144	0.034281	0.000535	5.354171	1.814042	0.042751
  48	2.3500e-02	1.8609	0.280300	0.000616	6.162348	2.087860	0.049204
  49	2.4000e-02	1.8946	0.485988	0.000515	5.152127	1.745588	0.041138
  50	2.4500e-02	1.9363	0.744107	0.000647	6.465414	2.190542	0.051624
  51	2.5000e-02	1.9796	0.965927	0.000556	5.556215	1.882497	0.044364
  52	2.5500e-02	2.0245	1.312774	0.000869	8.687900	2.943540	0.069369
  53	2.6000e-02	2.0566	1.341005	0.000071	0.707155	0.239590	0.005646
  54	2.6500e-02	2.0983	1.611223	0.000677	6.768480	2.293223	0.054044
  55	2.7000e-02	2.1368	1.881440	0.000677	6.768480	2.293223	0.054044
  56	2.7500e-02	2.1753	2.115360	0.000586	5.859281	1.985178	0.046784
  57	2.8000e-02	2.2154	2.317015	0.000505	5.051105	1.711361	0.040331
  58	2.8500e-02	2.2620	2.518670	0.000505	5.051105	1.711361	0.040331
  59	2.9000e-02	2.2892	2.748557	0.000576	5.758259	1.950951	0.045977
  60	2.9500e-02	2.3310	3.006675	0.000647	6.465414	2.190542	0.051624
  61	3.0000e-02	2.3727	3.288992	0.000707	7.071546	2.395905	0.056463
  62	3.0500e-02	2.4128	3.462415	0.000434	4.343950	1.471770	0.034685
  63	3.1000e-02	2.4513	3.720533	0.000647	6.465414	2.190542	0.051624
  64	3.1500e-02	2.4914	3.954453	0.000586	5.859281	1.985178	0.046784
  65	3.2000e-02	2.5395	4.164174	0.000525	5.253149	1.779815	0.041944
  66	3.2500e-02	2.5748	4.410193	0.000616	6.162348	2.087860	0.049204
  67	3.3000e-02	2.6101	4.619914	0.000525	5.253149	1.779815	0.041944
  68	3.3500e-02	2.6550	4.829636	0.000525	5.253149	1.779815	0.041944
  69	3.4000e-02	2.7063	5.079688	0.000626	6.263370	2.122087	0.050010
  70	3.4500e-02	2.7320	5.357971	0.000697	6.970524	2.361678	0.055657
  71	3.5000e-02	2.7689	5.571726	0.000535	5.354171	1.814042	0.042751
  72	3.5500e-02	2.8122	5.785480	0.000535	5.354171	1.814042	0.042751
  73	3.6000e-02	2.8539	6.031499	0.000616	6.162348	2.087860	0.049204
  74	3.6500e-02	2.8876	6.277518	0.000616	6.162348	2.087860	0.049204
  75	3.7000e-02	2.9277	6.487239	0.000525	5.253149	1.779815	0.041944
  76	3.7500e-02	2.9759	6.737291	0.000626	6.263370	2.122087	0.050010
  77	3.8000e-02	3.0192	6.938946	0.000505	5.051105	1.711361	0.040331
  78	3.8500e-02	3.0464	7.225296	0.000717	7.172568	2.430132	0.057270
  79	3.9000e-02	3.0978	7.447117	0.000556	5.556215	1.882497	0.044364
  80	3.9500e-02	3.1523	7.693136	0.000616	6.162348	2.087860	0.049204
  81	4.0000e-02	3.1684	7.902857	0.000525	5.253149	1.779815	0.041944
  82	4.0500e-02	3.2181	8.156942	0.000636	6.364392	2.156314	0.050817
  83	4.1000e-02	3.2630	8.411027	0.000636	6.364392	2.156314	0.050817
  84	4.1500e-02	3.2951	8.697377	0.000717	7.172568	2.430132	0.057270
  85	4.2000e-02	3.3384	8.890966	0.000485	4.849060	1.642906	0.038718
  86	4.2500e-02	3.3769	9.124886	0.000586	5.859281	1.985178	0.046784
  87	4.3000e-02	3.4154	9.366872	0.000606	6.061325	2.053633	0.048397
  88	4.3500e-02	3.4587	9.608857	0.000606	6.061325	2.053633	0.048397
  89	4.4000e-02	3.5004	9.822612	0.000535	5.354171	1.814042	0.042751
  90	4.4500e-02	3.5293	10.084763	0.000657	6.566436	2.224769	0.052430
  91	4.5000e-02	3.5790	10.338848	0.000636	6.364392	2.156314	0.050817
  92	4.5500e-02	3.6175	10.609066	0.000677	6.768480	2.293223	0.054044
  93	4.6000e-02	3.6544	10.794588	0.000465	4.647016	1.574452	0.037105
  94	4.6500e-02	3.6929	11.080938	0.000717	7.172568	2.430132	0.057270
  95	4.7000e-02	3.7379	11.278560	0.000495	4.950082	1.677133	0.039524
  96	4.7500e-02	3.7716	11.532645	0.000636	6.364392	2.156314	0.050817
  97	4.8000e-02	3.8117	11.798830	0.000667	6.667458	2.258996	0.053237
  98	4.8500e-02	3.8630	12.024683	0.000566	5.657237	1.916724	0.045171
  99	4.9000e-02	3.8967	12.290868	0.000667	6.667458	2.258996	0.053237
 100	4.9500e-02	3.9432	12.520755	0.000576	5.758259	1.950951	0.045977
 101	5.0000e-02	3.9737	12.799038	0.000697	6.970524	2.361678	0.055657
 102	5.0500e-02	4.0186	13.045057	0.000616	6.162348	2.087860	0.049204
 103	5.1000e-02	4.0539	13.287043	0.000606	6.061325	2.053633	0.048397
 104	5.1500e-02	4.0972	13.557261	0.000677	6.768480	2.293223	0.054044
 105	5.2000e-02	4.1325	13.738750	0.000455	4.545994	1.540224	0.036298
 106	5.2500e-02	4.1726	13.992836	0.000636	6.364392	2.156314	0.050817
 107	5.3000e-02	4.2175	14.246921	0.000636	6.364392	2.156314	0.050817
 108	5.3500e-02	4.2560	14.573602	0.000818	8.182789	2.772404	0.065336
 109	5.4000e-02	4.2993	14.779290	0.000515	5.152127	1.745588	0.041138
 110	5.4500e-02	4.3314	15.065640	0.000717	7.172568	2.430132	0.057270
 111	5.5000e-02	4.3731	15.255195	0.000475	4.748038	1.608679	0.037911
 112	5.5500e-02	4.4165	15.533479	0.000697	6.970524	2.361678	0.055657
 113	5.6000e-02	4.4630	15.763366	0.000576	5.758259	1.950951	0.045977
 114	5.6500e-02	4.5031	16.017451	0.000636	6.364392	2.156314	0.050817
 115	5.7000e-02	4.5400	16.283636	0.000667	6.667458	2.258996	0.053237
 116	5.7500e-02	4.5817	16.549820	0.000667	6.667458	2.258996	0.053237
 117	5.8000e-02	4.6122	16.771641	0.000556	5.556215	1.882497	0.044364
 118	5.8500e-02	4.6539	17.045891	0.000687	6.869502	2.327450	0.054850
 119	5.9000e-02	4.6956	17.316109	0.000677	6.768480	2.293223	0.054044
 120	5.9500e-02	4.7421	17.537929	0.000556	5.556215	1.882497	0.044364
 121	6.0000e-02	4.7742	17.775882	0.000596	5.960303	2.019405	0.047591
 122	6.0500e-02	4.8191	18.070298	0.000737	7.374613	2.498586	0.058883
 123	6.1000e-02	4.8576	18.336483	0.000667	6.667458	2.258996	0.053237
 124	6.1500e-02	4.8945	18.590568	0.000636	6.364392	2.156314	0.050817
 125	6.2000e-02	4.9442	18.860786	0.000677	6.768480	2.293223	0.054044
 126	6.2500e-02	4.9811	19.066474	0.000515	5.152127	1.745588	0.041138
 127	6.3000e-02	5.0164	19.348791	0.000707	7.071546	2.395905	0.056463
 128	6.3500e-02	5.0678	19.578677	0.000576	5.758259	1.950951	0.045977
 129	6.4000e-02	5.0950	19.852928	0.000687	6.869502	2.327450	0.054850
 130	6.4500e-02	5.1303	20.107013	0.000636	6.364392	2.156314	0.050817
 131	6.5000e-02	5.1720	20.369164	0.000657	6.566436	2.224769	0.052430
 132	6.5500e-02	5.2250	20.619217	0.000626	6.263370	2.122087	0.050010
 133	6.6000e-02	5.2539	20.841037	0.000556	5.556215	1.882497	0.044364
 134	6.6500e-02	5.3004	21.123354	0.000707	7.071546	2.395905	0.056463
 135	6.7000e-02	5.3389	21.365340	0.000606	6.061325	2.053633	0.048397
 136	6.7500e-02	5.3870	21.615392	0.000626	6.263370	2.122087	0.050010
 137	6.8000e-02	5.4191	21.901742	0.000717	7.172568	2.430132	0.057270
 138	6.8500e-02	5.4544	22.131629	0.000576	5.758259	1.950951	0.045977
 139	6.9000e-02	5.4897	22.369581	0.000596	5.960303	2.019405	0.047591
 140	6.9500e-02	5.5346	22.659964	0.000727	7.273591	2.464359	0.058077
 141	7.0000e-02	5.5843	22.756759	0.000242	2.424530	0.821453	0.019359
 142	7.0500e-02	5.6180	23.156036	0.001000	10.001187	3.388494	0.079855
 143	7.1000e-02	5.6565	23.458518	0.000758	7.576657	2.567041	0.060496
 144	7.1500e-02	5.6966	23.700504	0.000606	6.061325	2.053633	0.048397
 145	7.2000e-02	5.7351	23.922324	0.000556	5.556215	1.882497	0.044364
 146	7.2500e-02	5.7752	24.176410	0.000636	6.364392	2.156314	0.050817
 147	7.3000e-02	5.8121	24.442594	0.000667	6.667458	2.258996	0.053237
 148	7.3500e-02	5.8699	24.700712	0.000647	6.465414	2.190542	0.051624
 149	7.4000e-02	5.8923	25.031426	0.000828	8.283811	2.806631	0.066143
 150	7.4500e-02	5.9244	25.293578	0.000657	6.566436	2.224769	0.052430
 151	7.5000e-02	5.9694	25.563795	0.000677	6.768480	2.293223	0.054044
 152	7.5500e-02	6.0191	25.870311	0.000768	7.677679	2.601268	0.061303
 153	7.6000e-02	6.0576	26.067933	0.000495	4.950082	1.677133	0.039524
 154	7.6500e-02	6.0977	26.289753	0.000556	5.556215	1.882497	0.044364
 155	7.7000e-02	6.1298	26.596269	0.000768	7.677679	2.601268	0.061303
 156	7.7500e-02	6.1795	26.850354	0.000636	6.364392	2.156314	0.050817
 157	7.8000e-02	6.2164	27.108472	0.000647	6.465414	2.190542	0.051624
 158	7.8500e-02	6.2629	27.378690	0.000677	6.768480	2.293223	0.054044
 159	7.9000e-02	6.2966	27.616643	0.000596	5.960303	2.019405	0.047591
 160	7.9500e-02	6.3383	27.902993	0.000717	7.172568	2.430132	0.057270
 161	8.0000e-02	6.3816	28.209508	0.000768	7.677679	2.601268	0.061303
 162	8.0500e-02	6.4153	28.431329	0.000556	5.556215	1.882497	0.044364
 163	8.1000e-02	6.4570	28.697513	0.000667	6.667458	2.258996	0.053237
 164	8.1500e-02	6.4891	28.943532	0.000616	6.162348	2.087860	0.049204
 165	8.2000e-02	6.5372	29.274246	0.000828	8.283811	2.806631	0.066143
 166	8.2500e-02	6.5661	29.483967	0.000525	5.253149	1.779815	0.041944
 167	8.3000e-02	6.6159	29.782417	0.000748	7.475635	2.532814	0.059690
 168	8.3500e-02	6.6624	30.060700	0.000697	6.970524	2.361678	0.055657
 169	8.4000e-02	6.6897	30.302686	0.000606	6.061325	2.053633	0.048397
 170	8.4500e-02	6.7362	30.560805	0.000647	6.465414	2.190542	0.051624
 171	8.5000e-02	6.7763	30.839088	0.000697	6.970524	2.361678	0.055657
 172	8.5500e-02	6.8100	31.145604	0.000768	7.677679	2.601268	0.061303
 173	8.6000e-02	6.8581	31.395656	0.000626	6.263370	2.122087	0.050010
 174	8.6500e-02	6.8918	31.625543	0.000576	5.758259	1.950951	0.045977
 175	8.7000e-02	6.9383	31.875595	0.000626	6.263370	2.122087	0.050010
 176	8.7500e-02	6.9736	32.182110	0.000768	7.677679	2.601268	0.061303
 177	8.8000e-02	7.0137	32.411997	0.000576	5.758259	1.950951	0.045977
 178	8.8500e-02	7.0538	32.718512	0.000768	7.677679	2.601268	0.061303
 179	8.9000e-02	7.0907	33.008896	0.000727	7.273591	2.464359	0.058077
 180	8.9500e-02	7.1276	33.230716	0.000556	5.556215	1.882497	0.044364
 181	9.0000e-02	7.1741	33.504967	0.000687	6.869502	2.327450	0.054850
 182	9.0500e-02	7.2223	33.755019	0.000626	6.263370	2.122087	0.050010
 183	9.1000e-02	7.2495	33.997005	0.000606	6.061325	2.053633	0.048397
 184	9.1500e-02	7.2928	34.311586	0.000788	7.879723	2.669722	0.062916
 185	9.2000e-02	7.3297	34.577771	0.000667	6.667458	2.258996	0.053237
 186	9.2500e-02	7.3859	34.904452	0.000818	8.182789	2.772404	0.065336
 187	9.3000e-02	7.4100	35.146438	0.000606	6.061325	2.053633	0.048397
 188	9.3500e-02	7.4613	35.420688	0.000687	6.869502	2.327450	0.054850
 189	9.4000e-02	7.5014	35.707038	0.000717	7.172568	2.430132	0.057270
 190	9.4500e-02	7.5287	35.928859	0.000556	5.556215	1.882497	0.044364
 191	9.5000e-02	7.5736	36.207143	0.000697	6.970524	2.361678	0.055657
 192	9.5500e-02	7.6153	36.465261	0.000647	6.465414	2.190542	0.051624
 193	9.6000e-02	7.6506	36.735479	0.000677	6.768480	2.293223	0.054044
 194	9.6500e-02	7.6939	37.070226	0.000838	8.384834	2.840859	0.066949
 195	9.7000e-02	7.7356	37.279947	0.000525	5.253149	1.779815	0.041944
 196	9.7500e-02	7.7693	37.586462	0.000768	7.677679	2.601268	0.061303
 197	9.8000e-02	7.8046	37.888945	0.000758	7.576657	2.567041	0.060496
 198	9.8500e-02	7.8543	38.130931	0.000606	6.061325	2.053633	0.048397
 199	9.9000e-02	7.8960	38.401148	0.000677	6.768480	2.293223	0.054044
 200	9.9500e-02	7.9442	38.639101	0.000596	5.960303	2.019405	0.047591
 201	1.0000e-01	7.9746	38.973848	0.000838	8.384834	2.840859	0.066949
 202	1.0050e-01	8.0115	39.240033	0.000667	6.667458	2.258996	0.053237
 203	1.0100e-01	8.0532	39.522350	0.000707	7.071546	2.395905	0.056463
 204	1.0150e-01	8.1014	39.776435	0.000636	6.364392	2.156314	0.050817
 205	1.0200e-01	8.1367	40.119248	0.000859	8.586878	2.909313	0.068563
 206	1.0250e-01	8.1768	40.373334	0.000636	6.364392	2.156314	0.050817
 207	1.0300e-01	8.2169	40.607253	0.000586	5.859281	1.985178	0.046784
 208	1.0350e-01	8.2522	40.885537	0.000697	6.970524	2.361678	0.055657
 209	1.0400e-01	8.2971	41.131556	0.000616	6.162348	2.087860	0.049204
 210	1.0450e-01	8.3308	41.373542	0.000606	6.061325	2.053633	0.048397
 211	1.0500e-01	8.3757	41.700223	0.000818	8.182789	2.772404	0.065336
 212	1.0550e-01	8.4222	41.954308	0.000636	6.364392	2.156314	0.050817
 213	1.0600e-01	8.4591	42.268890	0.000788	7.879723	2.669722	0.062916
 214	1.0650e-01	8.5024	42.571372	0.000758	7.576657	2.567041	0.060496
 215	1.0700e-01	8.5345	42.841590	0.000677	6.768480	2.293223	0.054044
 216	1.0750e-01	8.5794	43.119874	0.000697	6.970524	2.361678	0.055657
 217	1.0800e-01	8.6195	43.377992	0.000647	6.465414	2.190542	0.051624
 218	1.0850e-01	8.6596	43.619978	0.000606	6.061325	2.053633	0.048397
 219	1.0900e-01	8.6869	43.910361	0.000727	7.273591	2.464359	0.058077
 220	1.0950e-01	8.7431	44.168479	0.000647	6.465414	2.190542	0.051624
 221	1.1000e-01	8.7768	44.470962	0.000758	7.576657	2.567041	0.060496
 222	1.1050e-01	8.8217	44.725047	0.000636	6.364392	2.156314	0.050817
 223	1.1100e-01	8.8618	44.987198	0.000657	6.566436	2.224769	0.052430
 224	1.1150e-01	8.8923	45.297747	0.000778	7.778701	2.635495	0.062110
 225	1.1200e-01	8.9420	45.588130	0.000727	7.273591	2.464359	0.058077
 226	1.1250e-01	8.9709	45.902712	0.000788	7.879723	2.669722	0.062916
 227	1.1300e-01	9.0190	46.180996	0.000697	6.970524	2.361678	0.055657
 228	1.1350e-01	9.0559	46.406849	0.000566	5.657237	1.916724	0.045171
 229	1.1400e-01	9.0976	46.644802	0.000596	5.960303	2.019405	0.047591
 230	1.1450e-01	9.1409	46.959384	0.000788	7.879723	2.669722	0.062916
 231	1.1500e-01	9.1778	47.519984	0.001404	14.042071	4.757582	0.112120
 232	1.1550e-01	9.2195	47.479653	-0.000101	-1.010221	-0.342272	-0.008066
 233	1.1600e-01	9.2628	47.786169	0.000768	7.677679	2.601268	0.061303
 234	1.1650e-01	9.2933	48.104784	0.000798	7.980745	2.703950	0.063723
 235	1.1700e-01	9.3350	48.354836	0.000626	6.263370	2.122087	0.050010
 236	1.1750e-01	9.3735	48.633119	0.000697	6.970524	2.361678	0.055657
 237	1.1800e-01	9.4136	48.895271	0.000657	6.566436	2.224769	0.052430
 238	1.1850e-01	9.4586	49.181621	0.000717	7.172568	2.430132	0.057270
 239	1.1900e-01	9.4874	49.431673	0.000626	6.263370	2.122087	0.050010
 240	1.1950e-01	9.5291	49.730122	0.000748	7.475635	2.532814	0.059690
 241	1.2000e-01	9.5805	50.056803	0.000818	8.182789	2.772404	0.065336
 242	1.2050e-01	9.6174	50.290723	0.000586	5.859281	1.985178	0.046784
 243	1.2100e-01	9.6511	50.585139	0.000737	7.374613	2.498586	0.058883
 244	1.2150e-01	9.6992	50.855357	0.000677	6.768480	2.293223	0.054044
 245	1.2200e-01	9.7409	51.081210	0.000566	5.657237	1.916724	0.045171
 246	1.2250e-01	9.7810	51.419991	0.000849	8.485856	2.875086	0.067756
 247	1.2300e-01	9.8131	51.710374	0.000727	7.273591	2.464359	0.058077
 248	1.2350e-01	9.8660	52.012856	0.000758	7.576657	2.567041	0.060496
 249	1.2400e-01	9.8949	52.270974	0.000647	6.465414	2.190542	0.051624
 250	1.2450e-01	9.9366	52.525060	0.000636	6.364392	2.156314	0.050817
 251	1.2500e-01	9.9783	52.835608	0.000778	7.778701	2.635495	0.062110
 252	1.2550e-01	10.0088	53.085660	0.000626	6.263370	2.122087	0.050010
 253	1.2600e-01	10.0505	53.400242	0.000788	7.879723	2.669722	0.062916
 254	1.2650e-01	10.0890	53.670460	0.000677	6.768480	2.293223	0.054044
 255	1.2700e-01	10.1355	53.952777	0.000707	7.071546	2.395905	0.056463
 256	1.2750e-01	10.1789	54.243160	0.000727	7.273591	2.464359	0.058077
 257	1.2800e-01	10.2206	54.505311	0.000657	6.566436	2.224769	0.052430
 258	1.2850e-01	10.2607	54.807793	0.000758	7.576657	2.567041	0.060496
 259	1.2900e-01	10.2960	55.045746	0.000596	5.960303	2.019405	0.047591
 260	1.2950e-01	10.3313	55.328063	0.000707	7.071546	2.395905	0.056463
 261	1.3000e-01	10.3810	55.602314	0.000687	6.869502	2.327450	0.054850
 262	1.3050e-01	10.4131	55.892697	0.000727	7.273591	2.464359	0.058077
 263	1.3100e-01	10.4564	56.191146	0.000748	7.475635	2.532814	0.059690
 264	1.3150e-01	10.5045	56.513794	0.000808	8.081767	2.738177	0.064530
 265	1.3200e-01	10.5286	56.743681	0.000576	5.758259	1.950951	0.045977
 266	1.3250e-01	10.5703	57.046163	0.000758	7.576657	2.567041	0.060496
 267	1.3300e-01	10.6184	57.312348	0.000667	6.667458	2.258996	0.053237
 268	1.3350e-01	10.6553	57.586598	0.000687	6.869502	2.327450	0.054850
 269	1.3400e-01	10.6922	57.832617	0.000616	6.162348	2.087860	0.049204
 270	1.3450e-01	10.7339	58.151232	0.000798	7.980745	2.703950	0.063723
 271	1.3500e-01	10.7756	58.393218	0.000606	6.061325	2.053633	0.048397
 272	1.3550e-01	10.8141	58.699734	0.000768	7.677679	2.601268	0.061303
 273	1.3600e-01	10.8558	58.941720	0.000606	6.061325	2.053633	0.048397
 274	1.3650e-01	10.8879	59.228070	0.000717	7.172568	2.430132	0.057270
 275	1.3700e-01	10.9312	59.502320	0.000687	6.869502	2.327450	0.054850
 276	1.3750e-01	10.9794	59.824968	0.000808	8.081767	2.738177	0.064530
 277	1.3800e-01	11.0163	60.127451	0.000758	7.576657	2.567041	0.060496
 278	1.3850e-01	11.0596	60.421867	0.000737	7.374613	2.498586	0.058883
 279	1.3900e-01	11.0933	60.704184	0.000707	7.071546	2.395905	0.056463
 280	1.3950e-01	11.1350	60.970368	0.000667	6.667458	2.258996	0.053237
 281	1.4000e-01	11.1671	61.244619	0.000687	6.869502	2.327450	0.054850
 282	1.4050e-01	11.2120	61.526936	0.000707	7.071546	2.395905	0.056463
 283	1.4100e-01	11.2553	61.768922	0.000606	6.061325	2.053633	0.048397
 284	1.4150e-01	11.3034	62.043172	0.000687	6.869502	2.327450	0.054850
 285	1.4200e-01	11.3355	62.329522	0.000717	7.172568	2.430132	0.057270
 286	1.4250e-01	11.3756	62.603773	0.000687	6.869502	2.327450	0.054850
 287	1.4300e-01	11.4109	62.890123	0.000717	7.172568	2.430132	0.057270
 288	1.4350e-01	11.4558	63.241003	0.000879	8.788922	2.977767	0.070176
 289	1.4400e-01	11.4959	63.495088	0.000636	6.364392	2.156314	0.050817
 290	1.4450e-01	11.5328	63.765305	0.000677	6.768480	2.293223	0.054044
 291	1.4500e-01	11.5794	64.063755	0.000748	7.475635	2.532814	0.059690
 292	1.4550e-01	11.6275	64.350105	0.000717	7.172568	2.430132	0.057270
 293	1.4600e-01	11.6580	64.616289	0.000667	6.667458	2.258996	0.053237
 294	1.4650e-01	11.6981	64.850209	0.000586	5.859281	1.985178	0.046784
 295	1.4700e-01	11.7334	65.148658	0.000748	7.475635	2.532814	0.059690
 296	1.4750e-01	11.7783	65.435008	0.000717	7.172568	2.430132	0.057270
 297	1.4800e-01	11.8264	65.741524	0.000768	7.677679	2.601268	0.061303
 298	1.4850e-01	11.8569	65.983510	0.000606	6.061325	2.053633	0.048397
 299	1.4900e-01	11.8970	66.302124	0.000798	7.980745	2.703950	0.063723
 300	1.4950e-01	11.9403	66.540077	0.000596	5.960303	2.019405	0.047591
 301	1.5000e-01	11.9804	66.830460	0.000727	7.273591	2.464359	0.058077
 302	1.5050e-01	12.0125	67.173274	0.000859	8.586878	2.909313	0.068563
 303	1.5100e-01	12.0526	67.411227	0.000596	5.960303	2.019405	0.047591
 304	1.5150e-01	12.0991	67.737908	0.000818	8.182789	2.772404	0.065336
 305	1.5200e-01	12.1312	67.967794	0.000576	5.758259	1.950951	0.045977
 306	1.5250e-01	12.1809	68.290442	0.000808	8.081767	2.738177	0.064530
 307	1.5300e-01	12.2146	68.560660	0.000677	6.768480	2.293223	0.054044
 308	1.5350e-01	12.2612	68.842977	0.000707	7.071546	2.395905	0.056463
 309	1.5400e-01	12.2900	69.093029	0.000626	6.263370	2.122087	0.050010
 310	1.5450e-01	12.3333	69.379379	0.000717	7.172568	2.430132	0.057270
 311	1.5500e-01	12.3734	69.653629	0.000687	6.869502	2.327450	0.054850
 312	1.5550e-01	12.4119	69.980310	0.000818	8.182789	2.772404	0.065336
 313	1.5600e-01	12.4601	70.258594	0.000697	6.970524	2.361678	0.055657
 314	1.5650e-01	12.4970	70.520746	0.000657	6.566436	2.224769	0.052430
 315	1.5700e-01	12.5419	70.790963	0.000677	6.768480	2.293223	0.054044
 316	1.5750e-01	12.5708	71.032949	0.000606	6.061325	2.053633	0.048397
 317	1.5800e-01	12.6173	71.359630	0.000818	8.182789	2.772404	0.065336
 318	1.5850e-01	12.6542	71.690344	0.000828	8.283811	2.806631	0.066143
 319	1.5900e-01	12.7055	71.928297	0.000596	5.960303	2.019405	0.047591
 320	1.5950e-01	12.7424	72.246912	0.000798	7.980745	2.703950	0.063723
 321	1.6000e-01	12.7841	72.388070	0.000354	3.535773	1.197952	0.028232
 322	1.6050e-01	12.8210	72.779281	0.000980	9.799143	3.320039	0.078242
 323	1.6100e-01	12.8579	73.089829	0.000778	7.778701	2.635495	0.062110
 324	1.6150e-01	12.9012	73.364080	0.000687	6.869502	2.327450	0.054850
 325	1.6200e-01	12.9333	73.602033	0.000596	5.960303	2.019405	0.047591
 326	1.6250e-01	12.9782	73.892416	0.000727	7.273591	2.464359	0.058077
 327	1.6300e-01	13.0135	74.166667	0.000687	6.869502	2.327450	0.054850
 328	1.6350e-01	13.0536	74.432851	0.000667	6.667458	2.258996	0.053237
 329	1.6400e-01	13.0970	74.711135	0.000697	6.970524	2.361678	0.055657
 330	1.6450e-01	13.1258	74.997485	0.000717	7.172568	2.430132	0.057270
 331	1.6500e-01	13.1691	75.283835	0.000717	7.172568	2.430132	0.057270
 332	1.6550e-01	13.2044	75.622615	0.000849	8.485856	2.875086	0.067756
 333	1.6600e-01	13.2606	75.900899	0.000697	6.970524	2.361678	0.055657
 334	1.6650e-01	13.3007	76.134819	0.000586	5.859281	1.985178	0.046784
 335	1.6700e-01	13.3328	76.392937	0.000647	6.465414	2.190542	0.051624
 336	1.6750e-01	13.3857	76.715585	0.000808	8.081767	2.738177	0.064530
 337	1.6800e-01	13.4162	77.014034	0.000748	7.475635	2.532814	0.059690
 338	1.6850e-01	13.4531	77.308451	0.000737	7.374613	2.498586	0.058883
 339	1.6900e-01	13.4852	77.514139	0.000515	5.152127	1.745588	0.041138
 340	1.6950e-01	13.5333	77.848886	0.000838	8.384834	2.840859	0.066949
 341	1.7000e-01	13.5782	78.127170	0.000697	6.970524	2.361678	0.055657
 342	1.7050e-01	13.6183	78.405453	0.000697	6.970524	2.361678	0.055657
 343	1.7100e-01	13.6536	78.707936	0.000758	7.576657	2.567041	0.060496
 344	1.7150e-01	13.6985	78.945889	0.000596	5.960303	2.019405	0.047591
 345	1.7200e-01	13.7338	79.288702	0.000859	8.586878	2.909313	0.068563
 346	1.7250e-01	13.7820	79.550853	0.000657	6.566436	2.224769	0.052430
 347	1.7300e-01	13.8076	79.849303	0.000748	7.475635	2.532814	0.059690
 348	1.7350e-01	13.8542	80.071123	0.000556	5.556215	1.882497	0.044364
 349	1.7400e-01	13.8959	80.321175	0.000626	6.263370	2.122087	0.050010
 350	1.7450e-01	13.9312	80.635757	0.000788	7.879723	2.669722	0.062916
 351	1.7500e-01	13.9761	80.901941	0.000667	6.667458	2.258996	0.053237
 352	1.7550e-01	14.0162	81.196358	0.000737	7.374613	2.498586	0.058883
 353	1.7600e-01	14.0563	81.466575	0.000677	6.768480	2.293223	0.054044
 354	1.7650e-01	14.0964	81.777124	0.000778	7.778701	2.635495	0.062110
 355	1.7700e-01	14.1397	82.051375	0.000687	6.869502	2.327450	0.054850
 356	1.7750e-01	14.1750	82.321592	0.000677	6.768480	2.293223	0.054044
 357	1.7800e-01	14.2119	82.575677	0.000636	6.364392	2.156314	0.050817
 358	1.7850e-01	14.2488	82.918491	0.000859	8.586878	2.909313	0.068563
 359	1.7900e-01	14.2905	83.172576	0.000636	6.364392	2.156314	0.050817
 360	1.7950e-01	14.3370	83.442794	0.000677	6.768480	2.293223	0.054044
 361	1.8000e-01	14.3707	83.737210	0.000737	7.374613	2.498586	0.058883
 362	1.8050e-01	14.4140	84.019527	0.000707	7.071546	2.395905	0.056463
 363	1.8100e-01	14.4477	84.281678	0.000657	6.566436	2.224769	0.052430
 364	1.8150e-01	14.5071	84.580127	0.000748	7.475635	2.532814	0.059690
 365	1.8200e-01	14.5263	84.826146	0.000616	6.162348	2.087860	0.049204
 366	1.8250e-01	14.5712	85.168960	0.000859	8.586878	2.909313	0.068563
 367	1.8300e-01	14.6178	85.463376	0.000737	7.374613	2.498586	0.058883
 368	1.8350e-01	14.6627	85.713428	0.000626	6.263370	2.122087	0.050010
 369	1.8400e-01	14.6980	85.971546	0.000647	6.465414	2.190542	0.051624
 370	1.8450e-01	14.7381	86.274029	0.000758	7.576657	2.567041	0.060496
 371	1.8500e-01	14.7750	86.544246	0.000677	6.768480	2.293223	0.054044
 372	1.8550e-01	14.8263	86.838663	0.000737	7.374613	2.498586	0.058883
 373	1.8600e-01	14.8504	87.096781	0.000647	6.465414	2.190542	0.051624
 374	1.8650e-01	14.9017	87.395230	0.000748	7.475635	2.532814	0.059690
 375	1.8700e-01	14.9306	87.653348	0.000647	6.465414	2.190542	0.051624
 376	1.8750e-01	14.9675	87.947765	0.000737	7.374613	2.498586	0.058883
 377	1.8800e-01	15.0188	88.161519	0.000535	5.354171	1.814042	0.042751
 378	1.8850e-01	15.0493	88.500299	0.000849	8.485856	2.875086	0.067756
 379	1.8900e-01	15.1071	88.766484	0.000667	6.667458	2.258996	0.053237
 380	1.8950e-01	15.1375	89.077032	0.000778	7.778701	2.635495	0.062110
 381	1.9000e-01	15.1696	89.355316	0.000697	6.970524	2.361678	0.055657
 382	1.9050e-01	15.2178	89.641666	0.000717	7.172568	2.430132	0.057270
 383	1.9100e-01	15.2482	89.915917	0.000687	6.869502	2.327450	0.054850
 384	1.9150e-01	15.2948	90.153870	0.000596	5.960303	2.019405	0.047591
 385	1.9200e-01	15.3300	90.504749	0.000879	8.788922	2.977767	0.070176
 386	1.9250e-01	15.3862	90.770934	0.000667	6.667458	2.258996	0.053237
 387	1.9300e-01	15.4151	91.085515	0.000788	7.879723	2.669722	0.062916
 388	1.9350e-01	15.4520	91.339601	0.000636	6.364392	2.156314	0.050817
 389	1.9400e-01	15.4937	91.609818	0.000677	6.768480	2.293223	0.054044
 390	1.9450e-01	15.5322	91.888102	0.000697	6.970524	2.361678	0.055657
 391	1.9500e-01	15.5691	92.162353	0.000687	6.869502	2.327450	0.054850
 392	1.9550e-01	15.6124	92.424504	0.000657	6.566436	2.224769	0.052430
 393	1.9600e-01	15.6589	92.686656	0.000657	6.566436	2.224769	0.052430
 394	1.9650e-01	15.6958	92.952840	0.000667	6.667458	2.258996	0.053237
 395	1.9700e-01	15.7359	93.279521	0.000818	8.182789	2.772404	0.065336
 396	1.9750e-01	15.7776	93.513441	0.000586	5.859281	1.985178	0.046784
 397	1.9800e-01	15.8113	93.872387	0.000899	8.990966	3.046222	0.071789
 398	1.9850e-01	15.8659	94.086141	0.000535	5.354171	1.814042	0.042751
 399	1.9900e-01	15.8899	94.392656	0.000768	7.677679	2.601268	0.061303
 400	1.9950e-01	15.9381	94.687072	0.000737	7.374613	2.498586	0.058883
 401	2.0000e-01	15.9782	94.941158	0.000636	6.364392	2.156314	0.050817
 402	2.0050e-01	16.0167	95.215408	0.000687	6.869502	2.327450	0.054850
 403	2.0100e-01	16.0487	95.481593	0.000667	6.667458	2.258996	0.053237
 404	2.0150e-01	16.0953	95.763910	0.000707	7.071546	2.395905	0.056463
 405	2.0200e-01	16.1306	96.038160	0.000687	6.869502	2.327450	0.054850
 406	2.0250e-01	16.1803	96.324510	0.000717	7.172568	2.430132	0.057270
 407	2.0300e-01	16.2156	96.707655	0.000960	9.597099	3.251585	0.076629
 408	2.0350e-01	16.2589	96.836714	0.000323	3.232707	1.095271	0.025812
 409	2.0400e-01	16.2878	97.163395	0.000818	8.182789	2.772404	0.065336
 410	2.0450e-01	16.3375	97.457811	0.000737	7.374613	2.498586	0.058883
 411	2.0500e-01	16.3760	97.723996	0.000667	6.667458	2.258996	0.053237
 412	2.0550e-01	16.4273	97.998246	0.000687	6.869502	2.327450	0.054850
 413	2.0600e-01	16.4562	98.296696	0.000748	7.475635	2.532814	0.059690
 414	2.0650e-01	16.4899	98.542715	0.000616	6.162348	2.087860	0.049204
 415	2.0700e-01	16.5445	98.849230	0.000768	7.677679	2.601268	0.061303
 416	2.0750e-01	16.5685	99.115415	0.000667	6.667458	2.258996	0.053237
 417	2.0800e-01	16.6150	99.393699	0.000697	6.970524	2.361678	0.055657
 418	2.0850e-01	16.6616	99.704247	0.000778	7.778701	2.635495	0.062110
 419	2.0900e-01	16.6936	99.958332	0.000636	6.364392	2.156314	0.050817
 420	2.0950e-01	16.7338	100.172087	0.000535	5.354171	1.814042	0.042751
 421	2.1000e-01	16.7739	100.470536	0.000748	7.475635	2.532814	0.059690
 422	2.1050e-01	16.8092	100.752853	0.000707	7.071546	2.395905	0.056463
 423	2.1100e-01	16.8621	101.067434	0.000788	7.879723	2.669722	0.062916
 424	2.1150e-01	16.8942	101.240858	0.000434	4.343950	1.471770	0.034685
 425	2.1200e-01	16.9359	101.595770	0.000889	8.889944	3.011995	0.070983
 426	2.1250e-01	16.9744	101.849856	0.000636	6.364392	2.156314	0.050817
 427	2.1300e-01	17.0241	102.132172	0.000707	7.071546	2.395905	0.056463
 428	2.1350e-01	17.0498	102.426589	0.000737	7.374613	2.498586	0.058883
 429	2.1400e-01	17.0963	102.721005	0.000737	7.374613	2.498586	0.058883
 430	2.1450e-01	17.1332	102.991222	0.000677	6.768480	2.293223	0.054044
 431	2.1500e-01	17.1717	103.237241	0.000616	6.162348	2.087860	0.049204
 432	2.1550e-01	17.2214	103.527625	0.000727	7.273591	2.464359	0.058077
 433	2.1600e-01	17.2567	103.838173	0.000778	7.778701	2.635495	0.062110
 434	2.1650e-01	17.3000	104.092258	0.000636	6.364392	2.156314	0.050817
 435	2.1700e-01	17.3321	104.346344	0.000636	6.364392	2.156314	0.050817
 436	2.1750e-01	17.3706	104.624627	0.000697	6.970524	2.361678	0.055657
 437	2.1800e-01	17.4091	104.947275	0.000808	8.081767	2.738177	0.064530
 438	2.1850e-01	17.4637	105.156996	0.000525	5.253149	1.779815	0.041944
 439	2.1900e-01	17.4990	105.507876	0.000879	8.788922	2.977767	0.070176
 440	2.1950e-01	17.5407	105.753895	0.000616	6.162348	2.087860	0.049204
 441	2.2000e-01	17.5712	106.060410	0.000768	7.677679	2.601268	0.061303
 442	2.2050e-01	17.6177	106.274165	0.000535	5.354171	1.814042	0.042751
 443	2.2100e-01	17.6578	106.572614	0.000748	7.475635	2.532814	0.059690
 444	2.2150e-01	17.7011	106.818633	0.000616	6.162348	2.087860	0.049204
 445	2.2200e-01	17.7364	107.169513	0.000879	8.788922	2.977767	0.070176
 446	2.2250e-01	17.7845	107.447796	0.000697	6.970524	2.361678	0.055657
 447	2.2300e-01	17.8134	107.734146	0.000717	7.172568	2.430132	0.057270
 448	2.2350e-01	17.8503	108.020496	0.000717	7.172568	2.430132	0.057270
 449	2.2400e-01	17.8984	108.230218	0.000525	5.253149	1.779815	0.041944
 450	2.2450e-01	17.9321	108.484303	0.000636	6.364392	2.156314	0.050817
 451	2.2500e-01	17.9706	108.798884	0.000788	7.879723	2.669722	0.062916
 452	2.2550e-01	18.0171	109.093301	0.000737	7.374613	2.498586	0.058883
 453	2.2600e-01	18.0556	109.339320	0.000616	6.162348	2.087860	0.049204
 454	2.2650e-01	18.0845	109.585339	0.000616	6.162348	2.087860	0.049204
 455	2.2700e-01	18.1391	109.863622	0.000697	6.970524	2.361678	0.055657
 456	2.2750e-01	18.1808	110.141906	0.000697	6.970524	2.361678	0.055657
 457	2.2800e-01	18.2241	110.432289	0.000727	7.273591	2.464359	0.058077
 458	2.2850e-01	18.2626	110.742838	0.000778	7.778701	2.635495	0.062110
 459	2.2900e-01	18.3107	110.984824	0.000606	6.061325	2.053633	0.048397
 460	2.2950e-01	18.3556	111.287306	0.000758	7.576657	2.567041	0.060496
 461	2.3000e-01	18.3765	111.622053	0.000838	8.384834	2.840859	0.066949
 462	2.3050e-01	18.4246	111.807576	0.000465	4.647016	1.574452	0.037105
 463	2.3100e-01	18.4535	112.101992	0.000737	7.374613	2.498586	0.058883
 464	2.3150e-01	18.5000	112.400441	0.000748	7.475635	2.532814	0.059690
 465	2.3200e-01	18.5353	112.670659	0.000677	6.768480	2.293223	0.054044
 466	2.3250e-01	18.5706	112.864248	0.000485	4.849060	1.642906	0.038718
 467	2.3300e-01	18.6139	113.211094	0.000869	8.687900	2.943540	0.069369
 468	2.3350e-01	18.6572	113.493411	0.000707	7.071546	2.395905	0.056463
 469	2.3400e-01	18.6973	113.727331	0.000586	5.859281	1.985178	0.046784
 470	2.3450e-01	18.7423	114.054012	0.000818	8.182789	2.772404	0.065336
 471	2.3500e-01	18.7679	114.320196	0.000667	6.667458	2.258996	0.053237
 472	2.3550e-01	18.8177	114.614613	0.000737	7.374613	2.498586	0.058883
 473	2.3600e-01	18.8626	114.852565	0.000596	5.960303	2.019405	0.047591
 474	2.3650e-01	18.8882	115.094551	0.000606	6.061325	2.053633	0.048397
 475	2.3700e-01	18.9299	115.401067	0.000768	7.677679	2.601268	0.061303
 476	2.3750e-01	18.9797	115.679351	0.000697	6.970524	2.361678	0.055657
 477	2.3800e-01	19.0214	115.929403	0.000626	6.263370	2.122087	0.050010
 478	2.3850e-01	19.0631	116.239951	0.000778	7.778701	2.635495	0.062110
 479	2.3900e-01	19.0968	116.441606	0.000505	5.051105	1.711361	0.040331
 480	2.3950e-01	19.1305	116.723923	0.000707	7.071546	2.395905	0.056463
 481	2.4000e-01	19.1770	116.994141	0.000677	6.768480	2.293223	0.054044
 482	2.4050e-01	19.2155	117.332921	0.000849	8.485856	2.875086	0.067756
 483	2.4100e-01	19.2604	117.659602	0.000818	8.182789	2.772404	0.065336
 484	2.4150e-01	19.3021	117.877389	0.000546	5.455193	1.848269	0.043557
 485	2.4200e-01	19.3390	118.127442	0.000626	6.263370	2.122087	0.050010
 486	2.4250e-01	19.3823	118.405725	0.000697	6.970524	2.361678	0.055657
 487	2.4300e-01	19.4160	118.692075	0.000717	7.172568	2.430132	0.057270
 488	2.4350e-01	19.4577	118.962293	0.000677	6.768480	2.293223	0.054044
 489	2.4400e-01	19.4930	119.224444	0.000657	6.566436	2.224769	0.052430
 490	2.4450e-01	19.5412	119.450298	0.000566	5.657237	1.916724	0.045171
 491	2.4500e-01	19.5829	119.736648	0.000717	7.172568	2.430132	0.057270
 492	2.4550e-01	19.6150	119.994766	0.000647	6.465414	2.190542	0.051624
 493	2.4600e-01	19.6470	120.273050	0.000697	6.970524	2.361678	0.055657
 494	2.4650e-01	19.6936	120.523102	0.000626	6.263370	2.122087	0.050010
 495	2.4700e-01	19.7273	120.817518	0.000737	7.374613	2.498586	0.058883
 496	2.4750e-01	19.7786	121.075637	0.000647	6.465414	2.190542	0.051624
 497	2.4800e-01	19.8187	121.361987	0.000717	7.172568	2.430132	0.057270
 498	2.4850e-01	19.8540	121.664469	0.000758	7.576657	2.567041	0.060496
 499	2.4900e-01	19.8941	121.910488	0.000616	6.162348	2.087860	0.049204
 500	2.4950e-01	19.9342	122.180706	0.000677	6.768480	2.293223	0.054044
 501	2.5000e-01	19.9727	122.454956	0.000687	6.869502	2.327450	0.054850
 502	2.5050e-01	19.9791	122.737273	0.000707	7.071546	2.395905	0.056463
 503	2.5100e-01	19.9454	122.999425	-0.000657	-6.566436	-2.224769	0.052430
 504	2.5150e-01	19.9117	123.184947	-0.000465	-4.647016	-1.574452	0.037105
 505	2.5200e-01	19.8604	123.386602	-0.000505	-5.051105	-1.711361	0.040331
 506	2.5250e-01	19.8267	123.555992	-0.000424	-4.242928	-1.437543	0.033878
 507	2.5300e-01	19.7866	123.660853	-0.000263	-2.626574	-0.889907	0.020972
 508	2.5350e-01	19.7465	123.842342	-0.000455	-4.545994	-1.540224	0.036298
 509	2.5400e-01	19.7048	123.939137	-0.000242	-2.424530	-0.821453	0.019359
 510	2.5450e-01	19.6631	123.983501	-0.000111	-1.111243	-0.376499	0.008873
 511	2.5500e-01	19.6214	124.035931	-0.000131	-1.313287	-0.444954	0.010486
 512	2.5550e-01	19.5941	124.084328	-0.000121	-1.212265	-0.410727	0.009679
 513	2.5600e-01	19.5460	124.100461	-0.000040	-0.404088	-0.136909	0.003226
 514	2.5650e-01	19.5107	124.112560	-0.000030	-0.303066	-0.102682	0.002420
 515	2.5700e-01	19.4690	124.152891	-0.000101	-1.010221	-0.342272	0.008066
 516	2.5750e-01	19.4289	124.124659	0.000071	0.707155	0.239590	-0.005646
 517	2.5800e-01	19.3888	124.124659	-0.000000	-0.000000	-0.000000	0.000000
 518	2.5850e-01	19.3535	124.096427	0.000071	0.707155	0.239590	-0.005646
 519	2.5900e-01	19.3150	124.027865	0.000172	1.717376	0.581863	-0.013713
 520	2.5950e-01	19.2781	123.947203	0.000202	2.020442	0.684544	-0.016132
 521	2.6000e-01	19.2396	123.918971	0.000071	0.707155	0.239590	-0.005646
 522	2.6050e-01	19.1995	123.878640	0.000101	1.010221	0.342272	-0.008066
 523	2.6100e-01	19.1497	123.842342	0.000091	0.909199	0.308045	-0.007260
 524	2.6150e-01	19.1209	123.709250	0.000333	3.333729	1.129498	-0.026618
 525	2.6200e-01	19.0743	123.668919	0.000101	1.010221	0.342272	-0.008066
 526	2.6250e-01	19.0294	123.519694	0.000374	3.737817	1.266407	-0.029845
 527	2.6300e-01	18.9941	123.418867	0.000253	2.525552	0.855680	-0.020165
 528	2.6350e-01	18.9492	123.358370	0.000152	1.515331	0.513408	-0.012099
 529	2.6400e-01	18.9091	123.265609	0.000232	2.323508	0.787226	-0.018552
 530	2.6450e-01	18.8802	123.152682	0.000283	2.828619	0.958362	-0.022585
 531	2.6500e-01	18.8353	123.047822	0.000263	2.626574	0.889907	-0.020972
 532	2.6550e-01	18.7904	122.938928	0.000273	2.727596	0.924135	-0.021779
 533	2.6600e-01	18.7503	122.785670	0.000384	3.838839	1.300634	-0.030652
 534	2.6650e-01	18.7150	122.684843	0.000253	2.525552	0.855680	-0.020165
 535	2.6700e-01	18.6717	122.519486	0.000414	4.141906	1.403316	-0.033071
 536	2.6750e-01	18.6428	122.374294	0.000364	3.636795	1.232180	-0.029038
 537	2.6800e-01	18.5882	122.208937	0.000414	4.141906	1.403316	-0.033071
 538	2.6850e-01	18.5465	122.075845	0.000333	3.333729	1.129498	-0.026618
 539	2.6900e-01	18.5096	121.983084	0.000232	2.323508	0.787226	-0.018552
 540	2.6950e-01	18.4759	121.837892	0.000364	3.636795	1.232180	-0.029038
 541	2.7000e-01	18.4326	121.737065	0.000253	2.525552	0.855680	-0.020165
 542	2.7050e-01	18.3957	121.563642	0.000434	4.343950	1.471770	-0.034685
 543	2.7100e-01	18.3524	121.422483	0.000354	3.535773	1.197952	-0.028232
 544	2.7150e-01	18.3075	121.212762	0.000525	5.253149	1.779815	-0.041944
 545	2.7200e-01	18.2754	121.103868	0.000273	2.727596	0.924135	-0.021779
 546	2.7250e-01	18.2353	120.914313	0.000475	4.748038	1.608679	-0.037911
 547	2.7300e-01	18.2032	120.716691	0.000495	4.950082	1.677133	-0.039524
 548	2.7350e-01	18.1615	120.563433	0.000384	3.838839	1.300634	-0.030652
 549	2.7400e-01	18.1166	120.442440	0.000303	3.030663	1.026816	-0.024199
 550	2.7450e-01	18.0733	120.281116	0.000404	4.040884	1.369088	-0.032265
 551	2.7500e-01	18.0380	120.051230	0.000576	5.758259	1.950951	-0.045977
 552	2.7550e-01	18.0043	119.869740	0.000455	4.545994	1.540224	-0.036298
 553	2.7600e-01	17.9546	119.728582	0.000354	3.535773	1.197952	-0.028232
 554	2.7650e-01	17.9161	119.534993	0.000485	4.849060	1.642906	-0.038718
 555	2.7700e-01	17.8760	119.393834	0.000354	3.535773	1.197952	-0.028232
 556	2.7750e-01	17.8246	119.293007	0.000253	2.525552	0.855680	-0.020165
 557	2.7800e-01	17.7925	119.055054	0.000596	5.960303	2.019405	-0.047591
 558	2.7850e-01	17.7492	118.881631	0.000434	4.343950	1.471770	-0.034685
 559	2.7900e-01	17.7139	118.655777	0.000566	5.657237	1.916724	-0.045171
 560	2.7950e-01	17.6819	118.530751	0.000313	3.131685	1.061044	-0.025005
 561	2.8000e-01	17.6337	118.312964	0.000546	5.455193	1.848269	-0.043557
 562	2.8050e-01	17.5968	118.155673	0.000394	3.939862	1.334861	-0.031458
 563	2.8100e-01	17.5647	117.925787	0.000576	5.758259	1.950951	-0.045977
 564	2.8150e-01	17.5182	117.756396	0.000424	4.242928	1.437543	-0.033878
 565	2.8200e-01	17.4669	117.566841	0.000475	4.748038	1.608679	-0.037911
 566	2.8250e-01	17.4300	117.385351	0.000455	4.545994	1.540224	-0.036298
 567	2.8300e-01	17.3883	117.139332	0.000616	6.162348	2.087860	-0.049204
 568	2.8350e-01	17.3530	116.965909	0.000434	4.343950	1.471770	-0.034685
 569	2.8400e-01	17.3065	116.828784	0.000343	3.434751	1.163725	-0.027425
 570	2.8450e-01	17.2744	116.627129	0.000505	5.051105	1.711361	-0.040331
 571	2.8500e-01	17.2423	116.465805	0.000404	4.040884	1.369088	-0.032265
 572	2.8550e-01	17.1974	116.256084	0.000525	5.253149	1.779815	-0.041944
 573	2.8600e-01	17.1525	116.062495	0.000485	4.849060	1.642906	-0.038718
 574	2.8650e-01	17.1124	115.881006	0.000455	4.545994	1.540224	-0.036298
 575	2.8700e-01	17.0738	115.655152	0.000566	5.657237	1.916724	-0.045171
 576	2.8750e-01	17.0353	115.465596	0.000475	4.748038	1.608679	-0.037911
 577	2.8800e-01	16.9985	115.288140	0.000444	4.444972	1.505997	-0.035491
 578	2.8850e-01	16.9551	115.114717	0.000434	4.343950	1.471770	-0.034685
 579	2.8900e-01	16.9134	115.090518	0.000061	0.606133	0.205363	-0.004840
 580	2.8950e-01	16.8781	114.634778	0.001142	11.415496	3.867675	-0.091148
 581	2.9000e-01	16.8364	114.537984	0.000242	2.424530	0.821453	-0.019359
 582	2.9050e-01	16.8027	114.352461	0.000465	4.647016	1.574452	-0.037105
 583	2.9100e-01	16.7514	114.094343	0.000647	6.465414	2.190542	-0.051624
 584	2.9150e-01	16.7209	113.941085	0.000384	3.838839	1.300634	-0.030652
 585	2.9200e-01	16.6776	113.751530	0.000475	4.748038	1.608679	-0.037911
 586	2.9250e-01	16.6295	113.505511	0.000616	6.162348	2.087860	-0.049204
 587	2.9300e-01	16.5910	113.376451	0.000323	3.232707	1.095271	-0.025812
 588	2.9350e-01	16.5541	113.130432	0.000616	6.162348	2.087860	-0.049204
 589	2.9400e-01	16.5188	112.940877	0.000475	4.748038	1.608679	-0.037911
 590	2.9450e-01	16.4739	112.739222	0.000505	5.051105	1.711361	-0.040331
 591	2.9500e-01	16.4434	112.501269	0.000596	5.960303	2.019405	-0.047591
 592	2.9550e-01	16.3872	112.339945	0.000404	4.040884	1.369088	-0.032265
 593	2.9600e-01	16.3552	112.142323	0.000495	4.950082	1.677133	-0.039524
 594	2.9650e-01	16.3118	111.884205	0.000647	6.465414	2.190542	-0.051624
 595	2.9700e-01	16.2701	111.670451	0.000535	5.354171	1.814042	-0.042751
 596	2.9750e-01	16.2268	111.484928	0.000465	4.647016	1.574452	-0.037105
 597	2.9800e-01	16.1979	111.226810	0.000647	6.465414	2.190542	-0.051624
 598	2.9850e-01	16.1659	111.065486	0.000404	4.040884	1.369088	-0.032265
 599	2.9900e-01	16.1193	110.867864	0.000495	4.950082	1.677133	-0.039524
 600	2.9950e-01	16.0776	110.654110	0.000535	5.354171	1.814042	-0.042751
 601	3.0000e-01	16.0215	110.444389	0.000525	5.253149	1.779815	-0.041944
 602	3.0050e-01	15.9974	110.250800	0.000485	4.849060	1.642906	-0.038718
 603	3.0100e-01	15.9557	110.041079	0.000525	5.253149	1.779815	-0.041944
 604	3.0150e-01	15.9124	109.855556	0.000465	4.647016	1.574452	-0.037105
 605	3.0200e-01	15.8707	109.629703	0.000566	5.657237	1.916724	-0.045171
 606	3.0250e-01	15.8322	109.411915	0.000546	5.455193	1.848269	-0.043557
 607	3.0300e-01	15.7985	109.258658	0.000384	3.838839	1.300634	-0.030652
 608	3.0350e-01	15.7552	109.036837	0.000556	5.556215	1.882497	-0.044364
 609	3.0400e-01	15.7183	108.843249	0.000485	4.849060	1.642906	-0.038718
 610	3.0450e-01	15.6766	108.625461	0.000546	5.455193	1.848269	-0.043557
 611	3.0500e-01	15.6381	108.379442	0.000616	6.162348	2.087860	-0.049204
 612	3.0550e-01	15.5947	108.105191	0.000687	6.869502	2.327450	-0.054850
 613	3.0600e-01	15.5546	107.931768	0.000434	4.343950	1.471770	-0.034685
 614	3.0650e-01	15.5145	107.734146	0.000495	4.950082	1.677133	-0.039524
 615	3.0700e-01	15.4728	107.528458	0.000515	5.152127	1.745588	-0.041138
 616	3.0750e-01	15.4295	107.346969	0.000455	4.545994	1.540224	-0.036298
 617	3.0800e-01	15.3974	107.133215	0.000535	5.354171	1.814042	-0.042751
 618	3.0850e-01	15.3605	106.899295	0.000586	5.859281	1.985178	-0.046784
 619	3.0900e-01	15.3188	106.725872	0.000434	4.343950	1.471770	-0.034685
 620	3.0950e-01	15.2739	106.487919	0.000596	5.960303	2.019405	-0.047591
 621	3.1000e-01	15.2386	106.262065	0.000566	5.657237	1.916724	-0.045171
 622	3.1050e-01	15.1937	106.020080	0.000606	6.061325	2.053633	-0.048397
 623	3.1100e-01	15.1552	105.814391	0.000515	5.152127	1.745588	-0.041138
 624	3.1150e-01	15.1167	105.596604	0.000546	5.455193	1.848269	-0.043557
 625	3.1200e-01	15.0814	105.346552	0.000626	6.263370	2.122087	-0.050010
 626	3.1250e-01	15.0349	105.197327	0.000374	3.737817	1.266407	-0.029845
 627	3.1300e-01	14.9916	104.975507	0.000556	5.556215	1.882497	-0.044364
 628	3.1350e-01	14.9466	104.781918	0.000485	4.849060	1.642906	-0.038718
 629	3.1400e-01	14.9162	104.552032	0.000576	5.758259	1.950951	-0.045977
 630	3.1450e-01	14.8728	104.297946	0.000636	6.364392	2.156314	-0.050817
 631	3.1500e-01	14.8424	104.088225	0.000525	5.253149	1.779815	-0.041944
 632	3.1550e-01	14.7878	103.898670	0.000475	4.748038	1.608679	-0.037911
 633	3.1600e-01	14.7557	103.672816	0.000566	5.657237	1.916724	-0.045171
 634	3.1650e-01	14.7140	103.450996	0.000556	5.556215	1.882497	-0.044364
 635	3.1700e-01	14.6803	103.241275	0.000525	5.253149	1.779815	-0.041944
 636	3.1750e-01	14.6354	102.971057	0.000677	6.768480	2.293223	-0.054044
 637	3.1800e-01	14.5905	102.761336	0.000525	5.253149	1.779815	-0.041944
 638	3.1850e-01	14.5616	102.543549	0.000546	5.455193	1.848269	-0.043557
 639	3.1900e-01	14.5103	102.333827	0.000525	5.253149	1.779815	-0.041944
 640	3.1950e-01	14.4718	102.107974	0.000566	5.657237	1.916724	-0.045171
 641	3.2000e-01	14.4365	101.926484	0.000455	4.545994	1.540224	-0.036298
 642	3.2050e-01	14.3980	101.716763	0.000525	5.253149	1.779815	-0.041944
 643	3.2100e-01	14.3563	101.486877	0.000576	5.758259	1.950951	-0.045977
 644	3.2150e-01	14.3258	101.265056	0.000556	5.556215	1.882497	-0.044364
 645	3.2200e-01	14.2793	101.010971	0.000636	6.364392	2.156314	-0.050817
 646	3.2250e-01	14.2295	100.845614	0.000414	4.141906	1.403316	-0.033071
 647	3.2300e-01	14.1878	100.619760	0.000566	5.657237	1.916724	-0.045171
 648	3.2350e-01	14.1558	100.317278	0.000758	7.576657	2.567041	-0.060496
 649	3.2400e-01	14.1092	100.115623	0.000505	5.051105	1.711361	-0.040331
 650	3.2450e-01	14.0675	99.865571	0.000626	6.263370	2.122087	-0.050010
 651	3.2500e-01	14.0402	99.680049	0.000465	4.647016	1.574452	-0.037105
 652	3.2550e-01	13.9889	99.450162	0.000576	5.758259	1.950951	-0.045977
 653	3.2600e-01	13.9504	99.292871	0.000394	3.939862	1.334861	-0.031458
 654	3.2650e-01	13.9039	99.038786	0.000636	6.364392	2.156314	-0.050817
 655	3.2700e-01	13.8654	98.780668	0.000647	6.465414	2.190542	-0.051624
 656	3.2750e-01	13.8349	98.554814	0.000566	5.657237	1.916724	-0.045171
 657	3.2800e-01	13.7996	98.316861	0.000596	5.960303	2.019405	-0.047591
 658	3.2850e-01	13.7499	98.054710	0.000657	6.566436	2.224769	-0.052430
 659	3.2900e-01	13.7066	97.869187	0.000465	4.647016	1.574452	-0.037105
 660	3.2950e-01	13.6809	97.627201	0.000606	6.061325	2.053633	-0.048397
 661	3.3000e-01	13.6296	97.473944	0.000384	3.838839	1.300634	-0.030652
 662	3.3050e-01	13.5879	97.203726	0.000677	6.768480	2.293223	-0.054044
 663	3.3100e-01	13.5494	96.953674	0.000626	6.263370	2.122087	-0.050010
 664	3.3150e-01	13.5108	96.735887	0.000546	5.455193	1.848269	-0.043557
 665	3.3200e-01	13.4707	96.514066	0.000556	5.556215	1.882497	-0.044364
 666	3.3250e-01	13.4371	96.223683	0.000727	7.273591	2.464359	-0.058077
 667	3.3300e-01	13.4018	96.022028	0.000505	5.051105	1.711361	-0.040331
 668	3.3350e-01	13.3584	95.796175	0.000566	5.657237	1.916724	-0.045171
 669	3.3400e-01	13.3199	95.586453	0.000525	5.253149	1.779815	-0.041944
 670	3.3450e-01	13.2718	95.360600	0.000566	5.657237	1.916724	-0.045171
 671	3.3500e-01	13.2365	95.167011	0.000485	4.849060	1.642906	-0.038718
 672	3.3550e-01	13.1900	94.941158	0.000566	5.657237	1.916724	-0.045171
 673	3.3600e-01	13.1499	94.650775	0.000727	7.273591	2.464359	-0.058077
 674	3.3650e-01	13.1178	94.432987	0.000546	5.455193	1.848269	-0.043557
 675	3.3700e-01	13.0569	94.211167	0.000556	5.556215	1.882497	-0.044364
 676	3.3750e-01	13.0344	93.944982	0.000667	6.667458	2.258996	-0.053237
 677	3.3800e-01	12.9991	93.739294	0.000515	5.152127	1.745588	-0.041138
 678	3.3850e-01	12.9574	93.533606	0.000515	5.152127	1.745588	-0.041138
 679	3.3900e-01	12.9157	93.287587	0.000616	6.162348	2.087860	-0.049204
 680	3.3950e-01	12.8756	93.057701	0.000576	5.758259	1.950951	-0.045977
 681	3.4000e-01	12.8355	92.860079	0.000495	4.950082	1.677133	-0.039524
 682	3.4050e-01	12.7809	92.577762	0.000707	7.071546	2.395905	-0.056463
 683	3.4100e-01	12.7617	92.384173	0.000485	4.849060	1.642906	-0.038718
 684	3.4150e-01	12.7087	92.162353	0.000556	5.556215	1.882497	-0.044364
 685	3.4200e-01	12.6783	91.896168	0.000667	6.667458	2.258996	-0.053237
 686	3.4250e-01	12.6398	91.658215	0.000596	5.960303	2.019405	-0.047591
 687	3.4300e-01	12.6012	91.400097	0.000647	6.465414	2.190542	-0.051624
 688	3.4350e-01	12.5611	91.190376	0.000525	5.253149	1.779815	-0.041944
 689	3.4400e-01	12.5178	90.988721	0.000505	5.051105	1.711361	-0.040331
 690	3.4450e-01	12.4825	90.750768	0.000596	5.960303	2.019405	-0.047591
 691	3.4500e-01	12.4456	90.500716	0.000626	6.263370	2.122087	-0.050010
 692	3.4550e-01	12.3895	90.375690	0.000313	3.131685	1.061044	-0.025005
 693	3.4600e-01	12.3526	90.028844	0.000869	8.687900	2.943540	-0.069369
 694	3.4650e-01	12.3157	89.823156	0.000515	5.152127	1.745588	-0.041138
 695	3.4700e-01	12.2756	89.528739	0.000737	7.374613	2.498586	-0.058883
 696	3.4750e-01	12.2435	89.339184	0.000475	4.748038	1.608679	-0.037911
 697	3.4800e-01	12.1906	89.093165	0.000616	6.162348	2.087860	-0.049204
 698	3.4850e-01	12.1617	88.887477	0.000515	5.152127	1.745588	-0.041138
 699	3.4900e-01	12.1168	88.689855	0.000495	4.950082	1.677133	-0.039524
 700	3.4950e-01	12.0719	88.387372	0.000758	7.576657	2.567041	-0.060496
 701	3.5000e-01	12.0301	88.165552	0.000556	5.556215	1.882497	-0.044364
 702	3.5050e-01	11.9948	87.919533	0.000616	6.162348	2.087860	-0.049204
 703	3.5100e-01	11.9563	87.693679	0.000566	5.657237	1.916724	-0.045171
 704	3.5150e-01	11.9275	87.443627	0.000626	6.263370	2.122087	-0.050010
 705	3.5200e-01	11.8697	87.197608	0.000616	6.162348	2.087860	-0.049204
 706	3.5250e-01	11.8408	86.907225	0.000727	7.273591	2.464359	-0.058077
 707	3.5300e-01	11.7911	86.729769	0.000444	4.444972	1.505997	-0.035491
 708	3.5350e-01	11.7558	86.507948	0.000556	5.556215	1.882497	-0.044364
 709	3.5400e-01	11.7173	86.193367	0.000788	7.879723	2.669722	-0.062916
 710	3.5450e-01	11.6676	86.019944	0.000434	4.343950	1.471770	-0.034685
 711	3.5500e-01	11.6403	85.761825	0.000647	6.465414	2.190542	-0.051624
 712	3.5550e-01	11.5906	85.552104	0.000525	5.253149	1.779815	-0.041944
 713	3.5600e-01	11.5569	85.362548	0.000475	4.748038	1.608679	-0.037911
 714	3.5650e-01	11.5248	85.060066	0.000758	7.576657	2.567041	-0.060496
 715	3.5700e-01	11.4719	84.801948	0.000647	6.465414	2.190542	-0.051624
 716	3.5750e-01	11.4302	84.580127	0.000556	5.556215	1.882497	-0.044364
 717	3.5800e-01	11.3965	84.354274	0.000566	5.657237	1.916724	-0.045171
 718	3.5850e-01	11.3516	84.092122	0.000657	6.566436	2.224769	-0.052430
 719	3.5900e-01	11.3259	83.809806	0.000707	7.071546	2.395905	-0.056463
 720	3.5950e-01	11.2697	83.632349	0.000444	4.444972	1.505997	-0.035491
 721	3.6000e-01	11.2377	83.321801	0.000778	7.778701	2.635495	-0.062110
 722	3.6050e-01	11.1911	83.104013	0.000546	5.455193	1.848269	-0.043557
 723	3.6100e-01	11.1639	82.898325	0.000515	5.152127	1.745588	-0.041138
 724	3.6150e-01	11.1189	82.704736	0.000485	4.849060	1.642906	-0.038718
 725	3.6200e-01	11.0788	82.446618	0.000647	6.465414	2.190542	-0.051624
 726	3.6250e-01	11.0371	82.212698	0.000586	5.859281	1.985178	-0.046784
 727	3.6300e-01	10.9970	81.962646	0.000626	6.263370	2.122087	-0.050010
 728	3.6350e-01	10.9505	81.696462	0.000667	6.667458	2.258996	-0.053237
 729	3.6400e-01	10.9248	81.406079	0.000727	7.273591	2.464359	-0.058077
 730	3.6450e-01	10.8751	81.156027	0.000626	6.263370	2.122087	-0.050010
 731	3.6500e-01	10.8382	80.942272	0.000535	5.354171	1.814042	-0.042751
 732	3.6550e-01	10.8045	80.688187	0.000636	6.364392	2.156314	-0.050817
 733	3.6600e-01	10.7532	80.446201	0.000606	6.061325	2.053633	-0.048397
 734	3.6650e-01	10.7131	80.248579	0.000495	4.950082	1.677133	-0.039524
 735	3.6700e-01	10.6746	80.034825	0.000535	5.354171	1.814042	-0.042751
 736	3.6750e-01	10.6457	79.768641	0.000667	6.667458	2.258996	-0.053237
 737	3.6800e-01	10.5976	79.522622	0.000616	6.162348	2.087860	-0.049204
 738	3.6850e-01	10.5607	79.220139	0.000758	7.576657	2.567041	-0.060496
 739	3.6900e-01	10.5157	79.010418	0.000525	5.253149	1.779815	-0.041944
 740	3.6950e-01	10.4821	78.808763	0.000505	5.051105	1.711361	-0.040331
 741	3.7000e-01	10.4436	78.498215	0.000778	7.778701	2.635495	-0.062110
 742	3.7050e-01	10.3922	78.248163	0.000626	6.263370	2.122087	-0.050010
 743	3.7100e-01	10.3521	78.026342	0.000556	5.556215	1.882497	-0.044364
 744	3.7150e-01	10.3152	77.776290	0.000626	6.263370	2.122087	-0.050010
 745	3.7200e-01	10.2719	77.530271	0.000616	6.162348	2.087860	-0.049204
 746	3.7250e-01	10.2382	77.300384	0.000576	5.758259	1.950951	-0.045977
 747	3.7300e-01	10.2013	77.054365	0.000616	6.162348	2.087860	-0.049204
 748	3.7350e-01	10.1484	76.784148	0.000677	6.768480	2.293223	-0.054044
 749	3.7400e-01	10.1067	76.582493	0.000505	5.051105	1.711361	-0.040331
 750	3.7450e-01	10.0730	76.312275	0.000677	6.768480	2.293223	-0.054044
 751	3.7500e-01	10.0313	76.066256	0.000616	6.162348	2.087860	-0.049204
 752	3.7550e-01	10.0008	75.868634	0.000495	4.950082	1.677133	-0.039524
 753	3.7600e-01	9.9511	75.489523	0.000950	9.496077	3.217358	-0.075822
 754	3.7650e-01	9.9206	75.324166	0.000414	4.141906	1.403316	-0.033071
 755	3.7700e-01	9.8580	75.062015	0.000657	6.566436	2.224769	-0.052430
 756	3.7750e-01	9.8356	74.799863	0.000657	6.566436	2.224769	-0.052430
 757	3.7800e-01	9.8003	74.578043	0.000556	5.556215	1.882497	-0.044364
 758	3.7850e-01	9.7618	74.323958	0.000636	6.364392	2.156314	-0.050817
 759	3.7900e-01	9.7249	74.086005	0.000596	5.960303	2.019405	-0.047591
 760	3.7950e-01	9.6831	73.819820	0.000667	6.667458	2.258996	-0.053237
 761	3.8000e-01	9.6430	73.581867	0.000596	5.960303	2.019405	-0.047591
 762	3.8050e-01	9.5997	73.323749	0.000647	6.465414	2.190542	-0.051624
 763	3.8100e-01	9.5548	73.077730	0.000616	6.162348	2.087860	-0.049204
 764	3.8150e-01	9.5163	72.835744	0.000606	6.061325	2.053633	-0.048397
 765	3.8200e-01	9.4714	72.601824	0.000586	5.859281	1.985178	-0.046784
 766	3.8250e-01	9.4377	72.327574	0.000687	6.869502	2.327450	-0.054850
 767	3.8300e-01	9.3992	72.073489	0.000636	6.364392	2.156314	-0.050817
 768	3.8350e-01	9.3479	71.811337	0.000657	6.566436	2.224769	-0.052430
 769	3.8400e-01	9.3126	71.569351	0.000606	6.061325	2.053633	-0.048397
 770	3.8450e-01	9.2757	71.379796	0.000475	4.748038	1.608679	-0.037911
 771	3.8500e-01	9.2388	71.093446	0.000717	7.172568	2.430132	-0.057270
 772	3.8550e-01	9.2067	70.839360	0.000636	6.364392	2.156314	-0.050817
 773	3.8600e-01	9.1457	70.569143	0.000677	6.768480	2.293223	-0.054044
 774	3.8650e-01	9.1185	70.323124	0.000616	6.162348	2.087860	-0.049204
 775	3.8700e-01	9.0751	70.065005	0.000647	6.465414	2.190542	-0.051624
 776	3.8750e-01	9.0302	69.770589	0.000737	7.374613	2.498586	-0.058883
 777	3.8800e-01	8.9933	69.621365	0.000374	3.737817	1.266407	-0.029845
 778	3.8850e-01	8.9645	69.339048	0.000707	7.071546	2.395905	-0.056463
 779	3.8900e-01	8.9211	69.052698	0.000717	7.172568	2.430132	-0.057270
 780	3.8950e-01	8.8730	68.798613	0.000636	6.364392	2.156314	-0.050817
 781	3.9000e-01	8.8393	68.532428	0.000667	6.667458	2.258996	-0.053237
 782	3.9050e-01	8.7880	68.274310	0.000647	6.465414	2.190542	-0.051624
 783	3.9100e-01	8.7527	68.040390	0.000586	5.859281	1.985178	-0.046784
 784	3.9150e-01	8.7142	67.794371	0.000616	6.162348	2.087860	-0.049204
 785	3.9200e-01	8.6741	67.580617	0.000535	5.354171	1.814042	-0.042751
 786	3.9250e-01	8.6308	67.314432	0.000667	6.667458	2.258996	-0.053237
 787	3.9300e-01	8.5987	67.108744	0.000515	5.152127	1.745588	-0.041138
 788	3.9350e-01	8.5538	66.810295	0.000748	7.475635	2.532814	-0.059690
 789	3.9400e-01	8.5217	66.523945	0.000717	7.172568	2.430132	-0.057270
 790	3.9450e-01	8.4848	66.281959	0.000606	6.061325	2.053633	-0.048397
 791	3.9500e-01	8.4415	66.060139	0.000556	5.556215	1.882497	-0.044364
 792	3.9550e-01	8.3998	65.761689	0.000748	7.475635	2.532814	-0.059690
 793	3.9600e-01	8.3500	65.467273	0.000737	7.374613	2.498586	-0.058883
 794	3.9650e-01	8.3147	65.237386	0.000576	5.758259	1.950951	-0.045977
 795	3.9700e-01	8.2746	64.987334	0.000626	6.263370	2.122087	-0.050010
 796	3.9750e-01	8.2345	64.729216	0.000647	6.465414	2.190542	-0.051624
 797	3.9800e-01	8.1976	64.491263	0.000596	5.960303	2.019405	-0.047591
 798	3.9850e-01	8.1495	64.229112	0.000657	6.566436	2.224769	-0.052430
 799	3.9900e-01	8.1190	63.991159	0.000596	5.960303	2.019405	-0.047591
 800	3.9950e-01	8.0757	63.700776	0.000727	7.273591	2.464359	-0.058077
 801	4.0000e-01	8.0404	63.474922	0.000566	5.657237	1.916724	-0.045171
 802	4.0050e-01	7.9939	63.212771	0.000657	6.566436	2.224769	-0.052430
 803	4.0100e-01	7.9490	62.966752	0.000616	6.162348	2.087860	-0.049204
 804	4.0150e-01	7.9057	62.692501	0.000687	6.869502	2.327450	-0.054850
 805	4.0200e-01	7.8672	62.458582	0.000586	5.859281	1.985178	-0.046784
 806	4.0250e-01	7.8495	62.156099	0.000758	7.576657	2.567041	-0.060496
 807	4.0300e-01	7.7982	61.962510	0.000485	4.849060	1.642906	-0.038718
 808	4.0350e-01	7.7549	61.664061	0.000748	7.475635	2.532814	-0.059690
 809	4.0400e-01	7.7276	61.385777	0.000697	6.970524	2.361678	-0.055657
 810	4.0450e-01	7.6827	61.107493	0.000697	6.970524	2.361678	-0.055657
 811	4.0500e-01	7.6410	60.857441	0.000626	6.263370	2.122087	-0.050010
 812	4.0550e-01	7.6025	60.595290	0.000657	6.566436	2.224769	-0.052430
 813	4.0600e-01	7.5607	60.317006	0.000697	6.970524	2.361678	-0.055657
 814	4.0650e-01	7.5158	60.079053	0.000596	5.960303	2.019405	-0.047591
 815	4.0700e-01	7.4805	59.824968	0.000636	6.364392	2.156314	-0.050817
 816	4.0750e-01	7.4420	59.582982	0.000606	6.061325	2.053633	-0.048397
 817	4.0800e-01	7.3955	59.353096	0.000576	5.758259	1.950951	-0.045977
 818	4.0850e-01	7.3618	59.082878	0.000677	6.768480	2.293223	-0.054044
 819	4.0900e-01	7.3201	58.820727	0.000657	6.566436	2.224769	-0.052430
 820	4.0950e-01	7.2688	58.578741	0.000606	6.061325	2.053633	-0.048397
 821	4.1000e-01	7.2383	58.272225	0.000768	7.677679	2.601268	-0.061303
 822	4.1050e-01	7.1950	58.042339	0.000576	5.758259	1.950951	-0.045977
 823	4.1100e-01	7.1693	57.780187	0.000657	6.566436	2.224769	-0.052430
 824	4.1150e-01	7.1228	57.542234	0.000596	5.960303	2.019405	-0.047591
 825	4.1200e-01	7.0715	57.239752	0.000758	7.576657	2.567041	-0.060496
 826	4.1250e-01	7.0410	56.973567	0.000667	6.667458	2.258996	-0.053237
 827	4.1300e-01	7.0009	56.727548	0.000616	6.162348	2.087860	-0.049204
 828	4.1350e-01	6.9608	56.473463	0.000636	6.364392	2.156314	-0.050817
 829	4.1400e-01	6.9223	56.162915	0.000778	7.778701	2.635495	-0.062110
 830	4.1450e-01	6.8806	55.933028	0.000576	5.758259	1.950951	-0.045977
 831	4.1500e-01	6.8260	55.739439	0.000485	4.849060	1.642906	-0.038718
 832	4.1550e-01	6.8036	55.473255	0.000667	6.667458	2.258996	-0.053237
 833	4.1600e-01	6.7570	55.166739	0.000768	7.677679	2.601268	-0.061303
 834	4.1650e-01	6.7330	54.912654	0.000636	6.364392	2.156314	-0.050817
 835	4.1700e-01	6.6784	54.630337	0.000707	7.071546	2.395905	-0.056463
 836	4.1750e-01	6.6319	54.432715	0.000495	4.950082	1.677133	-0.039524
 837	4.1800e-01	6.5934	54.146365	0.000717	7.172568	2.430132	-0.057270
 838	4.1850e-01	6.5581	53.872115	0.000687	6.869502	2.327450	-0.054850
 839	4.1900e-01	6.5180	53.517202	0.000889	8.889944	3.011995	-0.070983
 840	4.1950e-01	6.4779	53.339746	0.000444	4.444972	1.505997	-0.035491
 841	4.2000e-01	6.4378	53.065495	0.000687	6.869502	2.327450	-0.054850
 842	4.2050e-01	6.3897	52.775112	0.000727	7.273591	2.464359	-0.058077
 843	4.2100e-01	6.3576	52.589589	0.000465	4.647016	1.574452	-0.037105
 844	4.2150e-01	6.3239	52.323405	0.000667	6.667458	2.258996	-0.053237
 845	4.2200e-01	6.2870	52.004790	0.000798	7.980745	2.703950	-0.063723
 846	4.2250e-01	6.2389	51.698274	0.000768	7.677679	2.601268	-0.061303
 847	4.2300e-01	6.1955	51.545017	0.000384	3.838839	1.300634	-0.030652
 848	4.2350e-01	6.1651	51.238501	0.000768	7.677679	2.601268	-0.061303
 849	4.2400e-01	6.1185	50.964250	0.000687	6.869502	2.327450	-0.054850
 850	4.2450e-01	6.0768	50.722265	0.000606	6.061325	2.053633	-0.048397
 851	4.2500e-01	6.0351	50.391550	0.000828	8.283811	2.806631	-0.066143
 852	4.2550e-01	6.0030	50.173763	0.000546	5.455193	1.848269	-0.043557
 853	4.2600e-01	5.9485	49.899512	0.000687	6.869502	2.327450	-0.054850
 854	4.2650e-01	5.9100	49.673659	0.000566	5.657237	1.916724	-0.045171
 855	4.2700e-01	5.8891	49.403441	0.000677	6.768480	2.293223	-0.054044
 856	4.2750e-01	5.8282	49.165489	0.000596	5.960303	2.019405	-0.047591
 857	4.2800e-01	5.7993	48.838808	0.000818	8.182789	2.772404	-0.065336
 858	4.2850e-01	5.7560	48.604888	0.000586	5.859281	1.985178	-0.046784
 859	4.2900e-01	5.7159	48.354836	0.000626	6.263370	2.122087	-0.050010
 860	4.2950e-01	5.6838	48.064453	0.000727	7.273591	2.464359	-0.058077
 861	4.3000e-01	5.6405	47.790202	0.000687	6.869502	2.327450	-0.054850
 862	4.3050e-01	5.6052	47.511918	0.000697	6.970524	2.361678	-0.055657
 863	4.3100e-01	5.5635	47.294131	0.000546	5.455193	1.848269	-0.043557
 864	4.3150e-01	5.5170	47.019880	0.000687	6.869502	2.327450	-0.054850
 865	4.3200e-01	5.4785	46.753696	0.000667	6.667458	2.258996	-0.053237
 866	4.3250e-01	5.4448	46.451213	0.000758	7.576657	2.567041	-0.060496
 867	4.3300e-01	5.4079	46.197128	0.000636	6.364392	2.156314	-0.050817
 868	4.3350e-01	5.3613	45.902712	0.000737	7.374613	2.498586	-0.058883
 869	4.3400e-01	5.3196	45.612329	0.000727	7.273591	2.464359	-0.058077
 870	4.3450e-01	5.2811	45.346144	0.000667	6.667458	2.258996	-0.053237
 871	4.3500e-01	5.2282	45.136423	0.000525	5.253149	1.779815	-0.041944
 872	4.3550e-01	5.1945	44.918636	0.000546	5.455193	1.848269	-0.043557
 873	4.3600e-01	5.1560	44.555657	0.000909	9.091988	3.080449	-0.072596
 874	4.3650e-01	5.1143	44.337869	0.000546	5.455193	1.848269	-0.043557
 875	4.3700e-01	5.0758	44.031354	0.000768	7.677679	2.601268	-0.061303
 876	4.3750e-01	5.0389	43.813567	0.000546	5.455193	1.848269	-0.043557
 877	4.3800e-01	4.9988	43.555448	0.000647	6.465414	2.190542	-0.051624
 878	4.3850e-01	4.9603	43.289264	0.000667	6.667458	2.258996	-0.053237
 879	4.3900e-01	4.9218	42.990815	0.000748	7.475635	2.532814	-0.059690
 880	4.3950e-01	4.8801	42.704465	0.000717	7.172568	2.430132	-0.057270
 881	4.4000e-01	4.8352	42.426181	0.000697	6.970524	2.361678	-0.055657
 882	4.4050e-01	4.7951	42.224526	0.000505	5.051105	1.711361	-0.040331
 883	4.4100e-01	4.7598	41.942209	0.000707	7.071546	2.395905	-0.056463
 884	4.4150e-01	4.7309	41.591329	0.000879	8.788922	2.977767	-0.070176
 885	4.4200e-01	4.6860	41.377575	0.000535	5.354171	1.814042	-0.042751
 886	4.4250e-01	4.6330	41.075093	0.000758	7.576657	2.567041	-0.060496
 887	4.4300e-01	4.6009	40.869405	0.000515	5.152127	1.745588	-0.041138
 888	4.4350e-01	4.5544	40.603220	0.000667	6.667458	2.258996	-0.053237
 889	4.4400e-01	4.5159	40.324936	0.000697	6.970524	2.361678	-0.055657
 890	4.4450e-01	4.4822	40.050686	0.000687	6.869502	2.327450	-0.054850
 891	4.4500e-01	4.4389	39.711905	0.000849	8.485856	2.875086	-0.067756
 892	4.4550e-01	4.3956	39.433622	0.000697	6.970524	2.361678	-0.055657
 893	4.4600e-01	4.3394	39.219867	0.000535	5.354171	1.814042	-0.042751
 894	4.4650e-01	4.3170	38.941584	0.000697	6.970524	2.361678	-0.055657
 895	4.4700e-01	4.2753	38.667333	0.000687	6.869502	2.327450	-0.054850
 896	4.4750e-01	4.2464	38.409215	0.000647	6.465414	2.190542	-0.051624
 897	4.4800e-01	4.1983	38.171262	0.000596	5.960303	2.019405	-0.047591
 898	4.4850e-01	4.1614	37.913143	0.000647	6.465414	2.190542	-0.051624
 899	4.4900e-01	4.1245	37.566297	0.000869	8.687900	2.943540	-0.069369
 900	4.4950e-01	4.0764	37.360609	0.000515	5.152127	1.745588	-0.041138
 901	4.5000e-01	4.0379	37.054093	0.000768	7.677679	2.601268	-0.061303
 902	4.5050e-01	4.0010	36.791942	0.000657	6.566436	2.224769	-0.052430
 903	4.5100e-01	3.9560	36.525757	0.000667	6.667458	2.258996	-0.053237
 904	4.5150e-01	3.9191	36.182944	0.000859	8.586878	2.909313	-0.068563
 905	4.5200e-01	3.8742	35.981289	0.000505	5.051105	1.711361	-0.040331
 906	4.5250e-01	3.8389	35.686873	0.000737	7.374613	2.498586	-0.058883
 907	4.5300e-01	3.7972	35.416655	0.000677	6.768480	2.293223	-0.054044
 908	4.5350e-01	3.7619	35.146438	0.000677	6.768480	2.293223	-0.054044
 909	4.5400e-01	3.7138	34.835889	0.000778	7.778701	2.635495	-0.062110
 910	4.5450e-01	3.6737	34.601969	0.000586	5.859281	1.985178	-0.046784
 911	4.5500e-01	3.6384	34.351917	0.000626	6.263370	2.122087	-0.050010
 912	4.5550e-01	3.6063	34.069600	0.000707	7.071546	2.395905	-0.056463
 913	4.5600e-01	3.5550	33.787284	0.000707	7.071546	2.395905	-0.056463
 914	4.5650e-01	3.5309	33.513033	0.000687	6.869502	2.327450	-0.054850
 915	4.5700e-01	3.4748	33.271047	0.000606	6.061325	2.053633	-0.048397
 916	4.5750e-01	3.4427	32.968565	0.000758	7.576657	2.567041	-0.060496
 917	4.5800e-01	3.4010	32.658016	0.000778	7.778701	2.635495	-0.062110
 918	4.5850e-01	3.3577	32.428129	0.000576	5.758259	1.950951	-0.045977
 919	4.5900e-01	3.3240	32.125647	0.000758	7.576657	2.567041	-0.060496
 920	4.5950e-01	3.2774	31.879628	0.000616	6.162348	2.087860	-0.049204
 921	4.6000e-01	3.2438	31.556980	0.000808	8.081767	2.738177	-0.064530
 922	4.6050e-01	3.2037	31.343226	0.000535	5.354171	1.814042	-0.042751
 923	4.6100e-01	3.1603	31.000412	0.000859	8.586878	2.909313	-0.068563
 924	4.6150e-01	3.1138	30.778592	0.000556	5.556215	1.882497	-0.044364
 925	4.6200e-01	3.0785	30.407547	0.000929	9.294032	3.148903	-0.074209
 926	4.6250e-01	3.0384	30.270422	0.000343	3.434751	1.163725	-0.027425
 927	4.6300e-01	2.9967	29.967939	0.000758	7.576657	2.567041	-0.060496
 928	4.6350e-01	2.9614	29.681589	0.000717	7.172568	2.430132	-0.057270
 929	4.6400e-01	2.9213	29.443636	0.000596	5.960303	2.019405	-0.047591
 930	4.6450e-01	2.8764	29.112922	0.000828	8.283811	2.806631	-0.066143
 931	4.6500e-01	2.8283	28.842705	0.000677	6.768480	2.293223	-0.054044
 932	4.6550e-01	2.8042	28.620884	0.000556	5.556215	1.882497	-0.044364
 933	4.6600e-01	2.7641	28.318402	0.000758	7.576657	2.567041	-0.060496
 934	4.6650e-01	2.7208	28.036085	0.000707	7.071546	2.395905	-0.056463
 935	4.6700e-01	2.6823	27.749735	0.000717	7.172568	2.430132	-0.057270
 936	4.6750e-01	2.6358	27.507749	0.000606	6.061325	2.053633	-0.048397
 937	4.6800e-01	2.5973	27.241565	0.000667	6.667458	2.258996	-0.053237
 938	4.6850e-01	2.5652	26.951181	0.000727	7.273591	2.464359	-0.058077
 939	4.6900e-01	2.5170	26.680964	0.000677	6.768480	2.293223	-0.054044
 940	4.6950e-01	2.4817	26.402680	0.000697	6.970524	2.361678	-0.055657
 941	4.7000e-01	2.4352	26.140529	0.000657	6.566436	2.224769	-0.052430
 942	4.7050e-01	2.4015	25.870311	0.000677	6.768480	2.293223	-0.054044
 943	4.7100e-01	2.3534	25.579928	0.000727	7.273591	2.464359	-0.058077
 944	4.7150e-01	2.3117	25.305677	0.000687	6.869502	2.327450	-0.054850
 945	4.7200e-01	2.2780	25.059658	0.000616	6.162348	2.087860	-0.049204
 946	4.7250e-01	2.2523	24.728944	0.000828	8.283811	2.806631	-0.066143
 947	4.7300e-01	2.1978	24.458726	0.000677	6.768480	2.293223	-0.054044
 948	4.7350e-01	2.1545	24.172376	0.000717	7.172568	2.430132	-0.057270
 949	4.7400e-01	2.1224	23.906192	0.000667	6.667458	2.258996	-0.053237
 950	4.7450e-01	2.0839	23.635974	0.000677	6.768480	2.293223	-0.054044
 951	4.7500e-01	2.0390	23.369790	0.000667	6.667458	2.258996	-0.053237
 952	4.7550e-01	2.0069	23.119738	0.000626	6.263370	2.122087	-0.050010
 953	4.7600e-01	1.9620	22.845487	0.000687	6.869502	2.327450	-0.054850
 954	4.7650e-01	1.9171	22.551071	0.000737	7.374613	2.498586	-0.058883
 955	4.7700e-01	1.8818	22.292953	0.000647	6.465414	2.190542	-0.051624
 956	4.7750e-01	1.8433	22.010636	0.000707	7.071546	2.395905	-0.056463
 957	4.7800e-01	1.7967	21.760584	0.000626	6.263370	2.122087	-0.050010
 958	4.7850e-01	1.7647	21.474234	0.000717	7.172568	2.430132	-0.057270
 959	4.7900e-01	1.7181	21.179817	0.000737	7.374613	2.498586	-0.058883
 960	4.7950e-01	1.6780	20.901534	0.000697	6.970524	2.361678	-0.055657
 961	4.8000e-01	1.6347	20.607117	0.000737	7.374613	2.498586	-0.058883
 962	4.8050e-01	1.5994	20.324800	0.000707	7.071546	2.395905	-0.056463
 963	4.8100e-01	1.5641	20.054583	0.000677	6.768480	2.293223	-0.054044
 964	4.8150e-01	1.5160	19.792431	0.000657	6.566436	2.224769	-0.052430
 965	4.8200e-01	1.4823	19.481883	0.000778	7.778701	2.635495	-0.062110
 966	4.8250e-01	1.4438	19.227798	0.000636	6.364392	2.156314	-0.050817
 967	4.8300e-01	1.4005	18.969679	0.000647	6.465414	2.190542	-0.051624
 968	4.8350e-01	1.3588	18.715594	0.000636	6.364392	2.156314	-0.050817
 969	4.8400e-01	1.3219	18.384880	0.000828	8.283811	2.806631	-0.066143
 970	4.8450e-01	1.2738	18.126762	0.000647	6.465414	2.190542	-0.051624
 971	4.8500e-01	1.2337	17.852511	0.000687	6.869502	2.327450	-0.054850
 972	4.8550e-01	1.2144	17.598426	0.000636	6.364392	2.156314	-0.050817
 973	4.8600e-01	1.1631	17.279811	0.000798	7.980745	2.703950	-0.063723
 974	4.8650e-01	1.1214	16.993461	0.000717	7.172568	2.430132	-0.057270
 975	4.8700e-01	1.0764	16.731310	0.000657	6.566436	2.224769	-0.052430
 976	4.8750e-01	1.0379	16.440926	0.000727	7.273591	2.464359	-0.058077
 977	4.8800e-01	0.9930	16.178775	0.000657	6.566436	2.224769	-0.052430
 978	4.8850e-01	0.9593	15.856127	0.000808	8.081767	2.738177	-0.064530
 979	4.8900e-01	0.9224	15.565744	0.000727	7.273591	2.464359	-0.058077
 980	4.8950e-01	0.8823	15.323758	0.000606	6.061325	2.053633	-0.048397
 981	4.9000e-01	0.8358	15.077739	0.000616	6.162348	2.087860	-0.049204
 982	4.9050e-01	0.8117	14.787356	0.000727	7.273591	2.464359	-0.058077
 983	4.9100e-01	0.7620	14.553436	0.000586	5.859281	1.985178	-0.046784
 984	4.9150e-01	0.7251	14.226755	0.000818	8.182789	2.772404	-0.065336
 985	4.9200e-01	0.6722	13.944438	0.000707	7.071546	2.395905	-0.056463
 986	4.9250e-01	0.6417	13.674221	0.000677	6.768480	2.293223	-0.054044
 987	4.9300e-01	0.6016	13.335441	0.000849	8.485856	2.875086	-0.067756
 988	4.9350e-01	0.5615	13.133786	0.000505	5.051105	1.711361	-0.040331
 989	4.9400e-01	0.5198	12.807105	0.000818	8.182789	2.772404	-0.065336
 990	4.9450e-01	0.4684	12.512688	0.000737	7.374613	2.498586	-0.058883
 991	4.9500e-01	0.4267	12.230372	0.000707	7.071546	2.395905	-0.056463
 992	4.9550e-01	0.3914	11.976286	0.000636	6.364392	2.156314	-0.050817
 993	4.9600e-01	0.3577	11.738333	0.000596	5.960303	2.019405	-0.047591
 994	4.9650e-01	0.3289	11.399553	0.000849	8.485856	2.875086	-0.067756
 995	4.9700e-01	0.2743	11.169667	0.000576	5.758259	1.950951	-0.045977
 996	4.9750e-01	0.2390	10.899449	0.000677	6.768480	2.293223	-0.054044
 997	4.9800e-01	0.1973	10.568735	0.000828	8.283811	2.806631	-0.066143
 998	4.9850e-01	0.1556	10.354981	0.000535	5.354171	1.814042	-0.042751
 999	4.9900e-01	0.1235	10.020233	0.000838	8.384834	2.840859	-0.066949
1000	4.9950e-01	0.0882	9.721784	0.000748	7.475635	2.532814	-0.059690
1001	5.0000e-01	0.0481	9.479798	0.000606	6.061325	2.053633	-0.048397
1002	5.0050e-01	0.0080	9.217647	0.000657	6.566436	2.224769	-0.052430
1003	5.0100e-01	-0.0353	8.894999	0.000808	8.081767	2.738177	-0.064530
1004	5.0150e-01	-0.0722	8.677212	0.000546	5.455193	1.848269	-0.043557
1005	5.0200e-01	-0.1155	8.390862	0.000717	7.172568	2.430132	-0.057270
1006	5.0250e-01	-0.1572	8.116611	0.000687	6.869502	2.327450	-0.054850
1007	5.0300e-01	-0.1909	7.781864	0.000838	8.384834	2.840859	-0.066949
1008	5.0350e-01	-0.2358	7.547944	0.000586	5.859281	1.985178	-0.046784
1009	5.0400e-01	-0.2775	7.269660	0.000697	6.970524	2.361678	-0.055657
1010	5.0450e-01	-0.3208	6.987343	0.000707	7.071546	2.395905	-0.056463
1011	5.0500e-01	-0.3610	6.878450	0.000273	2.727596	0.924135	-0.021779
1012	5.0550e-01	-0.4011	6.394478	0.001212	12.122651	4.107265	-0.096794
1013	5.0600e-01	-0.4299	6.152492	0.000606	6.061325	2.053633	-0.048397
1014	5.0650e-01	-0.4781	5.902440	0.000626	6.263370	2.122087	-0.050010
1015	5.0700e-01	-0.5085	5.567693	0.000838	8.384834	2.840859	-0.066949
1016	5.0750e-01	-0.5535	5.321674	0.000616	6.162348	2.087860	-0.049204
1017	5.0800e-01	-0.5823	5.015158	0.000768	7.677679	2.601268	-0.061303
1018	5.0850e-01	-0.6305	4.753007	0.000657	6.566436	2.224769	-0.052430
1019	5.0900e-01	-0.6786	4.511021	0.000606	6.061325	2.053633	-0.048397
1020	5.0950e-01	-0.7123	4.196439	0.000788	7.879723	2.669722	-0.062916
1021	5.1000e-01	-0.7524	3.906056	0.000727	7.273591	2.464359	-0.058077
1022	5.1050e-01	-0.7941	3.647938	0.000647	6.465414	2.190542	-0.051624
1023	5.1100e-01	-0.8326	3.385786	0.000657	6.566436	2.224769	-0.052430
1024	5.1150e-01	-0.8711	3.107502	0.000697	6.970524	2.361678	-0.055657
1025	5.1200e-01	-0.9176	2.837285	0.000677	6.768480	2.293223	-0.054044
1026	5.1250e-01	-0.9545	2.522703	0.000788	7.879723	2.669722	-0.062916
1027	5.1300e-01	-0.9962	2.216188	0.000768	7.677679	2.601268	-0.061303
1028	5.1350e-01	-1.0363	1.974202	0.000606	6.061325	2.053633	-0.048397
1029	5.1400e-01	-1.0732	1.651554	0.000808	8.081767	2.738177	-0.064530
1030	5.1450e-01	-1.1182	1.425700	0.000566	5.657237	1.916724	-0.045171
1031	5.1500e-01	-1.1518	1.151450	0.000687	6.869502	2.327450	-0.054850
1032	5.1550e-01	-1.1903	0.865100	0.000717	7.172568	2.430132	-0.057270
1033	5.1600e-01	-1.2353	0.574717	0.000727	7.273591	2.464359	-0.058077
1034	5.1650e-01	-1.2754	0.244002	0.000828	8.283811	2.806631	-0.066143
1035	5.1700e-01	-1.3123	0.014116	0.000576	5.758259	1.950951	-0.045977
1036	5.1750e-01	-1.3540	-0.260135	0.000687	6.869502	2.327450	-0.054850
1037	5.1800e-01	-1.3941	-0.534386	0.000687	6.869502	2.327450	-0.054850
1038	5.1850e-01	-1.4326	-0.804603	0.000677	6.768480	2.293223	-0.054044
1039	5.1900e-01	-1.4631	-1.119185	0.000788	7.879723	2.669722	-0.062916
1040	5.1950e-01	-1.5128	-1.369237	0.000626	6.263370	2.122087	-0.050010
1041	5.2000e-01	-1.5465	-1.643488	0.000687	6.869502	2.327450	-0.054850
1042	5.2050e-01	-1.5962	-1.929838	0.000717	7.172568	2.430132	-0.057270
1043	5.2100e-01	-1.6347	-2.232320	0.000758	7.576657	2.567041	-0.060496
1044	5.2150e-01	-1.6844	-2.502538	0.000677	6.768480	2.293223	-0.054044
1045	5.2200e-01	-1.7181	-2.821152	0.000798	7.980745	2.703950	-0.063723
1046	5.2250e-01	-1.7518	-3.103469	0.000707	7.071546	2.395905	-0.056463
1047	5.2300e-01	-1.7983	-3.321257	0.000546	5.455193	1.848269	-0.043557
1048	5.2350e-01	-1.8288	-3.623739	0.000758	7.576657	2.567041	-0.060496
1049	5.2400e-01	-1.8753	-3.893957	0.000677	6.768480	2.293223	-0.054044
1050	5.2450e-01	-1.9171	-4.188373	0.000737	7.374613	2.498586	-0.058883
1051	5.2500e-01	-1.9475	-4.494888	0.000768	7.677679	2.601268	-0.061303
1052	5.2550e-01	-1.9973	-4.744941	0.000626	6.263370	2.122087	-0.050010
1053	5.2600e-01	-2.0374	-5.035324	0.000727	7.273591	2.464359	-0.058077
1054	5.2650e-01	-2.0663	-5.309574	0.000687	6.869502	2.327450	-0.054850
1055	5.2700e-01	-2.1048	-5.603991	0.000737	7.374613	2.498586	-0.058883
1056	5.2750e-01	-2.1497	-5.882274	0.000697	6.970524	2.361678	-0.055657
1057	5.2800e-01	-2.1914	-6.217021	0.000838	8.384834	2.840859	-0.066949
1058	5.2850e-01	-2.2299	-6.422710	0.000515	5.152127	1.745588	-0.041138
1059	5.2900e-01	-2.2780	-6.737291	0.000788	7.879723	2.669722	-0.062916
1060	5.2950e-01	-2.3133	-7.019608	0.000707	7.071546	2.395905	-0.056463
1061	5.3000e-01	-2.3614	-7.277726	0.000647	6.465414	2.190542	-0.051624
1062	5.3050e-01	-2.3983	-7.580209	0.000758	7.576657	2.567041	-0.060496
1063	5.3100e-01	-2.4368	-7.850426	0.000677	6.768480	2.293223	-0.054044
1064	5.3150e-01	-2.4753	-8.116611	0.000667	6.667458	2.258996	-0.053237
1065	5.3200e-01	-2.5010	-8.431193	0.000788	7.879723	2.669722	-0.062916
1066	5.3250e-01	-2.5555	-8.677212	0.000616	6.162348	2.087860	-0.049204
1067	5.3300e-01	-2.5940	-8.955495	0.000697	6.970524	2.361678	-0.055657
1068	5.3350e-01	-2.6374	-9.229746	0.000687	6.869502	2.327450	-0.054850
1069	5.3400e-01	-2.6775	-9.528195	0.000748	7.475635	2.532814	-0.059690
1070	5.3450e-01	-2.7224	-9.778248	0.000626	6.263370	2.122087	-0.050010
1071	5.3500e-01	-2.7577	-10.088796	0.000778	7.778701	2.635495	-0.062110
1072	5.3550e-01	-2.8074	-10.403378	0.000788	7.879723	2.669722	-0.062916
1073	5.3600e-01	-2.8379	-10.665529	0.000657	6.566436	2.224769	-0.052430
1074	5.3650e-01	-2.8844	-10.947846	0.000707	7.071546	2.395905	-0.056463
1075	5.3700e-01	-2.9213	-11.205964	0.000647	6.465414	2.190542	-0.051624
1076	5.3750e-01	-2.9566	-11.512480	0.000768	7.677679	2.601268	-0.061303
1077	5.3800e-01	-2.9999	-11.762532	0.000626	6.263370	2.122087	-0.050010
1078	5.3850e-01	-3.0368	-12.052915	0.000727	7.273591	2.464359	-0.058077
1079	5.3900e-01	-3.0689	-12.339265	0.000717	7.172568	2.430132	-0.057270
1080	5.3950e-01	-3.1202	-12.617549	0.000697	6.970524	2.361678	-0.055657
1081	5.4000e-01	-3.1587	-12.928098	0.000778	7.778701	2.635495	-0.062110
1082	5.4050e-01	-3.1940	-13.145885	0.000546	5.455193	1.848269	-0.043557
1083	5.4100e-01	-3.2389	-13.452400	0.000768	7.677679	2.601268	-0.061303
1084	5.4150e-01	-3.2758	-13.791181	0.000849	8.485856	2.875086	-0.067756
1085	5.4200e-01	-3.3079	-14.065431	0.000687	6.869502	2.327450	-0.054850
1086	5.4250e-01	-3.3528	-14.303384	0.000596	5.960303	2.019405	-0.047591
1087	5.4300e-01	-3.4042	-14.569569	0.000667	6.667458	2.258996	-0.053237
1088	5.4350e-01	-3.4411	-14.863985	0.000737	7.374613	2.498586	-0.058883
1089	5.4400e-01	-3.4764	-15.142269	0.000697	6.970524	2.361678	-0.055657
1090	5.4450e-01	-3.5133	-15.456850	0.000788	7.879723	2.669722	-0.062916
1091	5.4500e-01	-3.5518	-15.666572	0.000525	5.253149	1.779815	-0.041944
1092	5.4550e-01	-3.5806	-15.960988	0.000737	7.374613	2.498586	-0.058883
1093	5.4600e-01	-3.6352	-16.227172	0.000667	6.667458	2.258996	-0.053237
1094	5.4650e-01	-3.6689	-16.529655	0.000758	7.576657	2.567041	-0.060496
1095	5.4700e-01	-3.7138	-16.799872	0.000677	6.768480	2.293223	-0.054044
1096	5.4750e-01	-3.7475	-17.074123	0.000687	6.869502	2.327450	-0.054850
1097	5.4800e-01	-3.7956	-17.368539	0.000737	7.374613	2.498586	-0.058883
1098	5.4850e-01	-3.8405	-17.622624	0.000636	6.364392	2.156314	-0.050817
1099	5.4900e-01	-3.8758	-17.925107	0.000758	7.576657	2.567041	-0.060496
1100	5.4950e-01	-3.9111	-18.231622	0.000768	7.677679	2.601268	-0.061303
1101	5.5000e-01	-3.9544	-18.461509	0.000576	5.758259	1.950951	-0.045977
1102	5.5050e-01	-3.9961	-18.763991	0.000758	7.576657	2.567041	-0.060496
1103	5.5100e-01	-4.0346	-19.038242	0.000687	6.869502	2.327450	-0.054850
1104	5.5150e-01	-4.0731	-19.304426	0.000667	6.667458	2.258996	-0.053237
1105	5.5200e-01	-4.1116	-19.594810	0.000727	7.273591	2.464359	-0.058077
1106	5.5250e-01	-4.1502	-19.836795	0.000606	6.061325	2.053633	-0.048397
1107	5.5300e-01	-4.1887	-20.163476	0.000818	8.182789	2.772404	-0.065336
1108	5.5350e-01	-4.2400	-20.433694	0.000677	6.768480	2.293223	-0.054044
1109	5.5400e-01	-4.2801	-20.724077	0.000727	7.273591	2.464359	-0.058077
1110	5.5450e-01	-4.3202	-21.010427	0.000717	7.172568	2.430132	-0.057270
1111	5.5500e-01	-4.3475	-21.272579	0.000657	6.566436	2.224769	-0.052430
1112	5.5550e-01	-4.3924	-21.542796	0.000677	6.768480	2.293223	-0.054044
1113	5.5600e-01	-4.4341	-21.849312	0.000768	7.677679	2.601268	-0.061303
1114	5.5650e-01	-4.4662	-22.139695	0.000727	7.273591	2.464359	-0.058077
1115	5.5700e-01	-4.5159	-22.454276	0.000788	7.879723	2.669722	-0.062916
1116	5.5750e-01	-4.5496	-22.720461	0.000667	6.667458	2.258996	-0.053237
1117	5.5800e-01	-4.5929	-22.942281	0.000556	5.556215	1.882497	-0.044364
1118	5.5850e-01	-4.6330	-23.277029	0.000838	8.384834	2.840859	-0.066949
1119	5.5900e-01	-4.6747	-23.527081	0.000626	6.263370	2.122087	-0.050010
1120	5.5950e-01	-4.7052	-23.789232	0.000657	6.566436	2.224769	-0.052430
1121	5.6000e-01	-4.7485	-24.047350	0.000647	6.465414	2.190542	-0.051624
1122	5.6050e-01	-4.7951	-24.374031	0.000818	8.182789	2.772404	-0.065336
1123	5.6100e-01	-4.8319	-24.644249	0.000677	6.768480	2.293223	-0.054044
1124	5.6150e-01	-4.8721	-24.938665	0.000737	7.374613	2.498586	-0.058883
1125	5.6200e-01	-4.9202	-25.241148	0.000758	7.576657	2.567041	-0.060496
1126	5.6250e-01	-4.9442	-25.475067	0.000586	5.859281	1.985178	-0.046784
1127	5.6300e-01	-5.0004	-25.717053	0.000606	6.061325	2.053633	-0.048397
1128	5.6350e-01	-5.0405	-26.043734	0.000818	8.182789	2.772404	-0.065336
1129	5.6400e-01	-5.0758	-26.281687	0.000596	5.960303	2.019405	-0.047591
1130	5.6450e-01	-5.1191	-26.535772	0.000636	6.364392	2.156314	-0.050817
1131	5.6500e-01	-5.1528	-26.818089	0.000707	7.071546	2.395905	-0.056463
1132	5.6550e-01	-5.1913	-27.064108	0.000616	6.162348	2.087860	-0.049204
1133	5.6600e-01	-5.2314	-27.398855	0.000838	8.384834	2.840859	-0.066949
1134	5.6650e-01	-5.2779	-27.717470	0.000798	7.980745	2.703950	-0.063723
1135	5.6700e-01	-5.3084	-27.943324	0.000566	5.657237	1.916724	-0.045171
1136	5.6750e-01	-5.3485	-28.241773	0.000748	7.475635	2.532814	-0.059690
1137	5.6800e-01	-5.3998	-28.568454	0.000818	8.182789	2.772404	-0.065336
1138	5.6850e-01	-5.4432	-28.774142	0.000515	5.152127	1.745588	-0.041138
1139	5.6900e-01	-5.4688	-29.072591	0.000748	7.475635	2.532814	-0.059690
1140	5.6950e-01	-5.5202	-29.371041	0.000748	7.475635	2.532814	-0.059690
1141	5.7000e-01	-5.5506	-29.657391	0.000717	7.172568	2.430132	-0.057270
1142	5.7050e-01	-5.6020	-29.947774	0.000727	7.273591	2.464359	-0.058077
1143	5.7100e-01	-5.6437	-30.181693	0.000586	5.859281	1.985178	-0.046784
1144	5.7150e-01	-5.6694	-30.484176	0.000758	7.576657	2.567041	-0.060496
1145	5.7200e-01	-5.7159	-30.786658	0.000758	7.576657	2.567041	-0.060496
1146	5.7250e-01	-5.7528	-31.056876	0.000677	6.768480	2.293223	-0.054044
1147	5.7300e-01	-5.7913	-31.290796	0.000586	5.859281	1.985178	-0.046784
1148	5.7350e-01	-5.8346	-31.613443	0.000808	8.081767	2.738177	-0.064530
1149	5.7400e-01	-5.8795	-31.867529	0.000636	6.364392	2.156314	-0.050817
1150	5.7450e-01	-5.9068	-32.153879	0.000717	7.172568	2.430132	-0.057270
1151	5.7500e-01	-5.9437	-32.416030	0.000657	6.566436	2.224769	-0.052430
1152	5.7550e-01	-5.9870	-32.686248	0.000677	6.768480	2.293223	-0.054044
1153	5.7600e-01	-6.0399	-32.960498	0.000687	6.869502	2.327450	-0.054850
1154	5.7650e-01	-6.0736	-33.226683	0.000667	6.667458	2.258996	-0.053237
1155	5.7700e-01	-6.1153	-33.521099	0.000737	7.374613	2.498586	-0.058883
1156	5.7750e-01	-6.1474	-33.775184	0.000636	6.364392	2.156314	-0.050817
1157	5.7800e-01	-6.1988	-34.093799	0.000798	7.980745	2.703950	-0.063723
1158	5.7850e-01	-6.2340	-34.343851	0.000626	6.263370	2.122087	-0.050010
1159	5.7900e-01	-6.2774	-34.634234	0.000727	7.273591	2.464359	-0.058077
1160	5.7950e-01	-6.3111	-34.912518	0.000697	6.970524	2.361678	-0.055657
1161	5.8000e-01	-6.3592	-35.219034	0.000768	7.677679	2.601268	-0.061303
1162	5.8050e-01	-6.3977	-35.485218	0.000667	6.667458	2.258996	-0.053237
1163	5.8100e-01	-6.4330	-35.711072	0.000566	5.657237	1.916724	-0.045171
1164	5.8150e-01	-6.4683	-35.973223	0.000657	6.566436	2.224769	-0.052430
1165	5.8200e-01	-6.5132	-36.279738	0.000768	7.677679	2.601268	-0.061303
1166	5.8250e-01	-6.5437	-36.582221	0.000758	7.576657	2.567041	-0.060496
1167	5.8300e-01	-6.5966	-36.824207	0.000606	6.061325	2.053633	-0.048397
1168	5.8350e-01	-6.6287	-37.110557	0.000717	7.172568	2.430132	-0.057270
1169	5.8400e-01	-6.6752	-37.376741	0.000667	6.667458	2.258996	-0.053237
1170	5.8450e-01	-6.7073	-37.683257	0.000768	7.677679	2.601268	-0.061303
1171	5.8500e-01	-6.7522	-37.965574	0.000707	7.071546	2.395905	-0.056463
1172	5.8550e-01	-6.7939	-38.243857	0.000697	6.970524	2.361678	-0.055657
1173	5.8600e-01	-6.8340	-38.501976	0.000647	6.465414	2.190542	-0.051624
1174	5.8650e-01	-6.8790	-38.784293	0.000707	7.071546	2.395905	-0.056463
1175	5.8700e-01	-6.9094	-39.030312	0.000616	6.162348	2.087860	-0.049204
1176	5.8750e-01	-6.9527	-39.332794	0.000758	7.576657	2.567041	-0.060496
1177	5.8800e-01	-7.0025	-39.526383	0.000485	4.849060	1.642906	-0.038718
1178	5.8850e-01	-7.0346	-39.853064	0.000818	8.182789	2.772404	-0.065336
1179	5.8900e-01	-7.0763	-40.159579	0.000768	7.677679	2.601268	-0.061303
1180	5.8950e-01	-7.1244	-40.393499	0.000586	5.859281	1.985178	-0.046784
1181	5.9000e-01	-7.1501	-40.708081	0.000788	7.879723	2.669722	-0.062916
1182	5.9050e-01	-7.1902	-40.986365	0.000697	6.970524	2.361678	-0.055657
1183	5.9100e-01	-7.2255	-41.252549	0.000667	6.667458	2.258996	-0.053237
1184	5.9150e-01	-7.2736	-41.514700	0.000657	6.566436	2.224769	-0.052430
1185	5.9200e-01	-7.3169	-41.918010	0.001010	10.102209	3.422721	-0.080662
1186	5.9250e-01	-7.3554	-42.043036	0.000313	3.131685	1.061044	-0.025005
1187	5.9300e-01	-7.3955	-42.317287	0.000687	6.869502	2.327450	-0.054850
1188	5.9350e-01	-7.4276	-42.648001	0.000828	8.283811	2.806631	-0.066143
1189	5.9400e-01	-7.4693	-42.881921	0.000586	5.859281	1.985178	-0.046784
1190	5.9450e-01	-7.5094	-43.188436	0.000768	7.677679	2.601268	-0.061303
1191	5.9500e-01	-7.5415	-43.406224	0.000546	5.455193	1.848269	-0.043557
1192	5.9550e-01	-7.5880	-43.668375	0.000657	6.566436	2.224769	-0.052430
1193	5.9600e-01	-7.6281	-43.986990	0.000798	7.980745	2.703950	-0.063723
1194	5.9650e-01	-7.6746	-44.253174	0.000667	6.667458	2.258996	-0.053237
1195	5.9700e-01	-7.7196	-44.543558	0.000727	7.273591	2.464359	-0.058077
1196	5.9750e-01	-7.7533	-44.781510	0.000596	5.960303	2.019405	-0.047591
1197	5.9800e-01	-7.7934	-45.096092	0.000788	7.879723	2.669722	-0.062916
1198	5.9850e-01	-7.8319	-45.338078	0.000606	6.061325	2.053633	-0.048397
1199	5.9900e-01	-7.8832	-45.632494	0.000737	7.374613	2.498586	-0.058883
1200	5.9950e-01	-7.9153	-45.930943	0.000748	7.475635	2.532814	-0.059690
1201	6.0000e-01	-7.9570	-46.213260	0.000707	7.071546	2.395905	-0.056463
1202	6.0050e-01	-7.9891	-46.427015	0.000535	5.354171	1.814042	-0.042751
1203	6.0100e-01	-8.0324	-46.677067	0.000626	6.263370	2.122087	-0.050010
1204	6.0150e-01	-8.0773	-46.967450	0.000727	7.273591	2.464359	-0.058077
1205	6.0200e-01	-8.1126	-47.290098	0.000808	8.081767	2.738177	-0.064530
1206	6.0250e-01	-8.1431	-47.515951	0.000566	5.657237	1.916724	-0.045171
1207	6.0300e-01	-8.1880	-47.826500	0.000778	7.778701	2.635495	-0.062110
1208	6.0350e-01	-8.2377	-48.088651	0.000657	6.566436	2.224769	-0.052430
1209	6.0400e-01	-8.2746	-48.326604	0.000596	5.960303	2.019405	-0.047591
1210	6.0450e-01	-8.3260	-48.629086	0.000758	7.576657	2.567041	-0.060496
1211	6.0500e-01	-8.3581	-48.887205	0.000647	6.465414	2.190542	-0.051624
1212	6.0550e-01	-8.3950	-49.157422	0.000677	6.768480	2.293223	-0.054044
1213	6.0600e-01	-8.4318	-49.447805	0.000727	7.273591	2.464359	-0.058077
1214	6.0650e-01	-8.4736	-49.713990	0.000667	6.667458	2.258996	-0.053237
1215	6.0700e-01	-8.5169	-50.004373	0.000727	7.273591	2.464359	-0.058077
1216	6.0750e-01	-8.5409	-50.298789	0.000737	7.374613	2.498586	-0.058883
1217	6.0800e-01	-8.5907	-50.536742	0.000596	5.960303	2.019405	-0.047591
1218	6.0850e-01	-8.6356	-50.831158	0.000737	7.374613	2.498586	-0.058883
1219	6.0900e-01	-8.6645	-51.153806	0.000808	8.081767	2.738177	-0.064530
1220	6.0950e-01	-8.7158	-51.363527	0.000525	5.253149	1.779815	-0.041944
1221	6.1000e-01	-8.7511	-51.621646	0.000647	6.465414	2.190542	-0.051624
1222	6.1050e-01	-8.7976	-51.855565	0.000586	5.859281	1.985178	-0.046784
1223	6.1100e-01	-8.8377	-52.145948	0.000727	7.273591	2.464359	-0.058077
1224	6.1150e-01	-8.8762	-52.440365	0.000737	7.374613	2.498586	-0.058883
1225	6.1200e-01	-8.9195	-52.686384	0.000616	6.162348	2.087860	-0.049204
1226	6.1250e-01	-8.9516	-52.960634	0.000687	6.869502	2.327450	-0.054850
1227	6.1300e-01	-8.9933	-53.206653	0.000616	6.162348	2.087860	-0.049204
1228	6.1350e-01	-9.0350	-53.476871	0.000677	6.768480	2.293223	-0.054044
1229	6.1400e-01	-9.0687	-53.779353	0.000758	7.576657	2.567041	-0.060496
1230	6.1450e-01	-9.1040	-54.069736	0.000727	7.273591	2.464359	-0.058077
1231	6.1500e-01	-9.1505	-54.331888	0.000657	6.566436	2.224769	-0.052430
1232	6.1550e-01	-9.1842	-54.598072	0.000667	6.667458	2.258996	-0.053237
1233	6.1600e-01	-9.2420	-54.844091	0.000616	6.162348	2.087860	-0.049204
1234	6.1650e-01	-9.2789	-55.110276	0.000667	6.667458	2.258996	-0.053237
1235	6.1700e-01	-9.3174	-55.372427	0.000657	6.566436	2.224769	-0.052430
1236	6.1750e-01	-9.3639	-55.662810	0.000727	7.273591	2.464359	-0.058077
1237	6.1800e-01	-9.3912	-55.892697	0.000576	5.758259	1.950951	-0.045977
1238	6.1850e-01	-9.4297	-56.239543	0.000869	8.687900	2.943540	-0.069369
1239	6.1900e-01	-9.4794	-56.461364	0.000556	5.556215	1.882497	-0.044364
1240	6.1950e-01	-9.5131	-56.727548	0.000667	6.667458	2.258996	-0.053237
1241	6.2000e-01	-9.5564	-57.030031	0.000758	7.576657	2.567041	-0.060496
1242	6.2050e-01	-9.5869	-57.272017	0.000606	6.061325	2.053633	-0.048397
1243	6.2100e-01	-9.6318	-57.582565	0.000778	7.778701	2.635495	-0.062110
1244	6.2150e-01	-9.6671	-57.828584	0.000616	6.162348	2.087860	-0.049204
1245	6.2200e-01	-9.7072	-58.090736	0.000657	6.566436	2.224769	-0.052430
1246	6.2250e-01	-9.7505	-58.336755	0.000616	6.162348	2.087860	-0.049204
1247	6.2300e-01	-9.7890	-58.687634	0.000879	8.788922	2.977767	-0.070176
1248	6.2350e-01	-9.8243	-58.909455	0.000556	5.556215	1.882497	-0.044364
1249	6.2400e-01	-9.8773	-59.151441	0.000606	6.061325	2.053633	-0.048397
1250	6.2450e-01	-9.9158	-59.441824	0.000727	7.273591	2.464359	-0.058077
1251	6.2500e-01	-9.9575	-59.679777	0.000596	5.960303	2.019405	-0.047591
1252	6.2550e-01	-9.9880	-59.941928	0.000657	6.566436	2.224769	-0.052430
1253	6.2600e-01	-10.0377	-60.212146	0.000677	6.768480	2.293223	-0.054044
1254	6.2650e-01	-10.0698	-60.502529	0.000727	7.273591	2.464359	-0.058077
1255	6.2700e-01	-10.1083	-60.744515	0.000606	6.061325	2.053633	-0.048397
1256	6.2750e-01	-10.1532	-61.014732	0.000677	6.768480	2.293223	-0.054044
1257	6.2800e-01	-10.1933	-61.297049	0.000707	7.071546	2.395905	-0.056463
1258	6.2850e-01	-10.2366	-61.543068	0.000616	6.162348	2.087860	-0.049204
1259	6.2900e-01	-10.2735	-61.849584	0.000768	7.677679	2.601268	-0.061303
1260	6.2950e-01	-10.3104	-62.091570	0.000606	6.061325	2.053633	-0.048397
1261	6.3000e-01	-10.3521	-62.345655	0.000636	6.364392	2.156314	-0.050817
1262	6.3050e-01	-10.3874	-62.563442	0.000546	5.455193	1.848269	-0.043557
1263	6.3100e-01	-10.4323	-62.865924	0.000758	7.576657	2.567041	-0.060496
1264	6.3150e-01	-10.4708	-63.188572	0.000808	8.081767	2.738177	-0.064530
1265	6.3200e-01	-10.5174	-63.442658	0.000636	6.364392	2.156314	-0.050817
1266	6.3250e-01	-10.5575	-63.708842	0.000667	6.667458	2.258996	-0.053237
1267	6.3300e-01	-10.5960	-63.914530	0.000515	5.152127	1.745588	-0.041138
1268	6.3350e-01	-10.6393	-64.200880	0.000717	7.172568	2.430132	-0.057270
1269	6.3400e-01	-10.6826	-64.442866	0.000606	6.061325	2.053633	-0.048397
1270	6.3450e-01	-10.7147	-64.705017	0.000657	6.566436	2.224769	-0.052430
1271	6.3500e-01	-10.7468	-64.906672	0.000505	5.051105	1.711361	-0.040331
1272	6.3550e-01	-10.7949	-65.249486	0.000859	8.586878	2.909313	-0.068563
1273	6.3600e-01	-10.8254	-65.560034	0.000778	7.778701	2.635495	-0.062110
1274	6.3650e-01	-10.8751	-65.802020	0.000606	6.061325	2.053633	-0.048397
1275	6.3700e-01	-10.9200	-66.076271	0.000687	6.869502	2.327450	-0.054850
1276	6.3750e-01	-10.9569	-66.294058	0.000546	5.455193	1.848269	-0.043557
1277	6.3800e-01	-11.0002	-66.580408	0.000717	7.172568	2.430132	-0.057270
1278	6.3850e-01	-11.0323	-66.878858	0.000748	7.475635	2.532814	-0.059690
1279	6.3900e-01	-11.0804	-67.141009	0.000657	6.566436	2.224769	-0.052430
1280	6.3950e-01	-11.1157	-67.387028	0.000616	6.162348	2.087860	-0.049204
1281	6.4000e-01	-11.1510	-67.612882	0.000566	5.657237	1.916724	-0.045171
1282	6.4050e-01	-11.1815	-67.935529	0.000808	8.081767	2.738177	-0.064530
1283	6.4100e-01	-11.2377	-68.149284	0.000535	5.354171	1.814042	-0.042751
1284	6.4150e-01	-11.2665	-68.407402	0.000647	6.465414	2.190542	-0.051624
1285	6.4200e-01	-11.3098	-68.669553	0.000657	6.566436	2.224769	-0.052430
1286	6.4250e-01	-11.3548	-68.984135	0.000788	7.879723	2.669722	-0.062916
1287	6.4300e-01	-11.3917	-69.238220	0.000636	6.364392	2.156314	-0.050817
1288	6.4350e-01	-11.4302	-69.488272	0.000626	6.263370	2.122087	-0.050010
1289	6.4400e-01	-11.4606	-69.774622	0.000717	7.172568	2.430132	-0.057270
1290	6.4450e-01	-11.5152	-69.988377	0.000535	5.354171	1.814042	-0.042751
1291	6.4500e-01	-11.5473	-70.234396	0.000616	6.162348	2.087860	-0.049204
1292	6.4550e-01	-11.5874	-70.540911	0.000768	7.677679	2.601268	-0.061303
1293	6.4600e-01	-11.6275	-70.790963	0.000626	6.263370	2.122087	-0.050010
1294	6.4650e-01	-11.6676	-71.020850	0.000576	5.758259	1.950951	-0.045977
1295	6.4700e-01	-11.7141	-71.278968	0.000647	6.465414	2.190542	-0.051624
1296	6.4750e-01	-11.7494	-71.553219	0.000687	6.869502	2.327450	-0.054850
1297	6.4800e-01	-11.7991	-71.859734	0.000768	7.677679	2.601268	-0.061303
1298	6.4850e-01	-11.8360	-72.089621	0.000576	5.758259	1.950951	-0.045977
1299	6.4900e-01	-11.8777	-72.367905	0.000697	6.970524	2.361678	-0.055657
1300	6.4950e-01	-11.9114	-72.605858	0.000596	5.960303	2.019405	-0.047591
1301	6.5000e-01	-11.9515	-72.880108	0.000687	6.869502	2.327450	-0.054850
1302	6.5050e-01	-11.9900	-73.130160	0.000626	6.263370	2.122087	-0.050010
1303	6.5100e-01	-12.0253	-73.412477	0.000707	7.071546	2.395905	-0.056463
1304	6.5150e-01	-12.0767	-73.642364	0.000576	5.758259	1.950951	-0.045977
1305	6.5200e-01	-12.1136	-73.848052	0.000515	5.152127	1.745588	-0.041138
1306	6.5250e-01	-12.1505	-74.158601	0.000778	7.778701	2.635495	-0.062110
1307	6.5300e-01	-12.2034	-74.440917	0.000707	7.071546	2.395905	-0.056463
1308	6.5350e-01	-12.2275	-74.682903	0.000606	6.061325	2.053633	-0.048397
1309	6.5400e-01	-12.2756	-74.928922	0.000616	6.162348	2.087860	-0.049204
1310	6.5450e-01	-12.3109	-75.183008	0.000636	6.364392	2.156314	-0.050817
1311	6.5500e-01	-12.3574	-75.441126	0.000647	6.465414	2.190542	-0.051624
1312	6.5550e-01	-12.3943	-75.727476	0.000717	7.172568	2.430132	-0.057270
1313	6.5600e-01	-12.4376	-75.957363	0.000576	5.758259	1.950951	-0.045977
1314	6.5650e-01	-12.4681	-76.231613	0.000687	6.869502	2.327450	-0.054850
1315	6.5700e-01	-12.5178	-76.534096	0.000758	7.576657	2.567041	-0.060496
1316	6.5750e-01	-12.5531	-76.735751	0.000505	5.051105	1.711361	-0.040331
1317	6.5800e-01	-12.5980	-76.997902	0.000657	6.566436	2.224769	-0.052430
1318	6.5850e-01	-12.6301	-77.284252	0.000717	7.172568	2.430132	-0.057270
1319	6.5900e-01	-12.6734	-77.530271	0.000616	6.162348	2.087860	-0.049204
1320	6.5950e-01	-12.7039	-77.772257	0.000606	6.061325	2.053633	-0.048397
1321	6.6000e-01	-12.7472	-78.058607	0.000717	7.172568	2.430132	-0.057270
1322	6.6050e-01	-12.7954	-78.280427	0.000556	5.556215	1.882497	-0.044364
1323	6.6100e-01	-12.8355	-78.546612	0.000667	6.667458	2.258996	-0.053237
1324	6.6150e-01	-12.8756	-78.820863	0.000687	6.869502	2.327450	-0.054850
1325	6.6200e-01	-12.9109	-79.099146	0.000697	6.970524	2.361678	-0.055657
1326	6.6250e-01	-12.9462	-79.329033	0.000576	5.758259	1.950951	-0.045977
1327	6.6300e-01	-12.9863	-79.579085	0.000626	6.263370	2.122087	-0.050010
1328	6.6350e-01	-13.0312	-79.837203	0.000647	6.465414	2.190542	-0.051624
1329	6.6400e-01	-13.0761	-80.111454	0.000687	6.869502	2.327450	-0.054850
1330	6.6450e-01	-13.1114	-80.345374	0.000586	5.859281	1.985178	-0.046784
1331	6.6500e-01	-13.1515	-80.583327	0.000596	5.960303	2.019405	-0.047591
1332	6.6550e-01	-13.1868	-80.865644	0.000707	7.071546	2.395905	-0.056463
1333	6.6600e-01	-13.2397	-81.091497	0.000566	5.657237	1.916724	-0.045171
1334	6.6650e-01	-13.2590	-81.402046	0.000778	7.778701	2.635495	-0.062110
1335	6.6700e-01	-13.3007	-81.619833	0.000546	5.455193	1.848269	-0.043557
1336	6.6750e-01	-13.3552	-81.910216	0.000727	7.273591	2.464359	-0.058077
1337	6.6800e-01	-13.4066	-82.119937	0.000525	5.253149	1.779815	-0.041944
1338	6.6850e-01	-13.4354	-82.365956	0.000616	6.162348	2.087860	-0.049204
1339	6.6900e-01	-13.4707	-82.644240	0.000697	6.970524	2.361678	-0.055657
1340	6.6950e-01	-13.5205	-82.914458	0.000677	6.768480	2.293223	-0.054044
1341	6.7000e-01	-13.5590	-83.180642	0.000667	6.667458	2.258996	-0.053237
1342	6.7050e-01	-13.5879	-83.426661	0.000616	6.162348	2.087860	-0.049204
1343	6.7100e-01	-13.6344	-83.676713	0.000626	6.263370	2.122087	-0.050010
1344	6.7150e-01	-13.6729	-83.971129	0.000737	7.374613	2.498586	-0.058883
1345	6.7200e-01	-13.7194	-84.180851	0.000525	5.253149	1.779815	-0.041944
1346	6.7250e-01	-13.7547	-84.438969	0.000647	6.465414	2.190542	-0.051624
1347	6.7300e-01	-13.8012	-84.672889	0.000586	5.859281	1.985178	-0.046784
1348	6.7350e-01	-13.8253	-84.918908	0.000616	6.162348	2.087860	-0.049204
1349	6.7400e-01	-13.8734	-85.213324	0.000737	7.374613	2.498586	-0.058883
1350	6.7450e-01	-13.9055	-85.423045	0.000525	5.253149	1.779815	-0.041944
1351	6.7500e-01	-13.9472	-85.713428	0.000727	7.273591	2.464359	-0.058077
1352	6.7550e-01	-13.9857	-85.919116	0.000515	5.152127	1.745588	-0.041138
1353	6.7600e-01	-14.0322	-86.205466	0.000717	7.172568	2.430132	-0.057270
1354	6.7650e-01	-14.0739	-86.455518	0.000626	6.263370	2.122087	-0.050010
1355	6.7700e-01	-14.1076	-86.745901	0.000727	7.273591	2.464359	-0.058077
1356	6.7750e-01	-14.1574	-86.955622	0.000525	5.253149	1.779815	-0.041944
1357	6.7800e-01	-14.1894	-87.108880	0.000384	3.838839	1.300634	-0.030652
1358	6.7850e-01	-14.2311	-87.516223	0.001020	10.203231	3.456948	-0.081469
1359	6.7900e-01	-14.2761	-87.738044	0.000556	5.556215	1.882497	-0.044364
1360	6.7950e-01	-14.3178	-87.967930	0.000576	5.758259	1.950951	-0.045977
1361	6.8000e-01	-14.3499	-88.201850	0.000586	5.859281	1.985178	-0.046784
1362	6.8050e-01	-14.3884	-88.496266	0.000737	7.374613	2.498586	-0.058883
1363	6.8100e-01	-14.4253	-88.726153	0.000576	5.758259	1.950951	-0.045977
1364	6.8150e-01	-14.4734	-89.004437	0.000697	6.970524	2.361678	-0.055657
1365	6.8200e-01	-14.5167	-89.242389	0.000596	5.960303	2.019405	-0.047591
1366	6.8250e-01	-14.5584	-89.508574	0.000667	6.667458	2.258996	-0.053237
1367	6.8300e-01	-14.5985	-89.750560	0.000606	6.061325	2.053633	-0.048397
1368	6.8350e-01	-14.6322	-89.968347	0.000546	5.455193	1.848269	-0.043557
1369	6.8400e-01	-14.6771	-90.194201	0.000566	5.657237	1.916724	-0.045171
1370	6.8450e-01	-14.7140	-90.472484	0.000697	6.970524	2.361678	-0.055657
1371	6.8500e-01	-14.7605	-90.726570	0.000636	6.364392	2.156314	-0.050817
1372	6.8550e-01	-14.7862	-90.956456	0.000576	5.758259	1.950951	-0.045977
1373	6.8600e-01	-14.8279	-91.246839	0.000727	7.273591	2.464359	-0.058077
1374	6.8650e-01	-14.8761	-91.492858	0.000616	6.162348	2.087860	-0.049204
1375	6.8700e-01	-14.9129	-91.726778	0.000586	5.859281	1.985178	-0.046784
1376	6.8750e-01	-14.9498	-91.992963	0.000667	6.667458	2.258996	-0.053237
1377	6.8800e-01	-14.9835	-92.234948	0.000606	6.061325	2.053633	-0.048397
1378	6.8850e-01	-15.0317	-92.476934	0.000606	6.061325	2.053633	-0.048397
1379	6.8900e-01	-15.0718	-92.743119	0.000667	6.667458	2.258996	-0.053237
1380	6.8950e-01	-15.1071	-92.985105	0.000606	6.061325	2.053633	-0.048397
1381	6.9000e-01	-15.1552	-93.235157	0.000626	6.263370	2.122087	-0.050010
1382	6.9050e-01	-15.1985	-93.456977	0.000556	5.556215	1.882497	-0.044364
1383	6.9100e-01	-15.2354	-93.719129	0.000657	6.566436	2.224769	-0.052430
1384	6.9150e-01	-15.2691	-93.944982	0.000566	5.657237	1.916724	-0.045171
1385	6.9200e-01	-15.3188	-94.191001	0.000616	6.162348	2.087860	-0.049204
1386	6.9250e-01	-15.3461	-94.505583	0.000788	7.879723	2.669722	-0.062916
1387	6.9300e-01	-15.3942	-94.715304	0.000525	5.253149	1.779815	-0.041944
1388	6.9350e-01	-15.4311	-94.941158	0.000566	5.657237	1.916724	-0.045171
1389	6.9400e-01	-15.4744	-95.179110	0.000596	5.960303	2.019405	-0.047591
1390	6.9450e-01	-15.5097	-95.473527	0.000737	7.374613	2.498586	-0.058883
1391	6.9500e-01	-15.5498	-95.699380	0.000566	5.657237	1.916724	-0.045171
1392	6.9550e-01	-15.5867	-95.957498	0.000647	6.465414	2.190542	-0.051624
1393	6.9600e-01	-15.6300	-96.183352	0.000566	5.657237	1.916724	-0.045171
1394	6.9650e-01	-15.6798	-96.461636	0.000697	6.970524	2.361678	-0.055657
1395	6.9700e-01	-15.7231	-96.659258	0.000495	4.950082	1.677133	-0.039524
1396	6.9750e-01	-15.7504	-96.921409	0.000657	6.566436	2.224769	-0.052430
1397	6.9800e-01	-15.7889	-97.195660	0.000687	6.869502	2.327450	-0.054850
1398	6.9850e-01	-15.8306	-97.441679	0.000616	6.162348	2.087860	-0.049204
1399	6.9900e-01	-15.8755	-97.699797	0.000647	6.465414	2.190542	-0.051624
1400	6.9950e-01	-15.9188	-97.957915	0.000647	6.465414	2.190542	-0.051624
1401	7.0000e-01	-15.9573	-98.183769	0.000566	5.657237	1.916724	-0.045171
1402	7.0050e-01	-15.9926	-98.385424	0.000505	5.051105	1.711361	-0.040331
1403	7.0100e-01	-16.0327	-98.639509	0.000636	6.364392	2.156314	-0.050817
1404	7.0150e-01	-16.0824	-98.929892	0.000727	7.273591	2.464359	-0.058077
1405	7.0200e-01	-16.1081	-99.159779	0.000576	5.758259	1.950951	-0.045977
1406	7.0250e-01	-16.1594	-99.401765	0.000606	6.061325	2.053633	-0.048397
1407	7.0300e-01	-16.1947	-99.635684	0.000586	5.859281	1.985178	-0.046784
1408	7.0350e-01	-16.2284	-99.869604	0.000586	5.859281	1.985178	-0.046784
1409	7.0400e-01	-16.2798	-100.127722	0.000647	6.465414	2.190542	-0.051624
1410	7.0450e-01	-16.3150	-100.361642	0.000586	5.859281	1.985178	-0.046784
1411	7.0500e-01	-16.3600	-100.635893	0.000687	6.869502	2.327450	-0.054850
1412	7.0550e-01	-16.3937	-100.885945	0.000626	6.263370	2.122087	-0.050010
1413	7.0600e-01	-16.4273	-101.107765	0.000556	5.556215	1.882497	-0.044364
1414	7.0650e-01	-16.4755	-101.369917	0.000657	6.566436	2.224769	-0.052430
1415	7.0700e-01	-16.5092	-101.571572	0.000505	5.051105	1.711361	-0.040331
1416	7.0750e-01	-16.5653	-101.865988	0.000737	7.374613	2.498586	-0.058883
1417	7.0800e-01	-16.5990	-102.059577	0.000485	4.849060	1.642906	-0.038718
1418	7.0850e-01	-16.6295	-102.313662	0.000636	6.364392	2.156314	-0.050817
1419	7.0900e-01	-16.6792	-102.612111	0.000748	7.475635	2.532814	-0.059690
1420	7.0950e-01	-16.7209	-102.809733	0.000495	4.950082	1.677133	-0.039524
1421	7.1000e-01	-16.7482	-103.088017	0.000697	6.970524	2.361678	-0.055657
1422	7.1050e-01	-16.7947	-103.309837	0.000556	5.556215	1.882497	-0.044364
1423	7.1100e-01	-16.8316	-103.588121	0.000697	6.970524	2.361678	-0.055657
1424	7.1150e-01	-16.8669	-103.850272	0.000657	6.566436	2.224769	-0.052430
1425	7.1200e-01	-16.9134	-104.043861	0.000485	4.849060	1.642906	-0.038718
1426	7.1250e-01	-16.9503	-104.285847	0.000606	6.061325	2.053633	-0.048397
1427	7.1300e-01	-16.9888	-104.519767	0.000586	5.859281	1.985178	-0.046784
1428	7.1350e-01	-17.0370	-104.769819	0.000626	6.263370	2.122087	-0.050010
1429	7.1400e-01	-17.0771	-105.011805	0.000606	6.061325	2.053633	-0.048397
1430	7.1450e-01	-17.1124	-105.269923	0.000647	6.465414	2.190542	-0.051624
1431	7.1500e-01	-17.1557	-105.528041	0.000647	6.465414	2.190542	-0.051624
1432	7.1550e-01	-17.1958	-105.737763	0.000525	5.253149	1.779815	-0.041944
1433	7.1600e-01	-17.2407	-105.963616	0.000566	5.657237	1.916724	-0.045171
1434	7.1650e-01	-17.2712	-106.270132	0.000768	7.677679	2.601268	-0.061303
1435	7.1700e-01	-17.3177	-106.471787	0.000505	5.051105	1.711361	-0.040331
1436	7.1750e-01	-17.3514	-106.733938	0.000657	6.566436	2.224769	-0.052430
1437	7.1800e-01	-17.3995	-106.979957	0.000616	6.162348	2.087860	-0.049204
1438	7.1850e-01	-17.4300	-107.209844	0.000576	5.758259	1.950951	-0.045977
1439	7.1900e-01	-17.4685	-107.496194	0.000717	7.172568	2.430132	-0.057270
1440	7.1950e-01	-17.5054	-107.705915	0.000525	5.253149	1.779815	-0.041944
1441	7.2000e-01	-17.5551	-107.955967	0.000626	6.263370	2.122087	-0.050010
1442	7.2050e-01	-17.5968	-108.161655	0.000515	5.152127	1.745588	-0.041138
1443	7.2100e-01	-17.6450	-108.395575	0.000586	5.859281	1.985178	-0.046784
1444	7.2150e-01	-17.6770	-108.887613	0.001232	12.324695	4.175720	-0.098408
1445	7.2200e-01	-17.7107	-108.859381	-0.000071	-0.707155	-0.239590	0.005646
1446	7.2250e-01	-17.7556	-109.173963	0.000788	7.879723	2.669722	-0.062916
1447	7.2300e-01	-17.7974	-109.411915	0.000596	5.960303	2.019405	-0.047591
1448	7.2350e-01	-17.8359	-109.645835	0.000586	5.859281	1.985178	-0.046784
1449	7.2400e-01	-17.8808	-109.907987	0.000657	6.566436	2.224769	-0.052430
1450	7.2450e-01	-17.9064	-110.117708	0.000525	5.253149	1.779815	-0.041944
1451	7.2500e-01	-17.9562	-110.363727	0.000616	6.162348	2.087860	-0.049204
1452	7.2550e-01	-17.9899	-110.589580	0.000566	5.657237	1.916724	-0.045171
1453	7.2600e-01	-18.0300	-110.859798	0.000677	6.768480	2.293223	-0.054044
1454	7.2650e-01	-18.0717	-111.093718	0.000586	5.859281	1.985178	-0.046784
1455	7.2700e-01	-18.1086	-111.327637	0.000586	5.859281	1.985178	-0.046784
1456	7.2750e-01	-18.1583	-111.593822	0.000667	6.667458	2.258996	-0.053237
1457	7.2800e-01	-18.2032	-111.823708	0.000576	5.758259	1.950951	-0.045977
1458	7.2850e-01	-18.2385	-112.057628	0.000586	5.859281	1.985178	-0.046784
1459	7.2900e-01	-18.2802	-112.331879	0.000687	6.869502	2.327450	-0.054850
1460	7.2950e-01	-18.3139	-112.561765	0.000576	5.758259	1.950951	-0.045977
1461	7.3000e-01	-18.3492	-112.807784	0.000616	6.162348	2.087860	-0.049204
1462	7.3050e-01	-18.3909	-113.045737	0.000596	5.960303	2.019405	-0.047591
1463	7.3100e-01	-18.4342	-113.283690	0.000596	5.960303	2.019405	-0.047591
1464	7.3150e-01	-18.4743	-113.541808	0.000647	6.465414	2.190542	-0.051624
1465	7.3200e-01	-18.5225	-113.763629	0.000556	5.556215	1.882497	-0.044364
1466	7.3250e-01	-18.5626	-114.017714	0.000636	6.364392	2.156314	-0.050817
1467	7.3300e-01	-18.5882	-114.283899	0.000667	6.667458	2.258996	-0.053237
1468	7.3350e-01	-18.6300	-114.517818	0.000586	5.859281	1.985178	-0.046784
1469	7.3400e-01	-18.6765	-114.771903	0.000636	6.364392	2.156314	-0.050817
1470	7.3450e-01	-18.7118	-115.005823	0.000586	5.859281	1.985178	-0.046784
1471	7.3500e-01	-18.7535	-115.231677	0.000566	5.657237	1.916724	-0.045171
1472	7.3550e-01	-18.7952	-115.457530	0.000566	5.657237	1.916724	-0.045171
1473	7.3600e-01	-18.8305	-115.707582	0.000626	6.263370	2.122087	-0.050010
1474	7.3650e-01	-18.8770	-115.985866	0.000697	6.970524	2.361678	-0.055657
1475	7.3700e-01	-18.9219	-116.207687	0.000556	5.556215	1.882497	-0.044364
1476	7.3750e-01	-18.9460	-116.485970	0.000697	6.970524	2.361678	-0.055657
1477	7.3800e-01	-18.9973	-116.748122	0.000657	6.566436	2.224769	-0.052430
1478	7.3850e-01	-19.0294	-116.941711	0.000485	4.849060	1.642906	-0.038718
1479	7.3900e-01	-19.0743	-117.211928	0.000677	6.768480	2.293223	-0.054044
1480	7.3950e-01	-19.1144	-117.421649	0.000525	5.253149	1.779815	-0.041944
1481	7.4000e-01	-19.1545	-117.675734	0.000636	6.364392	2.156314	-0.050817
1482	7.4050e-01	-19.1882	-117.970151	0.000737	7.374613	2.498586	-0.058883
1483	7.4100e-01	-19.2364	-118.167772	0.000495	4.950082	1.677133	-0.039524
1484	7.4150e-01	-19.2716	-118.442023	0.000687	6.869502	2.327450	-0.054850
1485	7.4200e-01	-19.3166	-118.679976	0.000596	5.960303	2.019405	-0.047591
1486	7.4250e-01	-19.3647	-118.942127	0.000657	6.566436	2.224769	-0.052430
1487	7.4300e-01	-19.4000	-119.143782	0.000505	5.051105	1.711361	-0.040331
1488	7.4350e-01	-19.4273	-119.393834	0.000626	6.263370	2.122087	-0.050010
1489	7.4400e-01	-19.4690	-119.716482	0.000808	8.081767	2.738177	-0.064530
1490	7.4450e-01	-19.5091	-119.889906	0.000434	4.343950	1.471770	-0.034685
1491	7.4500e-01	-19.5572	-120.127858	0.000596	5.960303	2.019405	-0.047591
1492	7.4550e-01	-19.5941	-120.430341	0.000758	7.576657	2.567041	-0.060496
1493	7.4600e-01	-19.6326	-120.692492	0.000657	6.566436	2.224769	-0.052430
1494	7.4650e-01	-19.6631	-120.902213	0.000525	5.253149	1.779815	-0.041944
1495	7.4700e-01	-19.7080	-121.160332	0.000647	6.465414	2.190542	-0.051624
1496	7.4750e-01	-19.7577	-121.366020	0.000515	5.152127	1.745588	-0.041138
1497	7.4800e-01	-19.7914	-121.620105	0.000636	6.364392	2.156314	-0.050817
1498	7.4850e-01	-19.8363	-121.874190	0.000636	6.364392	2.156314	-0.050817
1499	7.4900e-01	-19.8732	-122.148441	0.000687	6.869502	2.327450	-0.054850
1500	7.4950e-01	-19.9133	-122.354129	0.000515	5.152127	1.745588	-0.041138
1501	7.5000e-01	-19.9518	-122.636446	0.000707	7.071546	2.395905	-0.056463
1502	7.5050e-01	-19.9583	-122.890531	0.000636	6.364392	2.156314	-0.050817
1503	7.5100e-01	-19.9278	-123.080087	-0.000475	-4.748038	-1.608679	-0.037911
1504	7.5150e-01	-19.8877	-123.297874	-0.000546	-5.455193	-1.848269	-0.043557
1505	7.5200e-01	-19.8540	-123.463231	-0.000414	-4.141906	-1.403316	-0.033071
1506	7.5250e-01	-19.8139	-123.644720	-0.000455	-4.545994	-1.540224	-0.036298
1507	7.5300e-01	-19.7802	-123.713283	-0.000172	-1.717376	-0.581863	-0.013713
1508	7.5350e-01	-19.7256	-123.830243	-0.000293	-2.929641	-0.992589	-0.023392
1509	7.5400e-01	-19.6904	-123.898806	-0.000172	-1.717376	-0.581863	-0.013713
1510	7.5450e-01	-19.6567	-124.015765	-0.000293	-2.929641	-0.992589	-0.023392
1511	7.5500e-01	-19.6150	-124.011732	0.000010	0.101022	0.034227	0.000807
1512	7.5550e-01	-19.5732	-124.068196	-0.000141	-1.414309	-0.479181	-0.011293
1513	7.5600e-01	-19.5235	-124.104494	-0.000091	-0.909199	-0.308045	-0.007260
1514	7.5650e-01	-19.4850	-124.128692	-0.000061	-0.606133	-0.205363	-0.004840
1515	7.5700e-01	-19.4577	-124.144825	-0.000040	-0.404088	-0.136909	-0.003226
1516	7.5750e-01	-19.4128	-124.152891	-0.000020	-0.202044	-0.068454	-0.001613
1517	7.5800e-01	-19.3695	-124.124659	0.000071	0.707155	0.239590	0.005646
1518	7.5850e-01	-19.3390	-124.080295	0.000111	1.111243	0.376499	0.008873
1519	7.5900e-01	-19.2941	-124.068196	0.000030	0.303066	0.102682	0.002420
1520	7.5950e-01	-19.2652	-124.039964	0.000071	0.707155	0.239590	0.005646
1521	7.6000e-01	-19.2219	-123.967368	0.000182	1.818398	0.616090	0.014519
1522	7.6050e-01	-19.1706	-123.939137	0.000071	0.707155	0.239590	0.005646
1523	7.6100e-01	-19.1401	-123.862508	0.000192	1.919420	0.650317	0.015326
1524	7.6150e-01	-19.0968	-123.826210	0.000091	0.909199	0.308045	0.007260
1525	7.6200e-01	-19.0503	-123.717316	0.000273	2.727596	0.924135	0.021779
1526	7.6250e-01	-19.0166	-123.681018	0.000091	0.909199	0.308045	0.007260
1527	7.6300e-01	-18.9845	-123.604389	0.000192	1.919420	0.650317	0.015326
1528	7.6350e-01	-18.9267	-123.539860	0.000162	1.616353	0.547635	0.012906
1529	7.6400e-01	-18.8963	-123.455165	0.000212	2.121464	0.718771	0.016939
1530	7.6450e-01	-18.8578	-123.402734	0.000131	1.313287	0.444954	0.010486
1531	7.6500e-01	-18.8193	-123.281742	0.000303	3.030663	1.026816	0.024199
1532	7.6550e-01	-18.7711	-123.201080	0.000202	2.020442	0.684544	0.016132
1533	7.6600e-01	-18.7439	-123.047822	0.000384	3.838839	1.300634	0.030652
1534	7.6650e-01	-18.7005	-123.015557	0.000081	0.808177	0.273818	0.006453
1535	7.6700e-01	-18.6636	-122.854233	0.000404	4.040884	1.369088	0.032265
1536	7.6750e-01	-18.6251	-122.777604	0.000192	1.919420	0.650317	0.015326
1537	7.6800e-01	-18.5802	-122.644512	0.000333	3.333729	1.129498	0.026618
1538	7.6850e-01	-18.5369	-122.567883	0.000192	1.919420	0.650317	0.015326
1539	7.6900e-01	-18.4984	-122.410592	0.000394	3.939862	1.334861	0.031458
1540	7.6950e-01	-18.4535	-122.309765	0.000253	2.525552	0.855680	0.020165
1541	7.7000e-01	-18.4182	-122.208937	0.000253	2.525552	0.855680	0.020165
1542	7.7050e-01	-18.3797	-122.100044	0.000273	2.727596	0.924135	0.021779
1543	7.7100e-01	-18.3380	-121.970984	0.000323	3.232707	1.095271	0.025812
1544	7.7150e-01	-18.2979	-121.866124	0.000263	2.626574	0.889907	0.020972
1545	7.7200e-01	-18.2594	-121.749164	0.000293	2.929641	0.992589	0.023392
1546	7.7250e-01	-18.2209	-121.612039	0.000343	3.434751	1.163725	0.027425
1547	7.7300e-01	-18.1904	-121.495079	0.000293	2.929641	0.992589	0.023392
1548	7.7350e-01	-18.1342	-121.341821	0.000384	3.838839	1.300634	0.030652
1549	7.7400e-01	-18.0941	-121.192596	0.000374	3.737817	1.266407	0.029845
1550	7.7450e-01	-18.0621	-121.107901	0.000212	2.121464	0.718771	0.016939
1551	7.7500e-01	-18.0171	-120.974809	0.000333	3.333729	1.129498	0.026618
1552	7.7550e-01	-17.9818	-120.833651	0.000354	3.535773	1.197952	0.028232
1553	7.7600e-01	-17.9273	-120.688459	0.000364	3.636795	1.232180	0.029038
1554	7.7650e-01	-17.9064	-120.595698	0.000232	2.323508	0.787226	0.018552
1555	7.7700e-01	-17.8599	-120.438407	0.000394	3.939862	1.334861	0.031458
1556	7.7750e-01	-17.8198	-120.264984	0.000434	4.343950	1.471770	0.034685
1557	7.7800e-01	-17.7797	-120.111726	0.000384	3.838839	1.300634	0.030652
1558	7.7850e-01	-17.7380	-119.994766	0.000293	2.929641	0.992589	0.023392
1559	7.7900e-01	-17.6899	-119.853608	0.000354	3.535773	1.197952	0.028232
1560	7.7950e-01	-17.6562	-119.696317	0.000394	3.939862	1.334861	0.031458
1561	7.8000e-01	-17.6209	-119.539026	0.000394	3.939862	1.334861	0.031458
1562	7.8050e-01	-17.5808	-119.450298	0.000222	2.222486	0.752999	0.017746
1563	7.8100e-01	-17.5375	-119.268808	0.000455	4.545994	1.540224	0.036298
1564	7.8150e-01	-17.5022	-119.091352	0.000444	4.444972	1.505997	0.035491
1565	7.8200e-01	-17.4557	-118.954227	0.000343	3.434751	1.163725	0.027425
1566	7.8250e-01	-17.4188	-118.817101	0.000343	3.434751	1.163725	0.027425
1567	7.8300e-01	-17.3803	-118.659811	0.000394	3.939862	1.334861	0.031458
1568	7.8350e-01	-17.3402	-118.554950	0.000263	2.626574	0.889907	0.020972
1569	7.8400e-01	-17.2968	-118.349262	0.000515	5.152127	1.745588	0.041138
1570	7.8450e-01	-17.2631	-118.216170	0.000333	3.333729	1.129498	0.026618
1571	7.8500e-01	-17.2198	-118.046780	0.000424	4.242928	1.437543	0.033878
1572	7.8550e-01	-17.1861	-117.913687	0.000333	3.333729	1.129498	0.026618
1573	7.8600e-01	-17.1364	-117.748330	0.000414	4.141906	1.403316	0.033071
1574	7.8650e-01	-17.0995	-117.615238	0.000333	3.333729	1.129498	0.026618
1575	7.8700e-01	-17.0610	-117.461980	0.000384	3.838839	1.300634	0.030652
1576	7.8750e-01	-17.0289	-117.320822	0.000354	3.535773	1.197952	0.028232
1577	7.8800e-01	-16.9792	-117.175630	0.000364	3.636795	1.232180	0.029038
1578	7.8850e-01	-16.9423	-117.030439	0.000364	3.636795	1.232180	0.029038
1579	7.8900e-01	-16.8958	-116.836850	0.000485	4.849060	1.642906	0.038718
1580	7.8950e-01	-16.8541	-116.727956	0.000273	2.727596	0.924135	0.021779
1581	7.9000e-01	-16.8140	-116.546467	0.000455	4.545994	1.540224	0.036298
1582	7.9050e-01	-16.7771	-116.348845	0.000495	4.950082	1.677133	0.039524
1583	7.9100e-01	-16.7450	-116.171389	0.000444	4.444972	1.505997	0.035491
1584	7.9150e-01	-16.6936	-116.026197	0.000364	3.636795	1.232180	0.029038
1585	7.9200e-01	-16.6648	-115.868906	0.000394	3.939862	1.334861	0.031458
1586	7.9250e-01	-16.6231	-115.711615	0.000394	3.939862	1.334861	0.031458
1587	7.9300e-01	-16.5814	-115.509961	0.000505	5.051105	1.711361	0.040331
1588	7.9350e-01	-16.5300	-115.368802	0.000354	3.535773	1.197952	0.028232
1589	7.9400e-01	-16.5076	-115.207478	0.000404	4.040884	1.369088	0.032265
1590	7.9450e-01	-16.4530	-115.030022	0.000444	4.444972	1.505997	0.035491
1591	7.9500e-01	-16.4241	-114.860632	0.000424	4.242928	1.437543	0.033878
1592	7.9550e-01	-16.3744	-114.719473	0.000354	3.535773	1.197952	0.028232
1593	7.9600e-01	-16.3359	-114.558149	0.000404	4.040884	1.369088	0.032265
1594	7.9650e-01	-16.3054	-114.364561	0.000485	4.849060	1.642906	0.038718
1595	7.9700e-01	-16.2493	-114.219369	0.000364	3.636795	1.232180	0.029038
1596	7.9750e-01	-16.2156	-114.013681	0.000515	5.152127	1.745588	0.041138
1597	7.9800e-01	-16.1851	-113.844291	0.000424	4.242928	1.437543	0.033878
1598	7.9850e-01	-16.1418	-113.707165	0.000343	3.434751	1.163725	0.027425
1599	7.9900e-01	-16.0905	-113.533742	0.000434	4.343950	1.471770	0.034685
1600	7.9950e-01	-16.0568	-113.396617	0.000343	3.434751	1.163725	0.027425
1601	8.0000e-01	-16.0151	-113.207061	0.000475	4.748038	1.608679	0.037911
1602	8.0050e-01	-15.9717	-113.053803	0.000384	3.838839	1.300634	0.030652
1603	8.0100e-01	-15.9268	-112.860215	0.000485	4.849060	1.642906	0.038718
1604	8.0150e-01	-15.8947	-112.662593	0.000495	4.950082	1.677133	0.039524
1605	8.0200e-01	-15.8643	-112.497236	0.000414	4.141906	1.403316	0.033071
1606	8.0250e-01	-15.8274	-112.327846	0.000424	4.242928	1.437543	0.033878
1607	8.0300e-01	-15.7824	-112.146356	0.000455	4.545994	1.540224	0.036298
1608	8.0350e-01	-15.7295	-111.997132	0.000374	3.737817	1.266407	0.029845
1609	8.0400e-01	-15.6942	-111.783377	0.000535	5.354171	1.814042	0.042751
1610	8.0450e-01	-15.6653	-111.605921	0.000444	4.444972	1.505997	0.035491
1611	8.0500e-01	-15.6140	-111.472829	0.000333	3.333729	1.129498	0.026618
1612	8.0550e-01	-15.5771	-111.295372	0.000444	4.444972	1.505997	0.035491
1613	8.0600e-01	-15.5402	-111.154214	0.000354	3.535773	1.197952	0.028232
1614	8.0650e-01	-15.5017	-110.944493	0.000525	5.253149	1.779815	0.041944
1615	8.0700e-01	-15.4584	-110.787202	0.000394	3.939862	1.334861	0.031458
1616	8.0750e-01	-15.4183	-110.545216	0.000606	6.061325	2.053633	0.048397
1617	8.0800e-01	-15.3734	-110.561349	-0.000040	-0.404088	-0.136909	-0.003226
1618	8.0850e-01	-15.3349	-110.206436	0.000889	8.889944	3.011995	0.070983
1619	8.0900e-01	-15.2899	-110.049145	0.000394	3.939862	1.334861	0.031458
1620	8.0950e-01	-15.2563	-109.895887	0.000384	3.838839	1.300634	0.030652
1621	8.1000e-01	-15.2194	-109.706332	0.000475	4.748038	1.608679	0.037911
1622	8.1050e-01	-15.1809	-109.492577	0.000535	5.354171	1.814042	0.042751
1623	8.1100e-01	-15.1456	-109.290922	0.000505	5.051105	1.711361	0.040331
1624	8.1150e-01	-15.0974	-109.149764	0.000354	3.535773	1.197952	0.028232
1625	8.1200e-01	-15.0621	-108.936010	0.000535	5.354171	1.814042	0.042751
1626	8.1250e-01	-15.0076	-108.782752	0.000384	3.838839	1.300634	0.030652
1627	8.1300e-01	-14.9803	-108.564965	0.000546	5.455193	1.848269	0.043557
1628	8.1350e-01	-14.9434	-108.407674	0.000394	3.939862	1.334861	0.031458
1629	8.1400e-01	-14.8985	-108.242317	0.000414	4.141906	1.403316	0.033071
1630	8.1450e-01	-14.8568	-108.056794	0.000465	4.647016	1.574452	0.037105
1631	8.1500e-01	-14.8151	-107.875305	0.000455	4.545994	1.540224	0.036298
1632	8.1550e-01	-14.7750	-107.709948	0.000414	4.141906	1.403316	0.033071
1633	8.1600e-01	-14.7429	-107.536525	0.000434	4.343950	1.471770	0.034685
1634	8.1650e-01	-14.6932	-107.318737	0.000546	5.455193	1.848269	0.043557
1635	8.1700e-01	-14.6563	-107.153380	0.000414	4.141906	1.403316	0.033071
1636	8.1750e-01	-14.6258	-106.963825	0.000475	4.748038	1.608679	0.037911
1637	8.1800e-01	-14.5761	-106.770236	0.000485	4.849060	1.642906	0.038718
1638	8.1850e-01	-14.5456	-106.568581	0.000505	5.051105	1.711361	0.040331
1639	8.1900e-01	-14.5007	-106.383058	0.000465	4.647016	1.574452	0.037105
1640	8.1950e-01	-14.4590	-106.241900	0.000354	3.535773	1.197952	0.028232
1641	8.2000e-01	-14.4301	-106.016046	0.000566	5.657237	1.916724	0.045171
1642	8.2050e-01	-14.3819	-105.838590	0.000444	4.444972	1.505997	0.035491
1643	8.2100e-01	-14.3322	-105.665167	0.000434	4.343950	1.471770	0.034685
1644	8.2150e-01	-14.2905	-105.503843	0.000404	4.040884	1.369088	0.032265
1645	8.2200e-01	-14.2600	-105.326387	0.000444	4.444972	1.505997	0.035491
1646	8.2250e-01	-14.2151	-105.056169	0.000677	6.768480	2.293223	0.054044
1647	8.2300e-01	-14.1846	-104.894845	0.000404	4.040884	1.369088	0.032265
1648	8.2350e-01	-14.1365	-104.753687	0.000354	3.535773	1.197952	0.028232
1649	8.2400e-01	-14.0996	-104.483469	0.000677	6.768480	2.293223	0.054044
1650	8.2450e-01	-14.0531	-104.338277	0.000364	3.636795	1.232180	0.029038
1651	8.2500e-01	-14.0098	-104.136622	0.000505	5.051105	1.711361	0.040331
1652	8.2550e-01	-13.9825	-103.951100	0.000465	4.647016	1.574452	0.037105
1653	8.2600e-01	-13.9392	-103.777677	0.000434	4.343950	1.471770	0.034685
1654	8.2650e-01	-13.9023	-103.567956	0.000525	5.253149	1.779815	0.041944
1655	8.2700e-01	-13.8526	-103.390499	0.000444	4.444972	1.505997	0.035491
1656	8.2750e-01	-13.8237	-103.188844	0.000505	5.051105	1.711361	0.040331
1657	8.2800e-01	-13.7820	-103.019454	0.000424	4.242928	1.437543	0.033878
1658	8.2850e-01	-13.7435	-102.846031	0.000434	4.343950	1.471770	0.034685
1659	8.2900e-01	-13.6985	-102.636310	0.000525	5.253149	1.779815	0.041944
1660	8.2950e-01	-13.6584	-102.438688	0.000495	4.950082	1.677133	0.039524
1661	8.3000e-01	-13.6119	-102.208801	0.000576	5.758259	1.950951	0.045977
1662	8.3050e-01	-13.5718	-102.043444	0.000414	4.141906	1.403316	0.033071
1663	8.3100e-01	-13.5333	-101.882120	0.000404	4.040884	1.369088	0.032265
1664	8.3150e-01	-13.5028	-101.660300	0.000556	5.556215	1.882497	0.044364
1665	8.3200e-01	-13.4595	-101.450579	0.000525	5.253149	1.779815	0.041944
1666	8.3250e-01	-13.4194	-101.277156	0.000434	4.343950	1.471770	0.034685
1667	8.3300e-01	-13.3793	-101.059368	0.000546	5.455193	1.848269	0.043557
1668	8.3350e-01	-13.3376	-100.869813	0.000475	4.748038	1.608679	0.037911
1669	8.3400e-01	-13.3023	-100.652025	0.000546	5.455193	1.848269	0.043557
1670	8.3450e-01	-13.2606	-100.446337	0.000515	5.152127	1.745588	0.041138
1671	8.3500e-01	-13.2173	-100.297113	0.000374	3.737817	1.266407	0.029845
1672	8.3550e-01	-13.1691	-100.123689	0.000434	4.343950	1.471770	0.034685
1673	8.3600e-01	-13.1451	-99.873637	0.000626	6.263370	2.122087	0.050010
1674	8.3650e-01	-13.1018	-99.692148	0.000455	4.545994	1.540224	0.036298
1675	8.3700e-01	-13.0601	-99.474360	0.000546	5.455193	1.848269	0.043557
1676	8.3750e-01	-13.0135	-99.313037	0.000404	4.040884	1.369088	0.032265
1677	8.3800e-01	-12.9718	-99.107349	0.000515	5.152127	1.745588	0.041138
1678	8.3850e-01	-12.9317	-98.885528	0.000556	5.556215	1.882497	0.044364
1679	8.3900e-01	-12.8964	-98.691939	0.000485	4.849060	1.642906	0.038718
1680	8.3950e-01	-12.8595	-98.526582	0.000414	4.141906	1.403316	0.033071
1681	8.4000e-01	-12.8162	-98.320894	0.000515	5.152127	1.745588	0.041138
1682	8.4050e-01	-12.7793	-98.066809	0.000636	6.364392	2.156314	0.050817
1683	8.4100e-01	-12.7328	-97.873220	0.000485	4.849060	1.642906	0.038718
1684	8.4150e-01	-12.6991	-97.679632	0.000485	4.849060	1.642906	0.038718
1685	8.4200e-01	-12.6670	-97.514275	0.000414	4.141906	1.403316	0.033071
1686	8.4250e-01	-12.6093	-97.328752	0.000465	4.647016	1.574452	0.037105
1687	8.4300e-01	-12.5836	-97.094832	0.000586	5.859281	1.985178	0.046784
1688	8.4350e-01	-12.5435	-96.937541	0.000394	3.939862	1.334861	0.031458
1689	8.4400e-01	-12.4986	-96.735887	0.000505	5.051105	1.711361	0.040331
1690	8.4450e-01	-12.4553	-96.518099	0.000546	5.455193	1.848269	0.043557
1691	8.4500e-01	-12.4280	-96.340643	0.000444	4.444972	1.505997	0.035491
1692	8.4550e-01	-12.3734	-96.090591	0.000626	6.263370	2.122087	0.050010
1693	8.4600e-01	-12.3414	-95.888936	0.000505	5.051105	1.711361	0.040331
1694	8.4650e-01	-12.2997	-95.699380	0.000475	4.748038	1.608679	0.037911
1695	8.4700e-01	-12.2595	-95.489659	0.000525	5.253149	1.779815	0.041944
1696	8.4750e-01	-12.2259	-95.271872	0.000546	5.455193	1.848269	0.043557
1697	8.4800e-01	-12.1841	-95.098448	0.000434	4.343950	1.471770	0.034685
1698	8.4850e-01	-12.1489	-94.872595	0.000566	5.657237	1.916724	0.045171
1699	8.4900e-01	-12.0927	-94.650775	0.000556	5.556215	1.882497	0.044364
1700	8.4950e-01	-12.0558	-94.493484	0.000394	3.939862	1.334861	0.031458
1701	8.5000e-01	-12.0141	-94.283763	0.000525	5.253149	1.779815	0.041944
1702	8.5050e-01	-11.9724	-94.045810	0.000596	5.960303	2.019405	0.047591
1703	8.5100e-01	-11.9419	-93.787691	0.000647	6.465414	2.190542	0.051624
1704	8.5150e-01	-11.9002	-93.634434	0.000384	3.838839	1.300634	0.030652
1705	8.5200e-01	-11.8489	-93.392448	0.000606	6.061325	2.053633	0.048397
1706	8.5250e-01	-11.8216	-93.255322	0.000343	3.434751	1.163725	0.027425
1707	8.5300e-01	-11.7831	-93.037535	0.000546	5.455193	1.848269	0.043557
1708	8.5350e-01	-11.7366	-92.827814	0.000525	5.253149	1.779815	0.041944
1709	8.5400e-01	-11.6981	-92.601960	0.000566	5.657237	1.916724	0.045171
1710	8.5450e-01	-11.6660	-92.416438	0.000465	4.647016	1.574452	0.037105
1711	8.5500e-01	-11.6179	-92.214783	0.000505	5.051105	1.711361	0.040331
1712	8.5550e-01	-11.5777	-92.009095	0.000515	5.152127	1.745588	0.041138
1713	8.5600e-01	-11.5264	-91.831639	0.000444	4.444972	1.505997	0.035491
1714	8.5650e-01	-11.4959	-91.589653	0.000606	6.061325	2.053633	0.048397
1715	8.5700e-01	-11.4590	-91.412196	0.000444	4.444972	1.505997	0.035491
1716	8.5750e-01	-11.4205	-91.194409	0.000546	5.455193	1.848269	0.043557
1717	8.5800e-01	-11.3708	-91.000820	0.000485	4.849060	1.642906	0.038718
1718	8.5850e-01	-11.3371	-90.770934	0.000576	5.758259	1.950951	0.045977
1719	8.5900e-01	-11.2986	-90.532981	0.000596	5.960303	2.019405	0.047591
1720	8.5950e-01	-11.2569	-90.367624	0.000414	4.141906	1.403316	0.033071
1721	8.6000e-01	-11.2184	-90.149837	0.000546	5.455193	1.848269	0.043557
1722	8.6050e-01	-11.1799	-89.887685	0.000657	6.566436	2.224769	0.052430
1723	8.6100e-01	-11.1350	-89.746527	0.000354	3.535773	1.197952	0.028232
1724	8.6150e-01	-11.0901	-89.544872	0.000505	5.051105	1.711361	0.040331
1725	8.6200e-01	-11.0660	-89.319018	0.000566	5.657237	1.916724	0.045171
1726	8.6250e-01	-11.0179	-89.085098	0.000586	5.859281	1.985178	0.046784
1727	8.6300e-01	-10.9762	-88.867311	0.000546	5.455193	1.848269	0.043557
1728	8.6350e-01	-10.9361	-88.697921	0.000424	4.242928	1.437543	0.033878
1729	8.6400e-01	-10.9008	-88.427703	0.000677	6.768480	2.293223	0.054044
1730	8.6450e-01	-10.8623	-88.238148	0.000475	4.748038	1.608679	0.037911
1731	8.6500e-01	-10.8222	-88.052625	0.000465	4.647016	1.574452	0.037105
1732	8.6550e-01	-10.7740	-87.830805	0.000556	5.556215	1.882497	0.044364
1733	8.6600e-01	-10.7419	-87.625117	0.000515	5.152127	1.745588	0.041138
1734	8.6650e-01	-10.6970	-87.334734	0.000727	7.273591	2.464359	0.058077
1735	8.6700e-01	-10.6585	-87.189542	0.000364	3.636795	1.232180	0.029038
1736	8.6750e-01	-10.6168	-87.016119	0.000434	4.343950	1.471770	0.034685
1737	8.6800e-01	-10.5751	-86.729769	0.000717	7.172568	2.430132	0.057270
1738	8.6850e-01	-10.5350	-86.560379	0.000424	4.242928	1.437543	0.033878
1739	8.6900e-01	-10.5045	-86.306294	0.000636	6.364392	2.156314	0.050817
1740	8.6950e-01	-10.4548	-86.120771	0.000465	4.647016	1.574452	0.037105
1741	8.7000e-01	-10.4131	-85.886851	0.000586	5.859281	1.985178	0.046784
1742	8.7050e-01	-10.3730	-85.673097	0.000535	5.354171	1.814042	0.042751
1743	8.7100e-01	-10.3361	-85.479508	0.000485	4.849060	1.642906	0.038718
1744	8.7150e-01	-10.3008	-85.245589	0.000586	5.859281	1.985178	0.046784
1745	8.7200e-01	-10.2543	-85.047967	0.000495	4.950082	1.677133	0.039524
1746	8.7250e-01	-10.2190	-84.886643	0.000404	4.040884	1.369088	0.032265
1747	8.7300e-01	-10.1805	-84.580127	0.000768	7.677679	2.601268	0.061303
1748	8.7350e-01	-10.1323	-84.366373	0.000535	5.354171	1.814042	0.042751
1749	8.7400e-01	-10.0938	-84.156652	0.000525	5.253149	1.779815	0.041944
1750	8.7450e-01	-10.0457	-83.975163	0.000455	4.545994	1.540224	0.036298
1751	8.7500e-01	-10.0200	-83.737210	0.000596	5.960303	2.019405	0.047591
1752	8.7550e-01	-9.9783	-83.547654	0.000475	4.748038	1.608679	0.037911
1753	8.7600e-01	-9.9382	-83.321801	0.000566	5.657237	1.916724	0.045171
1754	8.7650e-01	-9.8901	-83.132245	0.000475	4.748038	1.608679	0.037911
1755	8.7700e-01	-9.8564	-82.849928	0.000707	7.071546	2.395905	0.056463
1756	8.7750e-01	-9.8211	-82.700703	0.000374	3.737817	1.266407	0.029845
1757	8.7800e-01	-9.7746	-82.434519	0.000667	6.667458	2.258996	0.053237
1758	8.7850e-01	-9.7473	-82.228831	0.000515	5.152127	1.745588	0.041138
1759	8.7900e-01	-9.6960	-81.998944	0.000576	5.758259	1.950951	0.045977
1760	8.7950e-01	-9.6623	-81.793256	0.000515	5.152127	1.745588	0.041138
1761	8.8000e-01	-9.6270	-81.571436	0.000556	5.556215	1.882497	0.044364
1762	8.8050e-01	-9.5773	-81.345582	0.000566	5.657237	1.916724	0.045171
1763	8.8100e-01	-9.5468	-81.111663	0.000586	5.859281	1.985178	0.046784
1764	8.8150e-01	-9.4955	-80.918074	0.000485	4.849060	1.642906	0.038718
1765	8.8200e-01	-9.4505	-80.643823	0.000687	6.869502	2.327450	0.054850
1766	8.8250e-01	-9.4249	-80.498632	0.000364	3.636795	1.232180	0.029038
1767	8.8300e-01	-9.3767	-80.272778	0.000566	5.657237	1.916724	0.045171
1768	8.8350e-01	-9.3431	-79.994494	0.000697	6.970524	2.361678	0.055657
1769	8.8400e-01	-9.2997	-79.813005	0.000455	4.545994	1.540224	0.036298
1770	8.8450e-01	-9.2452	-79.579085	0.000586	5.859281	1.985178	0.046784
1771	8.8500e-01	-9.2147	-79.320967	0.000647	6.465414	2.190542	0.051624
1772	8.8550e-01	-9.1842	-79.087047	0.000586	5.859281	1.985178	0.046784
1773	8.8600e-01	-9.1329	-78.945889	0.000354	3.535773	1.197952	0.028232
1774	8.8650e-01	-9.1040	-78.683737	0.000657	6.566436	2.224769	0.052430
1775	8.8700e-01	-9.0543	-78.502248	0.000455	4.545994	1.540224	0.036298
1776	8.8750e-01	-9.0142	-78.227997	0.000687	6.869502	2.327450	0.054850
1777	8.8800e-01	-8.9741	-78.022309	0.000515	5.152127	1.745588	0.041138
1778	8.8850e-01	-8.9404	-77.788389	0.000586	5.859281	1.985178	0.046784
1779	8.8900e-01	-8.9083	-77.610933	0.000444	4.444972	1.505997	0.035491
1780	8.8950e-01	-8.8602	-77.344748	0.000667	6.667458	2.258996	0.053237
1781	8.9000e-01	-8.8137	-77.155193	0.000475	4.748038	1.608679	0.037911
1782	8.9050e-01	-8.7832	-76.889008	0.000667	6.667458	2.258996	0.053237
1783	8.9100e-01	-8.7463	-76.671221	0.000546	5.455193	1.848269	0.043557
1784	8.9150e-01	-8.6998	-76.465533	0.000515	5.152127	1.745588	0.041138
1785	8.9200e-01	-8.6548	-76.235646	0.000576	5.758259	1.950951	0.045977
1786	8.9250e-01	-8.6260	-76.042058	0.000485	4.849060	1.642906	0.038718
1787	8.9300e-01	-8.5778	-75.792005	0.000626	6.263370	2.122087	0.050010
1788	8.9350e-01	-8.5313	-75.554053	0.000596	5.960303	2.019405	0.047591
1789	8.9400e-01	-8.5024	-75.332232	0.000556	5.556215	1.882497	0.044364
1790	8.9450e-01	-8.4559	-75.187041	0.000364	3.636795	1.232180	0.029038
1791	8.9500e-01	-8.4126	-74.844227	0.000859	8.586878	2.909313	0.068563
1792	8.9550e-01	-8.3757	-74.618374	0.000566	5.657237	1.916724	0.045171
1793	8.9600e-01	-8.3436	-74.360255	0.000647	6.465414	2.190542	0.051624
1794	8.9650e-01	-8.2987	-74.219097	0.000354	3.535773	1.197952	0.028232
1795	8.9700e-01	-8.2490	-73.985177	0.000586	5.859281	1.985178	0.046784
1796	8.9750e-01	-8.2137	-73.743191	0.000606	6.061325	2.053633	0.048397
1797	8.9800e-01	-8.1752	-73.537503	0.000515	5.152127	1.745588	0.041138
1798	8.9850e-01	-8.1335	-73.299551	0.000596	5.960303	2.019405	0.047591
1799	8.9900e-01	-8.0934	-73.134194	0.000414	4.141906	1.403316	0.033071
1800	8.9950e-01	-8.0532	-72.863976	0.000677	6.768480	2.293223	0.054044
1801	9.0000e-01	-8.0196	-72.601824	0.000657	6.566436	2.224769	0.052430
1802	9.0050e-01	-7.9698	-72.363872	0.000596	5.960303	2.019405	0.047591
1803	9.0100e-01	-7.9377	-72.174316	0.000475	4.748038	1.608679	0.037911
1804	9.0150e-01	-7.9008	-71.948463	0.000566	5.657237	1.916724	0.045171
1805	9.0200e-01	-7.8656	-71.654046	0.000737	7.374613	2.498586	0.058883
1806	9.0250e-01	-7.8126	-71.440292	0.000535	5.354171	1.814042	0.042751
1807	9.0300e-01	-7.7741	-71.242670	0.000495	4.950082	1.677133	0.039524
1808	9.0350e-01	-7.7436	-70.996651	0.000616	6.162348	2.087860	0.049204
1809	9.0400e-01	-7.6939	-70.794996	0.000505	5.051105	1.711361	0.040331
1810	9.0450e-01	-7.6538	-70.532845	0.000657	6.566436	2.224769	0.052430
1811	9.0500e-01	-7.6185	-70.290859	0.000606	6.061325	2.053633	0.048397
1812	9.0550e-01	-7.5736	-70.065005	0.000566	5.657237	1.916724	0.045171
1813	9.0600e-01	-7.5447	-69.835119	0.000576	5.758259	1.950951	0.045977
1814	9.0650e-01	-7.4934	-69.697993	0.000343	3.434751	1.163725	0.027425
1815	9.0700e-01	-7.4613	-69.367279	0.000828	8.283811	2.806631	0.066143
1816	9.0750e-01	-7.4180	-69.129327	0.000596	5.960303	2.019405	0.047591
1817	9.0800e-01	-7.3875	-68.935738	0.000485	4.849060	1.642906	0.038718
1818	9.0850e-01	-7.3410	-68.677620	0.000647	6.465414	2.190542	0.051624
1819	9.0900e-01	-7.2977	-68.496130	0.000455	4.545994	1.540224	0.036298
1820	9.0950e-01	-7.2624	-68.141217	0.000889	8.889944	3.011995	0.070983
1821	9.1000e-01	-7.2271	-68.004092	0.000343	3.434751	1.163725	0.027425
1822	9.1050e-01	-7.1789	-67.737908	0.000667	6.667458	2.258996	0.053237
1823	9.1100e-01	-7.1388	-67.540286	0.000495	4.950082	1.677133	0.039524
1824	9.1150e-01	-7.1003	-67.334598	0.000515	5.152127	1.745588	0.041138
1825	9.1200e-01	-7.0602	-67.056314	0.000697	6.970524	2.361678	0.055657
1826	9.1250e-01	-7.0217	-66.830460	0.000566	5.657237	1.916724	0.045171
1827	9.1300e-01	-6.9736	-66.596541	0.000586	5.859281	1.985178	0.046784
1828	9.1350e-01	-6.9319	-66.342455	0.000636	6.364392	2.156314	0.050817
1829	9.1400e-01	-6.9014	-66.096436	0.000616	6.162348	2.087860	0.049204
1830	9.1450e-01	-6.8677	-65.842351	0.000636	6.364392	2.156314	0.050817
1831	9.1500e-01	-6.8116	-65.632630	0.000525	5.253149	1.779815	0.041944
1832	9.1550e-01	-6.7683	-65.447108	0.000465	4.647016	1.574452	0.037105
1833	9.1600e-01	-6.7378	-65.168824	0.000697	6.970524	2.361678	0.055657
1834	9.1650e-01	-6.6961	-64.930871	0.000596	5.960303	2.019405	0.047591
1835	9.1700e-01	-6.6560	-64.721150	0.000525	5.253149	1.779815	0.041944
1836	9.1750e-01	-6.6207	-64.463032	0.000647	6.465414	2.190542	0.051624
1837	9.1800e-01	-6.5741	-64.269443	0.000485	4.849060	1.642906	0.038718
1838	9.1850e-01	-6.5340	-64.027457	0.000606	6.061325	2.053633	0.048397
1839	9.1900e-01	-6.5052	-63.777405	0.000626	6.263370	2.122087	0.050010
1840	9.1950e-01	-6.4651	-63.523320	0.000636	6.364392	2.156314	0.050817
1841	9.2000e-01	-6.4185	-63.293433	0.000576	5.758259	1.950951	0.045977
1842	9.2050e-01	-6.3752	-63.035315	0.000647	6.465414	2.190542	0.051624
1843	9.2100e-01	-6.3367	-62.817527	0.000546	5.455193	1.848269	0.043557
1844	9.2150e-01	-6.3014	-62.603773	0.000535	5.354171	1.814042	0.042751
1845	9.2200e-01	-6.2661	-62.333555	0.000677	6.768480	2.293223	0.054044
1846	9.2250e-01	-6.2260	-62.107702	0.000566	5.657237	1.916724	0.045171
1847	9.2300e-01	-6.1859	-61.865716	0.000606	6.061325	2.053633	0.048397
1848	9.2350e-01	-6.1378	-61.611631	0.000636	6.364392	2.156314	0.050817
1849	9.2400e-01	-6.0945	-61.389810	0.000556	5.556215	1.882497	0.044364
1850	9.2450e-01	-6.0624	-61.167990	0.000556	5.556215	1.882497	0.044364
1851	9.2500e-01	-6.0255	-60.942136	0.000566	5.657237	1.916724	0.045171
1852	9.2550e-01	-5.9806	-60.736448	0.000515	5.152127	1.745588	0.041138
1853	9.2600e-01	-5.9437	-60.437999	0.000748	7.475635	2.532814	0.059690
1854	9.2650e-01	-5.9052	-60.187947	0.000626	6.263370	2.122087	0.050010
1855	9.2700e-01	-5.8699	-59.949994	0.000596	5.960303	2.019405	0.047591
1856	9.2750e-01	-5.8202	-59.720108	0.000576	5.758259	1.950951	0.045977
1857	9.2800e-01	-5.7817	-59.474089	0.000616	6.162348	2.087860	0.049204
1858	9.2850e-01	-5.7335	-59.244202	0.000576	5.758259	1.950951	0.045977
1859	9.2900e-01	-5.6966	-59.022381	0.000556	5.556215	1.882497	0.044364
1860	9.2950e-01	-5.6710	-58.744098	0.000697	6.970524	2.361678	0.055657
1861	9.3000e-01	-5.6196	-58.506145	0.000596	5.960303	2.019405	0.047591
1862	9.3050e-01	-5.5699	-58.268192	0.000596	5.960303	2.019405	0.047591
1863	9.3100e-01	-5.5426	-58.034272	0.000586	5.859281	1.985178	0.046784
1864	9.3150e-01	-5.4993	-57.784220	0.000626	6.263370	2.122087	0.050010
1865	9.3200e-01	-5.4544	-57.546267	0.000596	5.960303	2.019405	0.047591
1866	9.3250e-01	-5.4255	-57.324447	0.000556	5.556215	1.882497	0.044364
1867	9.3300e-01	-5.3854	-57.042130	0.000707	7.071546	2.395905	0.056463
1868	9.3350e-01	-5.3469	-56.844508	0.000495	4.950082	1.677133	0.039524
1869	9.3400e-01	-5.3036	-56.622688	0.000556	5.556215	1.882497	0.044364
1870	9.3450e-01	-5.2635	-56.336338	0.000717	7.172568	2.430132	0.057270
1871	9.3500e-01	-5.2202	-56.114517	0.000556	5.556215	1.882497	0.044364
1872	9.3550e-01	-5.1737	-55.884631	0.000576	5.758259	1.950951	0.045977
1873	9.3600e-01	-5.1480	-55.590215	0.000737	7.374613	2.498586	0.058883
1874	9.3650e-01	-5.0950	-55.380493	0.000525	5.253149	1.779815	0.041944
1875	9.3700e-01	-5.0517	-55.122375	0.000647	6.465414	2.190542	0.051624
1876	9.3750e-01	-5.0164	-54.876356	0.000616	6.162348	2.087860	0.049204
1877	9.3800e-01	-4.9731	-54.682767	0.000485	4.849060	1.642906	0.038718
1878	9.3850e-01	-4.9458	-54.376252	0.000768	7.677679	2.601268	0.061303
1879	9.3900e-01	-4.9009	-54.146365	0.000576	5.758259	1.950951	0.045977
1880	9.3950e-01	-4.8512	-53.920512	0.000566	5.657237	1.916724	0.045171
1881	9.4000e-01	-4.8239	-53.642228	0.000697	6.970524	2.361678	0.055657
1882	9.4050e-01	-4.7758	-53.416374	0.000566	5.657237	1.916724	0.045171
1883	9.4100e-01	-4.7405	-53.158256	0.000647	6.465414	2.190542	0.051624
1884	9.4150e-01	-4.7020	-52.932403	0.000566	5.657237	1.916724	0.045171
1885	9.4200e-01	-4.6555	-52.674284	0.000647	6.465414	2.190542	0.051624
1886	9.4250e-01	-4.6234	-52.412133	0.000657	6.566436	2.224769	0.052430
1887	9.4300e-01	-4.5881	-52.154015	0.000647	6.465414	2.190542	0.051624
1888	9.4350e-01	-4.5368	-51.944293	0.000525	5.253149	1.779815	0.041944
1889	9.4400e-01	-4.4983	-51.702308	0.000606	6.061325	2.053633	0.048397
1890	9.4450e-01	-4.4582	-51.419991	0.000707	7.071546	2.395905	0.056463
1891	9.4500e-01	-4.4197	-51.198170	0.000556	5.556215	1.882497	0.044364
1892	9.4550e-01	-4.3812	-50.968284	0.000576	5.758259	1.950951	0.045977
1893	9.4600e-01	-4.3330	-50.690000	0.000697	6.970524	2.361678	0.055657
1894	9.4650e-01	-4.2961	-50.399617	0.000727	7.273591	2.464359	0.058077
1895	9.4700e-01	-4.2544	-50.161664	0.000596	5.960303	2.019405	0.047591
1896	9.4750e-01	-4.2223	-49.919678	0.000606	6.061325	2.053633	0.048397
1897	9.4800e-01	-4.1935	-49.697858	0.000556	5.556215	1.882497	0.044364
1898	9.4850e-01	-4.1325	-49.439739	0.000647	6.465414	2.190542	0.051624
1899	9.4900e-01	-4.0988	-49.173555	0.000667	6.667458	2.258996	0.053237
1900	9.4950e-01	-4.0555	-48.963834	0.000525	5.253149	1.779815	0.041944
1901	9.5000e-01	-4.0138	-48.665384	0.000748	7.475635	2.532814	0.059690
1902	9.5050e-01	-3.9833	-48.435498	0.000576	5.758259	1.950951	0.045977
1903	9.5100e-01	-3.9400	-48.201578	0.000586	5.859281	1.985178	0.046784
1904	9.5150e-01	-3.9031	-47.947493	0.000636	6.364392	2.156314	0.050817
1905	9.5200e-01	-3.8534	-47.673242	0.000687	6.869502	2.327450	0.054850
1906	9.5250e-01	-3.8181	-47.467554	0.000515	5.152127	1.745588	0.041138
1907	9.5300e-01	-3.7748	-47.152972	0.000788	7.879723	2.669722	0.062916
1908	9.5350e-01	-3.7427	-46.967450	0.000465	4.647016	1.574452	0.037105
1909	9.5400e-01	-3.7026	-46.677067	0.000727	7.273591	2.464359	0.058077
1910	9.5450e-01	-3.6560	-46.427015	0.000626	6.263370	2.122087	0.050010
1911	9.5500e-01	-3.6191	-46.197128	0.000576	5.758259	1.950951	0.045977
1912	9.5550e-01	-3.5774	-45.926910	0.000677	6.768480	2.293223	0.054044
1913	9.5600e-01	-3.5389	-45.697024	0.000576	5.758259	1.950951	0.045977
1914	9.5650e-01	-3.5101	-45.467137	0.000576	5.758259	1.950951	0.045977
1915	9.5700e-01	-3.4571	-45.188853	0.000697	6.970524	2.361678	0.055657
1916	9.5750e-01	-3.4250	-44.870238	0.000798	7.980745	2.703950	0.063723
1917	9.5800e-01	-3.3833	-44.644385	0.000566	5.657237	1.916724	0.045171
1918	9.5850e-01	-3.3368	-44.370134	0.000687	6.869502	2.327450	0.054850
1919	9.5900e-01	-3.2919	-44.156380	0.000535	5.354171	1.814042	0.042751
1920	9.5950e-01	-3.2550	-43.902295	0.000636	6.364392	2.156314	0.050817
1921	9.6000e-01	-3.2181	-43.611912	0.000727	7.273591	2.464359	0.058077
1922	9.6050e-01	-3.1796	-43.382025	0.000576	5.758259	1.950951	0.045977
1923	9.6100e-01	-3.1379	-43.083576	0.000748	7.475635	2.532814	0.059690
1924	9.6150e-01	-3.1010	-42.894020	0.000475	4.748038	1.608679	0.037911
1925	9.6200e-01	-3.0593	-42.627836	0.000667	6.667458	2.258996	0.053237
1926	9.6250e-01	-3.0208	-42.345519	0.000707	7.071546	2.395905	0.056463
1927	9.6300e-01	-2.9759	-42.131765	0.000535	5.354171	1.814042	0.042751
1928	9.6350e-01	-2.9470	-41.805084	0.000818	8.182789	2.772404	0.065336
1929	9.6400e-01	-2.9053	-41.579230	0.000566	5.657237	1.916724	0.045171
1930	9.6450e-01	-2.8539	-41.385641	0.000485	4.849060	1.642906	0.038718
1931	9.6500e-01	-2.8234	-41.091225	0.000737	7.374613	2.498586	0.058883
1932	9.6550e-01	-2.7866	-40.869405	0.000556	5.556215	1.882497	0.044364
1933	9.6600e-01	-2.7352	-40.587088	0.000707	7.071546	2.395905	0.056463
1934	9.6650e-01	-2.7047	-40.353168	0.000586	5.859281	1.985178	0.046784
1935	9.6700e-01	-2.6534	-40.086984	0.000667	6.667458	2.258996	0.053237
1936	9.6750e-01	-2.6133	-39.828865	0.000647	6.465414	2.190542	0.051624
1937	9.6800e-01	-2.5764	-39.546548	0.000707	7.071546	2.395905	0.056463
1938	9.6850e-01	-2.5363	-39.248099	0.000748	7.475635	2.532814	0.059690
1939	9.6900e-01	-2.4994	-39.058543	0.000475	4.748038	1.608679	0.037911
1940	9.6950e-01	-2.4577	-38.780260	0.000697	6.970524	2.361678	0.055657
1941	9.7000e-01	-2.4224	-38.586671	0.000485	4.849060	1.642906	0.038718
1942	9.7050e-01	-2.3839	-38.312420	0.000687	6.869502	2.327450	0.054850
1943	9.7100e-01	-2.3326	-37.985739	0.000818	8.182789	2.772404	0.065336
1944	9.7150e-01	-2.3053	-37.727621	0.000647	6.465414	2.190542	0.051624
1945	9.7200e-01	-2.2588	-37.513867	0.000535	5.354171	1.814042	0.042751
1946	9.7250e-01	-2.2122	-37.263815	0.000626	6.263370	2.122087	0.050010
1947	9.7300e-01	-2.1753	-36.981498	0.000707	7.071546	2.395905	0.056463
1948	9.7350e-01	-2.1449	-36.743545	0.000596	5.960303	2.019405	0.047591
1949	9.7400e-01	-2.1031	-36.449129	0.000737	7.374613	2.498586	0.058883
1950	9.7450e-01	-2.0582	-36.275705	0.000434	4.343950	1.471770	0.034685
1951	9.7500e-01	-2.0197	-35.928859	0.000869	8.687900	2.943540	0.069369
1952	9.7550e-01	-1.9780	-35.698972	0.000576	5.758259	1.950951	0.045977
1953	9.7600e-01	-1.9395	-35.444887	0.000636	6.364392	2.156314	0.050817
1954	9.7650e-01	-1.8914	-35.202901	0.000606	6.061325	2.053633	0.048397
1955	9.7700e-01	-1.8641	-34.936717	0.000667	6.667458	2.258996	0.053237
1956	9.7750e-01	-1.8128	-34.654400	0.000707	7.071546	2.395905	0.056463
1957	9.7800e-01	-1.7839	-34.400315	0.000636	6.364392	2.156314	0.050817
1958	9.7850e-01	-1.7342	-34.081700	0.000798	7.980745	2.703950	0.063723
1959	9.7900e-01	-1.7005	-33.843747	0.000596	5.960303	2.019405	0.047591
1960	9.7950e-01	-1.6524	-33.597728	0.000616	6.162348	2.087860	0.049204
1961	9.8000e-01	-1.6139	-33.359775	0.000596	5.960303	2.019405	0.047591
1962	9.8050e-01	-1.5818	-33.085524	0.000687	6.869502	2.327450	0.054850
1963	9.8100e-01	-1.5385	-32.726579	0.000899	8.990966	3.046222	0.071789
1964	9.8150e-01	-1.5000	-32.565255	0.000404	4.040884	1.369088	0.032265
1965	9.8200e-01	-1.4615	-32.339401	0.000566	5.657237	1.916724	0.045171
1966	9.8250e-01	-1.4230	-32.016753	0.000808	8.081767	2.738177	0.064530
1967	9.8300e-01	-1.3780	-31.790900	0.000566	5.657237	1.916724	0.045171
1968	9.8350e-01	-1.3395	-31.488417	0.000758	7.576657	2.567041	0.060496
1969	9.8400e-01	-1.3058	-31.286762	0.000505	5.051105	1.711361	0.040331
1970	9.8450e-01	-1.2545	-31.004446	0.000707	7.071546	2.395905	0.056463
1971	9.8500e-01	-1.2224	-30.738261	0.000667	6.667458	2.258996	0.053237
1972	9.8550e-01	-1.1887	-30.431746	0.000768	7.677679	2.601268	0.061303
1973	9.8600e-01	-1.1454	-30.185726	0.000616	6.162348	2.087860	0.049204
1974	9.8650e-01	-1.0973	-29.951807	0.000586	5.859281	1.985178	0.046784
1975	9.8700e-01	-1.0540	-29.617060	0.000838	8.384834	2.840859	0.066949
1976	9.8750e-01	-1.0187	-29.358941	0.000647	6.465414	2.190542	0.051624
1977	9.8800e-01	-0.9754	-29.145187	0.000535	5.354171	1.814042	0.042751
1978	9.8850e-01	-0.9369	-28.870936	0.000687	6.869502	2.327450	0.054850
1979	9.8900e-01	-0.8968	-28.632984	0.000596	5.960303	2.019405	0.047591
1980	9.8950e-01	-0.8615	-28.334534	0.000748	7.475635	2.532814	0.059690
1981	9.9000e-01	-0.8117	-28.068350	0.000667	6.667458	2.258996	0.053237
1982	9.9050e-01	-0.7861	-27.806198	0.000657	6.566436	2.224769	0.052430
1983	9.9100e-01	-0.7444	-27.548080	0.000647	6.465414	2.190542	0.051624
1984	9.9150e-01	-0.6946	-27.285929	0.000657	6.566436	2.224769	0.052430
1985	9.9200e-01	-0.6529	-27.007645	0.000697	6.970524	2.361678	0.055657
1986	9.9250e-01	-0.6160	-26.765659	0.000606	6.061325	2.053633	0.048397
1987	9.9300e-01	-0.5743	-26.471243	0.000737	7.374613	2.498586	0.058883
1988	9.9350e-01	-0.5374	-26.221191	0.000626	6.263370	2.122087	0.050010
1989	9.9400e-01	-0.4989	-25.955006	0.000667	6.667458	2.258996	0.053237
1990	9.9450e-01	-0.4588	-25.684788	0.000677	6.768480	2.293223	0.054044
1991	9.9500e-01	-0.4171	-25.426670	0.000647	6.465414	2.190542	0.051624
1992	9.9550e-01	-0.3706	-25.172585	0.000636	6.364392	2.156314	0.050817
1993	9.9600e-01	-0.3353	-24.902367	0.000677	6.768480	2.293223	0.054044
1994	9.9650e-01	-0.3032	-24.640216	0.000657	6.566436	2.224769	0.052430
1995	9.9700e-01	-0.2583	-24.337734	0.000758	7.576657	2.567041	0.060496
1996	9.9750e-01	-0.2198	-24.087681	0.000626	6.263370	2.122087	0.050010
1997	9.9800e-01	-0.1861	-23.817464	0.000677	6.768480	2.293223	0.054044
1998	9.9850e-01	-0.1348	-23.567412	0.000626	6.263370	2.122087	0.050010
1999	9.9900e-01	-0.0963	-23.349624	0.000546	5.455193	1.848269	0.043557
2000	9.9950e-01	-0.0642	-23.018910	0.000828	8.283811	2.806631	0.066143
2001	1.0000e+00	-0.0160	-22.716428	0.000828	8.283811	2.806631	0.060496

PMax (uC/cm2):	1.30e+02
Pr (uC/cm2):	1.63e+01
-Pr (uC/cm2):	-1.56e+01
PLoss (uC/cm2):	-1.56e+01
-Vc:	-2.33e+00
C (Max-Eff) (nF):	6.50e-01
K (Eff):	2.20e+03
Vert. (+/-Pr) Shift (uC/cm2):	3.41e-01
Offset (uC/cm2):	7.12e+00

A (Loop Area - uC/cm2·Volts):	-2.52e-01



Hysteresis Version: 5.48.1 - Radiant Technologies, Inc., 1999 - 9/12/24

