»»»»»»»»»»»»»»»»»»»»»»»»»»»»»»»»»»»» Hysteresis ««««««««««««««««««««««««««««««««««««
»»»  Executed Version:	5.48.1
»»»  Vision Version:	5.48.4 (R)
»»»  Vision Compiled:	9/18/24
»»»  Driver Version:	5.47.0
»»»  Windows Version:	Windows 8 or 8.1
»»»  Processor Information:	x86 (AMD or Intel) - 32 Processors
»»»  Tester Name:	PMF21124-494 (100V)
»»»  Tester S/N:	PMF21124-494
»»»  Internal Amp Type:	100V RevK 270k
»»»  Internal Amp S/N:	iAB2-596/K     
»»»  Execution Count:	1
»»»»»»»»»»»»»»»»»»»»»»»»»»»»»»»»»»»»»»»»»»««««««««««««««««««««««««««««««««««««««««««

Stored:	6/18/2025 - 16:5:51
Configured:	06/18/25 09:47:30 AM
Executed:	06/18/25 04:05:23 PM

»»»»»»»»»»»»»»»»»»»»»»»»»»»»»»»»»»» Sample Info ««««««««««««««««««««««««««««««««««««
Sample Name:	
Lot Name:	
Wafer Name:	
Die Row/Column:	0/0
Capacitor Number:	0
Sample Area (cm2):	1.00e-04
Sample Thickness (microns):	3.00e-01

Amplifier:	Internal

»»»»»»»»»»»»»»»»»»»»»»»»»»»»»»»»»»» Tester Info «««««««««««««««««««««««««««««««««««
Tester Name:	PMF21124-494 (100V)
Tester Serial Number:	PMF21124-494
Return Signal Amp. Level:	0.19 [Index: 3]

»»»»»»»»»»»»»»»»»»»»»»»»»»»»»»»» Hysteresis Info ««««««««««««««««««««««««««««««««««
Task Name:	Hyst-554
Volts:	20.00
Field:	666.67 (kV/cm)
DCBias:	0.00
DCField:	0.00 (kV/cm)
Hysteresis Period (ms):	1.00e+00
Preset:	Enabled
Preset Delay (ms):	1.00e+03
Profile:	Standard Bipolar

»»»»»»»»»»»»»»»»»»»»»»»»»»»»»»»»»»»»»» Data «««««««««««««««««««««««««««««««««««««««
Points:	2001

Valid Data

Point	Time (ms)	Drive Voltage	Measured Polarization (uC/cm2)	Capacitance (uF)	Normalized Capacitance (uF/cm2)	Dielectric Constant	Instantaneous Current (mA)
   1	0.0000e+00	0.0112	-16.481257	0.000909	9.092171	3.080511	0.072596
   2	5.0000e-04	0.0305	-16.118279	0.000909	9.092171	3.080511	0.072596
   3	1.0000e-03	0.0610	-15.960988	0.000394	3.939941	1.334888	0.031458
   4	1.5000e-03	0.0995	-15.900491	0.000152	1.515362	0.513418	0.012099
   5	2.0000e-03	0.1332	-15.230997	0.001677	16.770004	5.681831	0.133899
   6	2.5000e-03	0.1652	-14.892217	0.000849	8.486026	2.875143	0.067756
   7	3.0000e-03	0.2021	-14.617966	0.000687	6.869640	2.327497	0.054850
   8	3.5000e-03	0.2519	-14.456642	0.000404	4.040965	1.369116	0.032265
   9	4.0000e-03	0.2936	-13.892008	0.001414	14.143377	4.791906	0.112927
  10	4.5000e-03	0.3321	-13.468533	0.001061	10.607533	3.593929	0.084695
  11	5.0000e-03	0.3706	-13.174117	0.000737	7.374761	2.498637	0.058883
  12	5.5000e-03	0.4219	-12.879700	0.000737	7.374761	2.498637	0.058883
  13	6.0000e-03	0.4540	-12.488490	0.000980	9.799340	3.320106	0.078242
  14	6.5000e-03	0.4893	-12.206173	0.000707	7.071688	2.395953	0.056463
  15	7.0000e-03	0.5358	-11.790764	0.001041	10.405484	3.525474	0.083082
  16	7.5000e-03	0.5695	-11.431818	0.000899	8.991147	3.046283	0.071789
  17	8.0000e-03	0.6016	-11.145468	0.000717	7.172713	2.430181	0.057270
  18	8.5000e-03	0.6513	-11.032541	0.000283	2.828675	0.958381	0.022585
  19	9.0000e-03	0.6914	-10.681662	0.000879	8.789099	2.977827	0.070176
  20	9.5000e-03	0.7299	-10.080730	0.001505	15.052594	5.099957	0.120186
  21	1.0000e-02	0.7620	-9.596758	0.001212	12.122895	4.107348	0.096794
  22	1.0500e-02	0.8069	-9.318474	0.000697	6.970664	2.361725	0.055657
  23	1.1000e-02	0.8454	-8.935330	0.000960	9.597291	3.251650	0.076629
  24	1.1500e-02	0.8871	-8.608649	0.000818	8.182954	2.772460	0.065336
  25	1.2000e-02	0.9337	-8.281968	0.000818	8.182954	2.772460	0.065336
  26	1.2500e-02	0.9770	-8.233571	0.000121	1.212289	0.410735	0.009679
  27	1.3000e-02	1.0155	-7.838327	0.000990	9.900364	3.354334	0.079049
  28	1.3500e-02	1.0588	-7.487448	0.000879	8.789099	2.977827	0.070176
  29	1.4000e-02	1.0829	-7.072038	0.001041	10.405484	3.525474	0.083082
  30	1.4500e-02	1.1342	-6.608232	0.001162	11.617774	3.936208	0.092761
  31	1.5000e-02	1.1695	-6.281551	0.000818	8.182954	2.772460	0.065336
  32	1.5500e-02	1.2192	-5.777414	0.001263	12.628015	4.278487	0.100827
  33	1.6000e-02	1.2561	-5.487031	0.000727	7.273737	2.464409	0.058077
  34	1.6500e-02	1.2898	-5.370071	0.000293	2.929700	0.992609	0.023392
  35	1.7000e-02	1.3331	-4.809470	0.001404	14.042353	4.757678	0.112120
  36	1.7500e-02	1.3796	-4.543286	0.000667	6.667592	2.259041	0.053237
  37	1.8000e-02	1.4149	-4.063347	0.001202	12.021870	4.073120	0.095988
  38	1.8500e-02	1.4534	-3.785063	0.000697	6.970664	2.361725	0.055657
  39	1.9000e-02	1.4839	-3.587441	0.000495	4.950182	1.677167	0.039524
  40	1.9500e-02	1.5272	-3.099436	0.001222	12.223919	4.141576	0.097601
  41	2.0000e-02	1.5705	-2.748557	0.000879	8.789099	2.977827	0.070176
  42	2.0500e-02	1.6203	-2.244419	0.001263	12.628015	4.278487	0.100827
  43	2.1000e-02	1.6508	-2.083095	0.000404	4.040965	1.369116	0.032265
  44	2.1500e-02	1.6957	-1.603157	0.001202	12.021870	4.073120	0.095988
  45	2.2000e-02	1.7390	-1.288575	0.000788	7.879881	2.669776	0.062916
  46	2.2500e-02	1.7695	-0.901398	0.000970	9.698316	3.285878	0.077435
  47	2.3000e-02	1.8112	-0.683610	0.000546	5.455303	1.848307	0.043557
  48	2.3500e-02	1.8593	-0.260135	0.001061	10.607533	3.593929	0.084695
  49	2.4000e-02	1.8898	0.171407	0.001081	10.809581	3.662385	0.086308
  50	2.4500e-02	1.9267	0.691676	0.001303	13.032112	4.415399	0.104054
  51	2.5000e-02	1.9764	0.990126	0.000748	7.475785	2.532865	0.059690
  52	2.5500e-02	2.0053	1.195814	0.000515	5.152230	1.745623	0.041138
  53	2.6000e-02	2.0566	1.385369	0.000475	4.748134	1.608711	0.037911
  54	2.6500e-02	2.0935	1.800779	0.001041	10.405484	3.525474	0.083082
  55	2.7000e-02	2.1304	2.421876	0.001556	15.557715	5.271096	0.124219
  56	2.7500e-02	2.1705	2.732424	0.000778	7.778857	2.635548	0.062110
  57	2.8000e-02	2.2090	3.071205	0.000849	8.486026	2.875143	0.067756
  58	2.8500e-02	2.2588	3.450316	0.000950	9.496267	3.217422	0.075822
  59	2.9000e-02	2.2941	3.825394	0.000940	9.395243	3.183195	0.075016
  60	2.9500e-02	2.3406	4.111744	0.000717	7.172713	2.430181	0.057270
  61	3.0000e-02	2.3743	4.277101	0.000414	4.141989	1.403344	0.033071
  62	3.0500e-02	2.4144	4.829636	0.001384	13.840305	4.689222	0.110507
  63	3.1000e-02	2.4545	5.245045	0.001041	10.405484	3.525474	0.083082
  64	3.1500e-02	2.4914	5.660454	0.001041	10.405484	3.525474	0.083082
  65	3.2000e-02	2.5331	5.882274	0.000556	5.556327	1.882534	0.044364
  66	3.2500e-02	2.5780	6.289617	0.001020	10.203436	3.457018	0.081469
  67	3.3000e-02	2.6149	6.688894	0.001000	10.001388	3.388562	0.079855
  68	3.3500e-02	2.6486	7.059939	0.000929	9.294219	3.148967	0.074209
  69	3.4000e-02	2.6983	7.459216	0.001000	10.001388	3.388562	0.079855
  70	3.4500e-02	2.7272	7.600374	0.000354	3.535844	1.197976	0.028232
  71	3.5000e-02	2.7721	7.858493	0.000647	6.465544	2.190586	0.051624
  72	3.5500e-02	2.8170	8.431193	0.001435	14.345425	4.860362	0.114540
  73	3.6000e-02	2.8523	8.999860	0.001424	14.244401	4.826134	0.113733
  74	3.6500e-02	2.8892	9.221680	0.000556	5.556327	1.882534	0.044364
  75	3.7000e-02	2.9341	9.572560	0.000879	8.789099	2.977827	0.070176
  76	3.7500e-02	2.9823	9.866976	0.000737	7.374761	2.498637	0.058883
  77	3.8000e-02	3.0127	10.286418	0.001051	10.506509	3.559701	0.083888
  78	3.8500e-02	3.0496	10.721993	0.001091	10.910605	3.696613	0.087115
  79	3.9000e-02	3.0881	11.137402	0.001041	10.405484	3.525474	0.083082
  80	3.9500e-02	3.1331	11.403586	0.000667	6.667592	2.259041	0.053237
  81	4.0000e-02	3.1732	11.919823	0.001293	12.931087	4.381171	0.103247
  82	4.0500e-02	3.2149	12.222305	0.000758	7.576809	2.567092	0.060496
  83	4.1000e-02	3.2534	12.528821	0.000768	7.677833	2.601320	0.061303
  84	4.1500e-02	3.2919	12.843402	0.000788	7.879881	2.669776	0.062916
  85	4.2000e-02	3.3256	13.218481	0.000940	9.395243	3.183195	0.075016
  86	4.2500e-02	3.3721	13.617757	0.001000	10.001388	3.388562	0.079855
  87	4.3000e-02	3.4106	14.089630	0.001182	11.819822	4.004664	0.094375
  88	4.3500e-02	3.4475	14.327583	0.000596	5.960423	2.019446	0.047591
  89	4.4000e-02	3.4876	14.690562	0.000909	9.092171	3.080511	0.072596
  90	4.4500e-02	3.5405	14.980945	0.000727	7.273737	2.464409	0.058077
  91	4.5000e-02	3.5742	15.376188	0.000990	9.900364	3.354334	0.079049
  92	4.5500e-02	3.6175	16.041650	0.001667	16.668980	5.647603	0.133092
  93	4.6000e-02	3.6496	16.295735	0.000636	6.364520	2.156358	0.050817
  94	4.6500e-02	3.6913	16.864402	0.001424	14.244401	4.826134	0.113733
  95	4.7000e-02	3.7363	17.009593	0.000364	3.636868	1.232204	0.029038
  96	4.7500e-02	3.7699	17.267712	0.000647	6.465544	2.190586	0.051624
  97	4.8000e-02	3.8117	17.489532	0.000556	5.556327	1.882534	0.044364
  98	4.8500e-02	3.8486	18.005769	0.001293	12.931087	4.381171	0.103247
  99	4.9000e-02	3.8822	18.497807	0.001232	12.324943	4.175804	0.098408
 100	4.9500e-02	3.9320	18.852719	0.000889	8.890123	3.012055	0.070983
 101	5.0000e-02	3.9705	19.098738	0.000616	6.162471	2.087902	0.049204
 102	5.0500e-02	4.0170	19.594810	0.001243	12.425967	4.210032	0.099214
 103	5.1000e-02	4.0587	19.945689	0.000879	8.789099	2.977827	0.070176
 104	5.1500e-02	4.0844	20.417562	0.001182	11.819822	4.004664	0.094375
 105	5.2000e-02	4.1357	20.768441	0.000879	8.789099	2.977827	0.070176
 106	5.2500e-02	4.1790	21.099155	0.000828	8.283978	2.806688	0.066143
 107	5.3000e-02	4.2127	21.474234	0.000940	9.395243	3.183195	0.075016
 108	5.3500e-02	4.2432	22.026768	0.001384	13.840305	4.689222	0.110507
 109	5.4000e-02	4.2897	22.333284	0.000768	7.677833	2.601320	0.061303
 110	5.4500e-02	4.3314	22.514773	0.000455	4.546085	1.540255	0.036298
 111	5.5000e-02	4.3763	22.877752	0.000909	9.092171	3.080511	0.072596
 112	5.5500e-02	4.4068	23.317360	0.001101	11.011629	3.730841	0.087922
 113	5.6000e-02	4.4534	23.752934	0.001091	10.910605	3.696613	0.087115
 114	5.6500e-02	4.4951	24.273204	0.001303	13.032112	4.415399	0.104054
 115	5.7000e-02	4.5336	24.539388	0.000667	6.667592	2.259041	0.053237
 116	5.7500e-02	4.5769	24.833805	0.000737	7.374761	2.498637	0.058883
 117	5.8000e-02	4.6009	25.354074	0.001303	13.032112	4.415399	0.104054
 118	5.8500e-02	4.6555	25.624292	0.000677	6.768616	2.293269	0.054044
 119	5.9000e-02	4.6956	25.761417	0.000343	3.434820	1.163749	0.027425
 120	5.9500e-02	4.7373	26.406713	0.001616	16.163859	5.476464	0.129059
 121	6.0000e-02	4.7710	26.785824	0.000950	9.496267	3.217422	0.075822
 122	6.0500e-02	4.8063	27.096373	0.000778	7.778857	2.635548	0.062110
 123	6.1000e-02	4.8480	27.302061	0.000515	5.152230	1.745623	0.041138
 124	6.1500e-02	4.8945	27.951390	0.001626	16.264883	5.510692	0.129866
 125	6.2000e-02	4.9330	28.241773	0.000727	7.273737	2.464409	0.058077
 126	6.2500e-02	4.9667	28.657182	0.001041	10.405484	3.525474	0.083082
 127	6.3000e-02	5.0180	29.092757	0.001091	10.910605	3.696613	0.087115
 128	6.3500e-02	5.0469	29.500100	0.001020	10.203436	3.457018	0.081469
 129	6.4000e-02	5.0902	29.770317	0.000677	6.768616	2.293269	0.054044
 130	6.4500e-02	5.1368	30.181693	0.001030	10.304460	3.491246	0.082275
 131	6.5000e-02	5.1688	30.597103	0.001041	10.405484	3.525474	0.083082
 132	6.5500e-02	5.2105	31.109306	0.001283	12.830063	4.346943	0.102441
 133	6.6000e-02	5.2507	31.403722	0.000737	7.374761	2.498637	0.058883
 134	6.6500e-02	5.2876	31.730403	0.000818	8.182954	2.772460	0.065336
 135	6.7000e-02	5.3277	32.182110	0.001131	11.314702	3.833525	0.090341
 136	6.7500e-02	5.3758	32.541056	0.000899	8.991147	3.046283	0.071789
 137	6.8000e-02	5.4143	32.774976	0.000586	5.859399	1.985218	0.046784
 138	6.8500e-02	5.4528	33.210550	0.001091	10.910605	3.696613	0.087115
 139	6.9000e-02	5.4945	33.625960	0.001041	10.405484	3.525474	0.083082
 140	6.9500e-02	5.5362	33.888111	0.000657	6.566568	2.224813	0.052430
 141	7.0000e-02	5.5699	34.194626	0.000768	7.677833	2.601320	0.061303
 142	7.0500e-02	5.6116	34.839922	0.001616	16.163859	5.476464	0.129059
 143	7.1000e-02	5.6485	34.997213	0.000394	3.939941	1.334888	0.031458
 144	7.1500e-02	5.6886	35.473119	0.001192	11.920846	4.038892	0.095181
 145	7.2000e-02	5.7319	35.832065	0.000899	8.991147	3.046283	0.071789
 146	7.2500e-02	5.7720	36.203110	0.000929	9.294219	3.148967	0.074209
 147	7.3000e-02	5.8073	36.654817	0.001131	11.314702	3.833525	0.090341
 148	7.3500e-02	5.8619	36.860505	0.000515	5.152230	1.745623	0.041138
 149	7.4000e-02	5.8923	37.376741	0.001293	12.931087	4.381171	0.103247
 150	7.4500e-02	5.9341	37.844581	0.001172	11.718798	3.970436	0.093568
 151	7.5000e-02	5.9710	38.385016	0.001354	13.537232	4.586538	0.108087
 152	7.5500e-02	6.0046	38.679432	0.000737	7.374761	2.498637	0.058883
 153	7.6000e-02	6.0528	38.877054	0.000495	4.950182	1.677167	0.039524
 154	7.6500e-02	6.1025	39.248099	0.000929	9.294219	3.148967	0.074209
 155	7.7000e-02	6.1282	39.687707	0.001101	11.011629	3.730841	0.087922
 156	7.7500e-02	6.1667	40.091017	0.001010	10.102412	3.422790	0.080662
 157	7.8000e-02	6.2100	40.361234	0.000677	6.768616	2.293269	0.054044
 158	7.8500e-02	6.2485	40.925868	0.001414	14.143377	4.791906	0.112927
 159	7.9000e-02	6.2918	41.385641	0.001152	11.516750	3.901980	0.091955
 160	7.9500e-02	6.3271	41.680058	0.000737	7.374761	2.498637	0.058883
 161	8.0000e-02	6.3720	42.147897	0.001172	11.718798	3.970436	0.093568
 162	8.0500e-02	6.4057	42.450379	0.000758	7.576809	2.567092	0.060496
 163	8.1000e-02	6.4602	43.140039	0.001728	17.275125	5.852971	0.137932
 164	8.1500e-02	6.5020	43.212635	0.000182	1.818434	0.616102	0.014519
 165	8.2000e-02	6.5228	43.305396	0.000232	2.323555	0.787242	0.018552
 166	8.2500e-02	6.5645	43.825666	0.001303	13.032112	4.415399	0.104054
 167	8.3000e-02	6.6078	44.269307	0.001111	11.112653	3.765069	0.088728
 168	8.3500e-02	6.6544	44.499193	0.000576	5.758375	1.950990	0.045977
 169	8.4000e-02	6.6929	44.979132	0.001202	12.021870	4.073120	0.095988
 170	8.4500e-02	6.7330	45.233217	0.000636	6.364520	2.156358	0.050817
 171	8.5000e-02	6.7683	45.765586	0.001334	13.335184	4.518083	0.106474
 172	8.5500e-02	6.8084	46.301989	0.001344	13.436208	4.552311	0.107280
 173	8.6000e-02	6.8533	46.439114	0.000343	3.434820	1.163749	0.027425
 174	8.6500e-02	6.8902	46.798060	0.000899	8.991147	3.046283	0.071789
 175	8.7000e-02	6.9287	47.273965	0.001192	11.920846	4.038892	0.095181
 176	8.7500e-02	6.9752	47.878930	0.001515	15.153618	5.134185	0.120993
 177	8.8000e-02	7.0105	48.056386	0.000445	4.445061	1.506028	0.035491
 178	8.8500e-02	7.0586	48.366935	0.000778	7.778857	2.635548	0.062110
 179	8.9000e-02	7.0891	48.774278	0.001020	10.203436	3.457018	0.081469
 180	8.9500e-02	7.1292	49.254217	0.001202	12.021870	4.073120	0.095988
 181	9.0000e-02	7.1693	49.673659	0.001051	10.506509	3.559701	0.083888
 182	9.0500e-02	7.2126	49.968075	0.000737	7.374761	2.498637	0.058883
 183	9.1000e-02	7.2527	50.391550	0.001061	10.607533	3.593929	0.084695
 184	9.1500e-02	7.2784	50.621437	0.000576	5.758375	1.950990	0.045977
 185	9.2000e-02	7.3313	51.061045	0.001101	11.011629	3.730841	0.087922
 186	9.2500e-02	7.3747	51.242534	0.000455	4.546085	1.540255	0.036298
 187	9.3000e-02	7.4148	51.782970	0.001354	13.537232	4.586538	0.108087
 188	9.3500e-02	7.4549	52.113684	0.000828	8.283978	2.806688	0.066143
 189	9.4000e-02	7.4886	52.545225	0.001081	10.809581	3.662385	0.086308
 190	9.4500e-02	7.5271	52.964667	0.001051	10.506509	3.559701	0.083888
 191	9.5000e-02	7.5640	53.440573	0.001192	11.920846	4.038892	0.095181
 192	9.5500e-02	7.6169	53.630129	0.000475	4.748134	1.608711	0.037911
 193	9.6000e-02	7.6538	53.944710	0.000788	7.879881	2.669776	0.062916
 194	9.6500e-02	7.6907	54.489179	0.001364	13.638256	4.620766	0.108894
 195	9.7000e-02	7.7324	54.747297	0.000647	6.465544	2.190586	0.051624
 196	9.7500e-02	7.7709	55.126408	0.000950	9.496267	3.217422	0.075822
 197	9.8000e-02	7.8190	55.634579	0.001273	12.729039	4.312715	0.101634
 198	9.8500e-02	7.8559	55.896730	0.000657	6.566568	2.224813	0.052430
 199	9.9000e-02	7.8960	56.130650	0.000586	5.859399	1.985218	0.046784
 200	9.9500e-02	7.9265	56.784012	0.001637	16.365908	5.544920	0.130672
 201	1.0000e-01	7.9778	57.034064	0.000626	6.263496	2.122130	0.050010
 202	1.0050e-01	8.0067	57.388977	0.000889	8.890123	3.012055	0.070983
 203	1.0100e-01	8.0532	57.885048	0.001243	12.425967	4.210032	0.099214
 204	1.0150e-01	8.1014	58.199629	0.000788	7.879881	2.669776	0.062916
 205	1.0200e-01	8.1254	58.675535	0.001192	11.920846	4.038892	0.095181
 206	1.0250e-01	8.1671	59.147408	0.001182	11.819822	4.004664	0.094375
 207	1.0300e-01	8.2217	59.538618	0.000980	9.799340	3.320106	0.078242
 208	1.0350e-01	8.2538	59.905630	0.000919	9.193195	3.114739	0.073402
 209	1.0400e-01	8.2891	60.288774	0.000960	9.597291	3.251650	0.076629
 210	1.0450e-01	8.3324	60.433966	0.000364	3.636868	1.232204	0.029038
 211	1.0500e-01	8.3741	60.800978	0.000919	9.193195	3.114739	0.073402
 212	1.0550e-01	8.4062	61.107493	0.000768	7.677833	2.601320	0.061303
 213	1.0600e-01	8.4623	61.635829	0.001323	13.234160	4.483855	0.105667
 214	1.0650e-01	8.4896	61.906047	0.000677	6.768616	2.293269	0.054044
 215	1.0700e-01	8.5361	62.398085	0.001232	12.324943	4.175804	0.098408
 216	1.0750e-01	8.5650	62.728799	0.000828	8.283978	2.806688	0.066143
 217	1.0800e-01	8.6195	63.115977	0.000970	9.698316	3.285878	0.077435
 218	1.0850e-01	8.6613	63.551551	0.001091	10.910605	3.696613	0.087115
 219	1.0900e-01	8.6933	63.608015	0.000141	1.414338	0.479191	0.011293
 220	1.0950e-01	8.7318	64.269443	0.001657	16.567956	5.613375	0.132286
 221	1.1000e-01	8.7671	64.567892	0.000748	7.475785	2.532865	0.059690
 222	1.1050e-01	8.8104	64.890540	0.000808	8.081930	2.738232	0.064530
 223	1.1100e-01	8.8554	65.277717	0.000970	9.698316	3.285878	0.077435
 224	1.1150e-01	8.8987	65.676994	0.001000	10.001388	3.388562	0.079855
 225	1.1200e-01	8.9356	66.080304	0.001010	10.102412	3.422790	0.080662
 226	1.1250e-01	8.9709	66.572342	0.001232	12.324943	4.175804	0.098408
 227	1.1300e-01	9.0062	66.878858	0.000768	7.677833	2.601320	0.061303
 228	1.1350e-01	9.0511	67.382995	0.001263	12.628015	4.278487	0.100827
 229	1.1400e-01	9.0912	67.875033	0.001232	12.324943	4.175804	0.098408
 230	1.1450e-01	9.1313	68.250111	0.000940	9.395243	3.183195	0.075016
 231	1.1500e-01	9.1746	68.471932	0.000556	5.556327	1.882534	0.044364
 232	1.1550e-01	9.2035	68.717951	0.000616	6.162471	2.087902	0.049204
 233	1.1600e-01	9.2532	69.423743	0.001768	17.679221	5.989882	0.141158
 234	1.1650e-01	9.2997	69.532636	0.000273	2.727651	0.924153	0.021779
 235	1.1700e-01	9.3334	69.919814	0.000970	9.698316	3.285878	0.077435
 236	1.1750e-01	9.3735	70.278760	0.000899	8.991147	3.046283	0.071789
 237	1.1800e-01	9.4136	70.625606	0.000869	8.688074	2.943599	0.069369
 238	1.1850e-01	9.4473	70.887758	0.000657	6.566568	2.224813	0.052430
 239	1.1900e-01	9.4971	71.278968	0.000980	9.799340	3.320106	0.078242
 240	1.1950e-01	9.5307	71.678245	0.001000	10.001388	3.388562	0.079855
 241	1.2000e-01	9.5773	71.984760	0.000768	7.677833	2.601320	0.061303
 242	1.2050e-01	9.6110	72.505030	0.001303	13.032112	4.415399	0.104054
 243	1.2100e-01	9.6511	72.835744	0.000828	8.283978	2.806688	0.066143
 244	1.2150e-01	9.6944	73.239054	0.001010	10.102412	3.422790	0.080662
 245	1.2200e-01	9.7457	73.396345	0.000394	3.939941	1.334888	0.031458
 246	1.2250e-01	9.7730	73.844019	0.001121	11.213677	3.799297	0.089535
 247	1.2300e-01	9.8083	74.303792	0.001152	11.516750	3.901980	0.091955
 248	1.2350e-01	9.8548	74.707102	0.001010	10.102412	3.422790	0.080662
 249	1.2400e-01	9.8933	75.199140	0.001232	12.324943	4.175804	0.098408
 250	1.2450e-01	9.9302	75.424994	0.000566	5.657351	1.916762	0.045171
 251	1.2500e-01	9.9703	75.864601	0.001101	11.011629	3.730841	0.087922
 252	1.2550e-01	10.0120	76.199348	0.000839	8.385002	2.840916	0.066949
 253	1.2600e-01	10.0521	76.538129	0.000849	8.486026	2.875143	0.067756
 254	1.2650e-01	10.1002	76.784148	0.000616	6.162471	2.087902	0.049204
 255	1.2700e-01	10.1259	77.130994	0.000869	8.688074	2.943599	0.069369
 256	1.2750e-01	10.1724	77.659330	0.001323	13.234160	4.483855	0.105667
 257	1.2800e-01	10.2125	78.050541	0.000980	9.799340	3.320106	0.078242
 258	1.2850e-01	10.2494	78.365122	0.000788	7.879881	2.669776	0.062916
 259	1.2900e-01	10.2944	78.643406	0.000697	6.970664	2.361725	0.055657
 260	1.2950e-01	10.3377	78.949922	0.000768	7.677833	2.601320	0.061303
 261	1.3000e-01	10.3714	79.445993	0.001243	12.425967	4.210032	0.099214
 262	1.3050e-01	10.4131	79.821071	0.000940	9.395243	3.183195	0.075016
 263	1.3100e-01	10.4564	80.123553	0.000758	7.576809	2.567092	0.060496
 264	1.3150e-01	10.5013	80.551062	0.001071	10.708557	3.628157	0.085502
 265	1.3200e-01	10.5366	80.821279	0.000677	6.768616	2.293269	0.054044
 266	1.3250e-01	10.5799	81.172159	0.000879	8.789099	2.977827	0.070176
 267	1.3300e-01	10.6200	81.527072	0.000889	8.890123	3.012055	0.070983
 268	1.3350e-01	10.6505	82.002977	0.001192	11.920846	4.038892	0.095181
 269	1.3400e-01	10.6922	82.458717	0.001142	11.415726	3.867753	0.091148
 270	1.3450e-01	10.7307	82.603909	0.000364	3.636868	1.232204	0.029038
 271	1.3500e-01	10.7804	82.833796	0.000576	5.758375	1.950990	0.045977
 272	1.3550e-01	10.8157	83.116113	0.000707	7.071688	2.395953	0.056463
 273	1.3600e-01	10.8639	83.612184	0.001243	12.425967	4.210032	0.099214
 274	1.3650e-01	10.8879	83.898534	0.000717	7.172713	2.430181	0.057270
 275	1.3700e-01	10.9328	84.511565	0.001536	15.355666	5.202641	0.122606
 276	1.3750e-01	10.9778	84.745484	0.000586	5.859399	1.985218	0.046784
 277	1.3800e-01	11.0066	85.257688	0.001283	12.830063	4.346943	0.102441
 278	1.3850e-01	11.0516	85.451277	0.000485	4.849158	1.642939	0.038718
 279	1.3900e-01	11.0917	85.898951	0.001121	11.213677	3.799297	0.089535
 280	1.3950e-01	11.1398	86.306294	0.001020	10.203436	3.457018	0.081469
 281	1.4000e-01	11.1767	86.540213	0.000586	5.859399	1.985218	0.046784
 282	1.4050e-01	11.2248	87.024185	0.001212	12.122895	4.107348	0.096794
 283	1.4100e-01	11.2409	87.512190	0.001222	12.223919	4.141576	0.097601
 284	1.4150e-01	11.2986	87.911467	0.001000	10.001388	3.388562	0.079855
 285	1.4200e-01	11.3259	88.040526	0.000323	3.232772	1.095293	0.025812
 286	1.4250e-01	11.3692	88.560796	0.001303	13.032112	4.415399	0.104054
 287	1.4300e-01	11.4109	88.851179	0.000727	7.273737	2.464409	0.058077
 288	1.4350e-01	11.4558	89.137529	0.000717	7.172713	2.430181	0.057270
 289	1.4400e-01	11.4959	89.411779	0.000687	6.869640	2.327497	0.054850
 290	1.4450e-01	11.5328	89.871553	0.001152	11.516750	3.901980	0.091955
 291	1.4500e-01	11.5697	90.347458	0.001192	11.920846	4.038892	0.095181
 292	1.4550e-01	11.6098	90.783033	0.001091	10.910605	3.696613	0.087115
 293	1.4600e-01	11.6483	91.210541	0.001071	10.708557	3.628157	0.085502
 294	1.4650e-01	11.6949	91.303303	0.000232	2.323555	0.787242	0.018552
 295	1.4700e-01	11.7334	91.670315	0.000919	9.193195	3.114739	0.073402
 296	1.4750e-01	11.7767	92.093790	0.001061	10.607533	3.593929	0.084695
 297	1.4800e-01	11.8088	92.489034	0.000990	9.900364	3.354334	0.079049
 298	1.4850e-01	11.8521	92.815715	0.000818	8.182954	2.772460	0.065336
 299	1.4900e-01	11.8954	93.162561	0.000869	8.688074	2.943599	0.069369
 300	1.4950e-01	11.9339	93.598136	0.001091	10.910605	3.696613	0.087115
 301	1.5000e-01	11.9676	93.856254	0.000647	6.465544	2.190586	0.051624
 302	1.5050e-01	12.0109	94.170836	0.000788	7.879881	2.669776	0.062916
 303	1.5100e-01	12.0590	94.501550	0.000828	8.283978	2.806688	0.066143
 304	1.5150e-01	12.1007	95.041985	0.001354	13.537232	4.586538	0.108087
 305	1.5200e-01	12.1328	95.453361	0.001030	10.304460	3.491246	0.082275
 306	1.5250e-01	12.1729	95.610652	0.000394	3.939941	1.334888	0.031458
 307	1.5300e-01	12.2130	95.941366	0.000828	8.283978	2.806688	0.066143
 308	1.5350e-01	12.2595	96.235782	0.000737	7.374761	2.498637	0.058883
 309	1.5400e-01	12.2900	96.856879	0.001556	15.557715	5.271096	0.124219
 310	1.5450e-01	12.3333	97.070634	0.000535	5.354278	1.814079	0.042751
 311	1.5500e-01	12.3751	97.308587	0.000596	5.960423	2.019446	0.047591
 312	1.5550e-01	12.4168	97.643334	0.000839	8.385002	2.840916	0.066949
 313	1.5600e-01	12.4505	98.074875	0.001081	10.809581	3.662385	0.086308
 314	1.5650e-01	12.4970	98.385424	0.000778	7.778857	2.635548	0.062110
 315	1.5700e-01	12.5275	98.716138	0.000828	8.283978	2.806688	0.066143
 316	1.5750e-01	12.5595	99.067018	0.000879	8.789099	2.977827	0.070176
 317	1.5800e-01	12.6173	99.244474	0.000445	4.445061	1.506028	0.035491
 318	1.5850e-01	12.6526	99.647784	0.001010	10.102412	3.422790	0.080662
 319	1.5900e-01	12.6991	100.043027	0.000990	9.900364	3.354334	0.079049
 320	1.5950e-01	12.7264	100.684290	0.001606	16.062835	5.442236	0.128253
 321	1.6000e-01	12.7761	100.877879	0.000485	4.849158	1.642939	0.038718
 322	1.6050e-01	12.8146	101.131964	0.000636	6.364520	2.156358	0.050817
 323	1.6100e-01	12.8515	101.587704	0.001142	11.415726	3.867753	0.091148
 324	1.6150e-01	12.8932	102.370125	0.001960	19.598679	6.640212	0.156484
 325	1.6200e-01	12.9317	102.567747	0.000495	4.950182	1.677167	0.039524
 326	1.6250e-01	12.9750	102.527416	-0.000101	-1.010241	-0.342279	-0.008066
 327	1.6300e-01	13.0119	102.692773	0.000414	4.141989	1.403344	0.033071
 328	1.6350e-01	13.0504	103.217076	0.001313	13.133136	4.449627	0.104861
 329	1.6400e-01	13.0873	103.547790	0.000828	8.283978	2.806688	0.066143
 330	1.6450e-01	13.1339	103.934968	0.000970	9.698316	3.285878	0.077435
 331	1.6500e-01	13.1804	104.209218	0.000687	6.869640	2.327497	0.054850
 332	1.6550e-01	13.2060	104.576230	0.000919	9.193195	3.114739	0.073402
 333	1.6600e-01	13.2478	104.951308	0.000940	9.395243	3.183195	0.075016
 334	1.6650e-01	13.2975	105.257824	0.000768	7.677833	2.601320	0.061303
 335	1.6700e-01	13.3296	105.544174	0.000717	7.172713	2.430181	0.057270
 336	1.6750e-01	13.3713	105.915219	0.000929	9.294219	3.148967	0.074209
 337	1.6800e-01	13.4050	106.576647	0.001657	16.567956	5.613375	0.132286
 338	1.6850e-01	13.4531	106.846865	0.000677	6.768616	2.293269	0.054044
 339	1.6900e-01	13.4932	107.113049	0.000667	6.667592	2.259041	0.053237
 340	1.6950e-01	13.5333	107.355035	0.000606	6.061447	2.053674	0.048397
 341	1.7000e-01	13.5670	107.843040	0.001222	12.223919	4.141576	0.097601
 342	1.7050e-01	13.6103	108.246350	0.001010	10.102412	3.422790	0.080662
 343	1.7100e-01	13.6552	108.452038	0.000515	5.152230	1.745623	0.041138
 344	1.7150e-01	13.6953	108.605296	0.000384	3.838917	1.300660	0.030652
 345	1.7200e-01	13.7290	109.105400	0.001253	12.526991	4.244259	0.100021
 346	1.7250e-01	13.7755	109.468379	0.000909	9.092171	3.080511	0.072596
 347	1.7300e-01	13.8124	109.984615	0.001293	12.931087	4.381171	0.103247
 348	1.7350e-01	13.8526	110.097542	0.000283	2.828675	0.958381	0.022585
 349	1.7400e-01	13.8975	110.472620	0.000940	9.395243	3.183195	0.075016
 350	1.7450e-01	13.9312	110.815434	0.000859	8.587050	2.909371	0.068563
 351	1.7500e-01	13.9713	111.283273	0.001172	11.718798	3.970436	0.093568
 352	1.7550e-01	14.0098	111.666418	0.000960	9.597291	3.251650	0.076629
 353	1.7600e-01	14.0515	112.033430	0.000919	9.193195	3.114739	0.073402
 354	1.7650e-01	14.0884	112.311713	0.000697	6.970664	2.361725	0.055657
 355	1.7700e-01	14.1349	112.775520	0.001162	11.617774	3.936208	0.092761
 356	1.7750e-01	14.1734	112.856182	0.000202	2.020482	0.684558	0.016132
 357	1.7800e-01	14.2103	113.150598	0.000737	7.374761	2.498637	0.058883
 358	1.7850e-01	14.2472	113.682967	0.001334	13.335184	4.518083	0.106474
 359	1.7900e-01	14.2905	114.106442	0.001061	10.607533	3.593929	0.084695
 360	1.7950e-01	14.3306	114.364561	0.000647	6.465544	2.190586	0.051624
 361	1.8000e-01	14.3739	114.586381	0.000556	5.556327	1.882534	0.044364
 362	1.8050e-01	14.4076	115.025989	0.001101	11.011629	3.730841	0.087922
 363	1.8100e-01	14.4445	115.469630	0.001111	11.112653	3.765069	0.088728
 364	1.8150e-01	14.4862	115.602722	0.000333	3.333796	1.129521	0.026618
 365	1.8200e-01	14.5343	116.106859	0.001263	12.628015	4.278487	0.100827
 366	1.8250e-01	14.5648	116.518235	0.001030	10.304460	3.491246	0.082275
 367	1.8300e-01	14.6146	116.703758	0.000465	4.647110	1.574483	0.037105
 368	1.8350e-01	14.6466	116.945744	0.000606	6.061447	2.053674	0.048397
 369	1.8400e-01	14.6916	117.417616	0.001182	11.819822	4.004664	0.094375
 370	1.8450e-01	14.7349	117.748330	0.000828	8.283978	2.806688	0.066143
 371	1.8500e-01	14.7638	117.937886	0.000475	4.748134	1.608711	0.037911
 372	1.8550e-01	14.8183	118.196004	0.000647	6.465544	2.190586	0.051624
 373	1.8600e-01	14.8424	118.684009	0.001222	12.223919	4.141576	0.097601
 374	1.8650e-01	14.8921	119.026823	0.000859	8.587050	2.909371	0.068563
 375	1.8700e-01	14.9370	119.414000	0.000970	9.698316	3.285878	0.077435
 376	1.8750e-01	14.9691	119.607589	0.000485	4.849158	1.642939	0.038718
 377	1.8800e-01	15.0124	120.131892	0.001313	13.133136	4.449627	0.104861
 378	1.8850e-01	15.0541	120.656194	0.001313	13.133136	4.449627	0.104861
 379	1.8900e-01	15.0894	120.805419	0.000374	3.737892	1.266432	0.029845
 380	1.8950e-01	15.1311	121.212762	0.001020	10.203436	3.457018	0.081469
 381	1.9000e-01	15.1776	121.499112	0.000717	7.172713	2.430181	0.057270
 382	1.9050e-01	15.2097	121.906455	0.001020	10.203436	3.457018	0.081469
 383	1.9100e-01	15.2530	122.176673	0.000677	6.768616	2.293269	0.054044
 384	1.9150e-01	15.2883	122.551751	0.000940	9.395243	3.183195	0.075016
 385	1.9200e-01	15.3317	122.946994	0.000990	9.900364	3.354334	0.079049
 386	1.9250e-01	15.3734	123.116384	0.000424	4.243013	1.437572	0.033878
 387	1.9300e-01	15.4151	123.487430	0.000929	9.294219	3.148967	0.074209
 388	1.9350e-01	15.4472	123.745548	0.000647	6.465544	2.190586	0.051624
 389	1.9400e-01	15.4889	123.939137	0.000485	4.849158	1.642939	0.038718
 390	1.9450e-01	15.5322	124.487638	0.001374	13.739280	4.654994	0.109700
 391	1.9500e-01	15.5723	124.693326	0.000515	5.152230	1.745623	0.041138
 392	1.9550e-01	15.6140	125.056305	0.000909	9.092171	3.080511	0.072596
 393	1.9600e-01	15.6493	125.584641	0.001323	13.234160	4.483855	0.105667
 394	1.9650e-01	15.6974	125.822594	0.000596	5.960423	2.019446	0.047591
 395	1.9700e-01	15.7343	126.149275	0.000818	8.182954	2.772460	0.065336
 396	1.9750e-01	15.7744	126.387227	0.000596	5.960423	2.019446	0.047591
 397	1.9800e-01	15.8049	126.903464	0.001293	12.931087	4.381171	0.103247
 398	1.9850e-01	15.8627	127.165615	0.000657	6.566568	2.224813	0.052430
 399	1.9900e-01	15.8931	127.516495	0.000879	8.789099	2.977827	0.070176
 400	1.9950e-01	15.9429	127.750415	0.000586	5.859399	1.985218	0.046784
 401	2.0000e-01	15.9653	128.250519	0.001253	12.526991	4.244259	0.100021
 402	2.0050e-01	16.0118	128.577200	0.000818	8.182954	2.772460	0.065336
 403	2.0100e-01	16.0487	128.952278	0.000940	9.395243	3.183195	0.075016
 404	2.0150e-01	16.0937	129.250727	0.000748	7.475785	2.532865	0.059690
 405	2.0200e-01	16.1290	129.496746	0.000616	6.162471	2.087902	0.049204
 406	2.0250e-01	16.1707	129.730666	0.000586	5.859399	1.985218	0.046784
 407	2.0300e-01	16.2044	130.117844	0.000970	9.698316	3.285878	0.077435
 408	2.0350e-01	16.2477	130.460657	0.000859	8.587050	2.909371	0.068563
 409	2.0400e-01	16.2926	130.972861	0.001283	12.830063	4.346943	0.102441
 410	2.0450e-01	16.3311	131.271310	0.000748	7.475785	2.532865	0.059690
 411	2.0500e-01	16.3760	131.517329	0.000616	6.162471	2.087902	0.049204
 412	2.0550e-01	16.4145	131.815778	0.000748	7.475785	2.532865	0.059690
 413	2.0600e-01	16.4466	132.364280	0.001374	13.739280	4.654994	0.109700
 414	2.0650e-01	16.4947	132.574001	0.000525	5.253254	1.779851	0.041944
 415	2.0700e-01	16.5412	132.969244	0.000990	9.900364	3.354334	0.079049
 416	2.0750e-01	16.5701	133.231396	0.000657	6.566568	2.224813	0.052430
 417	2.0800e-01	16.6182	133.493547	0.000657	6.566568	2.224813	0.052430
 418	2.0850e-01	16.6503	133.917023	0.001061	10.607533	3.593929	0.084695
 419	2.0900e-01	16.6985	134.227571	0.000778	7.778857	2.635548	0.062110
 420	2.0950e-01	16.7289	134.396961	0.000424	4.243013	1.437572	0.033878
 421	2.1000e-01	16.7658	134.780106	0.000960	9.597291	3.251650	0.076629
 422	2.1050e-01	16.8108	135.098720	0.000798	7.980906	2.704004	0.063723
 423	2.1100e-01	16.8477	135.493964	0.000990	9.900364	3.354334	0.079049
 424	2.1150e-01	16.8942	135.756116	0.000657	6.566568	2.224813	0.052430
 425	2.1200e-01	16.9327	136.046499	0.000727	7.273737	2.464409	0.058077
 426	2.1250e-01	16.9744	136.377213	0.000828	8.283978	2.806688	0.066143
 427	2.1300e-01	17.0113	136.873284	0.001243	12.425967	4.210032	0.099214
 428	2.1350e-01	17.0530	136.893449	0.000051	0.505121	0.171139	0.004033
 429	2.1400e-01	17.0867	137.208031	0.000788	7.879881	2.669776	0.062916
 430	2.1450e-01	17.1332	137.772665	0.001414	14.143377	4.791906	0.112927
 431	2.1500e-01	17.1669	138.026750	0.000636	6.364520	2.156358	0.050817
 432	2.1550e-01	17.2102	138.446192	0.001051	10.506509	3.559701	0.083888
 433	2.1600e-01	17.2551	138.696244	0.000626	6.263496	2.122130	0.050010
 434	2.1650e-01	17.2856	138.938230	0.000606	6.061447	2.053674	0.048397
 435	2.1700e-01	17.3305	139.321375	0.000960	9.597291	3.251650	0.076629
 436	2.1750e-01	17.3770	139.700486	0.000950	9.496267	3.217422	0.075822
 437	2.1800e-01	17.4059	139.942472	0.000606	6.061447	2.053674	0.048397
 438	2.1850e-01	17.4605	140.414344	0.001182	11.819822	4.004664	0.094375
 439	2.1900e-01	17.4910	140.845886	0.001081	10.809581	3.662385	0.086308
 440	2.1950e-01	17.5391	140.870085	0.000061	0.606145	0.205367	0.004840
 441	2.2000e-01	17.5647	141.422619	0.001384	13.840305	4.689222	0.110507
 442	2.2050e-01	17.6113	141.729135	0.000768	7.677833	2.601320	0.061303
 443	2.2100e-01	17.6498	142.035650	0.000768	7.677833	2.601320	0.061303
 444	2.2150e-01	17.6931	142.382497	0.000869	8.688074	2.943599	0.069369
 445	2.2200e-01	17.7284	142.680946	0.000748	7.475785	2.532865	0.059690
 446	2.2250e-01	17.7685	142.979395	0.000748	7.475785	2.532865	0.059690
 447	2.2300e-01	17.8102	143.253646	0.000687	6.869640	2.327497	0.054850
 448	2.2350e-01	17.8519	143.761816	0.001273	12.729039	4.312715	0.101634
 449	2.2400e-01	17.8872	143.842478	0.000202	2.020482	0.684558	0.016132
 450	2.2450e-01	17.9385	144.116729	0.000687	6.869640	2.327497	0.054850
 451	2.2500e-01	17.9722	144.717661	0.001505	15.052594	5.099957	0.120186
 452	2.2550e-01	18.0171	144.834620	0.000293	2.929700	0.992609	0.023392
 453	2.2600e-01	18.0524	145.209699	0.000940	9.395243	3.183195	0.075016
 454	2.2650e-01	18.0925	145.572678	0.000909	9.092171	3.080511	0.072596
 455	2.2700e-01	18.1310	145.842895	0.000677	6.768616	2.293269	0.054044
 456	2.2750e-01	18.1647	146.197808	0.000889	8.890123	3.012055	0.070983
 457	2.2800e-01	18.2177	146.532555	0.000839	8.385002	2.840916	0.066949
 458	2.2850e-01	18.2498	146.714044	0.000455	4.546085	1.540255	0.036298
 459	2.2900e-01	18.2883	146.919732	0.000515	5.152230	1.745623	0.041138
 460	2.2950e-01	18.3219	147.476300	0.001394	13.941329	4.723450	0.111314
 461	2.3000e-01	18.3813	147.879610	0.001010	10.102412	3.422790	0.080662
 462	2.3050e-01	18.4118	148.230489	0.000879	8.789099	2.977827	0.070176
 463	2.3100e-01	18.4519	148.488608	0.000647	6.465544	2.190586	0.051624
 464	2.3150e-01	18.5048	148.698329	0.000525	5.253254	1.779851	0.041944
 465	2.3200e-01	18.5369	149.146003	0.001121	11.213677	3.799297	0.089535
 466	2.3250e-01	18.5754	149.480750	0.000839	8.385002	2.840916	0.066949
 467	2.3300e-01	18.6187	149.771133	0.000727	7.273737	2.464409	0.058077
 468	2.3350e-01	18.6492	150.093781	0.000808	8.081930	2.738232	0.064530
 469	2.3400e-01	18.6925	150.275270	0.000455	4.546085	1.540255	0.036298
 470	2.3450e-01	18.7262	150.489025	0.000535	5.354278	1.814079	0.042751
 471	2.3500e-01	18.7775	150.920566	0.001081	10.809581	3.662385	0.086308
 472	2.3550e-01	18.8160	151.360174	0.001101	11.011629	3.730841	0.087922
 473	2.3600e-01	18.8562	151.634425	0.000687	6.869640	2.327497	0.054850
 474	2.3650e-01	18.8882	151.727186	0.000232	2.323555	0.787242	0.018552
 475	2.3700e-01	18.9267	152.219224	0.001232	12.324943	4.175804	0.098408
 476	2.3750e-01	18.9797	152.473309	0.000636	6.364520	2.156358	0.050817
 477	2.3800e-01	19.0134	152.880652	0.001020	10.203436	3.457018	0.081469
 478	2.3850e-01	19.0487	153.187168	0.000768	7.677833	2.601320	0.061303
 479	2.3900e-01	19.0936	153.368657	0.000455	4.546085	1.540255	0.036298
 480	2.3950e-01	19.1337	153.747768	0.000950	9.496267	3.217422	0.075822
 481	2.4000e-01	19.1722	153.949423	0.000505	5.051206	1.711395	0.040331
 482	2.4050e-01	19.2155	154.312402	0.000909	9.092171	3.080511	0.072596
 483	2.4100e-01	19.2556	154.647149	0.000839	8.385002	2.840916	0.066949
 484	2.4150e-01	19.2957	154.985930	0.000849	8.486026	2.875143	0.067756
 485	2.4200e-01	19.3406	155.272280	0.000717	7.172713	2.430181	0.057270
 486	2.4250e-01	19.3695	155.913542	0.001606	16.062835	5.442236	0.128253
 487	2.4300e-01	19.4080	155.994204	0.000202	2.020482	0.684558	0.016132
 488	2.4350e-01	19.4481	156.300720	0.000768	7.677833	2.601320	0.061303
 489	2.4400e-01	19.4898	156.691930	0.000980	9.799340	3.320106	0.078242
 490	2.4450e-01	19.5363	156.921817	0.000576	5.758375	1.950990	0.045977
 491	2.4500e-01	19.5748	157.236399	0.000788	7.879881	2.669776	0.062916
 492	2.4550e-01	19.6085	157.434020	0.000495	4.950182	1.677167	0.039524
 493	2.4600e-01	19.6502	157.982522	0.001374	13.739280	4.654994	0.109700
 494	2.4650e-01	19.6920	158.115614	0.000333	3.333796	1.129521	0.026618
 495	2.4700e-01	19.7321	158.345501	0.000576	5.758375	1.950990	0.045977
 496	2.4750e-01	19.7609	158.526990	0.000455	4.546085	1.540255	0.036298
 497	2.4800e-01	19.8075	159.006929	0.001202	12.021870	4.073120	0.095988
 498	2.4850e-01	19.8604	159.293279	0.000717	7.172713	2.430181	0.057270
 499	2.4900e-01	19.8957	159.740953	0.001121	11.213677	3.799297	0.089535
 500	2.4950e-01	19.9358	160.031336	0.000727	7.273737	2.464409	0.058077
 501	2.5000e-01	19.9695	160.358017	0.000818	8.182954	2.772460	0.065336
 502	2.5050e-01	19.9839	160.216859	-0.000354	-3.535844	-1.197976	-0.028232
 503	2.5100e-01	19.9470	160.265256	-0.000121	-1.212289	-0.410735	0.009679
 504	2.5150e-01	19.9101	160.039402	0.000566	5.657351	1.916762	-0.045171
 505	2.5200e-01	19.8748	160.051501	-0.000030	-0.303072	-0.102684	0.002420
 506	2.5250e-01	19.8444	160.007137	0.000111	1.111265	0.376507	-0.008873
 507	2.5300e-01	19.7946	159.442504	0.001414	14.143377	4.791906	-0.112927
 508	2.5350e-01	19.7561	159.386040	0.000141	1.414338	0.479191	-0.011293
 509	2.5400e-01	19.7273	159.099690	0.000717	7.172713	2.430181	-0.057270
 510	2.5450e-01	19.6791	158.756877	0.000859	8.587050	2.909371	-0.068563
 511	2.5500e-01	19.6326	158.353567	0.001010	10.102412	3.422790	-0.080662
 512	2.5550e-01	19.6037	158.164011	0.000475	4.748134	1.608711	-0.037911
 513	2.5600e-01	19.5652	157.966390	0.000495	4.950182	1.677167	-0.039524
 514	2.5650e-01	19.5155	157.748602	0.000546	5.455303	1.848307	-0.043557
 515	2.5700e-01	19.4818	157.498550	0.000626	6.263496	2.122130	-0.050010
 516	2.5750e-01	19.4401	157.333193	0.000414	4.141989	1.403344	-0.033071
 517	2.5800e-01	19.4096	156.816956	0.001293	12.931087	4.381171	-0.103247
 518	2.5850e-01	19.3599	156.591103	0.000566	5.657351	1.916762	-0.045171
 519	2.5900e-01	19.3198	156.538673	0.000131	1.313314	0.444963	-0.010486
 520	2.5950e-01	19.2829	156.211992	0.000818	8.182954	2.772460	-0.065336
 521	2.6000e-01	19.2412	156.131330	0.000202	2.020482	0.684558	-0.016132
 522	2.6050e-01	19.1979	155.756251	0.000940	9.395243	3.183195	-0.075016
 523	2.6100e-01	19.1610	155.361008	0.000990	9.900364	3.354334	-0.079049
 524	2.6150e-01	19.1273	155.147254	0.000535	5.354278	1.814079	-0.042751
 525	2.6200e-01	19.0872	154.945599	0.000505	5.051206	1.711395	-0.040331
 526	2.6250e-01	19.0438	154.683447	0.000657	6.566568	2.224813	-0.052430
 527	2.6300e-01	18.9989	154.562454	0.000303	3.030724	1.026837	-0.024199
 528	2.6350e-01	18.9620	154.207542	0.000889	8.890123	3.012055	-0.070983
 529	2.6400e-01	18.9171	153.977655	0.000576	5.758375	1.950990	-0.045977
 530	2.6450e-01	18.8786	153.606610	0.000929	9.294219	3.148967	-0.074209
 531	2.6500e-01	18.8401	153.461418	0.000364	3.636868	1.232204	-0.029038
 532	2.6550e-01	18.7968	153.219432	0.000606	6.061447	2.053674	-0.048397
 533	2.6600e-01	18.7583	152.892751	0.000818	8.182954	2.772460	-0.065336
 534	2.6650e-01	18.7166	152.670931	0.000556	5.556327	1.882534	-0.044364
 535	2.6700e-01	18.6765	152.412813	0.000647	6.465544	2.190586	-0.051624
 536	2.6750e-01	18.6428	152.190992	0.000556	5.556327	1.882534	-0.044364
 537	2.6800e-01	18.6059	151.779616	0.001030	10.304460	3.491246	-0.082275
 538	2.6850e-01	18.5610	151.505366	0.000687	6.869640	2.327497	-0.054850
 539	2.6900e-01	18.5128	151.287578	0.000546	5.455303	1.848307	-0.043557
 540	2.6950e-01	18.4856	151.174651	0.000283	2.828675	0.958381	-0.022585
 541	2.7000e-01	18.4391	150.771342	0.001010	10.102412	3.422790	-0.080662
 542	2.7050e-01	18.4038	150.400297	0.000929	9.294219	3.148967	-0.074209
 543	2.7100e-01	18.3556	149.980854	0.001051	10.506509	3.559701	-0.083888
 544	2.7150e-01	18.3203	149.847762	0.000333	3.333796	1.129521	-0.026618
 545	2.7200e-01	18.2770	149.642074	0.000515	5.152230	1.745623	-0.041138
 546	2.7250e-01	18.2369	149.464618	0.000445	4.445061	1.506028	-0.035491
 547	2.7300e-01	18.2000	149.218599	0.000616	6.162471	2.087902	-0.049204
 548	2.7350e-01	18.1647	148.726561	0.001232	12.324943	4.175804	-0.098408
 549	2.7400e-01	18.1150	148.395847	0.000828	8.283978	2.806688	-0.066143
 550	2.7450e-01	18.0893	148.044967	0.000879	8.789099	2.977827	-0.070176
 551	2.7500e-01	18.0380	148.085298	-0.000101	-1.010241	-0.342279	0.008066
 552	2.7550e-01	18.0059	147.681988	0.001010	10.102412	3.422790	-0.080662
 553	2.7600e-01	17.9530	147.601326	0.000202	2.020482	0.684558	-0.016132
 554	2.7650e-01	17.9225	147.323042	0.000697	6.970664	2.361725	-0.055657
 555	2.7700e-01	17.8808	146.863269	0.001152	11.516750	3.901980	-0.091955
 556	2.7750e-01	17.8439	146.459959	0.001010	10.102412	3.422790	-0.080662
 557	2.7800e-01	17.7974	146.024385	0.001091	10.910605	3.696613	-0.087115
 558	2.7850e-01	17.7573	145.830796	0.000485	4.849158	1.642939	-0.038718
 559	2.7900e-01	17.7155	145.649306	0.000455	4.546085	1.540255	-0.036298
 560	2.7950e-01	17.6802	145.536380	0.000283	2.828675	0.958381	-0.022585
 561	2.8000e-01	17.6369	145.201632	0.000839	8.385002	2.840916	-0.066949
 562	2.8050e-01	17.6000	145.004011	0.000495	4.950182	1.677167	-0.039524
 563	2.8100e-01	17.5551	144.592635	0.001030	10.304460	3.491246	-0.082275
 564	2.8150e-01	17.5214	144.173192	0.001051	10.506509	3.559701	-0.083888
 565	2.8200e-01	17.4781	144.040100	0.000333	3.333796	1.129521	-0.026618
 566	2.8250e-01	17.4348	143.838445	0.000505	5.051206	1.711395	-0.040331
 567	2.8300e-01	17.3947	143.374639	0.001162	11.617774	3.936208	-0.092761
 568	2.8350e-01	17.3546	143.205249	0.000424	4.243013	1.437572	-0.033878
 569	2.8400e-01	17.3145	143.039892	0.000414	4.141989	1.403344	-0.033071
 570	2.8450e-01	17.2840	142.769674	0.000677	6.768616	2.293269	-0.054044
 571	2.8500e-01	17.2311	142.463158	0.000768	7.677833	2.601320	-0.061303
 572	2.8550e-01	17.1974	142.221173	0.000606	6.061447	2.053674	-0.048397
 573	2.8600e-01	17.1589	141.926756	0.000737	7.374761	2.498637	-0.058883
 574	2.8650e-01	17.1172	141.600075	0.000818	8.182954	2.772460	-0.065336
 575	2.8700e-01	17.0755	141.253229	0.000869	8.688074	2.943599	-0.069369
 576	2.8750e-01	17.0321	141.128203	0.000313	3.131748	1.061065	-0.025005
 577	2.8800e-01	16.9920	140.632132	0.001243	12.425967	4.210032	-0.099214
 578	2.8850e-01	16.9583	140.353848	0.000697	6.970664	2.361725	-0.055657
 579	2.8900e-01	16.9198	140.232855	0.000303	3.030724	1.026837	-0.024199
 580	2.8950e-01	16.8749	139.910207	0.000808	8.081930	2.738232	-0.064530
 581	2.9000e-01	16.8428	139.716618	0.000485	4.849158	1.642939	-0.038718
 582	2.9050e-01	16.8059	139.313308	0.001010	10.102412	3.422790	-0.080662
 583	2.9100e-01	16.7610	138.809171	0.001263	12.628015	4.278487	-0.100827
 584	2.9150e-01	16.7177	138.954363	-0.000364	-3.636868	-1.232204	0.029038
 585	2.9200e-01	16.6904	138.421994	0.001334	13.335184	4.518083	-0.106474
 586	2.9250e-01	16.6455	138.038849	0.000960	9.597291	3.251650	-0.076629
 587	2.9300e-01	16.6038	137.808963	0.000576	5.758375	1.950990	-0.045977
 588	2.9350e-01	16.5621	137.550844	0.000647	6.465544	2.190586	-0.051624
 589	2.9400e-01	16.5188	137.240296	0.000778	7.778857	2.635548	-0.062110
 590	2.9450e-01	16.4851	136.937813	0.000758	7.576809	2.567092	-0.060496
 591	2.9500e-01	16.4370	136.615166	0.000808	8.081930	2.738232	-0.064530
 592	2.9550e-01	16.3985	136.421577	0.000485	4.849158	1.642939	-0.038718
 593	2.9600e-01	16.3584	136.187657	0.000586	5.859399	1.985218	-0.046784
 594	2.9650e-01	16.3199	136.111028	0.000192	1.919458	0.650330	-0.015326
 595	2.9700e-01	16.2814	135.437501	0.001687	16.871028	5.716059	-0.134705
 596	2.9750e-01	16.2429	135.191482	0.000616	6.162471	2.087902	-0.049204
 597	2.9800e-01	16.1979	134.993860	0.000495	4.950182	1.677167	-0.039524
 598	2.9850e-01	16.1498	134.868834	0.000313	3.131748	1.061065	-0.025005
 599	2.9900e-01	16.1177	134.413094	0.001142	11.415726	3.867753	-0.091148
 600	2.9950e-01	16.0792	134.142876	0.000677	6.768616	2.293269	-0.054044
 601	3.0000e-01	16.0423	133.743599	0.001000	10.001388	3.388562	-0.079855
 602	3.0050e-01	16.0070	133.271727	0.001182	11.819822	4.004664	-0.094375
 603	3.0100e-01	15.9573	133.118469	0.000384	3.838917	1.300660	-0.030652
 604	3.0150e-01	15.9124	132.965211	0.000384	3.838917	1.300660	-0.030652
 605	3.0200e-01	15.8851	132.594166	0.000929	9.294219	3.148967	-0.074209
 606	3.0250e-01	15.8338	132.279585	0.000788	7.879881	2.669776	-0.062916
 607	3.0300e-01	15.7969	132.186823	0.000232	2.323555	0.787242	-0.018552
 608	3.0350e-01	15.7600	131.868208	0.000798	7.980906	2.704004	-0.063723
 609	3.0400e-01	15.7199	131.263244	0.001515	15.153618	5.134185	-0.120993
 610	3.0450e-01	15.6621	131.166449	0.000242	2.424579	0.821470	-0.019359
 611	3.0500e-01	15.6332	130.900265	0.000667	6.667592	2.259041	-0.053237
 612	3.0550e-01	15.5980	130.561485	0.000849	8.486026	2.875143	-0.067756
 613	3.0600e-01	15.5611	130.295300	0.000667	6.667592	2.259041	-0.053237
 614	3.0650e-01	15.5193	130.057347	0.000596	5.960423	2.019446	-0.047591
 615	3.0700e-01	15.4776	129.609673	0.001121	11.213677	3.799297	-0.089535
 616	3.0750e-01	15.4488	129.371720	0.000596	5.960423	2.019446	-0.047591
 617	3.0800e-01	15.4135	128.835318	0.001344	13.436208	4.552311	-0.107280
 618	3.0850e-01	15.3541	128.573167	0.000657	6.566568	2.224813	-0.052430
 619	3.0900e-01	15.3188	128.427975	0.000364	3.636868	1.232204	-0.029038
 620	3.0950e-01	15.2787	128.391677	0.000091	0.909217	0.308051	-0.007260
 621	3.1000e-01	15.2530	127.911739	0.001202	12.021870	4.073120	-0.095988
 622	3.1050e-01	15.2033	127.552793	0.000899	8.991147	3.046283	-0.071789
 623	3.1100e-01	15.1600	127.347105	0.000515	5.152230	1.745623	-0.041138
 624	3.1150e-01	15.1135	127.109152	0.000596	5.960423	2.019446	-0.047591
 625	3.1200e-01	15.0782	126.709875	0.001000	10.001388	3.388562	-0.079855
 626	3.1250e-01	15.0333	126.479989	0.000576	5.758375	1.950990	-0.045977
 627	3.1300e-01	14.9948	126.274301	0.000515	5.152230	1.745623	-0.041138
 628	3.1350e-01	14.9627	125.866958	0.001020	10.203436	3.457018	-0.081469
 629	3.1400e-01	14.9242	125.411218	0.001142	11.415726	3.867753	-0.091148
 630	3.1450e-01	14.8825	125.298291	0.000283	2.828675	0.958381	-0.022585
 631	3.1500e-01	14.8343	124.834484	0.001162	11.617774	3.936208	-0.092761
 632	3.1550e-01	14.7990	124.532002	0.000758	7.576809	2.567092	-0.060496
 633	3.1600e-01	14.7573	124.511837	0.000051	0.505121	0.171139	-0.004033
 634	3.1650e-01	14.7204	124.088361	0.001061	10.607533	3.593929	-0.084695
 635	3.1700e-01	14.6771	123.834276	0.000636	6.364520	2.156358	-0.050817
 636	3.1750e-01	14.6402	123.188980	0.001616	16.163859	5.476464	-0.129059
 637	3.1800e-01	14.6049	123.063954	0.000313	3.131748	1.061065	-0.025005
 638	3.1850e-01	14.5584	122.688876	0.000940	9.395243	3.183195	-0.075016
 639	3.1900e-01	14.5215	122.265401	0.001061	10.607533	3.593929	-0.084695
 640	3.1950e-01	14.4798	122.091977	0.000434	4.344037	1.471800	-0.034685
 641	3.2000e-01	14.4429	121.837892	0.000636	6.364520	2.156358	-0.050817
 642	3.2050e-01	14.4060	121.539443	0.000748	7.475785	2.532865	-0.059690
 643	3.2100e-01	14.3611	121.249060	0.000727	7.273737	2.464409	-0.058077
 644	3.2150e-01	14.3242	120.966743	0.000707	7.071688	2.395953	-0.056463
 645	3.2200e-01	14.2841	120.603764	0.000909	9.092171	3.080511	-0.072596
 646	3.2250e-01	14.2376	120.474705	0.000323	3.232772	1.095293	-0.025812
 647	3.2300e-01	14.2023	119.990733	0.001212	12.122895	4.107348	-0.096794
 648	3.2350e-01	14.1606	119.825376	0.000414	4.141989	1.403344	-0.033071
 649	3.2400e-01	14.1285	119.393834	0.001081	10.809581	3.662385	-0.086308
 650	3.2450e-01	14.0804	119.095385	0.000748	7.475785	2.532865	-0.059690
 651	3.2500e-01	14.0451	118.736439	0.000899	8.991147	3.046283	-0.071789
 652	3.2550e-01	14.0033	118.526718	0.000525	5.253254	1.779851	-0.041944
 653	3.2600e-01	13.9552	118.252468	0.000687	6.869640	2.327497	-0.054850
 654	3.2650e-01	13.9263	117.828992	0.001061	10.607533	3.593929	-0.084695
 655	3.2700e-01	13.8782	117.558775	0.000677	6.768616	2.293269	-0.054044
 656	3.2750e-01	13.8429	117.292590	0.000667	6.667592	2.259041	-0.053237
 657	3.2800e-01	13.7996	116.857015	0.001091	10.910605	3.696613	-0.087115
 658	3.2850e-01	13.7563	116.397242	0.001152	11.516750	3.901980	-0.091955
 659	3.2900e-01	13.7178	116.227852	0.000424	4.243013	1.437572	-0.033878
 660	3.2950e-01	13.6745	116.090727	0.000343	3.434820	1.163749	-0.027425
 661	3.3000e-01	13.6360	115.760013	0.000828	8.283978	2.806688	-0.066143
 662	3.3050e-01	13.5895	115.461563	0.000748	7.475785	2.532865	-0.059690
 663	3.3100e-01	13.5526	115.300239	0.000404	4.040965	1.369116	-0.032265
 664	3.3150e-01	13.5253	114.751738	0.001374	13.739280	4.654994	-0.109700
 665	3.3200e-01	13.4820	114.348428	0.001010	10.102412	3.422790	-0.080662
 666	3.3250e-01	13.4403	113.973350	0.000940	9.395243	3.183195	-0.075016
 667	3.3300e-01	13.3969	113.844291	0.000323	3.232772	1.095293	-0.025812
 668	3.3350e-01	13.3584	113.566007	0.000697	6.970664	2.361725	-0.055657
 669	3.3400e-01	13.3167	113.198995	0.000919	9.193195	3.114739	-0.073402
 670	3.3450e-01	13.2750	112.936844	0.000657	6.566568	2.224813	-0.052430
 671	3.3500e-01	13.2365	112.626295	0.000778	7.778857	2.635548	-0.062110
 672	3.3550e-01	13.2060	112.222985	0.001010	10.102412	3.422790	-0.080662
 673	3.3600e-01	13.1611	111.815642	0.001020	10.203436	3.457018	-0.081469
 674	3.3650e-01	13.1162	111.593822	0.000556	5.556327	1.882534	-0.044364
 675	3.3700e-01	13.0793	111.388134	0.000515	5.152230	1.745623	-0.041138
 676	3.3750e-01	13.0360	111.142115	0.000616	6.162471	2.087902	-0.049204
 677	3.3800e-01	12.9943	110.767037	0.000940	9.395243	3.183195	-0.075016
 678	3.3850e-01	12.9574	110.262899	0.001263	12.628015	4.278487	-0.100827
 679	3.3900e-01	12.9189	109.633736	0.001576	15.759763	5.339552	-0.125833
 680	3.3950e-01	12.8740	109.629703	0.000010	0.101024	0.034228	-0.000807
 681	3.4000e-01	12.8290	109.278823	0.000879	8.789099	2.977827	-0.070176
 682	3.4050e-01	12.8002	109.137665	0.000354	3.535844	1.197976	-0.028232
 683	3.4100e-01	12.7617	108.875513	0.000657	6.566568	2.224813	-0.052430
 684	3.4150e-01	12.7168	108.492369	0.000960	9.597291	3.251650	-0.076629
 685	3.4200e-01	12.6879	108.218118	0.000687	6.869640	2.327497	-0.054850
 686	3.4250e-01	12.6365	107.947901	0.000677	6.768616	2.293269	-0.054044
 687	3.4300e-01	12.5980	107.597021	0.000879	8.789099	2.977827	-0.070176
 688	3.4350e-01	12.5676	107.173546	0.001061	10.607533	3.593929	-0.084695
 689	3.4400e-01	12.5178	107.060619	0.000283	2.828675	0.958381	-0.022585
 690	3.4450e-01	12.4825	106.850898	0.000525	5.253254	1.779851	-0.041944
 691	3.4500e-01	12.4392	106.447588	0.001010	10.102412	3.422790	-0.080662
 692	3.4550e-01	12.4007	105.886987	0.001404	14.042353	4.757678	-0.112120
 693	3.4600e-01	12.3622	105.350585	0.001344	13.436208	4.552311	-0.107280
 694	3.4650e-01	12.3157	105.177162	0.000434	4.344037	1.471800	-0.034685
 695	3.4700e-01	12.2788	105.116665	0.000152	1.515362	0.513418	-0.012099
 696	3.4750e-01	12.2435	104.814183	0.000758	7.576809	2.567092	-0.060496
 697	3.4800e-01	12.1970	104.394741	0.001051	10.506509	3.559701	-0.083888
 698	3.4850e-01	12.1633	104.047894	0.000869	8.688074	2.943599	-0.069369
 699	3.4900e-01	12.1216	103.656684	0.000980	9.799340	3.320106	-0.078242
 700	3.4950e-01	12.0831	103.317903	0.000849	8.486026	2.875143	-0.067756
 701	3.5000e-01	12.0301	103.176745	0.000354	3.535844	1.197976	-0.028232
 702	3.5050e-01	11.9997	102.753270	0.001061	10.607533	3.593929	-0.084695
 703	3.5100e-01	11.9563	102.491118	0.000657	6.566568	2.224813	-0.052430
 704	3.5150e-01	11.9178	102.325761	0.000414	4.141989	1.403344	-0.033071
 705	3.5200e-01	11.8874	101.942617	0.000960	9.597291	3.251650	-0.076629
 706	3.5250e-01	11.8457	101.486877	0.001142	11.415726	3.867753	-0.091148
 707	3.5300e-01	11.8007	101.095666	0.000980	9.799340	3.320106	-0.078242
 708	3.5350e-01	11.7574	100.857713	0.000596	5.960423	2.019446	-0.047591
 709	3.5400e-01	11.7157	100.531032	0.000818	8.182954	2.772460	-0.065336
 710	3.5450e-01	11.6836	99.978498	0.001384	13.840305	4.689222	-0.110507
 711	3.5500e-01	11.6419	99.857505	0.000303	3.030724	1.026837	-0.024199
 712	3.5550e-01	11.6018	99.692148	0.000414	4.141989	1.403344	-0.033071
 713	3.5600e-01	11.5569	99.296904	0.000990	9.900364	3.354334	-0.079049
 714	3.5650e-01	11.5312	98.869396	0.001071	10.708557	3.628157	-0.085502
 715	3.5700e-01	11.4799	98.498351	0.000929	9.294219	3.148967	-0.074209
 716	3.5750e-01	11.4334	98.296696	0.000505	5.051206	1.711395	-0.040331
 717	3.5800e-01	11.3981	97.844989	0.001131	11.314702	3.833525	-0.090341
 718	3.5850e-01	11.3564	97.582837	0.000657	6.566568	2.224813	-0.052430
 719	3.5900e-01	11.3243	97.030303	0.001384	13.840305	4.689222	-0.110507
 720	3.5950e-01	11.2810	96.917376	0.000283	2.828675	0.958381	-0.022585
 721	3.6000e-01	11.2409	96.663291	0.000636	6.364520	2.156358	-0.050817
 722	3.6050e-01	11.2024	96.195451	0.001172	11.718798	3.970436	-0.093568
 723	3.6100e-01	11.1574	96.017995	0.000445	4.445061	1.506028	-0.035491
 724	3.6150e-01	11.1270	95.723579	0.000737	7.374761	2.498637	-0.058883
 725	3.6200e-01	11.0708	95.332368	0.000980	9.799340	3.320106	-0.078242
 726	3.6250e-01	11.0500	94.860496	0.001182	11.819822	4.004664	-0.094375
 727	3.6300e-01	11.0066	94.582212	0.000697	6.970664	2.361725	-0.055657
 728	3.6350e-01	10.9649	94.328127	0.000636	6.364520	2.156358	-0.050817
 729	3.6400e-01	10.9120	94.045810	0.000707	7.071688	2.395953	-0.056463
 730	3.6450e-01	10.8719	93.739294	0.000768	7.677833	2.601320	-0.061303
 731	3.6500e-01	10.8414	93.477143	0.000657	6.566568	2.224813	-0.052430
 732	3.6550e-01	10.8013	93.005270	0.001182	11.819822	4.004664	-0.094375
 733	3.6600e-01	10.7612	92.593894	0.001030	10.304460	3.491246	-0.082275
 734	3.6650e-01	10.7275	92.222849	0.000929	9.294219	3.148967	-0.074209
 735	3.6700e-01	10.6842	92.013128	0.000525	5.253254	1.779851	-0.041944
 736	3.6750e-01	10.6473	91.734844	0.000697	6.970664	2.361725	-0.055657
 737	3.6800e-01	10.6072	91.299270	0.001091	10.910605	3.696613	-0.087115
 738	3.6850e-01	10.5591	90.899993	0.001000	10.001388	3.388562	-0.079855
 739	3.6900e-01	10.5190	90.553146	0.000869	8.688074	2.943599	-0.069369
 740	3.6950e-01	10.4692	90.311160	0.000606	6.061447	2.053674	-0.048397
 741	3.7000e-01	10.4387	90.057075	0.000636	6.364520	2.156358	-0.050817
 742	3.7050e-01	10.4002	89.661832	0.000990	9.900364	3.354334	-0.079049
 743	3.7100e-01	10.3585	89.367415	0.000737	7.374761	2.498637	-0.058883
 744	3.7150e-01	10.3136	89.048801	0.000798	7.980906	2.704004	-0.063723
 745	3.7200e-01	10.2783	88.790682	0.000647	6.465544	2.190586	-0.051624
 746	3.7250e-01	10.2270	88.375273	0.001041	10.405484	3.525474	-0.083082
 747	3.7300e-01	10.1997	88.117155	0.000647	6.465544	2.190586	-0.051624
 748	3.7350e-01	10.1580	87.798540	0.000798	7.980906	2.704004	-0.063723
 749	3.7400e-01	10.1211	87.334734	0.001162	11.617774	3.936208	-0.092761
 750	3.7450e-01	10.0762	86.822530	0.001283	12.830063	4.346943	-0.102441
 751	3.7500e-01	10.0265	86.709603	0.000283	2.828675	0.958381	-0.022585
 752	3.7550e-01	9.9960	86.221598	0.001222	12.223919	4.141576	-0.097601
 753	3.7600e-01	9.9559	85.907017	0.000788	7.879881	2.669776	-0.062916
 754	3.7650e-01	9.9190	85.725527	0.000455	4.546085	1.540255	-0.036298
 755	3.7700e-01	9.8821	85.302052	0.001061	10.607533	3.593929	-0.084695
 756	3.7750e-01	9.8420	85.031834	0.000677	6.768616	2.293269	-0.054044
 757	3.7800e-01	9.7938	84.580127	0.001131	11.314702	3.833525	-0.090341
 758	3.7850e-01	9.7585	84.362340	0.000546	5.455303	1.848307	-0.043557
 759	3.7900e-01	9.7217	83.773508	0.001475	14.749522	4.997273	-0.117766
 760	3.7950e-01	9.6783	83.422628	0.000879	8.789099	2.977827	-0.070176
 761	3.8000e-01	9.6382	83.144344	0.000697	6.970664	2.361725	-0.055657
 762	3.8050e-01	9.5997	83.055616	0.000222	2.222531	0.753014	-0.017746
 763	3.8100e-01	9.5660	82.490982	0.001414	14.143377	4.791906	-0.112927
 764	3.8150e-01	9.5243	82.216732	0.000687	6.869640	2.327497	-0.054850
 765	3.8200e-01	9.4794	81.966679	0.000626	6.263496	2.122130	-0.050010
 766	3.8250e-01	9.4457	81.724694	0.000606	6.061447	2.053674	-0.048397
 767	3.8300e-01	9.4024	81.260887	0.001162	11.617774	3.936208	-0.092761
 768	3.8350e-01	9.3687	80.825313	0.001091	10.910605	3.696613	-0.087115
 769	3.8400e-01	9.3158	80.542996	0.000707	7.071688	2.395953	-0.056463
 770	3.8450e-01	9.2805	80.309076	0.000586	5.859399	1.985218	-0.046784
 771	3.8500e-01	9.2372	79.942064	0.000919	9.193195	3.114739	-0.073402
 772	3.8550e-01	9.1971	79.579085	0.000909	9.092171	3.080511	-0.072596
 773	3.8600e-01	9.1602	79.236272	0.000859	8.587050	2.909371	-0.068563
 774	3.8650e-01	9.1201	78.776498	0.001152	11.516750	3.901980	-0.091955
 775	3.8700e-01	9.0767	78.514347	0.000657	6.566568	2.224813	-0.052430
 776	3.8750e-01	9.0399	78.260262	0.000636	6.364520	2.156358	-0.050817
 777	3.8800e-01	8.9997	77.739992	0.001303	13.032112	4.415399	-0.104054
 778	3.8850e-01	8.9580	77.477841	0.000657	6.566568	2.224813	-0.052430
 779	3.8900e-01	8.9195	77.094696	0.000960	9.597291	3.251650	-0.076629
 780	3.8950e-01	8.8826	76.675254	0.001051	10.506509	3.559701	-0.083888
 781	3.9000e-01	8.8393	76.469566	0.000515	5.152230	1.745623	-0.041138
 782	3.9050e-01	8.8008	76.271944	0.000495	4.950182	1.677167	-0.039524
 783	3.9100e-01	8.7527	76.038024	0.000586	5.859399	1.985218	-0.046784
 784	3.9150e-01	8.7222	75.662946	0.000940	9.395243	3.183195	-0.075016
 785	3.9200e-01	8.6789	75.021684	0.001606	16.062835	5.442236	-0.128253
 786	3.9250e-01	8.6436	74.662738	0.000899	8.991147	3.046283	-0.071789
 787	3.9300e-01	8.5987	74.610308	0.000131	1.313314	0.444963	-0.010486
 788	3.9350e-01	8.5618	74.263461	0.000869	8.688074	2.943599	-0.069369
 789	3.9400e-01	8.5137	73.928714	0.000839	8.385002	2.840916	-0.066949
 790	3.9450e-01	8.4768	73.295517	0.001586	15.860787	5.373780	-0.126639
 791	3.9500e-01	8.4206	72.989002	0.000768	7.677833	2.601320	-0.061303
 792	3.9550e-01	8.3966	72.823645	0.000414	4.141989	1.403344	-0.033071
 793	3.9600e-01	8.3564	72.416302	0.001020	10.203436	3.457018	-0.081469
 794	3.9650e-01	8.3212	72.178349	0.000596	5.960423	2.019446	-0.047591
 795	3.9700e-01	8.2875	71.730675	0.001121	11.213677	3.799297	-0.089535
 796	3.9750e-01	8.2409	71.327365	0.001010	10.102412	3.422790	-0.080662
 797	3.9800e-01	8.1992	70.940188	0.000970	9.698316	3.285878	-0.077435
 798	3.9850e-01	8.1607	70.794996	0.000364	3.636868	1.232204	-0.029038
 799	3.9900e-01	8.1158	70.282793	0.001283	12.830063	4.346943	-0.102441
 800	3.9950e-01	8.0709	69.960145	0.000808	8.081930	2.738232	-0.064530
 801	4.0000e-01	8.0436	69.540703	0.001051	10.506509	3.559701	-0.083888
 802	4.0050e-01	8.0035	69.093029	0.001121	11.213677	3.799297	-0.089535
 803	4.0100e-01	7.9538	68.822811	0.000677	6.768616	2.293269	-0.054044
 804	4.0150e-01	7.9105	68.629222	0.000485	4.849158	1.642939	-0.038718
 805	4.0200e-01	7.8864	68.096853	0.001334	13.335184	4.518083	-0.106474
 806	4.0250e-01	7.8415	67.737908	0.000899	8.991147	3.046283	-0.071789
 807	4.0300e-01	7.7934	67.467690	0.000677	6.768616	2.293269	-0.054044
 808	4.0350e-01	7.7613	67.100678	0.000919	9.193195	3.114739	-0.073402
 809	4.0400e-01	7.7148	66.592508	0.001273	12.729039	4.312715	-0.101634
 810	4.0450e-01	7.6763	66.386820	0.000515	5.152230	1.745623	-0.041138
 811	4.0500e-01	7.6458	66.039973	0.000869	8.688074	2.943599	-0.069369
 812	4.0550e-01	7.6105	65.467273	0.001435	14.345425	4.860362	-0.114540
 813	4.0600e-01	7.5640	65.116393	0.000879	8.789099	2.977827	-0.070176
 814	4.0650e-01	7.5287	64.890540	0.000566	5.657351	1.916762	-0.045171
 815	4.0700e-01	7.4757	64.745348	0.000364	3.636868	1.232204	-0.029038
 816	4.0750e-01	7.4420	64.237178	0.001273	12.729039	4.312715	-0.101634
 817	4.0800e-01	7.3939	63.854034	0.000960	9.597291	3.251650	-0.076629
 818	4.0850e-01	7.3538	63.503154	0.000879	8.789099	2.977827	-0.070176
 819	4.0900e-01	7.3201	63.249069	0.000636	6.364520	2.156358	-0.050817
 820	4.0950e-01	7.2961	62.773163	0.001192	11.920846	4.038892	-0.095181
 821	4.1000e-01	7.2447	62.430350	0.000859	8.587050	2.909371	-0.068563
 822	4.1050e-01	7.2062	62.196430	0.000586	5.859399	1.985218	-0.046784
 823	4.1100e-01	7.1565	61.829418	0.000919	9.193195	3.114739	-0.073402
 824	4.1150e-01	7.1292	61.276884	0.001384	13.840305	4.689222	-0.110507
 825	4.1200e-01	7.0715	60.845342	0.001081	10.809581	3.662385	-0.086308
 826	4.1250e-01	7.0314	60.752581	0.000232	2.323555	0.787242	-0.018552
 827	4.1300e-01	6.9993	60.433966	0.000798	7.980906	2.704004	-0.063723
 828	4.1350e-01	6.9511	60.042755	0.000980	9.799340	3.320106	-0.078242
 829	4.1400e-01	6.9175	59.812869	0.000576	5.758375	1.950990	-0.045977
 830	4.1450e-01	6.8773	59.264367	0.001374	13.739280	4.654994	-0.109700
 831	4.1500e-01	6.8372	58.917521	0.000869	8.688074	2.943599	-0.069369
 832	4.1550e-01	6.8052	58.550509	0.000919	9.193195	3.114739	-0.073402
 833	4.1600e-01	6.7618	58.328689	0.000556	5.556327	1.882534	-0.044364
 834	4.1650e-01	6.7169	57.929412	0.001000	10.001388	3.388562	-0.079855
 835	4.1700e-01	6.6704	57.610797	0.000798	7.980906	2.704004	-0.063723
 836	4.1750e-01	6.6383	57.066329	0.001364	13.638256	4.620766	-0.108894
 837	4.1800e-01	6.6030	56.808210	0.000647	6.465544	2.190586	-0.051624
 838	4.1850e-01	6.5645	56.473463	0.000839	8.385002	2.840916	-0.066949
 839	4.1900e-01	6.5180	56.037889	0.001091	10.910605	3.696613	-0.087115
 840	4.1950e-01	6.4827	55.372427	0.001667	16.668980	5.647603	-0.133092
 841	4.2000e-01	6.4426	55.231269	0.000354	3.535844	1.197976	-0.028232
 842	4.2050e-01	6.4041	55.122375	0.000273	2.727651	0.924153	-0.021779
 843	4.2100e-01	6.3720	54.767462	0.000889	8.890123	3.012055	-0.070983
 844	4.2150e-01	6.3207	54.400450	0.000919	9.193195	3.114739	-0.073402
 845	4.2200e-01	6.2886	54.037472	0.000909	9.092171	3.080511	-0.072596
 846	4.2250e-01	6.2389	53.416374	0.001556	15.557715	5.271096	-0.124219
 847	4.2300e-01	6.1988	53.242951	0.000434	4.344037	1.471800	-0.034685
 848	4.2350e-01	6.1731	52.819476	0.001061	10.607533	3.593929	-0.084695
 849	4.2400e-01	6.1218	52.545225	0.000687	6.869640	2.327497	-0.054850
 850	4.2450e-01	6.0881	52.170147	0.000940	9.395243	3.183195	-0.075016
 851	4.2500e-01	6.0351	51.859598	0.000778	7.778857	2.635548	-0.062110
 852	4.2550e-01	6.0046	51.476454	0.000960	9.597291	3.251650	-0.076629
 853	4.2600e-01	5.9661	51.117508	0.000899	8.991147	3.046283	-0.071789
 854	4.2650e-01	5.9196	50.770662	0.000869	8.688074	2.943599	-0.069369
 855	4.2700e-01	5.8843	50.480279	0.000727	7.273737	2.464409	-0.058077
 856	4.2750e-01	5.8426	49.984208	0.001243	12.425967	4.210032	-0.099214
 857	4.2800e-01	5.7993	49.459905	0.001313	13.133136	4.449627	-0.104861
 858	4.2850e-01	5.7512	49.145323	0.000788	7.879881	2.669776	-0.062916
 859	4.2900e-01	5.7191	49.008198	0.000343	3.434820	1.163749	-0.027425
 860	4.2950e-01	5.6742	48.342736	0.001667	16.668980	5.647603	-0.133092
 861	4.3000e-01	5.6437	48.024122	0.000798	7.980906	2.704004	-0.063723
 862	4.3050e-01	5.6004	47.677275	0.000869	8.688074	2.943599	-0.069369
 863	4.3100e-01	5.5555	47.366727	0.000778	7.778857	2.635548	-0.062110
 864	4.3150e-01	5.5186	47.165072	0.000505	5.051206	1.711395	-0.040331
 865	4.3200e-01	5.4881	46.600438	0.001414	14.143377	4.791906	-0.112927
 866	4.3250e-01	5.4432	46.402816	0.000495	4.950182	1.677167	-0.039524
 867	4.3300e-01	5.3998	46.076135	0.000818	8.182954	2.772460	-0.065336
 868	4.3350e-01	5.3597	45.527634	0.001374	13.739280	4.654994	-0.109700
 869	4.3400e-01	5.3132	45.309846	0.000546	5.455303	1.848307	-0.043557
 870	4.3450e-01	5.2763	44.846040	0.001162	11.617774	3.936208	-0.092761
 871	4.3500e-01	5.2314	44.579855	0.000667	6.667592	2.259041	-0.053237
 872	4.3550e-01	5.2009	44.180579	0.001000	10.001388	3.388562	-0.079855
 873	4.3600e-01	5.1560	43.801467	0.000950	9.496267	3.217422	-0.075822
 874	4.3650e-01	5.1223	43.454621	0.000869	8.688074	2.943599	-0.069369
 875	4.3700e-01	5.0742	42.970649	0.001212	12.122895	4.107348	-0.096794
 876	4.3750e-01	5.0389	42.474578	0.001243	12.425967	4.210032	-0.099214
 877	4.3800e-01	5.0020	42.272923	0.000505	5.051206	1.711395	-0.040331
 878	4.3850e-01	4.9603	41.978507	0.000737	7.374761	2.498637	-0.058883
 879	4.3900e-01	4.9202	41.534866	0.001111	11.112653	3.765069	-0.088728
 880	4.3950e-01	4.8881	41.272715	0.000657	6.566568	2.224813	-0.052430
 881	4.4000e-01	4.8528	40.708081	0.001414	14.143377	4.791906	-0.112927
 882	4.4050e-01	4.7983	40.462062	0.000616	6.162471	2.087902	-0.049204
 883	4.4100e-01	4.7566	40.304771	0.000394	3.939941	1.334888	-0.031458
 884	4.4150e-01	4.7148	39.901461	0.001010	10.102412	3.422790	-0.080662
 885	4.4200e-01	4.6828	39.477986	0.001061	10.607533	3.593929	-0.084695
 886	4.4250e-01	4.6426	39.155338	0.000808	8.081930	2.738232	-0.064530
 887	4.4300e-01	4.5993	38.635068	0.001303	13.032112	4.415399	-0.104054
 888	4.4350e-01	4.5673	38.130931	0.001263	12.628015	4.278487	-0.100827
 889	4.4400e-01	4.5175	38.058335	0.000182	1.818434	0.616102	-0.014519
 890	4.4450e-01	4.4774	37.655025	0.001010	10.102412	3.422790	-0.080662
 891	4.4500e-01	4.4341	37.292046	0.000909	9.092171	3.080511	-0.072596
 892	4.4550e-01	4.4068	36.820174	0.001182	11.819822	4.004664	-0.094375
 893	4.4600e-01	4.3603	36.485427	0.000839	8.385002	2.840916	-0.066949
 894	4.4650e-01	4.3154	36.053885	0.001081	10.809581	3.662385	-0.086308
 895	4.4700e-01	4.2753	35.654608	0.001000	10.001388	3.388562	-0.079855
 896	4.4750e-01	4.2368	35.291629	0.000909	9.092171	3.080511	-0.072596
 897	4.4800e-01	4.1999	35.081908	0.000525	5.253254	1.779851	-0.041944
 898	4.4850e-01	4.1646	34.811691	0.000677	6.768616	2.293269	-0.054044
 899	4.4900e-01	4.1181	34.190593	0.001556	15.557715	5.271096	-0.124219
 900	4.4950e-01	4.0892	33.638059	0.001384	13.840305	4.689222	-0.110507
 901	4.5000e-01	4.0379	33.351709	0.000717	7.172713	2.430181	-0.057270
 902	4.5050e-01	4.0042	33.166186	0.000465	4.647110	1.574483	-0.037105
 903	4.5100e-01	3.9480	32.742711	0.001061	10.607533	3.593929	-0.084695
 904	4.5150e-01	3.9127	32.278905	0.001162	11.617774	3.936208	-0.092761
 905	4.5200e-01	3.8806	31.895760	0.000960	9.597291	3.251650	-0.076629
 906	4.5250e-01	3.8373	31.552947	0.000859	8.587050	2.909371	-0.068563
 907	4.5300e-01	3.7988	31.254498	0.000748	7.475785	2.532865	-0.059690
 908	4.5350e-01	3.7571	30.911684	0.000859	8.587050	2.909371	-0.068563
 909	4.5400e-01	3.7138	30.512407	0.001000	10.001388	3.388562	-0.079855
 910	4.5450e-01	3.6833	30.080866	0.001081	10.809581	3.662385	-0.086308
 911	4.5500e-01	3.6400	29.625126	0.001142	11.415726	3.867753	-0.091148
 912	4.5550e-01	3.5951	29.451703	0.000434	4.344037	1.471800	-0.034685
 913	4.5600e-01	3.5598	29.125022	0.000818	8.182954	2.772460	-0.065336
 914	4.5650e-01	3.5165	28.923367	0.000505	5.051206	1.711395	-0.040331
 915	4.5700e-01	3.4940	28.310336	0.001536	15.355666	5.202641	-0.122606
 916	4.5750e-01	3.4395	27.822331	0.001222	12.223919	4.141576	-0.097601
 917	4.5800e-01	3.3930	27.406922	0.001041	10.405484	3.525474	-0.083082
 918	4.5850e-01	3.3512	27.056042	0.000879	8.789099	2.977827	-0.070176
 919	4.5900e-01	3.3224	26.858420	0.000495	4.950182	1.677167	-0.039524
 920	4.5950e-01	3.2855	26.265555	0.001485	14.850546	5.031501	-0.118573
 921	4.6000e-01	3.2389	25.745285	0.001303	13.032112	4.415399	-0.104054
 922	4.6050e-01	3.2020	25.664623	0.000202	2.020482	0.684558	-0.016132
 923	4.6100e-01	3.1619	25.099989	0.001414	14.143377	4.791906	-0.112927
 924	4.6150e-01	3.1234	24.894301	0.000515	5.152230	1.745623	-0.041138
 925	4.6200e-01	3.0833	24.555521	0.000849	8.486026	2.875143	-0.067756
 926	4.6250e-01	3.0416	24.309502	0.000616	6.162471	2.087902	-0.049204
 927	4.6300e-01	2.9999	23.906192	0.001010	10.102412	3.422790	-0.080662
 928	4.6350e-01	2.9582	23.535147	0.000929	9.294219	3.148967	-0.074209
 929	4.6400e-01	2.9181	23.067307	0.001172	11.718798	3.970436	-0.093568
 930	4.6450e-01	2.8844	22.680130	0.000970	9.698316	3.285878	-0.077435
 931	4.6500e-01	2.8411	22.115496	0.001414	14.143377	4.791906	-0.112927
 932	4.6550e-01	2.7994	21.966272	0.000374	3.737892	1.266432	-0.029845
 933	4.6600e-01	2.7609	21.413737	0.001384	13.840305	4.689222	-0.110507
 934	4.6650e-01	2.7240	21.066891	0.000869	8.688074	2.943599	-0.069369
 935	4.6700e-01	2.6823	20.703912	0.000909	9.092171	3.080511	-0.072596
 936	4.6750e-01	2.6390	20.578886	0.000313	3.131748	1.061065	-0.025005
 937	4.6800e-01	2.6005	20.022318	0.001394	13.941329	4.723450	-0.111314
 938	4.6850e-01	2.5539	19.558512	0.001162	11.617774	3.936208	-0.092761
 939	4.6900e-01	2.5106	19.340724	0.000546	5.455303	1.848307	-0.043557
 940	4.6950e-01	2.4753	18.917249	0.001061	10.607533	3.593929	-0.084695
 941	4.7000e-01	2.4400	18.550237	0.000919	9.193195	3.114739	-0.073402
 942	4.7050e-01	2.4047	18.134828	0.001041	10.405484	3.525474	-0.083082
 943	4.7100e-01	2.3678	17.501631	0.001586	15.860787	5.373780	-0.126639
 944	4.7150e-01	2.3261	17.166884	0.000839	8.385002	2.840916	-0.066949
 945	4.7200e-01	2.2828	16.916832	0.000626	6.263496	2.122130	-0.050010
 946	4.7250e-01	2.2475	16.440926	0.001192	11.920846	4.038892	-0.095181
 947	4.7300e-01	2.1978	16.001319	0.001101	11.011629	3.730841	-0.087922
 948	4.7350e-01	2.1577	15.900491	0.000253	2.525603	0.855697	-0.020165
 949	4.7400e-01	2.1176	15.464917	0.001091	10.910605	3.696613	-0.087115
 950	4.7450e-01	2.0791	15.190666	0.000687	6.869640	2.327497	-0.054850
 951	4.7500e-01	2.0358	14.803488	0.000970	9.698316	3.285878	-0.077435
 952	4.7550e-01	1.9909	14.311450	0.001232	12.324943	4.175804	-0.098408
 953	4.7600e-01	1.9524	13.952505	0.000899	8.991147	3.046283	-0.071789
 954	4.7650e-01	1.9187	13.541129	0.001030	10.304460	3.491246	-0.082275
 955	4.7700e-01	1.8737	13.206381	0.000839	8.385002	2.840916	-0.066949
 956	4.7750e-01	1.8481	12.799038	0.001020	10.203436	3.457018	-0.081469
 957	4.7800e-01	1.8016	12.423960	0.000940	9.395243	3.183195	-0.075016
 958	4.7850e-01	1.7679	11.863360	0.001404	14.042353	4.757678	-0.112120
 959	4.7900e-01	1.7213	11.601208	0.000657	6.566568	2.224813	-0.052430
 960	4.7950e-01	1.6812	11.254362	0.000869	8.688074	2.943599	-0.069369
 961	4.8000e-01	1.6363	10.899449	0.000889	8.890123	3.012055	-0.070983
 962	4.8050e-01	1.6042	10.403378	0.001243	12.425967	4.210032	-0.099214
 963	4.8100e-01	1.5593	10.008134	0.000990	9.900364	3.354334	-0.079049
 964	4.8150e-01	1.5192	9.657255	0.000879	8.789099	2.977827	-0.070176
 965	4.8200e-01	1.4807	9.411236	0.000616	6.162471	2.087902	-0.049204
 966	4.8250e-01	1.4486	8.943396	0.001172	11.718798	3.970436	-0.093568
 967	4.8300e-01	1.3909	8.604616	0.000849	8.486026	2.875143	-0.067756
 968	4.8350e-01	1.3668	8.350531	0.000636	6.364520	2.156358	-0.050817
 969	4.8400e-01	1.3155	7.931088	0.001051	10.506509	3.559701	-0.083888
 970	4.8450e-01	1.2706	7.475348	0.001142	11.415726	3.867753	-0.091148
 971	4.8500e-01	1.2385	7.426951	0.000121	1.212289	0.410735	-0.009679
 972	4.8550e-01	1.2096	6.781655	0.001616	16.163859	5.476464	-0.129059
 973	4.8600e-01	1.1583	6.301717	0.001202	12.021870	4.073120	-0.095988
 974	4.8650e-01	1.1149	6.047631	0.000636	6.364520	2.156358	-0.050817
 975	4.8700e-01	1.0796	5.462832	0.001465	14.648498	4.963045	-0.116960
 976	4.8750e-01	1.0460	5.261177	0.000505	5.051206	1.711395	-0.040331
 977	4.8800e-01	1.0042	4.700576	0.001404	14.042353	4.757678	-0.112120
 978	4.8850e-01	0.9577	4.345664	0.000889	8.890123	3.012055	-0.070983
 979	4.8900e-01	0.9208	4.091579	0.000636	6.364520	2.156358	-0.050817
 980	4.8950e-01	0.8743	3.789096	0.000758	7.576809	2.567092	-0.060496
 981	4.9000e-01	0.8406	3.470481	0.000798	7.980906	2.704004	-0.063723
 982	4.9050e-01	0.7973	2.889715	0.001455	14.547473	4.928817	-0.116153
 983	4.9100e-01	0.7556	2.514637	0.000940	9.395243	3.183195	-0.075016
 984	4.9150e-01	0.7251	2.042764	0.001182	11.819822	4.004664	-0.094375
 985	4.9200e-01	0.6818	1.627355	0.001041	10.405484	3.525474	-0.083082
 986	4.9250e-01	0.6449	1.316807	0.000778	7.778857	2.635548	-0.062110
 987	4.9300e-01	0.5968	0.982060	0.000839	8.385002	2.840916	-0.066949
 988	4.9350e-01	0.5599	0.631180	0.000879	8.789099	2.977827	-0.070176
 989	4.9400e-01	0.5230	0.102844	0.001323	13.234160	4.483855	-0.105667
 990	4.9450e-01	0.4861	-0.300466	0.001010	10.102412	3.422790	-0.080662
 991	4.9500e-01	0.4476	-0.546485	0.000616	6.162471	2.087902	-0.049204
 992	4.9550e-01	0.3978	-0.986093	0.001101	11.011629	3.730841	-0.087922
 993	4.9600e-01	0.3626	-1.256310	0.000677	6.768616	2.293269	-0.054044
 994	4.9650e-01	0.3112	-1.784646	0.001323	13.234160	4.483855	-0.105667
 995	4.9700e-01	0.2791	-1.954036	0.000424	4.243013	1.437572	-0.033878
 996	4.9750e-01	0.2374	-2.506571	0.001384	13.840305	4.689222	-0.110507
 997	4.9800e-01	0.2005	-2.772755	0.000667	6.667592	2.259041	-0.053237
 998	4.9850e-01	0.1604	-3.139767	0.000919	9.193195	3.114739	-0.073402
 999	4.9900e-01	0.1123	-3.547110	0.001020	10.203436	3.457018	-0.081469
1000	4.9950e-01	0.0818	-3.893957	0.000869	8.688074	2.943599	-0.069369
1001	5.0000e-01	0.0465	-4.506988	0.001536	15.355666	5.202641	-0.122606
1002	5.0050e-01	0.0048	-4.676378	0.000424	4.243013	1.437572	-0.033878
1003	5.0100e-01	-0.0305	-4.962728	0.000717	7.172713	2.430181	-0.057270
1004	5.0150e-01	-0.0722	-5.337806	0.000940	9.395243	3.183195	-0.075016
1005	5.0200e-01	-0.1235	-5.503163	0.000414	4.141989	1.403344	-0.033071
1006	5.0250e-01	-0.1556	-5.950837	0.001121	11.213677	3.799297	-0.089535
1007	5.0300e-01	-0.1973	-6.414643	0.001162	11.617774	3.936208	-0.092761
1008	5.0350e-01	-0.2326	-6.692927	0.000697	6.970664	2.361725	-0.055657
1009	5.0400e-01	-0.2647	-7.269660	0.001445	14.446449	4.894590	-0.115347
1010	5.0450e-01	-0.3064	-7.870592	0.001505	15.052594	5.099957	-0.120186
1011	5.0500e-01	-0.3545	-8.201306	0.000828	8.283978	2.806688	-0.066143
1012	5.0550e-01	-0.3946	-8.552186	0.000879	8.789099	2.977827	-0.070176
1013	5.0600e-01	-0.4299	-8.907098	0.000889	8.890123	3.012055	-0.070983
1014	5.0650e-01	-0.4749	-9.370905	0.001162	11.617774	3.936208	-0.092761
1015	5.0700e-01	-0.5101	-9.737917	0.000919	9.193195	3.114739	-0.073402
1016	5.0750e-01	-0.5567	-9.979902	0.000606	6.061447	2.053674	-0.048397
1017	5.0800e-01	-0.6016	-10.080730	0.000253	2.525603	0.855697	-0.020165
1018	5.0850e-01	-0.6353	-10.552602	0.001182	11.819822	4.004664	-0.094375
1019	5.0900e-01	-0.6818	-10.988177	0.001091	10.910605	3.696613	-0.087115
1020	5.0950e-01	-0.7075	-11.371322	0.000960	9.597291	3.251650	-0.076629
1021	5.1000e-01	-0.7508	-11.750433	0.000950	9.496267	3.217422	-0.075822
1022	5.1050e-01	-0.7893	-12.113412	0.000909	9.092171	3.080511	-0.072596
1023	5.1100e-01	-0.8454	-12.536887	0.001061	10.607533	3.593929	-0.084695
1024	5.1150e-01	-0.8743	-12.952296	0.001041	10.405484	3.525474	-0.083082
1025	5.1200e-01	-0.9144	-13.383838	0.001081	10.809581	3.662385	-0.086308
1026	5.1250e-01	-0.9545	-13.541129	0.000394	3.939941	1.334888	-0.031458
1027	5.1300e-01	-0.9962	-14.154160	0.001536	15.355666	5.202641	-0.122606
1028	5.1350e-01	-1.0476	-14.250954	0.000242	2.424579	0.821470	-0.019359
1029	5.1400e-01	-1.0684	-14.767191	0.001293	12.931087	4.381171	-0.103247
1030	5.1450e-01	-1.1182	-15.110004	0.000859	8.587050	2.909371	-0.068563
1031	5.1500e-01	-1.1534	-15.658505	0.001374	13.739280	4.654994	-0.109700
1032	5.1550e-01	-1.1919	-16.094080	0.001091	10.910605	3.696613	-0.087115
1033	5.1600e-01	-1.2272	-16.469158	0.000940	9.395243	3.183195	-0.075016
1034	5.1650e-01	-1.2786	-16.711144	0.000606	6.061447	2.053674	-0.048397
1035	5.1700e-01	-1.3107	-17.102355	0.000980	9.799340	3.320106	-0.078242
1036	5.1750e-01	-1.3508	-17.505664	0.001010	10.102412	3.422790	-0.080662
1037	5.1800e-01	-1.3877	-18.050133	0.001364	13.638256	4.620766	-0.108894
1038	5.1850e-01	-1.4358	-18.308251	0.000647	6.465544	2.190586	-0.051624
1039	5.1900e-01	-1.4759	-18.642998	0.000839	8.385002	2.840916	-0.066949
1040	5.1950e-01	-1.5128	-18.925315	0.000707	7.071688	2.395953	-0.056463
1041	5.2000e-01	-1.5561	-19.348791	0.001061	10.607533	3.593929	-0.084695
1042	5.2050e-01	-1.6026	-19.957788	0.001525	15.254642	5.168413	-0.121800
1043	5.2100e-01	-1.6379	-20.276403	0.000798	7.980906	2.704004	-0.063723
1044	5.2150e-01	-1.6764	-20.328834	0.000131	1.313314	0.444963	-0.010486
1045	5.2200e-01	-1.7213	-20.663581	0.000839	8.385002	2.840916	-0.066949
1046	5.2250e-01	-1.7582	-21.103188	0.001101	11.011629	3.730841	-0.087922
1047	5.2300e-01	-1.7983	-21.393572	0.000727	7.273737	2.464409	-0.058077
1048	5.2350e-01	-1.8352	-21.849312	0.001142	11.415726	3.867753	-0.091148
1049	5.2400e-01	-1.8753	-22.292953	0.001111	11.112653	3.765069	-0.088728
1050	5.2450e-01	-1.9203	-22.728527	0.001091	10.910605	3.696613	-0.087115
1051	5.2500e-01	-1.9491	-23.018910	0.000727	7.273737	2.464409	-0.058077
1052	5.2550e-01	-1.9909	-23.313326	0.000737	7.374761	2.498637	-0.058883
1053	5.2600e-01	-2.0390	-23.752934	0.001101	11.011629	3.730841	-0.087922
1054	5.2650e-01	-2.0791	-24.027185	0.000687	6.869640	2.327497	-0.054850
1055	5.2700e-01	-2.1144	-24.676514	0.001626	16.264883	5.510692	-0.129866
1056	5.2750e-01	-2.1561	-25.027393	0.000879	8.789099	2.977827	-0.070176
1057	5.2800e-01	-2.1962	-25.406505	0.000950	9.496267	3.217422	-0.075822
1058	5.2850e-01	-2.2315	-25.870311	0.001162	11.617774	3.936208	-0.092761
1059	5.2900e-01	-2.2796	-26.104231	0.000586	5.859399	1.985218	-0.046784
1060	5.2950e-01	-2.3117	-26.366382	0.000657	6.566568	2.224813	-0.052430
1061	5.3000e-01	-2.3550	-26.616434	0.000626	6.263496	2.122130	-0.050010
1062	5.3050e-01	-2.3983	-27.060075	0.001111	11.112653	3.765069	-0.088728
1063	5.3100e-01	-2.4368	-27.612610	0.001384	13.840305	4.689222	-0.110507
1064	5.3150e-01	-2.4769	-28.052217	0.001101	11.011629	3.730841	-0.087922
1065	5.3200e-01	-2.5138	-28.399064	0.000869	8.688074	2.943599	-0.069369
1066	5.3250e-01	-2.5507	-28.673315	0.000687	6.869640	2.327497	-0.054850
1067	5.3300e-01	-2.5973	-28.975797	0.000758	7.576809	2.567092	-0.060496
1068	5.3350e-01	-2.6293	-29.201650	0.000566	5.657351	1.916762	-0.045171
1069	5.3400e-01	-2.6759	-29.822748	0.001556	15.557715	5.271096	-0.124219
1070	5.3450e-01	-2.7144	-30.036502	0.000535	5.354278	1.814079	-0.042751
1071	5.3500e-01	-2.7464	-30.318819	0.000707	7.071688	2.395953	-0.056463
1072	5.3550e-01	-2.8042	-30.665665	0.000869	8.688074	2.943599	-0.069369
1073	5.3600e-01	-2.8299	-31.169803	0.001263	12.628015	4.278487	-0.100827
1074	5.3650e-01	-2.8748	-31.710238	0.001354	13.537232	4.586538	-0.108087
1075	5.3700e-01	-2.9197	-32.028853	0.000798	7.980906	2.704004	-0.063723
1076	5.3750e-01	-2.9550	-32.335368	0.000768	7.677833	2.601320	-0.061303
1077	5.3800e-01	-2.9951	-32.532990	0.000495	4.950182	1.677167	-0.039524
1078	5.3850e-01	-3.0368	-33.004862	0.001182	11.819822	4.004664	-0.094375
1079	5.3900e-01	-3.0689	-33.291212	0.000717	7.172713	2.430181	-0.057270
1080	5.3950e-01	-3.1122	-33.876012	0.001465	14.648498	4.963045	-0.116960
1081	5.4000e-01	-3.1571	-34.243024	0.000919	9.193195	3.114739	-0.073402
1082	5.4050e-01	-3.2004	-34.666499	0.001061	10.607533	3.593929	-0.084695
1083	5.4100e-01	-3.2357	-34.936717	0.000677	6.768616	2.293269	-0.054044
1084	5.4150e-01	-3.2839	-35.170636	0.000586	5.859399	1.985218	-0.046784
1085	5.4200e-01	-3.3176	-35.860296	0.001728	17.275125	5.852971	-0.137932
1086	5.4250e-01	-3.3480	-36.005488	0.000364	3.636868	1.232204	-0.029038
1087	5.4300e-01	-3.3962	-36.408798	0.001010	10.102412	3.422790	-0.080662
1088	5.4350e-01	-3.4395	-36.723379	0.000788	7.879881	2.669776	-0.062916
1089	5.4400e-01	-3.4667	-36.856472	0.000333	3.333796	1.129521	-0.026618
1090	5.4450e-01	-3.5181	-37.372708	0.001293	12.931087	4.381171	-0.103247
1091	5.4500e-01	-3.5534	-37.884912	0.001283	12.830063	4.346943	-0.102441
1092	5.4550e-01	-3.5887	-38.372917	0.001222	12.223919	4.141576	-0.097601
1093	5.4600e-01	-3.6480	-38.538274	0.000414	4.141989	1.403344	-0.033071
1094	5.4650e-01	-3.6689	-38.824624	0.000717	7.172713	2.430181	-0.057270
1095	5.4700e-01	-3.7234	-39.264231	0.001101	11.011629	3.730841	-0.087922
1096	5.4750e-01	-3.7459	-39.740137	0.001192	11.920846	4.038892	-0.095181
1097	5.4800e-01	-3.8052	-39.796600	0.000141	1.414338	0.479191	-0.011293
1098	5.4850e-01	-3.8277	-40.159579	0.000909	9.092171	3.080511	-0.072596
1099	5.4900e-01	-3.8742	-40.655650	0.001243	12.425967	4.210032	-0.099214
1100	5.4950e-01	-3.9191	-41.095258	0.001101	11.011629	3.730841	-0.087922
1101	5.5000e-01	-3.9528	-41.264648	0.000424	4.243013	1.437572	-0.033878
1102	5.5050e-01	-4.0010	-41.724422	0.001152	11.516750	3.901980	-0.091955
1103	5.5100e-01	-4.0362	-41.978507	0.000636	6.364520	2.156358	-0.050817
1104	5.5150e-01	-4.0764	-42.357618	0.000950	9.496267	3.217422	-0.075822
1105	5.5200e-01	-4.1245	-42.865788	0.001273	12.729039	4.312715	-0.101634
1106	5.5250e-01	-4.1485	-43.055344	0.000475	4.748134	1.608711	-0.037911
1107	5.5300e-01	-4.1967	-43.498985	0.001111	11.112653	3.765069	-0.088728
1108	5.5350e-01	-4.2320	-43.680474	0.000455	4.546085	1.540255	-0.036298
1109	5.5400e-01	-4.2785	-44.196711	0.001293	12.931087	4.381171	-0.103247
1110	5.5450e-01	-4.3138	-44.386267	0.000475	4.748134	1.608711	-0.037911
1111	5.5500e-01	-4.3571	-45.007364	0.001556	15.557715	5.271096	-0.124219
1112	5.5550e-01	-4.3908	-45.446972	0.001101	11.011629	3.730841	-0.087922
1113	5.5600e-01	-4.4261	-45.664759	0.000546	5.455303	1.848307	-0.043557
1114	5.5650e-01	-4.4758	-46.023705	0.000899	8.991147	3.046283	-0.071789
1115	5.5700e-01	-4.5111	-46.322154	0.000748	7.475785	2.532865	-0.059690
1116	5.5750e-01	-4.5544	-46.681100	0.000899	8.991147	3.046283	-0.071789
1117	5.5800e-01	-4.5945	-46.894854	0.000535	5.354278	1.814079	-0.042751
1118	5.5850e-01	-4.6378	-47.475620	0.001455	14.547473	4.928817	-0.116153
1119	5.5900e-01	-4.6747	-47.770036	0.000737	7.374761	2.498637	-0.058883
1120	5.5950e-01	-4.7148	-48.036221	0.000667	6.667592	2.259041	-0.053237
1121	5.6000e-01	-4.7549	-48.383067	0.000869	8.688074	2.943599	-0.069369
1122	5.6050e-01	-4.8015	-48.742013	0.000899	8.991147	3.046283	-0.071789
1123	5.6100e-01	-4.8416	-49.217919	0.001192	11.920846	4.038892	-0.095181
1124	5.6150e-01	-4.8705	-49.540567	0.000808	8.081930	2.738232	-0.064530
1125	5.6200e-01	-4.9122	-49.911612	0.000929	9.294219	3.148967	-0.074209
1126	5.6250e-01	-4.9603	-50.081002	0.000424	4.243013	1.437572	-0.033878
1127	5.6300e-01	-4.9924	-50.286690	0.000515	5.152230	1.745623	-0.041138
1128	5.6350e-01	-5.0325	-50.960217	0.001687	16.871028	5.716059	-0.134705
1129	5.6400e-01	-5.0710	-51.198170	0.000596	5.960423	2.019446	-0.047591
1130	5.6450e-01	-5.1223	-51.742639	0.001364	13.638256	4.620766	-0.108894
1131	5.6500e-01	-5.1560	-51.928161	0.000465	4.647110	1.574483	-0.037105
1132	5.6550e-01	-5.2041	-52.307272	0.000950	9.496267	3.217422	-0.075822
1133	5.6600e-01	-5.2362	-52.763012	0.001142	11.415726	3.867753	-0.091148
1134	5.6650e-01	-5.2811	-53.130024	0.000919	9.193195	3.114739	-0.073402
1135	5.6700e-01	-5.3212	-53.392176	0.000657	6.566568	2.224813	-0.052430
1136	5.6750e-01	-5.3533	-53.694658	0.000758	7.576809	2.567092	-0.060496
1137	5.6800e-01	-5.3934	-54.106034	0.001030	10.304460	3.491246	-0.082275
1138	5.6850e-01	-5.4335	-54.533543	0.001071	10.708557	3.628157	-0.085502
1139	5.6900e-01	-5.4849	-54.710999	0.000445	4.445061	1.506028	-0.035491
1140	5.6950e-01	-5.5154	-55.033647	0.000808	8.081930	2.738232	-0.064530
1141	5.7000e-01	-5.5587	-55.436957	0.001010	10.102412	3.422790	-0.080662
1142	5.7050e-01	-5.5988	-55.860432	0.001061	10.607533	3.593929	-0.084695
1143	5.7100e-01	-5.6357	-56.300040	0.001101	11.011629	3.730841	-0.087922
1144	5.7150e-01	-5.6694	-56.501695	0.000505	5.051206	1.711395	-0.040331
1145	5.7200e-01	-5.7111	-56.913071	0.001030	10.304460	3.491246	-0.082275
1146	5.7250e-01	-5.7640	-57.179255	0.000667	6.667592	2.259041	-0.053237
1147	5.7300e-01	-5.8025	-57.493837	0.000788	7.879881	2.669776	-0.062916
1148	5.7350e-01	-5.8378	-57.981842	0.001222	12.223919	4.141576	-0.097601
1149	5.7400e-01	-5.8747	-58.175431	0.000485	4.849158	1.642939	-0.038718
1150	5.7450e-01	-5.9180	-58.534377	0.000899	8.991147	3.046283	-0.071789
1151	5.7500e-01	-5.9597	-58.869124	0.000839	8.385002	2.840916	-0.066949
1152	5.7550e-01	-5.9934	-59.163540	0.000737	7.374761	2.498637	-0.058883
1153	5.7600e-01	-6.0367	-59.659611	0.001243	12.425967	4.210032	-0.099214
1154	5.7650e-01	-6.0736	-59.881431	0.000556	5.556327	1.882534	-0.044364
1155	5.7700e-01	-6.1185	-60.264576	0.000960	9.597291	3.251650	-0.076629
1156	5.7750e-01	-6.1603	-60.679985	0.001041	10.405484	3.525474	-0.083082
1157	5.7800e-01	-6.2036	-61.196222	0.001293	12.931087	4.381171	-0.103247
1158	5.7850e-01	-6.2357	-61.470472	0.000687	6.869640	2.327497	-0.054850
1159	5.7900e-01	-6.2774	-61.672127	0.000505	5.051206	1.711395	-0.040331
1160	5.7950e-01	-6.3175	-62.043172	0.000929	9.294219	3.148967	-0.074209
1161	5.8000e-01	-6.3608	-62.212562	0.000424	4.243013	1.437572	-0.033878
1162	5.8050e-01	-6.4025	-62.470681	0.000647	6.465544	2.190586	-0.051624
1163	5.8100e-01	-6.4378	-63.180506	0.001778	17.780245	6.024110	-0.141965
1164	5.8150e-01	-6.4699	-63.321665	0.000354	3.535844	1.197976	-0.028232
1165	5.8200e-01	-6.5100	-63.624147	0.000758	7.576809	2.567092	-0.060496
1166	5.8250e-01	-6.5501	-63.910497	0.000717	7.172713	2.430181	-0.057270
1167	5.8300e-01	-6.5870	-64.333972	0.001061	10.607533	3.593929	-0.084695
1168	5.8350e-01	-6.6287	-64.769547	0.001091	10.910605	3.696613	-0.087115
1169	5.8400e-01	-6.6736	-64.979268	0.000525	5.253254	1.779851	-0.041944
1170	5.8450e-01	-6.7201	-65.221254	0.000606	6.061447	2.053674	-0.048397
1171	5.8500e-01	-6.7554	-65.547935	0.000818	8.182954	2.772460	-0.065336
1172	5.8550e-01	-6.7907	-65.999642	0.001131	11.314702	3.833525	-0.090341
1173	5.8600e-01	-6.8404	-66.225496	0.000566	5.657351	1.916762	-0.045171
1174	5.8650e-01	-6.8806	-66.624772	0.001000	10.001388	3.388562	-0.079855
1175	5.8700e-01	-6.9062	-67.040182	0.001041	10.405484	3.525474	-0.083082
1176	5.8750e-01	-6.9640	-67.064380	0.000061	0.606145	0.205367	-0.004840
1177	5.8800e-01	-6.9993	-67.560451	0.001243	12.425967	4.210032	-0.099214
1178	5.8850e-01	-7.0265	-67.883099	0.000808	8.081930	2.738232	-0.064530
1179	5.8900e-01	-7.0779	-68.205747	0.000808	8.081930	2.738232	-0.064530
1180	5.8950e-01	-7.1084	-68.576792	0.000929	9.294219	3.148967	-0.074209
1181	5.9000e-01	-7.1533	-68.907506	0.000828	8.283978	2.806688	-0.066143
1182	5.9050e-01	-7.1870	-69.298717	0.000980	9.799340	3.320106	-0.078242
1183	5.9100e-01	-7.2319	-69.581034	0.000707	7.071688	2.395953	-0.056463
1184	5.9150e-01	-7.2736	-69.935946	0.000889	8.890123	3.012055	-0.070983
1185	5.9200e-01	-7.3153	-70.335223	0.001000	10.001388	3.388562	-0.079855
1186	5.9250e-01	-7.3442	-70.488481	0.000384	3.838917	1.300660	-0.030652
1187	5.9300e-01	-7.3843	-70.980519	0.001232	12.324943	4.175804	-0.098408
1188	5.9350e-01	-7.4244	-71.214439	0.000586	5.859399	1.985218	-0.046784
1189	5.9400e-01	-7.4677	-71.549186	0.000839	8.385002	2.840916	-0.066949
1190	5.9450e-01	-7.5110	-71.815370	0.000667	6.667592	2.259041	-0.053237
1191	5.9500e-01	-7.5527	-72.017025	0.000505	5.051206	1.711395	-0.040331
1192	5.9550e-01	-7.5960	-72.452600	0.001091	10.910605	3.696613	-0.087115
1193	5.9600e-01	-7.6329	-72.872042	0.001051	10.506509	3.559701	-0.083888
1194	5.9650e-01	-7.6682	-73.202756	0.000828	8.283978	2.806688	-0.066143
1195	5.9700e-01	-7.7148	-73.456841	0.000636	6.364520	2.156358	-0.050817
1196	5.9750e-01	-7.7581	-73.856118	0.001000	10.001388	3.388562	-0.079855
1197	5.9800e-01	-7.7869	-74.069872	0.000535	5.354278	1.814079	-0.042751
1198	5.9850e-01	-7.8399	-74.465116	0.000990	9.900364	3.354334	-0.079049
1199	5.9900e-01	-7.8720	-74.868426	0.001010	10.102412	3.422790	-0.080662
1200	5.9950e-01	-7.9153	-75.211239	0.000859	8.587050	2.909371	-0.068563
1201	6.0000e-01	-7.9570	-75.392729	0.000455	4.546085	1.540255	-0.036298
1202	6.0050e-01	-7.9907	-75.731509	0.000849	8.486026	2.875143	-0.067756
1203	6.0100e-01	-8.0340	-76.074322	0.000859	8.587050	2.909371	-0.068563
1204	6.0150e-01	-8.0789	-76.429235	0.000889	8.890123	3.012055	-0.070983
1205	6.0200e-01	-8.1110	-76.663155	0.000586	5.859399	1.985218	-0.046784
1206	6.0250e-01	-8.1543	-77.102763	0.001101	11.011629	3.730841	-0.087922
1207	6.0300e-01	-8.1816	-77.401212	0.000748	7.475785	2.532865	-0.059690
1208	6.0350e-01	-8.2281	-77.643198	0.000606	6.061447	2.053674	-0.048397
1209	6.0400e-01	-8.2666	-78.098938	0.001142	11.415726	3.867753	-0.091148
1210	6.0450e-01	-8.3035	-78.381255	0.000707	7.071688	2.395953	-0.056463
1211	6.0500e-01	-8.3629	-78.474016	0.000232	2.323555	0.787242	-0.018552
1212	6.0550e-01	-8.3933	-79.022517	0.001374	13.739280	4.654994	-0.109700
1213	6.0600e-01	-8.4383	-79.361298	0.000849	8.486026	2.875143	-0.067756
1214	6.0650e-01	-8.4687	-79.663780	0.000758	7.576809	2.567092	-0.060496
1215	6.0700e-01	-8.5169	-79.917865	0.000636	6.364520	2.156358	-0.050817
1216	6.0750e-01	-8.5506	-80.220348	0.000758	7.576809	2.567092	-0.060496
1217	6.0800e-01	-8.5939	-80.631724	0.001030	10.304460	3.491246	-0.082275
1218	6.0850e-01	-8.6244	-80.607525	-0.000061	-0.606145	-0.205367	0.004840
1219	6.0900e-01	-8.6741	-81.200391	0.001485	14.850546	5.031501	-0.118573
1220	6.0950e-01	-8.7174	-81.531105	0.000828	8.283978	2.806688	-0.066143
1221	6.1000e-01	-8.7527	-81.877951	0.000869	8.688074	2.943599	-0.069369
1222	6.1050e-01	-8.7880	-82.248996	0.000929	9.294219	3.148967	-0.074209
1223	6.1100e-01	-8.8297	-82.652306	0.001010	10.102412	3.422790	-0.080662
1224	6.1150e-01	-8.8778	-82.987053	0.000839	8.385002	2.840916	-0.066949
1225	6.1200e-01	-8.9099	-83.220973	0.000586	5.859399	1.985218	-0.046784
1226	6.1250e-01	-8.9580	-83.426661	0.000515	5.152230	1.745623	-0.041138
1227	6.1300e-01	-8.9981	-83.640415	0.000535	5.354278	1.814079	-0.042751
1228	6.1350e-01	-9.0270	-84.124387	0.001212	12.122895	4.107348	-0.096794
1229	6.1400e-01	-9.0703	-84.305877	0.000455	4.546085	1.540255	-0.036298
1230	6.1450e-01	-9.1072	-84.604326	0.000748	7.475785	2.532865	-0.059690
1231	6.1500e-01	-9.1618	-85.043934	0.001101	11.011629	3.730841	-0.087922
1232	6.1550e-01	-9.1906	-85.358515	0.000788	7.879881	2.669776	-0.062916
1233	6.1600e-01	-9.2324	-85.677130	0.000798	7.980906	2.704004	-0.063723
1234	6.1650e-01	-9.2709	-85.886851	0.000525	5.253254	1.779851	-0.041944
1235	6.1700e-01	-9.3110	-86.322426	0.001091	10.910605	3.696613	-0.087115
1236	6.1750e-01	-9.3495	-86.584577	0.000657	6.566568	2.224813	-0.052430
1237	6.1800e-01	-9.3944	-86.782199	0.000495	4.950182	1.677167	-0.039524
1238	6.1850e-01	-9.4233	-87.241972	0.001152	11.516750	3.901980	-0.091955
1239	6.1900e-01	-9.4874	-87.608984	0.000919	9.193195	3.114739	-0.073402
1240	6.1950e-01	-9.5195	-87.919533	0.000778	7.778857	2.635548	-0.062110
1241	6.2000e-01	-9.5644	-88.193784	0.000687	6.869640	2.327497	-0.054850
1242	6.2050e-01	-9.5885	-88.701954	0.001273	12.729039	4.312715	-0.101634
1243	6.2100e-01	-9.6286	-89.012503	0.000778	7.778857	2.635548	-0.062110
1244	6.2150e-01	-9.6783	-89.189959	0.000445	4.445061	1.506028	-0.035491
1245	6.2200e-01	-9.7072	-89.351283	0.000404	4.040965	1.369116	-0.032265
1246	6.2250e-01	-9.7553	-89.540839	0.000475	4.748134	1.608711	-0.037911
1247	6.2300e-01	-9.7826	-89.875586	0.000839	8.385002	2.840916	-0.066949
1248	6.2350e-01	-9.8420	-90.339392	0.001162	11.617774	3.936208	-0.092761
1249	6.2400e-01	-9.8773	-90.605577	0.000667	6.667592	2.259041	-0.053237
1250	6.2450e-01	-9.9158	-91.008887	0.001010	10.102412	3.422790	-0.080662
1251	6.2500e-01	-9.9575	-91.194409	0.000465	4.647110	1.574483	-0.037105
1252	6.2550e-01	-9.9944	-91.379932	0.000465	4.647110	1.574483	-0.037105
1253	6.2600e-01	-10.0441	-91.888102	0.001273	12.729039	4.312715	-0.101634
1254	6.2650e-01	-10.0794	-92.053459	0.000414	4.141989	1.403344	-0.033071
1255	6.2700e-01	-10.1179	-92.355941	0.000758	7.576809	2.567092	-0.060496
1256	6.2750e-01	-10.1500	-92.735053	0.000950	9.496267	3.217422	-0.075822
1257	6.2800e-01	-10.1933	-93.271455	0.001344	13.436208	4.552311	-0.107280
1258	6.2850e-01	-10.2350	-93.303720	0.000081	0.808193	0.273823	-0.006453
1259	6.2900e-01	-10.2719	-93.606202	0.000758	7.576809	2.567092	-0.060496
1260	6.2950e-01	-10.3152	-93.924817	0.000798	7.980906	2.704004	-0.063723
1261	6.3000e-01	-10.3585	-94.203101	0.000697	6.970664	2.361725	-0.055657
1262	6.3050e-01	-10.3874	-94.622543	0.001051	10.506509	3.559701	-0.083888
1263	6.3100e-01	-10.4243	-95.033919	0.001030	10.304460	3.491246	-0.082275
1264	6.3150e-01	-10.4628	-95.384798	0.000879	8.789099	2.977827	-0.070176
1265	6.3200e-01	-10.5109	-95.586453	0.000505	5.051206	1.711395	-0.040331
1266	6.3250e-01	-10.5559	-95.868770	0.000707	7.071688	2.395953	-0.056463
1267	6.3300e-01	-10.5944	-96.118822	0.000626	6.263496	2.122130	-0.050010
1268	6.3350e-01	-10.6296	-96.328544	0.000525	5.253254	1.779851	-0.041944
1269	6.3400e-01	-10.6778	-96.622960	0.000737	7.374761	2.498637	-0.058883
1270	6.3450e-01	-10.7163	-96.893177	0.000677	6.768616	2.293269	-0.054044
1271	6.3500e-01	-10.7532	-97.280355	0.000970	9.698316	3.285878	-0.077435
1272	6.3550e-01	-10.7981	-97.615102	0.000839	8.385002	2.840916	-0.066949
1273	6.3600e-01	-10.8430	-97.974048	0.000899	8.991147	3.046283	-0.071789
1274	6.3650e-01	-10.8719	-98.260398	0.000717	7.172713	2.430181	-0.057270
1275	6.3700e-01	-10.9152	-98.510450	0.000626	6.263496	2.122130	-0.050010
1276	6.3750e-01	-10.9489	-98.780668	0.000677	6.768616	2.293269	-0.054044
1277	6.3800e-01	-10.9922	-99.062984	0.000707	7.071688	2.395953	-0.056463
1278	6.3850e-01	-11.0419	-99.091216	0.000071	0.707169	0.239595	-0.005646
1279	6.3900e-01	-11.0756	-99.365467	0.000687	6.869640	2.327497	-0.054850
1280	6.3950e-01	-11.1173	-100.002696	0.001596	15.961811	5.408008	-0.127446
1281	6.4000e-01	-11.1526	-100.172087	0.000424	4.243013	1.437572	-0.033878
1282	6.4050e-01	-11.1959	-100.522966	0.000879	8.789099	2.977827	-0.070176
1283	6.4100e-01	-11.2344	-100.821415	0.000748	7.475785	2.532865	-0.059690
1284	6.4150e-01	-11.2762	-101.293288	0.001182	11.819822	4.004664	-0.094375
1285	6.4200e-01	-11.3227	-101.482844	0.000475	4.748134	1.608711	-0.037911
1286	6.4250e-01	-11.3628	-101.543340	0.000152	1.515362	0.513418	-0.012099
1287	6.4300e-01	-11.3965	-101.995047	0.001131	11.314702	3.833525	-0.090341
1288	6.4350e-01	-11.4398	-102.341894	0.000869	8.688074	2.943599	-0.069369
1289	6.4400e-01	-11.4703	-102.595979	0.000636	6.364520	2.156358	-0.050817
1290	6.4450e-01	-11.5136	-102.918627	0.000808	8.081930	2.738232	-0.064530
1291	6.4500e-01	-11.5521	-103.063818	0.000364	3.636868	1.232204	-0.029038
1292	6.4550e-01	-11.5970	-103.483260	0.001051	10.506509	3.559701	-0.083888
1293	6.4600e-01	-11.6355	-103.632485	0.000374	3.737892	1.266432	-0.029845
1294	6.4650e-01	-11.6708	-104.104358	0.001182	11.819822	4.004664	-0.094375
1295	6.4700e-01	-11.7093	-104.547999	0.001111	11.112653	3.765069	-0.088728
1296	6.4750e-01	-11.7574	-104.640760	0.000232	2.323555	0.787242	-0.018552
1297	6.4800e-01	-11.7927	-105.213460	0.001435	14.345425	4.860362	-0.114540
1298	6.4850e-01	-11.8408	-105.177162	-0.000091	-0.909217	-0.308051	0.007260
1299	6.4900e-01	-11.8649	-105.544174	0.000919	9.193195	3.114739	-0.073402
1300	6.4950e-01	-11.9162	-105.911186	0.000919	9.193195	3.114739	-0.073402
1301	6.5000e-01	-11.9531	-105.895053	-0.000040	-0.404096	-0.136912	0.003226
1302	6.5050e-01	-11.9916	-106.290297	0.000990	9.900364	3.354334	-0.079049
1303	6.5100e-01	-12.0269	-106.762170	0.001182	11.819822	4.004664	-0.094375
1304	6.5150e-01	-12.0638	-106.903328	0.000354	3.535844	1.197976	-0.028232
1305	6.5200e-01	-12.1168	-107.209844	0.000768	7.677833	2.601320	-0.061303
1306	6.5250e-01	-12.1553	-107.564756	0.000889	8.890123	3.012055	-0.070983
1307	6.5300e-01	-12.1954	-107.774477	0.000525	5.253254	1.779851	-0.041944
1308	6.5350e-01	-12.2403	-108.157622	0.000960	9.597291	3.251650	-0.076629
1309	6.5400e-01	-12.2740	-108.310880	0.000384	3.838917	1.300660	-0.030652
1310	6.5450e-01	-12.3173	-108.641594	0.000828	8.283978	2.806688	-0.066143
1311	6.5500e-01	-12.3574	-108.964241	0.000808	8.081930	2.738232	-0.064530
1312	6.5550e-01	-12.3895	-109.319154	0.000889	8.890123	3.012055	-0.070983
1313	6.5600e-01	-12.4376	-109.629703	0.000778	7.778857	2.635548	-0.062110
1314	6.5650e-01	-12.4761	-109.766828	0.000343	3.434820	1.163749	-0.027425
1315	6.5700e-01	-12.5114	-109.916053	0.000374	3.737892	1.266432	-0.029845
1316	6.5750e-01	-12.5531	-110.400025	0.001212	12.122895	4.107348	-0.096794
1317	6.5800e-01	-12.5948	-110.795268	0.000990	9.900364	3.354334	-0.079049
1318	6.5850e-01	-12.6253	-111.033221	0.000596	5.960423	2.019446	-0.047591
1319	6.5900e-01	-12.6670	-111.267141	0.000586	5.859399	1.985218	-0.046784
1320	6.5950e-01	-12.7184	-111.666418	0.001000	10.001388	3.388562	-0.079855
1321	6.6000e-01	-12.7585	-111.888238	0.000556	5.556327	1.882534	-0.044364
1322	6.6050e-01	-12.7873	-112.138290	0.000626	6.263496	2.122130	-0.050010
1323	6.6100e-01	-12.8290	-112.473037	0.000839	8.385002	2.840916	-0.066949
1324	6.6150e-01	-12.8804	-112.932811	0.001152	11.516750	3.901980	-0.091955
1325	6.6200e-01	-12.9157	-112.969108	0.000091	0.909217	0.308051	-0.007260
1326	6.6250e-01	-12.9702	-113.090101	0.000303	3.030724	1.026837	-0.024199
1327	6.6300e-01	-13.0007	-113.457113	0.000919	9.193195	3.114739	-0.073402
1328	6.6350e-01	-13.0344	-113.880589	0.001061	10.607533	3.593929	-0.084695
1329	6.6400e-01	-13.0761	-113.969317	0.000222	2.222531	0.753014	-0.017746
1330	6.6450e-01	-13.1082	-114.344395	0.000940	9.395243	3.183195	-0.075016
1331	6.6500e-01	-13.1563	-114.489587	0.000364	3.636868	1.232204	-0.029038
1332	6.6550e-01	-13.1932	-114.771903	0.000707	7.071688	2.395953	-0.056463
1333	6.6600e-01	-13.2317	-114.949360	0.000445	4.445061	1.506028	-0.035491
1334	6.6650e-01	-13.2670	-115.610788	0.001657	16.567956	5.613375	-0.132286
1335	6.6700e-01	-13.3087	-115.856807	0.000616	6.162471	2.087902	-0.049204
1336	6.6750e-01	-13.3440	-116.090727	0.000586	5.859399	1.985218	-0.046784
1337	6.6800e-01	-13.3921	-116.151223	0.000152	1.515362	0.513418	-0.012099
1338	6.6850e-01	-13.4226	-116.566632	0.001041	10.405484	3.525474	-0.083082
1339	6.6900e-01	-13.4756	-116.857015	0.000727	7.273737	2.464409	-0.058077
1340	6.6950e-01	-13.5044	-117.316789	0.001152	11.516750	3.901980	-0.091955
1341	6.7000e-01	-13.5477	-117.566841	0.000626	6.263496	2.122130	-0.050010
1342	6.7050e-01	-13.5975	-117.776562	0.000525	5.253254	1.779851	-0.041944
1343	6.7100e-01	-13.6328	-118.087111	0.000778	7.778857	2.635548	-0.062110
1344	6.7150e-01	-13.6761	-118.337163	0.000626	6.263496	2.122130	-0.050010
1345	6.7200e-01	-13.7178	-118.526718	0.000475	4.748134	1.608711	-0.037911
1346	6.7250e-01	-13.7499	-118.857432	0.000828	8.283978	2.806688	-0.066143
1347	6.7300e-01	-13.7932	-119.204279	0.000869	8.688074	2.943599	-0.069369
1348	6.7350e-01	-13.8285	-119.474496	0.000677	6.768616	2.293269	-0.054044
1349	6.7400e-01	-13.8718	-119.776979	0.000758	7.576809	2.567092	-0.060496
1350	6.7450e-01	-13.9119	-120.067362	0.000727	7.273737	2.464409	-0.058077
1351	6.7500e-01	-13.9504	-120.244818	0.000445	4.445061	1.506028	-0.035491
1352	6.7550e-01	-13.9921	-120.377911	0.000333	3.333796	1.129521	-0.026618
1353	6.7600e-01	-14.0354	-120.752989	0.000940	9.395243	3.183195	-0.075016
1354	6.7650e-01	-14.0723	-121.083703	0.000828	8.283978	2.806688	-0.066143
1355	6.7700e-01	-14.1092	-121.349887	0.000667	6.667592	2.259041	-0.053237
1356	6.7750e-01	-14.1461	-121.652370	0.000758	7.576809	2.567092	-0.060496
1357	6.7800e-01	-14.1959	-121.793528	0.000354	3.535844	1.197976	-0.028232
1358	6.7850e-01	-14.2424	-122.096011	0.000758	7.576809	2.567092	-0.060496
1359	6.7900e-01	-14.2729	-122.386394	0.000727	7.273737	2.464409	-0.058077
1360	6.7950e-01	-14.3178	-122.640479	0.000636	6.364520	2.156358	-0.050817
1361	6.8000e-01	-14.3515	-122.781637	0.000354	3.535844	1.197976	-0.028232
1362	6.8050e-01	-14.3948	-123.156715	0.000940	9.395243	3.183195	-0.075016
1363	6.8100e-01	-14.4301	-123.523727	0.000919	9.193195	3.114739	-0.073402
1364	6.8150e-01	-14.4718	-123.890739	0.000919	9.193195	3.114739	-0.073402
1365	6.8200e-01	-14.5119	-124.019799	0.000323	3.232772	1.095293	-0.025812
1366	6.8250e-01	-14.5520	-124.181123	0.000404	4.040965	1.369116	-0.032265
1367	6.8300e-01	-14.5889	-124.532002	0.000879	8.789099	2.977827	-0.070176
1368	6.8350e-01	-14.6370	-124.838518	0.000768	7.677833	2.601320	-0.061303
1369	6.8400e-01	-14.6755	-125.177298	0.000849	8.486026	2.875143	-0.067756
1370	6.8450e-01	-14.7108	-125.382986	0.000515	5.152230	1.745623	-0.041138
1371	6.8500e-01	-14.7557	-125.641104	0.000647	6.465544	2.190586	-0.051624
1372	6.8550e-01	-14.7942	-125.919388	0.000697	6.970664	2.361725	-0.055657
1373	6.8600e-01	-14.8327	-126.153308	0.000586	5.859399	1.985218	-0.046784
1374	6.8650e-01	-14.8761	-126.492088	0.000849	8.486026	2.875143	-0.067756
1375	6.8700e-01	-14.9097	-126.774405	0.000707	7.071688	2.395953	-0.056463
1376	6.8750e-01	-14.9498	-127.032523	0.000647	6.465544	2.190586	-0.051624
1377	6.8800e-01	-14.9948	-127.310807	0.000697	6.970664	2.361725	-0.055657
1378	6.8850e-01	-15.0365	-127.730249	0.001051	10.506509	3.559701	-0.083888
1379	6.8900e-01	-15.0718	-127.762514	0.000081	0.808193	0.273823	-0.006453
1380	6.8950e-01	-15.1231	-128.149692	0.000970	9.698316	3.285878	-0.077435
1381	6.9000e-01	-15.1520	-128.403777	0.000636	6.364520	2.156358	-0.050817
1382	6.9050e-01	-15.1953	-128.665928	0.000657	6.566568	2.224813	-0.052430
1383	6.9100e-01	-15.2338	-129.065205	0.001000	10.001388	3.388562	-0.079855
1384	6.9150e-01	-15.2835	-129.170065	0.000263	2.626627	0.889925	-0.020972
1385	6.9200e-01	-15.3076	-129.476581	0.000768	7.677833	2.601320	-0.061303
1386	6.9250e-01	-15.3653	-129.847626	0.000929	9.294219	3.148967	-0.074209
1387	6.9300e-01	-15.3862	-130.025082	0.000445	4.445061	1.506028	-0.035491
1388	6.9350e-01	-15.4375	-130.238837	0.000535	5.354278	1.814079	-0.042751
1389	6.9400e-01	-15.4760	-130.593749	0.000889	8.890123	3.012055	-0.070983
1390	6.9450e-01	-15.5113	-130.912364	0.000798	7.980906	2.704004	-0.063723
1391	6.9500e-01	-15.5514	-131.158383	0.000616	6.162471	2.087902	-0.049204
1392	6.9550e-01	-15.5851	-131.533461	0.000940	9.395243	3.183195	-0.075016
1393	6.9600e-01	-15.6332	-131.565726	0.000081	0.808193	0.273823	-0.006453
1394	6.9650e-01	-15.6669	-131.807712	0.000606	6.061447	2.053674	-0.048397
1395	6.9700e-01	-15.7103	-132.198923	0.000980	9.799340	3.320106	-0.078242
1396	6.9750e-01	-15.7407	-132.392511	0.000485	4.849158	1.642939	-0.038718
1397	6.9800e-01	-15.7953	-132.715159	0.000808	8.081930	2.738232	-0.064530
1398	6.9850e-01	-15.8370	-132.997476	0.000707	7.071688	2.395953	-0.056463
1399	6.9900e-01	-15.8739	-133.138635	0.000354	3.535844	1.197976	-0.028232
1400	6.9950e-01	-15.9156	-133.521779	0.000960	9.597291	3.251650	-0.076629
1401	7.0000e-01	-15.9509	-133.828294	0.000768	7.677833	2.601320	-0.061303
1402	7.0050e-01	-15.9878	-134.038015	0.000525	5.253254	1.779851	-0.041944
1403	7.0100e-01	-16.0311	-134.465524	0.001071	10.708557	3.628157	-0.085502
1404	7.0150e-01	-16.0664	-134.723642	0.000647	6.465544	2.190586	-0.051624
1405	7.0200e-01	-16.1145	-135.005959	0.000707	7.071688	2.395953	-0.056463
1406	7.0250e-01	-16.1514	-135.026125	0.000051	0.505121	0.171139	-0.004033
1407	7.0300e-01	-16.1915	-135.256011	0.000576	5.758375	1.950990	-0.045977
1408	7.0350e-01	-16.2332	-135.606891	0.000879	8.789099	2.977827	-0.070176
1409	7.0400e-01	-16.2685	-135.969870	0.000909	9.092171	3.080511	-0.072596
1410	7.0450e-01	-16.3199	-136.070697	0.000253	2.525603	0.855697	-0.020165
1411	7.0500e-01	-16.3503	-136.429643	0.000899	8.991147	3.046283	-0.071789
1412	7.0550e-01	-16.3985	-136.748258	0.000798	7.980906	2.704004	-0.063723
1413	7.0600e-01	-16.4306	-137.070906	0.000808	8.081930	2.738232	-0.064530
1414	7.0650e-01	-16.4787	-137.042674	-0.000071	-0.707169	-0.239595	0.005646
1415	7.0700e-01	-16.5188	-137.333057	0.000727	7.273737	2.464409	-0.058077
1416	7.0750e-01	-16.5525	-137.877525	0.001364	13.638256	4.620766	-0.108894
1417	7.0800e-01	-16.5894	-138.163875	0.000717	7.172713	2.430181	-0.057270
1418	7.0850e-01	-16.6279	-138.321166	0.000394	3.939941	1.334888	-0.031458
1419	7.0900e-01	-16.6776	-138.301001	-0.000051	-0.505121	-0.171139	0.004033
1420	7.0950e-01	-16.7065	-138.849502	0.001374	13.739280	4.654994	-0.109700
1421	7.1000e-01	-16.7466	-138.942263	0.000232	2.323555	0.787242	-0.018552
1422	7.1050e-01	-16.7899	-139.071323	0.000323	3.232772	1.095293	-0.025812
1423	7.1100e-01	-16.8300	-139.458500	0.000970	9.698316	3.285878	-0.077435
1424	7.1150e-01	-16.8669	-139.781148	0.000808	8.081930	2.738232	-0.064530
1425	7.1200e-01	-16.9086	-140.192524	0.001030	10.304460	3.491246	-0.082275
1426	7.1250e-01	-16.9567	-140.285285	0.000232	2.323555	0.787242	-0.018552
1427	7.1300e-01	-17.0001	-140.531304	0.000616	6.162471	2.087902	-0.049204
1428	7.1350e-01	-17.0402	-140.809588	0.000697	6.970664	2.361725	-0.055657
1429	7.1400e-01	-17.0706	-141.015276	0.000515	5.152230	1.745623	-0.041138
1430	7.1450e-01	-17.1140	-141.152401	0.000343	3.434820	1.163749	-0.027425
1431	7.1500e-01	-17.1573	-141.583943	0.001081	10.809581	3.662385	-0.086308
1432	7.1550e-01	-17.1926	-141.979187	0.000990	9.900364	3.354334	-0.079049
1433	7.1600e-01	-17.2327	-142.104213	0.000313	3.131748	1.061065	-0.025005
1434	7.1650e-01	-17.2792	-142.241338	0.000343	3.434820	1.163749	-0.027425
1435	7.1700e-01	-17.3081	-142.672880	0.001081	10.809581	3.662385	-0.086308
1436	7.1750e-01	-17.3466	-143.088289	0.001041	10.405484	3.525474	-0.083082
1437	7.1800e-01	-17.3979	-143.201216	0.000283	2.828675	0.958381	-0.022585
1438	7.1850e-01	-17.4396	-143.326242	0.000313	3.131748	1.061065	-0.025005
1439	7.1900e-01	-17.4669	-143.652923	0.000818	8.182954	2.772460	-0.065336
1440	7.1950e-01	-17.5102	-144.015901	0.000909	9.092171	3.080511	-0.072596
1441	7.2000e-01	-17.5471	-144.153027	0.000343	3.434820	1.163749	-0.027425
1442	7.2050e-01	-17.6032	-144.265954	0.000283	2.828675	0.958381	-0.022585
1443	7.2100e-01	-17.6337	-144.802356	0.001344	13.436208	4.552311	-0.107280
1444	7.2150e-01	-17.6802	-145.012077	0.000525	5.253254	1.779851	-0.041944
1445	7.2200e-01	-17.7075	-145.403287	0.000980	9.799340	3.320106	-0.078242
1446	7.2250e-01	-17.7589	-145.560578	0.000394	3.939941	1.334888	-0.031458
1447	7.2300e-01	-17.7925	-145.713836	0.000384	3.838917	1.300660	-0.030652
1448	7.2350e-01	-17.8278	-146.129245	0.001041	10.405484	3.525474	-0.083082
1449	7.2400e-01	-17.8792	-146.399463	0.000677	6.768616	2.293269	-0.054044
1450	7.2450e-01	-17.9129	-146.734210	0.000839	8.385002	2.840916	-0.066949
1451	7.2500e-01	-17.9417	-146.968130	0.000586	5.859399	1.985218	-0.046784
1452	7.2550e-01	-18.0027	-147.113321	0.000364	3.636868	1.232204	-0.029038
1453	7.2600e-01	-18.0332	-147.351274	0.000596	5.960423	2.019446	-0.047591
1454	7.2650e-01	-18.0765	-147.556962	0.000515	5.152230	1.745623	-0.041138
1455	7.2700e-01	-18.1134	-147.811047	0.000636	6.364520	2.156358	-0.050817
1456	7.2750e-01	-18.1503	-148.057066	0.000616	6.162471	2.087902	-0.049204
1457	7.2800e-01	-18.2032	-148.504740	0.001121	11.213677	3.799297	-0.089535
1458	7.2850e-01	-18.2257	-148.795123	0.000727	7.273737	2.464409	-0.058077
1459	7.2900e-01	-18.2690	-149.097606	0.000758	7.576809	2.567092	-0.060496
1460	7.2950e-01	-18.3171	-149.198433	0.000253	2.525603	0.855697	-0.020165
1461	7.3000e-01	-18.3540	-149.549313	0.000879	8.789099	2.977827	-0.070176
1462	7.3050e-01	-18.3909	-149.787266	0.000596	5.960423	2.019446	-0.047591
1463	7.3100e-01	-18.4326	-150.287370	0.001253	12.526991	4.244259	-0.100021
1464	7.3150e-01	-18.4679	-150.396263	0.000273	2.727651	0.924153	-0.021779
1465	7.3200e-01	-18.5064	-150.605985	0.000525	5.253254	1.779851	-0.041944
1466	7.3250e-01	-18.5497	-150.843937	0.000596	5.960423	2.019446	-0.047591
1467	7.3300e-01	-18.5947	-151.089956	0.000616	6.162471	2.087902	-0.049204
1468	7.3350e-01	-18.6348	-151.436803	0.000869	8.688074	2.943599	-0.069369
1469	7.3400e-01	-18.6749	-151.473101	0.000091	0.909217	0.308051	-0.007260
1470	7.3450e-01	-18.7102	-151.868344	0.000990	9.900364	3.354334	-0.079049
1471	7.3500e-01	-18.7535	-152.086132	0.000546	5.455303	1.848307	-0.043557
1472	7.3550e-01	-18.7968	-152.445078	0.000899	8.991147	3.046283	-0.071789
1473	7.3600e-01	-18.8289	-152.848387	0.001010	10.102412	3.422790	-0.080662
1474	7.3650e-01	-18.8738	-153.086340	0.000596	5.960423	2.019446	-0.047591
1475	7.3700e-01	-18.9091	-153.199267	0.000283	2.828675	0.958381	-0.022585
1476	7.3750e-01	-18.9460	-153.525948	0.000818	8.182954	2.772460	-0.065336
1477	7.3800e-01	-18.9893	-153.864728	0.000849	8.486026	2.875143	-0.067756
1478	7.3850e-01	-19.0374	-153.832463	-0.000081	-0.808193	-0.273823	0.006453
1479	7.3900e-01	-19.0775	-154.187376	0.000889	8.890123	3.012055	-0.070983
1480	7.3950e-01	-19.1128	-154.635050	0.001121	11.213677	3.799297	-0.089535
1481	7.4000e-01	-19.1513	-154.893168	0.000647	6.465544	2.190586	-0.051624
1482	7.4050e-01	-19.1914	-155.114989	0.000556	5.556327	1.882534	-0.044364
1483	7.4100e-01	-19.2267	-155.381173	0.000667	6.667592	2.259041	-0.053237
1484	7.4150e-01	-19.2700	-155.490067	0.000273	2.727651	0.924153	-0.021779
1485	7.4200e-01	-19.3102	-156.099065	0.001525	15.254642	5.168413	-0.121800
1486	7.4250e-01	-19.3487	-156.393481	0.000737	7.374761	2.498637	-0.058883
1487	7.4300e-01	-19.3904	-156.574970	0.000455	4.546085	1.540255	-0.036298
1488	7.4350e-01	-19.4273	-156.550772	-0.000061	-0.606145	-0.205367	0.004840
1489	7.4400e-01	-19.4738	-156.772592	0.000556	5.556327	1.882534	-0.044364
1490	7.4450e-01	-19.5107	-157.248498	0.001192	11.920846	4.038892	-0.095181
1491	7.4500e-01	-19.5508	-157.397723	0.000374	3.737892	1.266432	-0.029845
1492	7.4550e-01	-19.5909	-157.700205	0.000758	7.576809	2.567092	-0.060496
1493	7.4600e-01	-19.6278	-158.184177	0.001212	12.122895	4.107348	-0.096794
1494	7.4650e-01	-19.6695	-158.184177	-0.000000	-0.000000	-0.000000	0.000000
1495	7.4700e-01	-19.7080	-158.547156	0.000909	9.092171	3.080511	-0.072596
1496	7.4750e-01	-19.7529	-158.922234	0.000940	9.395243	3.183195	-0.075016
1497	7.4800e-01	-19.7882	-159.043227	0.000303	3.030724	1.026837	-0.024199
1498	7.4850e-01	-19.8363	-159.196485	0.000384	3.838917	1.300660	-0.030652
1499	7.4900e-01	-19.8684	-159.515099	0.000798	7.980906	2.704004	-0.063723
1500	7.4950e-01	-19.9133	-159.870012	0.000889	8.890123	3.012055	-0.070983
1501	7.5000e-01	-19.9518	-160.095866	0.000566	5.657351	1.916762	-0.045171
1502	7.5050e-01	-19.9583	-160.358017	0.000657	6.566568	2.224813	-0.052430
1503	7.5100e-01	-19.9358	-160.329785	0.000071	0.707169	0.239595	0.005646
1504	7.5150e-01	-19.9005	-160.305587	0.000061	0.606145	0.205367	0.004840
1505	7.5200e-01	-19.8620	-159.894211	0.001030	10.304460	3.491246	0.082275
1506	7.5250e-01	-19.8075	-159.809516	0.000212	2.121507	0.718786	0.016939
1507	7.5300e-01	-19.7754	-159.712721	0.000242	2.424579	0.821470	0.019359
1508	7.5350e-01	-19.7433	-159.632059	0.000202	2.020482	0.684558	0.016132
1509	7.5400e-01	-19.6968	-159.273113	0.000899	8.991147	3.046283	0.071789
1510	7.5450e-01	-19.6647	-159.127922	0.000364	3.636868	1.232204	0.029038
1511	7.5500e-01	-19.6166	-158.894002	0.000586	5.859399	1.985218	0.046784
1512	7.5550e-01	-19.5893	-158.914168	-0.000051	-0.505121	-0.171139	-0.004033
1513	7.5600e-01	-19.5363	-158.930300	-0.000040	-0.404096	-0.136912	-0.003226
1514	7.5650e-01	-19.4930	-158.845605	0.000212	2.121507	0.718786	0.016939
1515	7.5700e-01	-19.4577	-158.543123	0.000758	7.576809	2.567092	0.060496
1516	7.5750e-01	-19.4144	-158.188210	0.000889	8.890123	3.012055	0.070983
1517	7.5800e-01	-19.3823	-158.043018	0.000364	3.636868	1.232204	0.029038
1518	7.5850e-01	-19.3454	-157.361425	0.001707	17.073076	5.784515	0.136319
1519	7.5900e-01	-19.2925	-157.571146	-0.000525	-5.253254	-1.779851	-0.041944
1520	7.5950e-01	-19.2700	-157.421921	0.000374	3.737892	1.266432	0.029845
1521	7.6000e-01	-19.2203	-157.530815	-0.000273	-2.727651	-0.924153	-0.021779
1522	7.6050e-01	-19.1818	-157.296895	0.000586	5.859399	1.985218	0.046784
1523	7.6100e-01	-19.1417	-157.075075	0.000556	5.556327	1.882534	0.044364
1524	7.6150e-01	-19.1016	-156.736294	0.000849	8.486026	2.875143	0.067756
1525	7.6200e-01	-19.0647	-156.687897	0.000121	1.212289	0.410735	0.009679
1526	7.6250e-01	-19.0182	-156.583037	0.000263	2.626627	0.889925	0.020972
1527	7.6300e-01	-18.9829	-156.272488	0.000778	7.778857	2.635548	0.062110
1528	7.6350e-01	-18.9492	-156.115197	0.000394	3.939941	1.334888	0.031458
1529	7.6400e-01	-18.9059	-155.885311	0.000576	5.758375	1.950990	0.045977
1530	7.6450e-01	-18.8626	-155.574762	0.000778	7.778857	2.635548	0.062110
1531	7.6500e-01	-18.8289	-155.477968	0.000242	2.424579	0.821470	0.019359
1532	7.6550e-01	-18.7840	-155.336809	0.000354	3.535844	1.197976	0.028232
1533	7.6600e-01	-18.7503	-154.949632	0.000970	9.698316	3.285878	0.077435
1534	7.6650e-01	-18.7021	-155.207750	-0.000647	-6.465544	-2.190586	-0.051624
1535	7.6700e-01	-18.6652	-154.848804	0.000899	8.991147	3.046283	0.071789
1536	7.6750e-01	-18.6235	-154.679414	0.000424	4.243013	1.437572	0.033878
1537	7.6800e-01	-18.5834	-154.272071	0.001020	10.203436	3.457018	0.081469
1538	7.6850e-01	-18.5513	-154.138979	0.000333	3.333796	1.129521	0.026618
1539	7.6900e-01	-18.4984	-154.005887	0.000333	3.333796	1.129521	0.026618
1540	7.6950e-01	-18.4663	-153.901026	0.000263	2.626627	0.889925	0.020972
1541	7.7000e-01	-18.4246	-153.655007	0.000616	6.162471	2.087902	0.049204
1542	7.7050e-01	-18.3765	-153.376723	0.000697	6.970664	2.361725	0.055657
1543	7.7100e-01	-18.3428	-153.138770	0.000596	5.960423	2.019446	0.047591
1544	7.7150e-01	-18.2995	-153.046009	0.000232	2.323555	0.787242	0.018552
1545	7.7200e-01	-18.2658	-152.820156	0.000566	5.657351	1.916762	0.045171
1546	7.7250e-01	-18.2257	-152.670931	0.000374	3.737892	1.266432	0.029845
1547	7.7300e-01	-18.1840	-152.509607	0.000404	4.040965	1.369116	0.032265
1548	7.7350e-01	-18.1407	-152.090165	0.001051	10.506509	3.559701	0.083888
1549	7.7400e-01	-18.0957	-151.940940	0.000374	3.737892	1.266432	0.029845
1550	7.7450e-01	-18.0621	-151.553763	0.000970	9.698316	3.285878	0.077435
1551	7.7500e-01	-18.0203	-151.513432	0.000101	1.010241	0.342279	0.008066
1552	7.7550e-01	-17.9818	-151.340009	0.000434	4.344037	1.471800	0.034685
1553	7.7600e-01	-17.9337	-151.085923	0.000636	6.364520	2.156358	0.050817
1554	7.7650e-01	-17.8936	-151.174651	-0.000222	-2.222531	-0.753014	-0.017746
1555	7.7700e-01	-17.8615	-150.791507	0.000960	9.597291	3.251650	0.076629
1556	7.7750e-01	-17.8230	-150.690680	0.000253	2.525603	0.855697	0.020165
1557	7.7800e-01	-17.7701	-150.331734	0.000899	8.991147	3.046283	0.071789
1558	7.7850e-01	-17.7364	-150.045384	0.000717	7.172713	2.430181	0.057270
1559	7.7900e-01	-17.7059	-149.948589	0.000242	2.424579	0.821470	0.019359
1560	7.7950e-01	-17.6642	-149.819530	0.000323	3.232772	1.095293	0.025812
1561	7.8000e-01	-17.6145	-149.617875	0.000505	5.051206	1.711395	0.040331
1562	7.8050e-01	-17.5840	-149.400088	0.000546	5.455303	1.848307	0.043557
1563	7.8100e-01	-17.5327	-149.271029	0.000323	3.232772	1.095293	0.025812
1564	7.8150e-01	-17.5086	-149.045175	0.000566	5.657351	1.916762	0.045171
1565	7.8200e-01	-17.4621	-148.690263	0.000889	8.890123	3.012055	0.070983
1566	7.8250e-01	-17.4204	-148.537005	0.000384	3.838917	1.300660	0.030652
1567	7.8300e-01	-17.3851	-148.234523	0.000758	7.576809	2.567092	0.060496
1568	7.8350e-01	-17.3402	-147.923974	0.000778	7.778857	2.635548	0.062110
1569	7.8400e-01	-17.3017	-147.875577	0.000121	1.212289	0.410735	0.009679
1570	7.8450e-01	-17.2615	-147.669889	0.000515	5.152230	1.745623	0.041138
1571	7.8500e-01	-17.2166	-147.403704	0.000667	6.667592	2.259041	0.053237
1572	7.8550e-01	-17.1861	-147.258513	0.000364	3.636868	1.232204	0.029038
1573	7.8600e-01	-17.1509	-146.879401	0.000950	9.496267	3.217422	0.075822
1574	7.8650e-01	-17.0995	-146.863269	0.000040	0.404096	0.136912	0.003226
1575	7.8700e-01	-17.0674	-146.609184	0.000636	6.364520	2.156358	0.050817
1576	7.8750e-01	-17.0177	-146.476092	0.000333	3.333796	1.129521	0.026618
1577	7.8800e-01	-16.9712	-146.226039	0.000626	6.263496	2.122130	0.050010
1578	7.8850e-01	-16.9423	-146.028418	0.000495	4.950182	1.677167	0.039524
1579	7.8900e-01	-16.8974	-145.725935	0.000758	7.576809	2.567092	0.060496
1580	7.8950e-01	-16.8541	-145.564611	0.000404	4.040965	1.369116	0.032265
1581	7.9000e-01	-16.8172	-145.213732	0.000879	8.789099	2.977827	0.070176
1582	7.9050e-01	-16.7883	-145.181467	0.000081	0.808193	0.273823	0.006453
1583	7.9100e-01	-16.7305	-144.766058	0.001041	10.405484	3.525474	0.083082
1584	7.9150e-01	-16.7065	-144.507939	0.000647	6.465544	2.190586	0.051624
1585	7.9200e-01	-16.6584	-144.524072	-0.000040	-0.404096	-0.136912	-0.003226
1586	7.9250e-01	-16.6215	-144.197391	0.000818	8.182954	2.772460	0.065336
1587	7.9300e-01	-16.5862	-143.907008	0.000727	7.273737	2.464409	0.058077
1588	7.9350e-01	-16.5380	-143.677121	0.000576	5.758375	1.950990	0.045977
1589	7.9400e-01	-16.5027	-143.644856	0.000081	0.808193	0.273823	0.006453
1590	7.9450e-01	-16.4626	-143.584360	0.000152	1.515362	0.513418	0.012099
1591	7.9500e-01	-16.4225	-143.068123	0.001293	12.931087	4.381171	0.103247
1592	7.9550e-01	-16.3792	-142.805972	0.000657	6.566568	2.224813	0.052430
1593	7.9600e-01	-16.3407	-142.664813	0.000354	3.535844	1.197976	0.028232
1594	7.9650e-01	-16.2942	-142.479291	0.000465	4.647110	1.574483	0.037105
1595	7.9700e-01	-16.2621	-142.362331	0.000293	2.929700	0.992609	0.023392
1596	7.9750e-01	-16.2188	-142.063882	0.000748	7.475785	2.532865	0.059690
1597	7.9800e-01	-16.1755	-141.846094	0.000546	5.455303	1.848307	0.043557
1598	7.9850e-01	-16.1402	-141.394387	0.001131	11.314702	3.833525	0.090341
1599	7.9900e-01	-16.1017	-141.418586	-0.000061	-0.606145	-0.205367	-0.004840
1600	7.9950e-01	-16.0600	-141.091905	0.000818	8.182954	2.772460	0.065336
1601	8.0000e-01	-16.0263	-140.841853	0.000626	6.263496	2.122130	0.050010
1602	8.0050e-01	-15.9814	-140.708761	0.000333	3.333796	1.129521	0.026618
1603	8.0100e-01	-15.9429	-140.527271	0.000455	4.546085	1.540255	0.036298
1604	8.0150e-01	-15.9044	-140.216723	0.000778	7.778857	2.635548	0.062110
1605	8.0200e-01	-15.8610	-140.047332	0.000424	4.243013	1.437572	0.033878
1606	8.0250e-01	-15.8177	-139.841644	0.000515	5.152230	1.745623	0.041138
1607	8.0300e-01	-15.7857	-139.583526	0.000647	6.465544	2.190586	0.051624
1608	8.0350e-01	-15.7391	-139.099554	0.001212	12.122895	4.107348	0.096794
1609	8.0400e-01	-15.6990	-139.063256	0.000091	0.909217	0.308051	0.007260
1610	8.0450e-01	-15.6525	-138.744642	0.000798	7.980906	2.704004	0.063723
1611	8.0500e-01	-15.6268	-138.631715	0.000283	2.828675	0.958381	0.022585
1612	8.0550e-01	-15.5899	-138.522821	0.000273	2.727651	0.924153	0.021779
1613	8.0600e-01	-15.5466	-138.151776	0.000929	9.294219	3.148967	0.074209
1614	8.0650e-01	-15.4953	-138.103379	0.000121	1.212289	0.410735	0.009679
1615	8.0700e-01	-15.4552	-137.792830	0.000778	7.778857	2.635548	0.062110
1616	8.0750e-01	-15.4199	-137.353223	0.001101	11.011629	3.730841	0.087922
1617	8.0800e-01	-15.3814	-137.183832	0.000424	4.243013	1.437572	0.033878
1618	8.0850e-01	-15.3397	-136.857151	0.000818	8.182954	2.772460	0.065336
1619	8.0900e-01	-15.3012	-136.732125	0.000313	3.131748	1.061065	0.025005
1620	8.0950e-01	-15.2659	-136.421577	0.000778	7.778857	2.635548	0.062110
1621	8.1000e-01	-15.2226	-136.409477	0.000030	0.303072	0.102684	0.002420
1622	8.1050e-01	-15.1728	-136.098929	0.000778	7.778857	2.635548	0.062110
1623	8.1100e-01	-15.1375	-135.969870	0.000323	3.232772	1.095293	0.025812
1624	8.1150e-01	-15.1071	-135.518163	0.001131	11.314702	3.833525	0.090341
1625	8.1200e-01	-15.0477	-135.312475	0.000515	5.152230	1.745623	0.041138
1626	8.1250e-01	-15.0204	-134.989827	0.000808	8.081930	2.738232	0.064530
1627	8.1300e-01	-14.9787	-134.945463	0.000111	1.111265	0.376507	0.008873
1628	8.1350e-01	-14.9402	-134.542153	0.001010	10.102412	3.422790	0.080662
1629	8.1400e-01	-14.8969	-134.445358	0.000242	2.424579	0.821470	0.019359
1630	8.1450e-01	-14.8536	-134.179174	0.000667	6.667592	2.259041	0.053237
1631	8.1500e-01	-14.8279	-133.953320	0.000566	5.657351	1.916762	0.045171
1632	8.1550e-01	-14.7830	-133.731500	0.000556	5.556327	1.882534	0.044364
1633	8.1600e-01	-14.7461	-133.541944	0.000475	4.748134	1.608711	0.037911
1634	8.1650e-01	-14.7076	-133.110403	0.001081	10.809581	3.662385	0.086308
1635	8.1700e-01	-14.6579	-132.920847	0.000475	4.748134	1.608711	0.037911
1636	8.1750e-01	-14.6210	-132.763556	0.000394	3.939941	1.334888	0.031458
1637	8.1800e-01	-14.5841	-132.569968	0.000485	4.849158	1.642939	0.038718
1638	8.1850e-01	-14.5504	-132.206989	0.000909	9.092171	3.080511	0.072596
1639	8.1900e-01	-14.5023	-131.997268	0.000525	5.253254	1.779851	0.041944
1640	8.1950e-01	-14.4590	-131.763348	0.000586	5.859399	1.985218	0.046784
1641	8.2000e-01	-14.4237	-131.658487	0.000263	2.626627	0.889925	0.020972
1642	8.2050e-01	-14.3819	-131.384237	0.000687	6.869640	2.327497	0.054850
1643	8.2100e-01	-14.3402	-131.210813	0.000434	4.344037	1.471800	0.034685
1644	8.2150e-01	-14.3017	-130.722808	0.001222	12.223919	4.141576	0.097601
1645	8.2200e-01	-14.2584	-130.420326	0.000758	7.576809	2.567092	0.060496
1646	8.2250e-01	-14.2215	-130.299333	0.000303	3.030724	1.026837	0.024199
1647	8.2300e-01	-14.1734	-130.198506	0.000253	2.525603	0.855697	0.020165
1648	8.2350e-01	-14.1397	-129.932321	0.000667	6.667592	2.259041	0.053237
1649	8.2400e-01	-14.1092	-129.916189	0.000040	0.404096	0.136912	0.003226
1650	8.2450e-01	-14.0547	-129.484647	0.001081	10.809581	3.662385	0.086308
1651	8.2500e-01	-14.0194	-129.174099	0.000778	7.778857	2.635548	0.062110
1652	8.2550e-01	-13.9761	-128.952278	0.000556	5.556327	1.882534	0.044364
1653	8.2600e-01	-13.9392	-128.682061	0.000677	6.768616	2.293269	0.054044
1654	8.2650e-01	-13.9039	-128.391677	0.000727	7.273737	2.464409	0.058077
1655	8.2700e-01	-13.8574	-128.133559	0.000647	6.465544	2.190586	0.051624
1656	8.2750e-01	-13.8237	-127.964169	0.000424	4.243013	1.437572	0.033878
1657	8.2800e-01	-13.7820	-127.750415	0.000535	5.354278	1.814079	0.042751
1658	8.2850e-01	-13.7386	-127.443899	0.000768	7.677833	2.601320	0.061303
1659	8.2900e-01	-13.6969	-127.008325	0.001091	10.910605	3.696613	0.087115
1660	8.2950e-01	-13.6665	-127.068821	-0.000152	-1.515362	-0.513418	-0.012099
1661	8.3000e-01	-13.6167	-126.830868	0.000596	5.960423	2.019446	0.047591
1662	8.3050e-01	-13.5766	-126.492088	0.000849	8.486026	2.875143	0.067756
1663	8.3100e-01	-13.5317	-125.996017	0.001243	12.425967	4.210032	0.099214
1664	8.3150e-01	-13.5028	-125.814527	0.000455	4.546085	1.540255	0.036298
1665	8.3200e-01	-13.4563	-125.661270	0.000384	3.838917	1.300660	0.030652
1666	8.3250e-01	-13.4194	-125.370887	0.000727	7.273737	2.464409	0.058077
1667	8.3300e-01	-13.3825	-125.157132	0.000535	5.354278	1.814079	0.042751
1668	8.3350e-01	-13.3488	-125.003875	0.000384	3.838917	1.300660	0.030652
1669	8.3400e-01	-13.2943	-124.866749	0.000343	3.434820	1.163749	0.027425
1670	8.3450e-01	-13.2622	-124.564267	0.000758	7.576809	2.567092	0.060496
1671	8.3500e-01	-13.2237	-124.185156	0.000950	9.496267	3.217422	0.075822
1672	8.3550e-01	-13.1788	-123.959302	0.000566	5.657351	1.916762	0.045171
1673	8.3600e-01	-13.1499	-123.515661	0.001111	11.112653	3.765069	0.088728
1674	8.3650e-01	-13.0937	-123.535827	-0.000051	-0.505121	-0.171139	-0.004033
1675	8.3700e-01	-13.0601	-123.293841	0.000606	6.061447	2.053674	0.048397
1676	8.3750e-01	-13.0103	-123.007491	0.000717	7.172713	2.430181	0.057270
1677	8.3800e-01	-12.9734	-122.717108	0.000727	7.273737	2.464409	0.058077
1678	8.3850e-01	-12.9397	-122.628380	0.000222	2.222531	0.753014	0.017746
1679	8.3900e-01	-12.9012	-121.914521	0.001788	17.881269	6.058338	0.142772
1680	8.3950e-01	-12.8531	-121.966951	-0.000131	-1.313314	-0.444963	-0.010486
1681	8.4000e-01	-12.8242	-121.769330	0.000495	4.950182	1.677167	0.039524
1682	8.4050e-01	-12.7761	-121.422483	0.000869	8.688074	2.943599	0.069369
1683	8.4100e-01	-12.7553	-121.011107	0.001030	10.304460	3.491246	0.082275
1684	8.4150e-01	-12.6943	-120.946577	0.000162	1.616386	0.547646	0.012906
1685	8.4200e-01	-12.6702	-120.728790	0.000546	5.455303	1.848307	0.043557
1686	8.4250e-01	-12.6253	-120.466639	0.000657	6.566568	2.224813	0.052430
1687	8.4300e-01	-12.5868	-120.127858	0.000849	8.486026	2.875143	0.067756
1688	8.4350e-01	-12.5419	-119.825376	0.000758	7.576809	2.567092	0.060496
1689	8.4400e-01	-12.5018	-119.631787	0.000485	4.849158	1.642939	0.038718
1690	8.4450e-01	-12.4553	-119.409967	0.000556	5.556327	1.882534	0.044364
1691	8.4500e-01	-12.4344	-119.252676	0.000394	3.939941	1.334888	0.031458
1692	8.4550e-01	-12.3767	-118.809035	0.001111	11.112653	3.765069	0.088728
1693	8.4600e-01	-12.3366	-118.631579	0.000445	4.445061	1.506028	0.035491
1694	8.4650e-01	-12.3125	-118.401692	0.000576	5.758375	1.950990	0.045977
1695	8.4700e-01	-12.2676	-118.349262	0.000131	1.313314	0.444963	0.010486
1696	8.4750e-01	-12.2098	-117.849158	0.001253	12.526991	4.244259	0.100021
1697	8.4800e-01	-12.1729	-117.510377	0.000849	8.486026	2.875143	0.067756
1698	8.4850e-01	-12.1424	-117.268392	0.000606	6.061447	2.053674	0.048397
1699	8.4900e-01	-12.0991	-116.929611	0.000849	8.486026	2.875143	0.067756
1700	8.4950e-01	-12.0622	-116.736022	0.000485	4.849158	1.642939	0.038718
1701	8.5000e-01	-12.0189	-116.707791	0.000071	0.707169	0.239595	0.005646
1702	8.5050e-01	-11.9788	-116.401275	0.000768	7.677833	2.601320	0.061303
1703	8.5100e-01	-11.9499	-116.022164	0.000950	9.496267	3.217422	0.075822
1704	8.5150e-01	-11.8970	-115.860840	0.000404	4.040965	1.369116	0.032265
1705	8.5200e-01	-11.8649	-115.566424	0.000737	7.374761	2.498637	0.058883
1706	8.5250e-01	-11.8200	-115.393001	0.000434	4.344037	1.471800	0.034685
1707	8.5300e-01	-11.7831	-115.159081	0.000586	5.859399	1.985218	0.046784
1708	8.5350e-01	-11.7334	-114.816268	0.000859	8.587050	2.909371	0.068563
1709	8.5400e-01	-11.7077	-114.469421	0.000869	8.688074	2.943599	0.069369
1710	8.5450e-01	-11.6644	-114.372627	0.000242	2.424579	0.821470	0.019359
1711	8.5500e-01	-11.6211	-113.908820	0.001162	11.617774	3.936208	0.092761
1712	8.5550e-01	-11.5729	-113.670868	0.000596	5.960423	2.019446	0.047591
1713	8.5600e-01	-11.5360	-113.424849	0.000616	6.162471	2.087902	0.049204
1714	8.5650e-01	-11.4975	-113.251425	0.000434	4.344037	1.471800	0.034685
1715	8.5700e-01	-11.4655	-112.924744	0.000818	8.182954	2.772460	0.065336
1716	8.5750e-01	-11.4061	-112.565799	0.000899	8.991147	3.046283	0.071789
1717	8.5800e-01	-11.3820	-112.106025	0.001152	11.516750	3.901980	0.091955
1718	8.5850e-01	-11.3451	-111.993099	0.000283	2.828675	0.958381	0.022585
1719	8.5900e-01	-11.3034	-111.783377	0.000525	5.253254	1.779851	0.041944
1720	8.5950e-01	-11.2553	-111.517193	0.000667	6.667592	2.259041	0.053237
1721	8.6000e-01	-11.2184	-111.275207	0.000606	6.061447	2.053674	0.048397
1722	8.6050e-01	-11.1831	-111.029188	0.000616	6.162471	2.087902	0.049204
1723	8.6100e-01	-11.1350	-110.706540	0.000808	8.081930	2.738232	0.064530
1724	8.6150e-01	-11.0997	-110.242734	0.001162	11.617774	3.936208	0.092761
1725	8.6200e-01	-11.0564	-109.912020	0.000828	8.283978	2.806688	0.066143
1726	8.6250e-01	-11.0195	-109.940251	-0.000071	-0.707169	-0.239595	-0.005646
1727	8.6300e-01	-10.9874	-109.605504	0.000839	8.385002	2.840916	0.066949
1728	8.6350e-01	-10.9425	-109.230426	0.000940	9.395243	3.183195	0.075016
1729	8.6400e-01	-10.9008	-108.875513	0.000889	8.890123	3.012055	0.070983
1730	8.6450e-01	-10.8655	-108.879546	-0.000010	-0.101024	-0.034228	-0.000807
1731	8.6500e-01	-10.8206	-108.516568	0.000909	9.092171	3.080511	0.072596
1732	8.6550e-01	-10.7917	-108.089059	0.001071	10.708557	3.628157	0.085502
1733	8.6600e-01	-10.7452	-107.996298	0.000232	2.323555	0.787242	0.018552
1734	8.6650e-01	-10.7002	-107.673650	0.000808	8.081930	2.738232	0.064530
1735	8.6700e-01	-10.6681	-107.330837	0.000859	8.587050	2.909371	0.068563
1736	8.6750e-01	-10.6152	-107.141281	0.000475	4.748134	1.608711	0.037911
1737	8.6800e-01	-10.5863	-106.907361	0.000586	5.859399	1.985218	0.046784
1738	8.6850e-01	-10.5430	-106.487919	0.001051	10.506509	3.559701	0.083888
1739	8.6900e-01	-10.5077	-106.451621	0.000091	0.909217	0.308051	0.007260
1740	8.6950e-01	-10.4676	-106.124940	0.000818	8.182954	2.772460	0.065336
1741	8.7000e-01	-10.4179	-105.991848	0.000333	3.333796	1.129521	0.026618
1742	8.7050e-01	-10.3826	-105.649034	0.000859	8.587050	2.909371	0.068563
1743	8.7100e-01	-10.3361	-105.354618	0.000737	7.374761	2.498637	0.058883
1744	8.7150e-01	-10.3024	-105.080368	0.000687	6.869640	2.327497	0.054850
1745	8.7200e-01	-10.2591	-104.620594	0.001152	11.516750	3.901980	0.091955
1746	8.7250e-01	-10.2238	-104.378608	0.000606	6.061447	2.053674	0.048397
1747	8.7300e-01	-10.1773	-104.257615	0.000303	3.030724	1.026837	0.024199
1748	8.7350e-01	-10.1404	-104.051927	0.000515	5.152230	1.745623	0.041138
1749	8.7400e-01	-10.1035	-103.672816	0.000950	9.496267	3.217422	0.075822
1750	8.7450e-01	-10.0601	-103.455029	0.000546	5.455303	1.848307	0.043557
1751	8.7500e-01	-10.0184	-103.225142	0.000576	5.758375	1.950990	0.045977
1752	8.7550e-01	-9.9751	-102.922660	0.000758	7.576809	2.567092	0.060496
1753	8.7600e-01	-9.9366	-102.608078	0.000788	7.879881	2.669776	0.062916
1754	8.7650e-01	-9.8981	-102.204768	0.001010	10.102412	3.422790	0.080662
1755	8.7700e-01	-9.8612	-101.995047	0.000525	5.253254	1.779851	0.041944
1756	8.7750e-01	-9.8291	-101.599803	0.000990	9.900364	3.354334	0.079049
1757	8.7800e-01	-9.7810	-101.232791	0.000919	9.193195	3.114739	0.073402
1758	8.7850e-01	-9.7361	-101.087600	0.000364	3.636868	1.232204	0.029038
1759	8.7900e-01	-9.7056	-100.692356	0.000990	9.900364	3.354334	0.079049
1760	8.7950e-01	-9.6559	-100.401973	0.000727	7.273737	2.464409	0.058077
1761	8.8000e-01	-9.6254	-100.147888	0.000636	6.364520	2.156358	0.050817
1762	8.8050e-01	-9.5821	-99.922034	0.000566	5.657351	1.916762	0.045171
1763	8.8100e-01	-9.5372	-99.696181	0.000566	5.657351	1.916762	0.045171
1764	8.8150e-01	-9.5003	-99.381599	0.000788	7.879881	2.669776	0.062916
1765	8.8200e-01	-9.4553	-99.127514	0.000636	6.364520	2.156358	0.050817
1766	8.8250e-01	-9.4168	-98.744370	0.000960	9.597291	3.251650	0.076629
1767	8.8300e-01	-9.3767	-98.595145	0.000374	3.737892	1.266432	0.029845
1768	8.8350e-01	-9.3366	-98.232166	0.000909	9.092171	3.080511	0.072596
1769	8.8400e-01	-9.3013	-98.086975	0.000364	3.636868	1.232204	0.029038
1770	8.8450e-01	-9.2596	-97.683665	0.001010	10.102412	3.422790	0.080662
1771	8.8500e-01	-9.2179	-97.332785	0.000879	8.789099	2.977827	0.070176
1772	8.8550e-01	-9.1794	-97.159362	0.000434	4.344037	1.471800	0.034685
1773	8.8600e-01	-9.1409	-96.824615	0.000839	8.385002	2.840916	0.066949
1774	8.8650e-01	-9.1024	-96.441470	0.000960	9.597291	3.251650	0.076629
1775	8.8700e-01	-9.0559	-96.380974	0.000152	1.515362	0.513418	0.012099
1776	8.8750e-01	-9.0190	-96.159153	0.000556	5.556327	1.882534	0.044364
1777	8.8800e-01	-8.9837	-95.610652	0.001374	13.739280	4.654994	0.109700
1778	8.8850e-01	-8.9388	-95.372699	0.000596	5.960423	2.019446	0.047591
1779	8.8900e-01	-8.9035	-95.219441	0.000384	3.838917	1.300660	0.030652
1780	8.8950e-01	-8.8538	-94.941158	0.000697	6.970664	2.361725	0.055657
1781	8.9000e-01	-8.8185	-94.513649	0.001071	10.708557	3.628157	0.085502
1782	8.9050e-01	-8.7816	-94.223266	0.000727	7.273737	2.464409	0.058077
1783	8.9100e-01	-8.7350	-93.876420	0.000869	8.688074	2.943599	0.069369
1784	8.9150e-01	-8.7030	-93.509408	0.000919	9.193195	3.114739	0.073402
1785	8.9200e-01	-8.6580	-93.372282	0.000343	3.434820	1.163749	0.027425
1786	8.9250e-01	-8.6228	-92.908476	0.001162	11.617774	3.936208	0.092761
1787	8.9300e-01	-8.5762	-92.654391	0.000636	6.364520	2.156358	0.050817
1788	8.9350e-01	-8.5361	-92.601960	0.000131	1.313314	0.444963	0.010486
1789	8.9400e-01	-8.4960	-92.428537	0.000434	4.344037	1.471800	0.034685
1790	8.9450e-01	-8.4559	-91.811473	0.001546	15.456691	5.236869	0.123413
1791	8.9500e-01	-8.4174	-91.581587	0.000576	5.758375	1.950990	0.045977
1792	8.9550e-01	-8.3805	-91.307336	0.000687	6.869640	2.327497	0.054850
1793	8.9600e-01	-8.3356	-91.101648	0.000515	5.152230	1.745623	0.041138
1794	8.9650e-01	-8.3003	-90.839496	0.000657	6.566568	2.224813	0.052430
1795	8.9700e-01	-8.2586	-90.480551	0.000899	8.991147	3.046283	0.071789
1796	8.9750e-01	-8.2105	-90.186134	0.000737	7.374761	2.498637	0.058883
1797	8.9800e-01	-8.1832	-89.911884	0.000687	6.869640	2.327497	0.054850
1798	8.9850e-01	-8.1286	-89.581170	0.000828	8.283978	2.806688	0.066143
1799	8.9900e-01	-8.1014	-89.177860	0.001010	10.102412	3.422790	0.080662
1800	8.9950e-01	-8.0645	-88.996370	0.000455	4.546085	1.540255	0.036298
1801	9.0000e-01	-8.0164	-88.589027	0.001020	10.203436	3.457018	0.081469
1802	9.0050e-01	-7.9795	-88.383339	0.000515	5.152230	1.745623	0.041138
1803	9.0100e-01	-7.9377	-87.963897	0.001051	10.506509	3.559701	0.083888
1804	9.0150e-01	-7.8976	-87.717878	0.000616	6.162471	2.087902	0.049204
1805	9.0200e-01	-7.8656	-87.266171	0.001131	11.314702	3.833525	0.090341
1806	9.0250e-01	-7.8238	-87.197608	0.000172	1.717410	0.581874	0.013713
1807	9.0300e-01	-7.7789	-86.862861	0.000839	8.385002	2.840916	0.066949
1808	9.0350e-01	-7.7356	-86.471651	0.000980	9.799340	3.320106	0.078242
1809	9.0400e-01	-7.6987	-86.269996	0.000505	5.051206	1.711395	0.040331
1810	9.0450e-01	-7.6586	-85.975579	0.000737	7.374761	2.498637	0.058883
1811	9.0500e-01	-7.6217	-85.394813	0.001455	14.547473	4.928817	0.116153
1812	9.0550e-01	-7.5816	-85.342383	0.000131	1.313314	0.444963	0.010486
1813	9.0600e-01	-7.5431	-85.108463	0.000586	5.859399	1.985218	0.046784
1814	9.0650e-01	-7.5014	-84.810014	0.000748	7.475785	2.532865	0.059690
1815	9.0700e-01	-7.4517	-84.438969	0.000929	9.294219	3.148967	0.074209
1816	9.0750e-01	-7.4164	-83.975163	0.001162	11.617774	3.936208	0.092761
1817	9.0800e-01	-7.3843	-83.874335	0.000253	2.525603	0.855697	0.020165
1818	9.0850e-01	-7.3426	-83.608151	0.000667	6.667592	2.259041	0.053237
1819	9.0900e-01	-7.3057	-83.184675	0.001061	10.607533	3.593929	0.084695
1820	9.0950e-01	-7.2559	-82.789432	0.000990	9.900364	3.354334	0.079049
1821	9.1000e-01	-7.2110	-82.495015	0.000737	7.374761	2.498637	0.058883
1822	9.1050e-01	-7.1805	-82.442585	0.000131	1.313314	0.444963	0.010486
1823	9.1100e-01	-7.1517	-81.857786	0.001465	14.648498	4.963045	0.116960
1824	9.1150e-01	-7.1035	-81.583535	0.000687	6.869640	2.327497	0.054850
1825	9.1200e-01	-7.0602	-81.256854	0.000818	8.182954	2.772460	0.065336
1826	9.1250e-01	-7.0105	-81.014868	0.000606	6.061447	2.053674	0.048397
1827	9.1300e-01	-6.9736	-80.700286	0.000788	7.879881	2.669776	0.062916
1828	9.1350e-01	-6.9399	-80.272778	0.001071	10.708557	3.628157	0.085502
1829	9.1400e-01	-6.9062	-80.280844	-0.000020	-0.202048	-0.068456	-0.001613
1830	9.1450e-01	-6.8597	-79.736376	0.001364	13.638256	4.620766	0.108894
1831	9.1500e-01	-6.8180	-79.401629	0.000839	8.385002	2.840916	0.066949
1832	9.1550e-01	-6.7811	-79.062848	0.000849	8.486026	2.875143	0.067756
1833	9.1600e-01	-6.7458	-79.010418	0.000131	1.313314	0.444963	0.010486
1834	9.1650e-01	-6.6945	-78.764399	0.000616	6.162471	2.087902	0.049204
1835	9.1700e-01	-6.6640	-78.320758	0.001111	11.112653	3.765069	0.088728
1836	9.1750e-01	-6.6175	-77.929548	0.000980	9.799340	3.320106	0.078242
1837	9.1800e-01	-6.5870	-77.550436	0.000950	9.496267	3.217422	0.075822
1838	9.1850e-01	-6.5405	-77.348782	0.000505	5.051206	1.711395	0.040331
1839	9.1900e-01	-6.4987	-77.074531	0.000687	6.869640	2.327497	0.054850
1840	9.1950e-01	-6.4570	-76.364705	0.001778	17.780245	6.024110	0.141965
1841	9.2000e-01	-6.4185	-76.461500	-0.000242	-2.424579	-0.821470	-0.019359
1842	9.2050e-01	-6.3848	-76.070289	0.000980	9.799340	3.320106	0.078242
1843	9.2100e-01	-6.3479	-75.860568	0.000525	5.253254	1.779851	0.041944
1844	9.2150e-01	-6.2998	-75.473391	0.000970	9.698316	3.285878	0.077435
1845	9.2200e-01	-6.2645	-74.936989	0.001344	13.436208	4.552311	0.107280
1846	9.2250e-01	-6.2164	-74.783731	0.000384	3.838917	1.300660	0.030652
1847	9.2300e-01	-6.1731	-74.497381	0.000717	7.172713	2.430181	0.057270
1848	9.2350e-01	-6.1378	-74.239263	0.000647	6.465544	2.190586	0.051624
1849	9.2400e-01	-6.1073	-73.916615	0.000808	8.081930	2.738232	0.064530
1850	9.2450e-01	-6.0656	-73.505239	0.001030	10.304460	3.491246	0.082275
1851	9.2500e-01	-6.0175	-73.158392	0.000869	8.688074	2.943599	0.069369
1852	9.2550e-01	-5.9806	-72.984969	0.000434	4.344037	1.471800	0.034685
1853	9.2600e-01	-5.9389	-72.767182	0.000546	5.455303	1.848307	0.043557
1854	9.2650e-01	-5.9116	-72.315474	0.001131	11.314702	3.833525	0.090341
1855	9.2700e-01	-5.8587	-71.940396	0.000940	9.395243	3.183195	0.075016
1856	9.2750e-01	-5.8169	-71.734708	0.000515	5.152230	1.745623	0.041138
1857	9.2800e-01	-5.7833	-71.496755	0.000596	5.960423	2.019446	0.047591
1858	9.2850e-01	-5.7464	-71.041015	0.001142	11.415726	3.867753	0.091148
1859	9.2900e-01	-5.7047	-70.754665	0.000717	7.172713	2.430181	0.057270
1860	9.2950e-01	-5.6678	-70.548977	0.000515	5.152230	1.745623	0.041138
1861	9.3000e-01	-5.6260	-69.988377	0.001404	14.042353	4.757678	0.112120
1862	9.3050e-01	-5.5779	-69.742358	0.000616	6.162471	2.087902	0.049204
1863	9.3100e-01	-5.5410	-69.512471	0.000576	5.758375	1.950990	0.045977
1864	9.3150e-01	-5.5073	-69.181757	0.000828	8.283978	2.806688	0.066143
1865	9.3200e-01	-5.4608	-68.742149	0.001101	11.011629	3.730841	0.087922
1866	9.3250e-01	-5.4207	-68.391270	0.000879	8.789099	2.977827	0.070176
1867	9.3300e-01	-5.3790	-68.225913	0.000414	4.141989	1.403344	0.033071
1868	9.3350e-01	-5.3453	-67.895198	0.000828	8.283978	2.806688	0.066143
1869	9.3400e-01	-5.3020	-67.483822	0.001030	10.304460	3.491246	0.082275
1870	9.3450e-01	-5.2635	-67.189406	0.000737	7.374761	2.498637	0.058883
1871	9.3500e-01	-5.2218	-66.850626	0.000849	8.486026	2.875143	0.067756
1872	9.3550e-01	-5.1817	-66.435217	0.001041	10.405484	3.525474	0.083082
1873	9.3600e-01	-5.1368	-66.092403	0.000859	8.587050	2.909371	0.068563
1874	9.3650e-01	-5.0983	-65.886715	0.000515	5.152230	1.745623	0.041138
1875	9.3700e-01	-5.0678	-65.572134	0.000788	7.879881	2.669776	0.062916
1876	9.3750e-01	-5.0180	-65.297883	0.000687	6.869640	2.327497	0.054850
1877	9.3800e-01	-4.9795	-64.785679	0.001283	12.830063	4.346943	0.102441
1878	9.3850e-01	-4.9442	-64.491263	0.000737	7.374761	2.498637	0.058883
1879	9.3900e-01	-4.9057	-64.188781	0.000758	7.576809	2.567092	0.060496
1880	9.3950e-01	-4.8640	-63.781438	0.001020	10.203436	3.457018	0.081469
1881	9.4000e-01	-4.8271	-63.450724	0.000828	8.283978	2.806688	0.066143
1882	9.4050e-01	-4.7854	-62.954653	0.001243	12.425967	4.210032	0.099214
1883	9.4100e-01	-4.7485	-62.825593	0.000323	3.232772	1.095293	0.025812
1884	9.4150e-01	-4.7052	-62.587641	0.000596	5.960423	2.019446	0.047591
1885	9.4200e-01	-4.6683	-62.208529	0.000950	9.496267	3.217422	0.075822
1886	9.4250e-01	-4.6234	-61.873782	0.000839	8.385002	2.840916	0.066949
1887	9.4300e-01	-4.5833	-61.518870	0.000889	8.890123	3.012055	0.070983
1888	9.4350e-01	-4.5400	-61.220420	0.000748	7.475785	2.532865	0.059690
1889	9.4400e-01	-4.5079	-60.881640	0.000849	8.486026	2.875143	0.067756
1890	9.4450e-01	-4.4630	-60.611422	0.000677	6.768616	2.293269	0.054044
1891	9.4500e-01	-4.4181	-60.224245	0.000970	9.698316	3.285878	0.077435
1892	9.4550e-01	-4.3828	-60.103252	0.000303	3.030724	1.026837	0.024199
1893	9.4600e-01	-4.3443	-59.687843	0.001041	10.405484	3.525474	0.083082
1894	9.4650e-01	-4.2993	-59.199838	0.001222	12.223919	4.141576	0.097601
1895	9.4700e-01	-4.2544	-58.824760	0.000940	9.395243	3.183195	0.075016
1896	9.4750e-01	-4.2239	-58.417417	0.001020	10.203436	3.457018	0.081469
1897	9.4800e-01	-4.1838	-58.179464	0.000596	5.960423	2.019446	0.047591
1898	9.4850e-01	-4.1437	-57.905213	0.000687	6.869640	2.327497	0.054850
1899	9.4900e-01	-4.1020	-57.792286	0.000283	2.828675	0.958381	0.022585
1900	9.4950e-01	-4.0683	-57.199421	0.001485	14.850546	5.031501	0.118573
1901	9.5000e-01	-4.0186	-56.759813	0.001101	11.011629	3.730841	0.087922
1902	9.5050e-01	-3.9881	-56.336338	0.001061	10.607533	3.593929	0.084695
1903	9.5100e-01	-3.9416	-56.086286	0.000626	6.263496	2.122130	0.050010
1904	9.5150e-01	-3.8999	-55.743472	0.000859	8.587050	2.909371	0.068563
1905	9.5200e-01	-3.8630	-55.259500	0.001212	12.122895	4.107348	0.096794
1906	9.5250e-01	-3.8165	-55.130441	0.000323	3.232772	1.095293	0.025812
1907	9.5300e-01	-3.7796	-54.787628	0.000859	8.587050	2.909371	0.068563
1908	9.5350e-01	-3.7314	-54.561774	0.000566	5.657351	1.916762	0.045171
1909	9.5400e-01	-3.7074	-54.174597	0.000970	9.698316	3.285878	0.077435
1910	9.5450e-01	-3.6641	-53.730956	0.001111	11.112653	3.765069	0.088728
1911	9.5500e-01	-3.6224	-53.372010	0.000899	8.991147	3.046283	0.071789
1912	9.5550e-01	-3.5839	-52.932403	0.001101	11.011629	3.730841	0.087922
1913	9.5600e-01	-3.5454	-52.525060	0.001020	10.203436	3.457018	0.081469
1914	9.5650e-01	-3.5004	-52.468596	0.000141	1.414338	0.479191	0.011293
1915	9.5700e-01	-3.4619	-52.214511	0.000636	6.364520	2.156358	0.050817
1916	9.5750e-01	-3.4266	-51.839433	0.000940	9.395243	3.183195	0.075016
1917	9.5800e-01	-3.3849	-51.500653	0.000849	8.486026	2.875143	0.067756
1918	9.5850e-01	-3.3448	-51.141707	0.000899	8.991147	3.046283	0.071789
1919	9.5900e-01	-3.2999	-50.855357	0.000717	7.172713	2.430181	0.057270
1920	9.5950e-01	-3.2598	-50.484312	0.000929	9.294219	3.148967	0.074209
1921	9.6000e-01	-3.2277	-49.778519	0.001768	17.679221	5.989882	0.141158
1922	9.6050e-01	-3.1796	-49.484103	0.000737	7.374761	2.498637	0.058883
1923	9.6100e-01	-3.1379	-49.125158	0.000899	8.991147	3.046283	0.071789
1924	9.6150e-01	-3.0994	-49.032396	0.000232	2.323555	0.787242	0.018552
1925	9.6200e-01	-3.0657	-48.548424	0.001212	12.122895	4.107348	0.096794
1926	9.6250e-01	-3.0176	-48.254008	0.000737	7.374761	2.498637	0.058883
1927	9.6300e-01	-2.9775	-47.911195	0.000859	8.587050	2.909371	0.068563
1928	9.6350e-01	-2.9454	-47.709540	0.000505	5.051206	1.711395	0.040331
1929	9.6400e-01	-2.9021	-47.398991	0.000778	7.778857	2.635548	0.062110
1930	9.6450e-01	-2.8539	-46.983582	0.001041	10.405484	3.525474	0.083082
1931	9.6500e-01	-2.8170	-46.535908	0.001121	11.213677	3.799297	0.089535
1932	9.6550e-01	-2.7801	-46.378617	0.000394	3.939941	1.334888	0.031458
1933	9.6600e-01	-2.7384	-45.975308	0.001010	10.102412	3.422790	0.080662
1934	9.6650e-01	-2.7015	-45.414707	0.001404	14.042353	4.757678	0.112120
1935	9.6700e-01	-2.6550	-45.152555	0.000657	6.566568	2.224813	0.052430
1936	9.6750e-01	-2.6149	-44.850073	0.000758	7.576809	2.567092	0.060496
1937	9.6800e-01	-2.5844	-44.479028	0.000929	9.294219	3.148967	0.074209
1938	9.6850e-01	-2.5459	-44.116049	0.000909	9.092171	3.080511	0.072596
1939	9.6900e-01	-2.5026	-43.870030	0.000616	6.162471	2.087902	0.049204
1940	9.6950e-01	-2.4737	-43.418323	0.001131	11.314702	3.833525	0.090341
1941	9.7000e-01	-2.4208	-42.994848	0.001061	10.607533	3.593929	0.084695
1942	9.7050e-01	-2.3823	-42.712531	0.000707	7.071688	2.395953	0.056463
1943	9.7100e-01	-2.3374	-42.272923	0.001101	11.011629	3.730841	0.087922
1944	9.7150e-01	-2.3021	-41.772819	0.001253	12.526991	4.244259	0.100021
1945	9.7200e-01	-2.2620	-41.534866	0.000596	5.960423	2.019446	0.047591
1946	9.7250e-01	-2.2235	-41.099291	0.001091	10.910605	3.696613	0.087115
1947	9.7300e-01	-2.1769	-40.933934	0.000414	4.141989	1.403344	0.033071
1948	9.7350e-01	-2.1449	-40.583055	0.000879	8.789099	2.977827	0.070176
1949	9.7400e-01	-2.1031	-40.163612	0.001051	10.506509	3.559701	0.083888
1950	9.7450e-01	-2.0582	-39.736104	0.001071	10.708557	3.628157	0.085502
1951	9.7500e-01	-2.0261	-39.469919	0.000667	6.667592	2.259041	0.053237
1952	9.7550e-01	-1.9764	-39.119040	0.000879	8.789099	2.977827	0.070176
1953	9.7600e-01	-1.9379	-38.864955	0.000636	6.364520	2.156358	0.050817
1954	9.7650e-01	-1.9042	-38.659267	0.000515	5.152230	1.745623	0.041138
1955	9.7700e-01	-1.8673	-38.288222	0.000929	9.294219	3.148967	0.074209
1956	9.7750e-01	-1.8160	-37.905077	0.000960	9.597291	3.251650	0.076629
1957	9.7800e-01	-1.7791	-37.501767	0.001010	10.102412	3.422790	0.080662
1958	9.7850e-01	-1.7502	-37.070226	0.001081	10.809581	3.662385	0.086308
1959	9.7900e-01	-1.7101	-36.578188	0.001232	12.324943	4.175804	0.098408
1960	9.7950e-01	-1.6636	-36.162779	0.001041	10.405484	3.525474	0.083082
1961	9.8000e-01	-1.6251	-35.779634	0.000960	9.597291	3.251650	0.076629
1962	9.8050e-01	-1.5721	-35.614277	0.000414	4.141989	1.403344	0.033071
1963	9.8100e-01	-1.5481	-35.178703	0.001091	10.910605	3.696613	0.087115
1964	9.8150e-01	-1.4967	-34.739095	0.001101	11.011629	3.730841	0.087922
1965	9.8200e-01	-1.4647	-34.343851	0.000990	9.900364	3.354334	0.079049
1966	9.8250e-01	-1.4181	-34.130097	0.000535	5.354278	1.814079	0.042751
1967	9.8300e-01	-1.3700	-33.734853	0.000990	9.900364	3.354334	0.079049
1968	9.8350e-01	-1.3443	-33.484801	0.000626	6.263496	2.122130	0.050010
1969	9.8400e-01	-1.3042	-32.948399	0.001344	13.436208	4.552311	0.107280
1970	9.8450e-01	-1.2673	-32.472493	0.001192	11.920846	4.038892	0.095181
1971	9.8500e-01	-1.2208	-32.375699	0.000242	2.424579	0.821470	0.019359
1972	9.8550e-01	-1.1807	-32.049018	0.000818	8.182954	2.772460	0.065336
1973	9.8600e-01	-1.1374	-31.573112	0.001192	11.920846	4.038892	0.095181
1974	9.8650e-01	-1.0989	-31.189968	0.000960	9.597291	3.251650	0.076629
1975	9.8700e-01	-1.0652	-30.847155	0.000859	8.587050	2.909371	0.068563
1976	9.8750e-01	-1.0203	-30.459977	0.000970	9.698316	3.285878	0.077435
1977	9.8800e-01	-0.9834	-30.145396	0.000788	7.879881	2.669776	0.062916
1978	9.8850e-01	-0.9369	-29.778384	0.000919	9.193195	3.114739	0.073402
1979	9.8900e-01	-0.9016	-29.407338	0.000929	9.294219	3.148967	0.074209
1980	9.8950e-01	-0.8711	-28.911267	0.001243	12.425967	4.210032	0.099214
1981	9.9000e-01	-0.8214	-28.532156	0.000950	9.496267	3.217422	0.075822
1982	9.9050e-01	-0.7845	-28.350667	0.000455	4.546085	1.540255	0.036298
1983	9.9100e-01	-0.7379	-27.915092	0.001091	10.910605	3.696613	0.087115
1984	9.9150e-01	-0.6946	-27.773934	0.000354	3.535844	1.197976	0.028232
1985	9.9200e-01	-0.6690	-27.310127	0.001162	11.617774	3.936208	0.092761
1986	9.9250e-01	-0.6273	-26.898751	0.001030	10.304460	3.491246	0.082275
1987	9.9300e-01	-0.5791	-26.580136	0.000798	7.980906	2.704004	0.063723
1988	9.9350e-01	-0.5342	-26.120363	0.001152	11.516750	3.901980	0.091955
1989	9.9400e-01	-0.4989	-25.874344	0.000616	6.162471	2.087902	0.049204
1990	9.9450e-01	-0.4620	-25.229048	0.001616	16.163859	5.476464	0.129059
1991	9.9500e-01	-0.4123	-25.059658	0.000424	4.243013	1.437572	0.033878
1992	9.9550e-01	-0.3786	-24.765242	0.000737	7.374761	2.498637	0.058883
1993	9.9600e-01	-0.3513	-24.091715	0.001687	16.871028	5.716059	0.134705
1994	9.9650e-01	-0.2968	-23.958622	0.000333	3.333796	1.129521	0.026618
1995	9.9700e-01	-0.2567	-23.603710	0.000889	8.890123	3.012055	0.070983
1996	9.9750e-01	-0.2182	-23.305260	0.000748	7.475785	2.532865	0.059690
1997	9.9800e-01	-0.1829	-23.022943	0.000707	7.071688	2.395953	0.056463
1998	9.9850e-01	-0.1348	-22.409912	0.001536	15.355666	5.202641	0.122606
1999	9.9900e-01	-0.0946	-22.107430	0.000758	7.576809	2.567092	0.060496
2000	9.9950e-01	-0.0610	-21.643624	0.001162	11.617774	3.936208	0.092761
2001	1.0000e+00	-0.0289	-21.316943	0.001162	11.617774	3.936208	0.065336

PMax (uC/cm2):	1.76e+02
Pr (uC/cm2):	1.15e+01
-Pr (uC/cm2):	-5.13e+00
PLoss (uC/cm2):	-4.84e+00
-Vc:	-1.20e+00
C (Max-Eff) (nF):	8.83e-01
K (Eff):	2.99e+03
Vert. (+/-Pr) Shift (uC/cm2):	3.17e+00
Offset (uC/cm2):	1.62e+01

A (Loop Area - uC/cm2·Volts):	-2.03e-01



Hysteresis Version: 5.48.1 - Radiant Technologies, Inc., 1999 - 9/12/24

