»»»»»»»»»»»»»»»»»»»»»»»»»»»»»»»»»»»» Hysteresis ««««««««««««««««««««««««««««««««««««
»»»  Executed Version:	5.48.1
»»»  Vision Version:	5.48.4 (R)
»»»  Vision Compiled:	9/18/24
»»»  Driver Version:	5.47.0
»»»  Windows Version:	Windows 8 or 8.1
»»»  Processor Information:	x86 (AMD or Intel) - 32 Processors
»»»  Tester Name:	PMF21124-494 (100V)
»»»  Tester S/N:	PMF21124-494
»»»  Internal Amp Type:	100V RevK 270k
»»»  Internal Amp S/N:	iAB2-596/K     
»»»  Execution Count:	1
»»»»»»»»»»»»»»»»»»»»»»»»»»»»»»»»»»»»»»»»»»««««««««««««««««««««««««««««««««««««««««««

Stored:	6/18/2025 - 16:9:13
Configured:	06/18/25 09:47:30 AM
Executed:	06/18/25 04:08:14 PM

»»»»»»»»»»»»»»»»»»»»»»»»»»»»»»»»»»» Sample Info ««««««««««««««««««««««««««««««««««««
Sample Name:	
Lot Name:	
Wafer Name:	
Die Row/Column:	0/0
Capacitor Number:	0
Sample Area (cm2):	1.00e-04
Sample Thickness (microns):	3.00e-01

Amplifier:	Internal

»»»»»»»»»»»»»»»»»»»»»»»»»»»»»»»»»»» Tester Info «««««««««««««««««««««««««««««««««««
Tester Name:	PMF21124-494 (100V)
Tester Serial Number:	PMF21124-494
Return Signal Amp. Level:	0.19 [Index: 3]

»»»»»»»»»»»»»»»»»»»»»»»»»»»»»»»» Hysteresis Info ««««««««««««««««««««««««««««««««««
Task Name:	Hyst-554
Volts:	20.00
Field:	666.67 (kV/cm)
DCBias:	0.00
DCField:	0.00 (kV/cm)
Hysteresis Period (ms):	1.00e+00
Preset:	Enabled
Preset Delay (ms):	1.00e+03
Profile:	Standard Bipolar

»»»»»»»»»»»»»»»»»»»»»»»»»»»»»»»»»»»»»» Data «««««««««««««««««««««««««««««««««««««««
Points:	2001

Valid Data

Point	Time (ms)	Drive Voltage	Measured Polarization (uC/cm2)	Capacitance (uF)	Normalized Capacitance (uF/cm2)	Dielectric Constant	Instantaneous Current (mA)
   1	0.0000e+00	0.0193	-12.415894	0.000253	2.526161	0.855887	0.020165
   2	5.0000e-04	0.0353	-12.315067	0.000253	2.526161	0.855887	0.020165
   3	1.0000e-03	0.0658	-12.234405	0.000202	2.020929	0.684709	0.016132
   4	1.5000e-03	0.0995	-12.133577	0.000253	2.526161	0.855887	0.020165
   5	2.0000e-03	0.1348	-11.818995	0.000788	7.881623	2.670366	0.062916
   6	2.5000e-03	0.1797	-11.468116	0.000879	8.791041	2.978485	0.070176
   7	3.0000e-03	0.2214	-11.222097	0.000616	6.163834	2.088363	0.049204
   8	3.5000e-03	0.2583	-11.048674	0.000434	4.344998	1.472125	0.034685
   9	4.0000e-03	0.2904	-10.742158	0.000768	7.679530	2.601895	0.061303
  10	4.5000e-03	0.3385	-10.520338	0.000556	5.557555	1.882951	0.044364
  11	5.0000e-03	0.3754	-10.173491	0.000869	8.689995	2.944250	0.069369
  12	5.5000e-03	0.4139	-9.778248	0.000990	9.902552	3.355076	0.079049
  13	6.0000e-03	0.4572	-9.512063	0.000667	6.669066	2.259541	0.053237
  14	6.5000e-03	0.4973	-9.217647	0.000738	7.376391	2.499189	0.058883
  15	7.0000e-03	0.5278	-8.927264	0.000728	7.275345	2.464953	0.058077
  16	7.5000e-03	0.5743	-8.572351	0.000889	8.892088	3.012721	0.070983
  17	8.0000e-03	0.6192	-8.306167	0.000667	6.669066	2.259541	0.053237
  18	8.5000e-03	0.6609	-8.140810	0.000414	4.142905	1.403654	0.033071
  19	9.0000e-03	0.7010	-7.902857	0.000596	5.961741	2.019892	0.047591
  20	9.5000e-03	0.7379	-7.576176	0.000818	8.184763	2.773073	0.065336
  21	1.0000e-02	0.7716	-7.140601	0.001091	10.913017	3.697430	0.087115
  22	1.0500e-02	0.8182	-6.947012	0.000485	4.850230	1.643302	0.038718
  23	1.1000e-02	0.8567	-6.600166	0.000869	8.689995	2.944250	0.069369
  24	1.1500e-02	0.8887	-6.313816	0.000717	7.174298	2.430718	0.057270
  25	1.2000e-02	0.9256	-6.071830	0.000606	6.062787	2.054128	0.048397
  26	1.2500e-02	0.9802	-5.773381	0.000748	7.477438	2.533424	0.059690
  27	1.3000e-02	1.0075	-5.422501	0.000879	8.791041	2.978485	0.070176
  28	1.3500e-02	1.0556	-5.128085	0.000738	7.376391	2.499189	0.058883
  29	1.4000e-02	1.0957	-4.857867	0.000677	6.770112	2.293776	0.054044
  30	1.4500e-02	1.1422	-4.660245	0.000495	4.951276	1.677538	0.039524
  31	1.5000e-02	1.1695	-4.232737	0.001071	10.710924	3.628959	0.085502
  32	1.5500e-02	1.2112	-4.031082	0.000505	5.052323	1.711773	0.040331
  33	1.6000e-02	1.2657	-3.708434	0.000808	8.083716	2.738837	0.064530
  34	1.6500e-02	1.3026	-3.397886	0.000778	7.780577	2.636131	0.062110
  35	1.7000e-02	1.3267	-3.192198	0.000515	5.153369	1.746009	0.041138
  36	1.7500e-02	1.3796	-2.796954	0.000990	9.902552	3.355076	0.079049
  37	1.8000e-02	1.4117	-2.470273	0.000818	8.184763	2.773073	0.065336
  38	1.8500e-02	1.4550	-2.280717	0.000475	4.749183	1.609067	0.037911
  39	1.9000e-02	1.4951	-1.937904	0.000859	8.588949	2.910015	0.068563
  40	1.9500e-02	1.5369	-1.615256	0.000808	8.083716	2.738837	0.064530
  41	2.0000e-02	1.5754	-1.224045	0.000980	9.801506	3.320840	0.078242
  42	2.0500e-02	1.6139	-0.881232	0.000859	8.588949	2.910015	0.068563
  43	2.1000e-02	1.6524	-0.663445	0.000546	5.456508	1.848715	0.043557
  44	2.1500e-02	1.6844	-0.389194	0.000687	6.871159	2.328012	0.054850
  45	2.2000e-02	1.7374	-0.046381	0.000859	8.588949	2.910015	0.068563
  46	2.2500e-02	1.7727	0.231903	0.000697	6.972205	2.362247	0.055657
  47	2.3000e-02	1.8176	0.433558	0.000505	5.052323	1.711773	0.040331
  48	2.3500e-02	1.8497	0.707809	0.000687	6.871159	2.328012	0.054850
  49	2.4000e-02	1.8994	1.062721	0.000889	8.892088	3.012721	0.070983
  50	2.4500e-02	1.9363	1.413601	0.000879	8.791041	2.978485	0.070176
  51	2.5000e-02	1.9684	1.760448	0.000869	8.689995	2.944250	0.069369
  52	2.5500e-02	2.0101	2.014533	0.000637	6.365927	2.156834	0.050817
  53	2.6000e-02	2.0486	2.321048	0.000768	7.679530	2.601895	0.061303
  54	2.6500e-02	2.0967	2.595299	0.000687	6.871159	2.328012	0.054850
  55	2.7000e-02	2.1352	2.821152	0.000566	5.658601	1.917186	0.045171
  56	2.7500e-02	2.1834	3.123635	0.000758	7.578484	2.567660	0.060496
  57	2.8000e-02	2.2154	3.446283	0.000808	8.083716	2.738837	0.064530
  58	2.8500e-02	2.2539	3.789096	0.000859	8.588949	2.910015	0.068563
  59	2.9000e-02	2.2941	4.156108	0.000920	9.195227	3.115427	0.073402
  60	2.9500e-02	2.3342	4.402127	0.000616	6.163834	2.088363	0.049204
  61	3.0000e-02	2.3775	4.732841	0.000829	8.285809	2.807308	0.066143
  62	3.0500e-02	2.4128	5.023224	0.000728	7.275345	2.464953	0.058077
  63	3.1000e-02	2.4545	5.329740	0.000768	7.679530	2.601895	0.061303
  64	3.1500e-02	2.4898	5.668520	0.000849	8.487902	2.875779	0.067756
  65	3.2000e-02	2.5395	5.894374	0.000566	5.658601	1.917186	0.045171
  66	3.2500e-02	2.5732	6.257352	0.000909	9.094181	3.081192	0.072596
  67	3.3000e-02	2.6117	6.571934	0.000788	7.881623	2.670366	0.062916
  68	3.3500e-02	2.6566	6.826019	0.000637	6.365927	2.156834	0.050817
  69	3.4000e-02	2.6935	7.108336	0.000707	7.073252	2.396483	0.056463
  70	3.4500e-02	2.7368	7.459216	0.000879	8.791041	2.978485	0.070176
  71	3.5000e-02	2.7801	7.749599	0.000728	7.275345	2.464953	0.058077
  72	3.5500e-02	2.8106	8.039982	0.000728	7.275345	2.464953	0.058077
  73	3.6000e-02	2.8587	8.269869	0.000576	5.759648	1.951422	0.045977
  74	3.6500e-02	2.8940	8.604616	0.000839	8.386856	2.841544	0.066949
  75	3.7000e-02	2.9374	8.999860	0.000990	9.902552	3.355076	0.079049
  76	3.7500e-02	2.9807	9.314441	0.000788	7.881623	2.670366	0.062916
  77	3.8000e-02	3.0160	9.576593	0.000657	6.568019	2.225305	0.052430
  78	3.8500e-02	3.0480	9.935538	0.000899	8.993134	3.046956	0.071789
  79	3.9000e-02	3.0930	10.242054	0.000768	7.679530	2.601895	0.061303
  80	3.9500e-02	3.1299	10.484040	0.000606	6.062787	2.054128	0.048397
  81	4.0000e-02	3.1732	10.818787	0.000839	8.386856	2.841544	0.066949
  82	4.0500e-02	3.2165	11.246295	0.001071	10.710924	3.628959	0.085502
  83	4.1000e-02	3.2534	11.556844	0.000778	7.780577	2.636131	0.062110
  84	4.1500e-02	3.3031	11.839161	0.000707	7.073252	2.396483	0.056463
  85	4.2000e-02	3.3320	12.121478	0.000707	7.073252	2.396483	0.056463
  86	4.2500e-02	3.3721	12.456225	0.000839	8.386856	2.841544	0.066949
  87	4.3000e-02	3.4186	12.669979	0.000536	5.355462	1.814480	0.042751
  88	4.3500e-02	3.4571	12.976495	0.000768	7.679530	2.601895	0.061303
  89	4.4000e-02	3.4908	13.291076	0.000788	7.881623	2.670366	0.062916
  90	4.4500e-02	3.5421	13.682287	0.000980	9.801506	3.320840	0.078242
  91	4.5000e-02	3.5774	13.988803	0.000768	7.679530	2.601895	0.061303
  92	4.5500e-02	3.6208	14.283219	0.000738	7.376391	2.499189	0.058883
  93	4.6000e-02	3.6512	14.589734	0.000768	7.679530	2.601895	0.061303
  94	4.6500e-02	3.6962	14.876084	0.000717	7.174298	2.430718	0.057270
  95	4.7000e-02	3.7314	15.170500	0.000738	7.376391	2.499189	0.058883
  96	4.7500e-02	3.7732	15.525413	0.000889	8.892088	3.012721	0.070983
  97	4.8000e-02	3.8117	15.852094	0.000818	8.184763	2.773073	0.065336
  98	4.8500e-02	3.8534	16.178775	0.000818	8.184763	2.773073	0.065336
  99	4.9000e-02	3.8887	16.432860	0.000637	6.365927	2.156834	0.050817
 100	4.9500e-02	3.9320	16.723243	0.000728	7.275345	2.464953	0.058077
 101	5.0000e-02	3.9721	17.025726	0.000758	7.578484	2.567660	0.060496
 102	5.0500e-02	4.0074	17.312076	0.000717	7.174298	2.430718	0.057270
 103	5.1000e-02	4.0523	17.719419	0.001021	10.205692	3.457782	0.081469
 104	5.1500e-02	4.1052	17.997703	0.000697	6.972205	2.362247	0.055657
 105	5.2000e-02	4.1293	18.280019	0.000707	7.073252	2.396483	0.056463
 106	5.2500e-02	4.1726	18.691395	0.001031	10.306738	3.492017	0.082275
 107	5.3000e-02	4.2175	18.921282	0.000576	5.759648	1.951422	0.045977
 108	5.3500e-02	4.2576	19.292327	0.000930	9.296274	3.149663	0.074209
 109	5.4000e-02	4.3026	19.627074	0.000839	8.386856	2.841544	0.066949
 110	5.4500e-02	4.3298	19.897292	0.000677	6.770112	2.293776	0.054044
 111	5.5000e-02	4.3715	20.143311	0.000616	6.163834	2.088363	0.049204
 112	5.5500e-02	4.4213	20.534522	0.000980	9.801506	3.320840	0.078242
 113	5.6000e-02	4.4534	20.861203	0.000818	8.184763	2.773073	0.065336
 114	5.6500e-02	4.4902	21.252413	0.000980	9.801506	3.320840	0.078242
 115	5.7000e-02	4.5384	21.490366	0.000596	5.961741	2.019892	0.047591
 116	5.7500e-02	4.5753	21.800914	0.000778	7.780577	2.636131	0.062110
 117	5.8000e-02	4.6154	22.151794	0.000879	8.791041	2.978485	0.070176
 118	5.8500e-02	4.6619	22.563170	0.001031	10.306738	3.492017	0.082275
 119	5.9000e-02	4.7004	22.914050	0.000879	8.791041	2.978485	0.070176
 120	5.9500e-02	4.7341	23.176201	0.000657	6.568019	2.225305	0.052430
 121	6.0000e-02	4.7742	23.402055	0.000566	5.658601	1.917186	0.045171
 122	6.0500e-02	4.8111	23.765034	0.000909	9.094181	3.081192	0.072596
 123	6.1000e-02	4.8672	24.152211	0.000970	9.700460	3.286605	0.077435
 124	6.1500e-02	4.8945	24.410329	0.000647	6.466973	2.191070	0.051624
 125	6.2000e-02	4.9378	24.741043	0.000829	8.285809	2.807308	0.066143
 126	6.2500e-02	4.9683	25.019327	0.000697	6.972205	2.362247	0.055657
 127	6.3000e-02	5.0148	25.317776	0.000748	7.477438	2.533424	0.059690
 128	6.3500e-02	5.0549	25.616226	0.000748	7.477438	2.533424	0.059690
 129	6.4000e-02	5.0999	25.987271	0.000930	9.296274	3.149663	0.074209
 130	6.4500e-02	5.1351	26.418812	0.001081	10.811971	3.663195	0.086308
 131	6.5000e-02	5.1785	26.664831	0.000616	6.163834	2.088363	0.049204
 132	6.5500e-02	5.2057	26.983446	0.000798	7.982670	2.704602	0.063723
 133	6.6000e-02	5.2667	27.277862	0.000738	7.376391	2.499189	0.058883
 134	6.6500e-02	5.2988	27.600510	0.000808	8.083716	2.738837	0.064530
 135	6.7000e-02	5.3389	27.927191	0.000818	8.184763	2.773073	0.065336
 136	6.7500e-02	5.3758	28.177243	0.000626	6.264880	2.122599	0.050010
 137	6.8000e-02	5.4079	28.532156	0.000889	8.892088	3.012721	0.070983
 138	6.8500e-02	5.4560	28.822539	0.000728	7.275345	2.464953	0.058077
 139	6.9000e-02	5.4929	29.209717	0.000970	9.700460	3.286605	0.077435
 140	6.9500e-02	5.5346	29.524298	0.000788	7.881623	2.670366	0.062916
 141	7.0000e-02	5.5827	29.859046	0.000839	8.386856	2.841544	0.066949
 142	7.0500e-02	5.6084	30.189760	0.000829	8.285809	2.807308	0.066143
 143	7.1000e-02	5.6533	30.508374	0.000798	7.982670	2.704602	0.063723
 144	7.1500e-02	5.6982	30.859254	0.000879	8.791041	2.978485	0.070176
 145	7.2000e-02	5.7351	31.064942	0.000515	5.153369	1.746009	0.041138
 146	7.2500e-02	5.7752	31.444053	0.000950	9.498367	3.218134	0.075822
 147	7.3000e-02	5.8089	31.710238	0.000667	6.669066	2.259541	0.053237
 148	7.3500e-02	5.8651	32.040952	0.000829	8.285809	2.807308	0.066143
 149	7.4000e-02	5.8972	32.379732	0.000849	8.487902	2.875779	0.067756
 150	7.4500e-02	5.9389	32.766910	0.000970	9.700460	3.286605	0.077435
 151	7.5000e-02	5.9742	33.113756	0.000869	8.689995	2.944250	0.069369
 152	7.5500e-02	6.0191	33.347676	0.000586	5.860694	1.985657	0.046784
 153	7.6000e-02	6.0560	33.734853	0.000970	9.700460	3.286605	0.077435
 154	7.6500e-02	6.0977	34.053468	0.000798	7.982670	2.704602	0.063723
 155	7.7000e-02	6.1314	34.364017	0.000778	7.780577	2.636131	0.062110
 156	7.7500e-02	6.1747	34.682631	0.000798	7.982670	2.704602	0.063723
 157	7.8000e-02	6.2052	35.057710	0.000940	9.397320	3.183898	0.075016
 158	7.8500e-02	6.2533	35.331960	0.000687	6.871159	2.328012	0.054850
 159	7.9000e-02	6.2870	35.642509	0.000778	7.780577	2.636131	0.062110
 160	7.9500e-02	6.3447	36.061951	0.001051	10.508831	3.560488	0.083888
 161	8.0000e-02	6.3736	36.312003	0.000626	6.264880	2.122599	0.050010
 162	8.0500e-02	6.4169	36.606419	0.000738	7.376391	2.499189	0.058883
 163	8.1000e-02	6.4602	37.078292	0.001182	11.822435	4.005549	0.094375
 164	8.1500e-02	6.5020	37.300112	0.000556	5.557555	1.882951	0.044364
 165	8.2000e-02	6.5372	37.630827	0.000829	8.285809	2.807308	0.066143
 166	8.2500e-02	6.5709	37.933309	0.000758	7.578484	2.567660	0.060496
 167	8.3000e-02	6.6191	38.276122	0.000859	8.588949	2.910015	0.068563
 168	8.3500e-02	6.6576	38.671366	0.000990	9.902552	3.355076	0.079049
 169	8.4000e-02	6.7009	38.913352	0.000606	6.062787	2.054128	0.048397
 170	8.4500e-02	6.7426	39.240033	0.000818	8.184763	2.773073	0.065336
 171	8.5000e-02	6.7747	39.494118	0.000637	6.365927	2.156834	0.050817
 172	8.5500e-02	6.8132	39.832898	0.000849	8.487902	2.875779	0.067756
 173	8.6000e-02	6.8565	40.216043	0.000960	9.599413	3.252369	0.076629
 174	8.6500e-02	6.8982	40.574988	0.000899	8.993134	3.046956	0.071789
 175	8.7000e-02	6.9335	40.849239	0.000687	6.871159	2.328012	0.054850
 176	8.7500e-02	6.9752	41.155755	0.000768	7.679530	2.601895	0.061303
 177	8.8000e-02	7.0089	41.470336	0.000788	7.881623	2.670366	0.062916
 178	8.8500e-02	7.0554	41.760719	0.000728	7.275345	2.464953	0.058077
 179	8.9000e-02	7.0971	42.135798	0.000940	9.397320	3.183898	0.075016
 180	8.9500e-02	7.1292	42.535074	0.001000	10.003599	3.389311	0.079855
 181	9.0000e-02	7.1789	42.809325	0.000687	6.871159	2.328012	0.054850
 182	9.0500e-02	7.2174	43.111808	0.000758	7.578484	2.567660	0.060496
 183	9.1000e-02	7.2559	43.442522	0.000829	8.285809	2.807308	0.066143
 184	9.1500e-02	7.2928	43.777269	0.000839	8.386856	2.841544	0.066949
 185	9.2000e-02	7.3313	44.132181	0.000889	8.892088	3.012721	0.070983
 186	9.2500e-02	7.3731	44.466929	0.000839	8.386856	2.841544	0.066949
 187	9.3000e-02	7.4116	44.745212	0.000697	6.972205	2.362247	0.055657
 188	9.3500e-02	7.4597	45.116258	0.000930	9.296274	3.149663	0.074209
 189	9.4000e-02	7.4934	45.467137	0.000879	8.791041	2.978485	0.070176
 190	9.4500e-02	7.5239	45.737355	0.000677	6.770112	2.293776	0.054044
 191	9.5000e-02	7.5720	46.140665	0.001010	10.104645	3.423547	0.080662
 192	9.5500e-02	7.6153	46.418948	0.000697	6.972205	2.362247	0.055657
 193	9.6000e-02	7.6522	46.765795	0.000869	8.689995	2.944250	0.069369
 194	9.6500e-02	7.6907	47.027946	0.000657	6.568019	2.225305	0.052430
 195	9.7000e-02	7.7324	47.374793	0.000869	8.689995	2.944250	0.069369
 196	9.7500e-02	7.7805	47.705507	0.000829	8.285809	2.807308	0.066143
 197	9.8000e-02	7.8142	47.995890	0.000728	7.275345	2.464953	0.058077
 198	9.8500e-02	7.8575	48.302405	0.000768	7.679530	2.601895	0.061303
 199	9.9000e-02	7.8976	48.681517	0.000950	9.498367	3.218134	0.075822
 200	9.9500e-02	7.9426	49.004165	0.000808	8.083716	2.738837	0.064530
 201	1.0000e-01	7.9762	49.330846	0.000818	8.184763	2.773073	0.065336
 202	1.0050e-01	8.0099	49.685758	0.000889	8.892088	3.012721	0.070983
 203	1.0100e-01	8.0500	50.024539	0.000849	8.487902	2.875779	0.067756
 204	1.0150e-01	8.0934	50.347186	0.000808	8.083716	2.738837	0.064530
 205	1.0200e-01	8.1367	50.621437	0.000687	6.871159	2.328012	0.054850
 206	1.0250e-01	8.1736	50.936019	0.000788	7.881623	2.670366	0.062916
 207	1.0300e-01	8.2201	51.222369	0.000717	7.174298	2.430718	0.057270
 208	1.0350e-01	8.2490	51.613579	0.000980	9.801506	3.320840	0.078242
 209	1.0400e-01	8.2971	51.879764	0.000667	6.669066	2.259541	0.053237
 210	1.0450e-01	8.3308	52.137882	0.000647	6.466973	2.191070	0.051624
 211	1.0500e-01	8.3661	52.533126	0.000990	9.902552	3.355076	0.079049
 212	1.0550e-01	8.4158	52.843674	0.000778	7.780577	2.636131	0.062110
 213	1.0600e-01	8.4527	53.138091	0.000738	7.376391	2.499189	0.058883
 214	1.0650e-01	8.4880	53.533334	0.000990	9.902552	3.355076	0.079049
 215	1.0700e-01	8.5345	53.900346	0.000920	9.195227	3.115427	0.073402
 216	1.0750e-01	8.5778	54.194762	0.000738	7.376391	2.499189	0.058883
 217	1.0800e-01	8.6099	54.521443	0.000818	8.184763	2.773073	0.065336
 218	1.0850e-01	8.6580	54.815860	0.000738	7.376391	2.499189	0.058883
 219	1.0900e-01	8.6949	55.223203	0.001021	10.205692	3.457782	0.081469
 220	1.0950e-01	8.7399	55.578115	0.000889	8.892088	3.012721	0.070983
 221	1.1000e-01	8.7832	55.832201	0.000637	6.365927	2.156834	0.050817
 222	1.1050e-01	8.8233	56.138716	0.000768	7.679530	2.601895	0.061303
 223	1.1100e-01	8.8522	56.408934	0.000677	6.770112	2.293776	0.054044
 224	1.1150e-01	8.9035	56.771912	0.000909	9.094181	3.081192	0.072596
 225	1.1200e-01	8.9372	57.082461	0.000778	7.780577	2.636131	0.062110
 226	1.1250e-01	8.9789	57.376877	0.000738	7.376391	2.499189	0.058883
 227	1.1300e-01	9.0110	57.735823	0.000899	8.993134	3.046956	0.071789
 228	1.1350e-01	9.0527	58.018140	0.000707	7.073252	2.396483	0.056463
 229	1.1400e-01	9.1056	58.300457	0.000707	7.073252	2.396483	0.056463
 230	1.1450e-01	9.1249	58.695701	0.000990	9.902552	3.355076	0.079049
 231	1.1500e-01	9.1794	59.014315	0.000798	7.982670	2.704602	0.063723
 232	1.1550e-01	9.2195	59.365195	0.000879	8.791041	2.978485	0.070176
 233	1.1600e-01	9.2660	59.712041	0.000869	8.689995	2.944250	0.069369
 234	1.1650e-01	9.2965	59.933862	0.000556	5.557555	1.882951	0.044364
 235	1.1700e-01	9.3382	60.236344	0.000758	7.578484	2.567660	0.060496
 236	1.1750e-01	9.3703	60.675952	0.001101	11.014063	3.731666	0.087922
 237	1.1800e-01	9.4168	60.946170	0.000677	6.770112	2.293776	0.054044
 238	1.1850e-01	9.4505	61.341413	0.000990	9.902552	3.355076	0.079049
 239	1.1900e-01	9.4955	61.530969	0.000475	4.749183	1.609067	0.037911
 240	1.1950e-01	9.5372	61.869749	0.000849	8.487902	2.875779	0.067756
 241	1.2000e-01	9.5789	62.119801	0.000626	6.264880	2.122599	0.050010
 242	1.2050e-01	9.6174	62.486813	0.000920	9.195227	3.115427	0.073402
 243	1.2100e-01	9.6559	62.978851	0.001233	12.327667	4.176727	0.098408
 244	1.2150e-01	9.6928	63.216804	0.000596	5.961741	2.019892	0.047591
 245	1.2200e-01	9.7425	63.515253	0.000748	7.477438	2.533424	0.059690
 246	1.2250e-01	9.7826	63.894365	0.000950	9.498367	3.218134	0.075822
 247	1.2300e-01	9.8147	64.152483	0.000647	6.466973	2.191070	0.051624
 248	1.2350e-01	9.8580	64.463032	0.000778	7.780577	2.636131	0.062110
 249	1.2400e-01	9.8949	64.842143	0.000950	9.498367	3.218134	0.075822
 250	1.2450e-01	9.9270	65.136559	0.000738	7.376391	2.499189	0.058883
 251	1.2500e-01	9.9863	65.410810	0.000687	6.871159	2.328012	0.054850
 252	1.2550e-01	10.0152	65.757656	0.000869	8.689995	2.944250	0.069369
 253	1.2600e-01	10.0505	65.979477	0.000556	5.557555	1.882951	0.044364
 254	1.2650e-01	10.1002	66.411018	0.001081	10.811971	3.663195	0.086308
 255	1.2700e-01	10.1404	66.729633	0.000798	7.982670	2.704602	0.063723
 256	1.2750e-01	10.1740	67.011950	0.000707	7.073252	2.396483	0.056463
 257	1.2800e-01	10.2109	67.346697	0.000839	8.386856	2.841544	0.066949
 258	1.2850e-01	10.2575	67.681444	0.000839	8.386856	2.841544	0.066949
 259	1.2900e-01	10.2992	68.020224	0.000849	8.487902	2.875779	0.067756
 260	1.2950e-01	10.3361	68.338839	0.000798	7.982670	2.704602	0.063723
 261	1.3000e-01	10.3730	68.613090	0.000687	6.871159	2.328012	0.054850
 262	1.3050e-01	10.4131	68.955903	0.000859	8.588949	2.910015	0.068563
 263	1.3100e-01	10.4532	69.153525	0.000495	4.951276	1.677538	0.039524
 264	1.3150e-01	10.4885	69.601199	0.001122	11.216156	3.800137	0.089535
 265	1.3200e-01	10.5478	69.895615	0.000738	7.376391	2.499189	0.058883
 266	1.3250e-01	10.5751	70.194065	0.000748	7.477438	2.533424	0.059690
 267	1.3300e-01	10.6104	70.407819	0.000536	5.355462	1.814480	0.042751
 268	1.3350e-01	10.6585	70.799029	0.000980	9.801506	3.320840	0.078242
 269	1.3400e-01	10.6954	71.149909	0.000879	8.791041	2.978485	0.070176
 270	1.3450e-01	10.7323	71.516921	0.000920	9.195227	3.115427	0.073402
 271	1.3500e-01	10.7756	71.779072	0.000657	6.568019	2.225305	0.052430
 272	1.3550e-01	10.8125	72.133985	0.000889	8.892088	3.012721	0.070983
 273	1.3600e-01	10.8591	72.363872	0.000576	5.759648	1.951422	0.045977
 274	1.3650e-01	10.8879	72.751049	0.000970	9.700460	3.286605	0.077435
 275	1.3700e-01	10.9393	73.122094	0.000930	9.296274	3.149663	0.074209
 276	1.3750e-01	10.9746	73.396345	0.000687	6.871159	2.328012	0.054850
 277	1.3800e-01	11.0082	73.747224	0.000879	8.791041	2.978485	0.070176
 278	1.3850e-01	11.0403	74.049707	0.000758	7.578484	2.567660	0.060496
 279	1.3900e-01	11.0836	74.319924	0.000677	6.770112	2.293776	0.054044
 280	1.3950e-01	11.1334	74.650639	0.000829	8.285809	2.807308	0.066143
 281	1.4000e-01	11.1735	75.037816	0.000970	9.700460	3.286605	0.077435
 282	1.4050e-01	11.2184	75.287868	0.000626	6.264880	2.122599	0.050010
 283	1.4100e-01	11.2473	75.622615	0.000839	8.386856	2.841544	0.066949
 284	1.4150e-01	11.2954	75.921065	0.000748	7.477438	2.533424	0.059690
 285	1.4200e-01	11.3435	76.150951	0.000576	5.759648	1.951422	0.045977
 286	1.4250e-01	11.3788	76.526029	0.000940	9.397320	3.183898	0.075016
 287	1.4300e-01	11.4157	76.840611	0.000788	7.881623	2.670366	0.062916
 288	1.4350e-01	11.4494	77.135027	0.000738	7.376391	2.499189	0.058883
 289	1.4400e-01	11.4863	77.477841	0.000859	8.588949	2.910015	0.068563
 290	1.4450e-01	11.5360	77.800489	0.000808	8.083716	2.738837	0.064530
 291	1.4500e-01	11.5745	78.054574	0.000637	6.365927	2.156834	0.050817
 292	1.4550e-01	11.6114	78.457884	0.001010	10.104645	3.423547	0.080662
 293	1.4600e-01	11.6419	78.796664	0.000849	8.487902	2.875779	0.067756
 294	1.4650e-01	11.6965	79.054782	0.000647	6.466973	2.191070	0.051624
 295	1.4700e-01	11.7334	79.417761	0.000909	9.094181	3.081192	0.072596
 296	1.4750e-01	11.7719	79.607317	0.000475	4.749183	1.609067	0.037911
 297	1.4800e-01	11.8168	79.954163	0.000869	8.689995	2.944250	0.069369
 298	1.4850e-01	11.8601	80.365539	0.001031	10.306738	3.492017	0.082275
 299	1.4900e-01	11.8954	80.631724	0.000667	6.669066	2.259541	0.053237
 300	1.4950e-01	11.9371	80.905975	0.000687	6.871159	2.328012	0.054850
 301	1.5000e-01	11.9740	81.200391	0.000738	7.376391	2.499189	0.058883
 302	1.5050e-01	12.0141	81.591601	0.000980	9.801506	3.320840	0.078242
 303	1.5100e-01	12.0542	81.934415	0.000859	8.588949	2.910015	0.068563
 304	1.5150e-01	12.0959	82.313526	0.000950	9.498367	3.218134	0.075822
 305	1.5200e-01	12.1312	82.523247	0.000525	5.254416	1.780244	0.041944
 306	1.5250e-01	12.1761	82.773299	0.000626	6.264880	2.122599	0.050010
 307	1.5300e-01	12.2130	83.144344	0.000930	9.296274	3.149663	0.074209
 308	1.5350e-01	12.2579	83.434727	0.000728	7.275345	2.464953	0.058077
 309	1.5400e-01	12.2916	83.708978	0.000687	6.871159	2.328012	0.054850
 310	1.5450e-01	12.3333	83.991295	0.000707	7.073252	2.396483	0.056463
 311	1.5500e-01	12.3734	84.265546	0.000687	6.871159	2.328012	0.054850
 312	1.5550e-01	12.4168	84.608359	0.000859	8.588949	2.910015	0.068563
 313	1.5600e-01	12.4505	84.967305	0.000899	8.993134	3.046956	0.071789
 314	1.5650e-01	12.5002	85.306085	0.000849	8.487902	2.875779	0.067756
 315	1.5700e-01	12.5339	85.580336	0.000687	6.871159	2.328012	0.054850
 316	1.5750e-01	12.5788	85.870719	0.000728	7.275345	2.464953	0.058077
 317	1.5800e-01	12.6205	86.310327	0.001101	11.014063	3.731666	0.087922
 318	1.5850e-01	12.6510	86.495849	0.000465	4.648137	1.574831	0.037105
 319	1.5900e-01	12.7023	86.838663	0.000859	8.588949	2.910015	0.068563
 320	1.5950e-01	12.7392	87.153244	0.000788	7.881623	2.670366	0.062916
 321	1.6000e-01	12.7777	87.419429	0.000667	6.669066	2.259541	0.053237
 322	1.6050e-01	12.8146	87.758209	0.000849	8.487902	2.875779	0.067756
 323	1.6100e-01	12.8563	88.012294	0.000637	6.365927	2.156834	0.050817
 324	1.6150e-01	12.8932	88.459968	0.001122	11.216156	3.800137	0.089535
 325	1.6200e-01	12.9317	88.762451	0.000758	7.578484	2.567660	0.060496
 326	1.6250e-01	12.9702	89.000403	0.000596	5.961741	2.019892	0.047591
 327	1.6300e-01	13.0167	89.282720	0.000707	7.073252	2.396483	0.056463
 328	1.6350e-01	13.0472	89.649732	0.000920	9.195227	3.115427	0.073402
 329	1.6400e-01	13.0970	89.948182	0.000748	7.477438	2.533424	0.059690
 330	1.6450e-01	13.1355	90.174035	0.000566	5.658601	1.917186	0.045171
 331	1.6500e-01	13.1804	90.476517	0.000758	7.578484	2.567660	0.060496
 332	1.6550e-01	13.2076	90.851596	0.000940	9.397320	3.183898	0.075016
 333	1.6600e-01	13.2397	91.101648	0.000626	6.264880	2.122599	0.050010
 334	1.6650e-01	13.2879	91.488825	0.000970	9.700460	3.286605	0.077435
 335	1.6700e-01	13.3392	91.827606	0.000849	8.487902	2.875779	0.067756
 336	1.6750e-01	13.3809	92.057492	0.000576	5.759648	1.951422	0.045977
 337	1.6800e-01	13.4226	92.343842	0.000717	7.174298	2.430718	0.057270
 338	1.6850e-01	13.4531	92.731020	0.000970	9.700460	3.286605	0.077435
 339	1.6900e-01	13.4932	92.985105	0.000637	6.365927	2.156834	0.050817
 340	1.6950e-01	13.5317	93.243223	0.000647	6.466973	2.191070	0.051624
 341	1.7000e-01	13.5734	93.610235	0.000920	9.195227	3.115427	0.073402
 342	1.7050e-01	13.6199	93.880453	0.000677	6.770112	2.293776	0.054044
 343	1.7100e-01	13.6504	94.158737	0.000697	6.972205	2.362247	0.055657
 344	1.7150e-01	13.6905	94.525748	0.000920	9.195227	3.115427	0.073402
 345	1.7200e-01	13.7306	94.820165	0.000738	7.376391	2.499189	0.058883
 346	1.7250e-01	13.7723	95.082316	0.000657	6.568019	2.225305	0.052430
 347	1.7300e-01	13.8092	95.380765	0.000748	7.477438	2.533424	0.059690
 348	1.7350e-01	13.8461	95.703413	0.000808	8.083716	2.738837	0.064530
 349	1.7400e-01	13.8959	95.993796	0.000728	7.275345	2.464953	0.058077
 350	1.7450e-01	13.9279	96.276113	0.000707	7.073252	2.396483	0.056463
 351	1.7500e-01	13.9809	96.602794	0.000818	8.184763	2.773073	0.065336
 352	1.7550e-01	14.0033	96.937541	0.000839	8.386856	2.841544	0.066949
 353	1.7600e-01	14.0563	97.159362	0.000556	5.557555	1.882951	0.044364
 354	1.7650e-01	14.0948	97.494109	0.000839	8.386856	2.841544	0.066949
 355	1.7700e-01	14.1317	97.780459	0.000717	7.174298	2.430718	0.057270
 356	1.7750e-01	14.1750	98.066809	0.000717	7.174298	2.430718	0.057270
 357	1.7800e-01	14.2167	98.470119	0.001010	10.104645	3.423547	0.080662
 358	1.7850e-01	14.2440	98.780668	0.000778	7.780577	2.636131	0.062110
 359	1.7900e-01	14.2969	99.026687	0.000616	6.163834	2.088363	0.049204
 360	1.7950e-01	14.3370	99.325136	0.000748	7.477438	2.533424	0.059690
 361	1.8000e-01	14.3739	99.667949	0.000859	8.588949	2.910015	0.068563
 362	1.8050e-01	14.4108	99.974465	0.000768	7.679530	2.601895	0.061303
 363	1.8100e-01	14.4590	100.289046	0.000788	7.881623	2.670366	0.062916
 364	1.8150e-01	14.4910	100.575396	0.000717	7.174298	2.430718	0.057270
 365	1.8200e-01	14.5295	100.881912	0.000768	7.679530	2.601895	0.061303
 366	1.8250e-01	14.5761	101.172295	0.000728	7.275345	2.464953	0.058077
 367	1.8300e-01	14.6065	101.454612	0.000707	7.073252	2.396483	0.056463
 368	1.8350e-01	14.6466	101.757094	0.000758	7.578484	2.567660	0.060496
 369	1.8400e-01	14.6884	102.067643	0.000778	7.780577	2.636131	0.062110
 370	1.8450e-01	14.7317	102.410456	0.000859	8.588949	2.910015	0.068563
 371	1.8500e-01	14.7702	102.712939	0.000758	7.578484	2.567660	0.060496
 372	1.8550e-01	14.8103	102.938792	0.000566	5.658601	1.917186	0.045171
 373	1.8600e-01	14.8456	103.285639	0.000869	8.689995	2.944250	0.069369
 374	1.8650e-01	14.8953	103.656684	0.000930	9.296274	3.149663	0.074209
 375	1.8700e-01	14.9354	103.854306	0.000495	4.951276	1.677538	0.039524
 376	1.8750e-01	14.9755	104.055960	0.000505	5.052323	1.711773	0.040331
 377	1.8800e-01	15.0172	104.443138	0.000970	9.700460	3.286605	0.077435
 378	1.8850e-01	15.0461	104.737554	0.000738	7.376391	2.499189	0.058883
 379	1.8900e-01	15.0926	105.076334	0.000849	8.487902	2.875779	0.067756
 380	1.8950e-01	15.1279	105.354618	0.000697	6.972205	2.362247	0.055657
 381	1.9000e-01	15.1680	105.713564	0.000899	8.993134	3.046956	0.071789
 382	1.9050e-01	15.2065	105.935384	0.000556	5.557555	1.882951	0.044364
 383	1.9100e-01	15.2482	106.270132	0.000839	8.386856	2.841544	0.066949
 384	1.9150e-01	15.2883	106.592780	0.000808	8.083716	2.738837	0.064530
 385	1.9200e-01	15.3284	106.850898	0.000647	6.466973	2.191070	0.051624
 386	1.9250e-01	15.3669	107.157413	0.000768	7.679530	2.601895	0.061303
 387	1.9300e-01	15.4103	107.496194	0.000849	8.487902	2.875779	0.067756
 388	1.9350e-01	15.4488	107.774477	0.000697	6.972205	2.362247	0.055657
 389	1.9400e-01	15.4937	108.068894	0.000738	7.376391	2.499189	0.058883
 390	1.9450e-01	15.5370	108.306846	0.000596	5.961741	2.019892	0.047591
 391	1.9500e-01	15.5771	108.673858	0.000920	9.195227	3.115427	0.073402
 392	1.9550e-01	15.6140	108.948109	0.000687	6.871159	2.328012	0.054850
 393	1.9600e-01	15.6557	109.266724	0.000798	7.982670	2.704602	0.063723
 394	1.9650e-01	15.6878	109.649868	0.000960	9.599413	3.252369	0.076629
 395	1.9700e-01	15.7327	109.835391	0.000465	4.648137	1.574831	0.037105
 396	1.9750e-01	15.7696	110.125774	0.000728	7.275345	2.464953	0.058077
 397	1.9800e-01	15.8097	110.440356	0.000788	7.881623	2.670366	0.062916
 398	1.9850e-01	15.8466	110.662176	0.000556	5.557555	1.882951	0.044364
 399	1.9900e-01	15.8867	111.021122	0.000899	8.993134	3.046956	0.071789
 400	1.9950e-01	15.9348	111.343770	0.000808	8.083716	2.738837	0.064530
 401	2.0000e-01	15.9717	111.605921	0.000657	6.568019	2.225305	0.052430
 402	2.0050e-01	16.0183	111.916470	0.000778	7.780577	2.636131	0.062110
 403	2.0100e-01	16.0503	112.134257	0.000546	5.456508	1.848715	0.043557
 404	2.0150e-01	16.0856	112.432706	0.000748	7.477438	2.533424	0.059690
 405	2.0200e-01	16.1434	112.856182	0.001061	10.609878	3.594724	0.084695
 406	2.0250e-01	16.1707	113.118333	0.000657	6.568019	2.225305	0.052430
 407	2.0300e-01	16.2011	113.420815	0.000758	7.578484	2.567660	0.060496
 408	2.0350e-01	16.2605	113.739430	0.000798	7.982670	2.704602	0.063723
 409	2.0400e-01	16.2942	113.993515	0.000637	6.365927	2.156834	0.050817
 410	2.0450e-01	16.3343	114.199203	0.000515	5.153369	1.746009	0.041138
 411	2.0500e-01	16.3744	114.521851	0.000808	8.083716	2.738837	0.064530
 412	2.0550e-01	16.4177	114.900963	0.000950	9.498367	3.218134	0.075822
 413	2.0600e-01	16.4482	115.151015	0.000626	6.264880	2.122599	0.050010
 414	2.0650e-01	16.4963	115.376868	0.000566	5.658601	1.917186	0.045171
 415	2.0700e-01	16.5204	115.715649	0.000849	8.487902	2.875779	0.067756
 416	2.0750e-01	16.5669	115.933436	0.000546	5.456508	1.848715	0.043557
 417	2.0800e-01	16.6102	116.304481	0.000930	9.296274	3.149663	0.074209
 418	2.0850e-01	16.6551	116.631162	0.000818	8.184763	2.773073	0.065336
 419	2.0900e-01	16.6872	116.969942	0.000849	8.487902	2.875779	0.067756
 420	2.0950e-01	16.7305	117.284524	0.000788	7.881623	2.670366	0.062916
 421	2.1000e-01	16.7690	117.574907	0.000728	7.275345	2.464953	0.058077
 422	2.1050e-01	16.8092	117.824959	0.000626	6.264880	2.122599	0.050010
 423	2.1100e-01	16.8509	118.079044	0.000637	6.365927	2.156834	0.050817
 424	2.1150e-01	16.8894	118.397659	0.000798	7.982670	2.704602	0.063723
 425	2.1200e-01	16.9263	118.724340	0.000818	8.184763	2.773073	0.065336
 426	2.1250e-01	16.9696	118.994558	0.000677	6.770112	2.293776	0.054044
 427	2.1300e-01	17.0081	119.236544	0.000606	6.062787	2.054128	0.048397
 428	2.1350e-01	17.0514	119.623721	0.000970	9.700460	3.286605	0.077435
 429	2.1400e-01	17.0915	119.873773	0.000626	6.264880	2.122599	0.050010
 430	2.1450e-01	17.1364	120.135925	0.000657	6.568019	2.225305	0.052430
 431	2.1500e-01	17.1733	120.337580	0.000505	5.052323	1.711773	0.040331
 432	2.1550e-01	17.2086	120.688459	0.000879	8.791041	2.978485	0.070176
 433	2.1600e-01	17.2519	121.047405	0.000899	8.993134	3.046956	0.071789
 434	2.1650e-01	17.2952	121.313589	0.000667	6.669066	2.259541	0.053237
 435	2.1700e-01	17.3353	121.620105	0.000768	7.679530	2.601895	0.061303
 436	2.1750e-01	17.3738	121.954852	0.000839	8.386856	2.841544	0.066949
 437	2.1800e-01	17.4123	122.188772	0.000586	5.860694	1.985657	0.046784
 438	2.1850e-01	17.4605	122.422692	0.000586	5.860694	1.985657	0.046784
 439	2.1900e-01	17.4958	122.745339	0.000808	8.083716	2.738837	0.064530
 440	2.1950e-01	17.5343	123.096219	0.000879	8.791041	2.978485	0.070176
 441	2.2000e-01	17.5696	123.362403	0.000667	6.669066	2.259541	0.053237
 442	2.2050e-01	17.6177	123.640687	0.000697	6.972205	2.362247	0.055657
 443	2.2100e-01	17.6514	123.935103	0.000738	7.376391	2.499189	0.058883
 444	2.2150e-01	17.6947	124.205321	0.000677	6.770112	2.293776	0.054044
 445	2.2200e-01	17.7348	124.616697	0.001031	10.306738	3.492017	0.082275
 446	2.2250e-01	17.7749	124.846584	0.000576	5.759648	1.951422	0.045977
 447	2.2300e-01	17.8102	125.112768	0.000667	6.669066	2.259541	0.053237
 448	2.2350e-01	17.8583	125.411218	0.000748	7.477438	2.533424	0.059690
 449	2.2400e-01	17.8936	125.673369	0.000657	6.568019	2.225305	0.052430
 450	2.2450e-01	17.9321	126.008116	0.000839	8.386856	2.841544	0.066949
 451	2.2500e-01	17.9738	126.274301	0.000667	6.669066	2.259541	0.053237
 452	2.2550e-01	18.0123	126.556618	0.000707	7.073252	2.396483	0.056463
 453	2.2600e-01	18.0492	126.847001	0.000728	7.275345	2.464953	0.058077
 454	2.2650e-01	18.0845	127.157549	0.000778	7.780577	2.636131	0.062110
 455	2.2700e-01	18.1342	127.330973	0.000434	4.344998	1.472125	0.034685
 456	2.2750e-01	18.1663	127.581025	0.000626	6.264880	2.122599	0.050010
 457	2.2800e-01	18.2113	128.020632	0.001101	11.014063	3.731666	0.087922
 458	2.2850e-01	18.2498	128.274718	0.000637	6.365927	2.156834	0.050817
 459	2.2900e-01	18.2915	128.581233	0.000768	7.679530	2.601895	0.061303
 460	2.2950e-01	18.3316	128.859517	0.000697	6.972205	2.362247	0.055657
 461	2.3000e-01	18.3701	129.125701	0.000667	6.669066	2.259541	0.053237
 462	2.3050e-01	18.4150	129.516912	0.000980	9.801506	3.320840	0.078242
 463	2.3100e-01	18.4615	129.750832	0.000586	5.860694	1.985657	0.046784
 464	2.3150e-01	18.4888	129.976685	0.000566	5.658601	1.917186	0.045171
 465	2.3200e-01	18.5321	130.238837	0.000657	6.568019	2.225305	0.052430
 466	2.3250e-01	18.5754	130.626014	0.000970	9.700460	3.286605	0.077435
 467	2.3300e-01	18.6171	130.880099	0.000637	6.365927	2.156834	0.050817
 468	2.3350e-01	18.6460	131.194681	0.000788	7.881623	2.670366	0.062916
 469	2.3400e-01	18.6989	131.460865	0.000667	6.669066	2.259541	0.053237
 470	2.3450e-01	18.7294	131.727050	0.000667	6.669066	2.259541	0.053237
 471	2.3500e-01	18.7727	132.029532	0.000758	7.578484	2.567660	0.060496
 472	2.3550e-01	18.8177	132.327982	0.000748	7.477438	2.533424	0.059690
 473	2.3600e-01	18.8513	132.650630	0.000808	8.083716	2.738837	0.064530
 474	2.3650e-01	18.8947	132.884549	0.000586	5.860694	1.985657	0.046784
 475	2.3700e-01	18.9299	133.126535	0.000606	6.062787	2.054128	0.048397
 476	2.3750e-01	18.9652	133.433051	0.000768	7.679530	2.601895	0.061303
 477	2.3800e-01	19.0070	133.832327	0.001000	10.003599	3.389311	0.079855
 478	2.3850e-01	19.0679	134.134810	0.000758	7.578484	2.567660	0.060496
 479	2.3900e-01	19.0936	134.388895	0.000637	6.365927	2.156834	0.050817
 480	2.3950e-01	19.1321	134.602649	0.000536	5.355462	1.814480	0.042751
 481	2.4000e-01	19.1706	134.888999	0.000717	7.174298	2.430718	0.057270
 482	2.4050e-01	19.2091	135.227780	0.000849	8.487902	2.875779	0.067756
 483	2.4100e-01	19.2556	135.469766	0.000606	6.062787	2.054128	0.048397
 484	2.4150e-01	19.2957	135.687553	0.000546	5.456508	1.848715	0.043557
 485	2.4200e-01	19.3310	136.018267	0.000829	8.285809	2.807308	0.066143
 486	2.4250e-01	19.3711	136.377213	0.000899	8.993134	3.046956	0.071789
 487	2.4300e-01	19.4080	136.651463	0.000687	6.871159	2.328012	0.054850
 488	2.4350e-01	19.4513	136.853118	0.000505	5.052323	1.711773	0.040331
 489	2.4400e-01	19.4866	137.167700	0.000788	7.881623	2.670366	0.062916
 490	2.4450e-01	19.5267	137.437918	0.000677	6.770112	2.293776	0.054044
 491	2.4500e-01	19.5716	137.736367	0.000748	7.477438	2.533424	0.059690
 492	2.4550e-01	19.6037	138.030783	0.000738	7.376391	2.499189	0.058883
 493	2.4600e-01	19.6583	138.264703	0.000586	5.860694	1.985657	0.046784
 494	2.4650e-01	19.6871	138.482490	0.000546	5.456508	1.848715	0.043557
 495	2.4700e-01	19.7305	138.821270	0.000849	8.487902	2.875779	0.067756
 496	2.4750e-01	19.7674	139.127786	0.000768	7.679530	2.601895	0.061303
 497	2.4800e-01	19.8091	139.466566	0.000849	8.487902	2.875779	0.067756
 498	2.4850e-01	19.8604	139.696453	0.000576	5.759648	1.951422	0.045977
 499	2.4900e-01	19.8861	139.978770	0.000707	7.073252	2.396483	0.056463
 500	2.4950e-01	19.9326	140.208656	0.000576	5.759648	1.951422	0.045977
 501	2.5000e-01	19.9631	140.482907	0.000687	6.871159	2.328012	0.054850
 502	2.5050e-01	19.9775	140.712794	0.000576	5.759648	1.951422	0.045977
 503	2.5100e-01	19.9486	140.745058	-0.000081	-0.808372	-0.273884	0.006453
 504	2.5150e-01	19.9182	140.680529	0.000162	1.616743	0.547767	-0.012906
 505	2.5200e-01	19.8748	140.486940	0.000485	4.850230	1.643302	-0.038718
 506	2.5250e-01	19.8363	140.329649	0.000394	3.940812	1.335183	-0.031458
 507	2.5300e-01	19.8043	140.103796	0.000566	5.658601	1.917186	-0.045171
 508	2.5350e-01	19.7529	139.881975	0.000556	5.557555	1.882951	-0.044364
 509	2.5400e-01	19.7160	139.692420	0.000475	4.749183	1.609067	-0.037911
 510	2.5450e-01	19.6727	139.579493	0.000283	2.829301	0.958593	-0.022585
 511	2.5500e-01	19.6438	139.268944	0.000778	7.780577	2.636131	-0.062110
 512	2.5550e-01	19.5941	138.982594	0.000717	7.174298	2.430718	-0.057270
 513	2.5600e-01	19.5540	138.680112	0.000758	7.578484	2.567660	-0.060496
 514	2.5650e-01	19.5203	138.494589	0.000465	4.648137	1.574831	-0.037105
 515	2.5700e-01	19.4786	138.381663	0.000283	2.829301	0.958593	-0.022585
 516	2.5750e-01	19.4353	138.248570	0.000333	3.334533	1.129770	-0.026618
 517	2.5800e-01	19.3968	137.917856	0.000829	8.285809	2.807308	-0.066143
 518	2.5850e-01	19.3599	137.562944	0.000889	8.892088	3.012721	-0.070983
 519	2.5900e-01	19.3150	137.482282	0.000202	2.020929	0.684709	-0.016132
 520	2.5950e-01	19.2797	137.147535	0.000839	8.386856	2.841544	-0.066949
 521	2.6000e-01	19.2348	136.966045	0.000455	4.547090	1.540596	-0.036298
 522	2.6050e-01	19.1882	136.776489	0.000475	4.749183	1.609067	-0.037911
 523	2.6100e-01	19.1497	136.566768	0.000525	5.254416	1.780244	-0.041944
 524	2.6150e-01	19.1080	136.312683	0.000637	6.365927	2.156834	-0.050817
 525	2.6200e-01	19.0775	136.010201	0.000758	7.578484	2.567660	-0.060496
 526	2.6250e-01	19.0422	135.925506	0.000212	2.121976	0.718945	-0.016939
 527	2.6300e-01	19.0021	135.627056	0.000748	7.477438	2.533424	-0.059690
 528	2.6350e-01	18.9508	135.340706	0.000717	7.174298	2.430718	-0.057270
 529	2.6400e-01	18.9155	135.159217	0.000455	4.547090	1.540596	-0.036298
 530	2.6450e-01	18.8786	134.993860	0.000414	4.142905	1.403654	-0.033071
 531	2.6500e-01	18.8369	134.642980	0.000879	8.791041	2.978485	-0.070176
 532	2.6550e-01	18.8016	134.441325	0.000505	5.052323	1.711773	-0.040331
 533	2.6600e-01	18.7503	134.255803	0.000465	4.648137	1.574831	-0.037105
 534	2.6650e-01	18.7134	133.993651	0.000657	6.568019	2.225305	-0.052430
 535	2.6700e-01	18.6765	133.751665	0.000606	6.062787	2.054128	-0.048397
 536	2.6750e-01	18.6396	133.509680	0.000606	6.062787	2.054128	-0.048397
 537	2.6800e-01	18.5963	133.271727	0.000596	5.961741	2.019892	-0.047591
 538	2.6850e-01	18.5513	132.985377	0.000717	7.174298	2.430718	-0.057270
 539	2.6900e-01	18.5128	132.820020	0.000414	4.142905	1.403654	-0.033071
 540	2.6950e-01	18.4808	132.537703	0.000707	7.073252	2.396483	-0.056463
 541	2.7000e-01	18.4503	132.235220	0.000758	7.578484	2.567660	-0.060496
 542	2.7050e-01	18.3957	132.065830	0.000424	4.243951	1.437890	-0.033878
 543	2.7100e-01	18.3572	131.880308	0.000465	4.648137	1.574831	-0.037105
 544	2.7150e-01	18.3235	131.622189	0.000647	6.466973	2.191070	-0.051624
 545	2.7200e-01	18.2786	131.307608	0.000788	7.881623	2.670366	-0.062916
 546	2.7250e-01	18.2417	131.097887	0.000525	5.254416	1.780244	-0.041944
 547	2.7300e-01	18.1920	130.872033	0.000566	5.658601	1.917186	-0.045171
 548	2.7350e-01	18.1647	130.662312	0.000525	5.254416	1.780244	-0.041944
 549	2.7400e-01	18.1182	130.355796	0.000768	7.679530	2.601895	-0.061303
 550	2.7450e-01	18.0733	130.093645	0.000657	6.568019	2.225305	-0.052430
 551	2.7500e-01	18.0348	129.879891	0.000536	5.355462	1.814480	-0.042751
 552	2.7550e-01	17.9963	129.686302	0.000485	4.850230	1.643302	-0.038718
 553	2.7600e-01	17.9546	129.383820	0.000758	7.578484	2.567660	-0.060496
 554	2.7650e-01	17.9145	129.182165	0.000505	5.052323	1.711773	-0.040331
 555	2.7700e-01	17.8760	128.911947	0.000677	6.770112	2.293776	-0.054044
 556	2.7750e-01	17.8423	128.714325	0.000495	4.951276	1.677538	-0.039524
 557	2.7800e-01	17.7942	128.343280	0.000930	9.296274	3.149663	-0.074209
 558	2.7850e-01	17.7573	128.081129	0.000657	6.568019	2.225305	-0.052430
 559	2.7900e-01	17.7155	127.907706	0.000434	4.344998	1.472125	-0.034685
 560	2.7950e-01	17.6802	127.645554	0.000657	6.568019	2.225305	-0.052430
 561	2.8000e-01	17.6257	127.435833	0.000525	5.254416	1.780244	-0.041944
 562	2.8050e-01	17.5984	127.157549	0.000697	6.972205	2.362247	-0.055657
 563	2.8100e-01	17.5455	126.903464	0.000637	6.365927	2.156834	-0.050817
 564	2.8150e-01	17.5134	126.657445	0.000616	6.163834	2.088363	-0.049204
 565	2.8200e-01	17.4701	126.371095	0.000717	7.174298	2.430718	-0.057270
 566	2.8250e-01	17.4396	126.117010	0.000637	6.365927	2.156834	-0.050817
 567	2.8300e-01	17.3963	125.806461	0.000778	7.780577	2.636131	-0.062110
 568	2.8350e-01	17.3642	125.600773	0.000515	5.153369	1.746009	-0.041138
 569	2.8400e-01	17.3177	125.403151	0.000495	4.951276	1.677538	-0.039524
 570	2.8450e-01	17.2664	125.161165	0.000606	6.062787	2.054128	-0.048397
 571	2.8500e-01	17.2391	124.846584	0.000788	7.881623	2.670366	-0.062916
 572	2.8550e-01	17.1974	124.608631	0.000596	5.961741	2.019892	-0.047591
 573	2.8600e-01	17.1573	124.358579	0.000626	6.264880	2.122599	-0.050010
 574	2.8650e-01	17.1172	124.140792	0.000546	5.456508	1.848715	-0.043557
 575	2.8700e-01	17.0819	123.882673	0.000647	6.466973	2.191070	-0.051624
 576	2.8750e-01	17.0386	123.628588	0.000637	6.365927	2.156834	-0.050817
 577	2.8800e-01	16.9840	123.374503	0.000637	6.365927	2.156834	-0.050817
 578	2.8850e-01	16.9455	123.080087	0.000738	7.376391	2.499189	-0.058883
 579	2.8900e-01	16.9038	122.862299	0.000546	5.456508	1.848715	-0.043557
 580	2.8950e-01	16.8653	122.527552	0.000839	8.386856	2.841544	-0.066949
 581	2.9000e-01	16.8284	122.337996	0.000475	4.749183	1.609067	-0.037911
 582	2.9050e-01	16.7995	122.055680	0.000707	7.073252	2.396483	-0.056463
 583	2.9100e-01	16.7578	121.898389	0.000394	3.940812	1.335183	-0.031458
 584	2.9150e-01	16.7161	121.559608	0.000849	8.487902	2.875779	-0.067756
 585	2.9200e-01	16.6728	121.317623	0.000606	6.062787	2.054128	-0.048397
 586	2.9250e-01	16.6359	121.043372	0.000687	6.871159	2.328012	-0.054850
 587	2.9300e-01	16.5862	120.865915	0.000445	4.446044	1.506360	-0.035491
 588	2.9350e-01	16.5621	120.595698	0.000677	6.770112	2.293776	-0.054044
 589	2.9400e-01	16.5156	120.200454	0.000990	9.902552	3.355076	-0.079049
 590	2.9450e-01	16.4771	119.994766	0.000515	5.153369	1.746009	-0.041138
 591	2.9500e-01	16.4322	119.748747	0.000616	6.163834	2.088363	-0.049204
 592	2.9550e-01	16.3953	119.595489	0.000384	3.839765	1.300948	-0.030652
 593	2.9600e-01	16.3632	119.256709	0.000849	8.487902	2.875779	-0.067756
 594	2.9650e-01	16.3167	118.990525	0.000667	6.669066	2.259541	-0.053237
 595	2.9700e-01	16.2765	118.712241	0.000697	6.972205	2.362247	-0.055657
 596	2.9750e-01	16.2348	118.462189	0.000626	6.264880	2.122599	-0.050010
 597	2.9800e-01	16.1979	118.139541	0.000808	8.083716	2.738837	-0.064530
 598	2.9850e-01	16.1594	117.877389	0.000657	6.568019	2.225305	-0.052430
 599	2.9900e-01	16.1081	117.679768	0.000495	4.951276	1.677538	-0.039524
 600	2.9950e-01	16.0728	117.425682	0.000637	6.365927	2.156834	-0.050817
 601	3.0000e-01	16.0279	117.224027	0.000505	5.052323	1.711773	-0.040331
 602	3.0050e-01	16.0038	116.840883	0.000960	9.599413	3.252369	-0.076629
 603	3.0100e-01	15.9541	116.647294	0.000485	4.850230	1.643302	-0.038718
 604	3.0150e-01	15.9172	116.336746	0.000778	7.780577	2.636131	-0.062110
 605	3.0200e-01	15.8787	116.143157	0.000485	4.850230	1.643302	-0.038718
 606	3.0250e-01	15.8370	115.933436	0.000525	5.254416	1.780244	-0.041944
 607	3.0300e-01	15.7985	115.570457	0.000909	9.094181	3.081192	-0.072596
 608	3.0350e-01	15.7648	115.288140	0.000707	7.073252	2.396483	-0.056463
 609	3.0400e-01	15.7247	114.965492	0.000808	8.083716	2.738837	-0.064530
 610	3.0450e-01	15.6734	114.816268	0.000374	3.738719	1.266712	-0.029845
 611	3.0500e-01	15.6316	114.489587	0.000818	8.184763	2.773073	-0.065336
 612	3.0550e-01	15.5947	114.199203	0.000728	7.275345	2.464953	-0.058077
 613	3.0600e-01	15.5627	113.945118	0.000637	6.365927	2.156834	-0.050817
 614	3.0650e-01	15.5258	113.727331	0.000546	5.456508	1.848715	-0.043557
 615	3.0700e-01	15.4760	113.501477	0.000566	5.658601	1.917186	-0.045171
 616	3.0750e-01	15.4359	113.174796	0.000818	8.184763	2.773073	-0.065336
 617	3.0800e-01	15.4054	112.904579	0.000677	6.770112	2.293776	-0.054044
 618	3.0850e-01	15.3557	112.678725	0.000566	5.658601	1.917186	-0.045171
 619	3.0900e-01	15.3124	112.380276	0.000748	7.477438	2.533424	-0.059690
 620	3.0950e-01	15.2739	112.122158	0.000647	6.466973	2.191070	-0.051624
 621	3.1000e-01	15.2402	111.872106	0.000626	6.264880	2.122599	-0.050010
 622	3.1050e-01	15.2017	111.674484	0.000495	4.951276	1.677538	-0.039524
 623	3.1100e-01	15.1632	111.279240	0.000990	9.902552	3.355076	-0.079049
 624	3.1150e-01	15.1135	111.069519	0.000525	5.254416	1.780244	-0.041944
 625	3.1200e-01	15.0734	110.855765	0.000536	5.355462	1.814480	-0.042751
 626	3.1250e-01	15.0333	110.565382	0.000728	7.275345	2.464953	-0.058077
 627	3.1300e-01	15.0060	110.315330	0.000626	6.264880	2.122599	-0.050010
 628	3.1350e-01	14.9531	109.984615	0.000829	8.285809	2.807308	-0.066143
 629	3.1400e-01	14.9194	109.782961	0.000505	5.052323	1.711773	-0.040331
 630	3.1450e-01	14.8744	109.512743	0.000677	6.770112	2.293776	-0.054044
 631	3.1500e-01	14.8408	109.246558	0.000667	6.669066	2.259541	-0.053237
 632	3.1550e-01	14.8039	108.887613	0.000899	8.993134	3.046956	-0.071789
 633	3.1600e-01	14.7525	108.681925	0.000515	5.153369	1.746009	-0.041138
 634	3.1650e-01	14.7188	108.331045	0.000879	8.791041	2.978485	-0.070176
 635	3.1700e-01	14.6771	108.133423	0.000495	4.951276	1.677538	-0.039524
 636	3.1750e-01	14.6370	107.891437	0.000606	6.062787	2.054128	-0.048397
 637	3.1800e-01	14.5857	107.645418	0.000616	6.163834	2.088363	-0.049204
 638	3.1850e-01	14.5568	107.359068	0.000717	7.174298	2.430718	-0.057270
 639	3.1900e-01	14.5103	107.080784	0.000697	6.972205	2.362247	-0.055657
 640	3.1950e-01	14.4766	106.806534	0.000687	6.871159	2.328012	-0.054850
 641	3.2000e-01	14.4349	106.500018	0.000768	7.679530	2.601895	-0.061303
 642	3.2050e-01	14.3948	106.278198	0.000556	5.557555	1.882951	-0.044364
 643	3.2100e-01	14.3579	105.971682	0.000768	7.679530	2.601895	-0.061303
 644	3.2150e-01	14.3162	105.693399	0.000697	6.972205	2.362247	-0.055657
 645	3.2200e-01	14.2697	105.435280	0.000647	6.466973	2.191070	-0.051624
 646	3.2250e-01	14.2392	105.181195	0.000637	6.365927	2.156834	-0.050817
 647	3.2300e-01	14.1910	104.902911	0.000697	6.972205	2.362247	-0.055657
 648	3.2350e-01	14.1558	104.697223	0.000515	5.153369	1.746009	-0.041138
 649	3.2400e-01	14.1205	104.330211	0.000920	9.195227	3.115427	-0.073402
 650	3.2450e-01	14.0804	104.080159	0.000626	6.264880	2.122599	-0.050010
 651	3.2500e-01	14.0386	103.818008	0.000657	6.568019	2.225305	-0.052430
 652	3.2550e-01	13.9953	103.515525	0.000758	7.578484	2.567660	-0.060496
 653	3.2600e-01	13.9568	103.237241	0.000697	6.972205	2.362247	-0.055657
 654	3.2650e-01	13.9151	103.015421	0.000556	5.557555	1.882951	-0.044364
 655	3.2700e-01	13.8702	102.733104	0.000707	7.073252	2.396483	-0.056463
 656	3.2750e-01	13.8397	102.386258	0.000869	8.689995	2.944250	-0.069369
 657	3.2800e-01	13.8012	102.140239	0.000616	6.163834	2.088363	-0.049204
 658	3.2850e-01	13.7563	101.861955	0.000697	6.972205	2.362247	-0.055657
 659	3.2900e-01	13.7162	101.591737	0.000677	6.770112	2.293776	-0.054044
 660	3.2950e-01	13.6761	101.337652	0.000637	6.365927	2.156834	-0.050817
 661	3.3000e-01	13.6360	101.067434	0.000677	6.770112	2.293776	-0.054044
 662	3.3050e-01	13.5959	100.793184	0.000687	6.871159	2.328012	-0.054850
 663	3.3100e-01	13.5526	100.458437	0.000839	8.386856	2.841544	-0.066949
 664	3.3150e-01	13.5141	100.172087	0.000717	7.174298	2.430718	-0.057270
 665	3.3200e-01	13.4723	99.922034	0.000626	6.264880	2.122599	-0.050010
 666	3.3250e-01	13.4451	99.692148	0.000576	5.759648	1.951422	-0.045977
 667	3.3300e-01	13.4002	99.329169	0.000909	9.094181	3.081192	-0.072596
 668	3.3350e-01	13.3552	99.062984	0.000667	6.669066	2.259541	-0.053237
 669	3.3400e-01	13.3183	98.849230	0.000536	5.355462	1.814480	-0.042751
 670	3.3450e-01	13.2750	98.542715	0.000768	7.679530	2.601895	-0.061303
 671	3.3500e-01	13.2253	98.276530	0.000667	6.669066	2.259541	-0.053237
 672	3.3550e-01	13.1980	98.054710	0.000556	5.557555	1.882951	-0.044364
 673	3.3600e-01	13.1563	97.744161	0.000778	7.780577	2.636131	-0.062110
 674	3.3650e-01	13.1258	97.449745	0.000738	7.376391	2.499189	-0.058883
 675	3.3700e-01	13.0729	97.183560	0.000667	6.669066	2.259541	-0.053237
 676	3.3750e-01	13.0360	96.893177	0.000728	7.275345	2.464953	-0.058077
 677	3.3800e-01	12.9927	96.631026	0.000657	6.568019	2.225305	-0.052430
 678	3.3850e-01	12.9670	96.348709	0.000707	7.073252	2.396483	-0.056463
 679	3.3900e-01	12.9173	95.961532	0.000970	9.700460	3.286605	-0.077435
 680	3.3950e-01	12.8708	95.711479	0.000626	6.264880	2.122599	-0.050010
 681	3.4000e-01	12.8323	95.461427	0.000626	6.264880	2.122599	-0.050010
 682	3.4050e-01	12.8066	95.267839	0.000485	4.850230	1.643302	-0.038718
 683	3.4100e-01	12.7681	94.916959	0.000879	8.791041	2.978485	-0.070176
 684	3.4150e-01	12.7135	94.622543	0.000738	7.376391	2.499189	-0.058883
 685	3.4200e-01	12.6783	94.360391	0.000657	6.568019	2.225305	-0.052430
 686	3.4250e-01	12.6398	94.134538	0.000566	5.658601	1.917186	-0.045171
 687	3.4300e-01	12.5980	93.868353	0.000667	6.669066	2.259541	-0.053237
 688	3.4350e-01	12.5627	93.626368	0.000606	6.062787	2.054128	-0.048397
 689	3.4400e-01	12.5178	93.380348	0.000616	6.163834	2.088363	-0.049204
 690	3.4450e-01	12.4841	93.037535	0.000859	8.588949	2.910015	-0.068563
 691	3.4500e-01	12.4456	92.771351	0.000667	6.669066	2.259541	-0.053237
 692	3.4550e-01	12.4007	92.400306	0.000930	9.296274	3.149663	-0.074209
 693	3.4600e-01	12.3574	92.202684	0.000495	4.951276	1.677538	-0.039524
 694	3.4650e-01	12.3189	91.900201	0.000758	7.578484	2.567660	-0.060496
 695	3.4700e-01	12.2788	91.561421	0.000849	8.487902	2.875779	-0.067756
 696	3.4750e-01	12.2355	91.295237	0.000667	6.669066	2.259541	-0.053237
 697	3.4800e-01	12.2034	90.936291	0.000899	8.993134	3.046956	-0.071789
 698	3.4850e-01	12.1601	90.730603	0.000515	5.153369	1.746009	-0.041138
 699	3.4900e-01	12.1280	90.468451	0.000657	6.568019	2.225305	-0.052430
 700	3.4950e-01	12.0783	90.170002	0.000748	7.477438	2.533424	-0.059690
 701	3.5000e-01	12.0350	89.851387	0.000798	7.982670	2.704602	-0.063723
 702	3.5050e-01	11.9900	89.613434	0.000596	5.961741	2.019892	-0.047591
 703	3.5100e-01	11.9563	89.371448	0.000606	6.062787	2.054128	-0.048397
 704	3.5150e-01	11.9259	89.044767	0.000818	8.184763	2.773073	-0.065336
 705	3.5200e-01	11.8777	88.758417	0.000717	7.174298	2.430718	-0.057270
 706	3.5250e-01	11.8457	88.431737	0.000818	8.184763	2.773073	-0.065336
 707	3.5300e-01	11.7911	88.173618	0.000647	6.466973	2.191070	-0.051624
 708	3.5350e-01	11.7622	87.879202	0.000738	7.376391	2.499189	-0.058883
 709	3.5400e-01	11.7173	87.657382	0.000556	5.557555	1.882951	-0.044364
 710	3.5450e-01	11.6804	87.318601	0.000849	8.487902	2.875779	-0.067756
 711	3.5500e-01	11.6307	86.991920	0.000818	8.184763	2.773073	-0.065336
 712	3.5550e-01	11.5890	86.753967	0.000596	5.961741	2.019892	-0.047591
 713	3.5600e-01	11.5617	86.407121	0.000869	8.689995	2.944250	-0.069369
 714	3.5650e-01	11.5168	86.096572	0.000778	7.780577	2.636131	-0.062110
 715	3.5700e-01	11.4735	85.854586	0.000606	6.062787	2.054128	-0.048397
 716	3.5750e-01	11.4398	85.584369	0.000677	6.770112	2.293776	-0.054044
 717	3.5800e-01	11.3997	85.382714	0.000505	5.052323	1.711773	-0.040331
 718	3.5850e-01	11.3580	85.011669	0.000930	9.296274	3.149663	-0.074209
 719	3.5900e-01	11.3259	84.733385	0.000697	6.972205	2.362247	-0.055657
 720	3.5950e-01	11.2713	84.370406	0.000909	9.094181	3.081192	-0.072596
 721	3.6000e-01	11.2328	84.188917	0.000455	4.547090	1.540596	-0.036298
 722	3.6050e-01	11.2104	83.809806	0.000950	9.498367	3.218134	-0.075822
 723	3.6100e-01	11.1574	83.503290	0.000768	7.679530	2.601895	-0.061303
 724	3.6150e-01	11.1093	83.233072	0.000677	6.770112	2.293776	-0.054044
 725	3.6200e-01	11.0788	82.966888	0.000667	6.669066	2.259541	-0.053237
 726	3.6250e-01	11.0467	82.587777	0.000950	9.498367	3.218134	-0.075822
 727	3.6300e-01	10.9986	82.337725	0.000626	6.264880	2.122599	-0.050010
 728	3.6350e-01	10.9537	82.184467	0.000384	3.839765	1.300948	-0.030652
 729	3.6400e-01	10.9216	81.829554	0.000889	8.892088	3.012721	-0.070983
 730	3.6450e-01	10.8671	81.470608	0.000899	8.993134	3.046956	-0.071789
 731	3.6500e-01	10.8302	81.264920	0.000515	5.153369	1.746009	-0.041138
 732	3.6550e-01	10.7997	80.950339	0.000788	7.881623	2.670366	-0.062916
 733	3.6600e-01	10.7500	80.692220	0.000647	6.466973	2.191070	-0.051624
 734	3.6650e-01	10.7211	80.426036	0.000667	6.669066	2.259541	-0.053237
 735	3.6700e-01	10.6794	80.034825	0.000980	9.801506	3.320840	-0.078242
 736	3.6750e-01	10.6393	79.744442	0.000728	7.275345	2.464953	-0.058077
 737	3.6800e-01	10.6024	79.441960	0.000758	7.578484	2.567660	-0.060496
 738	3.6850e-01	10.5591	79.232239	0.000525	5.254416	1.780244	-0.041944
 739	3.6900e-01	10.5174	78.913624	0.000798	7.982670	2.704602	-0.063723
 740	3.6950e-01	10.4821	78.607108	0.000768	7.679530	2.601895	-0.061303
 741	3.7000e-01	10.4323	78.264295	0.000859	8.588949	2.910015	-0.068563
 742	3.7050e-01	10.3938	77.981978	0.000707	7.073252	2.396483	-0.056463
 743	3.7100e-01	10.3569	77.703694	0.000697	6.972205	2.362247	-0.055657
 744	3.7150e-01	10.3104	77.421377	0.000707	7.073252	2.396483	-0.056463
 745	3.7200e-01	10.2799	77.251987	0.000424	4.243951	1.437890	-0.033878
 746	3.7250e-01	10.2382	76.909174	0.000859	8.588949	2.910015	-0.068563
 747	3.7300e-01	10.2013	76.542162	0.000920	9.195227	3.115427	-0.073402
 748	3.7350e-01	10.1660	76.263878	0.000697	6.972205	2.362247	-0.055657
 749	3.7400e-01	10.1147	75.953329	0.000778	7.780577	2.636131	-0.062110
 750	3.7450e-01	10.0890	75.614549	0.000849	8.487902	2.875779	-0.067756
 751	3.7500e-01	10.0313	75.336265	0.000697	6.972205	2.362247	-0.055657
 752	3.7550e-01	10.0008	75.074114	0.000657	6.568019	2.225305	-0.052430
 753	3.7600e-01	9.9559	74.815996	0.000647	6.466973	2.191070	-0.051624
 754	3.7650e-01	9.9158	74.557877	0.000647	6.466973	2.191070	-0.051624
 755	3.7700e-01	9.8741	74.182799	0.000940	9.397320	3.183898	-0.075016
 756	3.7750e-01	9.8339	73.831920	0.000879	8.791041	2.978485	-0.070176
 757	3.7800e-01	9.7970	73.706894	0.000313	3.132440	1.061299	-0.025005
 758	3.7850e-01	9.7585	73.315683	0.000980	9.801506	3.320840	-0.078242
 759	3.7900e-01	9.7168	72.948671	0.000920	9.195227	3.115427	-0.073402
 760	3.7950e-01	9.6799	72.759115	0.000475	4.749183	1.609067	-0.037911
 761	3.8000e-01	9.6446	72.492931	0.000667	6.669066	2.259541	-0.053237
 762	3.8050e-01	9.6061	72.146084	0.000869	8.689995	2.944250	-0.069369
 763	3.8100e-01	9.5612	71.807304	0.000849	8.487902	2.875779	-0.067756
 764	3.8150e-01	9.5147	71.480623	0.000818	8.184763	2.773073	-0.065336
 765	3.8200e-01	9.4906	71.230571	0.000626	6.264880	2.122599	-0.050010
 766	3.8250e-01	9.4329	70.899857	0.000829	8.285809	2.807308	-0.066143
 767	3.8300e-01	9.3912	70.605441	0.000738	7.376391	2.499189	-0.058883
 768	3.8350e-01	9.3607	70.302958	0.000758	7.578484	2.567660	-0.060496
 769	3.8400e-01	9.3222	69.964178	0.000849	8.487902	2.875779	-0.067756
 770	3.8450e-01	9.2757	69.746391	0.000546	5.456508	1.848715	-0.043557
 771	3.8500e-01	9.2388	69.439875	0.000768	7.679530	2.601895	-0.061303
 772	3.8550e-01	9.2083	69.093029	0.000869	8.689995	2.944250	-0.069369
 773	3.8600e-01	9.1505	68.802646	0.000728	7.275345	2.464953	-0.058077
 774	3.8650e-01	9.1185	68.504196	0.000748	7.477438	2.533424	-0.059690
 775	3.8700e-01	9.0784	68.266243	0.000596	5.961741	2.019892	-0.047591
 776	3.8750e-01	9.0431	67.883099	0.000960	9.599413	3.252369	-0.076629
 777	3.8800e-01	8.9981	67.532220	0.000879	8.791041	2.978485	-0.070176
 778	3.8850e-01	8.9564	67.334598	0.000495	4.951276	1.677538	-0.039524
 779	3.8900e-01	8.9179	67.064380	0.000677	6.770112	2.293776	-0.054044
 780	3.8950e-01	8.8810	66.782063	0.000707	7.073252	2.396483	-0.056463
 781	3.9000e-01	8.8377	66.435217	0.000869	8.689995	2.944250	-0.069369
 782	3.9050e-01	8.7960	66.169032	0.000667	6.669066	2.259541	-0.053237
 783	3.9100e-01	8.7591	65.854451	0.000788	7.881623	2.670366	-0.062916
 784	3.9150e-01	8.7158	65.648762	0.000515	5.153369	1.746009	-0.041138
 785	3.9200e-01	8.6741	65.281751	0.000920	9.195227	3.115427	-0.073402
 786	3.9250e-01	8.6452	64.902639	0.000950	9.498367	3.218134	-0.075822
 787	3.9300e-01	8.5907	64.632422	0.000677	6.770112	2.293776	-0.054044
 788	3.9350e-01	8.5554	64.321873	0.000778	7.780577	2.636131	-0.062110
 789	3.9400e-01	8.5105	64.071821	0.000626	6.264880	2.122599	-0.050010
 790	3.9450e-01	8.4720	63.789504	0.000707	7.073252	2.396483	-0.056463
 791	3.9500e-01	8.4383	63.398293	0.000980	9.801506	3.320840	-0.078242
 792	3.9550e-01	8.4014	63.055480	0.000859	8.588949	2.910015	-0.068563
 793	3.9600e-01	8.3613	62.761064	0.000738	7.376391	2.499189	-0.058883
 794	3.9650e-01	8.3212	62.490846	0.000677	6.770112	2.293776	-0.054044
 795	3.9700e-01	8.2730	62.273059	0.000546	5.456508	1.848715	-0.043557
 796	3.9750e-01	8.2409	61.970577	0.000758	7.578484	2.567660	-0.060496
 797	3.9800e-01	8.1992	61.595498	0.000940	9.397320	3.183898	-0.075016
 798	3.9850e-01	8.1511	61.268817	0.000818	8.184763	2.773073	-0.065336
 799	3.9900e-01	8.1174	60.962302	0.000768	7.679530	2.601895	-0.061303
 800	3.9950e-01	8.0837	60.671919	0.000728	7.275345	2.464953	-0.058077
 801	4.0000e-01	8.0404	60.357337	0.000788	7.881623	2.670366	-0.062916
 802	4.0050e-01	7.9939	60.066954	0.000728	7.275345	2.464953	-0.058077
 803	4.0100e-01	7.9602	59.829001	0.000596	5.961741	2.019892	-0.047591
 804	4.0150e-01	7.9233	59.449890	0.000950	9.498367	3.218134	-0.075822
 805	4.0200e-01	7.8736	59.171606	0.000697	6.972205	2.362247	-0.055657
 806	4.0250e-01	7.8431	58.812660	0.000899	8.993134	3.046956	-0.071789
 807	4.0300e-01	7.7998	58.562608	0.000626	6.264880	2.122599	-0.050010
 808	4.0350e-01	7.7613	58.264159	0.000748	7.477438	2.533424	-0.059690
 809	4.0400e-01	7.7148	57.945544	0.000798	7.982670	2.704602	-0.063723
 810	4.0450e-01	7.6827	57.578532	0.000920	9.195227	3.115427	-0.073402
 811	4.0500e-01	7.6378	57.308315	0.000677	6.770112	2.293776	-0.054044
 812	4.0550e-01	7.6009	57.013898	0.000738	7.376391	2.499189	-0.058883
 813	4.0600e-01	7.5511	56.755780	0.000647	6.466973	2.191070	-0.051624
 814	4.0650e-01	7.5126	56.473463	0.000707	7.073252	2.396483	-0.056463
 815	4.0700e-01	7.4821	56.138716	0.000839	8.386856	2.841544	-0.066949
 816	4.0750e-01	7.4324	55.779770	0.000899	8.993134	3.046956	-0.071789
 817	4.0800e-01	7.3955	55.493420	0.000717	7.174298	2.430718	-0.057270
 818	4.0850e-01	7.3666	55.211103	0.000707	7.073252	2.396483	-0.056463
 819	4.0900e-01	7.3153	54.807793	0.001010	10.104645	3.423547	-0.080662
 820	4.0950e-01	7.2752	54.489179	0.000798	7.982670	2.704602	-0.063723
 821	4.1000e-01	7.2335	54.218961	0.000677	6.770112	2.293776	-0.054044
 822	4.1050e-01	7.1966	53.985041	0.000586	5.860694	1.985657	-0.046784
 823	4.1100e-01	7.1565	53.690625	0.000738	7.376391	2.499189	-0.058883
 824	4.1150e-01	7.1260	53.404275	0.000717	7.174298	2.430718	-0.057270
 825	4.1200e-01	7.0763	53.045329	0.000899	8.993134	3.046956	-0.071789
 826	4.1250e-01	7.0426	52.714615	0.000829	8.285809	2.807308	-0.066143
 827	4.1300e-01	6.9977	52.416166	0.000748	7.477438	2.533424	-0.059690
 828	4.1350e-01	6.9608	52.037055	0.000950	9.498367	3.218134	-0.075822
 829	4.1400e-01	6.9142	51.815234	0.000556	5.557555	1.882951	-0.044364
 830	4.1450e-01	6.8806	51.444189	0.000930	9.296274	3.149663	-0.074209
 831	4.1500e-01	6.8421	51.137674	0.000768	7.679530	2.601895	-0.061303
 832	4.1550e-01	6.7907	50.891655	0.000616	6.163834	2.088363	-0.049204
 833	4.1600e-01	6.7634	50.548841	0.000859	8.588949	2.910015	-0.068563
 834	4.1650e-01	6.7298	50.222160	0.000818	8.184763	2.773073	-0.065336
 835	4.1700e-01	6.6768	49.915645	0.000768	7.679530	2.601895	-0.061303
 836	4.1750e-01	6.6335	49.540567	0.000940	9.397320	3.183898	-0.075016
 837	4.1800e-01	6.6030	49.318746	0.000556	5.557555	1.882951	-0.044364
 838	4.1850e-01	6.5597	49.020297	0.000748	7.477438	2.533424	-0.059690
 839	4.1900e-01	6.5196	48.774278	0.000616	6.163834	2.088363	-0.049204
 840	4.1950e-01	6.4779	48.330637	0.001112	11.115110	3.765901	-0.088728
 841	4.2000e-01	6.4394	48.020089	0.000778	7.780577	2.636131	-0.062110
 842	4.2050e-01	6.4009	47.729705	0.000728	7.275345	2.464953	-0.058077
 843	4.2100e-01	6.3528	47.435289	0.000738	7.376391	2.499189	-0.058883
 844	4.2150e-01	6.3127	47.152972	0.000707	7.073252	2.396483	-0.056463
 845	4.2200e-01	6.2742	46.838391	0.000788	7.881623	2.670366	-0.062916
 846	4.2250e-01	6.2389	46.644802	0.000485	4.850230	1.643302	-0.038718
 847	4.2300e-01	6.1955	46.301989	0.000859	8.588949	2.910015	-0.068563
 848	4.2350e-01	6.1603	45.926910	0.000940	9.397320	3.183898	-0.075016
 849	4.2400e-01	6.1121	45.535700	0.000980	9.801506	3.320840	-0.078242
 850	4.2450e-01	6.0784	45.273548	0.000657	6.568019	2.225305	-0.052430
 851	4.2500e-01	6.0399	44.898470	0.000940	9.397320	3.183898	-0.075016
 852	4.2550e-01	5.9982	44.604054	0.000738	7.376391	2.499189	-0.058883
 853	4.2600e-01	5.9597	44.309638	0.000738	7.376391	2.499189	-0.058883
 854	4.2650e-01	5.9164	43.910361	0.001000	10.003599	3.389311	-0.079855
 855	4.2700e-01	5.8827	43.704673	0.000515	5.153369	1.746009	-0.041138
 856	4.2750e-01	5.8362	43.382025	0.000808	8.083716	2.738837	-0.064530
 857	4.2800e-01	5.8009	43.043245	0.000849	8.487902	2.875779	-0.067756
 858	4.2850e-01	5.7576	42.720597	0.000808	8.083716	2.738837	-0.064530
 859	4.2900e-01	5.7143	42.430214	0.000728	7.275345	2.464953	-0.058077
 860	4.2950e-01	5.6774	42.188228	0.000606	6.062787	2.054128	-0.048397
 861	4.3000e-01	5.6389	41.825249	0.000909	9.094181	3.081192	-0.072596
 862	4.3050e-01	5.6020	41.506634	0.000798	7.982670	2.704602	-0.063723
 863	4.3100e-01	5.5603	41.200119	0.000768	7.679530	2.601895	-0.061303
 864	4.3150e-01	5.5154	40.764544	0.001091	10.913017	3.697430	-0.087115
 865	4.3200e-01	5.4720	40.526591	0.000596	5.961741	2.019892	-0.047591
 866	4.3250e-01	5.4319	40.175712	0.000879	8.791041	2.978485	-0.070176
 867	4.3300e-01	5.3966	39.816766	0.000899	8.993134	3.046956	-0.071789
 868	4.3350e-01	5.3533	39.514284	0.000758	7.578484	2.567660	-0.060496
 869	4.3400e-01	5.3148	39.240033	0.000687	6.871159	2.328012	-0.054850
 870	4.3450e-01	5.2715	39.010146	0.000576	5.759648	1.951422	-0.045977
 871	4.3500e-01	5.2346	38.594737	0.001041	10.407785	3.526253	-0.083082
 872	4.3550e-01	5.1993	38.368884	0.000566	5.658601	1.917186	-0.045171
 873	4.3600e-01	5.1624	38.030103	0.000849	8.487902	2.875779	-0.067756
 874	4.3650e-01	5.1287	37.727621	0.000758	7.578484	2.567660	-0.060496
 875	4.3700e-01	5.0806	37.376741	0.000879	8.791041	2.978485	-0.070176
 876	4.3750e-01	5.0341	37.037961	0.000849	8.487902	2.875779	-0.067756
 877	4.3800e-01	4.9924	36.791942	0.000616	6.163834	2.088363	-0.049204
 878	4.3850e-01	4.9475	36.465261	0.000818	8.184763	2.773073	-0.065336
 879	4.3900e-01	4.9202	36.106315	0.000899	8.993134	3.046956	-0.071789
 880	4.3950e-01	4.8817	35.763502	0.000859	8.588949	2.910015	-0.068563
 881	4.4000e-01	4.8352	35.440854	0.000808	8.083716	2.738837	-0.064530
 882	4.4050e-01	4.7934	35.198868	0.000606	6.062787	2.054128	-0.048397
 883	4.4100e-01	4.7566	34.920584	0.000697	6.972205	2.362247	-0.055657
 884	4.4150e-01	4.7245	34.549539	0.000930	9.296274	3.149663	-0.074209
 885	4.4200e-01	4.6812	34.126064	0.001061	10.609878	3.594724	-0.084695
 886	4.4250e-01	4.6362	33.888111	0.000596	5.961741	2.019892	-0.047591
 887	4.4300e-01	4.5961	33.533198	0.000889	8.892088	3.012721	-0.070983
 888	4.4350e-01	4.5592	33.194418	0.000849	8.487902	2.875779	-0.067756
 889	4.4400e-01	4.5159	32.867737	0.000818	8.184763	2.773073	-0.065336
 890	4.4450e-01	4.4774	32.645917	0.000556	5.557555	1.882951	-0.044364
 891	4.4500e-01	4.4373	32.250673	0.000990	9.902552	3.355076	-0.079049
 892	4.4550e-01	4.3924	31.907860	0.000859	8.588949	2.910015	-0.068563
 893	4.4600e-01	4.3635	31.645708	0.000657	6.568019	2.225305	-0.052430
 894	4.4650e-01	4.3154	31.355325	0.000728	7.275345	2.464953	-0.058077
 895	4.4700e-01	4.2721	31.052843	0.000758	7.578484	2.567660	-0.060496
 896	4.4750e-01	4.2336	30.714062	0.000849	8.487902	2.875779	-0.067756
 897	4.4800e-01	4.1951	30.343017	0.000930	9.296274	3.149663	-0.074209
 898	4.4850e-01	4.1598	30.004237	0.000849	8.487902	2.875779	-0.067756
 899	4.4900e-01	4.1181	29.641258	0.000909	9.094181	3.081192	-0.072596
 900	4.4950e-01	4.0796	29.395239	0.000616	6.163834	2.088363	-0.049204
 901	4.5000e-01	4.0282	29.120988	0.000687	6.871159	2.328012	-0.054850
 902	4.5050e-01	3.9977	28.782208	0.000849	8.487902	2.875779	-0.067756
 903	4.5100e-01	3.9496	28.548288	0.000586	5.860694	1.985657	-0.046784
 904	4.5150e-01	3.9223	28.124813	0.001061	10.609878	3.594724	-0.084695
 905	4.5200e-01	3.8806	27.798132	0.000818	8.184763	2.773073	-0.065336
 906	4.5250e-01	3.8421	27.560179	0.000596	5.961741	2.019892	-0.047591
 907	4.5300e-01	3.7940	27.213333	0.000869	8.689995	2.944250	-0.069369
 908	4.5350e-01	3.7539	26.894718	0.000798	7.982670	2.704602	-0.063723
 909	4.5400e-01	3.7234	26.576103	0.000798	7.982670	2.704602	-0.063723
 910	4.5450e-01	3.6769	26.285720	0.000728	7.275345	2.464953	-0.058077
 911	4.5500e-01	3.6320	25.942907	0.000859	8.588949	2.910015	-0.068563
 912	4.5550e-01	3.5951	25.527498	0.001041	10.407785	3.526253	-0.083082
 913	4.5600e-01	3.5550	25.269379	0.000647	6.466973	2.191070	-0.051624
 914	4.5650e-01	3.5213	24.991095	0.000697	6.972205	2.362247	-0.055657
 915	4.5700e-01	3.4796	24.628117	0.000909	9.094181	3.081192	-0.072596
 916	4.5750e-01	3.4363	24.317568	0.000778	7.780577	2.636131	-0.062110
 917	4.5800e-01	3.3930	24.047350	0.000677	6.770112	2.293776	-0.054044
 918	4.5850e-01	3.3609	23.607743	0.001101	11.014063	3.731666	-0.087922
 919	4.5900e-01	3.3192	23.297194	0.000778	7.780577	2.636131	-0.062110
 920	4.5950e-01	3.2791	22.998745	0.000748	7.477438	2.533424	-0.059690
 921	4.6000e-01	3.2389	22.623667	0.000940	9.397320	3.183898	-0.075016
 922	4.6050e-01	3.1940	22.313118	0.000778	7.780577	2.636131	-0.062110
 923	4.6100e-01	3.1539	22.050967	0.000657	6.568019	2.225305	-0.052430
 924	4.6150e-01	3.1218	21.744451	0.000768	7.679530	2.601895	-0.061303
 925	4.6200e-01	3.0801	21.393572	0.000879	8.791041	2.978485	-0.070176
 926	4.6250e-01	3.0336	21.074957	0.000798	7.982670	2.704602	-0.063723
 927	4.6300e-01	3.0015	20.695845	0.000950	9.498367	3.218134	-0.075822
 928	4.6350e-01	2.9582	20.437727	0.000647	6.466973	2.191070	-0.051624
 929	4.6400e-01	2.9149	20.151377	0.000717	7.174298	2.430718	-0.057270
 930	4.6450e-01	2.8828	19.776299	0.000940	9.397320	3.183898	-0.075016
 931	4.6500e-01	2.8363	19.502048	0.000687	6.871159	2.328012	-0.054850
 932	4.6550e-01	2.7833	19.179400	0.000808	8.083716	2.738837	-0.064530
 933	4.6600e-01	2.7545	18.840620	0.000849	8.487902	2.875779	-0.067756
 934	4.6650e-01	2.7208	18.453443	0.000970	9.700460	3.286605	-0.077435
 935	4.6700e-01	2.6775	18.150960	0.000758	7.578484	2.567660	-0.060496
 936	4.6750e-01	2.6422	17.888809	0.000657	6.568019	2.225305	-0.052430
 937	4.6800e-01	2.5940	17.562128	0.000818	8.184763	2.773073	-0.065336
 938	4.6850e-01	2.5636	17.178983	0.000960	9.599413	3.252369	-0.076629
 939	4.6900e-01	2.5138	16.751475	0.001071	10.710924	3.628959	-0.085502
 940	4.6950e-01	2.4801	16.436893	0.000788	7.881623	2.670366	-0.062916
 941	4.7000e-01	2.4288	16.190874	0.000616	6.163834	2.088363	-0.049204
 942	4.7050e-01	2.3967	15.827895	0.000909	9.094181	3.081192	-0.072596
 943	4.7100e-01	2.3614	15.598009	0.000576	5.759648	1.951422	-0.045977
 944	4.7150e-01	2.3133	15.323758	0.000687	6.871159	2.328012	-0.054850
 945	4.7200e-01	2.2780	14.940614	0.000960	9.599413	3.252369	-0.076629
 946	4.7250e-01	2.2395	14.662330	0.000697	6.972205	2.362247	-0.055657
 947	4.7300e-01	2.1946	14.242888	0.001051	10.508831	3.560488	-0.083888
 948	4.7350e-01	2.1641	13.952505	0.000728	7.275345	2.464953	-0.058077
 949	4.7400e-01	2.1144	13.581460	0.000930	9.296274	3.149663	-0.074209
 950	4.7450e-01	2.0855	13.335441	0.000616	6.163834	2.088363	-0.049204
 951	4.7500e-01	2.0326	12.956329	0.000950	9.498367	3.218134	-0.075822
 952	4.7550e-01	2.0005	12.569152	0.000970	9.700460	3.286605	-0.077435
 953	4.7600e-01	1.9636	12.307000	0.000657	6.568019	2.225305	-0.052430
 954	4.7650e-01	1.9122	11.984352	0.000808	8.083716	2.738837	-0.064530
 955	4.7700e-01	1.8770	11.706069	0.000697	6.972205	2.362247	-0.055657
 956	4.7750e-01	1.8304	11.322924	0.000960	9.599413	3.252369	-0.076629
 957	4.7800e-01	1.7951	11.004310	0.000798	7.982670	2.704602	-0.063723
 958	4.7850e-01	1.7582	10.709893	0.000738	7.376391	2.499189	-0.058883
 959	4.7900e-01	1.7101	10.419510	0.000728	7.275345	2.464953	-0.058077
 960	4.7950e-01	1.6780	10.036366	0.000960	9.599413	3.252369	-0.076629
 961	4.8000e-01	1.6395	9.790347	0.000616	6.163834	2.088363	-0.049204
 962	4.8050e-01	1.6026	9.447533	0.000859	8.588949	2.910015	-0.068563
 963	4.8100e-01	1.5593	9.088588	0.000899	8.993134	3.046956	-0.071789
 964	4.8150e-01	1.5064	8.725609	0.000909	9.094181	3.081192	-0.072596
 965	4.8200e-01	1.4759	8.503788	0.000556	5.557555	1.882951	-0.044364
 966	4.8250e-01	1.4326	8.173074	0.000829	8.285809	2.807308	-0.066143
 967	4.8300e-01	1.4005	7.814129	0.000899	8.993134	3.046956	-0.071789
 968	4.8350e-01	1.3540	7.406786	0.001021	10.205692	3.457782	-0.081469
 969	4.8400e-01	1.3203	7.068005	0.000849	8.487902	2.875779	-0.067756
 970	4.8450e-01	1.2786	6.801821	0.000667	6.669066	2.259541	-0.053237
 971	4.8500e-01	1.2337	6.535636	0.000667	6.669066	2.259541	-0.053237
 972	4.8550e-01	1.2000	6.144426	0.000980	9.801506	3.320840	-0.078242
 973	4.8600e-01	1.1470	5.777414	0.000920	9.195227	3.115427	-0.073402
 974	4.8650e-01	1.1165	5.511229	0.000667	6.669066	2.259541	-0.053237
 975	4.8700e-01	1.0764	5.188581	0.000808	8.083716	2.738837	-0.064530
 976	4.8750e-01	1.0347	4.898198	0.000728	7.275345	2.464953	-0.058077
 977	4.8800e-01	0.9994	4.599749	0.000748	7.477438	2.533424	-0.059690
 978	4.8850e-01	0.9674	4.240803	0.000899	8.993134	3.046956	-0.071789
 979	4.8900e-01	0.9208	3.910089	0.000829	8.285809	2.807308	-0.066143
 980	4.8950e-01	0.8807	3.567276	0.000859	8.588949	2.910015	-0.068563
 981	4.9000e-01	0.8326	3.220429	0.000869	8.689995	2.944250	-0.069369
 982	4.9050e-01	0.7909	2.982476	0.000596	5.961741	2.019892	-0.047591
 983	4.9100e-01	0.7620	2.623531	0.000899	8.993134	3.046956	-0.071789
 984	4.9150e-01	0.7139	2.312982	0.000778	7.780577	2.636131	-0.062110
 985	4.9200e-01	0.6722	1.950003	0.000909	9.094181	3.081192	-0.072596
 986	4.9250e-01	0.6369	1.518462	0.001081	10.811971	3.663195	-0.086308
 987	4.9300e-01	0.5888	1.260343	0.000647	6.466973	2.191070	-0.051624
 988	4.9350e-01	0.5647	1.070788	0.000475	4.749183	1.609067	-0.037911
 989	4.9400e-01	0.5182	0.719908	0.000879	8.791041	2.978485	-0.070176
 990	4.9450e-01	0.4700	0.235936	0.001213	12.125574	4.108256	-0.096794
 991	4.9500e-01	0.4331	-0.002017	0.000596	5.961741	2.019892	-0.047591
 992	4.9550e-01	0.3946	-0.356929	0.000889	8.892088	3.012721	-0.070983
 993	4.9600e-01	0.3545	-0.651345	0.000738	7.376391	2.499189	-0.058883
 994	4.9650e-01	0.3160	-0.978026	0.000818	8.184763	2.773073	-0.065336
 995	4.9700e-01	0.2823	-1.272443	0.000738	7.376391	2.499189	-0.058883
 996	4.9750e-01	0.2390	-1.570892	0.000748	7.477438	2.533424	-0.059690
 997	4.9800e-01	0.1957	-1.945970	0.000940	9.397320	3.183898	-0.075016
 998	4.9850e-01	0.1604	-2.321048	0.000940	9.397320	3.183898	-0.075016
 999	4.9900e-01	0.1155	-2.599332	0.000697	6.972205	2.362247	-0.055657
1000	4.9950e-01	0.0754	-2.873583	0.000687	6.871159	2.328012	-0.054850
1001	5.0000e-01	0.0433	-3.309157	0.001091	10.913017	3.697430	-0.087115
1002	5.0050e-01	0.0032	-3.611640	0.000758	7.578484	2.567660	-0.060496
1003	5.0100e-01	-0.0353	-3.772964	0.000404	4.041858	1.369419	-0.032265
1004	5.0150e-01	-0.0786	-4.164174	0.000980	9.801506	3.320840	-0.078242
1005	5.0200e-01	-0.1267	-4.450524	0.000717	7.174298	2.430718	-0.057270
1006	5.0250e-01	-0.1556	-4.825602	0.000940	9.397320	3.183898	-0.075016
1007	5.0300e-01	-0.2005	-5.152283	0.000818	8.184763	2.773073	-0.065336
1008	5.0350e-01	-0.2358	-5.434600	0.000707	7.073252	2.396483	-0.056463
1009	5.0400e-01	-0.2775	-5.813712	0.000950	9.498367	3.218134	-0.075822
1010	5.0450e-01	-0.3128	-6.168624	0.000889	8.892088	3.012721	-0.070983
1011	5.0500e-01	-0.3545	-6.394478	0.000566	5.658601	1.917186	-0.045171
1012	5.0550e-01	-0.3995	-6.733258	0.000849	8.487902	2.875779	-0.067756
1013	5.0600e-01	-0.4380	-7.051873	0.000798	7.982670	2.704602	-0.063723
1014	5.0650e-01	-0.4716	-7.378554	0.000818	8.184763	2.773073	-0.065336
1015	5.0700e-01	-0.5214	-7.725400	0.000869	8.689995	2.944250	-0.069369
1016	5.0750e-01	-0.5486	-7.995618	0.000677	6.770112	2.293776	-0.054044
1017	5.0800e-01	-0.6000	-8.374729	0.000950	9.498367	3.218134	-0.075822
1018	5.0850e-01	-0.6353	-8.665112	0.000728	7.275345	2.464953	-0.058077
1019	5.0900e-01	-0.6658	-8.935330	0.000677	6.770112	2.293776	-0.054044
1020	5.0950e-01	-0.7107	-9.447533	0.001283	12.832900	4.347904	-0.102441
1021	5.1000e-01	-0.7508	-9.689519	0.000606	6.062787	2.054128	-0.048397
1022	5.1050e-01	-0.8021	-9.947638	0.000647	6.466973	2.191070	-0.051624
1023	5.1100e-01	-0.8406	-10.286418	0.000849	8.487902	2.875779	-0.067756
1024	5.1150e-01	-0.8807	-10.536470	0.000626	6.264880	2.122599	-0.050010
1025	5.1200e-01	-0.9096	-10.851052	0.000788	7.881623	2.670366	-0.062916
1026	5.1250e-01	-0.9641	-11.177733	0.000818	8.184763	2.773073	-0.065336
1027	5.1300e-01	-0.9994	-11.621374	0.001112	11.115110	3.765901	-0.088728
1028	5.1350e-01	-1.0411	-11.843194	0.000556	5.557555	1.882951	-0.044364
1029	5.1400e-01	-1.0684	-12.242471	0.001000	10.003599	3.389311	-0.079855
1030	5.1450e-01	-1.1149	-12.573185	0.000829	8.285809	2.807308	-0.066143
1031	5.1500e-01	-1.1567	-12.895833	0.000808	8.083716	2.738837	-0.064530
1032	5.1550e-01	-1.1968	-13.133786	0.000596	5.961741	2.019892	-0.047591
1033	5.1600e-01	-1.2337	-13.549195	0.001041	10.407785	3.526253	-0.083082
1034	5.1650e-01	-1.2786	-13.815379	0.000667	6.669066	2.259541	-0.053237
1035	5.1700e-01	-1.3171	-14.138027	0.000808	8.083716	2.738837	-0.064530
1036	5.1750e-01	-1.3588	-14.468741	0.000829	8.285809	2.807308	-0.066143
1037	5.1800e-01	-1.3845	-14.775257	0.000768	7.679530	2.601895	-0.061303
1038	5.1850e-01	-1.4390	-15.077739	0.000758	7.578484	2.567660	-0.060496
1039	5.1900e-01	-1.4743	-15.452817	0.000940	9.397320	3.183898	-0.075016
1040	5.1950e-01	-1.5144	-15.710936	0.000647	6.466973	2.191070	-0.051624
1041	5.2000e-01	-1.5545	-15.993253	0.000707	7.073252	2.396483	-0.056463
1042	5.2050e-01	-1.5978	-16.408662	0.001041	10.407785	3.526253	-0.083082
1043	5.2100e-01	-1.6379	-16.791806	0.000960	9.599413	3.252369	-0.076629
1044	5.2150e-01	-1.6652	-17.001527	0.000525	5.254416	1.780244	-0.041944
1045	5.2200e-01	-1.7181	-17.295943	0.000738	7.376391	2.499189	-0.058883
1046	5.2250e-01	-1.7582	-17.606492	0.000778	7.780577	2.636131	-0.062110
1047	5.2300e-01	-1.7951	-17.977537	0.000930	9.296274	3.149663	-0.074209
1048	5.2350e-01	-1.8385	-18.376814	0.001000	10.003599	3.389311	-0.079855
1049	5.2400e-01	-1.8721	-18.618800	0.000606	6.062787	2.054128	-0.048397
1050	5.2450e-01	-1.9074	-18.929348	0.000778	7.780577	2.636131	-0.062110
1051	5.2500e-01	-1.9556	-19.219731	0.000728	7.275345	2.464953	-0.058077
1052	5.2550e-01	-1.9989	-19.493982	0.000687	6.871159	2.328012	-0.054850
1053	5.2600e-01	-2.0358	-19.804531	0.000778	7.780577	2.636131	-0.062110
1054	5.2650e-01	-2.0663	-20.244138	0.001101	11.014063	3.731666	-0.087922
1055	5.2700e-01	-2.1128	-20.599051	0.000889	8.892088	3.012721	-0.070983
1056	5.2750e-01	-2.1545	-20.853136	0.000637	6.365927	2.156834	-0.050817
1057	5.2800e-01	-2.1962	-21.127387	0.000687	6.871159	2.328012	-0.054850
1058	5.2850e-01	-2.2347	-21.393572	0.000667	6.669066	2.259541	-0.053237
1059	5.2900e-01	-2.2812	-21.792848	0.001000	10.003599	3.389311	-0.079855
1060	5.2950e-01	-2.3085	-22.212291	0.001051	10.508831	3.560488	-0.083888
1061	5.3000e-01	-2.3550	-22.369581	0.000394	3.940812	1.335183	-0.031458
1062	5.3050e-01	-2.3999	-22.720461	0.000879	8.791041	2.978485	-0.070176
1063	5.3100e-01	-2.4416	-23.067307	0.000869	8.689995	2.944250	-0.069369
1064	5.3150e-01	-2.4785	-23.381889	0.000788	7.881623	2.670366	-0.062916
1065	5.3200e-01	-2.5170	-23.740835	0.000899	8.993134	3.046956	-0.071789
1066	5.3250e-01	-2.5539	-24.023152	0.000707	7.073252	2.396483	-0.056463
1067	5.3300e-01	-2.5989	-24.261105	0.000596	5.961741	2.019892	-0.047591
1068	5.3350e-01	-2.6342	-24.644249	0.000960	9.599413	3.252369	-0.076629
1069	5.3400e-01	-2.6775	-24.978996	0.000839	8.386856	2.841544	-0.066949
1070	5.3450e-01	-2.7128	-25.325843	0.000869	8.689995	2.944250	-0.069369
1071	5.3500e-01	-2.7673	-25.612193	0.000717	7.174298	2.430718	-0.057270
1072	5.3550e-01	-2.7994	-25.838046	0.000566	5.658601	1.917186	-0.045171
1073	5.3600e-01	-2.8331	-26.233290	0.000990	9.902552	3.355076	-0.079049
1074	5.3650e-01	-2.8780	-26.588203	0.000889	8.892088	3.012721	-0.070983
1075	5.3700e-01	-2.9149	-26.789857	0.000505	5.052323	1.711773	-0.040331
1076	5.3750e-01	-2.9614	-27.160903	0.000930	9.296274	3.149663	-0.074209
1077	5.3800e-01	-2.9999	-27.455319	0.000738	7.376391	2.499189	-0.058883
1078	5.3850e-01	-3.0384	-27.769900	0.000788	7.881623	2.670366	-0.062916
1079	5.3900e-01	-3.0753	-28.136912	0.000920	9.195227	3.115427	-0.073402
1080	5.3950e-01	-3.1122	-28.455527	0.000798	7.982670	2.704602	-0.063723
1081	5.4000e-01	-3.1523	-28.870936	0.001041	10.407785	3.526253	-0.083082
1082	5.4050e-01	-3.1940	-29.072591	0.000505	5.052323	1.711773	-0.040331
1083	5.4100e-01	-3.2422	-29.298445	0.000566	5.658601	1.917186	-0.045171
1084	5.4150e-01	-3.2791	-29.701755	0.001010	10.104645	3.423547	-0.080662
1085	5.4200e-01	-3.3272	-30.008270	0.000768	7.679530	2.601895	-0.061303
1086	5.4250e-01	-3.3577	-30.359150	0.000879	8.791041	2.978485	-0.070176
1087	5.4300e-01	-3.4010	-30.580970	0.000556	5.557555	1.882951	-0.044364
1088	5.4350e-01	-3.4395	-30.960081	0.000950	9.498367	3.218134	-0.075822
1089	5.4400e-01	-3.4812	-31.278696	0.000798	7.982670	2.704602	-0.063723
1090	5.4450e-01	-3.5133	-31.585212	0.000768	7.679530	2.601895	-0.061303
1091	5.4500e-01	-3.5486	-31.891727	0.000768	7.679530	2.601895	-0.061303
1092	5.4550e-01	-3.5967	-32.210342	0.000798	7.982670	2.704602	-0.063723
1093	5.4600e-01	-3.6304	-32.561222	0.000879	8.791041	2.978485	-0.070176
1094	5.4650e-01	-3.6753	-32.879836	0.000798	7.982670	2.704602	-0.063723
1095	5.4700e-01	-3.7234	-33.089557	0.000525	5.254416	1.780244	-0.041944
1096	5.4750e-01	-3.7491	-33.436404	0.000869	8.689995	2.944250	-0.069369
1097	5.4800e-01	-3.8036	-33.710655	0.000687	6.871159	2.328012	-0.054850
1098	5.4850e-01	-3.8341	-33.984905	0.000687	6.871159	2.328012	-0.054850
1099	5.4900e-01	-3.8726	-34.299487	0.000788	7.881623	2.670366	-0.062916
1100	5.4950e-01	-3.9127	-34.630201	0.000829	8.285809	2.807308	-0.066143
1101	5.5000e-01	-3.9512	-34.985114	0.000889	8.892088	3.012721	-0.070983
1102	5.5050e-01	-3.9994	-35.275497	0.000728	7.275345	2.464953	-0.058077
1103	5.5100e-01	-4.0411	-35.549748	0.000687	6.871159	2.328012	-0.054850
1104	5.5150e-01	-4.0812	-35.892561	0.000859	8.588949	2.910015	-0.068563
1105	5.5200e-01	-4.1229	-36.178911	0.000717	7.174298	2.430718	-0.057270
1106	5.5250e-01	-4.1630	-36.481393	0.000758	7.578484	2.567660	-0.060496
1107	5.5300e-01	-4.2031	-36.840339	0.000899	8.993134	3.046956	-0.071789
1108	5.5350e-01	-4.2432	-37.126689	0.000717	7.174298	2.430718	-0.057270
1109	5.5400e-01	-4.2769	-37.429172	0.000758	7.578484	2.567660	-0.060496
1110	5.5450e-01	-4.3154	-37.776018	0.000869	8.689995	2.944250	-0.069369
1111	5.5500e-01	-4.3571	-38.078500	0.000758	7.578484	2.567660	-0.060496
1112	5.5550e-01	-4.4020	-38.397115	0.000798	7.982670	2.704602	-0.063723
1113	5.5600e-01	-4.4357	-38.723796	0.000818	8.184763	2.773073	-0.065336
1114	5.5650e-01	-4.4806	-39.034345	0.000778	7.780577	2.636131	-0.062110
1115	5.5700e-01	-4.5223	-39.373125	0.000849	8.487902	2.875779	-0.067756
1116	5.5750e-01	-4.5496	-39.526383	0.000384	3.839765	1.300948	-0.030652
1117	5.5800e-01	-4.5977	-39.740137	0.000536	5.355462	1.814480	-0.042751
1118	5.5850e-01	-4.6378	-40.163612	0.001061	10.609878	3.594724	-0.084695
1119	5.5900e-01	-4.6779	-40.566922	0.001010	10.104645	3.423547	-0.080662
1120	5.5950e-01	-4.7148	-40.768577	0.000505	5.052323	1.711773	-0.040331
1121	5.6000e-01	-4.7614	-41.131556	0.000909	9.094181	3.081192	-0.072596
1122	5.6050e-01	-4.7934	-41.385641	0.000637	6.365927	2.156834	-0.050817
1123	5.6100e-01	-4.8400	-41.680058	0.000738	7.376391	2.499189	-0.058883
1124	5.6150e-01	-4.8769	-41.998672	0.000798	7.982670	2.704602	-0.063723
1125	5.6200e-01	-4.9266	-42.264857	0.000667	6.669066	2.259541	-0.053237
1126	5.6250e-01	-4.9683	-42.543141	0.000697	6.972205	2.362247	-0.055657
1127	5.6300e-01	-4.9972	-42.938384	0.000990	9.902552	3.355076	-0.079049
1128	5.6350e-01	-5.0405	-43.180370	0.000606	6.062787	2.054128	-0.048397
1129	5.6400e-01	-5.0774	-43.507051	0.000818	8.184763	2.773073	-0.065336
1130	5.6450e-01	-5.1111	-43.825666	0.000798	7.982670	2.704602	-0.063723
1131	5.6500e-01	-5.1592	-44.091850	0.000667	6.669066	2.259541	-0.053237
1132	5.6550e-01	-5.1945	-44.426598	0.000839	8.386856	2.841544	-0.066949
1133	5.6600e-01	-5.2426	-44.737146	0.000778	7.780577	2.636131	-0.062110
1134	5.6650e-01	-5.2747	-45.108191	0.000930	9.296274	3.149663	-0.074209
1135	5.6700e-01	-5.3180	-45.382442	0.000687	6.871159	2.328012	-0.054850
1136	5.6750e-01	-5.3565	-45.628461	0.000616	6.163834	2.088363	-0.049204
1137	5.6800e-01	-5.3950	-45.983374	0.000889	8.892088	3.012721	-0.070983
1138	5.6850e-01	-5.4303	-46.297955	0.000788	7.881623	2.670366	-0.062916
1139	5.6900e-01	-5.4752	-46.499610	0.000505	5.052323	1.711773	-0.040331
1140	5.6950e-01	-5.5202	-46.874689	0.000940	9.397320	3.183898	-0.075016
1141	5.7000e-01	-5.5587	-47.116674	0.000606	6.062787	2.054128	-0.048397
1142	5.7050e-01	-5.5908	-47.435289	0.000798	7.982670	2.704602	-0.063723
1143	5.7100e-01	-5.6421	-47.786169	0.000879	8.791041	2.978485	-0.070176
1144	5.7150e-01	-5.6726	-48.080585	0.000738	7.376391	2.499189	-0.058883
1145	5.7200e-01	-5.7175	-48.326604	0.000616	6.163834	2.088363	-0.049204
1146	5.7250e-01	-5.7560	-48.705715	0.000950	9.498367	3.218134	-0.075822
1147	5.7300e-01	-5.8009	-49.012231	0.000768	7.679530	2.601895	-0.061303
1148	5.7350e-01	-5.8458	-49.201786	0.000475	4.749183	1.609067	-0.037911
1149	5.7400e-01	-5.8859	-49.492169	0.000728	7.275345	2.464953	-0.058077
1150	5.7450e-01	-5.9180	-49.786586	0.000738	7.376391	2.499189	-0.058883
1151	5.7500e-01	-5.9533	-50.101167	0.000788	7.881623	2.670366	-0.062916
1152	5.7550e-01	-6.0062	-50.443981	0.000859	8.588949	2.910015	-0.068563
1153	5.7600e-01	-6.0464	-50.802927	0.000899	8.993134	3.046956	-0.071789
1154	5.7650e-01	-6.0672	-51.016681	0.000536	5.355462	1.814480	-0.042751
1155	5.7700e-01	-6.1185	-51.347395	0.000829	8.285809	2.807308	-0.066143
1156	5.7750e-01	-6.1619	-51.605513	0.000647	6.466973	2.191070	-0.051624
1157	5.7800e-01	-6.1955	-51.932194	0.000818	8.184763	2.773073	-0.065336
1158	5.7850e-01	-6.2340	-52.234677	0.000758	7.578484	2.567660	-0.060496
1159	5.7900e-01	-6.2822	-52.504894	0.000677	6.770112	2.293776	-0.054044
1160	5.7950e-01	-6.3207	-52.888039	0.000960	9.599413	3.252369	-0.076629
1161	5.8000e-01	-6.3656	-53.158256	0.000677	6.770112	2.293776	-0.054044
1162	5.8050e-01	-6.3929	-53.392176	0.000586	5.860694	1.985657	-0.046784
1163	5.8100e-01	-6.4490	-53.751122	0.000899	8.993134	3.046956	-0.071789
1164	5.8150e-01	-6.4715	-53.997141	0.000616	6.163834	2.088363	-0.049204
1165	5.8200e-01	-6.5212	-54.251226	0.000637	6.365927	2.156834	-0.050817
1166	5.8250e-01	-6.5533	-54.573874	0.000808	8.083716	2.738837	-0.064530
1167	5.8300e-01	-6.5966	-54.876356	0.000758	7.578484	2.567660	-0.060496
1168	5.8350e-01	-6.6367	-55.146574	0.000677	6.770112	2.293776	-0.054044
1169	5.8400e-01	-6.6784	-55.449056	0.000758	7.578484	2.567660	-0.060496
1170	5.8450e-01	-6.7089	-55.715241	0.000667	6.669066	2.259541	-0.053237
1171	5.8500e-01	-6.7570	-56.013690	0.000748	7.477438	2.533424	-0.059690
1172	5.8550e-01	-6.7923	-56.316172	0.000758	7.578484	2.567660	-0.060496
1173	5.8600e-01	-6.8404	-56.622688	0.000768	7.679530	2.601895	-0.061303
1174	5.8650e-01	-6.8773	-56.961468	0.000849	8.487902	2.875779	-0.067756
1175	5.8700e-01	-6.9158	-57.195388	0.000586	5.860694	1.985657	-0.046784
1176	5.8750e-01	-6.9543	-57.542234	0.000869	8.689995	2.944250	-0.069369
1177	5.8800e-01	-6.9912	-57.796320	0.000637	6.365927	2.156834	-0.050817
1178	5.8850e-01	-7.0330	-58.042339	0.000616	6.163834	2.088363	-0.049204
1179	5.8900e-01	-7.0747	-58.340788	0.000748	7.477438	2.533424	-0.059690
1180	5.8950e-01	-7.1132	-58.619072	0.000697	6.972205	2.362247	-0.055657
1181	5.9000e-01	-7.1549	-58.986084	0.000920	9.195227	3.115427	-0.073402
1182	5.9050e-01	-7.1982	-59.260334	0.000687	6.871159	2.328012	-0.054850
1183	5.9100e-01	-7.2447	-59.534585	0.000687	6.871159	2.328012	-0.054850
1184	5.9150e-01	-7.2752	-59.752372	0.000546	5.456508	1.848715	-0.043557
1185	5.9200e-01	-7.3153	-60.087120	0.000839	8.386856	2.841544	-0.066949
1186	5.9250e-01	-7.3538	-60.405734	0.000798	7.982670	2.704602	-0.063723
1187	5.9300e-01	-7.3875	-60.599323	0.000485	4.850230	1.643302	-0.038718
1188	5.9350e-01	-7.4340	-60.958269	0.000899	8.993134	3.046956	-0.071789
1189	5.9400e-01	-7.4725	-61.240586	0.000707	7.073252	2.396483	-0.056463
1190	5.9450e-01	-7.5126	-61.575333	0.000839	8.386856	2.841544	-0.066949
1191	5.9500e-01	-7.5527	-61.772955	0.000495	4.951276	1.677538	-0.039524
1192	5.9550e-01	-7.5976	-62.111735	0.000849	8.487902	2.875779	-0.067756
1193	5.9600e-01	-7.6329	-62.406151	0.000738	7.376391	2.499189	-0.058883
1194	5.9650e-01	-7.6763	-62.744932	0.000849	8.487902	2.875779	-0.067756
1195	5.9700e-01	-7.7164	-62.982884	0.000596	5.961741	2.019892	-0.047591
1196	5.9750e-01	-7.7597	-63.257135	0.000687	6.871159	2.328012	-0.054850
1197	5.9800e-01	-7.7982	-63.595915	0.000849	8.487902	2.875779	-0.067756
1198	5.9850e-01	-7.8367	-63.958894	0.000909	9.094181	3.081192	-0.072596
1199	5.9900e-01	-7.8704	-64.108119	0.000374	3.738719	1.266712	-0.029845
1200	5.9950e-01	-7.9201	-64.390436	0.000707	7.073252	2.396483	-0.056463
1201	6.0000e-01	-7.9506	-64.636455	0.000616	6.163834	2.088363	-0.049204
1202	6.0050e-01	-7.9939	-64.975235	0.000849	8.487902	2.875779	-0.067756
1203	6.0100e-01	-8.0308	-65.301916	0.000818	8.184763	2.773073	-0.065336
1204	6.0150e-01	-8.0709	-65.580200	0.000697	6.972205	2.362247	-0.055657
1205	6.0200e-01	-8.1046	-65.802020	0.000556	5.557555	1.882951	-0.044364
1206	6.0250e-01	-8.1479	-66.160966	0.000899	8.993134	3.046956	-0.071789
1207	6.0300e-01	-8.2057	-66.471515	0.000778	7.780577	2.636131	-0.062110
1208	6.0350e-01	-8.2345	-66.644938	0.000434	4.344998	1.472125	-0.034685
1209	6.0400e-01	-8.2746	-66.899023	0.000637	6.365927	2.156834	-0.050817
1210	6.0450e-01	-8.3196	-67.189406	0.000728	7.275345	2.464953	-0.058077
1211	6.0500e-01	-8.3548	-67.459624	0.000677	6.770112	2.293776	-0.054044
1212	6.0550e-01	-8.3901	-67.725808	0.000667	6.669066	2.259541	-0.053237
1213	6.0600e-01	-8.4335	-68.129118	0.001010	10.104645	3.423547	-0.080662
1214	6.0650e-01	-8.4752	-68.359005	0.000576	5.759648	1.951422	-0.045977
1215	6.0700e-01	-8.5137	-68.705851	0.000869	8.689995	2.944250	-0.069369
1216	6.0750e-01	-8.5538	-68.943804	0.000596	5.961741	2.019892	-0.047591
1217	6.0800e-01	-8.5987	-69.214022	0.000677	6.770112	2.293776	-0.054044
1218	6.0850e-01	-8.6308	-69.484239	0.000677	6.770112	2.293776	-0.054044
1219	6.0900e-01	-8.6661	-69.742358	0.000647	6.466973	2.191070	-0.051624
1220	6.0950e-01	-8.7222	-70.101303	0.000899	8.993134	3.046956	-0.071789
1221	6.1000e-01	-8.7479	-70.351355	0.000626	6.264880	2.122599	-0.050010
1222	6.1050e-01	-8.7960	-70.661904	0.000778	7.780577	2.636131	-0.062110
1223	6.1100e-01	-8.8377	-70.883724	0.000556	5.557555	1.882951	-0.044364
1224	6.1150e-01	-8.8666	-71.186207	0.000758	7.578484	2.567660	-0.060496
1225	6.1200e-01	-8.9115	-71.387862	0.000505	5.052323	1.711773	-0.040331
1226	6.1250e-01	-8.9580	-71.714543	0.000818	8.184763	2.773073	-0.065336
1227	6.1300e-01	-9.0014	-71.984760	0.000677	6.770112	2.293776	-0.054044
1228	6.1350e-01	-9.0382	-72.226746	0.000606	6.062787	2.054128	-0.048397
1229	6.1400e-01	-9.0639	-72.561494	0.000839	8.386856	2.841544	-0.066949
1230	6.1450e-01	-9.1104	-72.815579	0.000637	6.365927	2.156834	-0.050817
1231	6.1500e-01	-9.1618	-73.049498	0.000586	5.860694	1.985657	-0.046784
1232	6.1550e-01	-9.2051	-73.360047	0.000778	7.780577	2.636131	-0.062110
1233	6.1600e-01	-9.2388	-73.642364	0.000707	7.073252	2.396483	-0.056463
1234	6.1650e-01	-9.2677	-73.956946	0.000788	7.881623	2.670366	-0.062916
1235	6.1700e-01	-9.3126	-74.263461	0.000768	7.679530	2.601895	-0.061303
1236	6.1750e-01	-9.3575	-74.509480	0.000616	6.163834	2.088363	-0.049204
1237	6.1800e-01	-9.3992	-74.775665	0.000667	6.669066	2.259541	-0.053237
1238	6.1850e-01	-9.4313	-75.017651	0.000606	6.062787	2.054128	-0.048397
1239	6.1900e-01	-9.4666	-75.352398	0.000839	8.386856	2.841544	-0.066949
1240	6.1950e-01	-9.5115	-75.622615	0.000677	6.770112	2.293776	-0.054044
1241	6.2000e-01	-9.5484	-75.844436	0.000556	5.557555	1.882951	-0.044364
1242	6.2050e-01	-9.5949	-76.114653	0.000677	6.770112	2.293776	-0.054044
1243	6.2100e-01	-9.6398	-76.417136	0.000758	7.578484	2.567660	-0.060496
1244	6.2150e-01	-9.6687	-76.695420	0.000697	6.972205	2.362247	-0.055657
1245	6.2200e-01	-9.7168	-76.941439	0.000616	6.163834	2.088363	-0.049204
1246	6.2250e-01	-9.7666	-77.187458	0.000616	6.163834	2.088363	-0.049204
1247	6.2300e-01	-9.7938	-77.381046	0.000485	4.850230	1.643302	-0.038718
1248	6.2350e-01	-9.8339	-77.776290	0.000990	9.902552	3.355076	-0.079049
1249	6.2400e-01	-9.8773	-78.062640	0.000717	7.174298	2.430718	-0.057270
1250	6.2450e-01	-9.9158	-78.320758	0.000647	6.466973	2.191070	-0.051624
1251	6.2500e-01	-9.9575	-78.538546	0.000546	5.456508	1.848715	-0.043557
1252	6.2550e-01	-9.9896	-78.865227	0.000818	8.184763	2.773073	-0.065336
1253	6.2600e-01	-10.0329	-79.099146	0.000586	5.860694	1.985657	-0.046784
1254	6.2650e-01	-10.0810	-79.381463	0.000707	7.073252	2.396483	-0.056463
1255	6.2700e-01	-10.1163	-79.651681	0.000677	6.770112	2.293776	-0.054044
1256	6.2750e-01	-10.1516	-79.942064	0.000728	7.275345	2.464953	-0.058077
1257	6.2800e-01	-10.1981	-80.180017	0.000596	5.961741	2.019892	-0.047591
1258	6.2850e-01	-10.2302	-80.422003	0.000606	6.062787	2.054128	-0.048397
1259	6.2900e-01	-10.2687	-80.768849	0.000869	8.689995	2.944250	-0.069369
1260	6.2950e-01	-10.3056	-81.010835	0.000606	6.062787	2.054128	-0.048397
1261	6.3000e-01	-10.3569	-81.317351	0.000768	7.679530	2.601895	-0.061303
1262	6.3050e-01	-10.3938	-81.583535	0.000667	6.669066	2.259541	-0.053237
1263	6.3100e-01	-10.4387	-81.821488	0.000596	5.961741	2.019892	-0.047591
1264	6.3150e-01	-10.4805	-81.994911	0.000434	4.344998	1.472125	-0.034685
1265	6.3200e-01	-10.5157	-82.333691	0.000849	8.487902	2.875779	-0.067756
1266	6.3250e-01	-10.5559	-82.616008	0.000707	7.073252	2.396483	-0.056463
1267	6.3300e-01	-10.6008	-82.954789	0.000849	8.487902	2.875779	-0.067756
1268	6.3350e-01	-10.6409	-83.160477	0.000515	5.153369	1.746009	-0.041138
1269	6.3400e-01	-10.6762	-83.475058	0.000788	7.881623	2.670366	-0.062916
1270	6.3450e-01	-10.7195	-83.700912	0.000566	5.658601	1.917186	-0.045171
1271	6.3500e-01	-10.7500	-83.971129	0.000677	6.770112	2.293776	-0.054044
1272	6.3550e-01	-10.8029	-84.261513	0.000728	7.275345	2.464953	-0.058077
1273	6.3600e-01	-10.8398	-84.523664	0.000657	6.568019	2.225305	-0.052430
1274	6.3650e-01	-10.8751	-84.709186	0.000465	4.648137	1.574831	-0.037105
1275	6.3700e-01	-10.9136	-84.999570	0.000728	7.275345	2.464953	-0.058077
1276	6.3750e-01	-10.9569	-85.342383	0.000859	8.588949	2.910015	-0.068563
1277	6.3800e-01	-11.0002	-85.507740	0.000414	4.142905	1.403654	-0.033071
1278	6.3850e-01	-11.0275	-85.814256	0.000768	7.679530	2.601895	-0.061303
1279	6.3900e-01	-11.0772	-86.120771	0.000768	7.679530	2.601895	-0.061303
1280	6.3950e-01	-11.1125	-86.390989	0.000677	6.770112	2.293776	-0.054044
1281	6.4000e-01	-11.1558	-86.600710	0.000525	5.254416	1.780244	-0.041944
1282	6.4050e-01	-11.1943	-86.874960	0.000687	6.871159	2.328012	-0.054850
1283	6.4100e-01	-11.2360	-87.177443	0.000758	7.578484	2.567660	-0.060496
1284	6.4150e-01	-11.2745	-87.431528	0.000637	6.365927	2.156834	-0.050817
1285	6.4200e-01	-11.3291	-87.701746	0.000677	6.770112	2.293776	-0.054044
1286	6.4250e-01	-11.3596	-87.919533	0.000546	5.456508	1.848715	-0.043557
1287	6.4300e-01	-11.3965	-88.137320	0.000546	5.456508	1.848715	-0.043557
1288	6.4350e-01	-11.4350	-88.447869	0.000778	7.780577	2.636131	-0.062110
1289	6.4400e-01	-11.4735	-88.734219	0.000717	7.174298	2.430718	-0.057270
1290	6.4450e-01	-11.5200	-88.935874	0.000505	5.052323	1.711773	-0.040331
1291	6.4500e-01	-11.5457	-89.250456	0.000788	7.881623	2.670366	-0.062916
1292	6.4550e-01	-11.6050	-89.448077	0.000495	4.951276	1.677538	-0.039524
1293	6.4600e-01	-11.6387	-89.726361	0.000697	6.972205	2.362247	-0.055657
1294	6.4650e-01	-11.6708	-90.032877	0.000768	7.679530	2.601895	-0.061303
1295	6.4700e-01	-11.7045	-90.262763	0.000576	5.759648	1.951422	-0.045977
1296	6.4750e-01	-11.7606	-90.565246	0.000758	7.578484	2.567660	-0.060496
1297	6.4800e-01	-11.7959	-90.770934	0.000515	5.153369	1.746009	-0.041138
1298	6.4850e-01	-11.8296	-91.033085	0.000657	6.568019	2.225305	-0.052430
1299	6.4900e-01	-11.8793	-91.371865	0.000849	8.487902	2.875779	-0.067756
1300	6.4950e-01	-11.9082	-91.654182	0.000707	7.073252	2.396483	-0.056463
1301	6.5000e-01	-11.9596	-91.714679	0.000152	1.515697	0.513532	-0.012099
1302	6.5050e-01	-11.9997	-92.069591	0.000889	8.892088	3.012721	-0.070983
1303	6.5100e-01	-12.0334	-92.315610	0.000616	6.163834	2.088363	-0.049204
1304	6.5150e-01	-12.0799	-92.565663	0.000626	6.264880	2.122599	-0.050010
1305	6.5200e-01	-12.1200	-92.779417	0.000536	5.355462	1.814480	-0.042751
1306	6.5250e-01	-12.1601	-93.190793	0.001031	10.306738	3.492017	-0.082275
1307	6.5300e-01	-12.2018	-93.404547	0.000536	5.355462	1.814480	-0.042751
1308	6.5350e-01	-12.2355	-93.727195	0.000808	8.083716	2.738837	-0.064530
1309	6.5400e-01	-12.2708	-93.928850	0.000505	5.052323	1.711773	-0.040331
1310	6.5450e-01	-12.3093	-94.211167	0.000707	7.073252	2.396483	-0.056463
1311	6.5500e-01	-12.3590	-94.445087	0.000586	5.860694	1.985657	-0.046784
1312	6.5550e-01	-12.4023	-94.731437	0.000717	7.174298	2.430718	-0.057270
1313	6.5600e-01	-12.4312	-94.985522	0.000637	6.365927	2.156834	-0.050817
1314	6.5650e-01	-12.4761	-95.219441	0.000586	5.860694	1.985657	-0.046784
1315	6.5700e-01	-12.5226	-95.469494	0.000626	6.264880	2.122599	-0.050010
1316	6.5750e-01	-12.5547	-95.751810	0.000707	7.073252	2.396483	-0.056463
1317	6.5800e-01	-12.5900	-95.949432	0.000495	4.951276	1.677538	-0.039524
1318	6.5850e-01	-12.6381	-96.195451	0.000616	6.163834	2.088363	-0.049204
1319	6.5900e-01	-12.6815	-96.441470	0.000616	6.163834	2.088363	-0.049204
1320	6.5950e-01	-12.7135	-96.659258	0.000546	5.456508	1.848715	-0.043557
1321	6.6000e-01	-12.7553	-96.981906	0.000808	8.083716	2.738837	-0.064530
1322	6.6050e-01	-12.7938	-97.231958	0.000626	6.264880	2.122599	-0.050010
1323	6.6100e-01	-12.8403	-97.469910	0.000596	5.961741	2.019892	-0.047591
1324	6.6150e-01	-12.8676	-97.784492	0.000788	7.881623	2.670366	-0.062916
1325	6.6200e-01	-12.9205	-98.030511	0.000616	6.163834	2.088363	-0.049204
1326	6.6250e-01	-12.9494	-98.212001	0.000455	4.547090	1.540596	-0.036298
1327	6.6300e-01	-12.9975	-98.453987	0.000606	6.062787	2.054128	-0.048397
1328	6.6350e-01	-13.0344	-98.788734	0.000839	8.386856	2.841544	-0.066949
1329	6.6400e-01	-13.0761	-99.014587	0.000566	5.658601	1.917186	-0.045171
1330	6.6450e-01	-13.1242	-99.224308	0.000525	5.254416	1.780244	-0.041944
1331	6.6500e-01	-13.1499	-99.518725	0.000738	7.376391	2.499189	-0.058883
1332	6.6550e-01	-13.1900	-99.764744	0.000616	6.163834	2.088363	-0.049204
1333	6.6600e-01	-13.2349	-100.006729	0.000606	6.062787	2.054128	-0.048397
1334	6.6650e-01	-13.2750	-100.264848	0.000647	6.466973	2.191070	-0.051624
1335	6.6700e-01	-13.3119	-100.470536	0.000515	5.153369	1.746009	-0.041138
1336	6.6750e-01	-13.3552	-100.740753	0.000677	6.770112	2.293776	-0.054044
1337	6.6800e-01	-13.3986	-101.031137	0.000728	7.275345	2.464953	-0.058077
1338	6.6850e-01	-13.4371	-101.248924	0.000546	5.456508	1.848715	-0.043557
1339	6.6900e-01	-13.4756	-101.503009	0.000637	6.365927	2.156834	-0.050817
1340	6.6950e-01	-13.5157	-101.740962	0.000596	5.961741	2.019892	-0.047591
1341	6.7000e-01	-13.5510	-101.986981	0.000616	6.163834	2.088363	-0.049204
1342	6.7050e-01	-13.6007	-102.241066	0.000637	6.365927	2.156834	-0.050817
1343	6.7100e-01	-13.6440	-102.543549	0.000758	7.578484	2.567660	-0.060496
1344	6.7150e-01	-13.6745	-102.789568	0.000616	6.163834	2.088363	-0.049204
1345	6.7200e-01	-13.7098	-102.967024	0.000445	4.446044	1.506360	-0.035491
1346	6.7250e-01	-13.7563	-103.313870	0.000869	8.689995	2.944250	-0.069369
1347	6.7300e-01	-13.8012	-103.459062	0.000364	3.637672	1.232477	-0.029038
1348	6.7350e-01	-13.8429	-103.769610	0.000778	7.780577	2.636131	-0.062110
1349	6.7400e-01	-13.8750	-104.031762	0.000657	6.568019	2.225305	-0.052430
1350	6.7450e-01	-13.9151	-104.322145	0.000728	7.275345	2.464953	-0.058077
1351	6.7500e-01	-13.9681	-104.519767	0.000495	4.951276	1.677538	-0.039524
1352	6.7550e-01	-13.9921	-104.729488	0.000525	5.254416	1.780244	-0.041944
1353	6.7600e-01	-14.0338	-104.939209	0.000525	5.254416	1.780244	-0.041944
1354	6.7650e-01	-14.0755	-105.277989	0.000849	8.487902	2.875779	-0.067756
1355	6.7700e-01	-14.1172	-105.532075	0.000637	6.365927	2.156834	-0.050817
1356	6.7750e-01	-14.1509	-105.770027	0.000596	5.961741	2.019892	-0.047591
1357	6.7800e-01	-14.1943	-105.963616	0.000485	4.850230	1.643302	-0.038718
1358	6.7850e-01	-14.2344	-106.201569	0.000596	5.961741	2.019892	-0.047591
1359	6.7900e-01	-14.2745	-106.508084	0.000768	7.679530	2.601895	-0.061303
1360	6.7950e-01	-14.3162	-106.770236	0.000657	6.568019	2.225305	-0.052430
1361	6.8000e-01	-14.3595	-107.016255	0.000616	6.163834	2.088363	-0.049204
1362	6.8050e-01	-14.3932	-107.230009	0.000536	5.355462	1.814480	-0.042751
1363	6.8100e-01	-14.4365	-107.471995	0.000606	6.062787	2.054128	-0.048397
1364	6.8150e-01	-14.4782	-107.718014	0.000616	6.163834	2.088363	-0.049204
1365	6.8200e-01	-14.5183	-107.947901	0.000576	5.759648	1.951422	-0.045977
1366	6.8250e-01	-14.5552	-108.109225	0.000404	4.041858	1.369419	-0.032265
1367	6.8300e-01	-14.5889	-108.431872	0.000808	8.083716	2.738837	-0.064530
1368	6.8350e-01	-14.6274	-108.718222	0.000717	7.174298	2.430718	-0.057270
1369	6.8400e-01	-14.6723	-108.919877	0.000505	5.052323	1.711773	-0.040331
1370	6.8450e-01	-14.7124	-109.218327	0.000748	7.477438	2.533424	-0.059690
1371	6.8500e-01	-14.7525	-109.492577	0.000687	6.871159	2.328012	-0.054850
1372	6.8550e-01	-14.7862	-109.799093	0.000768	7.679530	2.601895	-0.061303
1373	6.8600e-01	-14.8359	-110.004781	0.000515	5.153369	1.746009	-0.041138
1374	6.8650e-01	-14.8696	-110.194337	0.000475	4.749183	1.609067	-0.037911
1375	6.8700e-01	-14.9097	-110.436322	0.000606	6.062787	2.054128	-0.048397
1376	6.8750e-01	-14.9531	-110.678308	0.000606	6.062787	2.054128	-0.048397
1377	6.8800e-01	-14.9900	-110.960625	0.000707	7.073252	2.396483	-0.056463
1378	6.8850e-01	-15.0268	-111.105817	0.000364	3.637672	1.232477	-0.029038
1379	6.8900e-01	-15.0734	-111.367968	0.000657	6.568019	2.225305	-0.052430
1380	6.8950e-01	-15.1135	-111.609954	0.000606	6.062787	2.054128	-0.048397
1381	6.9000e-01	-15.1520	-111.948734	0.000849	8.487902	2.875779	-0.067756
1382	6.9050e-01	-15.1889	-112.174588	0.000566	5.658601	1.917186	-0.045171
1383	6.9100e-01	-15.2418	-112.331879	0.000394	3.940812	1.335183	-0.031458
1384	6.9150e-01	-15.2803	-112.581931	0.000626	6.264880	2.122599	-0.050010
1385	6.9200e-01	-15.3124	-112.819884	0.000596	5.961741	2.019892	-0.047591
1386	6.9250e-01	-15.3509	-113.086068	0.000667	6.669066	2.259541	-0.053237
1387	6.9300e-01	-15.4022	-113.247392	0.000404	4.041858	1.369419	-0.032265
1388	6.9350e-01	-15.4295	-113.574073	0.000818	8.184763	2.773073	-0.065336
1389	6.9400e-01	-15.4744	-113.836225	0.000657	6.568019	2.225305	-0.052430
1390	6.9450e-01	-15.5210	-114.049979	0.000536	5.355462	1.814480	-0.042751
1391	6.9500e-01	-15.5562	-114.195170	0.000364	3.637672	1.232477	-0.029038
1392	6.9550e-01	-15.5915	-114.505719	0.000778	7.780577	2.636131	-0.062110
1393	6.9600e-01	-15.6300	-114.775937	0.000677	6.770112	2.293776	-0.054044
1394	6.9650e-01	-15.6782	-115.046154	0.000677	6.770112	2.293776	-0.054044
1395	6.9700e-01	-15.7183	-115.227644	0.000455	4.547090	1.540596	-0.036298
1396	6.9750e-01	-15.7536	-115.513994	0.000717	7.174298	2.430718	-0.057270
1397	6.9800e-01	-15.7873	-115.743880	0.000576	5.759648	1.951422	-0.045977
1398	6.9850e-01	-15.8370	-115.909237	0.000414	4.142905	1.403654	-0.033071
1399	6.9900e-01	-15.8771	-116.272216	0.000909	9.094181	3.081192	-0.072596
1400	6.9950e-01	-15.9204	-116.397242	0.000313	3.132440	1.061299	-0.025005
1401	7.0000e-01	-15.9573	-116.651327	0.000637	6.365927	2.156834	-0.050817
1402	7.0050e-01	-15.9910	-116.969942	0.000798	7.982670	2.704602	-0.063723
1403	7.0100e-01	-16.0375	-117.086902	0.000293	2.930347	0.992828	-0.023392
1404	7.0150e-01	-16.0696	-117.377285	0.000728	7.275345	2.464953	-0.058077
1405	7.0200e-01	-16.1193	-117.619271	0.000606	6.062787	2.054128	-0.048397
1406	7.0250e-01	-16.1514	-117.921753	0.000758	7.578484	2.567660	-0.060496
1407	7.0300e-01	-16.1915	-118.147607	0.000566	5.658601	1.917186	-0.045171
1408	7.0350e-01	-16.2348	-118.321030	0.000434	4.344998	1.472125	-0.034685
1409	7.0400e-01	-16.2717	-118.607380	0.000717	7.174298	2.430718	-0.057270
1410	7.0450e-01	-16.3086	-118.877598	0.000677	6.770112	2.293776	-0.054044
1411	7.0500e-01	-16.3487	-119.127650	0.000626	6.264880	2.122599	-0.050010
1412	7.0550e-01	-16.3985	-119.317206	0.000475	4.749183	1.609067	-0.037911
1413	7.0600e-01	-16.4322	-119.526927	0.000525	5.254416	1.780244	-0.041944
1414	7.0650e-01	-16.4723	-119.809244	0.000707	7.073252	2.396483	-0.056463
1415	7.0700e-01	-16.5092	-120.031064	0.000556	5.557555	1.882951	-0.044364
1416	7.0750e-01	-16.5589	-120.248851	0.000546	5.456508	1.848715	-0.043557
1417	7.0800e-01	-16.5974	-120.466639	0.000546	5.456508	1.848715	-0.043557
1418	7.0850e-01	-16.6279	-120.724757	0.000647	6.466973	2.191070	-0.051624
1419	7.0900e-01	-16.6696	-120.982875	0.000647	6.466973	2.191070	-0.051624
1420	7.0950e-01	-16.7145	-121.269225	0.000717	7.174298	2.430718	-0.057270
1421	7.1000e-01	-16.7594	-121.466847	0.000495	4.951276	1.677538	-0.039524
1422	7.1050e-01	-16.7995	-121.741098	0.000687	6.871159	2.328012	-0.054850
1423	7.1100e-01	-16.8396	-121.983084	0.000606	6.062787	2.054128	-0.048397
1424	7.1150e-01	-16.8765	-122.208937	0.000566	5.658601	1.917186	-0.045171
1425	7.1200e-01	-16.9102	-122.426725	0.000546	5.456508	1.848715	-0.043557
1426	7.1250e-01	-16.9535	-122.664677	0.000596	5.961741	2.019892	-0.047591
1427	7.1300e-01	-17.0001	-122.862299	0.000495	4.951276	1.677538	-0.039524
1428	7.1350e-01	-17.0337	-123.132517	0.000677	6.770112	2.293776	-0.054044
1429	7.1400e-01	-17.0658	-123.394668	0.000657	6.568019	2.225305	-0.052430
1430	7.1450e-01	-17.1124	-123.660853	0.000667	6.669066	2.259541	-0.053237
1431	7.1500e-01	-17.1637	-123.842342	0.000455	4.547090	1.540596	-0.036298
1432	7.1550e-01	-17.1958	-124.068196	0.000566	5.658601	1.917186	-0.045171
1433	7.1600e-01	-17.2359	-124.310182	0.000606	6.062787	2.054128	-0.048397
1434	7.1650e-01	-17.2744	-124.552168	0.000606	6.062787	2.054128	-0.048397
1435	7.1700e-01	-17.3193	-124.798187	0.000616	6.163834	2.088363	-0.049204
1436	7.1750e-01	-17.3514	-124.979676	0.000455	4.547090	1.540596	-0.036298
1437	7.1800e-01	-17.3947	-125.278125	0.000748	7.477438	2.533424	-0.059690
1438	7.1850e-01	-17.4300	-125.491880	0.000536	5.355462	1.814480	-0.042751
1439	7.1900e-01	-17.4749	-125.790329	0.000748	7.477438	2.533424	-0.059690
1440	7.1950e-01	-17.5086	-125.971818	0.000455	4.547090	1.540596	-0.036298
1441	7.2000e-01	-17.5503	-126.197672	0.000566	5.658601	1.917186	-0.045171
1442	7.2050e-01	-17.5920	-126.467889	0.000677	6.770112	2.293776	-0.054044
1443	7.2100e-01	-17.6225	-126.806670	0.000849	8.487902	2.875779	-0.067756
1444	7.2150e-01	-17.6738	-126.959927	0.000384	3.839765	1.300948	-0.030652
1445	7.2200e-01	-17.7123	-127.189814	0.000576	5.759648	1.951422	-0.045977
1446	7.2250e-01	-17.7605	-127.355171	0.000414	4.142905	1.403654	-0.033071
1447	7.2300e-01	-17.7990	-127.653620	0.000748	7.477438	2.533424	-0.059690
1448	7.2350e-01	-17.8310	-127.847209	0.000485	4.850230	1.643302	-0.038718
1449	7.2400e-01	-17.8776	-128.133559	0.000717	7.174298	2.430718	-0.057270
1450	7.2450e-01	-17.9209	-128.355380	0.000556	5.557555	1.882951	-0.044364
1451	7.2500e-01	-17.9530	-128.597365	0.000606	6.062787	2.054128	-0.048397
1452	7.2550e-01	-17.9979	-128.835318	0.000596	5.961741	2.019892	-0.047591
1453	7.2600e-01	-18.0396	-129.004708	0.000424	4.243951	1.437890	-0.033878
1454	7.2650e-01	-18.0701	-129.323323	0.000798	7.982670	2.704602	-0.063723
1455	7.2700e-01	-18.1070	-129.581442	0.000647	6.466973	2.191070	-0.051624
1456	7.2750e-01	-18.1487	-129.750832	0.000424	4.243951	1.437890	-0.033878
1457	7.2800e-01	-18.1920	-130.004917	0.000637	6.365927	2.156834	-0.050817
1458	7.2850e-01	-18.2337	-130.206572	0.000505	5.052323	1.711773	-0.040331
1459	7.2900e-01	-18.2690	-130.521154	0.000788	7.881623	2.670366	-0.062916
1460	7.2950e-01	-18.3171	-130.601815	0.000202	2.020929	0.684709	-0.016132
1461	7.3000e-01	-18.3604	-130.968827	0.000920	9.195227	3.115427	-0.073402
1462	7.3050e-01	-18.3909	-131.166449	0.000495	4.951276	1.677538	-0.039524
1463	7.3100e-01	-18.4342	-131.404402	0.000596	5.961741	2.019892	-0.047591
1464	7.3150e-01	-18.4759	-131.698818	0.000738	7.376391	2.499189	-0.058883
1465	7.3200e-01	-18.5145	-131.948870	0.000626	6.264880	2.122599	-0.050010
1466	7.3250e-01	-18.5481	-132.194889	0.000616	6.163834	2.088363	-0.049204
1467	7.3300e-01	-18.5979	-132.364280	0.000424	4.243951	1.437890	-0.033878
1468	7.3350e-01	-18.6267	-132.614332	0.000626	6.264880	2.122599	-0.050010
1469	7.3400e-01	-18.6781	-132.864384	0.000626	6.264880	2.122599	-0.050010
1470	7.3450e-01	-18.7070	-133.110403	0.000616	6.163834	2.088363	-0.049204
1471	7.3500e-01	-18.7503	-133.372554	0.000657	6.568019	2.225305	-0.052430
1472	7.3550e-01	-18.7952	-133.554044	0.000455	4.547090	1.540596	-0.036298
1473	7.3600e-01	-18.8465	-133.836361	0.000707	7.073252	2.396483	-0.056463
1474	7.3650e-01	-18.8674	-134.102545	0.000667	6.669066	2.259541	-0.053237
1475	7.3700e-01	-18.9075	-134.288068	0.000465	4.648137	1.574831	-0.037105
1476	7.3750e-01	-18.9588	-134.586517	0.000748	7.477438	2.533424	-0.059690
1477	7.3800e-01	-19.0021	-134.747841	0.000404	4.041858	1.369419	-0.032265
1478	7.3850e-01	-19.0406	-134.953529	0.000515	5.153369	1.746009	-0.041138
1479	7.3900e-01	-19.0775	-135.268111	0.000788	7.881623	2.670366	-0.062916
1480	7.3950e-01	-19.1176	-135.538328	0.000677	6.770112	2.293776	-0.054044
1481	7.4000e-01	-19.1497	-135.711751	0.000434	4.344998	1.472125	-0.034685
1482	7.4050e-01	-19.1930	-135.977936	0.000667	6.669066	2.259541	-0.053237
1483	7.4100e-01	-19.2412	-136.171525	0.000485	4.850230	1.643302	-0.038718
1484	7.4150e-01	-19.2700	-136.409477	0.000596	5.961741	2.019892	-0.047591
1485	7.4200e-01	-19.3182	-136.768423	0.000899	8.993134	3.046956	-0.071789
1486	7.4250e-01	-19.3535	-136.877317	0.000273	2.728254	0.924358	-0.021779
1487	7.4300e-01	-19.3872	-137.167700	0.000728	7.275345	2.464953	-0.058077
1488	7.4350e-01	-19.4321	-137.429851	0.000657	6.568019	2.225305	-0.052430
1489	7.4400e-01	-19.4738	-137.667804	0.000596	5.961741	2.019892	-0.047591
1490	7.4450e-01	-19.5091	-137.905757	0.000596	5.961741	2.019892	-0.047591
1491	7.4500e-01	-19.5636	-138.111445	0.000515	5.153369	1.746009	-0.041138
1492	7.4550e-01	-19.5989	-138.333266	0.000556	5.557555	1.882951	-0.044364
1493	7.4600e-01	-19.6374	-138.571218	0.000596	5.961741	2.019892	-0.047591
1494	7.4650e-01	-19.6775	-138.817237	0.000616	6.163834	2.088363	-0.049204
1495	7.4700e-01	-19.7224	-139.039058	0.000556	5.557555	1.882951	-0.044364
1496	7.4750e-01	-19.7658	-139.381871	0.000859	8.588949	2.910015	-0.068563
1497	7.4800e-01	-19.7946	-139.575460	0.000485	4.850230	1.643302	-0.038718
1498	7.4850e-01	-19.8395	-139.777115	0.000505	5.052323	1.711773	-0.040331
1499	7.4900e-01	-19.8748	-140.071531	0.000738	7.376391	2.499189	-0.058883
1500	7.4950e-01	-19.9182	-140.309484	0.000596	5.961741	2.019892	-0.047591
1501	7.5000e-01	-19.9502	-140.571635	0.000657	6.568019	2.225305	-0.052430
1502	7.5050e-01	-19.9518	-140.741025	0.000424	4.243951	1.437890	-0.033878
1503	7.5100e-01	-19.9390	-140.745058	-0.000010	-0.101046	-0.034235	-0.000807
1504	7.5150e-01	-19.8941	-140.672463	0.000182	1.818836	0.616238	0.014519
1505	7.5200e-01	-19.8460	-140.575668	0.000243	2.425115	0.821651	0.019359
1506	7.5250e-01	-19.8155	-140.418377	0.000394	3.940812	1.335183	0.031458
1507	7.5300e-01	-19.7786	-140.208656	0.000525	5.254416	1.780244	0.041944
1508	7.5350e-01	-19.7401	-140.208656	0.000000	0.000000	0.000000	0.000000
1509	7.5400e-01	-19.7032	-140.023134	0.000465	4.648137	1.574831	0.037105
1510	7.5450e-01	-19.6519	-139.793247	0.000576	5.759648	1.951422	0.045977
1511	7.5500e-01	-19.6150	-139.652089	0.000354	3.536626	1.198241	0.028232
1512	7.5550e-01	-19.5781	-139.535129	0.000293	2.930347	0.992828	0.023392
1513	7.5600e-01	-19.5283	-139.393970	0.000354	3.536626	1.198241	0.028232
1514	7.5650e-01	-19.4962	-139.244746	0.000374	3.738719	1.266712	0.029845
1515	7.5700e-01	-19.4561	-139.087455	0.000394	3.940812	1.335183	0.031458
1516	7.5750e-01	-19.4176	-138.829337	0.000647	6.466973	2.191070	0.051624
1517	7.5800e-01	-19.3904	-138.716410	0.000283	2.829301	0.958593	0.022585
1518	7.5850e-01	-19.3294	-138.579285	0.000344	3.435579	1.164006	0.027425
1519	7.5900e-01	-19.2957	-138.486523	0.000232	2.324068	0.787416	0.018552
1520	7.5950e-01	-19.2572	-138.321166	0.000414	4.142905	1.403654	0.033071
1521	7.6000e-01	-19.2267	-138.119511	0.000505	5.052323	1.711773	0.040331
1522	7.6050e-01	-19.1818	-137.917856	0.000505	5.052323	1.711773	0.040331
1523	7.6100e-01	-19.1353	-137.772665	0.000364	3.637672	1.232477	0.029038
1524	7.6150e-01	-19.1016	-137.639573	0.000333	3.334533	1.129770	0.026618
1525	7.6200e-01	-19.0615	-137.522613	0.000293	2.930347	0.992828	0.023392
1526	7.6250e-01	-19.0294	-137.288693	0.000586	5.860694	1.985657	0.046784
1527	7.6300e-01	-18.9781	-137.212064	0.000192	1.919883	0.650474	0.015326
1528	7.6350e-01	-18.9428	-136.941846	0.000677	6.770112	2.293776	0.054044
1529	7.6400e-01	-18.8947	-136.768423	0.000434	4.344998	1.472125	0.034685
1530	7.6450e-01	-18.8578	-136.607099	0.000404	4.041858	1.369419	0.032265
1531	7.6500e-01	-18.8193	-136.538537	0.000172	1.717790	0.582003	0.013713
1532	7.6550e-01	-18.7808	-136.308650	0.000576	5.759648	1.951422	0.045977
1533	7.6600e-01	-18.7423	-136.131194	0.000445	4.446044	1.506360	0.035491
1534	7.6650e-01	-18.7054	-135.945671	0.000465	4.648137	1.574831	0.037105
1535	7.6700e-01	-18.6620	-135.739983	0.000515	5.153369	1.746009	0.041138
1536	7.6750e-01	-18.6155	-135.598825	0.000354	3.536626	1.198241	0.028232
1537	7.6800e-01	-18.5786	-135.453633	0.000364	3.637672	1.232477	0.029038
1538	7.6850e-01	-18.5417	-135.247945	0.000515	5.153369	1.746009	0.041138
1539	7.6900e-01	-18.5032	-135.094687	0.000384	3.839765	1.300948	0.030652
1540	7.6950e-01	-18.4631	-134.905132	0.000475	4.749183	1.609067	0.037911
1541	7.7000e-01	-18.4134	-134.687344	0.000546	5.456508	1.848715	0.043557
1542	7.7050e-01	-18.3829	-134.534087	0.000384	3.839765	1.300948	0.030652
1543	7.7100e-01	-18.3460	-134.304200	0.000576	5.759648	1.951422	0.045977
1544	7.7150e-01	-18.2995	-134.171108	0.000333	3.334533	1.129770	0.026618
1545	7.7200e-01	-18.2658	-133.965420	0.000515	5.153369	1.746009	0.041138
1546	7.7250e-01	-18.2145	-133.759732	0.000515	5.153369	1.746009	0.041138
1547	7.7300e-01	-18.1776	-133.582275	0.000445	4.446044	1.506360	0.035491
1548	7.7350e-01	-18.1342	-133.384654	0.000495	4.951276	1.677538	0.039524
1549	7.7400e-01	-18.1038	-133.207197	0.000445	4.446044	1.506360	0.035491
1550	7.7450e-01	-18.0540	-133.102337	0.000263	2.627208	0.890122	0.020972
1551	7.7500e-01	-18.0252	-132.860351	0.000606	6.062787	2.054128	0.048397
1552	7.7550e-01	-17.9722	-132.715159	0.000364	3.637672	1.232477	0.029038
1553	7.7600e-01	-17.9466	-132.565935	0.000374	3.738719	1.266712	0.029845
1554	7.7650e-01	-17.8984	-132.368313	0.000495	4.951276	1.677538	0.039524
1555	7.7700e-01	-17.8455	-132.182790	0.000465	4.648137	1.574831	0.037105
1556	7.7750e-01	-17.8198	-132.009367	0.000434	4.344998	1.472125	0.034685
1557	7.7800e-01	-17.7765	-131.852076	0.000394	3.940812	1.335183	0.031458
1558	7.7850e-01	-17.7428	-131.581858	0.000677	6.770112	2.293776	0.054044
1559	7.7900e-01	-17.6947	-131.428601	0.000384	3.839765	1.300948	0.030652
1560	7.7950e-01	-17.6594	-131.259211	0.000424	4.243951	1.437890	0.033878
1561	7.8000e-01	-17.6257	-131.049489	0.000525	5.254416	1.780244	0.041944
1562	7.8050e-01	-17.5760	-130.847835	0.000505	5.052323	1.711773	0.040331
1563	7.8100e-01	-17.5375	-130.702643	0.000364	3.637672	1.232477	0.029038
1564	7.8150e-01	-17.4926	-130.456624	0.000616	6.163834	2.088363	0.049204
1565	7.8200e-01	-17.4637	-130.303366	0.000384	3.839765	1.300948	0.030652
1566	7.8250e-01	-17.4204	-130.041215	0.000657	6.568019	2.225305	0.052430
1567	7.8300e-01	-17.3803	-129.916189	0.000313	3.132440	1.061299	0.025005
1568	7.8350e-01	-17.3273	-129.775030	0.000354	3.536626	1.198241	0.028232
1569	7.8400e-01	-17.3017	-129.504813	0.000677	6.770112	2.293776	0.054044
1570	7.8450e-01	-17.2567	-129.327356	0.000445	4.446044	1.506360	0.035491
1571	7.8500e-01	-17.2198	-129.170065	0.000394	3.940812	1.335183	0.031458
1572	7.8550e-01	-17.1733	-128.988576	0.000455	4.547090	1.540596	0.036298
1573	7.8600e-01	-17.1316	-128.746590	0.000606	6.062787	2.054128	0.048397
1574	7.8650e-01	-17.0931	-128.561068	0.000465	4.648137	1.574831	0.037105
1575	7.8700e-01	-17.0594	-128.423942	0.000344	3.435579	1.164006	0.027425
1576	7.8750e-01	-17.0145	-128.185989	0.000596	5.961741	2.019892	0.047591
1577	7.8800e-01	-16.9808	-127.996434	0.000475	4.749183	1.609067	0.037911
1578	7.8850e-01	-16.9423	-127.746382	0.000626	6.264880	2.122599	0.050010
1579	7.8900e-01	-16.9022	-127.617323	0.000323	3.233487	1.095535	0.025812
1580	7.8950e-01	-16.8605	-127.419701	0.000495	4.951276	1.677538	0.039524
1581	7.9000e-01	-16.8156	-127.189814	0.000576	5.759648	1.951422	0.045977
1582	7.9050e-01	-16.7851	-126.984126	0.000515	5.153369	1.746009	0.041138
1583	7.9100e-01	-16.7370	-126.802637	0.000455	4.547090	1.540596	0.036298
1584	7.9150e-01	-16.6936	-126.653412	0.000374	3.738719	1.266712	0.029845
1585	7.9200e-01	-16.6616	-126.423525	0.000576	5.759648	1.951422	0.045977
1586	7.9250e-01	-16.6118	-126.258168	0.000414	4.142905	1.403654	0.033071
1587	7.9300e-01	-16.5781	-125.931487	0.000818	8.184763	2.773073	0.065336
1588	7.9350e-01	-16.5364	-125.850825	0.000202	2.020929	0.684709	0.016132
1589	7.9400e-01	-16.4915	-125.600773	0.000626	6.264880	2.122599	0.050010
1590	7.9450e-01	-16.4498	-125.350721	0.000626	6.264880	2.122599	0.050010
1591	7.9500e-01	-16.4145	-125.217629	0.000333	3.334533	1.129770	0.026618
1592	7.9550e-01	-16.3792	-125.011941	0.000515	5.153369	1.746009	0.041138
1593	7.9600e-01	-16.3375	-124.834484	0.000445	4.446044	1.506360	0.035491
1594	7.9650e-01	-16.3006	-124.632830	0.000505	5.052323	1.711773	0.040331
1595	7.9700e-01	-16.2573	-124.431175	0.000505	5.052323	1.711773	0.040331
1596	7.9750e-01	-16.2172	-124.217420	0.000536	5.355462	1.814480	0.042751
1597	7.9800e-01	-16.1787	-124.027865	0.000475	4.749183	1.609067	0.037911
1598	7.9850e-01	-16.1402	-123.797978	0.000576	5.759648	1.951422	0.045977
1599	7.9900e-01	-16.0953	-123.689084	0.000273	2.728254	0.924358	0.021779
1600	7.9950e-01	-16.0520	-123.471297	0.000546	5.456508	1.848715	0.043557
1601	8.0000e-01	-16.0183	-123.257543	0.000536	5.355462	1.814480	0.042751
1602	8.0050e-01	-15.9830	-122.951027	0.000768	7.679530	2.601895	0.061303
1603	8.0100e-01	-15.9397	-122.733240	0.000546	5.456508	1.848715	0.043557
1604	8.0150e-01	-15.8947	-122.652578	0.000202	2.020929	0.684709	0.016132
1605	8.0200e-01	-15.8578	-122.446890	0.000515	5.153369	1.746009	0.041138
1606	8.0250e-01	-15.8113	-122.277500	0.000424	4.243951	1.437890	0.033878
1607	8.0300e-01	-15.7712	-122.039547	0.000596	5.961741	2.019892	0.047591
1608	8.0350e-01	-15.7375	-121.789495	0.000626	6.264880	2.122599	0.050010
1609	8.0400e-01	-15.7086	-121.579774	0.000525	5.254416	1.780244	0.041944
1610	8.0450e-01	-15.6525	-121.361987	0.000546	5.456508	1.848715	0.043557
1611	8.0500e-01	-15.6156	-121.136133	0.000566	5.658601	1.917186	0.045171
1612	8.0550e-01	-15.5771	-120.950611	0.000465	4.648137	1.574831	0.037105
1613	8.0600e-01	-15.5402	-120.744923	0.000515	5.153369	1.746009	0.041138
1614	8.0650e-01	-15.5049	-120.575532	0.000424	4.243951	1.437890	0.033878
1615	8.0700e-01	-15.4648	-120.337580	0.000596	5.961741	2.019892	0.047591
1616	8.0750e-01	-15.4167	-120.212553	0.000313	3.132440	1.061299	0.025005
1617	8.0800e-01	-15.3766	-119.857641	0.000889	8.892088	3.012721	0.070983
1618	8.0850e-01	-15.3333	-119.660019	0.000495	4.951276	1.677538	0.039524
1619	8.0900e-01	-15.2948	-119.498695	0.000404	4.041858	1.369419	0.032265
1620	8.0950e-01	-15.2563	-119.365603	0.000333	3.334533	1.129770	0.026618
1621	8.1000e-01	-15.2178	-119.099418	0.000667	6.669066	2.259541	0.053237
1622	8.1050e-01	-15.1776	-118.829201	0.000677	6.770112	2.293776	0.054044
1623	8.1100e-01	-15.1456	-118.684009	0.000364	3.637672	1.232477	0.029038
1624	8.1150e-01	-15.0926	-118.498487	0.000465	4.648137	1.574831	0.037105
1625	8.1200e-01	-15.0654	-118.147607	0.000879	8.791041	2.978485	0.070176
1626	8.1250e-01	-15.0060	-117.929820	0.000546	5.456508	1.848715	0.043557
1627	8.1300e-01	-14.9787	-117.800761	0.000323	3.233487	1.095535	0.025812
1628	8.1350e-01	-14.9370	-117.514411	0.000717	7.174298	2.430718	0.057270
1629	8.1400e-01	-14.9065	-117.336954	0.000445	4.446044	1.506360	0.035491
1630	8.1450e-01	-14.8648	-117.103034	0.000586	5.860694	1.985657	0.046784
1631	8.1500e-01	-14.8199	-116.917512	0.000465	4.648137	1.574831	0.037105
1632	8.1550e-01	-14.7814	-116.691658	0.000566	5.658601	1.917186	0.045171
1633	8.1600e-01	-14.7317	-116.546467	0.000364	3.637672	1.232477	0.029038
1634	8.1650e-01	-14.6916	-116.360944	0.000465	4.648137	1.574831	0.037105
1635	8.1700e-01	-14.6691	-116.094760	0.000667	6.669066	2.259541	0.053237
1636	8.1750e-01	-14.6114	-115.917303	0.000445	4.446044	1.506360	0.035491
1637	8.1800e-01	-14.5761	-115.663218	0.000637	6.365927	2.156834	0.050817
1638	8.1850e-01	-14.5343	-115.501894	0.000404	4.041858	1.369419	0.032265
1639	8.1900e-01	-14.4942	-115.146982	0.000889	8.892088	3.012721	0.070983
1640	8.1950e-01	-14.4590	-115.070353	0.000192	1.919883	0.650474	0.015326
1641	8.2000e-01	-14.4092	-114.820301	0.000626	6.264880	2.122599	0.050010
1642	8.2050e-01	-14.3755	-114.590414	0.000576	5.759648	1.951422	0.045977
1643	8.2100e-01	-14.3386	-114.421024	0.000424	4.243951	1.437890	0.033878
1644	8.2150e-01	-14.3001	-114.162906	0.000647	6.466973	2.191070	0.051624
1645	8.2200e-01	-14.2552	-113.916887	0.000616	6.163834	2.088363	0.049204
1646	8.2250e-01	-14.2247	-113.626503	0.000728	7.275345	2.464953	0.058077
1647	8.2300e-01	-14.1830	-113.493411	0.000333	3.334533	1.129770	0.026618
1648	8.2350e-01	-14.1445	-113.275624	0.000546	5.456508	1.848715	0.043557
1649	8.2400e-01	-14.0900	-113.130432	0.000364	3.637672	1.232477	0.029038
1650	8.2450e-01	-14.0659	-112.880380	0.000626	6.264880	2.122599	0.050010
1651	8.2500e-01	-14.0098	-112.674692	0.000515	5.153369	1.746009	0.041138
1652	8.2550e-01	-13.9681	-112.392375	0.000707	7.073252	2.396483	0.056463
1653	8.2600e-01	-13.9312	-112.178621	0.000536	5.355462	1.814480	0.042751
1654	8.2650e-01	-13.8911	-111.948734	0.000576	5.759648	1.951422	0.045977
1655	8.2700e-01	-13.8526	-111.730947	0.000546	5.456508	1.848715	0.043557
1656	8.2750e-01	-13.8108	-111.565590	0.000414	4.142905	1.403654	0.033071
1657	8.2800e-01	-13.7804	-111.347803	0.000546	5.456508	1.848715	0.043557
1658	8.2850e-01	-13.7322	-111.101784	0.000616	6.163834	2.088363	0.049204
1659	8.2900e-01	-13.6937	-110.932394	0.000424	4.243951	1.437890	0.033878
1660	8.2950e-01	-13.6600	-110.593613	0.000849	8.487902	2.875779	0.067756
1661	8.3000e-01	-13.6167	-110.468587	0.000313	3.132440	1.061299	0.025005
1662	8.3050e-01	-13.5734	-110.194337	0.000687	6.871159	2.328012	0.054850
1663	8.3100e-01	-13.5317	-109.924119	0.000677	6.770112	2.293776	0.054044
1664	8.3150e-01	-13.4964	-109.819258	0.000263	2.627208	0.890122	0.020972
1665	8.3200e-01	-13.4579	-109.553074	0.000667	6.669066	2.259541	0.053237
1666	8.3250e-01	-13.4146	-109.343353	0.000525	5.254416	1.780244	0.041944
1667	8.3300e-01	-13.3745	-109.081201	0.000657	6.568019	2.225305	0.052430
1668	8.3350e-01	-13.3456	-108.839215	0.000606	6.062787	2.054128	0.048397
1669	8.3400e-01	-13.3135	-108.677891	0.000404	4.041858	1.369419	0.032265
1670	8.3450e-01	-13.2622	-108.419773	0.000647	6.466973	2.191070	0.051624
1671	8.3500e-01	-13.2189	-108.197953	0.000556	5.557555	1.882951	0.044364
1672	8.3550e-01	-13.1772	-108.008397	0.000475	4.749183	1.609067	0.037911
1673	8.3600e-01	-13.1355	-107.790610	0.000546	5.456508	1.848715	0.043557
1674	8.3650e-01	-13.0954	-107.552657	0.000596	5.961741	2.019892	0.047591
1675	8.3700e-01	-13.0552	-107.342936	0.000525	5.254416	1.780244	0.041944
1676	8.3750e-01	-13.0135	-107.032387	0.000778	7.780577	2.636131	0.062110
1677	8.3800e-01	-12.9750	-106.806534	0.000566	5.658601	1.917186	0.045171
1678	8.3850e-01	-12.9349	-106.625044	0.000455	4.547090	1.540596	0.036298
1679	8.3900e-01	-12.9012	-106.274165	0.000879	8.791041	2.978485	0.070176
1680	8.3950e-01	-12.8579	-106.145106	0.000323	3.233487	1.095535	0.025812
1681	8.4000e-01	-12.8146	-105.943451	0.000505	5.052323	1.711773	0.040331
1682	8.4050e-01	-12.7761	-105.697432	0.000616	6.163834	2.088363	0.049204
1683	8.4100e-01	-12.7408	-105.499810	0.000495	4.951276	1.677538	0.039524
1684	8.4150e-01	-12.6895	-105.306221	0.000485	4.850230	1.643302	0.038718
1685	8.4200e-01	-12.6574	-105.056169	0.000626	6.264880	2.122599	0.050010
1686	8.4250e-01	-12.6141	-104.814183	0.000606	6.062787	2.054128	0.048397
1687	8.4300e-01	-12.5820	-104.584296	0.000576	5.759648	1.951422	0.045977
1688	8.4350e-01	-12.5339	-104.390708	0.000485	4.850230	1.643302	0.038718
1689	8.4400e-01	-12.4922	-104.068060	0.000808	8.083716	2.738837	0.064530
1690	8.4450e-01	-12.4633	-103.886570	0.000455	4.547090	1.540596	0.036298
1691	8.4500e-01	-12.4152	-103.644584	0.000606	6.062787	2.054128	0.048397
1692	8.4550e-01	-12.3767	-103.467128	0.000445	4.446044	1.506360	0.035491
1693	8.4600e-01	-12.3366	-103.249341	0.000546	5.456508	1.848715	0.043557
1694	8.4650e-01	-12.2980	-103.015421	0.000586	5.860694	1.985657	0.046784
1695	8.4700e-01	-12.2595	-102.789568	0.000566	5.658601	1.917186	0.045171
1696	8.4750e-01	-12.2243	-102.595979	0.000485	4.850230	1.643302	0.038718
1697	8.4800e-01	-12.1729	-102.309629	0.000717	7.174298	2.430718	0.057270
1698	8.4850e-01	-12.1344	-102.011179	0.000748	7.477438	2.533424	0.059690
1699	8.4900e-01	-12.0911	-101.793392	0.000546	5.456508	1.848715	0.043557
1700	8.4950e-01	-12.0494	-101.563506	0.000576	5.759648	1.951422	0.045977
1701	8.5000e-01	-12.0205	-101.333619	0.000576	5.759648	1.951422	0.045977
1702	8.5050e-01	-11.9756	-101.176328	0.000394	3.940812	1.335183	0.031458
1703	8.5100e-01	-11.9451	-100.938375	0.000596	5.961741	2.019892	0.047591
1704	8.5150e-01	-11.9050	-100.611694	0.000818	8.184763	2.773073	0.065336
1705	8.5200e-01	-11.8585	-100.410039	0.000505	5.052323	1.711773	0.040331
1706	8.5250e-01	-11.8152	-100.244682	0.000414	4.142905	1.403654	0.033071
1707	8.5300e-01	-11.7767	-99.966399	0.000697	6.972205	2.362247	0.055657
1708	8.5350e-01	-11.7414	-99.764744	0.000505	5.052323	1.711773	0.040331
1709	8.5400e-01	-11.6949	-99.474360	0.000728	7.275345	2.464953	0.058077
1710	8.5450e-01	-11.6483	-99.228341	0.000616	6.163834	2.088363	0.049204
1711	8.5500e-01	-11.6162	-99.054918	0.000434	4.344998	1.472125	0.034685
1712	8.5550e-01	-11.5777	-98.845197	0.000525	5.254416	1.780244	0.041944
1713	8.5600e-01	-11.5392	-98.587079	0.000647	6.466973	2.191070	0.051624
1714	8.5650e-01	-11.4911	-98.377358	0.000525	5.254416	1.780244	0.041944
1715	8.5700e-01	-11.4655	-98.086975	0.000728	7.275345	2.464953	0.058077
1716	8.5750e-01	-11.4173	-97.849022	0.000596	5.961741	2.019892	0.047591
1717	8.5800e-01	-11.3820	-97.570738	0.000697	6.972205	2.362247	0.055657
1718	8.5850e-01	-11.3323	-97.425546	0.000364	3.637672	1.232477	0.029038
1719	8.5900e-01	-11.2986	-97.070634	0.000889	8.892088	3.012721	0.070983
1720	8.5950e-01	-11.2537	-96.973839	0.000243	2.425115	0.821651	0.019359
1721	8.6000e-01	-11.2216	-96.655225	0.000798	7.982670	2.704602	0.063723
1722	8.6050e-01	-11.1847	-96.397106	0.000647	6.466973	2.191070	0.051624
1723	8.6100e-01	-11.1414	-96.207551	0.000475	4.749183	1.609067	0.037911
1724	8.6150e-01	-11.0836	-95.832472	0.000940	9.397320	3.183898	0.075016
1725	8.6200e-01	-11.0580	-95.675182	0.000394	3.940812	1.335183	0.031458
1726	8.6250e-01	-11.0211	-95.388832	0.000717	7.174298	2.430718	0.057270
1727	8.6300e-01	-10.9730	-95.191210	0.000495	4.951276	1.677538	0.039524
1728	8.6350e-01	-10.9361	-94.933091	0.000647	6.466973	2.191070	0.051624
1729	8.6400e-01	-10.8992	-94.715304	0.000546	5.456508	1.848715	0.043557
1730	8.6450e-01	-10.8558	-94.437020	0.000697	6.972205	2.362247	0.055657
1731	8.6500e-01	-10.8254	-94.279729	0.000394	3.940812	1.335183	0.031458
1732	8.6550e-01	-10.7756	-93.973214	0.000768	7.679530	2.601895	0.061303
1733	8.6600e-01	-10.7339	-93.731228	0.000606	6.062787	2.054128	0.048397
1734	8.6650e-01	-10.7002	-93.513441	0.000546	5.456508	1.848715	0.043557
1735	8.6700e-01	-10.6521	-93.315819	0.000495	4.951276	1.677538	0.039524
1736	8.6750e-01	-10.6184	-93.041568	0.000687	6.871159	2.328012	0.054850
1737	8.6800e-01	-10.5767	-92.807648	0.000586	5.860694	1.985657	0.046784
1738	8.6850e-01	-10.5334	-92.601960	0.000515	5.153369	1.746009	0.041138
1739	8.6900e-01	-10.4901	-92.351908	0.000626	6.264880	2.122599	0.050010
1740	8.6950e-01	-10.4548	-92.113956	0.000596	5.961741	2.019892	0.047591
1741	8.7000e-01	-10.4259	-91.771142	0.000859	8.588949	2.910015	0.068563
1742	8.7050e-01	-10.3794	-91.565454	0.000515	5.153369	1.746009	0.041138
1743	8.7100e-01	-10.3425	-91.291203	0.000687	6.871159	2.328012	0.054850
1744	8.7150e-01	-10.2960	-91.109714	0.000455	4.547090	1.540596	0.036298
1745	8.7200e-01	-10.2559	-90.883860	0.000566	5.658601	1.917186	0.045171
1746	8.7250e-01	-10.2206	-90.653974	0.000576	5.759648	1.951422	0.045977
1747	8.7300e-01	-10.1837	-90.411988	0.000606	6.062787	2.054128	0.048397
1748	8.7350e-01	-10.1436	-90.097406	0.000788	7.881623	2.670366	0.062916
1749	8.7400e-01	-10.0970	-89.851387	0.000616	6.163834	2.088363	0.049204
1750	8.7450e-01	-10.0650	-89.581170	0.000677	6.770112	2.293776	0.054044
1751	8.7500e-01	-10.0200	-89.351283	0.000576	5.759648	1.951422	0.045977
1752	8.7550e-01	-9.9799	-89.064933	0.000717	7.174298	2.430718	0.057270
1753	8.7600e-01	-9.9430	-88.798748	0.000667	6.669066	2.259541	0.053237
1754	8.7650e-01	-9.8981	-88.548696	0.000626	6.264880	2.122599	0.050010
1755	8.7700e-01	-9.8644	-88.395439	0.000384	3.839765	1.300948	0.030652
1756	8.7750e-01	-9.8147	-88.125221	0.000677	6.770112	2.293776	0.054044
1757	8.7800e-01	-9.7762	-87.867103	0.000647	6.466973	2.191070	0.051624
1758	8.7850e-01	-9.7313	-87.540422	0.000818	8.184763	2.773073	0.065336
1759	8.7900e-01	-9.6896	-87.322634	0.000546	5.456508	1.848715	0.043557
1760	8.7950e-01	-9.6559	-87.145178	0.000445	4.446044	1.506360	0.035491
1761	8.8000e-01	-9.6174	-86.854795	0.000728	7.275345	2.464953	0.058077
1762	8.8050e-01	-9.5757	-86.624908	0.000576	5.759648	1.951422	0.045977
1763	8.8100e-01	-9.5372	-86.358724	0.000667	6.669066	2.259541	0.053237
1764	8.8150e-01	-9.4906	-86.136903	0.000556	5.557555	1.882951	0.044364
1765	8.8200e-01	-9.4666	-85.866686	0.000677	6.770112	2.293776	0.054044
1766	8.8250e-01	-9.4233	-85.632766	0.000586	5.860694	1.985657	0.046784
1767	8.8300e-01	-9.3751	-85.346416	0.000717	7.174298	2.430718	0.057270
1768	8.8350e-01	-9.3398	-85.039901	0.000768	7.679530	2.601895	0.061303
1769	8.8400e-01	-9.2997	-84.858411	0.000455	4.547090	1.540596	0.036298
1770	8.8450e-01	-9.2548	-84.612392	0.000616	6.163834	2.088363	0.049204
1771	8.8500e-01	-9.2227	-84.406704	0.000515	5.153369	1.746009	0.041138
1772	8.8550e-01	-9.1778	-84.217148	0.000475	4.749183	1.609067	0.037911
1773	8.8600e-01	-9.1297	-83.882401	0.000839	8.386856	2.841544	0.066949
1774	8.8650e-01	-9.0896	-83.579919	0.000758	7.578484	2.567660	0.060496
1775	8.8700e-01	-9.0575	-83.313734	0.000667	6.669066	2.259541	0.053237
1776	8.8750e-01	-9.0190	-83.059649	0.000637	6.365927	2.156834	0.050817
1777	8.8800e-01	-8.9725	-82.773299	0.000717	7.174298	2.430718	0.057270
1778	8.8850e-01	-8.9436	-82.583744	0.000475	4.749183	1.609067	0.037911
1779	8.8900e-01	-8.8939	-82.289327	0.000738	7.376391	2.499189	0.058883
1780	8.8950e-01	-8.8666	-82.055408	0.000586	5.860694	1.985657	0.046784
1781	8.9000e-01	-8.8185	-81.728727	0.000818	8.184763	2.773073	0.065336
1782	8.9050e-01	-8.7768	-81.539171	0.000475	4.749183	1.609067	0.037911
1783	8.9100e-01	-8.7367	-81.341549	0.000495	4.951276	1.677538	0.039524
1784	8.9150e-01	-8.6965	-81.043100	0.000748	7.477438	2.533424	0.059690
1785	8.9200e-01	-8.6580	-80.684154	0.000899	8.993134	3.046956	0.071789
1786	8.9250e-01	-8.6211	-80.462334	0.000556	5.557555	1.882951	0.044364
1787	8.9300e-01	-8.5746	-80.252613	0.000525	5.254416	1.780244	0.041944
1788	8.9350e-01	-8.5361	-80.030792	0.000556	5.557555	1.882951	0.044364
1789	8.9400e-01	-8.4912	-79.724277	0.000768	7.679530	2.601895	0.061303
1790	8.9450e-01	-8.4591	-79.494390	0.000576	5.759648	1.951422	0.045977
1791	8.9500e-01	-8.4174	-79.248371	0.000616	6.163834	2.088363	0.049204
1792	8.9550e-01	-8.3789	-79.002352	0.000616	6.163834	2.088363	0.049204
1793	8.9600e-01	-8.3308	-78.764399	0.000596	5.961741	2.019892	0.047591
1794	8.9650e-01	-8.3019	-78.429652	0.000839	8.386856	2.841544	0.066949
1795	8.9700e-01	-8.2490	-78.131203	0.000748	7.477438	2.533424	0.059690
1796	8.9750e-01	-8.2201	-78.006177	0.000313	3.132440	1.061299	0.025005
1797	8.9800e-01	-8.1768	-77.719827	0.000717	7.174298	2.430718	0.057270
1798	8.9850e-01	-8.1351	-77.449609	0.000677	6.770112	2.293776	0.054044
1799	8.9900e-01	-8.0918	-77.235855	0.000536	5.355462	1.814480	0.042751
1800	8.9950e-01	-8.0645	-76.832545	0.001010	10.104645	3.423547	0.080662
1801	9.0000e-01	-8.0180	-76.578460	0.000637	6.365927	2.156834	0.050817
1802	9.0050e-01	-7.9827	-76.275977	0.000758	7.578484	2.567660	0.060496
1803	9.0100e-01	-7.9458	-76.094488	0.000455	4.547090	1.540596	0.036298
1804	9.0150e-01	-7.8944	-75.888800	0.000515	5.153369	1.746009	0.041138
1805	9.0200e-01	-7.8639	-75.618582	0.000677	6.770112	2.293776	0.054044
1806	9.0250e-01	-7.8254	-75.312067	0.000768	7.679530	2.601895	0.061303
1807	9.0300e-01	-7.7725	-75.001518	0.000778	7.780577	2.636131	0.062110
1808	9.0350e-01	-7.7420	-74.787764	0.000536	5.355462	1.814480	0.042751
1809	9.0400e-01	-7.6971	-74.513513	0.000687	6.871159	2.328012	0.054850
1810	9.0450e-01	-7.6522	-74.263461	0.000626	6.264880	2.122599	0.050010
1811	9.0500e-01	-7.6169	-73.977111	0.000717	7.174298	2.430718	0.057270
1812	9.0550e-01	-7.5768	-73.743191	0.000586	5.860694	1.985657	0.046784
1813	9.0600e-01	-7.5351	-73.505239	0.000596	5.961741	2.019892	0.047591
1814	9.0650e-01	-7.5030	-73.178558	0.000818	8.184763	2.773073	0.065336
1815	9.0700e-01	-7.4485	-72.960770	0.000546	5.456508	1.848715	0.043557
1816	9.0750e-01	-7.4132	-72.654255	0.000768	7.679530	2.601895	0.061303
1817	9.0800e-01	-7.3698	-72.388070	0.000667	6.669066	2.259541	0.053237
1818	9.0850e-01	-7.3362	-72.154151	0.000586	5.860694	1.985657	0.046784
1819	9.0900e-01	-7.2961	-71.875867	0.000697	6.972205	2.362247	0.055657
1820	9.0950e-01	-7.2511	-71.662113	0.000536	5.355462	1.814480	0.042751
1821	9.1000e-01	-7.2126	-71.359630	0.000758	7.578484	2.567660	0.060496
1822	9.1050e-01	-7.1773	-71.101512	0.000647	6.466973	2.191070	0.051624
1823	9.1100e-01	-7.1404	-70.823228	0.000697	6.972205	2.362247	0.055657
1824	9.1150e-01	-7.1019	-70.480415	0.000859	8.588949	2.910015	0.068563
1825	9.1200e-01	-7.0554	-70.250528	0.000576	5.759648	1.951422	0.045977
1826	9.1250e-01	-7.0201	-69.923847	0.000818	8.184763	2.773073	0.065336
1827	9.1300e-01	-6.9784	-69.677828	0.000616	6.163834	2.088363	0.049204
1828	9.1350e-01	-6.9303	-69.476173	0.000505	5.052323	1.711773	0.040331
1829	9.1400e-01	-6.9046	-69.165624	0.000778	7.780577	2.636131	0.062110
1830	9.1450e-01	-6.8549	-68.867175	0.000748	7.477438	2.533424	0.059690
1831	9.1500e-01	-6.8228	-68.669553	0.000495	4.951276	1.677538	0.039524
1832	9.1550e-01	-6.7779	-68.403369	0.000667	6.669066	2.259541	0.053237
1833	9.1600e-01	-6.7346	-68.076688	0.000818	8.184763	2.773073	0.065336
1834	9.1650e-01	-6.6977	-67.810503	0.000667	6.669066	2.259541	0.053237
1835	9.1700e-01	-6.6544	-67.483822	0.000818	8.184763	2.773073	0.065336
1836	9.1750e-01	-6.6175	-67.253936	0.000576	5.759648	1.951422	0.045977
1837	9.1800e-01	-6.5806	-67.024049	0.000576	5.759648	1.951422	0.045977
1838	9.1850e-01	-6.5389	-66.745765	0.000697	6.972205	2.362247	0.055657
1839	9.1900e-01	-6.4955	-66.491680	0.000637	6.365927	2.156834	0.050817
1840	9.1950e-01	-6.4602	-66.193231	0.000748	7.477438	2.533424	0.059690
1841	9.2000e-01	-6.4105	-65.963344	0.000576	5.759648	1.951422	0.045977
1842	9.2050e-01	-6.3768	-65.620531	0.000859	8.588949	2.910015	0.068563
1843	9.2100e-01	-6.3351	-65.350313	0.000677	6.770112	2.293776	0.054044
1844	9.2150e-01	-6.3030	-65.084129	0.000667	6.669066	2.259541	0.053237
1845	9.2200e-01	-6.2613	-64.826010	0.000647	6.466973	2.191070	0.051624
1846	9.2250e-01	-6.2196	-64.652587	0.000434	4.344998	1.472125	0.034685
1847	9.2300e-01	-6.1875	-64.313807	0.000849	8.487902	2.875779	0.067756
1848	9.2350e-01	-6.1426	-64.075854	0.000596	5.961741	2.019892	0.047591
1849	9.2400e-01	-6.0913	-63.906464	0.000424	4.243951	1.437890	0.033878
1850	9.2450e-01	-6.0544	-63.499121	0.001021	10.205692	3.457782	0.081469
1851	9.2500e-01	-6.0127	-63.168407	0.000829	8.285809	2.807308	0.066143
1852	9.2550e-01	-5.9774	-62.821560	0.000869	8.689995	2.944250	0.069369
1853	9.2600e-01	-5.9469	-62.656203	0.000414	4.142905	1.403654	0.033071
1854	9.2650e-01	-5.8956	-62.422284	0.000586	5.860694	1.985657	0.046784
1855	9.2700e-01	-5.8587	-62.055272	0.000920	9.195227	3.115427	0.073402
1856	9.2750e-01	-5.8202	-61.716491	0.000849	8.487902	2.875779	0.067756
1857	9.2800e-01	-5.7768	-61.539035	0.000445	4.446044	1.506360	0.035491
1858	9.2850e-01	-5.7464	-61.240586	0.000748	7.477438	2.533424	0.059690
1859	9.2900e-01	-5.7030	-60.986501	0.000637	6.365927	2.156834	0.050817
1860	9.2950e-01	-5.6629	-60.756614	0.000576	5.759648	1.951422	0.045977
1861	9.3000e-01	-5.6180	-60.401701	0.000889	8.892088	3.012721	0.070983
1862	9.3050e-01	-5.5715	-60.187947	0.000536	5.355462	1.814480	0.042751
1863	9.3100e-01	-5.5298	-59.824968	0.000909	9.094181	3.081192	0.072596
1864	9.3150e-01	-5.5025	-59.510386	0.000788	7.881623	2.670366	0.062916
1865	9.3200e-01	-5.4576	-59.260334	0.000626	6.264880	2.122599	0.050010
1866	9.3250e-01	-5.4239	-59.026415	0.000586	5.860694	1.985657	0.046784
1867	9.3300e-01	-5.3806	-58.792495	0.000586	5.860694	1.985657	0.046784
1868	9.3350e-01	-5.3373	-58.457748	0.000839	8.386856	2.841544	0.066949
1869	9.3400e-01	-5.3036	-58.203662	0.000637	6.365927	2.156834	0.050817
1870	9.3450e-01	-5.2523	-57.881015	0.000808	8.083716	2.738837	0.064530
1871	9.3500e-01	-5.2218	-57.602731	0.000697	6.972205	2.362247	0.055657
1872	9.3550e-01	-5.1817	-57.312348	0.000728	7.275345	2.464953	0.058077
1873	9.3600e-01	-5.1416	-57.074395	0.000596	5.961741	2.019892	0.047591
1874	9.3650e-01	-5.0983	-56.808210	0.000667	6.669066	2.259541	0.053237
1875	9.3700e-01	-5.0598	-56.417000	0.000980	9.801506	3.320840	0.078242
1876	9.3750e-01	-5.0261	-56.183080	0.000586	5.860694	1.985657	0.046784
1877	9.3800e-01	-4.9811	-55.965293	0.000546	5.456508	1.848715	0.043557
1878	9.3850e-01	-4.9298	-55.658777	0.000768	7.679530	2.601895	0.061303
1879	9.3900e-01	-4.9057	-55.311931	0.000869	8.689995	2.944250	0.069369
1880	9.3950e-01	-4.8656	-55.025581	0.000717	7.174298	2.430718	0.057270
1881	9.4000e-01	-4.8191	-54.755363	0.000677	6.770112	2.293776	0.054044
1882	9.4050e-01	-4.7774	-54.408517	0.000869	8.689995	2.944250	0.069369
1883	9.4100e-01	-4.7309	-54.158465	0.000626	6.264880	2.122599	0.050010
1884	9.4150e-01	-4.6988	-53.952777	0.000515	5.153369	1.746009	0.041138
1885	9.4200e-01	-4.6571	-53.589798	0.000909	9.094181	3.081192	0.072596
1886	9.4250e-01	-4.6250	-53.351845	0.000596	5.961741	2.019892	0.047591
1887	9.4300e-01	-4.5785	-53.053396	0.000748	7.477438	2.533424	0.059690
1888	9.4350e-01	-4.5400	-52.690417	0.000909	9.094181	3.081192	0.072596
1889	9.4400e-01	-4.5031	-52.432298	0.000647	6.466973	2.191070	0.051624
1890	9.4450e-01	-4.4630	-52.129816	0.000758	7.578484	2.567660	0.060496
1891	9.4500e-01	-4.4277	-51.948327	0.000455	4.547090	1.540596	0.036298
1892	9.4550e-01	-4.3812	-51.589381	0.000899	8.993134	3.046956	0.071789
1893	9.4600e-01	-4.3362	-51.294965	0.000738	7.376391	2.499189	0.058883
1894	9.4650e-01	-4.3058	-50.976350	0.000798	7.982670	2.704602	0.063723
1895	9.4700e-01	-4.2608	-50.677900	0.000748	7.477438	2.533424	0.059690
1896	9.4750e-01	-4.2272	-50.460113	0.000546	5.456508	1.848715	0.043557
1897	9.4800e-01	-4.1806	-50.113267	0.000869	8.689995	2.944250	0.069369
1898	9.4850e-01	-4.1309	-49.855148	0.000647	6.466973	2.191070	0.051624
1899	9.4900e-01	-4.0972	-49.588964	0.000667	6.669066	2.259541	0.053237
1900	9.4950e-01	-4.0619	-49.306647	0.000707	7.073252	2.396483	0.056463
1901	9.5000e-01	-4.0234	-49.024330	0.000707	7.073252	2.396483	0.056463
1902	9.5050e-01	-3.9849	-48.689583	0.000839	8.386856	2.841544	0.066949
1903	9.5100e-01	-3.9400	-48.383067	0.000768	7.679530	2.601895	0.061303
1904	9.5150e-01	-3.9095	-48.137048	0.000616	6.163834	2.088363	0.049204
1905	9.5200e-01	-3.8582	-47.778103	0.000899	8.993134	3.046956	0.071789
1906	9.5250e-01	-3.8181	-47.604679	0.000434	4.344998	1.472125	0.034685
1907	9.5300e-01	-3.7844	-47.229601	0.000940	9.397320	3.183898	0.075016
1908	9.5350e-01	-3.7379	-46.923086	0.000768	7.679530	2.601895	0.061303
1909	9.5400e-01	-3.7042	-46.664967	0.000647	6.466973	2.191070	0.051624
1910	9.5450e-01	-3.6609	-46.370551	0.000738	7.376391	2.499189	0.058883
1911	9.5500e-01	-3.6143	-46.072102	0.000748	7.477438	2.533424	0.059690
1912	9.5550e-01	-3.5758	-45.749454	0.000808	8.083716	2.738837	0.064530
1913	9.5600e-01	-3.5438	-45.483269	0.000667	6.669066	2.259541	0.053237
1914	9.5650e-01	-3.5052	-45.196919	0.000717	7.174298	2.430718	0.057270
1915	9.5700e-01	-3.4555	-44.926702	0.000677	6.770112	2.293776	0.054044
1916	9.5750e-01	-3.4138	-44.612120	0.000788	7.881623	2.670366	0.062916
1917	9.5800e-01	-3.3785	-44.257208	0.000889	8.892088	3.012721	0.070983
1918	9.5850e-01	-3.3352	-44.011188	0.000616	6.163834	2.088363	0.049204
1919	9.5900e-01	-3.3047	-43.696607	0.000788	7.881623	2.670366	0.062916
1920	9.5950e-01	-3.2582	-43.382025	0.000788	7.881623	2.670366	0.062916
1921	9.6000e-01	-3.2213	-43.099708	0.000707	7.073252	2.396483	0.056463
1922	9.6050e-01	-3.1796	-42.837557	0.000657	6.568019	2.225305	0.052430
1923	9.6100e-01	-3.1427	-42.547174	0.000728	7.275345	2.464953	0.058077
1924	9.6150e-01	-3.0994	-42.236625	0.000778	7.780577	2.636131	0.062110
1925	9.6200e-01	-3.0657	-41.913977	0.000808	8.083716	2.738837	0.064530
1926	9.6250e-01	-3.0240	-41.659892	0.000637	6.365927	2.156834	0.050817
1927	9.6300e-01	-2.9775	-41.401774	0.000647	6.466973	2.191070	0.051624
1928	9.6350e-01	-2.9277	-41.067027	0.000839	8.386856	2.841544	0.066949
1929	9.6400e-01	-2.8988	-40.760511	0.000768	7.679530	2.601895	0.061303
1930	9.6450e-01	-2.8636	-40.389466	0.000930	9.296274	3.149663	0.074209
1931	9.6500e-01	-2.8170	-40.014388	0.000940	9.397320	3.183898	0.075016
1932	9.6550e-01	-2.7801	-39.844998	0.000424	4.243951	1.437890	0.033878
1933	9.6600e-01	-2.7288	-39.477986	0.000920	9.195227	3.115427	0.073402
1934	9.6650e-01	-2.6919	-39.227934	0.000626	6.264880	2.122599	0.050010
1935	9.6700e-01	-2.6662	-38.937550	0.000728	7.275345	2.464953	0.058077
1936	9.6750e-01	-2.6181	-38.647167	0.000728	7.275345	2.464953	0.058077
1937	9.6800e-01	-2.5780	-38.348718	0.000748	7.477438	2.533424	0.059690
1938	9.6850e-01	-2.5315	-38.062368	0.000717	7.174298	2.430718	0.057270
1939	9.6900e-01	-2.5026	-37.727621	0.000839	8.386856	2.841544	0.066949
1940	9.6950e-01	-2.4625	-37.461436	0.000667	6.669066	2.259541	0.053237
1941	9.7000e-01	-2.4272	-37.171053	0.000728	7.275345	2.464953	0.058077
1942	9.7050e-01	-2.3695	-36.820174	0.000879	8.791041	2.978485	0.070176
1943	9.7100e-01	-2.3422	-36.473327	0.000869	8.689995	2.944250	0.069369
1944	9.7150e-01	-2.2908	-36.207143	0.000667	6.669066	2.259541	0.053237
1945	9.7200e-01	-2.2652	-35.900627	0.000768	7.679530	2.601895	0.061303
1946	9.7250e-01	-2.2219	-35.573946	0.000818	8.184763	2.773073	0.065336
1947	9.7300e-01	-2.1866	-35.259365	0.000788	7.881623	2.670366	0.062916
1948	9.7350e-01	-2.1352	-34.888319	0.000930	9.296274	3.149663	0.074209
1949	9.7400e-01	-2.0951	-34.751194	0.000344	3.435579	1.164006	0.027425
1950	9.7450e-01	-2.0614	-34.440646	0.000778	7.780577	2.636131	0.062110
1951	9.7500e-01	-2.0133	-34.049435	0.000980	9.801506	3.320840	0.078242
1952	9.7550e-01	-1.9812	-33.851813	0.000495	4.951276	1.677538	0.039524
1953	9.7600e-01	-1.9315	-33.601761	0.000626	6.264880	2.122599	0.050010
1954	9.7650e-01	-1.8946	-33.202484	0.001000	10.003599	3.389311	0.079855
1955	9.7700e-01	-1.8593	-32.871770	0.000829	8.285809	2.807308	0.066143
1956	9.7750e-01	-1.8144	-32.573321	0.000748	7.477438	2.533424	0.059690
1957	9.7800e-01	-1.7775	-32.246640	0.000818	8.184763	2.773073	0.065336
1958	9.7850e-01	-1.7374	-31.923992	0.000808	8.083716	2.738837	0.064530
1959	9.7900e-01	-1.7005	-31.609410	0.000788	7.881623	2.670366	0.062916
1960	9.7950e-01	-1.6604	-31.266597	0.000859	8.588949	2.910015	0.068563
1961	9.8000e-01	-1.6219	-30.927817	0.000849	8.487902	2.875779	0.067756
1962	9.8050e-01	-1.5754	-30.770526	0.000394	3.940812	1.335183	0.031458
1963	9.8100e-01	-1.5336	-30.492242	0.000697	6.972205	2.362247	0.055657
1964	9.8150e-01	-1.5032	-29.996171	0.001243	12.428714	4.210962	0.099214
1965	9.8200e-01	-1.4647	-29.794516	0.000505	5.052323	1.711773	0.040331
1966	9.8250e-01	-1.4230	-29.455736	0.000849	8.487902	2.875779	0.067756
1967	9.8300e-01	-1.3764	-29.177452	0.000697	6.972205	2.362247	0.055657
1968	9.8350e-01	-1.3411	-28.919334	0.000647	6.466973	2.191070	0.051624
1969	9.8400e-01	-1.2994	-28.673315	0.000616	6.163834	2.088363	0.049204
1970	9.8450e-01	-1.2529	-28.205475	0.001172	11.721389	3.971314	0.093568
1971	9.8500e-01	-1.2224	-27.898960	0.000768	7.679530	2.601895	0.061303
1972	9.8550e-01	-1.1775	-27.685205	0.000536	5.355462	1.814480	0.042751
1973	9.8600e-01	-1.1358	-27.398855	0.000717	7.174298	2.430718	0.057270
1974	9.8650e-01	-1.1005	-27.039910	0.000899	8.993134	3.046956	0.071789
1975	9.8700e-01	-1.0620	-26.680964	0.000899	8.993134	3.046956	0.071789
1976	9.8750e-01	-1.0267	-26.414779	0.000667	6.669066	2.259541	0.053237
1977	9.8800e-01	-0.9834	-26.136495	0.000697	6.972205	2.362247	0.055657
1978	9.8850e-01	-0.9465	-25.749318	0.000970	9.700460	3.286605	0.077435
1979	9.8900e-01	-0.9000	-25.406505	0.000859	8.588949	2.910015	0.068563
1980	9.8950e-01	-0.8615	-25.176618	0.000576	5.759648	1.951422	0.045977
1981	9.9000e-01	-0.8133	-24.845904	0.000829	8.285809	2.807308	0.066143
1982	9.9050e-01	-0.7781	-24.599885	0.000616	6.163834	2.088363	0.049204
1983	9.9100e-01	-0.7251	-24.297403	0.000758	7.578484	2.567660	0.060496
1984	9.9150e-01	-0.6930	-23.950556	0.000869	8.689995	2.944250	0.069369
1985	9.9200e-01	-0.6561	-23.615809	0.000839	8.386856	2.841544	0.066949
1986	9.9250e-01	-0.6144	-23.345591	0.000677	6.770112	2.293776	0.054044
1987	9.9300e-01	-0.5823	-23.055208	0.000728	7.275345	2.464953	0.058077
1988	9.9350e-01	-0.5422	-22.696262	0.000899	8.993134	3.046956	0.071789
1989	9.9400e-01	-0.4989	-22.329250	0.000920	9.195227	3.115427	0.073402
1990	9.9450e-01	-0.4668	-21.998536	0.000829	8.285809	2.807308	0.066143
1991	9.9500e-01	-0.4283	-21.756550	0.000606	6.062787	2.054128	0.048397
1992	9.9550e-01	-0.3770	-21.325009	0.001081	10.811971	3.663195	0.086308
1993	9.9600e-01	-0.3481	-21.038659	0.000717	7.174298	2.430718	0.057270
1994	9.9650e-01	-0.2984	-20.800706	0.000596	5.961741	2.019892	0.047591
1995	9.9700e-01	-0.2583	-20.526455	0.000687	6.871159	2.328012	0.054850
1996	9.9750e-01	-0.2134	-20.147344	0.000950	9.498367	3.218134	0.075822
1997	9.9800e-01	-0.1717	-19.885193	0.000657	6.568019	2.225305	0.052430
1998	9.9850e-01	-0.1299	-19.534313	0.000879	8.791041	2.978485	0.070176
1999	9.9900e-01	-0.0914	-19.235864	0.000748	7.477438	2.533424	0.059690
2000	9.9950e-01	-0.0626	-18.937414	0.000748	7.477438	2.533424	0.059690
2001	1.0000e+00	-0.0128	-18.513939	0.000748	7.477438	2.533424	0.084695

PMax (uC/cm2):	1.53e+02
Pr (uC/cm2):	8.76e+00
-Pr (uC/cm2):	-6.13e+00
PLoss (uC/cm2):	-6.10e+00
-Vc:	-1.09e+00
C (Max-Eff) (nF):	7.66e-01
K (Eff):	2.60e+03
Vert. (+/-Pr) Shift (uC/cm2):	1.31e+00
Offset (uC/cm2):	1.24e+01

A (Loop Area - uC/cm2·Volts):	-5.70e-02



Hysteresis Version: 5.48.1 - Radiant Technologies, Inc., 1999 - 9/12/24

