»»»»»»»»»»»»»»»»»»»»»»»»»»»»»»»»»»»» Hysteresis ««««««««««««««««««««««««««««««««««««
»»»  Executed Version:	5.48.1
»»»  Vision Version:	5.48.4 (R)
»»»  Vision Compiled:	9/18/24
»»»  Driver Version:	5.47.0
»»»  Windows Version:	Windows 8 or 8.1
»»»  Processor Information:	x86 (AMD or Intel) - 32 Processors
»»»  Tester Name:	PMF21124-494 (100V)
»»»  Tester S/N:	PMF21124-494
»»»  Internal Amp Type:	100V RevK 270k
»»»  Internal Amp S/N:	iAB2-596/K     
»»»  Execution Count:	1
»»»»»»»»»»»»»»»»»»»»»»»»»»»»»»»»»»»»»»»»»»««««««««««««««««««««««««««««««««««««««««««

Stored:	6/18/2025 - 16:38:39
Configured:	06/18/25 09:47:30 AM
Executed:	06/18/25 04:37:23 PM

»»»»»»»»»»»»»»»»»»»»»»»»»»»»»»»»»»» Sample Info ««««««««««««««««««««««««««««««««««««
Sample Name:	
Lot Name:	
Wafer Name:	
Die Row/Column:	0/0
Capacitor Number:	0
Sample Area (cm2):	1.00e-04
Sample Thickness (microns):	3.00e-01

Amplifier:	Internal

»»»»»»»»»»»»»»»»»»»»»»»»»»»»»»»»»»» Tester Info «««««««««««««««««««««««««««««««««««
Tester Name:	PMF21124-494 (100V)
Tester Serial Number:	PMF21124-494
Return Signal Amp. Level:	0.19 [Index: 3]

»»»»»»»»»»»»»»»»»»»»»»»»»»»»»»»» Hysteresis Info ««««««««««««««««««««««««««««««««««
Task Name:	Hyst-554
Volts:	20.00
Field:	666.67 (kV/cm)
DCBias:	0.00
DCField:	0.00 (kV/cm)
Hysteresis Period (ms):	2.00e+02
Preset:	Enabled
Preset Delay (ms):	1.00e+03
Profile:	Standard Bipolar

»»»»»»»»»»»»»»»»»»»»»»»»»»»»»»»»»»»»»» Data «««««««««««««««««««««««««««««««««««««««
Points:	2009

Valid Data

Point	Time (ms)	Drive Voltage	Measured Polarization (uC/cm2)	Capacitance (uF)	Normalized Capacitance (uF/cm2)	Dielectric Constant	Instantaneous Current (mA)
   1	0.0000e+00	-0.0016	-10.613630	0.000507	5.068036	1.717097	0.000203
   2	9.9500e-02	0.0289	-10.411773	0.000507	5.068036	1.717097	0.000203
   3	1.9900e-01	0.0786	-10.173582	0.000598	5.980282	2.026174	0.000239
   4	2.9850e-01	0.1107	-9.899057	0.000689	6.892529	2.335252	0.000276
   5	3.9800e-01	0.1572	-9.644717	0.000639	6.385725	2.163542	0.000256
   6	4.9750e-01	0.1973	-9.394415	0.000628	6.284364	2.129200	0.000252
   7	5.9700e-01	0.2326	-9.119890	0.000689	6.892529	2.335252	0.000276
   8	6.9650e-01	0.2791	-8.853439	0.000669	6.689807	2.266568	0.000268
   9	7.9600e-01	0.3144	-8.623322	0.000578	5.777561	1.957491	0.000231
  10	8.9550e-01	0.3577	-8.364945	0.000649	6.487086	2.197884	0.000260
  11	9.9500e-01	0.3962	-8.090420	0.000689	6.892529	2.335252	0.000276
  12	1.0945e+00	0.4460	-7.799746	0.000730	7.297971	2.472620	0.000292
  13	1.1940e+00	0.4749	-7.553481	0.000618	6.183004	2.094858	0.000248
  14	1.2935e+00	0.5230	-7.226473	0.000821	8.210218	2.781697	0.000329
  15	1.3930e+00	0.5551	-6.960022	0.000669	6.689807	2.266568	0.000268
  16	1.4925e+00	0.5952	-6.693571	0.000669	6.689807	2.266568	0.000268
  17	1.5920e+00	0.6337	-6.398860	0.000740	7.399332	2.506962	0.000296
  18	1.6915e+00	0.6722	-6.112224	0.000720	7.196611	2.438278	0.000288
  19	1.7910e+00	0.7171	-5.869995	0.000608	6.081643	2.060516	0.000243
  20	1.8905e+00	0.7540	-5.599507	0.000679	6.791168	2.300910	0.000272
  21	1.9900e+00	0.7861	-5.304796	0.000740	7.399332	2.506962	0.000296
  22	2.0895e+00	0.8342	-5.030271	0.000689	6.892529	2.335252	0.000276
  23	2.1890e+00	0.8679	-4.751709	0.000699	6.993889	2.369594	0.000280
  24	2.2885e+00	0.9160	-4.489295	0.000659	6.588446	2.232226	0.000264
  25	2.3880e+00	0.9513	-4.182473	0.000770	7.703414	2.609987	0.000308
  26	2.4875e+00	1.0010	-3.924096	0.000649	6.487086	2.197884	0.000260
  27	2.5870e+00	1.0363	-3.633422	0.000730	7.297971	2.472620	0.000292
  28	2.6865e+00	1.0732	-3.379083	0.000639	6.385725	2.163542	0.000256
  29	2.7860e+00	1.1053	-3.092446	0.000720	7.196611	2.438278	0.000288
  30	2.8855e+00	1.1438	-2.825995	0.000669	6.689807	2.266568	0.000268
  31	2.9850e+00	1.1935	-2.515136	0.000780	7.804775	2.644329	0.000312
  32	3.0845e+00	1.2321	-2.236573	0.000699	6.993889	2.369594	0.000280
  33	3.1840e+00	1.2722	-1.913602	0.000811	8.108857	2.747355	0.000325
  34	3.2835e+00	1.3123	-1.639077	0.000689	6.892529	2.335252	0.000276
  35	3.3830e+00	1.3524	-1.320143	0.000801	8.007496	2.713013	0.000321
  36	3.4825e+00	1.3909	-1.081952	0.000598	5.980282	2.026174	0.000239
  37	3.5820e+00	1.4310	-0.758982	0.000811	8.108857	2.747355	0.000325
  38	3.6815e+00	1.4711	-0.464271	0.000740	7.399332	2.506962	0.000296
  39	3.7810e+00	1.5096	-0.177634	0.000720	7.196611	2.438278	0.000288
  40	3.8805e+00	1.5545	0.125151	0.000760	7.602054	2.575645	0.000304
  41	3.9800e+00	1.5882	0.383528	0.000649	6.487086	2.197884	0.000260
  42	4.0795e+00	1.6331	0.694387	0.000780	7.804775	2.644329	0.000312
  43	4.1790e+00	1.6700	0.993135	0.000750	7.500693	2.541304	0.000300
  44	4.2785e+00	1.7021	1.231326	0.000598	5.980282	2.026174	0.000239
  45	4.3780e+00	1.7470	1.493740	0.000659	6.588446	2.232226	0.000264
  46	4.4775e+00	1.7903	1.861120	0.000922	9.223825	3.125117	0.000369
  47	4.5770e+00	1.8256	2.147756	0.000720	7.196611	2.438278	0.000288
  48	4.6765e+00	1.8721	2.402096	0.000639	6.385725	2.163542	0.000256
  49	4.7760e+00	1.9058	2.696807	0.000740	7.399332	2.506962	0.000296
  50	4.8755e+00	1.9524	2.995555	0.000750	7.500693	2.541304	0.000300
  51	4.9750e+00	1.9860	3.314488	0.000801	8.007496	2.713013	0.000321
  52	5.0745e+00	2.0245	3.617274	0.000760	7.602054	2.575645	0.000304
  53	5.1740e+00	2.0711	3.920059	0.000760	7.602054	2.575645	0.000304
  54	5.2735e+00	2.1096	4.214770	0.000740	7.399332	2.506962	0.000296
  55	5.3730e+00	2.1497	4.557926	0.000862	8.615661	2.919065	0.000345
  56	5.4725e+00	2.1866	4.832451	0.000689	6.892529	2.335252	0.000276
  57	5.5720e+00	2.2187	5.115051	0.000710	7.095250	2.403936	0.000284
  58	5.6715e+00	2.2652	5.417836	0.000760	7.602054	2.575645	0.000304
  59	5.7710e+00	2.3181	5.732733	0.000791	7.906136	2.678671	0.000316
  60	5.8705e+00	2.3518	6.039555	0.000770	7.703414	2.609987	0.000308
  61	5.9700e+00	2.3839	6.338303	0.000750	7.500693	2.541304	0.000300
  62	6.0695e+00	2.4320	6.620903	0.000710	7.095250	2.403936	0.000284
  63	6.1690e+00	2.4673	6.903502	0.000710	7.095250	2.403936	0.000284
  64	6.2685e+00	2.5058	7.254733	0.000882	8.818382	2.987749	0.000353
  65	6.3680e+00	2.5411	7.513110	0.000649	6.487086	2.197884	0.000260
  66	6.4675e+00	2.5828	7.840118	0.000821	8.210218	2.781697	0.000329
  67	6.5670e+00	2.6277	8.163088	0.000811	8.108857	2.747355	0.000325
  68	6.6665e+00	2.6646	8.449725	0.000720	7.196611	2.438278	0.000288
  69	6.7660e+00	2.7112	8.744436	0.000740	7.399332	2.506962	0.000296
  70	6.8655e+00	2.7497	9.115852	0.000933	9.325186	3.159458	0.000373
  71	6.9650e+00	2.7898	9.370192	0.000639	6.385725	2.163542	0.000256
  72	7.0645e+00	2.8234	9.749683	0.000953	9.527907	3.228142	0.000381
  73	7.1640e+00	2.8652	10.020171	0.000679	6.791168	2.300910	0.000272
  74	7.2635e+00	2.9053	10.326993	0.000770	7.703414	2.609987	0.000308
  75	7.3630e+00	2.9486	10.645927	0.000801	8.007496	2.713013	0.000321
  76	7.4625e+00	2.9791	10.956786	0.000780	7.804775	2.644329	0.000312
  77	7.5620e+00	3.0288	11.251497	0.000740	7.399332	2.506962	0.000296
  78	7.6615e+00	3.0625	11.558320	0.000770	7.703414	2.609987	0.000308
  79	7.7610e+00	3.1074	11.869179	0.000780	7.804775	2.644329	0.000312
  80	7.8605e+00	3.1411	12.188113	0.000801	8.007496	2.713013	0.000321
  81	7.9600e+00	3.1844	12.507047	0.000801	8.007496	2.713013	0.000321
  82	8.0595e+00	3.2181	12.785609	0.000699	6.993889	2.369594	0.000280
  83	8.1590e+00	3.2694	13.104543	0.000801	8.007496	2.713013	0.000321
  84	8.2585e+00	3.3015	13.407328	0.000760	7.602054	2.575645	0.000304
  85	8.3580e+00	3.3384	13.742410	0.000841	8.412939	2.850381	0.000337
  86	8.4575e+00	3.3913	13.992712	0.000628	6.284364	2.129200	0.000252
  87	8.5570e+00	3.4138	14.315683	0.000811	8.108857	2.747355	0.000325
  88	8.6565e+00	3.4651	14.630580	0.000791	7.906136	2.678671	0.000316
  89	8.7560e+00	3.5020	14.965662	0.000841	8.412939	2.850381	0.000337
  90	8.8555e+00	3.5405	15.353227	0.000973	9.730629	3.296826	0.000390
  91	8.9550e+00	3.5871	15.660050	0.000770	7.703414	2.609987	0.000308
  92	9.0545e+00	3.6288	15.946686	0.000720	7.196611	2.438278	0.000288
  93	9.1540e+00	3.6657	16.245434	0.000750	7.500693	2.541304	0.000300
  94	9.2535e+00	3.7058	16.523997	0.000699	6.993889	2.369594	0.000280
  95	9.3530e+00	3.7379	16.846967	0.000811	8.108857	2.747355	0.000325
  96	9.4525e+00	3.7796	17.186087	0.000851	8.514300	2.884723	0.000341
  97	9.5520e+00	3.8213	17.476761	0.000730	7.297971	2.472620	0.000292
  98	9.6515e+00	3.8646	17.811843	0.000841	8.412939	2.850381	0.000337
  99	9.7510e+00	3.9047	18.106554	0.000740	7.399332	2.506962	0.000296
 100	9.8505e+00	3.9416	18.433562	0.000821	8.210218	2.781697	0.000329
 101	9.9500e+00	3.9897	18.748458	0.000791	7.906136	2.678671	0.000316
 102	1.0050e+01	4.0346	19.067392	0.000801	8.007496	2.713013	0.000321
 103	1.0149e+01	4.0635	19.370177	0.000760	7.602054	2.575645	0.000304
 104	1.0248e+01	4.1052	19.701222	0.000831	8.311579	2.816039	0.000333
 105	1.0348e+01	4.1421	20.036305	0.000841	8.412939	2.850381	0.000337
 106	1.0447e+01	4.1854	20.359276	0.000811	8.108857	2.747355	0.000325
 107	1.0547e+01	4.2143	20.653986	0.000740	7.399332	2.506962	0.000296
 108	1.0646e+01	4.2544	21.009254	0.000892	8.919743	3.022091	0.000357
 109	1.0746e+01	4.3058	21.344337	0.000841	8.412939	2.850381	0.000337
 110	1.0845e+01	4.3427	21.626936	0.000710	7.095250	2.403936	0.000284
 111	1.0945e+01	4.3812	21.917610	0.000730	7.297971	2.472620	0.000292
 112	1.1044e+01	4.4229	22.272878	0.000892	8.919743	3.022091	0.000357
 113	1.1144e+01	4.4550	22.603923	0.000831	8.311579	2.816039	0.000333
 114	1.1243e+01	4.5015	22.918820	0.000791	7.906136	2.678671	0.000316
 115	1.1343e+01	4.5464	23.233716	0.000791	7.906136	2.678671	0.000316
 116	1.1443e+01	4.5881	23.528427	0.000740	7.399332	2.506962	0.000296
 117	1.1542e+01	4.6202	23.855435	0.000821	8.210218	2.781697	0.000329
 118	1.1642e+01	4.6555	24.194554	0.000851	8.514300	2.884723	0.000341
 119	1.1741e+01	4.7020	24.501377	0.000770	7.703414	2.609987	0.000308
 120	1.1841e+01	4.7373	24.820311	0.000801	8.007496	2.713013	0.000321
 121	1.1940e+01	4.7726	25.139244	0.000801	8.007496	2.713013	0.000321
 122	1.2040e+01	4.8207	25.458178	0.000801	8.007496	2.713013	0.000321
 123	1.2139e+01	4.8624	25.805372	0.000872	8.717021	2.953407	0.000349
 124	1.2239e+01	4.9041	26.140454	0.000841	8.412939	2.850381	0.000337
 125	1.2338e+01	4.9491	26.459388	0.000801	8.007496	2.713013	0.000321
 126	1.2438e+01	4.9827	26.770247	0.000780	7.804775	2.644329	0.000312
 127	1.2537e+01	5.0245	27.097255	0.000821	8.210218	2.781697	0.000329
 128	1.2636e+01	5.0549	27.408115	0.000780	7.804775	2.644329	0.000312
 129	1.2736e+01	5.0999	27.751271	0.000862	8.615661	2.919065	0.000345
 130	1.2835e+01	5.1416	28.045982	0.000740	7.399332	2.506962	0.000296
 131	1.2935e+01	5.1769	28.421436	0.000943	9.426546	3.193800	0.000377
 132	1.3034e+01	5.2122	28.716147	0.000740	7.399332	2.506962	0.000296
 133	1.3134e+01	5.2555	29.083526	0.000922	9.223825	3.125117	0.000369
 134	1.3233e+01	5.2988	29.325754	0.000608	6.081643	2.060516	0.000243
 135	1.3333e+01	5.3389	29.725430	0.001003	10.034711	3.399852	0.000402
 136	1.3432e+01	5.3710	29.983807	0.000649	6.487086	2.197884	0.000260
 137	1.3532e+01	5.4175	30.322927	0.000851	8.514300	2.884723	0.000341
 138	1.3632e+01	5.4544	30.694343	0.000933	9.325186	3.159458	0.000373
 139	1.3731e+01	5.4945	31.025388	0.000831	8.311579	2.816039	0.000333
 140	1.3831e+01	5.5378	31.356433	0.000831	8.311579	2.816039	0.000333
 141	1.3930e+01	5.5763	31.683441	0.000821	8.210218	2.781697	0.000329
 142	1.4030e+01	5.6084	32.006412	0.000811	8.108857	2.747355	0.000325
 143	1.4129e+01	5.6613	32.329383	0.000811	8.108857	2.747355	0.000325
 144	1.4229e+01	5.6918	32.620057	0.000730	7.297971	2.472620	0.000292
 145	1.4328e+01	5.7383	32.987436	0.000922	9.223825	3.125117	0.000369
 146	1.4428e+01	5.7768	33.310407	0.000811	8.108857	2.747355	0.000325
 147	1.4527e+01	5.8169	33.621266	0.000780	7.804775	2.644329	0.000312
 148	1.4627e+01	5.8571	33.964423	0.000862	8.615661	2.919065	0.000345
 149	1.4726e+01	5.8907	34.251060	0.000720	7.196611	2.438278	0.000288
 150	1.4825e+01	5.9341	34.602290	0.000882	8.818382	2.987749	0.000353
 151	1.4925e+01	5.9710	34.905076	0.000760	7.602054	2.575645	0.000304
 152	1.5024e+01	6.0127	35.276492	0.000933	9.325186	3.159458	0.000373
 153	1.5124e+01	6.0528	35.603500	0.000821	8.210218	2.781697	0.000329
 154	1.5223e+01	6.0897	35.882062	0.000699	6.993889	2.369594	0.000280
 155	1.5323e+01	6.1394	36.229256	0.000872	8.717021	2.953407	0.000349
 156	1.5422e+01	6.1715	36.544153	0.000791	7.906136	2.678671	0.000316
 157	1.5522e+01	6.2132	36.903458	0.000902	9.021104	3.056433	0.000361
 158	1.5621e+01	6.2533	37.250651	0.000872	8.717021	2.953407	0.000349
 159	1.5721e+01	6.2982	37.581697	0.000831	8.311579	2.816039	0.000333
 160	1.5820e+01	6.3335	37.880445	0.000750	7.500693	2.541304	0.000300
 161	1.5920e+01	6.3768	38.191304	0.000780	7.804775	2.644329	0.000312
 162	1.6020e+01	6.4169	38.546572	0.000892	8.919743	3.022091	0.000357
 163	1.6119e+01	6.4458	38.869543	0.000811	8.108857	2.747355	0.000325
 164	1.6218e+01	6.4955	39.232885	0.000912	9.122464	3.090775	0.000365
 165	1.6318e+01	6.5196	39.515485	0.000710	7.095250	2.403936	0.000284
 166	1.6418e+01	6.5629	39.846530	0.000831	8.311579	2.816039	0.000333
 167	1.6517e+01	6.6175	40.189686	0.000862	8.615661	2.919065	0.000345
 168	1.6616e+01	6.6479	40.508620	0.000801	8.007496	2.713013	0.000321
 169	1.6716e+01	6.6913	40.819479	0.000780	7.804775	2.644329	0.000312
 170	1.6816e+01	6.7249	41.154562	0.000841	8.412939	2.850381	0.000337
 171	1.6915e+01	6.7779	41.501755	0.000872	8.717021	2.953407	0.000349
 172	1.7015e+01	6.8084	41.828763	0.000821	8.210218	2.781697	0.000329
 173	1.7114e+01	6.8469	42.167883	0.000851	8.514300	2.884723	0.000341
 174	1.7213e+01	6.8773	42.470668	0.000760	7.602054	2.575645	0.000304
 175	1.7313e+01	6.9271	42.842084	0.000933	9.325186	3.159458	0.000373
 176	1.7413e+01	6.9752	43.173130	0.000831	8.311579	2.816039	0.000333
 177	1.7512e+01	7.0089	43.520323	0.000872	8.717021	2.953407	0.000349
 178	1.7611e+01	7.0506	43.855406	0.000841	8.412939	2.850381	0.000337
 179	1.7711e+01	7.0827	44.150116	0.000740	7.399332	2.506962	0.000296
 180	1.7811e+01	7.1324	44.489236	0.000851	8.514300	2.884723	0.000341
 181	1.7910e+01	7.1597	44.848541	0.000902	9.021104	3.056433	0.000361
 182	1.8009e+01	7.2030	45.171512	0.000811	8.108857	2.747355	0.000325
 183	1.8109e+01	7.2447	45.482371	0.000780	7.804775	2.644329	0.000312
 184	1.8209e+01	7.2816	45.837639	0.000892	8.919743	3.022091	0.000357
 185	1.8308e+01	7.3297	46.180796	0.000862	8.615661	2.919065	0.000345
 186	1.8407e+01	7.3747	46.491655	0.000780	7.804775	2.644329	0.000312
 187	1.8507e+01	7.4100	46.834812	0.000862	8.615661	2.919065	0.000345
 188	1.8607e+01	7.4452	47.149708	0.000791	7.906136	2.678671	0.000316
 189	1.8706e+01	7.4902	47.436345	0.000720	7.196611	2.438278	0.000288
 190	1.8805e+01	7.5271	47.815836	0.000953	9.527907	3.228142	0.000381
 191	1.8905e+01	7.5656	48.154955	0.000851	8.514300	2.884723	0.000341
 192	1.9005e+01	7.6089	48.477926	0.000811	8.108857	2.747355	0.000325
 193	1.9104e+01	7.6506	48.829157	0.000882	8.818382	2.987749	0.000353
 194	1.9203e+01	7.6795	49.200573	0.000933	9.325186	3.159458	0.000373
 195	1.9303e+01	7.7196	49.507396	0.000770	7.703414	2.609987	0.000308
 196	1.9402e+01	7.7677	49.894961	0.000973	9.730629	3.296826	0.000390
 197	1.9502e+01	7.8094	50.197746	0.000760	7.602054	2.575645	0.000304
 198	1.9602e+01	7.8415	50.512642	0.000791	7.906136	2.678671	0.000316
 199	1.9701e+01	7.8832	50.855799	0.000862	8.615661	2.919065	0.000345
 200	1.9800e+01	7.9265	51.146473	0.000730	7.297971	2.472620	0.000292
 201	1.9900e+01	7.9570	51.509815	0.000912	9.122464	3.090775	0.000365
 202	2.0000e+01	8.0035	51.832786	0.000811	8.108857	2.747355	0.000325
 203	2.0099e+01	8.0420	52.159794	0.000821	8.210218	2.781697	0.000329
 204	2.0198e+01	8.0853	52.494876	0.000841	8.412939	2.850381	0.000337
 205	2.0298e+01	8.1174	52.789587	0.000740	7.399332	2.506962	0.000296
 206	2.0398e+01	8.1607	53.169078	0.000953	9.527907	3.228142	0.000381
 207	2.0497e+01	8.1992	53.467826	0.000750	7.500693	2.541304	0.000300
 208	2.0596e+01	8.2442	53.766574	0.000750	7.500693	2.541304	0.000300
 209	2.0696e+01	8.2730	54.101656	0.000841	8.412939	2.850381	0.000337
 210	2.0796e+01	8.3196	54.493258	0.000983	9.831989	3.331168	0.000394
 211	2.0895e+01	8.3677	54.824303	0.000831	8.311579	2.816039	0.000333
 212	2.0994e+01	8.3982	55.199757	0.000943	9.426546	3.193800	0.000377
 213	2.1094e+01	8.4511	55.498505	0.000750	7.500693	2.541304	0.000300
 214	2.1194e+01	8.4848	55.841662	0.000862	8.615661	2.919065	0.000345
 215	2.1293e+01	8.5185	56.164632	0.000811	8.108857	2.747355	0.000325
 216	2.1392e+01	8.5554	56.536049	0.000933	9.325186	3.159458	0.000373
 217	2.1492e+01	8.5971	56.822686	0.000720	7.196611	2.438278	0.000288
 218	2.1591e+01	8.6452	57.181991	0.000902	9.021104	3.056433	0.000361
 219	2.1691e+01	8.6789	57.484776	0.000760	7.602054	2.575645	0.000304
 220	2.1791e+01	8.7206	57.823895	0.000851	8.514300	2.884723	0.000341
 221	2.1890e+01	8.7623	58.134755	0.000780	7.804775	2.644329	0.000312
 222	2.1989e+01	8.8072	58.506171	0.000933	9.325186	3.159458	0.000373
 223	2.2089e+01	8.8409	58.780696	0.000689	6.892529	2.335252	0.000276
 224	2.2189e+01	8.8810	59.160187	0.000953	9.527907	3.228142	0.000381
 225	2.2288e+01	8.9243	59.471047	0.000780	7.804775	2.644329	0.000312
 226	2.2387e+01	8.9580	59.798055	0.000821	8.210218	2.781697	0.000329
 227	2.2487e+01	9.0014	60.121025	0.000811	8.108857	2.747355	0.000325
 228	2.2587e+01	9.0431	60.468219	0.000872	8.717021	2.953407	0.000349
 229	2.2686e+01	9.0880	60.799264	0.000831	8.311579	2.816039	0.000333
 230	2.2785e+01	9.1185	61.134346	0.000841	8.412939	2.850381	0.000337
 231	2.2885e+01	9.1602	61.473466	0.000851	8.514300	2.884723	0.000341
 232	2.2985e+01	9.2019	61.848920	0.000943	9.426546	3.193800	0.000377
 233	2.3084e+01	9.2420	62.159779	0.000780	7.804775	2.644329	0.000312
 234	2.3183e+01	9.2805	62.506973	0.000872	8.717021	2.953407	0.000349
 235	2.3283e+01	9.3158	62.846092	0.000851	8.514300	2.884723	0.000341
 236	2.3383e+01	9.3607	63.152914	0.000770	7.703414	2.609987	0.000308
 237	2.3482e+01	9.3992	63.516257	0.000912	9.122464	3.090775	0.000365
 238	2.3581e+01	9.4457	63.819042	0.000760	7.602054	2.575645	0.000304
 239	2.3681e+01	9.4874	64.174310	0.000892	8.919743	3.022091	0.000357
 240	2.3780e+01	9.5211	64.557838	0.000963	9.629268	3.262484	0.000385
 241	2.3880e+01	9.5596	64.824289	0.000669	6.689807	2.266568	0.000268
 242	2.3980e+01	9.5997	65.159371	0.000841	8.412939	2.850381	0.000337
 243	2.4079e+01	9.6446	65.506564	0.000872	8.717021	2.953407	0.000349
 244	2.4178e+01	9.6799	65.841647	0.000841	8.412939	2.850381	0.000337
 245	2.4278e+01	9.7168	66.160580	0.000801	8.007496	2.713013	0.000321
 246	2.4378e+01	9.7618	66.523923	0.000912	9.122464	3.090775	0.000365
 247	2.4477e+01	9.7954	66.826708	0.000760	7.602054	2.575645	0.000304
 248	2.4576e+01	9.8436	67.181976	0.000892	8.919743	3.022091	0.000357
 249	2.4676e+01	9.8789	67.521095	0.000851	8.514300	2.884723	0.000341
 250	2.4776e+01	9.9238	67.840029	0.000801	8.007496	2.713013	0.000321
 251	2.4875e+01	9.9559	68.199334	0.000902	9.021104	3.056433	0.000361
 252	2.4974e+01	9.9928	68.522305	0.000811	8.108857	2.747355	0.000325
 253	2.5074e+01	10.0409	68.841239	0.000801	8.007496	2.713013	0.000321
 254	2.5174e+01	10.0746	69.180358	0.000851	8.514300	2.884723	0.000341
 255	2.5273e+01	10.1083	69.483143	0.000760	7.602054	2.575645	0.000304
 256	2.5372e+01	10.1628	69.826300	0.000862	8.615661	2.919065	0.000345
 257	2.5472e+01	10.1885	70.181568	0.000892	8.919743	3.022091	0.000357
 258	2.5572e+01	10.2382	70.464167	0.000710	7.095250	2.403936	0.000284
 259	2.5671e+01	10.2751	70.835584	0.000933	9.325186	3.159458	0.000373
 260	2.5770e+01	10.3120	71.158555	0.000811	8.108857	2.747355	0.000325
 261	2.5870e+01	10.3489	71.461340	0.000760	7.602054	2.575645	0.000304
 262	2.5970e+01	10.3970	71.796422	0.000841	8.412939	2.850381	0.000337
 263	2.6069e+01	10.4339	72.139579	0.000862	8.615661	2.919065	0.000345
 264	2.6169e+01	10.4724	72.470624	0.000831	8.311579	2.816039	0.000333
 265	2.6268e+01	10.5190	72.773409	0.000760	7.602054	2.575645	0.000304
 266	2.6367e+01	10.5575	73.080231	0.000770	7.703414	2.609987	0.000308
 267	2.6467e+01	10.5976	73.451648	0.000933	9.325186	3.159458	0.000373
 268	2.6567e+01	10.6329	73.802878	0.000882	8.818382	2.987749	0.000353
 269	2.6666e+01	10.6633	74.137961	0.000841	8.412939	2.850381	0.000337
 270	2.6765e+01	10.7211	74.460932	0.000811	8.108857	2.747355	0.000325
 271	2.6865e+01	10.7548	74.796014	0.000841	8.412939	2.850381	0.000337
 272	2.6965e+01	10.8029	75.147245	0.000882	8.818382	2.987749	0.000353
 273	2.7064e+01	10.8350	75.450030	0.000760	7.602054	2.575645	0.000304
 274	2.7163e+01	10.8751	75.797223	0.000872	8.717021	2.953407	0.000349
 275	2.7263e+01	10.9104	76.083860	0.000720	7.196611	2.438278	0.000288
 276	2.7363e+01	10.9553	76.467388	0.000963	9.629268	3.262484	0.000385
 277	2.7462e+01	10.9906	76.802470	0.000841	8.412939	2.850381	0.000337
 278	2.7561e+01	11.0291	77.129478	0.000821	8.210218	2.781697	0.000329
 279	2.7661e+01	11.0756	77.440338	0.000780	7.804775	2.644329	0.000312
 280	2.7761e+01	11.1189	77.767346	0.000821	8.210218	2.781697	0.000329
 281	2.7860e+01	11.1494	78.102428	0.000841	8.412939	2.850381	0.000337
 282	2.7959e+01	11.1831	78.389065	0.000720	7.196611	2.438278	0.000288
 283	2.8059e+01	11.2377	78.756444	0.000922	9.223825	3.125117	0.000369
 284	2.8159e+01	11.2794	79.063266	0.000770	7.703414	2.609987	0.000308
 285	2.8258e+01	11.3098	79.434683	0.000933	9.325186	3.159458	0.000373
 286	2.8358e+01	11.3451	79.761691	0.000821	8.210218	2.781697	0.000329
 287	2.8457e+01	11.4029	80.068513	0.000770	7.703414	2.609987	0.000308
 288	2.8556e+01	11.4366	80.399558	0.000831	8.311579	2.816039	0.000333
 289	2.8656e+01	11.4751	80.770975	0.000933	9.325186	3.159458	0.000373
 290	2.8756e+01	11.5088	81.126243	0.000892	8.919743	3.022091	0.000357
 291	2.8855e+01	11.5553	81.416916	0.000730	7.297971	2.472620	0.000292
 292	2.8954e+01	11.5922	81.760073	0.000862	8.615661	2.919065	0.000345
 293	2.9054e+01	11.6339	82.115341	0.000892	8.919743	3.022091	0.000357
 294	2.9154e+01	11.6724	82.397940	0.000710	7.095250	2.403936	0.000284
 295	2.9253e+01	11.7109	82.761283	0.000912	9.122464	3.090775	0.000365
 296	2.9352e+01	11.7478	83.072142	0.000780	7.804775	2.644329	0.000312
 297	2.9452e+01	11.7943	83.407224	0.000841	8.412939	2.850381	0.000337
 298	2.9552e+01	11.8312	83.701935	0.000740	7.399332	2.506962	0.000296
 299	2.9651e+01	11.8809	84.057203	0.000892	8.919743	3.022091	0.000357
 300	2.9750e+01	11.9146	84.355951	0.000750	7.500693	2.541304	0.000300
 301	2.9850e+01	11.9499	84.731405	0.000943	9.426546	3.193800	0.000377
 302	2.9950e+01	11.9820	85.005930	0.000689	6.892529	2.335252	0.000276
 303	3.0049e+01	12.0301	85.369272	0.000912	9.122464	3.090775	0.000365
 304	3.0148e+01	12.0735	85.712429	0.000862	8.615661	2.919065	0.000345
 305	3.0248e+01	12.1055	86.063660	0.000882	8.818382	2.987749	0.000353
 306	3.0348e+01	12.1456	86.386631	0.000811	8.108857	2.747355	0.000325
 307	3.0447e+01	12.1986	86.701527	0.000791	7.906136	2.678671	0.000316
 308	3.0547e+01	12.2355	87.036609	0.000841	8.412939	2.850381	0.000337
 309	3.0646e+01	12.2660	87.387840	0.000882	8.818382	2.987749	0.000353
 310	3.0745e+01	12.3109	87.690625	0.000760	7.602054	2.575645	0.000304
 311	3.0845e+01	12.3510	88.021670	0.000831	8.311579	2.816039	0.000333
 312	3.0945e+01	12.3927	88.352716	0.000831	8.311579	2.816039	0.000333
 313	3.1044e+01	12.4248	88.687798	0.000841	8.412939	2.850381	0.000337
 314	3.1143e+01	12.4681	89.018843	0.000831	8.311579	2.816039	0.000333
 315	3.1243e+01	12.5098	89.333740	0.000791	7.906136	2.678671	0.000316
 316	3.1343e+01	12.5531	89.660748	0.000821	8.210218	2.781697	0.000329
 317	3.1442e+01	12.5820	89.991793	0.000831	8.311579	2.816039	0.000333
 318	3.1541e+01	12.6301	90.326875	0.000841	8.412939	2.850381	0.000337
 319	3.1641e+01	12.6670	90.674069	0.000872	8.717021	2.953407	0.000349
 320	3.1741e+01	12.7119	91.033374	0.000902	9.021104	3.056433	0.000361
 321	3.1840e+01	12.7472	91.336159	0.000760	7.602054	2.575645	0.000304
 322	3.1939e+01	12.7922	91.675278	0.000851	8.514300	2.884723	0.000341
 323	3.2039e+01	12.8258	91.974026	0.000750	7.500693	2.541304	0.000300
 324	3.2139e+01	12.8772	92.317183	0.000862	8.615661	2.919065	0.000345
 325	3.2238e+01	12.9125	92.668414	0.000882	8.818382	2.987749	0.000353
 326	3.2337e+01	12.9510	92.942939	0.000689	6.892529	2.335252	0.000276
 327	3.2437e+01	12.9686	93.273984	0.000831	8.311579	2.816039	0.000333
 328	3.2536e+01	13.0200	93.596955	0.000811	8.108857	2.747355	0.000325
 329	3.2636e+01	13.0617	93.923963	0.000821	8.210218	2.781697	0.000329
 330	3.2736e+01	13.1146	94.255008	0.000831	8.311579	2.816039	0.000333
 331	3.2835e+01	13.1403	94.594127	0.000851	8.514300	2.884723	0.000341
 332	3.2934e+01	13.1804	94.892876	0.000750	7.500693	2.541304	0.000300
 333	3.3034e+01	13.2221	95.195661	0.000760	7.602054	2.575645	0.000304
 334	3.3133e+01	13.2606	95.554966	0.000902	9.021104	3.056433	0.000361
 335	3.3233e+01	13.3119	95.914271	0.000902	9.021104	3.056433	0.000361
 336	3.3333e+01	13.3344	96.221093	0.000770	7.703414	2.609987	0.000308
 337	3.3432e+01	13.3889	96.568287	0.000872	8.717021	2.953407	0.000349
 338	3.3532e+01	13.4274	96.923555	0.000892	8.919743	3.022091	0.000357
 339	3.3631e+01	13.4563	97.282860	0.000902	9.021104	3.056433	0.000361
 340	3.3730e+01	13.4948	97.557385	0.000689	6.892529	2.335252	0.000276
 341	3.3830e+01	13.5397	97.908616	0.000882	8.818382	2.987749	0.000353
 342	3.3929e+01	13.5798	98.251772	0.000862	8.615661	2.919065	0.000345
 343	3.4029e+01	13.6264	98.558595	0.000770	7.703414	2.609987	0.000308
 344	3.4129e+01	13.6616	98.869454	0.000780	7.804775	2.644329	0.000312
 345	3.4228e+01	13.7034	99.200499	0.000831	8.311579	2.816039	0.000333
 346	3.4328e+01	13.7435	99.563842	0.000912	9.122464	3.090775	0.000365
 347	3.4427e+01	13.7788	99.858552	0.000740	7.399332	2.506962	0.000296
 348	3.4526e+01	13.8173	100.225932	0.000922	9.223825	3.125117	0.000369
 349	3.4626e+01	13.8574	100.548903	0.000811	8.108857	2.747355	0.000325
 350	3.4725e+01	13.8911	100.867836	0.000801	8.007496	2.713013	0.000321
 351	3.4825e+01	13.9440	101.215030	0.000872	8.717021	2.953407	0.000349
 352	3.4925e+01	13.9841	101.521852	0.000770	7.703414	2.609987	0.000308
 353	3.5024e+01	14.0210	101.852898	0.000831	8.311579	2.816039	0.000333
 354	3.5123e+01	14.0595	102.192017	0.000851	8.514300	2.884723	0.000341
 355	3.5223e+01	14.0980	102.543248	0.000882	8.818382	2.987749	0.000353
 356	3.5322e+01	14.1365	102.850070	0.000770	7.703414	2.609987	0.000308
 357	3.5422e+01	14.1766	103.189189	0.000851	8.514300	2.884723	0.000341
 358	3.5522e+01	14.2231	103.500049	0.000780	7.804775	2.644329	0.000312
 359	3.5621e+01	14.2552	103.831094	0.000831	8.311579	2.816039	0.000333
 360	3.5721e+01	14.2921	104.158102	0.000821	8.210218	2.781697	0.000329
 361	3.5820e+01	14.3483	104.517407	0.000902	9.021104	3.056433	0.000361
 362	3.5919e+01	14.3771	104.836341	0.000801	8.007496	2.713013	0.000321
 363	3.6019e+01	14.4124	105.179497	0.000862	8.615661	2.919065	0.000345
 364	3.6118e+01	14.4557	105.522654	0.000862	8.615661	2.919065	0.000345
 365	3.6218e+01	14.5055	105.793142	0.000679	6.791168	2.300910	0.000272
 366	3.6318e+01	14.5424	106.156484	0.000912	9.122464	3.090775	0.000365
 367	3.6417e+01	14.5793	106.487529	0.000831	8.311579	2.816039	0.000333
 368	3.6517e+01	14.6194	106.806463	0.000801	8.007496	2.713013	0.000321
 369	3.6616e+01	14.6579	107.121360	0.000791	7.906136	2.678671	0.000316
 370	3.6715e+01	14.6916	107.448368	0.000821	8.210218	2.781697	0.000329
 371	3.6815e+01	14.7349	107.775376	0.000821	8.210218	2.781697	0.000329
 372	3.6914e+01	14.7814	108.130644	0.000892	8.919743	3.022091	0.000357
 373	3.7014e+01	14.8263	108.469763	0.000851	8.514300	2.884723	0.000341
 374	3.7114e+01	14.8616	108.820994	0.000882	8.818382	2.987749	0.000353
 375	3.7213e+01	14.8873	109.135890	0.000791	7.906136	2.678671	0.000316
 376	3.7313e+01	14.9402	109.418490	0.000710	7.095250	2.403936	0.000284
 377	3.7412e+01	14.9707	109.757609	0.000851	8.514300	2.884723	0.000341
 378	3.7511e+01	15.0220	110.096729	0.000851	8.514300	2.884723	0.000341
 379	3.7611e+01	15.0557	110.423737	0.000821	8.210218	2.781697	0.000329
 380	3.7711e+01	15.1022	110.722485	0.000750	7.500693	2.541304	0.000300
 381	3.7810e+01	15.1311	111.049493	0.000821	8.210218	2.781697	0.000329
 382	3.7910e+01	15.1760	111.396686	0.000872	8.717021	2.953407	0.000349
 383	3.8009e+01	15.2129	111.731769	0.000841	8.412939	2.850381	0.000337
 384	3.8108e+01	15.2546	112.046665	0.000791	7.906136	2.678671	0.000316
 385	3.8208e+01	15.2948	112.345413	0.000750	7.500693	2.541304	0.000300
 386	3.8307e+01	15.3381	112.680496	0.000841	8.412939	2.850381	0.000337
 387	3.8407e+01	15.3702	113.031726	0.000882	8.818382	2.987749	0.000353
 388	3.8507e+01	15.4199	113.378920	0.000872	8.717021	2.953407	0.000349
 389	3.8606e+01	15.4552	113.681705	0.000760	7.602054	2.575645	0.000304
 390	3.8706e+01	15.4889	114.036973	0.000892	8.919743	3.022091	0.000357
 391	3.8805e+01	15.5370	114.400315	0.000912	9.122464	3.090775	0.000365
 392	3.8904e+01	15.5739	114.674841	0.000689	6.892529	2.335252	0.000276
 393	3.9004e+01	15.6140	115.005886	0.000831	8.311579	2.816039	0.000333
 394	3.9103e+01	15.6573	115.353079	0.000872	8.717021	2.953407	0.000349
 395	3.9203e+01	15.6958	115.647790	0.000740	7.399332	2.506962	0.000296
 396	3.9303e+01	15.7343	115.986910	0.000851	8.514300	2.884723	0.000341
 397	3.9402e+01	15.7696	116.334103	0.000872	8.717021	2.953407	0.000349
 398	3.9502e+01	15.8081	116.636889	0.000760	7.602054	2.575645	0.000304
 399	3.9601e+01	15.8530	116.967934	0.000831	8.311579	2.816039	0.000333
 400	3.9700e+01	15.8899	117.278793	0.000780	7.804775	2.644329	0.000312
 401	3.9800e+01	15.9332	117.597727	0.000801	8.007496	2.713013	0.000321
 402	3.9900e+01	15.9669	117.936846	0.000851	8.514300	2.884723	0.000341
 403	3.9999e+01	16.0086	118.288077	0.000882	8.818382	2.987749	0.000353
 404	4.0099e+01	16.0503	118.578751	0.000730	7.297971	2.472620	0.000292
 405	4.0198e+01	16.0953	118.909796	0.000831	8.311579	2.816039	0.000333
 406	4.0297e+01	16.1338	119.252953	0.000862	8.615661	2.919065	0.000345
 407	4.0397e+01	16.1691	119.547663	0.000740	7.399332	2.506962	0.000296
 408	4.0496e+01	16.2156	119.890820	0.000862	8.615661	2.919065	0.000345
 409	4.0596e+01	16.2477	120.278385	0.000973	9.730629	3.296826	0.000390
 410	4.0696e+01	16.2910	120.617504	0.000851	8.514300	2.884723	0.000341
 411	4.0795e+01	16.3295	120.940475	0.000811	8.108857	2.747355	0.000325
 412	4.0895e+01	16.3728	121.247298	0.000770	7.703414	2.609987	0.000308
 413	4.0994e+01	16.4113	121.602566	0.000892	8.919743	3.022091	0.000357
 414	4.1093e+01	16.4402	121.897276	0.000740	7.399332	2.506962	0.000296
 415	4.1193e+01	16.4867	122.232359	0.000841	8.412939	2.850381	0.000337
 416	4.1292e+01	16.5172	122.559367	0.000821	8.210218	2.781697	0.000329
 417	4.1392e+01	16.5749	122.882338	0.000811	8.108857	2.747355	0.000325
 418	4.1492e+01	16.6134	123.233568	0.000882	8.818382	2.987749	0.000353
 419	4.1591e+01	16.6584	123.568651	0.000841	8.412939	2.850381	0.000337
 420	4.1691e+01	16.6888	123.822990	0.000639	6.385725	2.163542	0.000256
 421	4.1790e+01	16.7225	124.182295	0.000902	9.021104	3.056433	0.000361
 422	4.1889e+01	16.7723	124.477006	0.000740	7.399332	2.506962	0.000296
 423	4.1989e+01	16.8108	124.828237	0.000882	8.818382	2.987749	0.000353
 424	4.2089e+01	16.8525	125.175431	0.000872	8.717021	2.953407	0.000349
 425	4.2188e+01	16.8974	125.466104	0.000730	7.297971	2.472620	0.000292
 426	4.2288e+01	16.9311	125.833484	0.000922	9.223825	3.125117	0.000369
 427	4.2387e+01	16.9728	126.172603	0.000851	8.514300	2.884723	0.000341
 428	4.2486e+01	17.0065	126.487500	0.000791	7.906136	2.678671	0.000316
 429	4.2586e+01	17.0418	126.786248	0.000750	7.500693	2.541304	0.000300
 430	4.2685e+01	17.0899	127.145553	0.000902	9.021104	3.056433	0.000361
 431	4.2785e+01	17.1252	127.460450	0.000791	7.906136	2.678671	0.000316
 432	4.2885e+01	17.1733	127.807643	0.000872	8.717021	2.953407	0.000349
 433	4.2984e+01	17.2118	128.098317	0.000730	7.297971	2.472620	0.000292
 434	4.3084e+01	17.2471	128.445511	0.000872	8.717021	2.953407	0.000349
 435	4.3183e+01	17.2888	128.760407	0.000791	7.906136	2.678671	0.000316
 436	4.3282e+01	17.3193	129.075304	0.000791	7.906136	2.678671	0.000316
 437	4.3382e+01	17.3722	129.410386	0.000841	8.412939	2.850381	0.000337
 438	4.3481e+01	17.4107	129.692986	0.000710	7.095250	2.403936	0.000284
 439	4.3581e+01	17.4460	130.088625	0.000993	9.933350	3.365510	0.000398
 440	4.3681e+01	17.4910	130.419670	0.000831	8.311579	2.816039	0.000333
 441	4.3780e+01	17.5295	130.734567	0.000791	7.906136	2.678671	0.000316
 442	4.3880e+01	17.5760	131.065612	0.000831	8.311579	2.816039	0.000333
 443	4.3979e+01	17.6081	131.360323	0.000740	7.399332	2.506962	0.000296
 444	4.4078e+01	17.6369	131.671182	0.000780	7.804775	2.644329	0.000312
 445	4.4178e+01	17.6915	132.042599	0.000933	9.325186	3.159458	0.000373
 446	4.4278e+01	17.7171	132.389792	0.000872	8.717021	2.953407	0.000349
 447	4.4377e+01	17.7605	132.728912	0.000851	8.514300	2.884723	0.000341
 448	4.4477e+01	17.8166	133.068031	0.000851	8.514300	2.884723	0.000341
 449	4.4576e+01	17.8455	133.386965	0.000801	8.007496	2.713013	0.000321
 450	4.4675e+01	17.8872	133.709936	0.000811	8.108857	2.747355	0.000325
 451	4.4775e+01	17.9289	134.053092	0.000862	8.615661	2.919065	0.000345
 452	4.4874e+01	17.9658	134.319543	0.000669	6.689807	2.266568	0.000268
 453	4.4974e+01	18.0091	134.642514	0.000811	8.108857	2.747355	0.000325
 454	4.5074e+01	18.0444	135.017968	0.000943	9.426546	3.193800	0.000377
 455	4.5173e+01	18.0797	135.340938	0.000811	8.108857	2.747355	0.000325
 456	4.5273e+01	18.1182	135.671984	0.000831	8.311579	2.816039	0.000333
 457	4.5372e+01	18.1631	135.970732	0.000750	7.500693	2.541304	0.000300
 458	4.5471e+01	18.2096	136.297740	0.000821	8.210218	2.781697	0.000329
 459	4.5571e+01	18.2417	136.636859	0.000851	8.514300	2.884723	0.000341
 460	4.5670e+01	18.2802	136.935607	0.000750	7.500693	2.541304	0.000300
 461	4.5770e+01	18.3268	137.311061	0.000943	9.426546	3.193800	0.000377
 462	4.5870e+01	18.3540	137.621920	0.000780	7.804775	2.644329	0.000312
 463	4.5969e+01	18.4102	137.924705	0.000760	7.602054	2.575645	0.000304
 464	4.6069e+01	18.4455	138.340530	0.001044	10.440154	3.537220	0.000418
 465	4.6168e+01	18.4872	138.647353	0.000770	7.703414	2.609987	0.000308
 466	4.6267e+01	18.5161	139.002621	0.000892	8.919743	3.022091	0.000357
 467	4.6367e+01	18.5626	139.297332	0.000740	7.399332	2.506962	0.000296
 468	4.6467e+01	18.6091	139.644525	0.000872	8.717021	2.953407	0.000349
 469	4.6566e+01	18.6476	139.951347	0.000770	7.703414	2.609987	0.000308
 470	4.6666e+01	18.6861	140.294504	0.000862	8.615661	2.919065	0.000345
 471	4.6765e+01	18.7214	140.589215	0.000740	7.399332	2.506962	0.000296
 472	4.6864e+01	18.7583	140.940446	0.000882	8.818382	2.987749	0.000353
 473	4.6964e+01	18.8048	141.291677	0.000882	8.818382	2.987749	0.000353
 474	4.7063e+01	18.8433	141.634833	0.000862	8.615661	2.919065	0.000345
 475	4.7163e+01	18.8834	141.957804	0.000811	8.108857	2.747355	0.000325
 476	4.7263e+01	18.9139	142.252515	0.000740	7.399332	2.506962	0.000296
 477	4.7362e+01	18.9620	142.547226	0.000740	7.399332	2.506962	0.000296
 478	4.7462e+01	18.9925	142.938828	0.000983	9.831989	3.331168	0.000394
 479	4.7561e+01	19.0455	143.217390	0.000699	6.993889	2.369594	0.000280
 480	4.7660e+01	19.0936	143.592844	0.000943	9.426546	3.193800	0.000377
 481	4.7760e+01	19.1160	143.988483	0.000993	9.933350	3.365510	0.000398
 482	4.7859e+01	19.1610	144.315491	0.000821	8.210218	2.781697	0.000329
 483	4.7959e+01	19.2155	144.642499	0.000821	8.210218	2.781697	0.000329
 484	4.8059e+01	19.2380	144.961433	0.000801	8.007496	2.713013	0.000321
 485	4.8158e+01	19.2765	145.304589	0.000862	8.615661	2.919065	0.000345
 486	4.8258e+01	19.3118	145.603338	0.000750	7.500693	2.541304	0.000300
 487	4.8357e+01	19.3583	145.942457	0.000851	8.514300	2.884723	0.000341
 488	4.8456e+01	19.4080	146.273502	0.000831	8.311579	2.816039	0.000333
 489	4.8556e+01	19.4353	146.616659	0.000862	8.615661	2.919065	0.000345
 490	4.8656e+01	19.4786	146.963852	0.000872	8.717021	2.953407	0.000349
 491	4.8755e+01	19.5203	147.290860	0.000821	8.210218	2.781697	0.000329
 492	4.8855e+01	19.5604	147.621905	0.000831	8.311579	2.816039	0.000333
 493	4.8954e+01	19.5941	147.920653	0.000750	7.500693	2.541304	0.000300
 494	4.9053e+01	19.6326	148.239587	0.000801	8.007496	2.713013	0.000321
 495	4.9153e+01	19.6695	148.606967	0.000922	9.223825	3.125117	0.000369
 496	4.9252e+01	19.7256	148.962234	0.000892	8.919743	3.022091	0.000357
 497	4.9352e+01	19.7593	149.265020	0.000760	7.602054	2.575645	0.000304
 498	4.9452e+01	19.7978	149.596065	0.000831	8.311579	2.816039	0.000333
 499	4.9551e+01	19.8363	149.963444	0.000922	9.223825	3.125117	0.000369
 500	4.9651e+01	19.8797	150.322749	0.000902	9.021104	3.056433	0.000361
 501	4.9750e+01	19.9133	150.665906	0.000862	8.615661	2.919065	0.000345
 502	4.9849e+01	19.9486	150.984839	0.000801	8.007496	2.713013	0.000321
 503	4.9949e+01	19.9855	151.323959	0.000851	8.514300	2.884723	0.000341
 504	5.0048e+01	19.9615	151.227068	0.000243	2.432657	0.824207	-0.000097
 505	5.0148e+01	19.9198	151.134213	0.000233	2.331296	0.789865	-0.000093
 506	5.0248e+01	19.8716	150.940431	0.000487	4.865314	1.648413	-0.000195
 507	5.0347e+01	19.8347	150.787020	0.000385	3.851707	1.304994	-0.000154
 508	5.0447e+01	19.7898	150.657831	0.000324	3.243543	1.098942	-0.000130
 509	5.0546e+01	19.7529	150.520569	0.000345	3.446264	1.167626	-0.000138
 510	5.0645e+01	19.7128	150.318712	0.000507	5.068036	1.717097	-0.000203
 511	5.0745e+01	19.6839	150.173375	0.000365	3.648986	1.236310	-0.000146
 512	5.0844e+01	19.6326	149.995741	0.000446	4.459871	1.511045	-0.000179
 513	5.0944e+01	19.6037	149.830219	0.000416	4.155789	1.408020	-0.000166
 514	5.1044e+01	19.5540	149.652585	0.000446	4.459871	1.511045	-0.000179
 515	5.1143e+01	19.5187	149.466876	0.000466	4.662593	1.579729	-0.000187
 516	5.1242e+01	19.4738	149.297317	0.000426	4.257150	1.442361	-0.000170
 517	5.1342e+01	19.4449	149.135831	0.000405	4.054429	1.373678	-0.000162
 518	5.1441e+01	19.3904	148.942049	0.000487	4.865314	1.648413	-0.000195
 519	5.1541e+01	19.3631	148.820935	0.000304	3.040821	1.030258	-0.000122
 520	5.1641e+01	19.3230	148.643301	0.000446	4.459871	1.511045	-0.000179
 521	5.1740e+01	19.2797	148.457592	0.000466	4.662593	1.579729	-0.000187
 522	5.1840e+01	19.2364	148.247661	0.000527	5.270757	1.785781	-0.000211
 523	5.1939e+01	19.1995	148.029656	0.000547	5.473479	1.854465	-0.000219
 524	5.2038e+01	19.1722	147.835874	0.000487	4.865314	1.648413	-0.000195
 525	5.2138e+01	19.1192	147.634017	0.000507	5.068036	1.717097	-0.000203
 526	5.2237e+01	19.0920	147.464457	0.000426	4.257150	1.442361	-0.000170
 527	5.2337e+01	19.0294	147.238378	0.000568	5.676200	1.923149	-0.000227
 528	5.2437e+01	19.0053	147.048632	0.000476	4.763954	1.614071	-0.000191
 529	5.2536e+01	18.9636	146.814478	0.000588	5.878921	1.991833	-0.000235
 530	5.2636e+01	18.9123	146.657030	0.000395	3.953068	1.339336	-0.000158
 531	5.2735e+01	18.8834	146.398653	0.000649	6.487086	2.197884	-0.000260
 532	5.2834e+01	18.8465	146.221019	0.000446	4.459871	1.511045	-0.000179
 533	5.2934e+01	18.8048	145.990903	0.000578	5.777561	1.957491	-0.000231
 534	5.3033e+01	18.7583	145.801157	0.000476	4.763954	1.614071	-0.000191
 535	5.3133e+01	18.7230	145.627560	0.000436	4.358511	1.476703	-0.000174
 536	5.3233e+01	18.6813	145.453964	0.000436	4.358511	1.476703	-0.000174
 537	5.3332e+01	18.6476	145.175401	0.000699	6.993889	2.369594	-0.000280
 538	5.3431e+01	18.5963	144.965470	0.000527	5.270757	1.785781	-0.000211
 539	5.3531e+01	18.5690	144.787836	0.000446	4.459871	1.511045	-0.000179
 540	5.3630e+01	18.5209	144.594054	0.000487	4.865314	1.648413	-0.000195
 541	5.3730e+01	18.4808	144.307417	0.000720	7.196611	2.438278	-0.000288
 542	5.3830e+01	18.4423	144.101523	0.000517	5.169396	1.751439	-0.000207
 543	5.3929e+01	18.4038	143.883518	0.000547	5.473479	1.854465	-0.000219
 544	5.4029e+01	18.3556	143.657438	0.000568	5.676200	1.923149	-0.000227
 545	5.4128e+01	18.3219	143.467693	0.000476	4.763954	1.614071	-0.000191
 546	5.4227e+01	18.2850	143.249687	0.000547	5.473479	1.854465	-0.000219
 547	5.4327e+01	18.2369	142.991311	0.000649	6.487086	2.197884	-0.000260
 548	5.4426e+01	18.1984	142.797528	0.000487	4.865314	1.648413	-0.000195
 549	5.4526e+01	18.1760	142.539152	0.000649	6.487086	2.197884	-0.000260
 550	5.4626e+01	18.1278	142.329220	0.000527	5.270757	1.785781	-0.000211
 551	5.4725e+01	18.0813	142.143512	0.000466	4.662593	1.579729	-0.000187
 552	5.4825e+01	18.0396	141.921470	0.000557	5.574839	1.888807	-0.000223
 553	5.4924e+01	18.0091	141.723650	0.000497	4.966675	1.682755	-0.000199
 554	5.5023e+01	17.9674	141.489496	0.000588	5.878921	1.991833	-0.000235
 555	5.5123e+01	17.9225	141.267454	0.000557	5.574839	1.888807	-0.000223
 556	5.5222e+01	17.8856	141.021188	0.000618	6.183004	2.094858	-0.000248
 557	5.5322e+01	17.8439	140.782997	0.000598	5.980282	2.026174	-0.000239
 558	5.5422e+01	17.8054	140.528658	0.000639	6.385725	2.163542	-0.000256
 559	5.5521e+01	17.7653	140.318727	0.000527	5.270757	1.785781	-0.000211
 560	5.5620e+01	17.7316	140.092647	0.000568	5.676200	1.923149	-0.000227
 561	5.5720e+01	17.6883	139.874642	0.000547	5.473479	1.854465	-0.000219
 562	5.5819e+01	17.6498	139.620302	0.000639	6.385725	2.163542	-0.000256
 563	5.5919e+01	17.6113	139.382111	0.000598	5.980282	2.026174	-0.000239
 564	5.6019e+01	17.5631	139.164106	0.000547	5.473479	1.854465	-0.000219
 565	5.6118e+01	17.5311	138.933989	0.000578	5.777561	1.957491	-0.000231
 566	5.6218e+01	17.4877	138.703873	0.000578	5.777561	1.957491	-0.000231
 567	5.6317e+01	17.4476	138.514127	0.000476	4.763954	1.614071	-0.000191
 568	5.6416e+01	17.4075	138.263825	0.000628	6.284364	2.129200	-0.000252
 569	5.6516e+01	17.3626	138.009485	0.000639	6.385725	2.163542	-0.000256
 570	5.6615e+01	17.3273	137.795517	0.000537	5.372118	1.820123	-0.000215
 571	5.6715e+01	17.2904	137.525029	0.000679	6.791168	2.300910	-0.000272
 572	5.6815e+01	17.2519	137.278764	0.000618	6.183004	2.094858	-0.000248
 573	5.6914e+01	17.2102	137.040573	0.000598	5.980282	2.026174	-0.000239
 574	5.7014e+01	17.1653	136.826604	0.000537	5.372118	1.820123	-0.000215
 575	5.7113e+01	17.1268	136.535931	0.000730	7.297971	2.472620	-0.000292
 576	5.7212e+01	17.0979	136.309851	0.000568	5.676200	1.923149	-0.000227
 577	5.7312e+01	17.0466	136.059549	0.000628	6.284364	2.129200	-0.000252
 578	5.7411e+01	17.0145	135.805209	0.000639	6.385725	2.163542	-0.000256
 579	5.7511e+01	16.9664	135.599315	0.000517	5.169396	1.751439	-0.000207
 580	5.7611e+01	16.9295	135.328827	0.000679	6.791168	2.300910	-0.000272
 581	5.7710e+01	16.8942	135.110822	0.000547	5.473479	1.854465	-0.000219
 582	5.7809e+01	16.8557	134.824185	0.000720	7.196611	2.438278	-0.000288
 583	5.7909e+01	16.8075	134.618291	0.000517	5.169396	1.751439	-0.000207
 584	5.8008e+01	16.7787	134.384137	0.000588	5.878921	1.991833	-0.000235
 585	5.8108e+01	16.7289	134.149983	0.000588	5.878921	1.991833	-0.000235
 586	5.8208e+01	16.6920	133.883532	0.000669	6.689807	2.266568	-0.000268
 587	5.8307e+01	16.6487	133.657453	0.000568	5.676200	1.923149	-0.000227
 588	5.8407e+01	16.6118	133.411188	0.000618	6.183004	2.094858	-0.000248
 589	5.8506e+01	16.5669	133.168959	0.000608	6.081643	2.060516	-0.000243
 590	5.8605e+01	16.5300	132.890397	0.000699	6.993889	2.369594	-0.000280
 591	5.8705e+01	16.4947	132.619909	0.000679	6.791168	2.300910	-0.000272
 592	5.8804e+01	16.4723	132.385755	0.000588	5.878921	1.991833	-0.000235
 593	5.8904e+01	16.4145	132.111230	0.000689	6.892529	2.335252	-0.000276
 594	5.9004e+01	16.3632	131.820556	0.000730	7.297971	2.472620	-0.000292
 595	5.9103e+01	16.3279	131.594477	0.000568	5.676200	1.923149	-0.000227
 596	5.9203e+01	16.2846	131.340137	0.000639	6.385725	2.163542	-0.000256
 597	5.9302e+01	16.2541	131.093872	0.000618	6.183004	2.094858	-0.000248
 598	5.9401e+01	16.2220	130.807235	0.000720	7.196611	2.438278	-0.000288
 599	5.9501e+01	16.1755	130.573081	0.000588	5.878921	1.991833	-0.000235
 600	5.9600e+01	16.1225	130.302593	0.000679	6.791168	2.300910	-0.000272
 601	5.9700e+01	16.0840	130.060365	0.000608	6.081643	2.060516	-0.000243
 602	5.9800e+01	16.0487	129.838322	0.000557	5.574839	1.888807	-0.000223
 603	5.9899e+01	16.0086	129.596094	0.000608	6.081643	2.060516	-0.000243
 604	5.9998e+01	15.9766	129.305421	0.000730	7.297971	2.472620	-0.000292
 605	6.0098e+01	15.9284	129.067230	0.000598	5.980282	2.026174	-0.000239
 606	6.0197e+01	15.8931	128.816927	0.000628	6.284364	2.129200	-0.000252
 607	6.0297e+01	15.8643	128.554513	0.000659	6.588446	2.232226	-0.000264
 608	6.0397e+01	15.8097	128.259802	0.000740	7.399332	2.506962	-0.000296
 609	6.0496e+01	15.7792	128.029686	0.000578	5.777561	1.957491	-0.000231
 610	6.0596e+01	15.7295	127.730938	0.000750	7.500693	2.541304	-0.000300
 611	6.0695e+01	15.6958	127.468524	0.000659	6.588446	2.232226	-0.000264
 612	6.0794e+01	15.6589	127.222259	0.000618	6.183004	2.094858	-0.000248
 613	6.0894e+01	15.6124	126.911399	0.000780	7.804775	2.644329	-0.000312
 614	6.0993e+01	15.5755	126.721654	0.000476	4.763954	1.614071	-0.000191
 615	6.1093e+01	15.5354	126.451166	0.000679	6.791168	2.300910	-0.000272
 616	6.1193e+01	15.4889	126.148380	0.000760	7.602054	2.575645	-0.000304
 617	6.1292e+01	15.4584	125.877892	0.000679	6.791168	2.300910	-0.000272
 618	6.1392e+01	15.4183	125.607404	0.000679	6.791168	2.300910	-0.000272
 619	6.1491e+01	15.3814	125.389399	0.000547	5.473479	1.854465	-0.000219
 620	6.1590e+01	15.3349	125.143134	0.000618	6.183004	2.094858	-0.000248
 621	6.1690e+01	15.2899	124.884757	0.000649	6.487086	2.197884	-0.000260
 622	6.1789e+01	15.2498	124.561786	0.000811	8.108857	2.747355	-0.000325
 623	6.1889e+01	15.2145	124.335706	0.000568	5.676200	1.923149	-0.000227
 624	6.1989e+01	15.1809	124.061181	0.000689	6.892529	2.335252	-0.000276
 625	6.2088e+01	15.1295	123.822990	0.000598	5.980282	2.026174	-0.000239
 626	6.2188e+01	15.0958	123.508094	0.000791	7.906136	2.678671	-0.000316
 627	6.2287e+01	15.0557	123.237606	0.000679	6.791168	2.300910	-0.000272
 628	6.2386e+01	15.0220	122.975192	0.000659	6.588446	2.232226	-0.000264
 629	6.2486e+01	14.9787	122.692592	0.000710	7.095250	2.403936	-0.000284
 630	6.2586e+01	14.9386	122.414030	0.000699	6.993889	2.369594	-0.000280
 631	6.2685e+01	14.8953	122.167765	0.000618	6.183004	2.094858	-0.000248
 632	6.2785e+01	14.8664	121.840757	0.000821	8.210218	2.781697	-0.000329
 633	6.2884e+01	14.8103	121.630826	0.000527	5.270757	1.785781	-0.000211
 634	6.2983e+01	14.7798	121.356300	0.000689	6.892529	2.335252	-0.000276
 635	6.3083e+01	14.7429	121.089849	0.000669	6.689807	2.266568	-0.000268
 636	6.3182e+01	14.7076	120.823398	0.000669	6.689807	2.266568	-0.000268
 637	6.3282e+01	14.6659	120.560985	0.000659	6.588446	2.232226	-0.000264
 638	6.3382e+01	14.6146	120.290496	0.000679	6.791168	2.300910	-0.000272
 639	6.3481e+01	14.5809	120.007897	0.000710	7.095250	2.403936	-0.000284
 640	6.3581e+01	14.5376	119.773743	0.000588	5.878921	1.991833	-0.000235
 641	6.3680e+01	14.4942	119.470958	0.000760	7.602054	2.575645	-0.000304
 642	6.3779e+01	14.4670	119.232767	0.000598	5.980282	2.026174	-0.000239
 643	6.3879e+01	14.4204	118.921907	0.000780	7.804775	2.644329	-0.000312
 644	6.3978e+01	14.3739	118.631234	0.000730	7.297971	2.472620	-0.000292
 645	6.4078e+01	14.3370	118.356708	0.000689	6.892529	2.335252	-0.000276
 646	6.4177e+01	14.3017	118.070072	0.000720	7.196611	2.438278	-0.000288
 647	6.4277e+01	14.2600	117.807658	0.000659	6.588446	2.232226	-0.000264
 648	6.4376e+01	14.2215	117.496799	0.000780	7.804775	2.644329	-0.000312
 649	6.4476e+01	14.1878	117.282830	0.000537	5.372118	1.820123	-0.000215
 650	6.4576e+01	14.1349	116.971971	0.000780	7.804775	2.644329	-0.000312
 651	6.4675e+01	14.1044	116.705520	0.000669	6.689807	2.266568	-0.000268
 652	6.4775e+01	14.0627	116.430995	0.000689	6.892529	2.335252	-0.000276
 653	6.4874e+01	14.0178	116.136284	0.000740	7.399332	2.506962	-0.000296
 654	6.4974e+01	13.9777	115.869833	0.000669	6.689807	2.266568	-0.000268
 655	6.5073e+01	13.9424	115.567048	0.000760	7.602054	2.575645	-0.000304
 656	6.5172e+01	13.8894	115.296560	0.000679	6.791168	2.300910	-0.000272
 657	6.5272e+01	13.8670	115.074517	0.000557	5.574839	1.888807	-0.000223
 658	6.5371e+01	13.8253	114.755583	0.000801	8.007496	2.713013	-0.000321
 659	6.5471e+01	13.7788	114.485095	0.000679	6.791168	2.300910	-0.000272
 660	6.5570e+01	13.7370	114.222681	0.000659	6.588446	2.232226	-0.000264
 661	6.5670e+01	13.6969	113.923933	0.000750	7.500693	2.541304	-0.000300
 662	6.5769e+01	13.6584	113.633260	0.000730	7.297971	2.472620	-0.000292
 663	6.5869e+01	13.6215	113.366809	0.000669	6.689807	2.266568	-0.000268
 664	6.5969e+01	13.5798	113.068061	0.000750	7.500693	2.541304	-0.000300
 665	6.6068e+01	13.5461	112.765275	0.000760	7.602054	2.575645	-0.000304
 666	6.6168e+01	13.5076	112.494787	0.000679	6.791168	2.300910	-0.000272
 667	6.6267e+01	13.4531	112.224299	0.000679	6.791168	2.300910	-0.000272
 668	6.6367e+01	13.4210	111.921514	0.000760	7.602054	2.575645	-0.000304
 669	6.6466e+01	13.3857	111.642952	0.000699	6.993889	2.369594	-0.000280
 670	6.6566e+01	13.3408	111.340167	0.000760	7.602054	2.575645	-0.000304
 671	6.6665e+01	13.3039	111.049493	0.000730	7.297971	2.472620	-0.000292
 672	6.6764e+01	13.2606	110.795153	0.000639	6.385725	2.163542	-0.000256
 673	6.6864e+01	13.2237	110.520628	0.000689	6.892529	2.335252	-0.000276
 674	6.6963e+01	13.1724	110.238028	0.000710	7.095250	2.403936	-0.000284
 675	6.7063e+01	13.1483	109.975615	0.000659	6.588446	2.232226	-0.000264
 676	6.7162e+01	13.1066	109.701089	0.000689	6.892529	2.335252	-0.000276
 677	6.7262e+01	13.0617	109.422527	0.000699	6.993889	2.369594	-0.000280
 678	6.7362e+01	13.0264	109.135890	0.000720	7.196611	2.438278	-0.000288
 679	6.7461e+01	12.9863	108.849254	0.000720	7.196611	2.438278	-0.000288
 680	6.7561e+01	12.9510	108.578766	0.000679	6.791168	2.300910	-0.000272
 681	6.7660e+01	12.9093	108.284055	0.000740	7.399332	2.506962	-0.000296
 682	6.7760e+01	12.8788	108.017604	0.000669	6.689807	2.266568	-0.000268
 683	6.7859e+01	12.8210	107.694633	0.000811	8.108857	2.747355	-0.000325
 684	6.7959e+01	12.7873	107.432219	0.000659	6.588446	2.232226	-0.000264
 685	6.8058e+01	12.7408	107.185954	0.000618	6.183004	2.094858	-0.000248
 686	6.8157e+01	12.7168	106.875094	0.000780	7.804775	2.644329	-0.000312
 687	6.8257e+01	12.6638	106.588458	0.000720	7.196611	2.438278	-0.000288
 688	6.8356e+01	12.6333	106.297784	0.000730	7.297971	2.472620	-0.000292
 689	6.8456e+01	12.5820	105.974813	0.000811	8.108857	2.747355	-0.000325
 690	6.8555e+01	12.5547	105.708362	0.000669	6.689807	2.266568	-0.000268
 691	6.8655e+01	12.5050	105.417688	0.000730	7.297971	2.472620	-0.000292
 692	6.8754e+01	12.4681	105.118940	0.000750	7.500693	2.541304	-0.000300
 693	6.8854e+01	12.4280	104.832304	0.000720	7.196611	2.438278	-0.000288
 694	6.8954e+01	12.3879	104.561816	0.000679	6.791168	2.300910	-0.000272
 695	6.9053e+01	12.3430	104.291328	0.000679	6.791168	2.300910	-0.000272
 696	6.9153e+01	12.3045	104.020839	0.000679	6.791168	2.300910	-0.000272
 697	6.9252e+01	12.2628	103.714017	0.000770	7.703414	2.609987	-0.000308
 698	6.9352e+01	12.2323	103.419306	0.000740	7.399332	2.506962	-0.000296
 699	6.9451e+01	12.1922	103.096335	0.000811	8.108857	2.747355	-0.000325
 700	6.9550e+01	12.1456	102.817773	0.000699	6.993889	2.369594	-0.000280
 701	6.9650e+01	12.1039	102.539211	0.000699	6.993889	2.369594	-0.000280
 702	6.9749e+01	12.0574	102.244500	0.000740	7.399332	2.506962	-0.000296
 703	6.9849e+01	12.0237	101.957863	0.000720	7.196611	2.438278	-0.000288
 704	6.9948e+01	11.9852	101.642966	0.000791	7.906136	2.678671	-0.000316
 705	7.0048e+01	11.9451	101.352293	0.000730	7.297971	2.472620	-0.000292
 706	7.0147e+01	11.9130	101.053545	0.000750	7.500693	2.541304	-0.000300
 707	7.0247e+01	11.8745	100.779019	0.000689	6.892529	2.335252	-0.000276
 708	7.0347e+01	11.8216	100.488346	0.000730	7.297971	2.472620	-0.000292
 709	7.0446e+01	11.7815	100.165375	0.000811	8.108857	2.747355	-0.000325
 710	7.0546e+01	11.7494	99.862590	0.000760	7.602054	2.575645	-0.000304
 711	7.0645e+01	11.7141	99.592102	0.000679	6.791168	2.300910	-0.000272
 712	7.0745e+01	11.6788	99.309502	0.000710	7.095250	2.403936	-0.000284
 713	7.0844e+01	11.6323	99.022865	0.000720	7.196611	2.438278	-0.000288
 714	7.0944e+01	11.5858	98.724117	0.000750	7.500693	2.541304	-0.000300
 715	7.1043e+01	11.5585	98.461704	0.000659	6.588446	2.232226	-0.000264
 716	7.1142e+01	11.5120	98.187178	0.000689	6.892529	2.335252	-0.000276
 717	7.1242e+01	11.4735	97.856133	0.000831	8.311579	2.816039	-0.000333
 718	7.1341e+01	11.4270	97.537199	0.000801	8.007496	2.713013	-0.000321
 719	7.1441e+01	11.3965	97.270748	0.000669	6.689807	2.266568	-0.000268
 720	7.1540e+01	11.3435	96.976038	0.000740	7.399332	2.506962	-0.000296
 721	7.1640e+01	11.3130	96.685364	0.000730	7.297971	2.472620	-0.000292
 722	7.1740e+01	11.2745	96.370467	0.000791	7.906136	2.678671	-0.000316
 723	7.1839e+01	11.2280	96.059608	0.000780	7.804775	2.644329	-0.000312
 724	7.1939e+01	11.1975	95.756823	0.000760	7.602054	2.575645	-0.000304
 725	7.2038e+01	11.1478	95.478260	0.000699	6.993889	2.369594	-0.000280
 726	7.2138e+01	11.1221	95.195661	0.000710	7.095250	2.403936	-0.000284
 727	7.2237e+01	11.0676	94.856541	0.000851	8.514300	2.884723	-0.000341
 728	7.2337e+01	11.0307	94.557793	0.000750	7.500693	2.541304	-0.000300
 729	7.2436e+01	10.9922	94.267119	0.000730	7.297971	2.472620	-0.000292
 730	7.2535e+01	10.9457	93.964334	0.000760	7.602054	2.575645	-0.000304
 731	7.2635e+01	10.9104	93.661549	0.000760	7.602054	2.575645	-0.000304
 732	7.2734e+01	10.8735	93.395098	0.000669	6.689807	2.266568	-0.000268
 733	7.2834e+01	10.8302	93.108462	0.000720	7.196611	2.438278	-0.000288
 734	7.2933e+01	10.8013	92.793565	0.000791	7.906136	2.678671	-0.000316
 735	7.3033e+01	10.7564	92.515003	0.000699	6.993889	2.369594	-0.000280
 736	7.3132e+01	10.7195	92.192032	0.000811	8.108857	2.747355	-0.000325
 737	7.3232e+01	10.6746	91.961915	0.000578	5.777561	1.957491	-0.000231
 738	7.3332e+01	10.6409	91.586461	0.000943	9.426546	3.193800	-0.000377
 739	7.3431e+01	10.5976	91.295788	0.000730	7.297971	2.472620	-0.000292
 740	7.3531e+01	10.5542	90.980891	0.000791	7.906136	2.678671	-0.000316
 741	7.3630e+01	10.5254	90.645809	0.000841	8.412939	2.850381	-0.000337
 742	7.3730e+01	10.4837	90.363209	0.000710	7.095250	2.403936	-0.000284
 743	7.3829e+01	10.4291	90.072535	0.000730	7.297971	2.472620	-0.000292
 744	7.3928e+01	10.4002	89.810122	0.000659	6.588446	2.232226	-0.000264
 745	7.4028e+01	10.3473	89.446779	0.000912	9.122464	3.090775	-0.000365
 746	7.4127e+01	10.3232	89.176291	0.000679	6.791168	2.300910	-0.000272
 747	7.4227e+01	10.2863	88.861395	0.000791	7.906136	2.678671	-0.000316
 748	7.4326e+01	10.2334	88.566684	0.000740	7.399332	2.506962	-0.000296
 749	7.4426e+01	10.1901	88.259862	0.000770	7.703414	2.609987	-0.000308
 750	7.4525e+01	10.1612	88.001485	0.000649	6.487086	2.197884	-0.000260
 751	7.4625e+01	10.1179	87.702737	0.000750	7.500693	2.541304	-0.000300
 752	7.4725e+01	10.0794	87.387840	0.000791	7.906136	2.678671	-0.000316
 753	7.4824e+01	10.0393	87.068906	0.000801	8.007496	2.713013	-0.000321
 754	7.4924e+01	9.9976	86.758047	0.000780	7.804775	2.644329	-0.000312
 755	7.5023e+01	9.9655	86.463336	0.000740	7.399332	2.506962	-0.000296
 756	7.5123e+01	9.9174	86.160551	0.000760	7.602054	2.575645	-0.000304
 757	7.5222e+01	9.8789	85.841617	0.000801	8.007496	2.713013	-0.000321
 758	7.5322e+01	9.8307	85.506535	0.000841	8.412939	2.850381	-0.000337
 759	7.5421e+01	9.7987	85.207787	0.000750	7.500693	2.541304	-0.000300
 760	7.5520e+01	9.7618	84.905002	0.000760	7.602054	2.575645	-0.000304
 761	7.5620e+01	9.7217	84.630476	0.000689	6.892529	2.335252	-0.000276
 762	7.5719e+01	9.6848	84.279246	0.000882	8.818382	2.987749	-0.000353
 763	7.5819e+01	9.6446	83.992609	0.000720	7.196611	2.438278	-0.000288
 764	7.5918e+01	9.5949	83.677712	0.000791	7.906136	2.678671	-0.000316
 765	7.6018e+01	9.5516	83.370890	0.000770	7.703414	2.609987	-0.000308
 766	7.6118e+01	9.5227	83.035808	0.000841	8.412939	2.850381	-0.000337
 767	7.6217e+01	9.4794	82.765320	0.000679	6.791168	2.300910	-0.000272
 768	7.6317e+01	9.4505	82.474646	0.000730	7.297971	2.472620	-0.000292
 769	7.6416e+01	9.4024	82.167824	0.000770	7.703414	2.609987	-0.000308
 770	7.6516e+01	9.3495	81.877150	0.000730	7.297971	2.472620	-0.000292
 771	7.6615e+01	9.3110	81.533993	0.000862	8.615661	2.919065	-0.000345
 772	7.6715e+01	9.2853	81.198911	0.000841	8.412939	2.850381	-0.000337
 773	7.6814e+01	9.2452	80.900163	0.000750	7.500693	2.541304	-0.000300
 774	7.6913e+01	9.1971	80.609489	0.000730	7.297971	2.472620	-0.000292
 775	7.7013e+01	9.1634	80.270370	0.000851	8.514300	2.884723	-0.000341
 776	7.7112e+01	9.1265	79.943362	0.000821	8.210218	2.781697	-0.000329
 777	7.7212e+01	9.0864	79.656725	0.000720	7.196611	2.438278	-0.000288
 778	7.7311e+01	9.0431	79.349903	0.000770	7.703414	2.609987	-0.000308
 779	7.7411e+01	8.9981	79.006746	0.000862	8.615661	2.919065	-0.000345
 780	7.7510e+01	8.9677	78.707998	0.000750	7.500693	2.541304	-0.000300
 781	7.7610e+01	8.9211	78.445585	0.000659	6.588446	2.232226	-0.000264
 782	7.7710e+01	8.8874	78.090317	0.000892	8.919743	3.022091	-0.000357
 783	7.7809e+01	8.8425	77.775420	0.000791	7.906136	2.678671	-0.000316
 784	7.7909e+01	8.8056	77.464561	0.000780	7.804775	2.644329	-0.000312
 785	7.8008e+01	8.7575	77.141590	0.000811	8.108857	2.747355	-0.000325
 786	7.8108e+01	8.7270	76.863027	0.000699	6.993889	2.369594	-0.000280
 787	7.8207e+01	8.6821	76.564279	0.000750	7.500693	2.541304	-0.000300
 788	7.8306e+01	8.6420	76.261494	0.000760	7.602054	2.575645	-0.000304
 789	7.8406e+01	8.6003	75.894115	0.000922	9.223825	3.125117	-0.000369
 790	7.8505e+01	8.5634	75.595367	0.000750	7.500693	2.541304	-0.000300
 791	7.8605e+01	8.5169	75.284507	0.000780	7.804775	2.644329	-0.000312
 792	7.8704e+01	8.4864	74.969611	0.000791	7.906136	2.678671	-0.000316
 793	7.8804e+01	8.4399	74.646640	0.000811	8.108857	2.747355	-0.000325
 794	7.8903e+01	8.4094	74.368077	0.000699	6.993889	2.369594	-0.000280
 795	7.9003e+01	8.3741	74.008772	0.000902	9.021104	3.056433	-0.000361
 796	7.9103e+01	8.3196	73.697913	0.000780	7.804775	2.644329	-0.000312
 797	7.9202e+01	8.2843	73.415313	0.000710	7.095250	2.403936	-0.000284
 798	7.9302e+01	8.2458	73.056008	0.000902	9.021104	3.056433	-0.000361
 799	7.9401e+01	8.2008	72.777446	0.000699	6.993889	2.369594	-0.000280
 800	7.9501e+01	8.1704	72.406029	0.000933	9.325186	3.159458	-0.000373
 801	7.9600e+01	8.1158	72.103244	0.000760	7.602054	2.575645	-0.000304
 802	7.9700e+01	8.0773	71.772199	0.000831	8.311579	2.816039	-0.000333
 803	7.9799e+01	8.0484	71.505748	0.000669	6.689807	2.266568	-0.000268
 804	7.9898e+01	8.0019	71.202963	0.000760	7.602054	2.575645	-0.000304
 805	7.9998e+01	7.9602	70.944586	0.000649	6.487086	2.197884	-0.000260
 806	8.0097e+01	7.9249	70.581244	0.000912	9.122464	3.090775	-0.000365
 807	8.0197e+01	7.8928	70.282496	0.000750	7.500693	2.541304	-0.000300
 808	8.0296e+01	7.8431	69.931265	0.000882	8.818382	2.987749	-0.000353
 809	8.0396e+01	7.8046	69.620406	0.000780	7.804775	2.644329	-0.000312
 810	8.0496e+01	7.7709	69.333769	0.000720	7.196611	2.438278	-0.000288
 811	8.0595e+01	7.7180	68.986575	0.000872	8.717021	2.953407	-0.000349
 812	8.0695e+01	7.6859	68.699939	0.000720	7.196611	2.438278	-0.000288
 813	8.0794e+01	7.6426	68.360819	0.000851	8.514300	2.884723	-0.000341
 814	8.0894e+01	7.6073	68.033811	0.000821	8.210218	2.781697	-0.000329
 815	8.0993e+01	7.5607	67.735063	0.000750	7.500693	2.541304	-0.000300
 816	8.1093e+01	7.5383	67.379795	0.000892	8.919743	3.022091	-0.000357
 817	8.1192e+01	7.4837	67.089122	0.000730	7.297971	2.472620	-0.000292
 818	8.1291e+01	7.4420	66.745965	0.000862	8.615661	2.919065	-0.000345
 819	8.1391e+01	7.4100	66.414920	0.000831	8.311579	2.816039	-0.000333
 820	8.1490e+01	7.3731	66.091949	0.000811	8.108857	2.747355	-0.000325
 821	8.1590e+01	7.3362	65.813387	0.000699	6.993889	2.369594	-0.000280
 822	8.1689e+01	7.2832	65.502527	0.000780	7.804775	2.644329	-0.000312
 823	8.1789e+01	7.2447	65.203779	0.000750	7.500693	2.541304	-0.000300
 824	8.1888e+01	7.2062	64.868697	0.000841	8.412939	2.850381	-0.000337
 825	8.1988e+01	7.1661	64.541689	0.000821	8.210218	2.781697	-0.000329
 826	8.2088e+01	7.1244	64.230830	0.000780	7.804775	2.644329	-0.000312
 827	8.2187e+01	7.0843	63.899784	0.000831	8.311579	2.816039	-0.000333
 828	8.2287e+01	7.0474	63.552591	0.000872	8.717021	2.953407	-0.000349
 829	8.2386e+01	7.0105	63.257880	0.000740	7.399332	2.506962	-0.000296
 830	8.2486e+01	6.9768	62.930872	0.000821	8.210218	2.781697	-0.000329
 831	8.2585e+01	6.9303	62.620012	0.000780	7.804775	2.644329	-0.000312
 832	8.2684e+01	6.8950	62.288967	0.000831	8.311579	2.816039	-0.000333
 833	8.2784e+01	6.8404	61.945811	0.000862	8.615661	2.919065	-0.000345
 834	8.2883e+01	6.8164	61.651100	0.000740	7.399332	2.506962	-0.000296
 835	8.2983e+01	6.7602	61.299869	0.000882	8.818382	2.987749	-0.000353
 836	8.3082e+01	6.7298	60.976898	0.000811	8.108857	2.747355	-0.000325
 837	8.3182e+01	6.6848	60.686224	0.000730	7.297971	2.472620	-0.000292
 838	8.3281e+01	6.6560	60.334994	0.000882	8.818382	2.987749	-0.000353
 839	8.3381e+01	6.6110	60.028171	0.000770	7.703414	2.609987	-0.000308
 840	8.3481e+01	6.5677	59.701163	0.000821	8.210218	2.781697	-0.000329
 841	8.3580e+01	6.5372	59.370118	0.000831	8.311579	2.816039	-0.000333
 842	8.3680e+01	6.4923	59.063296	0.000770	7.703414	2.609987	-0.000308
 843	8.3779e+01	6.4570	58.780696	0.000710	7.095250	2.403936	-0.000284
 844	8.3879e+01	6.4121	58.469837	0.000780	7.804775	2.644329	-0.000312
 845	8.3978e+01	6.3656	58.167052	0.000760	7.602054	2.575645	-0.000304
 846	8.4078e+01	6.3399	57.852155	0.000791	7.906136	2.678671	-0.000316
 847	8.4177e+01	6.2998	57.529184	0.000811	8.108857	2.747355	-0.000325
 848	8.4276e+01	6.2517	57.169879	0.000902	9.021104	3.056433	-0.000361
 849	8.4376e+01	6.2132	56.895354	0.000689	6.892529	2.335252	-0.000276
 850	8.4475e+01	6.1827	56.532012	0.000912	9.122464	3.090775	-0.000365
 851	8.4575e+01	6.1298	56.257487	0.000689	6.892529	2.335252	-0.000276
 852	8.4674e+01	6.0961	55.918367	0.000851	8.514300	2.884723	-0.000341
 853	8.4774e+01	6.0576	55.542913	0.000943	9.426546	3.193800	-0.000377
 854	8.4874e+01	6.0062	55.248203	0.000740	7.399332	2.506962	-0.000296
 855	8.4973e+01	5.9822	54.913120	0.000841	8.412939	2.850381	-0.000337
 856	8.5073e+01	5.9501	54.630521	0.000710	7.095250	2.403936	-0.000284
 857	8.5172e+01	5.8956	54.263141	0.000922	9.223825	3.125117	-0.000369
 858	8.5272e+01	5.8538	53.972468	0.000730	7.297971	2.472620	-0.000292
 859	8.5371e+01	5.8121	53.617200	0.000892	8.919743	3.022091	-0.000357
 860	8.5471e+01	5.7640	53.322489	0.000740	7.399332	2.506962	-0.000296
 861	8.5570e+01	5.7255	52.983369	0.000851	8.514300	2.884723	-0.000341
 862	8.5669e+01	5.6934	52.672510	0.000780	7.804775	2.644329	-0.000312
 863	8.5769e+01	5.6517	52.357613	0.000791	7.906136	2.678671	-0.000316
 864	8.5868e+01	5.6084	52.030605	0.000821	8.210218	2.781697	-0.000329
 865	8.5968e+01	5.5635	51.707635	0.000811	8.108857	2.747355	-0.000325
 866	8.6067e+01	5.5330	51.392738	0.000791	7.906136	2.678671	-0.000316
 867	8.6167e+01	5.5009	51.041507	0.000882	8.818382	2.987749	-0.000353
 868	8.6266e+01	5.4560	50.730648	0.000780	7.804775	2.644329	-0.000312
 869	8.6366e+01	5.4175	50.391528	0.000851	8.514300	2.884723	-0.000341
 870	8.6466e+01	5.3758	50.056446	0.000841	8.412939	2.850381	-0.000337
 871	8.6565e+01	5.3357	49.721364	0.000841	8.412939	2.850381	-0.000337
 872	8.6665e+01	5.2956	49.450876	0.000679	6.791168	2.300910	-0.000272
 873	8.6764e+01	5.2603	49.063311	0.000973	9.730629	3.296826	-0.000390
 874	8.6864e+01	5.2122	48.744377	0.000801	8.007496	2.713013	-0.000321
 875	8.6963e+01	5.1688	48.393146	0.000882	8.818382	2.987749	-0.000353
 876	8.7063e+01	5.1368	48.118621	0.000689	6.892529	2.335252	-0.000276
 877	8.7162e+01	5.0983	47.755279	0.000912	9.122464	3.090775	-0.000365
 878	8.7261e+01	5.0517	47.468642	0.000720	7.196611	2.438278	-0.000288
 879	8.7361e+01	5.0132	47.101263	0.000922	9.223825	3.125117	-0.000369
 880	8.7460e+01	4.9731	46.774255	0.000821	8.210218	2.781697	-0.000329
 881	8.7560e+01	4.9426	46.463395	0.000780	7.804775	2.644329	-0.000312
 882	8.7659e+01	4.9041	46.180796	0.000710	7.095250	2.403936	-0.000284
 883	8.7759e+01	4.8512	45.841676	0.000851	8.514300	2.884723	-0.000341
 884	8.7859e+01	4.8175	45.518705	0.000811	8.108857	2.747355	-0.000325
 885	8.7958e+01	4.7822	45.179586	0.000851	8.514300	2.884723	-0.000341
 886	8.8058e+01	4.7389	44.864689	0.000791	7.906136	2.678671	-0.000316
 887	8.8157e+01	4.6924	44.537681	0.000821	8.210218	2.781697	-0.000329
 888	8.8257e+01	4.6635	44.222785	0.000791	7.906136	2.678671	-0.000316
 889	8.8356e+01	4.6154	43.839257	0.000963	9.629268	3.262484	-0.000385
 890	8.8456e+01	4.5753	43.536472	0.000760	7.602054	2.575645	-0.000304
 891	8.8555e+01	4.5400	43.221575	0.000791	7.906136	2.678671	-0.000316
 892	8.8654e+01	4.5047	42.866307	0.000892	8.919743	3.022091	-0.000357
 893	8.8754e+01	4.4598	42.539299	0.000821	8.210218	2.781697	-0.000329
 894	8.8853e+01	4.4245	42.167883	0.000933	9.325186	3.159458	-0.000373
 895	8.8953e+01	4.3796	41.877209	0.000730	7.297971	2.472620	-0.000292
 896	8.9052e+01	4.3394	41.525978	0.000882	8.818382	2.987749	-0.000353
 897	8.9152e+01	4.2929	41.231267	0.000740	7.399332	2.506962	-0.000296
 898	8.9251e+01	4.2544	40.867925	0.000912	9.122464	3.090775	-0.000365
 899	8.9351e+01	4.2207	40.540917	0.000821	8.210218	2.781697	-0.000329
 900	8.9451e+01	4.1774	40.230058	0.000780	7.804775	2.644329	-0.000312
 901	8.9550e+01	4.1453	39.939384	0.000730	7.297971	2.472620	-0.000292
 902	8.9650e+01	4.1020	39.588153	0.000882	8.818382	2.987749	-0.000353
 903	8.9749e+01	4.0619	39.293442	0.000740	7.399332	2.506962	-0.000296
 904	8.9849e+01	4.0298	38.942211	0.000882	8.818382	2.987749	-0.000353
 905	8.9948e+01	3.9769	38.607129	0.000841	8.412939	2.850381	-0.000337
 906	9.0047e+01	3.9448	38.255898	0.000882	8.818382	2.987749	-0.000353
 907	9.0147e+01	3.9015	37.953113	0.000760	7.602054	2.575645	-0.000304
 908	9.0246e+01	3.8662	37.605919	0.000872	8.717021	2.953407	-0.000349
 909	9.0346e+01	3.8309	37.303134	0.000760	7.602054	2.575645	-0.000304
 910	9.0445e+01	3.7764	36.951903	0.000882	8.818382	2.987749	-0.000353
 911	9.0545e+01	3.7395	36.604710	0.000872	8.717021	2.953407	-0.000349
 912	9.0644e+01	3.7042	36.281739	0.000811	8.108857	2.747355	-0.000325
 913	9.0744e+01	3.6657	35.954731	0.000821	8.210218	2.781697	-0.000329
 914	9.0844e+01	3.6304	35.639834	0.000791	7.906136	2.678671	-0.000316
 915	9.0943e+01	3.5903	35.304752	0.000841	8.412939	2.850381	-0.000337
 916	9.1043e+01	3.5454	34.969670	0.000841	8.412939	2.850381	-0.000337
 917	9.1142e+01	3.4956	34.614402	0.000892	8.919743	3.022091	-0.000357
 918	9.1242e+01	3.4716	34.335839	0.000699	6.993889	2.369594	-0.000280
 919	9.1341e+01	3.4186	33.996720	0.000851	8.514300	2.884723	-0.000341
 920	9.1441e+01	3.3881	33.641452	0.000892	8.919743	3.022091	-0.000357
 921	9.1540e+01	3.3448	33.330593	0.000780	7.804775	2.644329	-0.000312
 922	9.1639e+01	3.3015	33.015696	0.000791	7.906136	2.678671	-0.000316
 923	9.1739e+01	3.2710	32.676577	0.000851	8.514300	2.884723	-0.000341
 924	9.1838e+01	3.2229	32.333420	0.000862	8.615661	2.919065	-0.000345
 925	9.1938e+01	3.1924	31.994301	0.000851	8.514300	2.884723	-0.000341
 926	9.2037e+01	3.1379	31.651144	0.000862	8.615661	2.919065	-0.000345
 927	9.2137e+01	3.0978	31.299913	0.000882	8.818382	2.987749	-0.000353
 928	9.2237e+01	3.0625	30.928497	0.000933	9.325186	3.159458	-0.000373
 929	9.2336e+01	3.0288	30.649935	0.000699	6.993889	2.369594	-0.000280
 930	9.2436e+01	2.9839	30.274481	0.000943	9.426546	3.193800	-0.000377
 931	9.2535e+01	2.9470	29.959584	0.000791	7.906136	2.678671	-0.000316
 932	9.2635e+01	2.9197	29.616428	0.000862	8.615661	2.919065	-0.000345
 933	9.2734e+01	2.8636	29.269234	0.000872	8.717021	2.953407	-0.000349
 934	9.2834e+01	2.8251	28.942226	0.000821	8.210218	2.781697	-0.000329
 935	9.2933e+01	2.7833	28.635404	0.000770	7.703414	2.609987	-0.000308
 936	9.3032e+01	2.7545	28.312433	0.000811	8.108857	2.747355	-0.000325
 937	9.3132e+01	2.7063	27.953128	0.000902	9.021104	3.056433	-0.000361
 938	9.3231e+01	2.6694	27.622083	0.000831	8.311579	2.816039	-0.000333
 939	9.3331e+01	2.6261	27.262778	0.000902	9.021104	3.056433	-0.000361
 940	9.3430e+01	2.5844	26.927695	0.000841	8.412939	2.850381	-0.000337
 941	9.3530e+01	2.5475	26.604725	0.000811	8.108857	2.747355	-0.000325
 942	9.3629e+01	2.5010	26.269642	0.000841	8.412939	2.850381	-0.000337
 943	9.3729e+01	2.4641	25.898226	0.000933	9.325186	3.159458	-0.000373
 944	9.3829e+01	2.4256	25.583329	0.000791	7.906136	2.678671	-0.000316
 945	9.3928e+01	2.3903	25.248247	0.000841	8.412939	2.850381	-0.000337
 946	9.4028e+01	2.3406	24.917202	0.000831	8.311579	2.816039	-0.000333
 947	9.4127e+01	2.3053	24.594231	0.000811	8.108857	2.747355	-0.000325
 948	9.4227e+01	2.2668	24.259149	0.000841	8.412939	2.850381	-0.000337
 949	9.4326e+01	2.2315	23.928104	0.000831	8.311579	2.816039	-0.000333
 950	9.4425e+01	2.1962	23.576873	0.000882	8.818382	2.987749	-0.000353
 951	9.4525e+01	2.1561	23.249865	0.000821	8.210218	2.781697	-0.000329
 952	9.4624e+01	2.1096	22.894597	0.000892	8.919743	3.022091	-0.000357
 953	9.4724e+01	2.0695	22.547403	0.000872	8.717021	2.953407	-0.000349
 954	9.4823e+01	2.0278	22.264804	0.000710	7.095250	2.403936	-0.000284
 955	9.4923e+01	1.9876	21.925684	0.000851	8.514300	2.884723	-0.000341
 956	9.5022e+01	1.9556	21.562342	0.000912	9.122464	3.090775	-0.000365
 957	9.5122e+01	1.9138	21.271668	0.000730	7.297971	2.472620	-0.000292
 958	9.5222e+01	1.8673	20.924475	0.000872	8.717021	2.953407	-0.000349
 959	9.5321e+01	1.8256	20.536909	0.000973	9.730629	3.296826	-0.000390
 960	9.5421e+01	1.7855	20.181642	0.000892	8.919743	3.022091	-0.000357
 961	9.5520e+01	1.7454	19.882894	0.000750	7.500693	2.541304	-0.000300
 962	9.5620e+01	1.7133	19.539737	0.000862	8.615661	2.919065	-0.000345
 963	9.5719e+01	1.6748	19.220803	0.000801	8.007496	2.713013	-0.000321
 964	9.5819e+01	1.6267	18.865535	0.000892	8.919743	3.022091	-0.000357
 965	9.5918e+01	1.5946	18.514304	0.000882	8.818382	2.987749	-0.000353
 966	9.6017e+01	1.5529	18.191334	0.000811	8.108857	2.747355	-0.000325
 967	9.6117e+01	1.5208	17.868363	0.000811	8.108857	2.747355	-0.000325
 968	9.6216e+01	1.4679	17.529243	0.000851	8.514300	2.884723	-0.000341
 969	9.6316e+01	1.4262	17.206273	0.000811	8.108857	2.747355	-0.000325
 970	9.6415e+01	1.3989	16.867153	0.000851	8.514300	2.884723	-0.000341
 971	9.6515e+01	1.3540	16.523997	0.000862	8.615661	2.919065	-0.000345
 972	9.6615e+01	1.3139	16.184877	0.000851	8.514300	2.884723	-0.000341
 973	9.6714e+01	1.2770	15.857869	0.000821	8.210218	2.781697	-0.000329
 974	9.6814e+01	1.2256	15.526824	0.000831	8.311579	2.816039	-0.000333
 975	9.6913e+01	1.1968	15.175593	0.000882	8.818382	2.987749	-0.000353
 976	9.7013e+01	1.1486	14.832437	0.000862	8.615661	2.919065	-0.000345
 977	9.7112e+01	1.1149	14.497354	0.000841	8.412939	2.850381	-0.000337
 978	9.7212e+01	1.0700	14.154198	0.000862	8.615661	2.919065	-0.000345
 979	9.7311e+01	1.0395	13.807004	0.000872	8.717021	2.953407	-0.000349
 980	9.7410e+01	0.9930	13.508256	0.000750	7.500693	2.541304	-0.000300
 981	9.7510e+01	0.9481	13.124728	0.000963	9.629268	3.262484	-0.000385
 982	9.7609e+01	0.9096	12.801757	0.000811	8.108857	2.747355	-0.000325
 983	9.7709e+01	0.8711	12.511084	0.000730	7.297971	2.472620	-0.000292
 984	9.7808e+01	0.8310	12.155816	0.000892	8.919743	3.022091	-0.000357
 985	9.7908e+01	0.7973	11.857068	0.000750	7.500693	2.541304	-0.000300
 986	9.8007e+01	0.7572	11.501800	0.000892	8.919743	3.022091	-0.000357
 987	9.8107e+01	0.7027	11.122309	0.000953	9.527907	3.228142	-0.000381
 988	9.8207e+01	0.6722	10.783190	0.000851	8.514300	2.884723	-0.000341
 989	9.8306e+01	0.6321	10.460219	0.000811	8.108857	2.747355	-0.000325
 990	9.8406e+01	0.5984	10.121099	0.000851	8.514300	2.884723	-0.000341
 991	9.8505e+01	0.5551	9.773906	0.000872	8.717021	2.953407	-0.000349
 992	9.8605e+01	0.5230	9.446898	0.000821	8.210218	2.781697	-0.000329
 993	9.8704e+01	0.4797	9.075481	0.000933	9.325186	3.159458	-0.000373
 994	9.8803e+01	0.4347	8.788845	0.000720	7.196611	2.438278	-0.000288
 995	9.8903e+01	0.3930	8.425502	0.000912	9.122464	3.090775	-0.000365
 996	9.9002e+01	0.3545	8.066197	0.000902	9.021104	3.056433	-0.000361
 997	9.9102e+01	0.3128	7.723041	0.000862	8.615661	2.919065	-0.000345
 998	9.9201e+01	0.2791	7.400070	0.000811	8.108857	2.747355	-0.000325
 999	9.9301e+01	0.2342	7.069025	0.000831	8.311579	2.816039	-0.000333
1000	9.9400e+01	0.1941	6.742017	0.000821	8.210218	2.781697	-0.000329
1001	9.9500e+01	0.1556	6.390786	0.000882	8.818382	2.987749	-0.000353
1002	9.9600e+01	0.1107	6.023407	0.000922	9.223825	3.125117	-0.000369
1003	9.9699e+01	0.0770	5.736770	0.000720	7.196611	2.438278	-0.000288
1004	9.9799e+01	0.0385	5.421873	0.000791	7.906136	2.678671	-0.000316
1005	9.9898e+01	0.0080	5.115051	0.000770	7.703414	2.609987	-0.000308
1006	9.9998e+01	-0.0385	4.816303	0.000750	7.500693	2.541304	-0.000300
1007	1.0010e+02	-0.0738	4.424701	0.000983	9.831989	3.331168	-0.000394
1008	1.0020e+02	-0.1315	4.073470	0.000882	8.818382	2.987749	-0.000353
1009	1.0030e+02	-0.1572	3.758573	0.000791	7.906136	2.678671	-0.000316
1010	1.0040e+02	-0.2037	3.443677	0.000791	7.906136	2.678671	-0.000316
1011	1.0050e+02	-0.2406	3.088409	0.000892	8.919743	3.022091	-0.000357
1012	1.0059e+02	-0.2711	2.745252	0.000862	8.615661	2.919065	-0.000345
1013	1.0069e+02	-0.3128	2.422281	0.000811	8.108857	2.747355	-0.000325
1014	1.0079e+02	-0.3529	2.095273	0.000821	8.210218	2.781697	-0.000329
1015	1.0089e+02	-0.3962	1.752117	0.000862	8.615661	2.919065	-0.000345
1016	1.0099e+02	-0.4428	1.392812	0.000902	9.021104	3.056433	-0.000361
1017	1.0109e+02	-0.4781	1.061767	0.000831	8.311579	2.816039	-0.000333
1018	1.0119e+02	-0.5198	0.763019	0.000750	7.500693	2.541304	-0.000300
1019	1.0129e+02	-0.5486	0.411788	0.000882	8.818382	2.987749	-0.000353
1020	1.0139e+02	-0.5904	0.100928	0.000780	7.804775	2.644329	-0.000312
1021	1.0149e+02	-0.6337	-0.197820	0.000750	7.500693	2.541304	-0.000300
1022	1.0159e+02	-0.6738	-0.573273	0.000943	9.426546	3.193800	-0.000377
1023	1.0169e+02	-0.7107	-0.859910	0.000720	7.196611	2.438278	-0.000288
1024	1.0179e+02	-0.7556	-1.255549	0.000993	9.933350	3.365510	-0.000398
1025	1.0189e+02	-0.7973	-1.566409	0.000780	7.804775	2.644329	-0.000312
1026	1.0199e+02	-0.8390	-1.909565	0.000862	8.615661	2.919065	-0.000345
1027	1.0209e+02	-0.8759	-2.256759	0.000872	8.717021	2.953407	-0.000349
1028	1.0219e+02	-0.9112	-2.579730	0.000811	8.108857	2.747355	-0.000325
1029	1.0229e+02	-0.9545	-2.934998	0.000892	8.919743	3.022091	-0.000357
1030	1.0239e+02	-0.9850	-3.249894	0.000791	7.906136	2.678671	-0.000316
1031	1.0248e+02	-1.0283	-3.621311	0.000933	9.325186	3.159458	-0.000373
1032	1.0258e+02	-1.0732	-3.924096	0.000760	7.602054	2.575645	-0.000304
1033	1.0268e+02	-1.1149	-4.267252	0.000862	8.615661	2.919065	-0.000345
1034	1.0278e+02	-1.1567	-4.626558	0.000902	9.021104	3.056433	-0.000361
1035	1.0288e+02	-1.1919	-4.949528	0.000811	8.108857	2.747355	-0.000325
1036	1.0298e+02	-1.2240	-5.276536	0.000821	8.210218	2.781697	-0.000329
1037	1.0308e+02	-1.2786	-5.623730	0.000872	8.717021	2.953407	-0.000349
1038	1.0318e+02	-1.3107	-5.942664	0.000801	8.007496	2.713013	-0.000321
1039	1.0328e+02	-1.3443	-6.269672	0.000821	8.210218	2.781697	-0.000329
1040	1.0338e+02	-1.3973	-6.649163	0.000953	9.527907	3.228142	-0.000381
1041	1.0348e+02	-1.4326	-6.935799	0.000720	7.196611	2.438278	-0.000288
1042	1.0358e+02	-1.4663	-7.299141	0.000912	9.122464	3.090775	-0.000365
1043	1.0368e+02	-1.5192	-7.622112	0.000811	8.108857	2.747355	-0.000325
1044	1.0378e+02	-1.5497	-7.969306	0.000872	8.717021	2.953407	-0.000349
1045	1.0388e+02	-1.5898	-8.288240	0.000801	8.007496	2.713013	-0.000321
1046	1.0398e+02	-1.6331	-8.607173	0.000801	8.007496	2.713013	-0.000321
1047	1.0408e+02	-1.6700	-8.974553	0.000922	9.223825	3.125117	-0.000369
1048	1.0418e+02	-1.7149	-9.273301	0.000750	7.500693	2.541304	-0.000300
1049	1.0428e+02	-1.7470	-9.640680	0.000922	9.223825	3.125117	-0.000369
1050	1.0438e+02	-1.7887	-9.963651	0.000811	8.108857	2.747355	-0.000325
1051	1.0447e+02	-1.8320	-10.306808	0.000862	8.615661	2.919065	-0.000345
1052	1.0457e+02	-1.8673	-10.666113	0.000902	9.021104	3.056433	-0.000361
1053	1.0467e+02	-1.9042	-11.017343	0.000882	8.818382	2.987749	-0.000353
1054	1.0477e+02	-1.9540	-11.312054	0.000740	7.399332	2.506962	-0.000296
1055	1.0487e+02	-1.9780	-11.671359	0.000902	9.021104	3.056433	-0.000361
1056	1.0497e+02	-2.0310	-11.994330	0.000811	8.108857	2.747355	-0.000325
1057	1.0507e+02	-2.0695	-12.329413	0.000841	8.412939	2.850381	-0.000337
1058	1.0517e+02	-2.1048	-12.624123	0.000740	7.399332	2.506962	-0.000296
1059	1.0527e+02	-2.1481	-12.987466	0.000912	9.122464	3.090775	-0.000365
1060	1.0537e+02	-2.1930	-13.350808	0.000912	9.122464	3.090775	-0.000365
1061	1.0547e+02	-2.2251	-13.669742	0.000801	8.007496	2.713013	-0.000321
1062	1.0557e+02	-2.2668	-14.004824	0.000841	8.412939	2.850381	-0.000337
1063	1.0567e+02	-2.3117	-14.291461	0.000720	7.196611	2.438278	-0.000288
1064	1.0577e+02	-2.3422	-14.658840	0.000922	9.223825	3.125117	-0.000369
1065	1.0587e+02	-2.3871	-15.001996	0.000862	8.615661	2.919065	-0.000345
1066	1.0597e+02	-2.4288	-15.381487	0.000953	9.527907	3.228142	-0.000381
1067	1.0607e+02	-2.4657	-15.664087	0.000710	7.095250	2.403936	-0.000284
1068	1.0617e+02	-2.5074	-16.023392	0.000902	9.021104	3.056433	-0.000361
1069	1.0627e+02	-2.5491	-16.350400	0.000821	8.210218	2.781697	-0.000329
1070	1.0637e+02	-2.5844	-16.693556	0.000862	8.615661	2.919065	-0.000345
1071	1.0647e+02	-2.6165	-16.996341	0.000760	7.602054	2.575645	-0.000304
1072	1.0656e+02	-2.6646	-17.363721	0.000922	9.223825	3.125117	-0.000369
1073	1.0666e+02	-2.7095	-17.706877	0.000862	8.615661	2.919065	-0.000345
1074	1.0676e+02	-2.7416	-17.941031	0.000588	5.878921	1.991833	-0.000235
1075	1.0686e+02	-2.7866	-18.296299	0.000892	8.919743	3.022091	-0.000357
1076	1.0696e+02	-2.8251	-18.619270	0.000811	8.108857	2.747355	-0.000325
1077	1.0706e+02	-2.8716	-18.990687	0.000933	9.325186	3.159458	-0.000373
1078	1.0716e+02	-2.9069	-19.317695	0.000821	8.210218	2.781697	-0.000329
1079	1.0726e+02	-2.9502	-19.660851	0.000862	8.615661	2.919065	-0.000345
1080	1.0736e+02	-2.9839	-19.959599	0.000750	7.500693	2.541304	-0.000300
1081	1.0746e+02	-3.0176	-20.318904	0.000902	9.021104	3.056433	-0.000361
1082	1.0756e+02	-3.0577	-20.633801	0.000791	7.906136	2.678671	-0.000316
1083	1.0766e+02	-3.1042	-21.013292	0.000953	9.527907	3.228142	-0.000381
1084	1.0776e+02	-3.1491	-21.299928	0.000720	7.196611	2.438278	-0.000288
1085	1.0786e+02	-3.1892	-21.659233	0.000902	9.021104	3.056433	-0.000361
1086	1.0796e+02	-3.2229	-21.953944	0.000740	7.399332	2.506962	-0.000296
1087	1.0806e+02	-3.2678	-22.317286	0.000912	9.122464	3.090775	-0.000365
1088	1.0816e+02	-3.3095	-22.656406	0.000851	8.514300	2.884723	-0.000341
1089	1.0826e+02	-3.3496	-22.987451	0.000831	8.311579	2.816039	-0.000333
1090	1.0836e+02	-3.3721	-23.318496	0.000831	8.311579	2.816039	-0.000333
1091	1.0845e+02	-3.4138	-23.649541	0.000831	8.311579	2.816039	-0.000333
1092	1.0855e+02	-3.4603	-23.980586	0.000831	8.311579	2.816039	-0.000333
1093	1.0865e+02	-3.5052	-24.287409	0.000770	7.703414	2.609987	-0.000308
1094	1.0875e+02	-3.5389	-24.614417	0.000821	8.210218	2.781697	-0.000329
1095	1.0885e+02	-3.5839	-24.985833	0.000933	9.325186	3.159458	-0.000373
1096	1.0895e+02	-3.6208	-25.328990	0.000862	8.615661	2.919065	-0.000345
1097	1.0905e+02	-3.6625	-25.643886	0.000791	7.906136	2.678671	-0.000316
1098	1.0915e+02	-3.6994	-25.974931	0.000831	8.311579	2.816039	-0.000333
1099	1.0925e+02	-3.7443	-26.326162	0.000882	8.818382	2.987749	-0.000353
1100	1.0935e+02	-3.7780	-26.653170	0.000821	8.210218	2.781697	-0.000329
1101	1.0945e+02	-3.8245	-26.992290	0.000851	8.514300	2.884723	-0.000341
1102	1.0955e+02	-3.8566	-27.315260	0.000811	8.108857	2.747355	-0.000325
1103	1.0965e+02	-3.9015	-27.662454	0.000872	8.717021	2.953407	-0.000349
1104	1.0975e+02	-3.9368	-28.033871	0.000933	9.325186	3.159458	-0.000373
1105	1.0985e+02	-3.9833	-28.320507	0.000720	7.196611	2.438278	-0.000288
1106	1.0995e+02	-4.0202	-28.708072	0.000973	9.730629	3.296826	-0.000390
1107	1.1005e+02	-4.0715	-29.014895	0.000770	7.703414	2.609987	-0.000308
1108	1.1015e+02	-4.0988	-29.370162	0.000892	8.919743	3.022091	-0.000357
1109	1.1025e+02	-4.1453	-29.636613	0.000669	6.689807	2.266568	-0.000268
1110	1.1035e+02	-4.1790	-29.951510	0.000791	7.906136	2.678671	-0.000316
1111	1.1044e+02	-4.2159	-30.302741	0.000882	8.818382	2.987749	-0.000353
1112	1.1054e+02	-4.2657	-30.645897	0.000862	8.615661	2.919065	-0.000345
1113	1.1064e+02	-4.2945	-30.980980	0.000841	8.412939	2.850381	-0.000337
1114	1.1074e+02	-4.3459	-31.303951	0.000811	8.108857	2.747355	-0.000325
1115	1.1084e+02	-4.3796	-31.618847	0.000791	7.906136	2.678671	-0.000316
1116	1.1094e+02	-4.4052	-31.957967	0.000851	8.514300	2.884723	-0.000341
1117	1.1104e+02	-4.4598	-32.284974	0.000821	8.210218	2.781697	-0.000329
1118	1.1114e+02	-4.5063	-32.644280	0.000902	9.021104	3.056433	-0.000361
1119	1.1124e+02	-4.5464	-32.987436	0.000862	8.615661	2.919065	-0.000345
1120	1.1134e+02	-4.5769	-33.306370	0.000801	8.007496	2.713013	-0.000321
1121	1.1144e+02	-4.6122	-33.621266	0.000791	7.906136	2.678671	-0.000316
1122	1.1154e+02	-4.6683	-33.968460	0.000872	8.717021	2.953407	-0.000349
1123	1.1164e+02	-4.7004	-34.283357	0.000791	7.906136	2.678671	-0.000316
1124	1.1174e+02	-4.7309	-34.610365	0.000821	8.210218	2.781697	-0.000329
1125	1.1184e+02	-4.7758	-34.925261	0.000791	7.906136	2.678671	-0.000316
1126	1.1194e+02	-4.8111	-35.268418	0.000862	8.615661	2.919065	-0.000345
1127	1.1204e+02	-4.8576	-35.579277	0.000780	7.804775	2.644329	-0.000312
1128	1.1214e+02	-4.8945	-35.922434	0.000862	8.615661	2.919065	-0.000345
1129	1.1224e+02	-4.9394	-36.217145	0.000740	7.399332	2.506962	-0.000296
1130	1.1234e+02	-4.9827	-36.580487	0.000912	9.122464	3.090775	-0.000365
1131	1.1244e+02	-5.0180	-36.923643	0.000862	8.615661	2.919065	-0.000345
1132	1.1253e+02	-5.0598	-37.246614	0.000811	8.108857	2.747355	-0.000325
1133	1.1263e+02	-5.0999	-37.549399	0.000760	7.602054	2.575645	-0.000304
1134	1.1273e+02	-5.1351	-37.924853	0.000943	9.426546	3.193800	-0.000377
1135	1.1283e+02	-5.1737	-38.207453	0.000710	7.095250	2.403936	-0.000284
1136	1.1293e+02	-5.2138	-38.546572	0.000851	8.514300	2.884723	-0.000341
1137	1.1303e+02	-5.2490	-38.901840	0.000892	8.919743	3.022091	-0.000357
1138	1.1313e+02	-5.3020	-39.204625	0.000760	7.602054	2.575645	-0.000304
1139	1.1323e+02	-5.3341	-39.527596	0.000811	8.108857	2.747355	-0.000325
1140	1.1333e+02	-5.3822	-39.882864	0.000892	8.919743	3.022091	-0.000357
1141	1.1343e+02	-5.4159	-40.201798	0.000801	8.007496	2.713013	-0.000321
1142	1.1353e+02	-5.4656	-40.528806	0.000821	8.210218	2.781697	-0.000329
1143	1.1363e+02	-5.5073	-40.859851	0.000831	8.311579	2.816039	-0.000333
1144	1.1373e+02	-5.5362	-41.186859	0.000821	8.210218	2.781697	-0.000329
1145	1.1383e+02	-5.5747	-41.477533	0.000730	7.297971	2.472620	-0.000292
1146	1.1393e+02	-5.6100	-41.788392	0.000780	7.804775	2.644329	-0.000312
1147	1.1403e+02	-5.6613	-42.095214	0.000770	7.703414	2.609987	-0.000308
1148	1.1413e+02	-5.6902	-42.450482	0.000892	8.919743	3.022091	-0.000357
1149	1.1423e+02	-5.7383	-42.785565	0.000841	8.412939	2.850381	-0.000337
1150	1.1433e+02	-5.7720	-43.144870	0.000902	9.021104	3.056433	-0.000361
1151	1.1442e+02	-5.8105	-43.439581	0.000740	7.399332	2.506962	-0.000296
1152	1.1452e+02	-5.8538	-43.790811	0.000882	8.818382	2.987749	-0.000353
1153	1.1462e+02	-5.8875	-44.097634	0.000770	7.703414	2.609987	-0.000308
1154	1.1472e+02	-5.9260	-44.493273	0.000993	9.933350	3.365510	-0.000398
1155	1.1482e+02	-5.9806	-44.779910	0.000720	7.196611	2.438278	-0.000288
1156	1.1492e+02	-6.0127	-45.123066	0.000862	8.615661	2.919065	-0.000345
1157	1.1502e+02	-6.0480	-45.425851	0.000760	7.602054	2.575645	-0.000304
1158	1.1512e+02	-6.0977	-45.781119	0.000892	8.919743	3.022091	-0.000357
1159	1.1522e+02	-6.1314	-46.075830	0.000740	7.399332	2.506962	-0.000296
1160	1.1532e+02	-6.1715	-46.414950	0.000851	8.514300	2.884723	-0.000341
1161	1.1542e+02	-6.2196	-46.717735	0.000760	7.602054	2.575645	-0.000304
1162	1.1552e+02	-6.2517	-47.040706	0.000811	8.108857	2.747355	-0.000325
1163	1.1562e+02	-6.2934	-47.359639	0.000801	8.007496	2.713013	-0.000321
1164	1.1572e+02	-6.3399	-47.662425	0.000760	7.602054	2.575645	-0.000304
1165	1.1582e+02	-6.3688	-47.953098	0.000730	7.297971	2.472620	-0.000292
1166	1.1592e+02	-6.4105	-48.312403	0.000902	9.021104	3.056433	-0.000361
1167	1.1602e+02	-6.4554	-48.635374	0.000811	8.108857	2.747355	-0.000325
1168	1.1612e+02	-6.4955	-48.966419	0.000831	8.311579	2.816039	-0.000333
1169	1.1622e+02	-6.5228	-49.305539	0.000851	8.514300	2.884723	-0.000341
1170	1.1632e+02	-6.5661	-49.640621	0.000841	8.412939	2.850381	-0.000337
1171	1.1642e+02	-6.5966	-49.931295	0.000730	7.297971	2.472620	-0.000292
1172	1.1651e+02	-6.6592	-50.286563	0.000892	8.919743	3.022091	-0.000357
1173	1.1661e+02	-6.6800	-50.573199	0.000720	7.196611	2.438278	-0.000288
1174	1.1671e+02	-6.7265	-50.896170	0.000811	8.108857	2.747355	-0.000325
1175	1.1681e+02	-6.7634	-51.219141	0.000811	8.108857	2.747355	-0.000325
1176	1.1691e+02	-6.8052	-51.501741	0.000710	7.095250	2.403936	-0.000284
1177	1.1701e+02	-6.8485	-51.897380	0.000993	9.933350	3.365510	-0.000398
1178	1.1711e+02	-6.8870	-52.192091	0.000740	7.399332	2.506962	-0.000296
1179	1.1721e+02	-6.9271	-52.486802	0.000740	7.399332	2.506962	-0.000296
1180	1.1731e+02	-6.9608	-52.793624	0.000770	7.703414	2.609987	-0.000308
1181	1.1741e+02	-7.0089	-53.100446	0.000770	7.703414	2.609987	-0.000308
1182	1.1751e+02	-7.0490	-53.415343	0.000791	7.906136	2.678671	-0.000316
1183	1.1761e+02	-7.0875	-53.742351	0.000821	8.210218	2.781697	-0.000329
1184	1.1771e+02	-7.1276	-54.081470	0.000851	8.514300	2.884723	-0.000341
1185	1.1781e+02	-7.1677	-54.380218	0.000750	7.500693	2.541304	-0.000300
1186	1.1791e+02	-7.2062	-54.719338	0.000851	8.514300	2.884723	-0.000341
1187	1.1801e+02	-7.2399	-55.014049	0.000740	7.399332	2.506962	-0.000296
1188	1.1811e+02	-7.2832	-55.357205	0.000862	8.615661	2.919065	-0.000345
1189	1.1821e+02	-7.3185	-55.647879	0.000730	7.297971	2.472620	-0.000292
1190	1.1831e+02	-7.3682	-55.986998	0.000851	8.514300	2.884723	-0.000341
1191	1.1841e+02	-7.4019	-56.322081	0.000841	8.412939	2.850381	-0.000337
1192	1.1850e+02	-7.4340	-56.620829	0.000750	7.500693	2.541304	-0.000300
1193	1.1860e+02	-7.4902	-56.899391	0.000699	6.993889	2.369594	-0.000280
1194	1.1870e+02	-7.5303	-57.311179	0.001034	10.338793	3.502878	-0.000414
1195	1.1880e+02	-7.5672	-57.561481	0.000628	6.284364	2.129200	-0.000252
1196	1.1890e+02	-7.6057	-57.908675	0.000872	8.717021	2.953407	-0.000349
1197	1.1900e+02	-7.6426	-58.215497	0.000770	7.703414	2.609987	-0.000308
1198	1.1910e+02	-7.6859	-58.506171	0.000730	7.297971	2.472620	-0.000292
1199	1.1920e+02	-7.7212	-58.841253	0.000841	8.412939	2.850381	-0.000337
1200	1.1930e+02	-7.7677	-59.148076	0.000770	7.703414	2.609987	-0.000308
1201	1.1940e+02	-7.8030	-59.446824	0.000750	7.500693	2.541304	-0.000300
1202	1.1950e+02	-7.8383	-59.753646	0.000770	7.703414	2.609987	-0.000308
1203	1.1960e+02	-7.8784	-60.100840	0.000872	8.717021	2.953407	-0.000349
1204	1.1970e+02	-7.9249	-60.415736	0.000791	7.906136	2.678671	-0.000316
1205	1.1980e+02	-7.9650	-60.746781	0.000831	8.311579	2.816039	-0.000333
1206	1.1990e+02	-8.0051	-61.033418	0.000720	7.196611	2.438278	-0.000288
1207	1.2000e+02	-8.0420	-61.388686	0.000892	8.919743	3.022091	-0.000357
1208	1.2010e+02	-8.0805	-61.703583	0.000791	7.906136	2.678671	-0.000316
1209	1.2020e+02	-8.1190	-62.010405	0.000770	7.703414	2.609987	-0.000308
1210	1.2030e+02	-8.1639	-62.313190	0.000760	7.602054	2.575645	-0.000304
1211	1.2039e+02	-8.2040	-62.595790	0.000710	7.095250	2.403936	-0.000284
1212	1.2049e+02	-8.2425	-63.003540	0.001024	10.237432	3.468536	-0.000410
1213	1.2059e+02	-8.2923	-63.257880	0.000639	6.385725	2.163542	-0.000256
1214	1.2069e+02	-8.3131	-63.580851	0.000811	8.108857	2.747355	-0.000325
1215	1.2079e+02	-8.3629	-63.928044	0.000872	8.717021	2.953407	-0.000349
1216	1.2089e+02	-8.3950	-64.210644	0.000710	7.095250	2.403936	-0.000284
1217	1.2099e+02	-8.4383	-64.505355	0.000740	7.399332	2.506962	-0.000296
1218	1.2109e+02	-8.4752	-64.783917	0.000699	6.993889	2.369594	-0.000280
1219	1.2119e+02	-8.5265	-65.118999	0.000841	8.412939	2.850381	-0.000337
1220	1.2129e+02	-8.5490	-65.454082	0.000841	8.412939	2.850381	-0.000337
1221	1.2139e+02	-8.5971	-65.716496	0.000659	6.588446	2.232226	-0.000264
1222	1.2149e+02	-8.6388	-66.039466	0.000811	8.108857	2.747355	-0.000325
1223	1.2159e+02	-8.6789	-66.366474	0.000821	8.210218	2.781697	-0.000329
1224	1.2169e+02	-8.7254	-66.705594	0.000851	8.514300	2.884723	-0.000341
1225	1.2179e+02	-8.7607	-66.996268	0.000730	7.297971	2.472620	-0.000292
1226	1.2189e+02	-8.7976	-67.323276	0.000821	8.210218	2.781697	-0.000329
1227	1.2199e+02	-8.8329	-67.626061	0.000760	7.602054	2.575645	-0.000304
1228	1.2209e+02	-8.8842	-67.981329	0.000892	8.919743	3.022091	-0.000357
1229	1.2219e+02	-8.9243	-68.276040	0.000740	7.399332	2.506962	-0.000296
1230	1.2229e+02	-8.9628	-68.554602	0.000699	6.993889	2.369594	-0.000280
1231	1.2239e+02	-8.9981	-68.889684	0.000841	8.412939	2.850381	-0.000337
1232	1.2248e+02	-9.0270	-69.216692	0.000821	8.210218	2.781697	-0.000329
1233	1.2258e+02	-9.0848	-69.531589	0.000791	7.906136	2.678671	-0.000316
1234	1.2268e+02	-9.1169	-69.802077	0.000679	6.791168	2.300910	-0.000272
1235	1.2278e+02	-9.1570	-70.161382	0.000902	9.021104	3.056433	-0.000361
1236	1.2288e+02	-9.2019	-70.435907	0.000689	6.892529	2.335252	-0.000276
1237	1.2298e+02	-9.2372	-70.754841	0.000801	8.007496	2.713013	-0.000321
1238	1.2308e+02	-9.2773	-71.049552	0.000740	7.399332	2.506962	-0.000296
1239	1.2318e+02	-9.3206	-71.360411	0.000780	7.804775	2.644329	-0.000312
1240	1.2328e+02	-9.3527	-71.663196	0.000760	7.602054	2.575645	-0.000304
1241	1.2338e+02	-9.3960	-71.941759	0.000699	6.993889	2.369594	-0.000280
1242	1.2348e+02	-9.4441	-72.305101	0.000912	9.122464	3.090775	-0.000365
1243	1.2358e+02	-9.4874	-72.619998	0.000791	7.906136	2.678671	-0.000316
1244	1.2368e+02	-9.5131	-72.858189	0.000598	5.980282	2.026174	-0.000239
1245	1.2378e+02	-9.5612	-73.261902	0.001014	10.136071	3.434194	-0.000406
1246	1.2388e+02	-9.5901	-73.548539	0.000720	7.196611	2.438278	-0.000288
1247	1.2398e+02	-9.6382	-73.839213	0.000730	7.297971	2.472620	-0.000292
1248	1.2408e+02	-9.6864	-74.101626	0.000659	6.588446	2.232226	-0.000264
1249	1.2418e+02	-9.7233	-74.485154	0.000963	9.629268	3.262484	-0.000385
1250	1.2428e+02	-9.7505	-74.751605	0.000669	6.689807	2.266568	-0.000268
1251	1.2438e+02	-9.7938	-75.066502	0.000791	7.906136	2.678671	-0.000316
1252	1.2447e+02	-9.8291	-75.373324	0.000770	7.703414	2.609987	-0.000308
1253	1.2457e+02	-9.8741	-75.676109	0.000760	7.602054	2.575645	-0.000304
1254	1.2467e+02	-9.9126	-75.974857	0.000750	7.500693	2.541304	-0.000300
1255	1.2477e+02	-9.9527	-76.265531	0.000730	7.297971	2.472620	-0.000292
1256	1.2487e+02	-9.9976	-76.552168	0.000720	7.196611	2.438278	-0.000288
1257	1.2497e+02	-10.0377	-76.883213	0.000831	8.311579	2.816039	-0.000333
1258	1.2507e+02	-10.0714	-77.202147	0.000801	8.007496	2.713013	-0.000321
1259	1.2517e+02	-10.1099	-77.476672	0.000689	6.892529	2.335252	-0.000276
1260	1.2527e+02	-10.1548	-77.852126	0.000943	9.426546	3.193800	-0.000377
1261	1.2537e+02	-10.1917	-78.086279	0.000588	5.878921	1.991833	-0.000235
1262	1.2547e+02	-10.2270	-78.461733	0.000943	9.426546	3.193800	-0.000377
1263	1.2557e+02	-10.2751	-78.756444	0.000740	7.399332	2.506962	-0.000296
1264	1.2567e+02	-10.3168	-79.091526	0.000841	8.412939	2.850381	-0.000337
1265	1.2577e+02	-10.3537	-79.406423	0.000791	7.906136	2.678671	-0.000316
1266	1.2587e+02	-10.3922	-79.697097	0.000730	7.297971	2.472620	-0.000292
1267	1.2597e+02	-10.4275	-80.028142	0.000831	8.311579	2.816039	-0.000333
1268	1.2607e+02	-10.4708	-80.298630	0.000679	6.791168	2.300910	-0.000272
1269	1.2617e+02	-10.5141	-80.653898	0.000892	8.919743	3.022091	-0.000357
1270	1.2627e+02	-10.5559	-80.932460	0.000699	6.993889	2.369594	-0.000280
1271	1.2636e+02	-10.5911	-81.211023	0.000699	6.993889	2.369594	-0.000280
1272	1.2646e+02	-10.6329	-81.493622	0.000710	7.095250	2.403936	-0.000284
1273	1.2656e+02	-10.6810	-81.820630	0.000821	8.210218	2.781697	-0.000329
1274	1.2666e+02	-10.7115	-82.070932	0.000628	6.284364	2.129200	-0.000252
1275	1.2676e+02	-10.7580	-82.450423	0.000953	9.527907	3.228142	-0.000381
1276	1.2686e+02	-10.7820	-82.728986	0.000699	6.993889	2.369594	-0.000280
1277	1.2696e+02	-10.8334	-83.035808	0.000770	7.703414	2.609987	-0.000308
1278	1.2706e+02	-10.8783	-83.378964	0.000862	8.615661	2.919065	-0.000345
1279	1.2716e+02	-10.9104	-83.661564	0.000710	7.095250	2.403936	-0.000284
1280	1.2726e+02	-10.9569	-83.952238	0.000730	7.297971	2.472620	-0.000292
1281	1.2736e+02	-10.9954	-84.242911	0.000730	7.297971	2.472620	-0.000292
1282	1.2746e+02	-11.0355	-84.577994	0.000841	8.412939	2.850381	-0.000337
1283	1.2756e+02	-11.0772	-84.892890	0.000791	7.906136	2.678671	-0.000316
1284	1.2766e+02	-11.1077	-85.195675	0.000760	7.602054	2.575645	-0.000304
1285	1.2776e+02	-11.1494	-85.482312	0.000720	7.196611	2.438278	-0.000288
1286	1.2786e+02	-11.1863	-85.825469	0.000862	8.615661	2.919065	-0.000345
1287	1.2796e+02	-11.2296	-86.112105	0.000720	7.196611	2.438278	-0.000288
1288	1.2806e+02	-11.2745	-86.390668	0.000699	6.993889	2.369594	-0.000280
1289	1.2816e+02	-11.3227	-86.689416	0.000750	7.500693	2.541304	-0.000300
1290	1.2826e+02	-11.3548	-87.000275	0.000780	7.804775	2.644329	-0.000312
1291	1.2835e+02	-11.3884	-87.286912	0.000720	7.196611	2.438278	-0.000288
1292	1.2845e+02	-11.4253	-87.553363	0.000669	6.689807	2.266568	-0.000268
1293	1.2855e+02	-11.4847	-87.839999	0.000720	7.196611	2.438278	-0.000288
1294	1.2865e+02	-11.5136	-88.187193	0.000872	8.717021	2.953407	-0.000349
1295	1.2875e+02	-11.5425	-88.477867	0.000730	7.297971	2.472620	-0.000292
1296	1.2885e+02	-11.5842	-88.772578	0.000740	7.399332	2.506962	-0.000296
1297	1.2895e+02	-11.6275	-89.067289	0.000740	7.399332	2.506962	-0.000296
1298	1.2905e+02	-11.6692	-89.366037	0.000750	7.500693	2.541304	-0.000300
1299	1.2915e+02	-11.7061	-89.676896	0.000780	7.804775	2.644329	-0.000312
1300	1.2925e+02	-11.7366	-89.995830	0.000801	8.007496	2.713013	-0.000321
1301	1.2935e+02	-11.7959	-90.314764	0.000801	8.007496	2.713013	-0.000321
1302	1.2945e+02	-11.8360	-90.613512	0.000750	7.500693	2.541304	-0.000300
1303	1.2955e+02	-11.8681	-90.924371	0.000780	7.804775	2.644329	-0.000312
1304	1.2965e+02	-11.9130	-91.174674	0.000628	6.284364	2.129200	-0.000252
1305	1.2975e+02	-11.9499	-91.485533	0.000780	7.804775	2.644329	-0.000312
1306	1.2985e+02	-11.9884	-91.796392	0.000780	7.804775	2.644329	-0.000312
1307	1.2995e+02	-12.0301	-92.103215	0.000770	7.703414	2.609987	-0.000308
1308	1.3005e+02	-12.0670	-92.418111	0.000791	7.906136	2.678671	-0.000316
1309	1.3015e+02	-12.1168	-92.684562	0.000669	6.689807	2.266568	-0.000268
1310	1.3025e+02	-12.1473	-92.971199	0.000720	7.196611	2.438278	-0.000288
1311	1.3034e+02	-12.1890	-93.237650	0.000669	6.689807	2.266568	-0.000268
1312	1.3044e+02	-12.2226	-93.568695	0.000831	8.311579	2.816039	-0.000333
1313	1.3054e+02	-12.2804	-93.875517	0.000770	7.703414	2.609987	-0.000308
1314	1.3064e+02	-12.3093	-94.137931	0.000659	6.588446	2.232226	-0.000264
1315	1.3074e+02	-12.3462	-94.460902	0.000811	8.108857	2.747355	-0.000325
1316	1.3084e+02	-12.3831	-94.747539	0.000720	7.196611	2.438278	-0.000288
1317	1.3094e+02	-12.4280	-95.042250	0.000740	7.399332	2.506962	-0.000296
1318	1.3104e+02	-12.4537	-95.377332	0.000841	8.412939	2.850381	-0.000337
1319	1.3114e+02	-12.5066	-95.659931	0.000710	7.095250	2.403936	-0.000284
1320	1.3124e+02	-12.5467	-95.962716	0.000760	7.602054	2.575645	-0.000304
1321	1.3134e+02	-12.5836	-96.273576	0.000780	7.804775	2.644329	-0.000312
1322	1.3144e+02	-12.6205	-96.584435	0.000780	7.804775	2.644329	-0.000312
1323	1.3154e+02	-12.6638	-96.879146	0.000740	7.399332	2.506962	-0.000296
1324	1.3164e+02	-12.7055	-97.173857	0.000740	7.399332	2.506962	-0.000296
1325	1.3174e+02	-12.7376	-97.488754	0.000791	7.906136	2.678671	-0.000316
1326	1.3184e+02	-12.7793	-97.775390	0.000720	7.196611	2.438278	-0.000288
1327	1.3194e+02	-12.8178	-98.053953	0.000699	6.993889	2.369594	-0.000280
1328	1.3204e+02	-12.8643	-98.316367	0.000659	6.588446	2.232226	-0.000264
1329	1.3214e+02	-12.8996	-98.611078	0.000740	7.399332	2.506962	-0.000296
1330	1.3224e+02	-12.9462	-98.909826	0.000750	7.500693	2.541304	-0.000300
1331	1.3234e+02	-12.9831	-99.240871	0.000831	8.311579	2.816039	-0.000333
1332	1.3243e+02	-13.0183	-99.487136	0.000618	6.183004	2.094858	-0.000248
1333	1.3253e+02	-13.0617	-99.789921	0.000760	7.602054	2.575645	-0.000304
1334	1.3263e+02	-13.1082	-100.104818	0.000791	7.906136	2.678671	-0.000316
1335	1.3273e+02	-13.1451	-100.387417	0.000710	7.095250	2.403936	-0.000284
1336	1.3283e+02	-13.1740	-100.690202	0.000760	7.602054	2.575645	-0.000304
1337	1.3293e+02	-13.2317	-101.033359	0.000862	8.615661	2.919065	-0.000345
1338	1.3303e+02	-13.2654	-101.271550	0.000598	5.980282	2.026174	-0.000239
1339	1.3313e+02	-13.3055	-101.566261	0.000740	7.399332	2.506962	-0.000296
1340	1.3323e+02	-13.3424	-101.901343	0.000841	8.412939	2.850381	-0.000337
1341	1.3333e+02	-13.3793	-102.175868	0.000689	6.892529	2.335252	-0.000276
1342	1.3343e+02	-13.4194	-102.442319	0.000669	6.689807	2.266568	-0.000268
1343	1.3353e+02	-13.4595	-102.724919	0.000710	7.095250	2.403936	-0.000284
1344	1.3363e+02	-13.4996	-103.047890	0.000811	8.108857	2.747355	-0.000325
1345	1.3373e+02	-13.5397	-103.342601	0.000740	7.399332	2.506962	-0.000296
1346	1.3383e+02	-13.5782	-103.617126	0.000689	6.892529	2.335252	-0.000276
1347	1.3393e+02	-13.6215	-103.907800	0.000730	7.297971	2.472620	-0.000292
1348	1.3403e+02	-13.6552	-104.178288	0.000679	6.791168	2.300910	-0.000272
1349	1.3413e+02	-13.6921	-104.448776	0.000679	6.791168	2.300910	-0.000272
1350	1.3423e+02	-13.7386	-104.719264	0.000679	6.791168	2.300910	-0.000272
1351	1.3432e+02	-13.7852	-105.026086	0.000770	7.703414	2.609987	-0.000308
1352	1.3442e+02	-13.8108	-105.288500	0.000659	6.588446	2.232226	-0.000264
1353	1.3452e+02	-13.8542	-105.579174	0.000730	7.297971	2.472620	-0.000292
1354	1.3462e+02	-13.8943	-105.877922	0.000750	7.500693	2.541304	-0.000300
1355	1.3472e+02	-13.9376	-106.196856	0.000801	8.007496	2.713013	-0.000321
1356	1.3482e+02	-13.9761	-106.491566	0.000740	7.399332	2.506962	-0.000296
1357	1.3492e+02	-14.0162	-106.798389	0.000770	7.703414	2.609987	-0.000308
1358	1.3502e+02	-14.0643	-107.052728	0.000639	6.385725	2.163542	-0.000256
1359	1.3512e+02	-14.1060	-107.351476	0.000750	7.500693	2.541304	-0.000300
1360	1.3522e+02	-14.1333	-107.690596	0.000851	8.514300	2.884723	-0.000341
1361	1.3532e+02	-14.1782	-107.928787	0.000598	5.980282	2.026174	-0.000239
1362	1.3542e+02	-14.2183	-108.199275	0.000679	6.791168	2.300910	-0.000272
1363	1.3552e+02	-14.2632	-108.493986	0.000740	7.399332	2.506962	-0.000296
1364	1.3562e+02	-14.3017	-108.837142	0.000862	8.615661	2.919065	-0.000345
1365	1.3572e+02	-14.3418	-109.127816	0.000730	7.297971	2.472620	-0.000292
1366	1.3582e+02	-14.3723	-109.349859	0.000557	5.574839	1.888807	-0.000223
1367	1.3592e+02	-14.4204	-109.620347	0.000679	6.791168	2.300910	-0.000272
1368	1.3602e+02	-14.4557	-109.959466	0.000851	8.514300	2.884723	-0.000341
1369	1.3612e+02	-14.4894	-110.193620	0.000588	5.878921	1.991833	-0.000235
1370	1.3622e+02	-14.5408	-110.512554	0.000801	8.007496	2.713013	-0.000321
1371	1.3631e+02	-14.5712	-110.823413	0.000780	7.804775	2.644329	-0.000312
1372	1.3641e+02	-14.6210	-111.069678	0.000618	6.183004	2.094858	-0.000248
1373	1.3651e+02	-14.6595	-111.368426	0.000750	7.500693	2.541304	-0.000300
1374	1.3661e+02	-14.7108	-111.671212	0.000760	7.602054	2.575645	-0.000304
1375	1.3671e+02	-14.7397	-111.929588	0.000649	6.487086	2.197884	-0.000260
1376	1.3681e+02	-14.7718	-112.228336	0.000750	7.500693	2.541304	-0.000300
1377	1.3691e+02	-14.8135	-112.543233	0.000791	7.906136	2.678671	-0.000316
1378	1.3701e+02	-14.8520	-112.817758	0.000689	6.892529	2.335252	-0.000276
1379	1.3711e+02	-14.9001	-113.072098	0.000639	6.385725	2.163542	-0.000256
1380	1.3721e+02	-14.9322	-113.362772	0.000730	7.297971	2.472620	-0.000292
1381	1.3731e+02	-14.9755	-113.697854	0.000841	8.412939	2.850381	-0.000337
1382	1.3741e+02	-15.0172	-113.980453	0.000710	7.095250	2.403936	-0.000284
1383	1.3751e+02	-15.0621	-114.246904	0.000669	6.689807	2.266568	-0.000268
1384	1.3761e+02	-15.0910	-114.545652	0.000750	7.500693	2.541304	-0.000300
1385	1.3771e+02	-15.1343	-114.783843	0.000598	5.980282	2.026174	-0.000239
1386	1.3781e+02	-15.1712	-115.086628	0.000760	7.602054	2.575645	-0.000304
1387	1.3791e+02	-15.2113	-115.401525	0.000791	7.906136	2.678671	-0.000316
1388	1.3801e+02	-15.2482	-115.655865	0.000639	6.385725	2.163542	-0.000256
1389	1.3811e+02	-15.2932	-115.958650	0.000760	7.602054	2.575645	-0.000304
1390	1.3821e+02	-15.3333	-116.184729	0.000568	5.676200	1.923149	-0.000227
1391	1.3831e+02	-15.3734	-116.535960	0.000882	8.818382	2.987749	-0.000353
1392	1.3840e+02	-15.4151	-116.810485	0.000689	6.892529	2.335252	-0.000276
1393	1.3850e+02	-15.4536	-117.089048	0.000699	6.993889	2.369594	-0.000280
1394	1.3860e+02	-15.4937	-117.395870	0.000770	7.703414	2.609987	-0.000308
1395	1.3870e+02	-15.5322	-117.650210	0.000639	6.385725	2.163542	-0.000256
1396	1.3880e+02	-15.5739	-117.981255	0.000831	8.311579	2.816039	-0.000333
1397	1.3890e+02	-15.6076	-118.267891	0.000720	7.196611	2.438278	-0.000288
1398	1.3900e+02	-15.6509	-118.518194	0.000628	6.284364	2.129200	-0.000252
1399	1.3910e+02	-15.6830	-118.857313	0.000851	8.514300	2.884723	-0.000341
1400	1.3920e+02	-15.7359	-119.095504	0.000598	5.980282	2.026174	-0.000239
1401	1.3930e+02	-15.7744	-119.386178	0.000730	7.297971	2.472620	-0.000292
1402	1.3940e+02	-15.8033	-119.656666	0.000679	6.791168	2.300910	-0.000272
1403	1.3950e+02	-15.8530	-119.902931	0.000618	6.183004	2.094858	-0.000248
1404	1.3960e+02	-15.8979	-120.197642	0.000740	7.399332	2.506962	-0.000296
1405	1.3970e+02	-15.9348	-120.488316	0.000730	7.297971	2.472620	-0.000292
1406	1.3980e+02	-15.9701	-120.766878	0.000699	6.993889	2.369594	-0.000280
1407	1.3990e+02	-16.0086	-121.049478	0.000710	7.095250	2.403936	-0.000284
1408	1.4000e+02	-16.0487	-121.328040	0.000699	6.993889	2.369594	-0.000280
1409	1.4010e+02	-16.0921	-121.618714	0.000730	7.297971	2.472620	-0.000292
1410	1.4020e+02	-16.1274	-121.889202	0.000679	6.791168	2.300910	-0.000272
1411	1.4029e+02	-16.1642	-122.183913	0.000740	7.399332	2.506962	-0.000296
1412	1.4039e+02	-16.2108	-122.462475	0.000699	6.993889	2.369594	-0.000280
1413	1.4049e+02	-16.2461	-122.741038	0.000699	6.993889	2.369594	-0.000280
1414	1.4059e+02	-16.2878	-123.031712	0.000730	7.297971	2.472620	-0.000292
1415	1.4069e+02	-16.3295	-123.326423	0.000740	7.399332	2.506962	-0.000296
1416	1.4079e+02	-16.3616	-123.580762	0.000639	6.385725	2.163542	-0.000256
1417	1.4089e+02	-16.4097	-123.871436	0.000730	7.297971	2.472620	-0.000292
1418	1.4099e+02	-16.4450	-124.162110	0.000730	7.297971	2.472620	-0.000292
1419	1.4109e+02	-16.4835	-124.416449	0.000639	6.385725	2.163542	-0.000256
1420	1.4119e+02	-16.5252	-124.719234	0.000760	7.602054	2.575645	-0.000304
1421	1.4129e+02	-16.5669	-125.017982	0.000750	7.500693	2.541304	-0.000300
1422	1.4139e+02	-16.6102	-125.256173	0.000598	5.980282	2.026174	-0.000239
1423	1.4149e+02	-16.6455	-125.571070	0.000791	7.906136	2.678671	-0.000316
1424	1.4159e+02	-16.6904	-125.797150	0.000568	5.676200	1.923149	-0.000227
1425	1.4169e+02	-16.7273	-126.079749	0.000710	7.095250	2.403936	-0.000284
1426	1.4179e+02	-16.7626	-126.471351	0.000983	9.831989	3.331168	-0.000394
1427	1.4189e+02	-16.7995	-126.717617	0.000618	6.183004	2.094858	-0.000248
1428	1.4199e+02	-16.8493	-127.028476	0.000780	7.804775	2.644329	-0.000312
1429	1.4209e+02	-16.8765	-127.250518	0.000557	5.574839	1.888807	-0.000223
1430	1.4219e+02	-16.9279	-127.553304	0.000760	7.602054	2.575645	-0.000304
1431	1.4228e+02	-16.9664	-127.827829	0.000689	6.892529	2.335252	-0.000276
1432	1.4238e+02	-17.0033	-128.130614	0.000760	7.602054	2.575645	-0.000304
1433	1.4248e+02	-17.0514	-128.433399	0.000760	7.602054	2.575645	-0.000304
1434	1.4258e+02	-17.0899	-128.724073	0.000730	7.297971	2.472620	-0.000292
1435	1.4268e+02	-17.1348	-129.026858	0.000760	7.602054	2.575645	-0.000304
1436	1.4278e+02	-17.1669	-129.277161	0.000628	6.284364	2.129200	-0.000252
1437	1.4288e+02	-17.1974	-129.596094	0.000801	8.007496	2.713013	-0.000321
1438	1.4298e+02	-17.2439	-129.894842	0.000750	7.500693	2.541304	-0.000300
1439	1.4308e+02	-17.2936	-130.169368	0.000689	6.892529	2.335252	-0.000276
1440	1.4318e+02	-17.3225	-130.403521	0.000588	5.878921	1.991833	-0.000235
1441	1.4328e+02	-17.3722	-130.678047	0.000689	6.892529	2.335252	-0.000276
1442	1.4338e+02	-17.3995	-130.980832	0.000760	7.602054	2.575645	-0.000304
1443	1.4348e+02	-17.4332	-131.283617	0.000760	7.602054	2.575645	-0.000304
1444	1.4358e+02	-17.4813	-131.562179	0.000699	6.993889	2.369594	-0.000280
1445	1.4368e+02	-17.5278	-131.848816	0.000720	7.196611	2.438278	-0.000288
1446	1.4378e+02	-17.5680	-132.143527	0.000740	7.399332	2.506962	-0.000296
1447	1.4388e+02	-17.6081	-132.434201	0.000730	7.297971	2.472620	-0.000292
1448	1.4398e+02	-17.6417	-132.724875	0.000730	7.297971	2.472620	-0.000292
1449	1.4408e+02	-17.6851	-133.027660	0.000760	7.602054	2.575645	-0.000304
1450	1.4418e+02	-17.7188	-133.330445	0.000760	7.602054	2.575645	-0.000304
1451	1.4428e+02	-17.7685	-133.645341	0.000791	7.906136	2.678671	-0.000316
1452	1.4437e+02	-17.8150	-133.911792	0.000669	6.689807	2.266568	-0.000268
1453	1.4447e+02	-17.8375	-134.214578	0.000760	7.602054	2.575645	-0.000304
1454	1.4457e+02	-17.8792	-134.513326	0.000750	7.500693	2.541304	-0.000300
1455	1.4467e+02	-17.9193	-134.824185	0.000780	7.804775	2.644329	-0.000312
1456	1.4477e+02	-17.9626	-135.086599	0.000659	6.588446	2.232226	-0.000264
1457	1.4487e+02	-18.0075	-135.381310	0.000740	7.399332	2.506962	-0.000296
1458	1.4497e+02	-18.0396	-135.663909	0.000710	7.095250	2.403936	-0.000284
1459	1.4507e+02	-18.0733	-135.998992	0.000841	8.412939	2.850381	-0.000337
1460	1.4517e+02	-18.1118	-136.269480	0.000679	6.791168	2.300910	-0.000272
1461	1.4527e+02	-18.1567	-136.584376	0.000791	7.906136	2.678671	-0.000316
1462	1.4537e+02	-18.2096	-136.862939	0.000699	6.993889	2.369594	-0.000280
1463	1.4547e+02	-18.2369	-137.153612	0.000730	7.297971	2.472620	-0.000292
1464	1.4557e+02	-18.2931	-137.464472	0.000780	7.804775	2.644329	-0.000312
1465	1.4567e+02	-18.3155	-137.783406	0.000801	8.007496	2.713013	-0.000321
1466	1.4577e+02	-18.3604	-138.070042	0.000720	7.196611	2.438278	-0.000288
1467	1.4587e+02	-18.4006	-138.380902	0.000780	7.804775	2.644329	-0.000312
1468	1.4597e+02	-18.4455	-138.659464	0.000699	6.993889	2.369594	-0.000280
1469	1.4607e+02	-18.4824	-139.002621	0.000862	8.615661	2.919065	-0.000345
1470	1.4617e+02	-18.5241	-139.289257	0.000720	7.196611	2.438278	-0.000288
1471	1.4626e+02	-18.5642	-139.624339	0.000841	8.412939	2.850381	-0.000337
1472	1.4636e+02	-18.6011	-139.939236	0.000791	7.906136	2.678671	-0.000316
1473	1.4646e+02	-18.6428	-140.229910	0.000730	7.297971	2.472620	-0.000292
1474	1.4656e+02	-18.6877	-140.589215	0.000902	9.021104	3.056433	-0.000361
1475	1.4666e+02	-18.7262	-140.859703	0.000679	6.791168	2.300910	-0.000272
1476	1.4676e+02	-18.7615	-141.110005	0.000628	6.284364	2.129200	-0.000252
1477	1.4686e+02	-18.7984	-141.453162	0.000862	8.615661	2.919065	-0.000345
1478	1.4696e+02	-18.8369	-141.723650	0.000679	6.791168	2.300910	-0.000272
1479	1.4706e+02	-18.8834	-142.054695	0.000831	8.311579	2.816039	-0.000333
1480	1.4716e+02	-18.9203	-142.369592	0.000791	7.906136	2.678671	-0.000316
1481	1.4726e+02	-18.9556	-142.696600	0.000821	8.210218	2.781697	-0.000329
1482	1.4736e+02	-19.0070	-142.991311	0.000740	7.399332	2.506962	-0.000296
1483	1.4746e+02	-19.0438	-143.346579	0.000892	8.919743	3.022091	-0.000357
1484	1.4756e+02	-19.0791	-143.608992	0.000659	6.588446	2.232226	-0.000264
1485	1.4766e+02	-19.1192	-143.948112	0.000851	8.514300	2.884723	-0.000341
1486	1.4776e+02	-19.1545	-144.319528	0.000933	9.325186	3.159458	-0.000373
1487	1.4786e+02	-19.2011	-144.610202	0.000730	7.297971	2.472620	-0.000292
1488	1.4796e+02	-19.2364	-144.953359	0.000862	8.615661	2.919065	-0.000345
1489	1.4806e+02	-19.2765	-145.296515	0.000862	8.615661	2.919065	-0.000345
1490	1.4816e+02	-19.3198	-145.615449	0.000801	8.007496	2.713013	-0.000321
1491	1.4825e+02	-19.3599	-145.881900	0.000669	6.689807	2.266568	-0.000268
1492	1.4835e+02	-19.3936	-146.180648	0.000750	7.500693	2.541304	-0.000300
1493	1.4845e+02	-19.4353	-146.531879	0.000882	8.818382	2.987749	-0.000353
1494	1.4855e+02	-19.4754	-146.854850	0.000811	8.108857	2.747355	-0.000325
1495	1.4865e+02	-19.5235	-147.169746	0.000791	7.906136	2.678671	-0.000316
1496	1.4875e+02	-19.5492	-147.504828	0.000841	8.412939	2.850381	-0.000337
1497	1.4885e+02	-19.6021	-147.868171	0.000912	9.122464	3.090775	-0.000365
1498	1.4895e+02	-19.6294	-148.215364	0.000872	8.717021	2.953407	-0.000349
1499	1.4905e+02	-19.6791	-148.538335	0.000811	8.108857	2.747355	-0.000325
1500	1.4915e+02	-19.7112	-148.893603	0.000892	8.919743	3.022091	-0.000357
1501	1.4925e+02	-19.7593	-149.224648	0.000831	8.311579	2.816039	-0.000333
1502	1.4935e+02	-19.7882	-149.575879	0.000882	8.818382	2.987749	-0.000353
1503	1.4945e+02	-19.8331	-149.935184	0.000902	9.021104	3.056433	-0.000361
1504	1.4955e+02	-19.8732	-150.229895	0.000740	7.399332	2.506962	-0.000296
1505	1.4965e+02	-19.9214	-150.613423	0.000963	9.629268	3.262484	-0.000385
1506	1.4975e+02	-19.9518	-150.972728	0.000902	9.021104	3.056433	-0.000361
1507	1.4985e+02	-19.9984	-151.323959	0.000882	8.818382	2.987749	-0.000353
1508	1.4995e+02	-19.9470	-151.271476	0.000132	1.317689	0.446445	0.000053
1509	1.5005e+02	-19.9101	-151.259365	0.000030	0.304082	0.103026	0.000012
1510	1.5015e+02	-19.8684	-151.170548	0.000223	2.229936	0.755523	0.000089
1511	1.5025e+02	-19.8251	-151.061545	0.000274	2.736739	0.927232	0.000110
1512	1.5034e+02	-19.8026	-151.000988	0.000152	1.520411	0.515129	0.000061
1513	1.5044e+02	-19.7545	-150.908134	0.000233	2.331296	0.789865	0.000093
1514	1.5054e+02	-19.7144	-150.847577	0.000152	1.520411	0.515129	0.000061
1515	1.5064e+02	-19.6711	-150.730500	0.000294	2.939461	0.995916	0.000118
1516	1.5074e+02	-19.6214	-150.609386	0.000304	3.040821	1.030258	0.000122
1517	1.5084e+02	-19.6021	-150.512495	0.000243	2.432657	0.824207	0.000097
1518	1.5094e+02	-19.5524	-150.395418	0.000294	2.939461	0.995916	0.000118
1519	1.5104e+02	-19.5267	-150.294489	0.000253	2.534018	0.858548	0.000101
1520	1.5114e+02	-19.4706	-150.133004	0.000405	4.054429	1.373678	0.000162
1521	1.5124e+02	-19.4417	-150.056298	0.000193	1.925854	0.652497	0.000077
1522	1.5134e+02	-19.3984	-149.910961	0.000365	3.648986	1.236310	0.000146
1523	1.5144e+02	-19.3535	-149.797922	0.000284	2.838100	0.961574	0.000114
1524	1.5154e+02	-19.3118	-149.684882	0.000284	2.838100	0.961574	0.000114
1525	1.5164e+02	-19.2797	-149.587991	0.000243	2.432657	0.824207	0.000097
1526	1.5174e+02	-19.2364	-149.402282	0.000466	4.662593	1.579729	0.000187
1527	1.5184e+02	-19.2011	-149.269057	0.000334	3.344904	1.133284	0.000134
1528	1.5194e+02	-19.1561	-149.115646	0.000385	3.851707	1.304994	0.000154
1529	1.5204e+02	-19.1176	-148.938012	0.000446	4.459871	1.511045	0.000179
1530	1.5214e+02	-19.0791	-148.829009	0.000274	2.736739	0.927232	0.000110
1531	1.5224e+02	-19.0471	-148.643301	0.000466	4.662593	1.579729	0.000187
1532	1.5233e+02	-18.9989	-148.510075	0.000334	3.344904	1.133284	0.000134
1533	1.5243e+02	-18.9556	-148.352627	0.000395	3.953068	1.339336	0.000158
1534	1.5253e+02	-18.9139	-148.187104	0.000416	4.155789	1.408020	0.000166
1535	1.5263e+02	-18.8818	-148.021582	0.000416	4.155789	1.408020	0.000166
1536	1.5273e+02	-18.8401	-147.852022	0.000426	4.257150	1.442361	0.000170
1537	1.5283e+02	-18.8032	-147.751094	0.000253	2.534018	0.858548	0.000101
1538	1.5293e+02	-18.7583	-147.569423	0.000456	4.561232	1.545387	0.000183
1539	1.5303e+02	-18.7214	-147.420049	0.000375	3.750346	1.270652	0.000150
1540	1.5313e+02	-18.6861	-147.258563	0.000405	4.054429	1.373678	0.000162
1541	1.5323e+02	-18.6444	-147.089003	0.000426	4.257150	1.442361	0.000170
1542	1.5333e+02	-18.5963	-146.959815	0.000324	3.243543	1.098942	0.000130
1543	1.5343e+02	-18.5610	-146.753921	0.000517	5.169396	1.751439	0.000207
1544	1.5353e+02	-18.5161	-146.515730	0.000598	5.980282	2.026174	0.000239
1545	1.5363e+02	-18.4856	-146.350208	0.000416	4.155789	1.408020	0.000166
1546	1.5373e+02	-18.4374	-146.180648	0.000426	4.257150	1.442361	0.000170
1547	1.5383e+02	-18.4022	-146.011088	0.000426	4.257150	1.442361	0.000170
1548	1.5393e+02	-18.3669	-145.857677	0.000385	3.851707	1.304994	0.000154
1549	1.5403e+02	-18.3155	-145.655820	0.000507	5.068036	1.717097	0.000203
1550	1.5413e+02	-18.2834	-145.494335	0.000405	4.054429	1.373678	0.000162
1551	1.5422e+02	-18.2498	-145.336887	0.000395	3.953068	1.339336	0.000158
1552	1.5432e+02	-18.2064	-145.118881	0.000547	5.473479	1.854465	0.000219
1553	1.5442e+02	-18.1695	-144.933173	0.000466	4.662593	1.579729	0.000187
1554	1.5452e+02	-18.1198	-144.723242	0.000527	5.270757	1.785781	0.000211
1555	1.5462e+02	-18.0829	-144.594054	0.000324	3.243543	1.098942	0.000130
1556	1.5472e+02	-18.0444	-144.380085	0.000537	5.372118	1.820123	0.000215
1557	1.5482e+02	-18.0107	-144.210526	0.000426	4.257150	1.442361	0.000170
1558	1.5492e+02	-17.9578	-144.040966	0.000426	4.257150	1.442361	0.000170
1559	1.5502e+02	-17.9257	-143.810849	0.000578	5.777561	1.957491	0.000231
1560	1.5512e+02	-17.8856	-143.629178	0.000456	4.561232	1.545387	0.000183
1561	1.5522e+02	-17.8343	-143.447507	0.000456	4.561232	1.545387	0.000183
1562	1.5532e+02	-17.8070	-143.209316	0.000598	5.980282	2.026174	0.000239
1563	1.5542e+02	-17.7653	-143.023608	0.000466	4.662593	1.579729	0.000187
1564	1.5552e+02	-17.7252	-142.862122	0.000405	4.054429	1.373678	0.000162
1565	1.5562e+02	-17.6835	-142.636043	0.000568	5.676200	1.923149	0.000227
1566	1.5572e+02	-17.6385	-142.470520	0.000416	4.155789	1.408020	0.000166
1567	1.5582e+02	-17.6032	-142.256552	0.000537	5.372118	1.820123	0.000215
1568	1.5592e+02	-17.5599	-142.078918	0.000446	4.459871	1.511045	0.000179
1569	1.5602e+02	-17.5230	-141.868987	0.000527	5.270757	1.785781	0.000211
1570	1.5612e+02	-17.4877	-141.667130	0.000507	5.068036	1.717097	0.000203
1571	1.5622e+02	-17.4444	-141.481422	0.000466	4.662593	1.579729	0.000187
1572	1.5631e+02	-17.4139	-141.267454	0.000537	5.372118	1.820123	0.000215
1573	1.5641e+02	-17.3658	-141.049448	0.000547	5.473479	1.854465	0.000219
1574	1.5651e+02	-17.3209	-140.851629	0.000497	4.966675	1.682755	0.000199
1575	1.5661e+02	-17.2920	-140.649772	0.000507	5.068036	1.717097	0.000203
1576	1.5671e+02	-17.2375	-140.455989	0.000487	4.865314	1.648413	0.000195
1577	1.5681e+02	-17.2022	-140.282393	0.000436	4.358511	1.476703	0.000174
1578	1.5691e+02	-17.1669	-140.011905	0.000679	6.791168	2.300910	0.000272
1579	1.5701e+02	-17.1300	-139.846382	0.000416	4.155789	1.408020	0.000166
1580	1.5711e+02	-17.0819	-139.608191	0.000598	5.980282	2.026174	0.000239
1581	1.5721e+02	-17.0450	-139.398260	0.000527	5.270757	1.785781	0.000211
1582	1.5731e+02	-17.0033	-139.208515	0.000476	4.763954	1.614071	0.000191
1583	1.5741e+02	-16.9744	-138.986472	0.000557	5.574839	1.888807	0.000223
1584	1.5751e+02	-16.9311	-138.740207	0.000618	6.183004	2.094858	0.000248
1585	1.5761e+02	-16.8878	-138.586796	0.000385	3.851707	1.304994	0.000154
1586	1.5771e+02	-16.8477	-138.376865	0.000527	5.270757	1.785781	0.000211
1587	1.5781e+02	-16.8204	-138.146748	0.000578	5.777561	1.957491	0.000231
1588	1.5791e+02	-16.7674	-137.973151	0.000436	4.358511	1.476703	0.000174
1589	1.5801e+02	-16.7209	-137.747071	0.000568	5.676200	1.923149	0.000227
1590	1.5811e+02	-16.6985	-137.585586	0.000405	4.054429	1.373678	0.000162
1591	1.5821e+02	-16.6535	-137.294912	0.000730	7.297971	2.472620	0.000292
1592	1.5830e+02	-16.6070	-137.125352	0.000426	4.257150	1.442361	0.000170
1593	1.5840e+02	-16.5573	-136.895236	0.000578	5.777561	1.957491	0.000231
1594	1.5850e+02	-16.5284	-136.709527	0.000466	4.662593	1.579729	0.000187
1595	1.5860e+02	-16.4931	-136.475374	0.000588	5.878921	1.991833	0.000235
1596	1.5870e+02	-16.4498	-136.301777	0.000436	4.358511	1.476703	0.000174
1597	1.5880e+02	-16.4161	-136.067623	0.000588	5.878921	1.991833	0.000235
1598	1.5890e+02	-16.3584	-135.853655	0.000537	5.372118	1.820123	0.000215
1599	1.5900e+02	-16.3311	-135.631612	0.000557	5.574839	1.888807	0.000223
1600	1.5910e+02	-16.2926	-135.405533	0.000568	5.676200	1.923149	0.000227
1601	1.5920e+02	-16.2525	-135.143119	0.000659	6.588446	2.232226	0.000264
1602	1.5930e+02	-16.2124	-134.965485	0.000446	4.459871	1.511045	0.000179
1603	1.5940e+02	-16.1707	-134.779777	0.000466	4.662593	1.579729	0.000187
1604	1.5950e+02	-16.1354	-134.541586	0.000598	5.980282	2.026174	0.000239
1605	1.5960e+02	-16.0872	-134.339729	0.000507	5.068036	1.717097	0.000203
1606	1.5970e+02	-16.0520	-134.170169	0.000426	4.257150	1.442361	0.000170
1607	1.5980e+02	-16.0151	-133.944090	0.000568	5.676200	1.923149	0.000227
1608	1.5990e+02	-15.9669	-133.673601	0.000679	6.791168	2.300910	0.000272
1609	1.6000e+02	-15.9300	-133.487893	0.000466	4.662593	1.579729	0.000187
1610	1.6010e+02	-15.8931	-133.257776	0.000578	5.777561	1.957491	0.000231
1611	1.6019e+02	-15.8562	-133.035734	0.000557	5.574839	1.888807	0.000223
1612	1.6029e+02	-15.8049	-132.841951	0.000487	4.865314	1.648413	0.000195
1613	1.6039e+02	-15.7728	-132.623946	0.000547	5.473479	1.854465	0.000219
1614	1.6049e+02	-15.7327	-132.401904	0.000557	5.574839	1.888807	0.000223
1615	1.6059e+02	-15.6862	-132.159676	0.000608	6.081643	2.060516	0.000243
1616	1.6069e+02	-15.6477	-131.913410	0.000618	6.183004	2.094858	0.000248
1617	1.6079e+02	-15.6044	-131.671182	0.000608	6.081643	2.060516	0.000243
1618	1.6089e+02	-15.5787	-131.432991	0.000598	5.980282	2.026174	0.000239
1619	1.6099e+02	-15.5242	-131.243246	0.000476	4.763954	1.614071	0.000191
1620	1.6109e+02	-15.4969	-131.021203	0.000557	5.574839	1.888807	0.000223
1621	1.6119e+02	-15.4504	-130.811272	0.000527	5.270757	1.785781	0.000211
1622	1.6129e+02	-15.4087	-130.560970	0.000628	6.284364	2.129200	0.000252
1623	1.6139e+02	-15.3702	-130.371224	0.000476	4.763954	1.614071	0.000191
1624	1.6149e+02	-15.3349	-130.112848	0.000649	6.487086	2.197884	0.000260
1625	1.6159e+02	-15.2899	-129.910991	0.000507	5.068036	1.717097	0.000203
1626	1.6169e+02	-15.2498	-129.713171	0.000497	4.966675	1.682755	0.000199
1627	1.6179e+02	-15.2210	-129.515352	0.000497	4.966675	1.682755	0.000199
1628	1.6189e+02	-15.1728	-129.248901	0.000669	6.689807	2.266568	0.000268
1629	1.6199e+02	-15.1327	-129.030895	0.000547	5.473479	1.854465	0.000219
1630	1.6209e+02	-15.0894	-128.800779	0.000578	5.777561	1.957491	0.000231
1631	1.6219e+02	-15.0525	-128.578736	0.000557	5.574839	1.888807	0.000223
1632	1.6228e+02	-15.0204	-128.380916	0.000497	4.966675	1.682755	0.000199
1633	1.6238e+02	-14.9755	-128.130614	0.000628	6.284364	2.129200	0.000252
1634	1.6248e+02	-14.9322	-127.896460	0.000588	5.878921	1.991833	0.000235
1635	1.6258e+02	-14.9033	-127.666343	0.000578	5.777561	1.957491	0.000231
1636	1.6268e+02	-14.8552	-127.375670	0.000730	7.297971	2.472620	0.000292
1637	1.6278e+02	-14.8167	-127.189961	0.000466	4.662593	1.579729	0.000187
1638	1.6288e+02	-14.7766	-126.935622	0.000639	6.385725	2.163542	0.000256
1639	1.6298e+02	-14.7301	-126.693394	0.000608	6.081643	2.060516	0.000243
1640	1.6308e+02	-14.7028	-126.499611	0.000487	4.865314	1.648413	0.000195
1641	1.6318e+02	-14.6531	-126.221049	0.000699	6.993889	2.369594	0.000280
1642	1.6328e+02	-14.6162	-126.051489	0.000426	4.257150	1.442361	0.000170
1643	1.6338e+02	-14.5729	-125.764853	0.000720	7.196611	2.438278	0.000288
1644	1.6348e+02	-14.5440	-125.550884	0.000537	5.372118	1.820123	0.000215
1645	1.6358e+02	-14.4991	-125.292508	0.000649	6.487086	2.197884	0.000260
1646	1.6368e+02	-14.4461	-125.102762	0.000476	4.763954	1.614071	0.000191
1647	1.6378e+02	-14.4124	-124.864571	0.000598	5.980282	2.026174	0.000239
1648	1.6388e+02	-14.3771	-124.626380	0.000598	5.980282	2.026174	0.000239
1649	1.6398e+02	-14.3402	-124.400301	0.000568	5.676200	1.923149	0.000227
1650	1.6408e+02	-14.2985	-124.178258	0.000557	5.574839	1.888807	0.000223
1651	1.6418e+02	-14.2536	-123.936030	0.000608	6.081643	2.060516	0.000243
1652	1.6427e+02	-14.2135	-123.701876	0.000588	5.878921	1.991833	0.000235
1653	1.6437e+02	-14.1750	-123.447537	0.000639	6.385725	2.163542	0.000256
1654	1.6447e+02	-14.1365	-123.160900	0.000720	7.196611	2.438278	0.000288
1655	1.6457e+02	-14.0996	-122.963080	0.000497	4.966675	1.682755	0.000199
1656	1.6467e+02	-14.0563	-122.749112	0.000537	5.372118	1.820123	0.000215
1657	1.6477e+02	-14.0178	-122.490735	0.000649	6.487086	2.197884	0.000260
1658	1.6487e+02	-13.9761	-122.216210	0.000689	6.892529	2.335252	0.000276
1659	1.6497e+02	-13.9392	-122.018391	0.000497	4.966675	1.682755	0.000199
1660	1.6507e+02	-13.8991	-121.776162	0.000608	6.081643	2.060516	0.000243
1661	1.6517e+02	-13.8558	-121.574306	0.000507	5.068036	1.717097	0.000203
1662	1.6527e+02	-13.8157	-121.299780	0.000689	6.892529	2.335252	0.000276
1663	1.6537e+02	-13.7772	-121.097924	0.000507	5.068036	1.717097	0.000203
1664	1.6547e+02	-13.7403	-120.831473	0.000669	6.689807	2.266568	0.000268
1665	1.6557e+02	-13.7082	-120.593282	0.000598	5.980282	2.026174	0.000239
1666	1.6567e+02	-13.6600	-120.415648	0.000446	4.459871	1.511045	0.000179
1667	1.6577e+02	-13.6199	-120.141122	0.000689	6.892529	2.335252	0.000276
1668	1.6587e+02	-13.5798	-119.919080	0.000557	5.574839	1.888807	0.000223
1669	1.6597e+02	-13.5445	-119.701075	0.000547	5.473479	1.854465	0.000219
1670	1.6607e+02	-13.4980	-119.418475	0.000710	7.095250	2.403936	0.000284
1671	1.6616e+02	-13.4579	-119.147987	0.000679	6.791168	2.300910	0.000272
1672	1.6626e+02	-13.4258	-118.881536	0.000669	6.689807	2.266568	0.000268
1673	1.6636e+02	-13.3793	-118.707939	0.000436	4.358511	1.476703	0.000174
1674	1.6646e+02	-13.3456	-118.429377	0.000699	6.993889	2.369594	0.000280
1675	1.6656e+02	-13.2991	-118.130629	0.000750	7.500693	2.541304	0.000300
1676	1.6666e+02	-13.2622	-117.880326	0.000628	6.284364	2.129200	0.000252
1677	1.6676e+02	-13.2157	-117.690581	0.000476	4.763954	1.614071	0.000191
1678	1.6686e+02	-13.1772	-117.444316	0.000618	6.183004	2.094858	0.000248
1679	1.6696e+02	-13.1387	-117.214199	0.000578	5.777561	1.957491	0.000231
1680	1.6706e+02	-13.0970	-116.903340	0.000780	7.804775	2.644329	0.000312
1681	1.6716e+02	-13.0665	-116.701483	0.000507	5.068036	1.717097	0.000203
1682	1.6726e+02	-13.0344	-116.467329	0.000588	5.878921	1.991833	0.000235
1683	1.6736e+02	-12.9798	-116.188767	0.000699	6.993889	2.369594	0.000280
1684	1.6746e+02	-12.9381	-115.982873	0.000517	5.169396	1.751439	0.000207
1685	1.6756e+02	-12.9012	-115.724496	0.000649	6.487086	2.197884	0.000260
1686	1.6766e+02	-12.8659	-115.449971	0.000689	6.892529	2.335252	0.000276
1687	1.6776e+02	-12.8226	-115.211780	0.000598	5.980282	2.026174	0.000239
1688	1.6786e+02	-12.7889	-114.973589	0.000598	5.980282	2.026174	0.000239
1689	1.6796e+02	-12.7440	-114.695026	0.000699	6.993889	2.369594	0.000280
1690	1.6806e+02	-12.7039	-114.448761	0.000618	6.183004	2.094858	0.000248
1691	1.6816e+02	-12.6654	-114.162124	0.000720	7.196611	2.438278	0.000288
1692	1.6825e+02	-12.6189	-113.960268	0.000507	5.068036	1.717097	0.000203
1693	1.6835e+02	-12.5820	-113.701891	0.000649	6.487086	2.197884	0.000260
1694	1.6845e+02	-12.5483	-113.463700	0.000598	5.980282	2.026174	0.000239
1695	1.6855e+02	-12.4986	-113.201286	0.000659	6.588446	2.232226	0.000264
1696	1.6865e+02	-12.4729	-112.918687	0.000710	7.095250	2.403936	0.000284
1697	1.6875e+02	-12.4200	-112.700681	0.000547	5.473479	1.854465	0.000219
1698	1.6885e+02	-12.3863	-112.454416	0.000618	6.183004	2.094858	0.000248
1699	1.6895e+02	-12.3333	-112.192002	0.000659	6.588446	2.232226	0.000264
1700	1.6905e+02	-12.3109	-111.945737	0.000618	6.183004	2.094858	0.000248
1701	1.6915e+02	-12.2660	-111.663137	0.000710	7.095250	2.403936	0.000284
1702	1.6925e+02	-12.2243	-111.465318	0.000497	4.966675	1.682755	0.000199
1703	1.6935e+02	-12.1809	-111.194830	0.000679	6.791168	2.300910	0.000272
1704	1.6945e+02	-12.1456	-110.976824	0.000547	5.473479	1.854465	0.000219
1705	1.6955e+02	-12.1120	-110.682113	0.000740	7.399332	2.506962	0.000296
1706	1.6965e+02	-12.0622	-110.391440	0.000730	7.297971	2.472620	0.000292
1707	1.6975e+02	-12.0366	-110.133063	0.000649	6.487086	2.197884	0.000260
1708	1.6985e+02	-11.9708	-109.882761	0.000628	6.284364	2.129200	0.000252
1709	1.6995e+02	-11.9451	-109.644570	0.000598	5.980282	2.026174	0.000239
1710	1.7005e+02	-11.9098	-109.386193	0.000649	6.487086	2.197884	0.000260
1711	1.7015e+02	-11.8761	-109.115705	0.000679	6.791168	2.300910	0.000272
1712	1.7024e+02	-11.8248	-108.869439	0.000618	6.183004	2.094858	0.000248
1713	1.7034e+02	-11.7943	-108.643360	0.000568	5.676200	1.923149	0.000227
1714	1.7044e+02	-11.7462	-108.360760	0.000710	7.095250	2.403936	0.000284
1715	1.7054e+02	-11.7093	-108.094309	0.000669	6.689807	2.266568	0.000268
1716	1.7064e+02	-11.6644	-107.860156	0.000588	5.878921	1.991833	0.000235
1717	1.7074e+02	-11.6323	-107.609853	0.000628	6.284364	2.129200	0.000252
1718	1.7084e+02	-11.5922	-107.371662	0.000598	5.980282	2.026174	0.000239
1719	1.7094e+02	-11.5489	-107.072914	0.000750	7.500693	2.541304	0.000300
1720	1.7104e+02	-11.5007	-106.854909	0.000547	5.473479	1.854465	0.000219
1721	1.7114e+02	-11.4655	-106.596532	0.000649	6.487086	2.197884	0.000260
1722	1.7124e+02	-11.4318	-106.322007	0.000689	6.892529	2.335252	0.000276
1723	1.7134e+02	-11.3852	-106.039407	0.000710	7.095250	2.403936	0.000284
1724	1.7144e+02	-11.3548	-105.793142	0.000618	6.183004	2.094858	0.000248
1725	1.7154e+02	-11.3147	-105.486320	0.000770	7.703414	2.609987	0.000308
1726	1.7164e+02	-11.2729	-105.244092	0.000608	6.081643	2.060516	0.000243
1727	1.7174e+02	-11.2312	-104.993789	0.000628	6.284364	2.129200	0.000252
1728	1.7184e+02	-11.1863	-104.759635	0.000588	5.878921	1.991833	0.000235
1729	1.7194e+02	-11.1414	-104.440702	0.000801	8.007496	2.713013	0.000321
1730	1.7204e+02	-11.1061	-104.254993	0.000466	4.662593	1.579729	0.000187
1731	1.7213e+02	-11.0660	-103.932022	0.000811	8.108857	2.747355	0.000325
1732	1.7223e+02	-11.0243	-103.689794	0.000608	6.081643	2.060516	0.000243
1733	1.7233e+02	-10.9954	-103.447566	0.000608	6.081643	2.060516	0.000243
1734	1.7243e+02	-10.9521	-103.201301	0.000618	6.183004	2.094858	0.000248
1735	1.7253e+02	-10.9184	-102.906590	0.000740	7.399332	2.506962	0.000296
1736	1.7263e+02	-10.8799	-102.700696	0.000517	5.169396	1.751439	0.000207
1737	1.7273e+02	-10.8366	-102.401948	0.000750	7.500693	2.541304	0.000300
1738	1.7283e+02	-10.7949	-102.111274	0.000730	7.297971	2.472620	0.000292
1739	1.7293e+02	-10.7403	-101.860972	0.000628	6.284364	2.129200	0.000252
1740	1.7303e+02	-10.7163	-101.598558	0.000659	6.588446	2.232226	0.000264
1741	1.7313e+02	-10.6746	-101.364404	0.000588	5.878921	1.991833	0.000235
1742	1.7323e+02	-10.6296	-101.069693	0.000740	7.399332	2.506962	0.000296
1743	1.7333e+02	-10.5992	-100.746722	0.000811	8.108857	2.747355	0.000325
1744	1.7343e+02	-10.5559	-100.464123	0.000710	7.095250	2.403936	0.000284
1745	1.7353e+02	-10.5190	-100.209783	0.000639	6.385725	2.163542	0.000256
1746	1.7363e+02	-10.4756	-99.975629	0.000588	5.878921	1.991833	0.000235
1747	1.7373e+02	-10.4339	-99.676881	0.000750	7.500693	2.541304	0.000300
1748	1.7383e+02	-10.3922	-99.430616	0.000618	6.183004	2.094858	0.000248
1749	1.7393e+02	-10.3537	-99.176277	0.000639	6.385725	2.163542	0.000256
1750	1.7403e+02	-10.3152	-98.934048	0.000608	6.081643	2.060516	0.000243
1751	1.7413e+02	-10.2751	-98.643375	0.000730	7.297971	2.472620	0.000292
1752	1.7422e+02	-10.2398	-98.380961	0.000659	6.588446	2.232226	0.000264
1753	1.7432e+02	-10.1885	-98.066064	0.000791	7.906136	2.678671	0.000316
1754	1.7442e+02	-10.1532	-97.852096	0.000537	5.372118	1.820123	0.000215
1755	1.7452e+02	-10.1195	-97.573534	0.000699	6.993889	2.369594	0.000280
1756	1.7462e+02	-10.0746	-97.335343	0.000598	5.980282	2.026174	0.000239
1757	1.7472e+02	-10.0393	-97.000260	0.000841	8.412939	2.850381	0.000337
1758	1.7482e+02	-9.9960	-96.782255	0.000547	5.473479	1.854465	0.000219
1759	1.7492e+02	-9.9478	-96.503693	0.000699	6.993889	2.369594	0.000280
1760	1.7502e+02	-9.9126	-96.253390	0.000628	6.284364	2.129200	0.000252
1761	1.7512e+02	-9.8805	-95.954642	0.000750	7.500693	2.541304	0.000300
1762	1.7522e+02	-9.8339	-95.655894	0.000750	7.500693	2.541304	0.000300
1763	1.7532e+02	-9.7987	-95.413666	0.000608	6.081643	2.060516	0.000243
1764	1.7542e+02	-9.7585	-95.131067	0.000710	7.095250	2.403936	0.000284
1765	1.7552e+02	-9.7152	-94.828281	0.000760	7.602054	2.575645	0.000304
1766	1.7562e+02	-9.6703	-94.590090	0.000598	5.980282	2.026174	0.000239
1767	1.7572e+02	-9.6286	-94.311528	0.000699	6.993889	2.369594	0.000280
1768	1.7582e+02	-9.5997	-94.020854	0.000730	7.297971	2.472620	0.000292
1769	1.7592e+02	-9.5596	-93.782663	0.000598	5.980282	2.026174	0.000239
1770	1.7602e+02	-9.5051	-93.500064	0.000710	7.095250	2.403936	0.000284
1771	1.7612e+02	-9.4842	-93.294170	0.000517	5.169396	1.751439	0.000207
1772	1.7621e+02	-9.4377	-92.971199	0.000811	8.108857	2.747355	0.000325
1773	1.7631e+02	-9.3944	-92.749156	0.000557	5.574839	1.888807	0.000223
1774	1.7641e+02	-9.3591	-92.458483	0.000730	7.297971	2.472620	0.000292
1775	1.7651e+02	-9.3222	-92.159735	0.000750	7.500693	2.541304	0.000300
1776	1.7661e+02	-9.2789	-91.901358	0.000649	6.487086	2.197884	0.000260
1777	1.7671e+02	-9.2468	-91.602610	0.000750	7.500693	2.541304	0.000300
1778	1.7681e+02	-9.1987	-91.364419	0.000598	5.980282	2.026174	0.000239
1779	1.7691e+02	-9.1602	-91.089894	0.000689	6.892529	2.335252	0.000276
1780	1.7701e+02	-9.1185	-90.783071	0.000770	7.703414	2.609987	0.000308
1781	1.7711e+02	-9.0816	-90.488360	0.000740	7.399332	2.506962	0.000296
1782	1.7721e+02	-9.0350	-90.221909	0.000669	6.689807	2.266568	0.000268
1783	1.7731e+02	-8.9997	-89.955459	0.000669	6.689807	2.266568	0.000268
1784	1.7741e+02	-8.9580	-89.656710	0.000750	7.500693	2.541304	0.000300
1785	1.7751e+02	-8.9179	-89.406408	0.000628	6.284364	2.129200	0.000252
1786	1.7761e+02	-8.8698	-89.135920	0.000679	6.791168	2.300910	0.000272
1787	1.7771e+02	-8.8473	-88.889655	0.000618	6.183004	2.094858	0.000248
1788	1.7781e+02	-8.8040	-88.562647	0.000821	8.210218	2.781697	0.000329
1789	1.7791e+02	-8.7591	-88.312344	0.000628	6.284364	2.129200	0.000252
1790	1.7801e+02	-8.7238	-88.009559	0.000760	7.602054	2.575645	0.000304
1791	1.7810e+02	-8.6789	-87.803665	0.000517	5.169396	1.751439	0.000207
1792	1.7820e+02	-8.6452	-87.508954	0.000740	7.399332	2.506962	0.000296
1793	1.7830e+02	-8.6003	-87.218280	0.000730	7.297971	2.472620	0.000292
1794	1.7840e+02	-8.5618	-86.907421	0.000780	7.804775	2.644329	0.000312
1795	1.7850e+02	-8.5185	-86.624822	0.000710	7.095250	2.403936	0.000284
1796	1.7860e+02	-8.4784	-86.370482	0.000639	6.385725	2.163542	0.000256
1797	1.7870e+02	-8.4351	-86.095957	0.000689	6.892529	2.335252	0.000276
1798	1.7880e+02	-8.3998	-85.720503	0.000943	9.426546	3.193800	0.000377
1799	1.7890e+02	-8.3597	-85.522683	0.000497	4.966675	1.682755	0.000199
1800	1.7900e+02	-8.3340	-85.227973	0.000740	7.399332	2.506962	0.000296
1801	1.7910e+02	-8.2875	-84.945373	0.000710	7.095250	2.403936	0.000284
1802	1.7920e+02	-8.2377	-84.622402	0.000811	8.108857	2.747355	0.000325
1803	1.7930e+02	-8.2024	-84.347877	0.000689	6.892529	2.335252	0.000276
1804	1.7940e+02	-8.1671	-84.085463	0.000659	6.588446	2.232226	0.000264
1805	1.7950e+02	-8.1222	-83.810938	0.000689	6.892529	2.335252	0.000276
1806	1.7960e+02	-8.0725	-83.528338	0.000710	7.095250	2.403936	0.000284
1807	1.7970e+02	-8.0516	-83.237665	0.000730	7.297971	2.472620	0.000292
1808	1.7980e+02	-8.0115	-82.975251	0.000659	6.588446	2.232226	0.000264
1809	1.7990e+02	-7.9554	-82.656317	0.000801	8.007496	2.713013	0.000321
1810	1.8000e+02	-7.9169	-82.401978	0.000639	6.385725	2.163542	0.000256
1811	1.8009e+02	-7.8816	-82.127452	0.000689	6.892529	2.335252	0.000276
1812	1.8019e+02	-7.8383	-81.832741	0.000740	7.399332	2.506962	0.000296
1813	1.8029e+02	-7.7982	-81.574365	0.000649	6.487086	2.197884	0.000260
1814	1.8039e+02	-7.7565	-81.291765	0.000710	7.095250	2.403936	0.000284
1815	1.8049e+02	-7.7212	-80.964757	0.000821	8.210218	2.781697	0.000329
1816	1.8059e+02	-7.6795	-80.678121	0.000720	7.196611	2.438278	0.000288
1817	1.8069e+02	-7.6378	-80.359187	0.000801	8.007496	2.713013	0.000321
1818	1.8079e+02	-7.6089	-80.084662	0.000689	6.892529	2.335252	0.000276
1819	1.8089e+02	-7.5672	-79.818211	0.000669	6.689807	2.266568	0.000268
1820	1.8099e+02	-7.5271	-79.519463	0.000750	7.500693	2.541304	0.000300
1821	1.8109e+02	-7.4902	-79.261086	0.000649	6.487086	2.197884	0.000260
1822	1.8119e+02	-7.4468	-78.954264	0.000770	7.703414	2.609987	0.000308
1823	1.8129e+02	-7.4003	-78.707998	0.000618	6.183004	2.094858	0.000248
1824	1.8139e+02	-7.3650	-78.389065	0.000801	8.007496	2.713013	0.000321
1825	1.8149e+02	-7.3217	-78.114539	0.000689	6.892529	2.335252	0.000276
1826	1.8159e+02	-7.2800	-77.819828	0.000740	7.399332	2.506962	0.000296
1827	1.8169e+02	-7.2463	-77.541266	0.000699	6.993889	2.369594	0.000280
1828	1.8179e+02	-7.2046	-77.206184	0.000841	8.412939	2.850381	0.000337
1829	1.8189e+02	-7.1661	-76.992216	0.000537	5.372118	1.820123	0.000215
1830	1.8199e+02	-7.1180	-76.685393	0.000770	7.703414	2.609987	0.000308
1831	1.8209e+02	-7.0875	-76.406831	0.000699	6.993889	2.369594	0.000280
1832	1.8218e+02	-7.0570	-76.108083	0.000750	7.500693	2.541304	0.000300
1833	1.8228e+02	-7.0089	-75.797223	0.000780	7.804775	2.644329	0.000312
1834	1.8238e+02	-6.9560	-75.518661	0.000699	6.993889	2.369594	0.000280
1835	1.8248e+02	-6.9335	-75.187616	0.000831	8.311579	2.816039	0.000333
1836	1.8258e+02	-6.8870	-74.892905	0.000740	7.399332	2.506962	0.000296
1837	1.8268e+02	-6.8437	-74.602231	0.000730	7.297971	2.472620	0.000292
1838	1.8278e+02	-6.8019	-74.303483	0.000750	7.500693	2.541304	0.000300
1839	1.8288e+02	-6.7634	-74.016847	0.000720	7.196611	2.438278	0.000288
1840	1.8298e+02	-6.7394	-73.750396	0.000669	6.689807	2.266568	0.000268
1841	1.8308e+02	-6.6832	-73.423388	0.000821	8.210218	2.781697	0.000329
1842	1.8318e+02	-6.6415	-73.132714	0.000730	7.297971	2.472620	0.000292
1843	1.8328e+02	-6.5998	-72.850114	0.000710	7.095250	2.403936	0.000284
1844	1.8338e+02	-6.5709	-72.563478	0.000720	7.196611	2.438278	0.000288
1845	1.8348e+02	-6.5228	-72.288953	0.000689	6.892529	2.335252	0.000276
1846	1.8358e+02	-6.4843	-72.022502	0.000669	6.689807	2.266568	0.000268
1847	1.8368e+02	-6.4474	-71.691456	0.000831	8.311579	2.816039	0.000333
1848	1.8378e+02	-6.3993	-71.445191	0.000618	6.183004	2.094858	0.000248
1849	1.8388e+02	-6.3704	-71.114146	0.000831	8.311579	2.816039	0.000333
1850	1.8398e+02	-6.3271	-70.815398	0.000750	7.500693	2.541304	0.000300
1851	1.8407e+02	-6.2982	-70.573170	0.000608	6.081643	2.060516	0.000243
1852	1.8417e+02	-6.2437	-70.225976	0.000872	8.717021	2.953407	0.000349
1853	1.8427e+02	-6.2148	-69.931265	0.000740	7.399332	2.506962	0.000296
1854	1.8437e+02	-6.1715	-69.620406	0.000780	7.804775	2.644329	0.000312
1855	1.8447e+02	-6.1250	-69.329732	0.000730	7.297971	2.472620	0.000292
1856	1.8457e+02	-6.0849	-69.014835	0.000791	7.906136	2.678671	0.000316
1857	1.8467e+02	-6.0576	-68.752422	0.000659	6.588446	2.232226	0.000264
1858	1.8477e+02	-6.0095	-68.401191	0.000882	8.818382	2.987749	0.000353
1859	1.8487e+02	-5.9758	-68.106480	0.000740	7.399332	2.506962	0.000296
1860	1.8497e+02	-5.9373	-67.831955	0.000689	6.892529	2.335252	0.000276
1861	1.8507e+02	-5.9020	-67.529169	0.000760	7.602054	2.575645	0.000304
1862	1.8517e+02	-5.8506	-67.242533	0.000720	7.196611	2.438278	0.000288
1863	1.8527e+02	-5.8025	-66.931673	0.000780	7.804775	2.644329	0.000312
1864	1.8537e+02	-5.7736	-66.657148	0.000689	6.892529	2.335252	0.000276
1865	1.8547e+02	-5.7415	-66.346289	0.000780	7.804775	2.644329	0.000312
1866	1.8557e+02	-5.6854	-66.039466	0.000770	7.703414	2.609987	0.000308
1867	1.8567e+02	-5.6533	-65.748793	0.000730	7.297971	2.472620	0.000292
1868	1.8577e+02	-5.6132	-65.433896	0.000791	7.906136	2.678671	0.000316
1869	1.8587e+02	-5.5795	-65.179556	0.000639	6.385725	2.163542	0.000256
1870	1.8597e+02	-5.5378	-64.888883	0.000730	7.297971	2.472620	0.000292
1871	1.8606e+02	-5.4945	-64.557838	0.000831	8.311579	2.816039	0.000333
1872	1.8616e+02	-5.4560	-64.198533	0.000902	9.021104	3.056433	0.000361
1873	1.8626e+02	-5.4191	-63.924007	0.000689	6.892529	2.335252	0.000276
1874	1.8636e+02	-5.3646	-63.617185	0.000770	7.703414	2.609987	0.000308
1875	1.8646e+02	-5.3341	-63.314400	0.000760	7.602054	2.575645	0.000304
1876	1.8656e+02	-5.2940	-62.983355	0.000831	8.311579	2.816039	0.000333
1877	1.8666e+02	-5.2507	-62.688644	0.000740	7.399332	2.506962	0.000296
1878	1.8676e+02	-5.2202	-62.414119	0.000689	6.892529	2.335252	0.000276
1879	1.8686e+02	-5.1737	-62.123445	0.000730	7.297971	2.472620	0.000292
1880	1.8696e+02	-5.1368	-61.772214	0.000882	8.818382	2.987749	0.000353
1881	1.8706e+02	-5.0918	-61.493652	0.000699	6.993889	2.369594	0.000280
1882	1.8716e+02	-5.0533	-61.182792	0.000780	7.804775	2.644329	0.000312
1883	1.8726e+02	-5.0245	-60.896155	0.000720	7.196611	2.438278	0.000288
1884	1.8736e+02	-4.9795	-60.585296	0.000780	7.804775	2.644329	0.000312
1885	1.8746e+02	-4.9346	-60.274437	0.000780	7.804775	2.644329	0.000312
1886	1.8756e+02	-4.9041	-59.991837	0.000710	7.095250	2.403936	0.000284
1887	1.8766e+02	-4.8544	-59.664829	0.000821	8.210218	2.781697	0.000329
1888	1.8776e+02	-4.8191	-59.378192	0.000720	7.196611	2.438278	0.000288
1889	1.8786e+02	-4.7694	-59.055222	0.000811	8.108857	2.747355	0.000325
1890	1.8796e+02	-4.7357	-58.768585	0.000720	7.196611	2.438278	0.000288
1891	1.8806e+02	-4.6972	-58.393131	0.000943	9.426546	3.193800	0.000377
1892	1.8815e+02	-4.6587	-58.122643	0.000679	6.791168	2.300910	0.000272
1893	1.8825e+02	-4.6106	-57.831969	0.000730	7.297971	2.472620	0.000292
1894	1.8835e+02	-4.5705	-57.517073	0.000791	7.906136	2.678671	0.000316
1895	1.8845e+02	-4.5416	-57.206213	0.000780	7.804775	2.644329	0.000312
1896	1.8855e+02	-4.4999	-56.919577	0.000720	7.196611	2.438278	0.000288
1897	1.8865e+02	-4.4582	-56.564309	0.000892	8.919743	3.022091	0.000357
1898	1.8875e+02	-4.4165	-56.293821	0.000679	6.791168	2.300910	0.000272
1899	1.8885e+02	-4.3860	-55.966813	0.000821	8.210218	2.781697	0.000329
1900	1.8895e+02	-4.3427	-55.692288	0.000689	6.892529	2.335252	0.000276
1901	1.8905e+02	-4.3009	-55.385465	0.000770	7.703414	2.609987	0.000308
1902	1.8915e+02	-4.2592	-55.082680	0.000760	7.602054	2.575645	0.000304
1903	1.8925e+02	-4.2143	-54.755672	0.000821	8.210218	2.781697	0.000329
1904	1.8935e+02	-4.1854	-54.460961	0.000740	7.399332	2.506962	0.000296
1905	1.8945e+02	-4.1357	-54.162213	0.000750	7.500693	2.541304	0.000300
1906	1.8955e+02	-4.0972	-53.867502	0.000740	7.399332	2.506962	0.000296
1907	1.8965e+02	-4.0587	-53.508197	0.000902	9.021104	3.056433	0.000361
1908	1.8975e+02	-4.0186	-53.213486	0.000740	7.399332	2.506962	0.000296
1909	1.8985e+02	-3.9801	-52.890515	0.000811	8.108857	2.747355	0.000325
1910	1.8995e+02	-3.9384	-52.547359	0.000862	8.615661	2.919065	0.000345
1911	1.9004e+02	-3.8999	-52.244574	0.000760	7.602054	2.575645	0.000304
1912	1.9014e+02	-3.8502	-51.937751	0.000770	7.703414	2.609987	0.000308
1913	1.9024e+02	-3.8229	-51.630929	0.000770	7.703414	2.609987	0.000308
1914	1.9034e+02	-3.7828	-51.287772	0.000862	8.615661	2.919065	0.000345
1915	1.9044e+02	-3.7443	-51.005173	0.000710	7.095250	2.403936	0.000284
1916	1.9054e+02	-3.7010	-50.662016	0.000862	8.615661	2.919065	0.000345
1917	1.9064e+02	-3.6625	-50.367305	0.000740	7.399332	2.506962	0.000296
1918	1.9074e+02	-3.6288	-50.096817	0.000679	6.791168	2.300910	0.000272
1919	1.9084e+02	-3.5839	-49.765772	0.000831	8.311579	2.816039	0.000333
1920	1.9094e+02	-3.5421	-49.454913	0.000780	7.804775	2.644329	0.000312
1921	1.9104e+02	-3.5020	-49.095608	0.000902	9.021104	3.056433	0.000361
1922	1.9114e+02	-3.4651	-48.829157	0.000669	6.689807	2.266568	0.000268
1923	1.9124e+02	-3.4234	-48.538483	0.000730	7.297971	2.472620	0.000292
1924	1.9134e+02	-3.3785	-48.191289	0.000872	8.717021	2.953407	0.000349
1925	1.9144e+02	-3.3464	-47.908690	0.000710	7.095250	2.403936	0.000284
1926	1.9154e+02	-3.2999	-47.545348	0.000912	9.122464	3.090775	0.000365
1927	1.9164e+02	-3.2694	-47.250637	0.000740	7.399332	2.506962	0.000296
1928	1.9174e+02	-3.2229	-46.887294	0.000912	9.122464	3.090775	0.000365
1929	1.9184e+02	-3.1844	-46.620844	0.000669	6.689807	2.266568	0.000268
1930	1.9194e+02	-3.1523	-46.318058	0.000760	7.602054	2.575645	0.000304
1931	1.9203e+02	-3.1090	-45.982976	0.000841	8.412939	2.850381	0.000337
1932	1.9213e+02	-3.0625	-45.664042	0.000801	8.007496	2.713013	0.000321
1933	1.9223e+02	-3.0256	-45.349146	0.000791	7.906136	2.678671	0.000316
1934	1.9233e+02	-2.9823	-45.026175	0.000811	8.108857	2.747355	0.000325
1935	1.9243e+02	-2.9390	-44.739538	0.000720	7.196611	2.438278	0.000288
1936	1.9253e+02	-2.8988	-44.396382	0.000862	8.615661	2.919065	0.000345
1937	1.9263e+02	-2.8668	-44.085522	0.000780	7.804775	2.644329	0.000312
1938	1.9273e+02	-2.8170	-43.774663	0.000780	7.804775	2.644329	0.000312
1939	1.9283e+02	-2.7866	-43.471878	0.000760	7.602054	2.575645	0.000304
1940	1.9293e+02	-2.7513	-43.177167	0.000740	7.399332	2.506962	0.000296
1941	1.9303e+02	-2.7031	-42.846122	0.000831	8.311579	2.816039	0.000333
1942	1.9313e+02	-2.6662	-42.547374	0.000750	7.500693	2.541304	0.000300
1943	1.9323e+02	-2.6213	-42.228440	0.000801	8.007496	2.713013	0.000321
1944	1.9333e+02	-2.5876	-41.925655	0.000760	7.602054	2.575645	0.000304
1945	1.9343e+02	-2.5507	-41.558275	0.000922	9.223825	3.125117	0.000369
1946	1.9353e+02	-2.5042	-41.259527	0.000750	7.500693	2.541304	0.000300
1947	1.9363e+02	-2.4689	-40.908296	0.000882	8.818382	2.987749	0.000353
1948	1.9373e+02	-2.4320	-40.605511	0.000760	7.602054	2.575645	0.000304
1949	1.9383e+02	-2.3887	-40.274466	0.000831	8.311579	2.816039	0.000333
1950	1.9393e+02	-2.3534	-39.951495	0.000811	8.108857	2.747355	0.000325
1951	1.9403e+02	-2.3117	-39.640636	0.000780	7.804775	2.644329	0.000312
1952	1.9412e+02	-2.2700	-39.341888	0.000750	7.500693	2.541304	0.000300
1953	1.9422e+02	-2.2106	-38.994694	0.000872	8.717021	2.953407	0.000349
1954	1.9432e+02	-2.1834	-38.720169	0.000689	6.892529	2.335252	0.000276
1955	1.9442e+02	-2.1433	-38.356827	0.000912	9.122464	3.090775	0.000365
1956	1.9452e+02	-2.1064	-38.058079	0.000750	7.500693	2.541304	0.000300
1957	1.9462e+02	-2.0679	-37.767405	0.000730	7.297971	2.472620	0.000292
1958	1.9472e+02	-2.0326	-37.444434	0.000811	8.108857	2.747355	0.000325
1959	1.9482e+02	-1.9973	-37.109352	0.000841	8.412939	2.850381	0.000337
1960	1.9492e+02	-1.9540	-36.818678	0.000730	7.297971	2.472620	0.000292
1961	1.9502e+02	-1.9074	-36.455336	0.000912	9.122464	3.090775	0.000365
1962	1.9512e+02	-1.8770	-36.140439	0.000791	7.906136	2.678671	0.000316
1963	1.9522e+02	-1.8256	-35.833617	0.000770	7.703414	2.609987	0.000308
1964	1.9532e+02	-1.7871	-35.490460	0.000862	8.615661	2.919065	0.000345
1965	1.9542e+02	-1.7470	-35.139229	0.000882	8.818382	2.987749	0.000353
1966	1.9552e+02	-1.7085	-34.824333	0.000791	7.906136	2.678671	0.000316
1967	1.9562e+02	-1.6780	-34.485213	0.000851	8.514300	2.884723	0.000341
1968	1.9572e+02	-1.6315	-34.166280	0.000801	8.007496	2.713013	0.000321
1969	1.9582e+02	-1.5962	-33.843309	0.000811	8.108857	2.747355	0.000325
1970	1.9592e+02	-1.5545	-33.564747	0.000699	6.993889	2.369594	0.000280
1971	1.9601e+02	-1.5080	-33.233701	0.000831	8.311579	2.816039	0.000333
1972	1.9611e+02	-1.4775	-32.914768	0.000801	8.007496	2.713013	0.000321
1973	1.9621e+02	-1.4342	-32.555463	0.000902	9.021104	3.056433	0.000361
1974	1.9631e+02	-1.3861	-32.268826	0.000720	7.196611	2.438278	0.000288
1975	1.9641e+02	-1.3363	-31.962004	0.000770	7.703414	2.609987	0.000308
1976	1.9651e+02	-1.3187	-31.590587	0.000933	9.325186	3.159458	0.000373
1977	1.9661e+02	-1.2754	-31.287802	0.000760	7.602054	2.575645	0.000304
1978	1.9671e+02	-1.2353	-30.985017	0.000760	7.602054	2.575645	0.000304
1979	1.9681e+02	-1.1968	-30.662046	0.000811	8.108857	2.747355	0.000325
1980	1.9691e+02	-1.1615	-30.351186	0.000780	7.804775	2.644329	0.000312
1981	1.9701e+02	-1.1037	-30.012067	0.000851	8.514300	2.884723	0.000341
1982	1.9711e+02	-1.0748	-29.584131	0.001074	10.744236	3.640246	0.000430
1983	1.9721e+02	-1.0379	-29.321717	0.000659	6.588446	2.232226	0.000264
1984	1.9731e+02	-0.9914	-29.002783	0.000801	8.007496	2.713013	0.000321
1985	1.9741e+02	-0.9497	-28.639441	0.000912	9.122464	3.090775	0.000365
1986	1.9751e+02	-0.9192	-28.340693	0.000750	7.500693	2.541304	0.000300
1987	1.9761e+02	-0.8647	-28.005611	0.000841	8.412939	2.850381	0.000337
1988	1.9771e+02	-0.8326	-27.678603	0.000821	8.210218	2.781697	0.000329
1989	1.9781e+02	-0.7941	-27.383892	0.000740	7.399332	2.506962	0.000296
1990	1.9791e+02	-0.7476	-27.008438	0.000943	9.426546	3.193800	0.000377
1991	1.9800e+02	-0.7219	-26.693541	0.000791	7.906136	2.678671	0.000316
1992	1.9810e+02	-0.6882	-26.459388	0.000588	5.878921	1.991833	0.000235
1993	1.9820e+02	-0.6321	-26.043563	0.001044	10.440154	3.537220	0.000418
1994	1.9830e+02	-0.5888	-25.732703	0.000780	7.804775	2.644329	0.000312
1995	1.9840e+02	-0.5567	-25.413769	0.000801	8.007496	2.713013	0.000321
1996	1.9850e+02	-0.5053	-25.135207	0.000699	6.993889	2.369594	0.000280
1997	1.9860e+02	-0.4732	-24.808199	0.000821	8.210218	2.781697	0.000329
1998	1.9870e+02	-0.4347	-24.440820	0.000922	9.223825	3.125117	0.000369
1999	1.9880e+02	-0.3882	-24.085552	0.000892	8.919743	3.022091	0.000357
2000	1.9890e+02	-0.3593	-23.790841	0.000740	7.399332	2.506962	0.000296
2001	1.9900e+02	-0.3160	-23.395202	0.000993	9.933350	3.365510	0.000398
2002	1.9910e+02	-0.2679	-23.120676	0.000689	6.892529	2.335252	0.000276
2003	1.9920e+02	-0.2246	-22.777520	0.000862	8.615661	2.919065	0.000345
2004	1.9930e+02	-0.1957	-22.426289	0.000882	8.818382	2.987749	0.000353
2005	1.9940e+02	-0.1604	-22.135615	0.000730	7.297971	2.472620	0.000292
2006	1.9950e+02	-0.1187	-21.788422	0.000872	8.717021	2.953407	0.000349
2007	1.9960e+02	-0.0658	-21.465451	0.000811	8.108857	2.747355	0.000325
2008	1.9970e+02	-0.0289	-21.118257	0.000872	8.717021	2.953407	0.000349
2009	1.9980e+02	0.0080	-20.791249	0.000872	8.717021	2.953407	0.000329

PMax (uC/cm2):	1.62e+02
Pr (uC/cm2):	1.57e+01
-Pr (uC/cm2):	-1.02e+01
PLoss (uC/cm2):	-1.02e+01
-Vc:	-1.86e+00
C (Max-Eff) (nF):	8.10e-01
K (Eff):	2.75e+03
Vert. (+/-Pr) Shift (uC/cm2):	2.76e+00
Offset (uC/cm2):	1.06e+01

A (Loop Area - uC/cm2·Volts):	1.90e-01



Hysteresis Version: 5.48.1 - Radiant Technologies, Inc., 1999 - 9/12/24

