»»»»»»»»»»»»»»»»»»»»»»»»»»»»»»»»»»»» Hysteresis ««««««««««««««««««««««««««««««««««««
»»»  Executed Version:	5.48.1
»»»  Vision Version:	5.48.4 (R)
»»»  Vision Compiled:	9/18/24
»»»  Driver Version:	5.47.0
»»»  Windows Version:	Windows 8 or 8.1
»»»  Processor Information:	x86 (AMD or Intel) - 32 Processors
»»»  Tester Name:	PMF21124-494 (100V)
»»»  Tester S/N:	PMF21124-494
»»»  Internal Amp Type:	100V RevK 270k
»»»  Internal Amp S/N:	iAB2-596/K     
»»»  Execution Count:	1
»»»»»»»»»»»»»»»»»»»»»»»»»»»»»»»»»»»»»»»»»»««««««««««««««««««««««««««««««««««««««««««

Stored:	6/18/2025 - 16:37:13
Configured:	06/18/25 09:47:30 AM
Executed:	06/18/25 04:36:26 PM

»»»»»»»»»»»»»»»»»»»»»»»»»»»»»»»»»»» Sample Info ««««««««««««««««««««««««««««««««««««
Sample Name:	
Lot Name:	
Wafer Name:	
Die Row/Column:	0/0
Capacitor Number:	0
Sample Area (cm2):	1.00e-04
Sample Thickness (microns):	3.00e-01

Amplifier:	Internal

»»»»»»»»»»»»»»»»»»»»»»»»»»»»»»»»»»» Tester Info «««««««««««««««««««««««««««««««««««
Tester Name:	PMF21124-494 (100V)
Tester Serial Number:	PMF21124-494
Return Signal Amp. Level:	0.19 [Index: 3]

»»»»»»»»»»»»»»»»»»»»»»»»»»»»»»»» Hysteresis Info ««««««««««««««««««««««««««««««««««
Task Name:	Hyst-554
Volts:	20.00
Field:	666.67 (kV/cm)
DCBias:	0.00
DCField:	0.00 (kV/cm)
Hysteresis Period (ms):	1.00e+00
Preset:	Enabled
Preset Delay (ms):	1.00e+03
Profile:	Standard Bipolar

»»»»»»»»»»»»»»»»»»»»»»»»»»»»»»»»»»»»»» Data «««««««««««««««««««««««««««««««««««««««
Points:	2001

Valid Data

Point	Time (ms)	Drive Voltage	Measured Polarization (uC/cm2)	Capacitance (uF)	Normalized Capacitance (uF/cm2)	Dielectric Constant	Instantaneous Current (mA)
   1	0.0000e+00	0.0160	-7.027674	0.001282	12.824164	4.344944	0.102441
   2	5.0000e-04	0.0337	-6.515471	0.001282	12.824164	4.344944	0.102441
   3	1.0000e-03	0.0578	-6.757457	-0.000606	-6.058660	-2.052730	-0.048397
   4	1.5000e-03	0.0914	-6.580000	0.000444	4.443017	1.505335	0.035491
   5	2.0000e-03	0.1299	-6.555802	0.000061	0.605866	0.205273	0.004840
   6	2.5000e-03	0.1733	-6.124260	0.001080	10.804610	3.660701	0.086308
   7	3.0000e-03	0.2053	-6.152492	-0.000071	-0.706844	-0.239485	-0.005646
   8	3.5000e-03	0.2519	-6.059731	0.000232	2.322486	0.786880	0.018552
   9	4.0000e-03	0.2888	-5.555593	0.001262	12.622208	4.276520	0.100827
  10	4.5000e-03	0.3321	-5.289409	0.000666	6.664526	2.258003	0.053237
  11	5.0000e-03	0.3674	-5.176482	0.000283	2.827375	0.957940	0.022585
  12	5.5000e-03	0.4123	-4.926430	0.000626	6.260615	2.121154	0.050010
  13	6.0000e-03	0.4508	-4.494888	0.001080	10.804610	3.660701	0.086308
  14	6.5000e-03	0.4893	-4.385995	0.000273	2.726397	0.923728	0.021779
  15	7.0000e-03	0.5294	-4.144009	0.000606	6.058660	2.052730	0.048397
  16	7.5000e-03	0.5775	-4.297267	-0.000384	-3.837151	-1.300062	-0.030652
  17	8.0000e-03	0.5952	-3.732633	0.001414	14.136873	4.789702	0.112927
  18	8.5000e-03	0.6481	-3.284959	0.001121	11.208521	3.797550	0.089535
  19	9.0000e-03	0.6882	-3.103469	0.000454	4.543995	1.539547	0.036298
  20	9.5000e-03	0.7267	-3.115569	-0.000030	-0.302933	-0.102636	-0.002420
  21	1.0000e-02	0.7668	-2.978443	0.000343	3.433241	1.163213	0.027425
  22	1.0500e-02	0.8214	-2.631597	0.000868	8.684079	2.942246	0.069369
  23	1.1000e-02	0.8518	-2.474306	0.000394	3.938129	1.334274	0.031458
  24	1.1500e-02	0.8903	-2.187956	0.000717	7.169414	2.429063	0.057270
  25	1.2000e-02	0.9289	-1.853209	0.000838	8.381146	2.839609	0.066949
  26	1.2500e-02	0.9609	-1.425700	0.001070	10.703633	3.626489	0.085502
  27	1.3000e-02	1.0026	-1.155483	0.000677	6.765504	2.292215	0.054044
  28	1.3500e-02	1.0508	-1.086920	0.000172	1.716620	0.581607	0.013713
  29	1.4000e-02	1.0909	-0.780405	0.000767	7.674303	2.600124	0.061303
  30	1.4500e-02	1.1278	-0.691676	0.000222	2.221509	0.752668	0.017746
  31	1.5000e-02	1.1711	-0.490021	0.000505	5.048883	1.710608	0.040331
  32	1.5500e-02	1.2128	-0.163340	0.000818	8.179191	2.771185	0.065336
  33	1.6000e-02	1.2449	0.147208	0.000778	7.775280	2.634336	0.062110
  34	1.6500e-02	1.2914	0.235936	0.000222	2.221509	0.752668	0.017746
  35	1.7000e-02	1.3379	0.473889	0.000596	5.957682	2.018517	0.047591
  36	1.7500e-02	1.3684	0.594882	0.000303	3.029330	1.026365	0.024199
  37	1.8000e-02	1.4101	1.099019	0.001262	12.622208	4.276520	0.100827
  38	1.8500e-02	1.4534	1.385369	0.000717	7.169414	2.429063	0.057270
  39	1.9000e-02	1.4951	1.578958	0.000485	4.846928	1.642184	0.038718
  40	1.9500e-02	1.5192	1.671719	0.000232	2.322486	0.786880	0.018552
  41	2.0000e-02	1.5641	1.990334	0.000798	7.977236	2.702761	0.063723
  42	2.0500e-02	1.6074	2.288783	0.000747	7.472347	2.531700	0.059690
  43	2.1000e-02	1.6492	2.381545	0.000232	2.322486	0.786880	0.018552
  44	2.1500e-02	1.6957	2.684027	0.000757	7.573325	2.565912	0.060496
  45	2.2000e-02	1.7197	3.051039	0.000919	9.188968	3.113307	0.073402
  46	2.2500e-02	1.7550	3.397886	0.000868	8.684079	2.942246	0.069369
  47	2.3000e-02	1.8048	3.579375	0.000454	4.543995	1.539547	0.036298
  48	2.3500e-02	1.8609	3.740699	0.000404	4.039107	1.368486	0.032265
  49	2.4000e-02	1.8962	3.934288	0.000485	4.846928	1.642184	0.038718
  50	2.4500e-02	1.9315	4.260969	0.000818	8.179191	2.771185	0.065336
  51	2.5000e-02	1.9700	4.240803	-0.000050	-0.504888	-0.171061	-0.004033
  52	2.5500e-02	2.0133	4.684444	0.001111	11.107543	3.763338	0.088728
  53	2.6000e-02	2.0502	4.999026	0.000788	7.876258	2.668548	0.062916
  54	2.6500e-02	2.0871	5.091787	0.000232	2.322486	0.786880	0.018552
  55	2.7000e-02	2.1288	5.608024	0.001293	12.925141	4.379156	0.103247
  56	2.7500e-02	2.1721	5.640288	0.000081	0.807821	0.273697	0.006453
  57	2.8000e-02	2.2187	6.047631	0.001020	10.198744	3.455428	0.081469
  58	2.8500e-02	2.2604	6.200889	0.000384	3.837151	1.300062	0.030652
  59	2.9000e-02	2.2989	6.390445	0.000475	4.745950	1.607972	0.037911
  60	2.9500e-02	2.3293	6.729225	0.000848	8.482124	2.873821	0.067756
  61	3.0000e-02	2.3662	6.991376	0.000656	6.563548	2.223790	0.052430
  62	3.0500e-02	2.4096	7.217230	0.000565	5.654749	1.915881	0.045171
  63	3.1000e-02	2.4449	7.495514	0.000697	6.967459	2.360639	0.055657
  64	3.1500e-02	2.4898	7.668937	0.000434	4.342040	1.471123	0.034685
  65	3.2000e-02	2.5411	7.878658	0.000525	5.250839	1.779032	0.041944
  66	3.2500e-02	2.5716	8.044015	0.000414	4.140084	1.402699	0.033071
  67	3.3000e-02	2.6165	8.302133	0.000646	6.462571	2.189578	0.051624
  68	3.3500e-02	2.6566	8.443292	0.000353	3.534218	1.197426	0.028232
  69	3.4000e-02	2.6903	8.681245	0.000596	5.957682	2.018517	0.047591
  70	3.4500e-02	2.7352	9.007926	0.000818	8.179191	2.771185	0.065336
  71	3.5000e-02	2.7641	9.229746	0.000555	5.553772	1.881669	0.044364
  72	3.5500e-02	2.8010	9.774214	0.001363	13.631985	4.618642	0.108894
  73	3.6000e-02	2.8491	10.064598	0.000727	7.270392	2.463275	0.058077
  74	3.6500e-02	2.8924	9.979902	-0.000212	-2.120531	-0.718455	-0.016939
  75	3.7000e-02	2.9293	10.185591	0.000515	5.149861	1.744820	0.041138
  76	3.7500e-02	2.9791	10.463874	0.000697	6.967459	2.360639	0.055657
  77	3.8000e-02	3.0015	10.681662	0.000545	5.452794	1.847457	0.043557
  78	3.8500e-02	3.0609	11.024475	0.000858	8.583102	2.908034	0.068563
  79	3.9000e-02	3.0978	11.500381	0.001192	11.915365	4.037035	0.095181
  80	3.9500e-02	3.1331	11.669771	0.000424	4.241062	1.436911	0.033878
  81	4.0000e-02	3.1716	11.871426	0.000505	5.048883	1.710608	0.040331
  82	4.0500e-02	3.2213	12.044849	0.000434	4.342040	1.471123	0.034685
  83	4.1000e-02	3.2438	12.331199	0.000717	7.169414	2.429063	0.057270
  84	4.1500e-02	3.2887	12.553019	0.000555	5.553772	1.881669	0.044364
  85	4.2000e-02	3.3288	12.863568	0.000778	7.775280	2.634336	0.062110
  86	4.2500e-02	3.3769	12.932131	0.000172	1.716620	0.581607	0.013713
  87	4.3000e-02	3.4058	13.347540	0.001040	10.400700	3.523852	0.083082
  88	4.3500e-02	3.4523	13.730684	0.000959	9.592878	3.250155	0.076629
  89	4.4000e-02	3.4972	14.017034	0.000717	7.169414	2.429063	0.057270
  90	4.4500e-02	3.5357	14.170292	0.000384	3.837151	1.300062	0.030652
  91	4.5000e-02	3.5726	14.448576	0.000697	6.967459	2.360639	0.055657
  92	4.5500e-02	3.6111	14.678462	0.000576	5.755727	1.950093	0.045977
  93	4.6000e-02	3.6480	14.948680	0.000677	6.765504	2.292215	0.054044
  94	4.6500e-02	3.6929	15.025309	0.000192	1.918576	0.650031	0.015326
  95	4.7000e-02	3.7363	15.335857	0.000778	7.775280	2.634336	0.062110
  96	4.7500e-02	3.7716	15.723035	0.000969	9.693856	3.284367	0.077435
  97	4.8000e-02	3.8149	15.888392	0.000414	4.140084	1.402699	0.033071
  98	4.8500e-02	3.8486	16.198941	0.000778	7.775280	2.634336	0.062110
  99	4.9000e-02	3.8951	16.501423	0.000757	7.573325	2.565912	0.060496
 100	4.9500e-02	3.9304	16.880534	0.000949	9.491901	3.215943	0.075822
 101	5.0000e-02	3.9705	17.178983	0.000747	7.472347	2.531700	0.059690
 102	5.0500e-02	4.0138	17.178983	0.000000	0.000000	0.000000	0.000000
 103	5.1000e-02	4.0507	17.352407	0.000434	4.342040	1.471123	0.034685
 104	5.1500e-02	4.0924	17.860577	0.001272	12.723186	4.310732	0.101634
 105	5.2000e-02	4.1325	18.231622	0.000929	9.289945	3.147519	0.074209
 106	5.2500e-02	4.1694	18.477641	0.000616	6.159638	2.086942	0.049204
 107	5.3000e-02	4.2143	18.469575	-0.000020	-0.201955	-0.068424	-0.001613
 108	5.3500e-02	4.2528	18.763991	0.000737	7.371370	2.497488	0.058883
 109	5.4000e-02	4.2881	19.126970	0.000909	9.087990	3.079094	0.072596
 110	5.4500e-02	4.3298	19.276195	0.000374	3.736174	1.265850	0.029845
 111	5.5000e-02	4.3715	19.635141	0.000899	8.987012	3.044882	0.071789
 112	5.5500e-02	4.4148	19.731935	0.000242	2.423464	0.821092	0.019359
 113	5.6000e-02	4.4469	20.264304	0.001333	13.329052	4.516005	0.106474
 114	5.6500e-02	4.4886	20.506290	0.000606	6.058660	2.052730	0.048397
 115	5.7000e-02	4.5336	20.647448	0.000353	3.534218	1.197426	0.028232
 116	5.7500e-02	4.5753	20.837004	0.000475	4.745950	1.607972	0.037911
 117	5.8000e-02	4.6154	21.272579	0.001091	10.905588	3.694913	0.087115
 118	5.8500e-02	4.6507	21.385505	0.000283	2.827375	0.957940	0.022585
 119	5.9000e-02	4.6795	21.692021	0.000767	7.674303	2.600124	0.061303
 120	5.9500e-02	4.7277	22.050967	0.000899	8.987012	3.044882	0.071789
 121	6.0000e-02	4.7774	22.240522	0.000475	4.745950	1.607972	0.037911
 122	6.0500e-02	4.8111	22.579303	0.000848	8.482124	2.873821	0.067756
 123	6.1000e-02	4.8560	22.946314	0.000919	9.188968	3.113307	0.073402
 124	6.1500e-02	4.8865	23.067307	0.000303	3.029330	1.026365	0.024199
 125	6.2000e-02	4.9298	23.446419	0.000949	9.491901	3.215943	0.075822
 126	6.2500e-02	4.9699	23.539180	0.000232	2.322486	0.786880	0.018552
 127	6.3000e-02	5.0100	23.720669	0.000454	4.543995	1.539547	0.036298
 128	6.3500e-02	5.0630	24.051384	0.000828	8.280169	2.805397	0.066143
 129	6.4000e-02	5.0918	24.394197	0.000858	8.583102	2.908034	0.068563
 130	6.4500e-02	5.1271	24.704745	0.000778	7.775280	2.634336	0.062110
 131	6.5000e-02	5.1672	25.067724	0.000909	9.087990	3.079094	0.072596
 132	6.5500e-02	5.2186	25.225015	0.000394	3.938129	1.334274	0.031458
 133	6.6000e-02	5.2523	25.515398	0.000727	7.270392	2.463275	0.058077
 134	6.6500e-02	5.2956	25.616226	0.000252	2.524442	0.855304	0.020165
 135	6.7000e-02	5.3261	26.015503	0.001000	9.996789	3.387004	0.079855
 136	6.7500e-02	5.3646	26.301853	0.000717	7.169414	2.429063	0.057270
 137	6.8000e-02	5.4143	26.676931	0.000939	9.390923	3.181731	0.075016
 138	6.8500e-02	5.4416	26.878586	0.000505	5.048883	1.710608	0.040331
 139	6.9000e-02	5.4929	27.080241	0.000505	5.048883	1.710608	0.040331
 140	6.9500e-02	5.5234	27.503716	0.001060	10.602655	3.592277	0.084695
 141	7.0000e-02	5.5763	27.745702	0.000606	6.058660	2.052730	0.048397
 142	7.0500e-02	5.6036	27.886860	0.000353	3.534218	1.197426	0.028232
 143	7.1000e-02	5.6565	28.233707	0.000868	8.684079	2.942246	0.069369
 144	7.1500e-02	5.6918	28.370832	0.000343	3.433241	1.163213	0.027425
 145	7.2000e-02	5.7335	28.806407	0.001091	10.905588	3.694913	0.087115
 146	7.2500e-02	5.7624	29.032260	0.000565	5.654749	1.915881	0.045171
 147	7.3000e-02	5.8121	29.157286	0.000313	3.130308	1.060577	0.025005
 148	7.3500e-02	5.8490	29.617060	0.001151	11.511454	3.900186	0.091955
 149	7.4000e-02	5.8875	29.859046	0.000606	6.058660	2.052730	0.048397
 150	7.4500e-02	5.9357	30.133296	0.000687	6.866481	2.326427	0.054850
 151	7.5000e-02	5.9726	30.391415	0.000646	6.462571	2.189578	0.051624
 152	7.5500e-02	6.0143	30.714062	0.000808	8.078213	2.736973	0.064530
 153	7.6000e-02	6.0544	30.964115	0.000626	6.260615	2.121154	0.050010
 154	7.6500e-02	6.0929	31.169803	0.000515	5.149861	1.744820	0.041138
 155	7.7000e-02	6.1282	31.456153	0.000717	7.169414	2.429063	0.057270
 156	7.7500e-02	6.1763	31.794933	0.000848	8.482124	2.873821	0.067756
 157	7.8000e-02	6.2196	31.919959	0.000313	3.130308	1.060577	0.025005
 158	7.8500e-02	6.2469	32.295037	0.000939	9.390923	3.181731	0.075016
 159	7.9000e-02	6.2950	32.658016	0.000909	9.087990	3.079094	0.072596
 160	7.9500e-02	6.3271	33.029061	0.000929	9.289945	3.147519	0.074209
 161	8.0000e-02	6.3720	33.097624	0.000172	1.716620	0.581607	0.013713
 162	8.0500e-02	6.4185	33.408172	0.000778	7.775280	2.634336	0.062110
 163	8.1000e-02	6.4490	33.972806	0.001414	14.136873	4.789702	0.112927
 164	8.1500e-02	6.4955	33.960707	-0.000030	-0.302933	-0.102636	-0.002420
 165	8.2000e-02	6.5228	34.271255	0.000778	7.775280	2.634336	0.062110
 166	8.2500e-02	6.5661	34.545506	0.000687	6.866481	2.326427	0.054850
 167	8.3000e-02	6.6062	34.860088	0.000788	7.876258	2.668548	0.062916
 168	8.3500e-02	6.6511	35.033511	0.000434	4.342040	1.471123	0.034685
 169	8.4000e-02	6.6977	35.364225	0.000828	8.280169	2.805397	0.066143
 170	8.4500e-02	6.7330	35.735270	0.000929	9.289945	3.147519	0.074209
 171	8.5000e-02	6.7683	36.126481	0.000979	9.794834	3.318579	0.078242
 172	8.5500e-02	6.8164	36.372500	0.000616	6.159638	2.086942	0.049204
 173	8.6000e-02	6.8517	36.562055	0.000475	4.745950	1.607972	0.037911
 174	8.6500e-02	6.8870	36.723379	0.000404	4.039107	1.368486	0.032265
 175	8.7000e-02	6.9319	36.949233	0.000565	5.654749	1.915881	0.045171
 176	8.7500e-02	6.9720	37.219450	0.000677	6.765504	2.292215	0.054044
 177	8.8000e-02	7.0201	37.554198	0.000838	8.381146	2.839609	0.066949
 178	8.8500e-02	7.0426	37.788117	0.000586	5.856705	1.984305	0.046784
 179	8.9000e-02	7.0891	38.106732	0.000798	7.977236	2.702761	0.063723
 180	8.9500e-02	7.1228	38.280155	0.000434	4.342040	1.471123	0.034685
 181	9.0000e-02	7.1773	38.643134	0.000909	9.087990	3.079094	0.072596
 182	9.0500e-02	7.2110	38.868988	0.000565	5.654749	1.915881	0.045171
 183	9.1000e-02	7.2527	39.268265	0.001000	9.996789	3.387004	0.079855
 184	9.1500e-02	7.2977	39.356993	0.000222	2.221509	0.752668	0.017746
 185	9.2000e-02	7.3362	39.719972	0.000909	9.087990	3.079094	0.072596
 186	9.2500e-02	7.3747	40.191844	0.001181	11.814387	4.002823	0.094375
 187	9.3000e-02	7.4035	40.490293	0.000747	7.472347	2.531700	0.059690
 188	9.3500e-02	7.4452	40.687915	0.000495	4.947906	1.676396	0.039524
 189	9.4000e-02	7.4757	40.986365	0.000747	7.472347	2.531700	0.059690
 190	9.4500e-02	7.5319	41.179953	0.000485	4.846928	1.642184	0.038718
 191	9.5000e-02	7.5624	41.583263	0.001010	10.097767	3.421216	0.080662
 192	9.5500e-02	7.6169	42.143864	0.001404	14.035896	4.755490	0.112120
 193	9.6000e-02	7.6538	42.115632	-0.000071	-0.706844	-0.239485	-0.005646
 194	9.6500e-02	7.6859	42.333419	0.000545	5.452794	1.847457	0.043557
 195	9.7000e-02	7.7340	42.559273	0.000565	5.654749	1.915881	0.045171
 196	9.7500e-02	7.7629	42.861755	0.000757	7.573325	2.565912	0.060496
 197	9.8000e-02	7.8030	43.377992	0.001293	12.925141	4.379156	0.103247
 198	9.8500e-02	7.8511	43.559481	0.000454	4.543995	1.539547	0.036298
 199	9.9000e-02	7.8896	43.773236	0.000535	5.351816	1.813244	0.042751
 200	9.9500e-02	7.9345	44.148314	0.000939	9.390923	3.181731	0.075016
 201	1.0000e-01	7.9714	44.479028	0.000828	8.280169	2.805397	0.066143
 202	1.0050e-01	8.0083	44.583888	0.000263	2.625419	0.889516	0.020972
 203	1.0100e-01	8.0532	45.055761	0.001181	11.814387	4.002823	0.094375
 204	1.0150e-01	8.0966	45.398574	0.000858	8.583102	2.908034	0.068563
 205	1.0200e-01	8.1319	45.559898	0.000404	4.039107	1.368486	0.032265
 206	1.0250e-01	8.1752	45.600229	0.000101	1.009777	0.342122	0.008066
 207	1.0300e-01	8.2137	45.943043	0.000858	8.583102	2.908034	0.068563
 208	1.0350e-01	8.2554	46.447180	0.001262	12.622208	4.276520	0.100827
 209	1.0400e-01	8.2875	46.761762	0.000788	7.876258	2.668548	0.062916
 210	1.0450e-01	8.3324	46.927119	0.000414	4.140084	1.402699	0.033071
 211	1.0500e-01	8.3773	47.322362	0.000990	9.895811	3.352792	0.079049
 212	1.0550e-01	8.4174	47.382859	0.000151	1.514665	0.513182	0.012099
 213	1.0600e-01	8.4479	47.782136	0.001000	9.996789	3.387004	0.079855
 214	1.0650e-01	8.4944	48.016055	0.000586	5.856705	1.984305	0.046784
 215	1.0700e-01	8.5361	48.245942	0.000576	5.755727	1.950093	0.045977
 216	1.0750e-01	8.5666	48.548424	0.000757	7.573325	2.565912	0.060496
 217	1.0800e-01	8.6131	48.673450	0.000313	3.130308	1.060577	0.025005
 218	1.0850e-01	8.6580	49.145323	0.001181	11.814387	4.002823	0.094375
 219	1.0900e-01	8.6901	49.484103	0.000848	8.482124	2.873821	0.067756
 220	1.0950e-01	8.7399	49.685758	0.000505	5.048883	1.710608	0.040331
 221	1.1000e-01	8.7719	49.996307	0.000778	7.775280	2.634336	0.062110
 222	1.1050e-01	8.8169	50.419782	0.001060	10.602655	3.592277	0.084695
 223	1.1100e-01	8.8570	50.641603	0.000555	5.553772	1.881669	0.044364
 224	1.1150e-01	8.8971	50.851324	0.000525	5.250839	1.779032	0.041944
 225	1.1200e-01	8.9324	51.173972	0.000808	8.078213	2.736973	0.064530
 226	1.1250e-01	8.9709	51.549050	0.000939	9.390923	3.181731	0.075016
 227	1.1300e-01	9.0126	51.750705	0.000505	5.048883	1.710608	0.040331
 228	1.1350e-01	9.0559	52.355670	0.001515	15.146650	5.131824	0.120993
 229	1.1400e-01	9.0848	52.222577	-0.000333	-3.332263	-1.129001	-0.026618
 230	1.1450e-01	9.1265	52.565391	0.000858	8.583102	2.908034	0.068563
 231	1.1500e-01	9.1794	52.855774	0.000727	7.270392	2.463275	0.058077
 232	1.1550e-01	9.2195	52.988866	0.000333	3.332263	1.129001	0.026618
 233	1.1600e-01	9.2628	53.283282	0.000737	7.371370	2.497488	0.058883
 234	1.1650e-01	9.2997	53.480904	0.000495	4.947906	1.676396	0.039524
 235	1.1700e-01	9.3350	53.972942	0.001232	12.319275	4.173883	0.098408
 236	1.1750e-01	9.3783	54.279458	0.000767	7.674303	2.600124	0.061303
 237	1.1800e-01	9.4136	54.618238	0.000848	8.482124	2.873821	0.067756
 238	1.1850e-01	9.4473	54.868290	0.000626	6.260615	2.121154	0.050010
 239	1.1900e-01	9.4987	55.029614	0.000404	4.039107	1.368486	0.032265
 240	1.1950e-01	9.5291	55.412758	0.000959	9.592878	3.250155	0.076629
 241	1.2000e-01	9.5709	55.795903	0.000959	9.592878	3.250155	0.076629
 242	1.2050e-01	9.6142	55.981425	0.000464	4.644973	1.573759	0.037105
 243	1.2100e-01	9.6479	56.360536	0.000949	9.491901	3.215943	0.075822
 244	1.2150e-01	9.6960	56.695284	0.000838	8.381146	2.839609	0.066949
 245	1.2200e-01	9.7377	56.876773	0.000454	4.543995	1.539547	0.036298
 246	1.2250e-01	9.7746	57.179255	0.000757	7.573325	2.565912	0.060496
 247	1.2300e-01	9.8115	57.477705	0.000747	7.472347	2.531700	0.059690
 248	1.2350e-01	9.8564	57.800353	0.000808	8.078213	2.736973	0.064530
 249	1.2400e-01	9.8869	58.074603	0.000687	6.866481	2.326427	0.054850
 250	1.2450e-01	9.9254	58.477913	0.001010	10.097767	3.421216	0.080662
 251	1.2500e-01	9.9703	58.776362	0.000747	7.472347	2.531700	0.059690
 252	1.2550e-01	10.0152	59.143374	0.000919	9.188968	3.113307	0.073402
 253	1.2600e-01	10.0585	58.949786	-0.000485	-4.846928	-1.642184	-0.038718
 254	1.2650e-01	10.0954	59.526519	0.001444	14.439806	4.892339	0.115347
 255	1.2700e-01	10.1339	59.849167	0.000808	8.078213	2.736973	0.064530
 256	1.2750e-01	10.1644	60.409767	0.001404	14.035896	4.755490	0.112120
 257	1.2800e-01	10.2142	60.502529	0.000232	2.322486	0.786880	0.018552
 258	1.2850e-01	10.2478	60.591257	0.000222	2.221509	0.752668	0.017746
 259	1.2900e-01	10.2928	60.889706	0.000747	7.472347	2.531700	0.059690
 260	1.2950e-01	10.3216	61.224453	0.000838	8.381146	2.839609	0.066949
 261	1.3000e-01	10.3746	61.224453	0.000000	0.000000	0.000000	0.000000
 262	1.3050e-01	10.4002	61.768922	0.001363	13.631985	4.618642	0.108894
 263	1.3100e-01	10.4580	62.039139	0.000677	6.765504	2.292215	0.054044
 264	1.3150e-01	10.4885	62.305324	0.000666	6.664526	2.258003	0.053237
 265	1.3200e-01	10.5366	62.579574	0.000687	6.866481	2.326427	0.054850
 266	1.3250e-01	10.5783	62.894156	0.000788	7.876258	2.668548	0.062916
 267	1.3300e-01	10.6168	63.176473	0.000707	7.068437	2.394851	0.056463
 268	1.3350e-01	10.6537	63.370062	0.000485	4.846928	1.642184	0.038718
 269	1.3400e-01	10.6986	63.837901	0.001171	11.713409	3.968611	0.093568
 270	1.3450e-01	10.7275	64.087953	0.000626	6.260615	2.121154	0.050010
 271	1.3500e-01	10.7724	64.386403	0.000747	7.472347	2.531700	0.059690
 272	1.3550e-01	10.8093	64.741315	0.000889	8.886035	3.010670	0.070983
 273	1.3600e-01	10.8430	65.152691	0.001030	10.299722	3.489640	0.082275
 274	1.3650e-01	10.8927	65.301916	0.000374	3.736174	1.265850	0.029845
 275	1.3700e-01	10.9393	65.374512	0.000182	1.817598	0.615819	0.014519
 276	1.3750e-01	10.9778	65.878649	0.001262	12.622208	4.276520	0.100827
 277	1.3800e-01	11.0082	66.084337	0.000515	5.149861	1.744820	0.041138
 278	1.3850e-01	11.0516	66.439250	0.000889	8.886035	3.010670	0.070983
 279	1.3900e-01	11.0933	66.648971	0.000525	5.250839	1.779032	0.041944
 280	1.3950e-01	11.1318	67.032115	0.000959	9.592878	3.250155	0.076629
 281	1.4000e-01	11.1735	67.318465	0.000717	7.169414	2.429063	0.057270
 282	1.4050e-01	11.2136	67.528186	0.000525	5.250839	1.779032	0.041944
 283	1.4100e-01	11.2537	67.766139	0.000596	5.957682	2.018517	0.047591
 284	1.4150e-01	11.2954	67.943596	0.000444	4.443017	1.505335	0.035491
 285	1.4200e-01	11.3307	68.363038	0.001050	10.501677	3.558065	0.083888
 286	1.4250e-01	11.3628	68.653421	0.000727	7.270392	2.463275	0.058077
 287	1.4300e-01	11.4077	69.137393	0.001212	12.117320	4.105459	0.096794
 288	1.4350e-01	11.4574	69.246286	0.000273	2.726397	0.923728	0.021779
 289	1.4400e-01	11.4831	69.496339	0.000626	6.260615	2.121154	0.050010
 290	1.4450e-01	11.5344	69.875450	0.000949	9.491901	3.215943	0.075822
 291	1.4500e-01	11.5633	70.407819	0.001333	13.329052	4.516005	0.106474
 292	1.4550e-01	11.6146	70.649805	0.000606	6.058660	2.052730	0.048397
 293	1.4600e-01	11.6580	70.754665	0.000263	2.625419	0.889516	0.020972
 294	1.4650e-01	11.6965	70.799029	0.000111	1.110754	0.376334	0.008873
 295	1.4700e-01	11.7334	71.198306	0.001000	9.996789	3.387004	0.079855
 296	1.4750e-01	11.7783	71.379796	0.000454	4.543995	1.539547	0.036298
 297	1.4800e-01	11.8104	71.690344	0.000778	7.775280	2.634336	0.062110
 298	1.4850e-01	11.8505	72.089621	0.001000	9.996789	3.387004	0.079855
 299	1.4900e-01	11.8858	72.375971	0.000717	7.169414	2.429063	0.057270
 300	1.4950e-01	11.9371	72.714751	0.000848	8.482124	2.873821	0.067756
 301	1.5000e-01	11.9788	72.831711	0.000293	2.928352	0.992153	0.023392
 302	1.5050e-01	12.0157	73.198723	0.000919	9.188968	3.113307	0.073402
 303	1.5100e-01	12.0478	73.618165	0.001050	10.501677	3.558065	0.083888
 304	1.5150e-01	12.1023	73.819820	0.000505	5.048883	1.710608	0.040331
 305	1.5200e-01	12.1264	74.102137	0.000707	7.068437	2.394851	0.056463
 306	1.5250e-01	12.1761	74.444951	0.000858	8.583102	2.908034	0.068563
 307	1.5300e-01	12.2114	74.739367	0.000737	7.371370	2.497488	0.058883
 308	1.5350e-01	12.2547	74.916823	0.000444	4.443017	1.505335	0.035491
 309	1.5400e-01	12.2900	75.291901	0.000939	9.390923	3.181731	0.075016
 310	1.5450e-01	12.3333	75.541953	0.000626	6.260615	2.121154	0.050010
 311	1.5500e-01	12.3783	75.751674	0.000525	5.250839	1.779032	0.041944
 312	1.5550e-01	12.4087	76.046091	0.000737	7.371370	2.497488	0.058883
 313	1.5600e-01	12.4537	76.292110	0.000616	6.159638	2.086942	0.049204
 314	1.5650e-01	12.4857	76.578460	0.000717	7.169414	2.429063	0.057270
 315	1.5700e-01	12.5307	76.743817	0.000414	4.140084	1.402699	0.033071
 316	1.5750e-01	12.5788	77.304417	0.001404	14.035896	4.755490	0.112120
 317	1.5800e-01	12.6109	77.578668	0.000687	6.866481	2.326427	0.054850
 318	1.5850e-01	12.6462	77.929548	0.000879	8.785057	2.976458	0.070176
 319	1.5900e-01	12.6847	78.163467	0.000586	5.856705	1.984305	0.046784
 320	1.5950e-01	12.7296	78.304626	0.000353	3.534218	1.197426	0.028232
 321	1.6000e-01	12.7793	78.530479	0.000565	5.654749	1.915881	0.045171
 322	1.6050e-01	12.8114	78.941855	0.001030	10.299722	3.489640	0.082275
 323	1.6100e-01	12.8483	79.204007	0.000656	6.563548	2.223790	0.052430
 324	1.6150e-01	12.8948	79.861402	0.001646	16.459360	5.576582	0.131479
 325	1.6200e-01	12.9349	79.833170	-0.000071	-0.706844	-0.239485	-0.005646
 326	1.6250e-01	12.9702	80.091289	0.000646	6.462571	2.189578	0.051624
 327	1.6300e-01	13.0039	80.486532	0.000990	9.895811	3.352792	0.079049
 328	1.6350e-01	13.0488	80.784982	0.000747	7.472347	2.531700	0.059690
 329	1.6400e-01	13.0937	80.869677	0.000212	2.120531	0.718455	0.016939
 330	1.6450e-01	13.1306	81.143927	0.000687	6.866481	2.326427	0.054850
 331	1.6500e-01	13.1659	81.478675	0.000838	8.381146	2.839609	0.066949
 332	1.6550e-01	13.2028	81.865852	0.000969	9.693856	3.284367	0.077435
 333	1.6600e-01	13.2413	82.184467	0.000798	7.977236	2.702761	0.063723
 334	1.6650e-01	13.2943	82.374022	0.000475	4.745950	1.607972	0.037911
 335	1.6700e-01	13.3280	82.720869	0.000868	8.684079	2.942246	0.069369
 336	1.6750e-01	13.3777	83.047550	0.000818	8.179191	2.771185	0.065336
 337	1.6800e-01	13.4066	83.220973	0.000434	4.342040	1.471123	0.034685
 338	1.6850e-01	13.4483	83.628316	0.001020	10.198744	3.455428	0.081469
 339	1.6900e-01	13.4884	83.854170	0.000565	5.654749	1.915881	0.045171
 340	1.6950e-01	13.5333	84.140520	0.000717	7.169414	2.429063	0.057270
 341	1.7000e-01	13.5814	84.313943	0.000434	4.342040	1.471123	0.034685
 342	1.7050e-01	13.6023	84.717253	0.001010	10.097767	3.421216	0.080662
 343	1.7100e-01	13.6424	84.882610	0.000414	4.140084	1.402699	0.033071
 344	1.7150e-01	13.6889	85.068132	0.000464	4.644973	1.573759	0.037105
 345	1.7200e-01	13.7290	85.540005	0.001181	11.814387	4.002823	0.094375
 346	1.7250e-01	13.7627	85.838454	0.000747	7.472347	2.531700	0.059690
 347	1.7300e-01	13.8044	86.185301	0.000868	8.684079	2.942246	0.069369
 348	1.7350e-01	13.8493	86.471651	0.000717	7.169414	2.429063	0.057270
 349	1.7400e-01	13.8814	86.661206	0.000475	4.745950	1.607972	0.037911
 350	1.7450e-01	13.9231	87.096781	0.001091	10.905588	3.694913	0.087115
 351	1.7500e-01	13.9697	87.225840	0.000323	3.231285	1.094789	0.025812
 352	1.7550e-01	14.0050	87.504124	0.000697	6.967459	2.360639	0.055657
 353	1.7600e-01	14.0451	87.859037	0.000889	8.886035	3.010670	0.070983
 354	1.7650e-01	14.0932	88.012294	0.000384	3.837151	1.300062	0.030652
 355	1.7700e-01	14.1301	88.298644	0.000717	7.169414	2.429063	0.057270
 356	1.7750e-01	14.1750	88.516432	0.000545	5.452794	1.847457	0.043557
 357	1.7800e-01	14.2103	88.972172	0.001141	11.410476	3.865974	0.091148
 358	1.7850e-01	14.2520	89.141562	0.000424	4.241062	1.436911	0.033878
 359	1.7900e-01	14.2921	89.435978	0.000737	7.371370	2.497488	0.058883
 360	1.7950e-01	14.3322	89.730394	0.000737	7.371370	2.497488	0.058883
 361	1.8000e-01	14.3611	89.899784	0.000424	4.241062	1.436911	0.033878
 362	1.8050e-01	14.4108	90.182101	0.000707	7.068437	2.394851	0.056463
 363	1.8100e-01	14.4477	90.585411	0.001010	10.097767	3.421216	0.080662
 364	1.8150e-01	14.4958	90.831430	0.000616	6.159638	2.086942	0.049204
 365	1.8200e-01	14.5295	91.392031	0.001404	14.035896	4.755490	0.112120
 366	1.8250e-01	14.5745	91.456560	0.000162	1.615643	0.547395	0.012906
 367	1.8300e-01	14.6114	91.541256	0.000212	2.120531	0.718455	0.016939
 368	1.8350e-01	14.6499	92.077658	0.001343	13.430030	4.550217	0.107280
 369	1.8400e-01	14.6948	92.364008	0.000717	7.169414	2.429063	0.057270
 370	1.8450e-01	14.7301	92.739086	0.000939	9.390923	3.181731	0.075016
 371	1.8500e-01	14.7782	92.948807	0.000525	5.250839	1.779032	0.041944
 372	1.8550e-01	14.8151	93.194826	0.000616	6.159638	2.086942	0.049204
 373	1.8600e-01	14.8504	93.497308	0.000757	7.573325	2.565912	0.060496
 374	1.8650e-01	14.8841	93.860287	0.000909	9.087990	3.079094	0.072596
 375	1.8700e-01	14.9306	94.029677	0.000424	4.241062	1.436911	0.033878
 376	1.8750e-01	14.9659	94.065975	0.000091	0.908799	0.307909	0.007260
 377	1.8800e-01	15.0044	94.626576	0.001404	14.035896	4.755490	0.112120
 378	1.8850e-01	15.0541	94.808065	0.000454	4.543995	1.539547	0.036298
 379	1.8900e-01	15.0814	95.195243	0.000969	9.693856	3.284367	0.077435
 380	1.8950e-01	15.1263	95.489659	0.000737	7.371370	2.497488	0.058883
 381	1.9000e-01	15.1648	95.590487	0.000252	2.524442	0.855304	0.020165
 382	1.9050e-01	15.2017	95.880870	0.000727	7.270392	2.463275	0.058077
 383	1.9100e-01	15.2482	96.219650	0.000848	8.482124	2.873821	0.067756
 384	1.9150e-01	15.3028	96.526165	0.000767	7.674303	2.600124	0.061303
 385	1.9200e-01	15.3236	96.969806	0.001111	11.107543	3.763338	0.088728
 386	1.9250e-01	15.3798	96.969806	0.000000	0.000000	0.000000	0.000000
 387	1.9300e-01	15.4071	97.373116	0.001010	10.097767	3.421216	0.080662
 388	1.9350e-01	15.4520	97.598970	0.000565	5.654749	1.915881	0.045171
 389	1.9400e-01	15.4985	97.929684	0.000828	8.280169	2.805397	0.066143
 390	1.9450e-01	15.5258	98.183769	0.000636	6.361593	2.155366	0.050817
 391	1.9500e-01	15.5739	98.671774	0.001222	12.218298	4.139671	0.097601
 392	1.9550e-01	15.6092	98.833098	0.000404	4.039107	1.368486	0.032265
 393	1.9600e-01	15.6605	98.998455	0.000414	4.140084	1.402699	0.033071
 394	1.9650e-01	15.6974	99.192044	0.000485	4.846928	1.642184	0.038718
 395	1.9700e-01	15.7295	99.587287	0.000990	9.895811	3.352792	0.079049
 396	1.9750e-01	15.7648	99.877670	0.000727	7.270392	2.463275	0.058077
 397	1.9800e-01	15.8145	100.216451	0.000848	8.482124	2.873821	0.067756
 398	1.9850e-01	15.8546	100.522966	0.000767	7.674303	2.600124	0.061303
 399	1.9900e-01	15.8979	100.539099	0.000040	0.403911	0.136849	0.003226
 400	1.9950e-01	15.9332	101.071468	0.001333	13.329052	4.516005	0.106474
 401	2.0000e-01	15.9717	101.228758	0.000394	3.938129	1.334274	0.031458
 402	2.0050e-01	16.0054	101.648201	0.001050	10.501677	3.558065	0.083888
 403	2.0100e-01	16.0536	101.769194	0.000303	3.029330	1.026365	0.024199
 404	2.0150e-01	16.0937	102.031345	0.000656	6.563548	2.223790	0.052430
 405	2.0200e-01	16.1225	102.519350	0.001222	12.218298	4.139671	0.097601
 406	2.0250e-01	16.1739	102.854097	0.000838	8.381146	2.839609	0.066949
 407	2.0300e-01	16.2044	103.047686	0.000485	4.846928	1.642184	0.038718
 408	2.0350e-01	16.2461	103.491327	0.001111	11.107543	3.763338	0.088728
 409	2.0400e-01	16.2958	103.580055	0.000222	2.221509	0.752668	0.017746
 410	2.0450e-01	16.3311	103.822041	0.000606	6.058660	2.052730	0.048397
 411	2.0500e-01	16.3680	103.999497	0.000444	4.443017	1.505335	0.035491
 412	2.0550e-01	16.4209	104.140656	0.000353	3.534218	1.197426	0.028232
 413	2.0600e-01	16.4482	104.721422	0.001454	14.540784	4.926551	0.116153
 414	2.0650e-01	16.4867	104.971474	0.000626	6.260615	2.121154	0.050010
 415	2.0700e-01	16.5300	105.511909	0.001353	13.531007	4.584429	0.108087
 416	2.0750e-01	16.5830	105.568372	0.000141	1.413687	0.478970	0.011293
 417	2.0800e-01	16.6150	105.903120	0.000838	8.381146	2.839609	0.066949
 418	2.0850e-01	16.6519	106.012013	0.000273	2.726397	0.923728	0.021779
 419	2.0900e-01	16.6969	106.314496	0.000757	7.573325	2.565912	0.060496
 420	2.0950e-01	16.7305	106.616978	0.000757	7.573325	2.565912	0.060496
 421	2.1000e-01	16.7755	106.903328	0.000717	7.169414	2.429063	0.057270
 422	2.1050e-01	16.8059	107.346969	0.001111	11.107543	3.763338	0.088728
 423	2.1100e-01	16.8460	107.572822	0.000565	5.654749	1.915881	0.045171
 424	2.1150e-01	16.8942	107.758345	0.000464	4.644973	1.573759	0.037105
 425	2.1200e-01	16.9295	108.157622	0.001000	9.996789	3.387004	0.079855
 426	2.1250e-01	16.9664	108.262482	0.000263	2.625419	0.889516	0.020972
 427	2.1300e-01	17.0129	108.480270	0.000545	5.452794	1.847457	0.043557
 428	2.1350e-01	17.0514	108.790818	0.000778	7.775280	2.634336	0.062110
 429	2.1400e-01	17.0883	109.355452	0.001414	14.136873	4.789702	0.112927
 430	2.1450e-01	17.1316	109.355452	0.000000	0.000000	0.000000	0.000000
 431	2.1500e-01	17.1765	109.714398	0.000899	8.987012	3.044882	0.071789
 432	2.1550e-01	17.2134	110.008814	0.000737	7.371370	2.497488	0.058883
 433	2.1600e-01	17.2503	110.339528	0.000828	8.280169	2.805397	0.066143
 434	2.1650e-01	17.2904	110.650077	0.000778	7.775280	2.634336	0.062110
 435	2.1700e-01	17.3273	110.734772	0.000212	2.120531	0.718455	0.016939
 436	2.1750e-01	17.3674	111.105817	0.000929	9.289945	3.147519	0.074209
 437	2.1800e-01	17.4043	111.299406	0.000485	4.846928	1.642184	0.038718
 438	2.1850e-01	17.4573	111.618020	0.000798	7.977236	2.702761	0.063723
 439	2.1900e-01	17.4910	112.178621	0.001404	14.035896	4.755490	0.112120
 440	2.1950e-01	17.5295	112.239118	0.000151	1.514665	0.513182	0.012099
 441	2.2000e-01	17.5647	112.388342	0.000374	3.736174	1.265850	0.029845
 442	2.2050e-01	17.6097	112.807784	0.001050	10.501677	3.558065	0.083888
 443	2.2100e-01	17.6530	113.049770	0.000606	6.058660	2.052730	0.048397
 444	2.2150e-01	17.6963	113.198995	0.000374	3.736174	1.265850	0.029845
 445	2.2200e-01	17.7252	113.634570	0.001091	10.905588	3.694913	0.087115
 446	2.2250e-01	17.7733	113.852357	0.000545	5.452794	1.847457	0.043557
 447	2.2300e-01	17.8150	114.114508	0.000656	6.563548	2.223790	0.052430
 448	2.2350e-01	17.8487	114.380693	0.000666	6.664526	2.258003	0.053237
 449	2.2400e-01	17.8792	114.820301	0.001101	11.006566	3.729125	0.087922
 450	2.2450e-01	17.9305	115.151015	0.000828	8.280169	2.805397	0.066143
 451	2.2500e-01	17.9754	115.280074	0.000323	3.231285	1.094789	0.025812
 452	2.2550e-01	18.0171	115.534159	0.000636	6.361593	2.155366	0.050817
 453	2.2600e-01	18.0524	115.622887	0.000222	2.221509	0.752668	0.017746
 454	2.2650e-01	18.0893	116.030230	0.001020	10.198744	3.455428	0.081469
 455	2.2700e-01	18.1230	116.421441	0.000979	9.794834	3.318579	0.078242
 456	2.2750e-01	18.1663	116.647294	0.000565	5.654749	1.915881	0.045171
 457	2.2800e-01	18.2064	116.941711	0.000737	7.371370	2.497488	0.058883
 458	2.2850e-01	18.2465	117.280491	0.000848	8.482124	2.873821	0.067756
 459	2.2900e-01	18.2818	117.300656	0.000050	0.504888	0.171061	0.004033
 460	2.2950e-01	18.3300	117.760430	0.001151	11.511454	3.900186	0.091955
 461	2.3000e-01	18.3717	118.070978	0.000778	7.775280	2.634336	0.062110
 462	2.3050e-01	18.4038	118.204070	0.000333	3.332263	1.129001	0.026618
 463	2.3100e-01	18.4503	118.389593	0.000464	4.644973	1.573759	0.037105
 464	2.3150e-01	18.4936	118.962293	0.001434	14.338829	4.858127	0.114540
 465	2.3200e-01	18.5369	119.167981	0.000515	5.149861	1.744820	0.041138
 466	2.3250e-01	18.5706	119.280908	0.000283	2.827375	0.957940	0.022585
 467	2.3300e-01	18.6139	119.591456	0.000778	7.775280	2.634336	0.062110
 468	2.3350e-01	18.6364	119.861674	0.000677	6.765504	2.292215	0.054044
 469	2.3400e-01	18.6893	120.269017	0.001020	10.198744	3.455428	0.081469
 470	2.3450e-01	18.7358	120.430341	0.000404	4.039107	1.368486	0.032265
 471	2.3500e-01	18.7727	120.688459	0.000646	6.462571	2.189578	0.051624
 472	2.3550e-01	18.8193	121.003041	0.000788	7.876258	2.668548	0.062916
 473	2.3600e-01	18.8594	121.382152	0.000949	9.491901	3.215943	0.075822
 474	2.3650e-01	18.8898	121.660436	0.000697	6.967459	2.360639	0.055657
 475	2.3700e-01	18.9348	122.011315	0.000879	8.785057	2.976458	0.070176
 476	2.3750e-01	18.9733	122.039547	0.000071	0.706844	0.239485	0.005646
 477	2.3800e-01	19.0182	122.547718	0.001272	12.723186	4.310732	0.101634
 478	2.3850e-01	19.0487	122.725174	0.000444	4.443017	1.505335	0.035491
 479	2.3900e-01	19.0904	122.995392	0.000677	6.765504	2.292215	0.054044
 480	2.3950e-01	19.1305	123.249477	0.000636	6.361593	2.155366	0.050817
 481	2.4000e-01	19.1642	123.588257	0.000848	8.482124	2.873821	0.067756
 482	2.4050e-01	19.2075	123.927037	0.000848	8.482124	2.873821	0.067756
 483	2.4100e-01	19.2492	124.350513	0.001060	10.602655	3.592277	0.084695
 484	2.4150e-01	19.2941	124.326314	-0.000061	-0.605866	-0.205273	-0.004840
 485	2.4200e-01	19.3406	124.745756	0.001050	10.501677	3.558065	0.083888
 486	2.4250e-01	19.3679	125.266026	0.001303	13.026119	4.413369	0.104054
 487	2.4300e-01	19.4128	125.213596	-0.000131	-1.312710	-0.444758	-0.010486
 488	2.4350e-01	19.4577	125.508012	0.000737	7.371370	2.497488	0.058883
 489	2.4400e-01	19.4850	125.649170	0.000353	3.534218	1.197426	0.028232
 490	2.4450e-01	19.5299	125.879057	0.000576	5.755727	1.950093	0.045977
 491	2.4500e-01	19.5781	126.294466	0.001040	10.400700	3.523852	0.083082
 492	2.4550e-01	19.6085	126.572750	0.000697	6.967459	2.360639	0.055657
 493	2.4600e-01	19.6519	126.742140	0.000424	4.241062	1.436911	0.033878
 494	2.4650e-01	19.6920	127.246277	0.001262	12.622208	4.276520	0.100827
 495	2.4700e-01	19.7353	127.552793	0.000767	7.674303	2.600124	0.061303
 496	2.4750e-01	19.7690	127.762514	0.000525	5.250839	1.779032	0.041944
 497	2.4800e-01	19.8091	127.818977	0.000141	1.413687	0.478970	0.011293
 498	2.4850e-01	19.8572	128.238420	0.001050	10.501677	3.558065	0.083888
 499	2.4900e-01	19.8893	128.399744	0.000404	4.039107	1.368486	0.032265
 500	2.4950e-01	19.9358	128.605432	0.000515	5.149861	1.744820	0.041138
 501	2.5000e-01	19.9727	128.968411	0.000909	9.087990	3.079094	0.072596
 502	2.5050e-01	19.9759	129.045039	0.000192	1.918576	0.650031	0.015326
 503	2.5100e-01	19.9518	129.049073	-0.000010	-0.100978	-0.034212	0.000807
 504	2.5150e-01	19.9214	128.932113	0.000293	2.928352	0.992153	-0.023392
 505	2.5200e-01	19.8780	128.657862	0.000687	6.866481	2.326427	-0.054850
 506	2.5250e-01	19.8395	128.375545	0.000707	7.068437	2.394851	-0.056463
 507	2.5300e-01	19.7930	128.391677	-0.000040	-0.403911	-0.136849	0.003226
 508	2.5350e-01	19.7625	128.238420	0.000384	3.837151	1.300062	-0.030652
 509	2.5400e-01	19.7112	128.161791	0.000192	1.918576	0.650031	-0.015326
 510	2.5450e-01	19.6727	127.855275	0.000767	7.674303	2.600124	-0.061303
 511	2.5500e-01	19.6390	127.540694	0.000788	7.876258	2.668548	-0.062916
 512	2.5550e-01	19.5941	127.673786	-0.000333	-3.332263	-1.129001	0.026618
 513	2.5600e-01	19.5588	127.439866	0.000586	5.856705	1.984305	-0.046784
 514	2.5650e-01	19.5187	127.290642	0.000374	3.736174	1.265850	-0.029845
 515	2.5700e-01	19.4818	127.020424	0.000677	6.765504	2.292215	-0.054044
 516	2.5750e-01	19.4321	126.778438	0.000606	6.058660	2.052730	-0.048397
 517	2.5800e-01	19.3952	126.407393	0.000929	9.289945	3.147519	-0.074209
 518	2.5850e-01	19.3503	126.423525	-0.000040	-0.403911	-0.136849	0.003226
 519	2.5900e-01	19.3230	126.201705	0.000555	5.553772	1.881669	-0.044364
 520	2.5950e-01	19.2781	125.955686	0.000616	6.159638	2.086942	-0.049204
 521	2.6000e-01	19.2315	125.810494	0.000364	3.635196	1.231638	-0.029038
 522	2.6050e-01	19.1930	125.689501	0.000303	3.029330	1.026365	-0.024199
 523	2.6100e-01	19.1513	125.427350	0.000656	6.563548	2.223790	-0.052430
 524	2.6150e-01	19.1176	125.374920	0.000131	1.312710	0.444758	-0.010486
 525	2.6200e-01	19.0823	124.963544	0.001030	10.299722	3.489640	-0.082275
 526	2.6250e-01	19.0390	124.729624	0.000586	5.856705	1.984305	-0.046784
 527	2.6300e-01	18.9973	124.709458	0.000050	0.504888	0.171061	-0.004033
 528	2.6350e-01	18.9588	124.277917	0.001080	10.804610	3.660701	-0.086308
 529	2.6400e-01	18.9107	124.241619	0.000091	0.908799	0.307909	-0.007260
 530	2.6450e-01	18.8786	124.104494	0.000343	3.433241	1.163213	-0.027425
 531	2.6500e-01	18.8353	123.717316	0.000969	9.693856	3.284367	-0.077435
 532	2.6550e-01	18.7952	123.785879	-0.000172	-1.716620	-0.581607	0.013713
 533	2.6600e-01	18.7551	123.608423	0.000444	4.443017	1.505335	-0.035491
 534	2.6650e-01	18.7214	123.322073	0.000717	7.169414	2.429063	-0.057270
 535	2.6700e-01	18.6765	122.821968	0.001252	12.521231	4.242308	-0.100021
 536	2.6750e-01	18.6316	122.737273	0.000212	2.120531	0.718455	-0.016939
 537	2.6800e-01	18.6059	122.567883	0.000424	4.241062	1.436911	-0.033878
 538	2.6850e-01	18.5610	122.386394	0.000454	4.543995	1.539547	-0.036298
 539	2.6900e-01	18.5177	122.317831	0.000172	1.716620	0.581607	-0.013713
 540	2.6950e-01	18.4808	121.934687	0.000959	9.592878	3.250155	-0.076629
 541	2.7000e-01	18.4423	121.728999	0.000515	5.149861	1.744820	-0.041138
 542	2.7050e-01	18.3989	121.664469	0.000162	1.615643	0.547395	-0.012906
 543	2.7100e-01	18.3508	121.309556	0.000889	8.886035	3.010670	-0.070983
 544	2.7150e-01	18.3123	121.228894	0.000202	2.019553	0.684243	-0.016132
 545	2.7200e-01	18.2818	121.075637	0.000384	3.837151	1.300062	-0.030652
 546	2.7250e-01	18.2321	120.837684	0.000596	5.957682	2.018517	-0.047591
 547	2.7300e-01	18.1920	120.664261	0.000434	4.342040	1.471123	-0.034685
 548	2.7350e-01	18.1583	120.313381	0.000879	8.785057	2.976458	-0.070176
 549	2.7400e-01	18.1150	120.131892	0.000454	4.543995	1.539547	-0.036298
 550	2.7450e-01	18.0765	119.914104	0.000545	5.452794	1.847457	-0.043557
 551	2.7500e-01	18.0348	119.692284	0.000555	5.553772	1.881669	-0.044364
 552	2.7550e-01	17.9979	119.462397	0.000576	5.755727	1.950093	-0.045977
 553	2.7600e-01	17.9594	119.167981	0.000737	7.371370	2.497488	-0.058883
 554	2.7650e-01	17.9209	119.014723	0.000384	3.837151	1.300062	-0.030652
 555	2.7700e-01	17.8712	118.817101	0.000495	4.947906	1.676396	-0.039524
 556	2.7750e-01	17.8439	118.603347	0.000535	5.351816	1.813244	-0.042751
 557	2.7800e-01	17.7909	118.381527	0.000555	5.553772	1.881669	-0.044364
 558	2.7850e-01	17.7573	118.244401	0.000343	3.433241	1.163213	-0.027425
 559	2.7900e-01	17.7188	117.974184	0.000677	6.765504	2.292215	-0.054044
 560	2.7950e-01	17.6802	117.869323	0.000263	2.625419	0.889516	-0.020972
 561	2.8000e-01	17.6434	117.695900	0.000434	4.342040	1.471123	-0.034685
 562	2.8050e-01	17.6016	117.280491	0.001040	10.400700	3.523852	-0.083082
 563	2.8100e-01	17.5535	117.207895	0.000182	1.817598	0.615819	-0.014519
 564	2.8150e-01	17.5198	116.957843	0.000626	6.260615	2.121154	-0.050010
 565	2.8200e-01	17.4765	116.631162	0.000818	8.179191	2.771185	-0.065336
 566	2.8250e-01	17.4332	116.348845	0.000707	7.068437	2.394851	-0.056463
 567	2.8300e-01	17.3915	116.449672	-0.000252	-2.524442	-0.855304	0.020165
 568	2.8350e-01	17.3562	116.054429	0.000990	9.895811	3.352792	-0.079049
 569	2.8400e-01	17.3129	115.840675	0.000535	5.351816	1.813244	-0.042751
 570	2.8450e-01	17.2824	115.618854	0.000555	5.553772	1.881669	-0.044364
 571	2.8500e-01	17.2343	115.324438	0.000737	7.371370	2.497488	-0.058883
 572	2.8550e-01	17.1942	115.171180	0.000384	3.837151	1.300062	-0.030652
 573	2.8600e-01	17.1509	114.913062	0.000646	6.462571	2.189578	-0.051624
 574	2.8650e-01	17.1188	114.840466	0.000182	1.817598	0.615819	-0.014519
 575	2.8700e-01	17.0819	114.521851	0.000798	7.977236	2.702761	-0.063723
 576	2.8750e-01	17.0305	114.158872	0.000909	9.087990	3.079094	-0.072596
 577	2.8800e-01	16.9985	113.997549	0.000404	4.039107	1.368486	-0.032265
 578	2.8850e-01	16.9551	113.795894	0.000505	5.048883	1.710608	-0.040331
 579	2.8900e-01	16.9150	113.642636	0.000384	3.837151	1.300062	-0.030652
 580	2.8950e-01	16.8749	113.582139	0.000151	1.514665	0.513182	-0.012099
 581	2.9000e-01	16.8412	113.404683	0.000444	4.443017	1.505335	-0.035491
 582	2.9050e-01	16.7947	112.928777	0.001192	11.915365	4.037035	-0.095181
 583	2.9100e-01	16.7562	112.658560	0.000677	6.765504	2.292215	-0.054044
 584	2.9150e-01	16.7145	112.650494	0.000020	0.201955	0.068424	-0.001613
 585	2.9200e-01	16.6760	112.505302	0.000364	3.635196	1.231638	-0.029038
 586	2.9250e-01	16.6423	112.255250	0.000626	6.260615	2.121154	-0.050010
 587	2.9300e-01	16.5942	111.823708	0.001080	10.804610	3.660701	-0.086308
 588	2.9350e-01	16.5589	111.484928	0.000848	8.482124	2.873821	-0.067756
 589	2.9400e-01	16.5108	111.251008	0.000586	5.856705	1.984305	-0.046784
 590	2.9450e-01	16.4803	111.198578	0.000131	1.312710	0.444758	-0.010486
 591	2.9500e-01	16.4370	110.843665	0.000889	8.886035	3.010670	-0.070983
 592	2.9550e-01	16.3904	110.569415	0.000687	6.866481	2.326427	-0.054850
 593	2.9600e-01	16.3552	110.250800	0.000798	7.977236	2.702761	-0.063723
 594	2.9650e-01	16.3150	110.045112	0.000515	5.149861	1.744820	-0.041138
 595	2.9700e-01	16.2717	109.976549	0.000172	1.716620	0.581607	-0.013713
 596	2.9750e-01	16.2252	109.786994	0.000475	4.745950	1.607972	-0.037911
 597	2.9800e-01	16.1931	109.613570	0.000434	4.342040	1.471123	-0.034685
 598	2.9850e-01	16.1626	109.182029	0.001080	10.804610	3.660701	-0.086308
 599	2.9900e-01	16.1177	109.069102	0.000283	2.827375	0.957940	-0.022585
 600	2.9950e-01	16.0744	108.843249	0.000565	5.654749	1.915881	-0.045171
 601	3.0000e-01	16.0359	108.629494	0.000535	5.351816	1.813244	-0.042751
 602	3.0050e-01	15.9958	108.492369	0.000343	3.433241	1.163213	-0.027425
 603	3.0100e-01	15.9541	108.169721	0.000808	8.078213	2.736973	-0.064530
 604	3.0150e-01	15.9268	107.830941	0.000848	8.482124	2.873821	-0.067756
 605	3.0200e-01	15.8835	107.564756	0.000666	6.664526	2.258003	-0.053237
 606	3.0250e-01	15.8290	107.645418	-0.000202	-2.019553	-0.684243	0.016132
 607	3.0300e-01	15.7969	107.379234	0.000666	6.664526	2.258003	-0.053237
 608	3.0350e-01	15.7552	107.036420	0.000858	8.583102	2.908034	-0.068563
 609	3.0400e-01	15.7167	106.713772	0.000808	8.078213	2.736973	-0.064530
 610	3.0450e-01	15.6766	106.552449	0.000404	4.039107	1.368486	-0.032265
 611	3.0500e-01	15.6349	106.455654	0.000242	2.423464	0.821092	-0.019359
 612	3.0550e-01	15.6012	106.064444	0.000979	9.794834	3.318579	-0.078242
 613	3.0600e-01	15.5578	105.701465	0.000909	9.087990	3.079094	-0.072596
 614	3.0650e-01	15.5081	105.669200	0.000081	0.807821	0.273697	-0.006453
 615	3.0700e-01	15.4792	105.407049	0.000656	6.563548	2.223790	-0.052430
 616	3.0750e-01	15.4327	105.056169	0.000879	8.785057	2.976458	-0.070176
 617	3.0800e-01	15.3942	104.975507	0.000202	2.019553	0.684243	-0.016132
 618	3.0850e-01	15.3621	104.737554	0.000596	5.957682	2.018517	-0.047591
 619	3.0900e-01	15.3172	104.576230	0.000404	4.039107	1.368486	-0.032265
 620	3.0950e-01	15.2803	104.116457	0.001151	11.511454	3.900186	-0.091955
 621	3.1000e-01	15.2418	104.168887	-0.000131	-1.312710	-0.444758	0.010486
 622	3.1050e-01	15.1889	104.096291	0.000182	1.817598	0.615819	-0.014519
 623	3.1100e-01	15.1632	103.535691	0.001404	14.035896	4.755490	-0.112120
 624	3.1150e-01	15.1167	103.289672	0.000616	6.159638	2.086942	-0.049204
 625	3.1200e-01	15.0798	102.995256	0.000737	7.371370	2.497488	-0.058883
 626	3.1250e-01	15.0413	102.737137	0.000646	6.462571	2.189578	-0.051624
 627	3.1300e-01	15.0124	102.515317	0.000555	5.553772	1.881669	-0.044364
 628	3.1350e-01	14.9611	102.345927	0.000424	4.241062	1.436911	-0.033878
 629	3.1400e-01	14.9162	102.204768	0.000353	3.534218	1.197426	-0.028232
 630	3.1450e-01	14.8761	102.023279	0.000454	4.543995	1.539547	-0.036298
 631	3.1500e-01	14.8327	101.603837	0.001050	10.501677	3.558065	-0.083888
 632	3.1550e-01	14.8023	101.414281	0.000475	4.745950	1.607972	-0.037911
 633	3.1600e-01	14.7445	101.301354	0.000283	2.827375	0.957940	-0.022585
 634	3.1650e-01	14.7204	100.938375	0.000909	9.087990	3.079094	-0.072596
 635	3.1700e-01	14.6851	100.615727	0.000808	8.078213	2.736973	-0.064530
 636	3.1750e-01	14.6418	100.563297	0.000131	1.312710	0.444758	-0.010486
 637	3.1800e-01	14.5873	100.357609	0.000515	5.149861	1.744820	-0.041138
 638	3.1850e-01	14.5729	99.930101	0.001070	10.703633	3.626489	-0.085502
 639	3.1900e-01	14.5183	99.950266	-0.000050	-0.504888	-0.171061	0.004033
 640	3.1950e-01	14.4814	99.591320	0.000899	8.987012	3.044882	-0.071789
 641	3.2000e-01	14.4381	99.421930	0.000424	4.241062	1.436911	-0.033878
 642	3.2050e-01	14.4012	99.232375	0.000475	4.745950	1.607972	-0.037911
 643	3.2100e-01	14.3659	98.808899	0.001060	10.602655	3.592277	-0.084695
 644	3.2150e-01	14.3049	98.784701	0.000061	0.605866	0.205273	-0.004840
 645	3.2200e-01	14.2777	98.498351	0.000717	7.169414	2.429063	-0.057270
 646	3.2250e-01	14.2328	97.982114	0.001293	12.925141	4.379156	-0.103247
 647	3.2300e-01	14.1910	97.832889	0.000374	3.736174	1.265850	-0.029845
 648	3.2350e-01	14.1622	97.627201	0.000515	5.149861	1.744820	-0.041138
 649	3.2400e-01	14.1124	97.449745	0.000444	4.443017	1.505335	-0.035491
 650	3.2450e-01	14.0900	97.151296	0.000747	7.472347	2.531700	-0.059690
 651	3.2500e-01	14.0370	96.921409	0.000576	5.755727	1.950093	-0.045977
 652	3.2550e-01	14.0033	96.635059	0.000717	7.169414	2.429063	-0.057270
 653	3.2600e-01	13.9552	96.344676	0.000727	7.270392	2.463275	-0.058077
 654	3.2650e-01	13.9119	96.332577	0.000030	0.302933	0.102636	-0.002420
 655	3.2700e-01	13.8782	96.030094	0.000757	7.573325	2.565912	-0.060496
 656	3.2750e-01	13.8381	95.743744	0.000717	7.169414	2.429063	-0.057270
 657	3.2800e-01	13.7948	95.497725	0.000616	6.159638	2.086942	-0.049204
 658	3.2850e-01	13.7611	95.211375	0.000717	7.169414	2.429063	-0.057270
 659	3.2900e-01	13.7242	94.707238	0.001262	12.622208	4.276520	-0.100827
 660	3.2950e-01	13.6761	94.525748	0.000454	4.543995	1.539547	-0.036298
 661	3.3000e-01	13.6424	94.465252	0.000151	1.514665	0.513182	-0.012099
 662	3.3050e-01	13.5927	94.243432	0.000555	5.553772	1.881669	-0.044364
 663	3.3100e-01	13.5606	94.118406	0.000313	3.130308	1.060577	-0.025005
 664	3.3150e-01	13.5173	93.690897	0.001070	10.703633	3.626489	-0.085502
 665	3.3200e-01	13.4772	93.610235	0.000202	2.019553	0.684243	-0.016132
 666	3.3250e-01	13.4403	93.408580	0.000505	5.048883	1.710608	-0.040331
 667	3.3300e-01	13.3937	93.114164	0.000737	7.371370	2.497488	-0.058883
 668	3.3350e-01	13.3584	92.827814	0.000717	7.169414	2.429063	-0.057270
 669	3.3400e-01	13.3151	92.549530	0.000697	6.967459	2.360639	-0.055657
 670	3.3450e-01	13.2718	92.299478	0.000626	6.260615	2.121154	-0.050010
 671	3.3500e-01	13.2413	91.791308	0.001272	12.723186	4.310732	-0.101634
 672	3.3550e-01	13.1980	91.686447	0.000263	2.625419	0.889516	-0.020972
 673	3.3600e-01	13.1579	91.480759	0.000515	5.149861	1.744820	-0.041138
 674	3.3650e-01	13.1210	91.267005	0.000535	5.351816	1.813244	-0.042751
 675	3.3700e-01	13.0793	91.121813	0.000364	3.635196	1.231638	-0.029038
 676	3.3750e-01	13.0408	90.823364	0.000747	7.472347	2.531700	-0.059690
 677	3.3800e-01	12.9927	90.585411	0.000596	5.957682	2.018517	-0.047591
 678	3.3850e-01	12.9494	90.432153	0.000384	3.837151	1.300062	-0.030652
 679	3.3900e-01	12.9141	89.722328	0.001777	17.772069	6.021340	-0.141965
 680	3.3950e-01	12.8804	89.758626	-0.000091	-0.908799	-0.307909	0.007260
 681	3.4000e-01	12.8419	89.528739	0.000576	5.755727	1.950093	-0.045977
 682	3.4050e-01	12.8050	89.399680	0.000323	3.231285	1.094789	-0.025812
 683	3.4100e-01	12.7504	89.254489	0.000364	3.635196	1.231638	-0.029038
 684	3.4150e-01	12.7248	88.895543	0.000899	8.987012	3.044882	-0.071789
 685	3.4200e-01	12.6783	88.802782	0.000232	2.322486	0.786880	-0.018552
 686	3.4250e-01	12.6381	88.540630	0.000656	6.563548	2.223790	-0.052430
 687	3.4300e-01	12.6012	88.217982	0.000808	8.078213	2.736973	-0.064530
 688	3.4350e-01	12.5708	87.834838	0.000959	9.592878	3.250155	-0.076629
 689	3.4400e-01	12.5194	87.673514	0.000404	4.039107	1.368486	-0.032265
 690	3.4450e-01	12.4841	87.435561	0.000596	5.957682	2.018517	-0.047591
 691	3.4500e-01	12.4424	87.153244	0.000707	7.068437	2.394851	-0.056463
 692	3.4550e-01	12.4023	87.020152	0.000333	3.332263	1.129001	-0.026618
 693	3.4600e-01	12.3622	86.701537	0.000798	7.977236	2.702761	-0.063723
 694	3.4650e-01	12.3173	86.366790	0.000838	8.381146	2.839609	-0.066949
 695	3.4700e-01	12.2804	86.197400	0.000424	4.241062	1.436911	-0.033878
 696	3.4750e-01	12.2435	85.935248	0.000656	6.563548	2.223790	-0.052430
 697	3.4800e-01	12.2034	85.729560	0.000515	5.149861	1.744820	-0.041138
 698	3.4850e-01	12.1489	85.487575	0.000606	6.058660	2.052730	-0.048397
 699	3.4900e-01	12.1248	85.164927	0.000808	8.078213	2.736973	-0.064530
 700	3.4950e-01	12.0751	84.854378	0.000778	7.775280	2.634336	-0.062110
 701	3.5000e-01	12.0317	84.777749	0.000192	1.918576	0.650031	-0.015326
 702	3.5050e-01	11.9948	84.459134	0.000798	7.977236	2.702761	-0.063723
 703	3.5100e-01	11.9676	84.277645	0.000454	4.543995	1.539547	-0.036298
 704	3.5150e-01	11.9146	84.035659	0.000606	6.058660	2.052730	-0.048397
 705	3.5200e-01	11.8745	83.858203	0.000444	4.443017	1.505335	-0.035491
 706	3.5250e-01	11.8376	83.511356	0.000868	8.684079	2.942246	-0.069369
 707	3.5300e-01	11.8039	83.293569	0.000545	5.452794	1.847457	-0.043557
 708	3.5350e-01	11.7558	82.999153	0.000737	7.371370	2.497488	-0.058883
 709	3.5400e-01	11.7157	82.817663	0.000454	4.543995	1.539547	-0.036298
 710	3.5450e-01	11.6772	82.466784	0.000879	8.785057	2.976458	-0.070176
 711	3.5500e-01	11.6403	82.063474	0.001010	10.097767	3.421216	-0.080662
 712	3.5550e-01	11.6018	81.894084	0.000424	4.241062	1.436911	-0.033878
 713	3.5600e-01	11.5537	81.684363	0.000525	5.250839	1.779032	-0.041944
 714	3.5650e-01	11.5248	81.514972	0.000424	4.241062	1.436911	-0.033878
 715	3.5700e-01	11.4815	81.289119	0.000565	5.654749	1.915881	-0.045171
 716	3.5750e-01	11.4462	80.914041	0.000939	9.390923	3.181731	-0.075016
 717	3.5800e-01	11.3981	80.563161	0.000879	8.785057	2.976458	-0.070176
 718	3.5850e-01	11.3564	80.333275	0.000576	5.755727	1.950093	-0.045977
 719	3.5900e-01	11.3147	80.446201	-0.000283	-2.827375	-0.957940	0.022585
 720	3.5950e-01	11.2810	80.075156	0.000929	9.289945	3.147519	-0.074209
 721	3.6000e-01	11.2425	79.808972	0.000666	6.664526	2.258003	-0.053237
 722	3.6050e-01	11.2024	79.248371	0.001404	14.035896	4.755490	-0.112120
 723	3.6100e-01	11.1655	79.171742	0.000192	1.918576	0.650031	-0.015326
 724	3.6150e-01	11.1205	78.885392	0.000717	7.169414	2.429063	-0.057270
 725	3.6200e-01	11.0788	78.691803	0.000485	4.846928	1.642184	-0.038718
 726	3.6250e-01	11.0435	78.465950	0.000565	5.654749	1.915881	-0.045171
 727	3.6300e-01	11.0002	78.078772	0.000969	9.693856	3.284367	-0.077435
 728	3.6350e-01	10.9585	77.828720	0.000626	6.260615	2.121154	-0.050010
 729	3.6400e-01	10.9184	77.578668	0.000626	6.260615	2.121154	-0.050010
 730	3.6450e-01	10.8831	77.465741	0.000283	2.827375	0.957940	-0.022585
 731	3.6500e-01	10.8462	77.155193	0.000778	7.775280	2.634336	-0.062110
 732	3.6550e-01	10.8061	76.828512	0.000818	8.179191	2.771185	-0.065336
 733	3.6600e-01	10.7612	76.614758	0.000535	5.351816	1.813244	-0.042751
 734	3.6650e-01	10.7211	76.376805	0.000596	5.957682	2.018517	-0.047591
 735	3.6700e-01	10.6810	75.973495	0.001010	10.097767	3.421216	-0.080662
 736	3.6750e-01	10.6313	75.792005	0.000454	4.543995	1.539547	-0.036298
 737	3.6800e-01	10.6056	75.594384	0.000495	4.947906	1.676396	-0.039524
 738	3.6850e-01	10.5559	75.336265	0.000646	6.462571	2.189578	-0.051624
 739	3.6900e-01	10.5190	75.001518	0.000838	8.381146	2.839609	-0.066949
 740	3.6950e-01	10.4708	74.662738	0.000848	8.482124	2.873821	-0.067756
 741	3.7000e-01	10.4371	74.686936	-0.000061	-0.605866	-0.205273	0.004840
 742	3.7050e-01	10.3938	74.388487	0.000747	7.472347	2.531700	-0.059690
 743	3.7100e-01	10.3585	74.114236	0.000687	6.866481	2.326427	-0.054850
 744	3.7150e-01	10.3184	73.852085	0.000656	6.563548	2.223790	-0.052430
 745	3.7200e-01	10.2751	73.573801	0.000697	6.967459	2.360639	-0.055657
 746	3.7250e-01	10.2398	73.392312	0.000454	4.543995	1.539547	-0.036298
 747	3.7300e-01	10.1885	73.114028	0.000697	6.967459	2.360639	-0.055657
 748	3.7350e-01	10.1516	72.771215	0.000858	8.583102	2.908034	-0.068563
 749	3.7400e-01	10.1131	72.488898	0.000707	7.068437	2.394851	-0.056463
 750	3.7450e-01	10.0714	72.307408	0.000454	4.543995	1.539547	-0.036298
 751	3.7500e-01	10.0393	71.984760	0.000808	8.078213	2.736973	-0.064530
 752	3.7550e-01	10.0024	71.714543	0.000677	6.765504	2.292215	-0.054044
 753	3.7600e-01	9.9575	71.456424	0.000646	6.462571	2.189578	-0.051624
 754	3.7650e-01	9.9238	71.472557	-0.000040	-0.403911	-0.136849	0.003226
 755	3.7700e-01	9.8789	70.855493	0.001545	15.449583	5.234460	-0.123413
 756	3.7750e-01	9.8420	70.653838	0.000505	5.048883	1.710608	-0.040331
 757	3.7800e-01	9.8019	70.496547	0.000394	3.938129	1.334274	-0.031458
 758	3.7850e-01	9.7585	70.343289	0.000384	3.837151	1.300062	-0.030652
 759	3.7900e-01	9.7217	70.008542	0.000838	8.381146	2.839609	-0.066949
 760	3.7950e-01	9.6815	69.766556	0.000606	6.058660	2.052730	-0.048397
 761	3.8000e-01	9.6446	69.681861	0.000212	2.120531	0.718455	-0.016939
 762	3.8050e-01	9.5901	69.339048	0.000858	8.583102	2.908034	-0.068563
 763	3.8100e-01	9.5660	69.068830	0.000677	6.765504	2.292215	-0.054044
 764	3.8150e-01	9.5227	68.641322	0.001070	10.703633	3.626489	-0.085502
 765	3.8200e-01	9.4778	68.371104	0.000677	6.765504	2.292215	-0.054044
 766	3.8250e-01	9.4393	68.238012	0.000333	3.332263	1.129001	-0.026618
 767	3.8300e-01	9.3992	67.915364	0.000808	8.078213	2.736973	-0.064530
 768	3.8350e-01	9.3479	67.443491	0.001181	11.814387	4.002823	-0.094375
 769	3.8400e-01	9.3158	67.221671	0.000555	5.553772	1.881669	-0.044364
 770	3.8450e-01	9.2853	66.967586	0.000636	6.361593	2.155366	-0.050817
 771	3.8500e-01	9.2356	66.729633	0.000596	5.957682	2.018517	-0.047591
 772	3.8550e-01	9.2083	66.330356	0.001000	9.996789	3.387004	-0.079855
 773	3.8600e-01	9.1521	66.253727	0.000192	1.918576	0.650031	-0.015326
 774	3.8650e-01	9.1201	65.947212	0.000767	7.674303	2.600124	-0.061303
 775	3.8700e-01	9.0687	65.854451	0.000232	2.322486	0.786880	-0.018552
 776	3.8750e-01	9.0302	65.729424	0.000313	3.130308	1.060577	-0.025005
 777	3.8800e-01	9.0046	65.100261	0.001575	15.752516	5.337097	-0.125833
 778	3.8850e-01	8.9580	64.934904	0.000414	4.140084	1.402699	-0.033071
 779	3.8900e-01	8.9115	64.834077	0.000252	2.524442	0.855304	-0.020165
 780	3.8950e-01	8.8794	64.426734	0.001020	10.198744	3.455428	-0.081469
 781	3.9000e-01	8.8441	64.043589	0.000959	9.592878	3.250155	-0.076629
 782	3.9050e-01	8.7944	63.741107	0.000757	7.573325	2.565912	-0.060496
 783	3.9100e-01	8.7575	63.523320	0.000545	5.452794	1.847457	-0.043557
 784	3.9150e-01	8.7270	63.301499	0.000555	5.553772	1.881669	-0.044364
 785	3.9200e-01	8.6789	63.019182	0.000707	7.068437	2.394851	-0.056463
 786	3.9250e-01	8.6372	62.954653	0.000162	1.615643	0.547395	-0.012906
 787	3.9300e-01	8.6003	62.692501	0.000656	6.563548	2.223790	-0.052430
 788	3.9350e-01	8.5554	62.414217	0.000697	6.967459	2.360639	-0.055657
 789	3.9400e-01	8.5217	62.252893	0.000404	4.039107	1.368486	-0.032265
 790	3.9450e-01	8.4768	61.821352	0.001080	10.804610	3.660701	-0.086308
 791	3.9500e-01	8.4318	61.450307	0.000929	9.289945	3.147519	-0.074209
 792	3.9550e-01	8.3982	61.139758	0.000778	7.775280	2.634336	-0.062110
 793	3.9600e-01	8.3516	60.913905	0.000565	5.654749	1.915881	-0.045171
 794	3.9650e-01	8.3196	60.784846	0.000323	3.231285	1.094789	-0.025812
 795	3.9700e-01	8.2730	60.510595	0.000687	6.866481	2.326427	-0.054850
 796	3.9750e-01	8.2281	60.333139	0.000444	4.443017	1.505335	-0.035491
 797	3.9800e-01	8.1976	59.865299	0.001171	11.713409	3.968611	-0.093568
 798	3.9850e-01	8.1623	59.457956	0.001020	10.198744	3.455428	-0.081469
 799	3.9900e-01	8.1206	59.349062	0.000273	2.726397	0.923728	-0.021779
 800	3.9950e-01	8.0757	59.050613	0.000747	7.472347	2.531700	-0.059690
 801	4.0000e-01	8.0372	59.058679	-0.000020	-0.201955	-0.068424	0.001613
 802	4.0050e-01	8.0019	58.562608	0.001242	12.420253	4.208096	-0.099214
 803	4.0100e-01	7.9554	58.300457	0.000656	6.563548	2.223790	-0.052430
 804	4.0150e-01	7.9249	57.965710	0.000838	8.381146	2.839609	-0.066949
 805	4.0200e-01	7.8736	57.727757	0.000596	5.957682	2.018517	-0.047591
 806	4.0250e-01	7.8383	57.509970	0.000545	5.452794	1.847457	-0.043557
 807	4.0300e-01	7.7982	57.401076	0.000273	2.726397	0.923728	-0.021779
 808	4.0350e-01	7.7565	56.840475	0.001404	14.035896	4.755490	-0.112120
 809	4.0400e-01	7.7164	56.606555	0.000586	5.856705	1.984305	-0.046784
 810	4.0450e-01	7.6714	56.376669	0.000576	5.755727	1.950093	-0.045977
 811	4.0500e-01	7.6442	56.126617	0.000626	6.260615	2.121154	-0.050010
 812	4.0550e-01	7.5960	55.924962	0.000505	5.048883	1.710608	-0.040331
 813	4.0600e-01	7.5527	55.642645	0.000707	7.068437	2.394851	-0.056463
 814	4.0650e-01	7.5174	55.328063	0.000788	7.876258	2.668548	-0.062916
 815	4.0700e-01	7.4757	54.872323	0.001141	11.410476	3.865974	-0.091148
 816	4.0750e-01	7.4356	54.799727	0.000182	1.817598	0.615819	-0.014519
 817	4.0800e-01	7.4051	54.464980	0.000838	8.381146	2.839609	-0.066949
 818	4.0850e-01	7.3522	54.263325	0.000505	5.048883	1.710608	-0.040331
 819	4.0900e-01	7.3233	53.981008	0.000707	7.068437	2.394851	-0.056463
 820	4.0950e-01	7.2768	53.686592	0.000737	7.371370	2.497488	-0.058883
 821	4.1000e-01	7.2174	53.448639	0.000596	5.957682	2.018517	-0.047591
 822	4.1050e-01	7.2046	53.234885	0.000535	5.351816	1.813244	-0.042751
 823	4.1100e-01	7.1565	52.992899	0.000606	6.058660	2.052730	-0.048397
 824	4.1150e-01	7.1116	52.633953	0.000899	8.987012	3.044882	-0.071789
 825	4.1200e-01	7.0779	52.508927	0.000313	3.130308	1.060577	-0.025005
 826	4.1250e-01	7.0378	52.158048	0.000879	8.785057	2.976458	-0.070176
 827	4.1300e-01	6.9896	51.811201	0.000868	8.684079	2.942246	-0.069369
 828	4.1350e-01	6.9527	51.645844	0.000414	4.140084	1.402699	-0.033071
 829	4.1400e-01	6.9078	51.339329	0.000767	7.674303	2.600124	-0.061303
 830	4.1450e-01	6.8709	51.081210	0.000646	6.462571	2.189578	-0.051624
 831	4.1500e-01	6.8308	50.581106	0.001252	12.521231	4.242308	-0.100021
 832	4.1550e-01	6.8003	50.431881	0.000374	3.736174	1.265850	-0.029845
 833	4.1600e-01	6.7522	50.153598	0.000697	6.967459	2.360639	-0.055657
 834	4.1650e-01	6.7265	49.883380	0.000677	6.765504	2.292215	-0.054044
 835	4.1700e-01	6.6736	49.560732	0.000808	8.078213	2.736973	-0.064530
 836	4.1750e-01	6.6367	49.447805	0.000283	2.827375	0.957940	-0.022585
 837	4.1800e-01	6.6030	49.044496	0.001010	10.097767	3.421216	-0.080662
 838	4.1850e-01	6.5565	48.782344	0.000656	6.563548	2.223790	-0.052430
 839	4.1900e-01	6.5180	48.520193	0.000656	6.563548	2.223790	-0.052430
 840	4.1950e-01	6.4747	48.020089	0.001252	12.521231	4.242308	-0.100021
 841	4.2000e-01	6.4394	48.076552	-0.000141	-1.413687	-0.478970	0.011293
 842	4.2050e-01	6.4009	47.729705	0.000868	8.684079	2.942246	-0.069369
 843	4.2100e-01	6.3560	47.580481	0.000374	3.736174	1.265850	-0.029845
 844	4.2150e-01	6.3159	47.136840	0.001111	11.107543	3.763338	-0.088728
 845	4.2200e-01	6.2742	46.939218	0.000495	4.947906	1.676396	-0.039524
 846	4.2250e-01	6.2421	46.523809	0.001040	10.400700	3.523852	-0.083082
 847	4.2300e-01	6.1939	46.269724	0.000636	6.361593	2.155366	-0.050817
 848	4.2350e-01	6.1554	46.233426	0.000091	0.908799	0.307909	-0.007260
 849	4.2400e-01	6.1330	45.914811	0.000798	7.977236	2.702761	-0.063723
 850	4.2450e-01	6.0816	45.753487	0.000404	4.039107	1.368486	-0.032265
 851	4.2500e-01	6.0335	45.273548	0.001202	12.016342	4.071247	-0.095988
 852	4.2550e-01	5.9982	45.011397	0.000656	6.563548	2.223790	-0.052430
 853	4.2600e-01	5.9677	44.862172	0.000374	3.736174	1.265850	-0.029845
 854	4.2650e-01	5.9196	44.386267	0.001192	11.915365	4.037035	-0.095181
 855	4.2700e-01	5.8763	44.091850	0.000737	7.371370	2.497488	-0.058883
 856	4.2750e-01	5.8282	43.882129	0.000525	5.250839	1.779032	-0.041944
 857	4.2800e-01	5.7993	43.660309	0.000555	5.553772	1.881669	-0.044364
 858	4.2850e-01	5.7528	43.269098	0.000979	9.794834	3.318579	-0.078242
 859	4.2900e-01	5.7159	43.103741	0.000414	4.140084	1.402699	-0.033071
 860	4.2950e-01	5.6742	42.861755	0.000606	6.058660	2.052730	-0.048397
 861	4.3000e-01	5.6405	42.555240	0.000767	7.674303	2.600124	-0.061303
 862	4.3050e-01	5.5956	42.555240	-0.000000	-0.000000	-0.000000	0.000000
 863	4.3100e-01	5.5522	41.982540	0.001434	14.338829	4.858127	-0.114540
 864	4.3150e-01	5.5186	41.728455	0.000636	6.361593	2.155366	-0.050817
 865	4.3200e-01	5.4752	41.494535	0.000586	5.856705	1.984305	-0.046784
 866	4.3250e-01	5.4383	41.228350	0.000666	6.664526	2.258003	-0.053237
 867	4.3300e-01	5.3998	40.905703	0.000808	8.078213	2.736973	-0.064530
 868	4.3350e-01	5.3549	40.599187	0.000767	7.674303	2.600124	-0.061303
 869	4.3400e-01	5.3164	40.538691	0.000151	1.514665	0.513182	-0.012099
 870	4.3450e-01	5.2779	40.316870	0.000555	5.553772	1.881669	-0.044364
 871	4.3500e-01	5.2394	39.917593	0.001000	9.996789	3.387004	-0.079855
 872	4.3550e-01	5.2041	39.405390	0.001282	12.824164	4.344944	-0.102441
 873	4.3600e-01	5.1528	39.022246	0.000959	9.592878	3.250155	-0.076629
 874	4.3650e-01	5.1191	38.969815	0.000131	1.312710	0.444758	-0.010486
 875	4.3700e-01	5.0726	38.526174	0.001111	11.107543	3.763338	-0.088728
 876	4.3750e-01	5.0357	38.296288	0.000576	5.755727	1.950093	-0.045977
 877	4.3800e-01	4.9972	38.038169	0.000646	6.462571	2.189578	-0.051624
 878	4.3850e-01	4.9571	37.945408	0.000232	2.322486	0.786880	-0.018552
 879	4.3900e-01	4.9250	37.493701	0.001131	11.309499	3.831762	-0.090341
 880	4.3950e-01	4.8833	37.106524	0.000969	9.693856	3.284367	-0.077435
 881	4.4000e-01	4.8319	37.158954	-0.000131	-1.312710	-0.444758	0.010486
 882	4.4050e-01	4.8031	36.836306	0.000808	8.078213	2.736973	-0.064530
 883	4.4100e-01	4.7533	36.469294	0.000919	9.188968	3.113307	-0.073402
 884	4.4150e-01	4.7197	36.162779	0.000767	7.674303	2.600124	-0.061303
 885	4.4200e-01	4.6763	35.852230	0.000778	7.775280	2.634336	-0.062110
 886	4.4250e-01	4.6362	35.703005	0.000374	3.736174	1.265850	-0.029845
 887	4.4300e-01	4.5913	35.477152	0.000565	5.654749	1.915881	-0.045171
 888	4.4350e-01	4.5576	35.299696	0.000444	4.443017	1.505335	-0.035491
 889	4.4400e-01	4.5159	34.864121	0.001091	10.905588	3.694913	-0.087115
 890	4.4450e-01	4.4822	34.460811	0.001010	10.097767	3.421216	-0.080662
 891	4.4500e-01	4.4421	34.033303	0.001070	10.703633	3.626489	-0.085502
 892	4.4550e-01	4.4020	33.924409	0.000273	2.726397	0.923728	-0.021779
 893	4.4600e-01	4.3491	33.593695	0.000828	8.280169	2.805397	-0.066143
 894	4.4650e-01	4.3250	33.267014	0.000818	8.179191	2.771185	-0.065336
 895	4.4700e-01	4.2881	33.041160	0.000565	5.654749	1.915881	-0.045171
 896	4.4750e-01	4.2368	32.742711	0.000747	7.472347	2.531700	-0.059690
 897	4.4800e-01	4.1887	32.641884	0.000252	2.524442	0.855304	-0.020165
 898	4.4850e-01	4.1630	32.242607	0.001000	9.996789	3.387004	-0.079855
 899	4.4900e-01	4.1197	31.972389	0.000677	6.765504	2.292215	-0.054044
 900	4.4950e-01	4.0699	31.686039	0.000717	7.169414	2.429063	-0.057270
 901	4.5000e-01	4.0282	31.565046	0.000303	3.029330	1.026365	-0.024199
 902	4.5050e-01	4.0042	31.323060	0.000606	6.058660	2.052730	-0.048397
 903	4.5100e-01	3.9512	30.835055	0.001222	12.218298	4.139671	-0.097601
 904	4.5150e-01	3.9207	30.552738	0.000707	7.068437	2.394851	-0.056463
 905	4.5200e-01	3.8742	30.355117	0.000495	4.947906	1.676396	-0.039524
 906	4.5250e-01	3.8357	30.020369	0.000838	8.381146	2.839609	-0.066949
 907	4.5300e-01	3.7988	29.883244	0.000343	3.433241	1.163213	-0.027425
 908	4.5350e-01	3.7635	29.362974	0.001303	13.026119	4.413369	-0.104054
 909	4.5400e-01	3.7218	29.084691	0.000697	6.967459	2.360639	-0.055657
 910	4.5450e-01	3.6833	28.838672	0.000616	6.159638	2.086942	-0.049204
 911	4.5500e-01	3.6352	28.762043	0.000192	1.918576	0.650031	-0.015326
 912	4.5550e-01	3.5935	28.265972	0.001242	12.420253	4.208096	-0.099214
 913	4.5600e-01	3.5550	27.991721	0.000687	6.866481	2.326427	-0.054850
 914	4.5650e-01	3.5085	27.810231	0.000454	4.543995	1.539547	-0.036298
 915	4.5700e-01	3.4764	27.648907	0.000404	4.039107	1.368486	-0.032265
 916	4.5750e-01	3.4379	27.189134	0.001151	11.511454	3.900186	-0.091955
 917	4.5800e-01	3.3978	26.918917	0.000677	6.765504	2.292215	-0.054044
 918	4.5850e-01	3.3528	26.664831	0.000636	6.361593	2.155366	-0.050817
 919	4.5900e-01	3.3208	26.471243	0.000485	4.846928	1.642184	-0.038718
 920	4.5950e-01	3.2839	26.152628	0.000798	7.977236	2.702761	-0.063723
 921	4.6000e-01	3.2438	25.765450	0.000969	9.693856	3.284367	-0.077435
 922	4.6050e-01	3.1988	25.543630	0.000555	5.553772	1.881669	-0.044364
 923	4.6100e-01	3.1507	25.273412	0.000677	6.765504	2.292215	-0.054044
 924	4.6150e-01	3.1170	24.938665	0.000838	8.381146	2.839609	-0.066949
 925	4.6200e-01	3.0769	24.692646	0.000616	6.159638	2.086942	-0.049204
 926	4.6250e-01	3.0448	24.434528	0.000646	6.462571	2.189578	-0.051624
 927	4.6300e-01	2.9967	24.265138	0.000424	4.241062	1.436911	-0.033878
 928	4.6350e-01	2.9566	23.986854	0.000697	6.967459	2.360639	-0.055657
 929	4.6400e-01	2.9133	23.623875	0.000909	9.087990	3.079094	-0.072596
 930	4.6450e-01	2.8876	23.430286	0.000485	4.846928	1.642184	-0.038718
 931	4.6500e-01	2.8379	22.998745	0.001080	10.804610	3.660701	-0.086308
 932	4.6550e-01	2.8042	22.813222	0.000464	4.644973	1.573759	-0.037105
 933	4.6600e-01	2.7641	22.502674	0.000778	7.775280	2.634336	-0.062110
 934	4.6650e-01	2.7192	22.192125	0.000778	7.775280	2.634336	-0.062110
 935	4.6700e-01	2.6791	21.921907	0.000677	6.765504	2.292215	-0.054044
 936	4.6750e-01	2.6309	21.756550	0.000414	4.140084	1.402699	-0.033071
 937	4.6800e-01	2.5940	21.595226	0.000404	4.039107	1.368486	-0.032265
 938	4.6850e-01	2.5523	21.179817	0.001040	10.400700	3.523852	-0.083082
 939	4.6900e-01	2.5138	20.877335	0.000757	7.573325	2.565912	-0.060496
 940	4.6950e-01	2.4785	20.619217	0.000646	6.462571	2.189578	-0.051624
 941	4.7000e-01	2.4320	20.312701	0.000767	7.674303	2.600124	-0.061303
 942	4.7050e-01	2.4015	20.038450	0.000687	6.866481	2.326427	-0.054850
 943	4.7100e-01	2.3582	19.623041	0.001040	10.400700	3.523852	-0.083082
 944	4.7150e-01	2.3197	19.401221	0.000555	5.553772	1.881669	-0.044364
 945	4.7200e-01	2.2780	19.046308	0.000889	8.886035	3.010670	-0.070983
 946	4.7250e-01	2.2379	18.832554	0.000535	5.351816	1.813244	-0.042751
 947	4.7300e-01	2.1946	18.610734	0.000555	5.553772	1.881669	-0.044364
 948	4.7350e-01	2.1577	18.159026	0.001131	11.309499	3.831762	-0.090341
 949	4.7400e-01	2.1064	17.961405	0.000495	4.947906	1.676396	-0.039524
 950	4.7450e-01	2.0695	17.550029	0.001030	10.299722	3.489640	-0.082275
 951	4.7500e-01	2.0438	17.275778	0.000687	6.866481	2.326427	-0.054850
 952	4.7550e-01	1.9973	17.033792	0.000606	6.058660	2.052730	-0.048397
 953	4.7600e-01	1.9588	16.787773	0.000616	6.159638	2.086942	-0.049204
 954	4.7650e-01	1.9203	16.735343	0.000131	1.312710	0.444758	-0.010486
 955	4.7700e-01	1.8802	16.311867	0.001060	10.602655	3.592277	-0.084695
 956	4.7750e-01	1.8385	16.021484	0.000727	7.270392	2.463275	-0.058077
 957	4.7800e-01	1.7919	15.694803	0.000818	8.179191	2.771185	-0.065336
 958	4.7850e-01	1.7566	15.239063	0.001141	11.410476	3.865974	-0.091148
 959	4.7900e-01	1.7213	15.194699	0.000111	1.110754	0.376334	-0.008873
 960	4.7950e-01	1.6860	14.847853	0.000868	8.684079	2.942246	-0.069369
 961	4.8000e-01	1.6379	14.569569	0.000697	6.967459	2.360639	-0.055657
 962	4.8050e-01	1.5850	14.279186	0.000727	7.270392	2.463275	-0.058077
 963	4.8100e-01	1.5625	13.730684	0.001373	13.732963	4.652854	-0.109700
 964	4.8150e-01	1.5160	13.484665	0.000616	6.159638	2.086942	-0.049204
 965	4.8200e-01	1.4743	13.299143	0.000464	4.644973	1.573759	-0.037105
 966	4.8250e-01	1.4406	13.129752	0.000424	4.241062	1.436911	-0.033878
 967	4.8300e-01	1.3941	12.742575	0.000969	9.693856	3.284367	-0.077435
 968	4.8350e-01	1.3540	12.492523	0.000626	6.260615	2.121154	-0.050010
 969	4.8400e-01	1.3171	12.226338	0.000666	6.664526	2.258003	-0.053237
 970	4.8450e-01	1.2802	11.919823	0.000767	7.674303	2.600124	-0.061303
 971	4.8500e-01	1.2337	11.782698	0.000343	3.433241	1.163213	-0.027425
 972	4.8550e-01	1.2016	11.556844	0.000565	5.654749	1.915881	-0.045171
 973	4.8600e-01	1.1599	11.121269	0.001091	10.905588	3.694913	-0.087115
 974	4.8650e-01	1.1117	10.931714	0.000475	4.745950	1.607972	-0.037911
 975	4.8700e-01	1.0764	10.645364	0.000717	7.169414	2.429063	-0.057270
 976	4.8750e-01	1.0379	10.298517	0.000868	8.684079	2.942246	-0.069369
 977	4.8800e-01	0.9962	10.112995	0.000464	4.644973	1.573759	-0.037105
 978	4.8850e-01	0.9577	9.745983	0.000919	9.188968	3.113307	-0.073402
 979	4.8900e-01	0.9224	9.479798	0.000666	6.664526	2.258003	-0.053237
 980	4.8950e-01	0.8839	9.233779	0.000616	6.159638	2.086942	-0.049204
 981	4.9000e-01	0.8438	8.733675	0.001252	12.521231	4.242308	-0.100021
 982	4.9050e-01	0.7957	8.576384	0.000394	3.938129	1.334274	-0.031458
 983	4.9100e-01	0.7556	8.342464	0.000586	5.856705	1.984305	-0.046784
 984	4.9150e-01	0.7187	7.975452	0.000919	9.188968	3.113307	-0.073402
 985	4.9200e-01	0.6674	7.814129	0.000404	4.039107	1.368486	-0.032265
 986	4.9250e-01	0.6401	7.402752	0.001030	10.299722	3.489640	-0.082275
 987	4.9300e-01	0.5952	7.136568	0.000666	6.664526	2.258003	-0.053237
 988	4.9350e-01	0.5583	6.773589	0.000909	9.087990	3.079094	-0.072596
 989	4.9400e-01	0.5166	6.749391	0.000061	0.605866	0.205273	-0.004840
 990	4.9450e-01	0.4829	6.442875	0.000767	7.674303	2.600124	-0.061303
 991	4.9500e-01	0.4396	5.797579	0.001616	16.156427	5.473946	-0.129059
 992	4.9550e-01	0.3914	5.821778	-0.000061	-0.605866	-0.205273	0.004840
 993	4.9600e-01	0.3642	5.378137	0.001111	11.107543	3.763338	-0.088728
 994	4.9650e-01	0.3225	5.204714	0.000434	4.342040	1.471123	-0.034685
 995	4.9700e-01	0.2727	4.970794	0.000586	5.856705	1.984305	-0.046784
 996	4.9750e-01	0.2374	4.773172	0.000495	4.947906	1.676396	-0.039524
 997	4.9800e-01	0.2021	4.200472	0.001434	14.338829	4.858127	-0.114540
 998	4.9850e-01	0.1524	3.865725	0.000838	8.381146	2.839609	-0.066949
 999	4.9900e-01	0.1091	3.954453	-0.000222	-2.221509	-0.752668	0.017746
1000	4.9950e-01	0.0738	3.595507	0.000899	8.987012	3.044882	-0.071789
1001	5.0000e-01	0.0401	2.877616	0.001797	17.974025	6.089764	-0.143578
1002	5.0050e-01	0.0032	2.760656	0.000293	2.928352	0.992153	-0.023392
1003	5.0100e-01	-0.0337	2.643696	0.000293	2.928352	0.992153	-0.023392
1004	5.0150e-01	-0.0706	2.353313	0.000727	7.270392	2.463275	-0.058077
1005	5.0200e-01	-0.1187	2.131493	0.000555	5.553772	1.881669	-0.044364
1006	5.0250e-01	-0.1620	1.917738	0.000535	5.351816	1.813244	-0.042751
1007	5.0300e-01	-0.2021	1.667686	0.000626	6.260615	2.121154	-0.050010
1008	5.0350e-01	-0.2406	1.074821	0.001484	14.843717	5.029187	-0.118573
1009	5.0400e-01	-0.2743	0.961894	0.000283	2.827375	0.957940	-0.022585
1010	5.0450e-01	-0.3241	0.869133	0.000232	2.322486	0.786880	-0.018552
1011	5.0500e-01	-0.3529	0.308532	0.001404	14.035896	4.755490	-0.112120
1012	5.0550e-01	-0.3978	0.268201	0.000101	1.009777	0.342122	-0.008066
1013	5.0600e-01	-0.4283	0.058480	0.000525	5.250839	1.779032	-0.041944
1014	5.0650e-01	-0.4861	-0.268201	0.000818	8.179191	2.771185	-0.065336
1015	5.0700e-01	-0.5198	-0.651345	0.000959	9.592878	3.250155	-0.076629
1016	5.0750e-01	-0.5535	-1.038523	0.000969	9.693856	3.284367	-0.077435
1017	5.0800e-01	-0.5984	-1.280509	0.000606	6.058660	2.052730	-0.048397
1018	5.0850e-01	-0.6369	-1.643488	0.000909	9.087990	3.079094	-0.072596
1019	5.0900e-01	-0.6690	-1.998400	0.000889	8.886035	3.010670	-0.070983
1020	5.0950e-01	-0.7171	-2.236353	0.000596	5.957682	2.018517	-0.047591
1021	5.1000e-01	-0.7636	-2.373479	0.000343	3.433241	1.163213	-0.027425
1022	5.1050e-01	-0.8021	-2.615464	0.000606	6.058660	2.052730	-0.048397
1023	5.1100e-01	-0.8342	-2.994576	0.000949	9.491901	3.215943	-0.075822
1024	5.1150e-01	-0.8807	-3.430150	0.001091	10.905588	3.694913	-0.087115
1025	5.1200e-01	-0.9176	-3.651971	0.000555	5.553772	1.881669	-0.044364
1026	5.1250e-01	-0.9529	-3.829427	0.000444	4.443017	1.505335	-0.035491
1027	5.1300e-01	-0.9946	-4.135943	0.000767	7.674303	2.600124	-0.061303
1028	5.1350e-01	-1.0331	-4.301300	0.000414	4.140084	1.402699	-0.033071
1029	5.1400e-01	-1.0684	-4.708643	0.001020	10.198744	3.455428	-0.081469
1030	5.1450e-01	-1.1246	-4.978860	0.000677	6.765504	2.292215	-0.054044
1031	5.1500e-01	-1.1631	-5.164383	0.000464	4.644973	1.573759	-0.037105
1032	5.1550e-01	-1.1823	-5.402336	0.000596	5.957682	2.018517	-0.047591
1033	5.1600e-01	-1.2433	-5.874208	0.001181	11.814387	4.002823	-0.094375
1034	5.1650e-01	-1.2738	-6.253319	0.000949	9.491901	3.215943	-0.075822
1035	5.1700e-01	-1.3267	-6.446908	0.000485	4.846928	1.642184	-0.038718
1036	5.1750e-01	-1.3652	-6.499338	0.000131	1.312710	0.444758	-0.010486
1037	5.1800e-01	-1.3957	-6.890549	0.000979	9.794834	3.318579	-0.078242
1038	5.1850e-01	-1.4406	-7.144634	0.000636	6.361593	2.155366	-0.050817
1039	5.1900e-01	-1.4807	-7.499547	0.000889	8.886035	3.010670	-0.070983
1040	5.1950e-01	-1.5240	-7.737500	0.000596	5.957682	2.018517	-0.047591
1041	5.2000e-01	-1.5577	-8.156942	0.001050	10.501677	3.558065	-0.083888
1042	5.2050e-01	-1.6123	-8.447325	0.000727	7.270392	2.463275	-0.058077
1043	5.2100e-01	-1.6267	-8.765940	0.000798	7.977236	2.702761	-0.063723
1044	5.2150e-01	-1.6796	-8.979694	0.000535	5.351816	1.813244	-0.042751
1045	5.2200e-01	-1.7101	-9.290243	0.000778	7.775280	2.634336	-0.062110
1046	5.2250e-01	-1.7550	-9.516096	0.000565	5.654749	1.915881	-0.045171
1047	5.2300e-01	-1.7999	-9.729850	0.000535	5.351816	1.813244	-0.042751
1048	5.2350e-01	-1.8433	-9.979902	0.000626	6.260615	2.121154	-0.050010
1049	5.2400e-01	-1.8802	-10.540503	0.001404	14.035896	4.755490	-0.112120
1050	5.2450e-01	-1.9138	-10.875250	0.000838	8.381146	2.839609	-0.066949
1051	5.2500e-01	-1.9636	-11.089005	0.000535	5.351816	1.813244	-0.042751
1052	5.2550e-01	-1.9957	-11.274527	0.000464	4.644973	1.573759	-0.037105
1053	5.2600e-01	-2.0358	-11.617341	0.000858	8.583102	2.908034	-0.068563
1054	5.2650e-01	-2.0871	-11.770598	0.000384	3.837151	1.300062	-0.030652
1055	5.2700e-01	-2.1224	-12.069048	0.000747	7.472347	2.531700	-0.059690
1056	5.2750e-01	-2.1497	-12.415894	0.000868	8.684079	2.942246	-0.069369
1057	5.2800e-01	-2.2026	-12.649814	0.000586	5.856705	1.984305	-0.046784
1058	5.2850e-01	-2.2379	-12.799038	0.000374	3.736174	1.265850	-0.029845
1059	5.2900e-01	-2.2764	-13.141852	0.000858	8.583102	2.908034	-0.068563
1060	5.2950e-01	-2.3133	-13.589526	0.001121	11.208521	3.797550	-0.089535
1061	5.3000e-01	-2.3630	-13.641956	0.000131	1.312710	0.444758	-0.010486
1062	5.3050e-01	-2.3903	-14.170292	0.001323	13.228074	4.481793	-0.105667
1063	5.3100e-01	-2.4368	-14.436476	0.000666	6.664526	2.258003	-0.053237
1064	5.3150e-01	-2.4673	-14.722826	0.000717	7.169414	2.429063	-0.057270
1065	5.3200e-01	-2.5058	-15.041441	0.000798	7.977236	2.702761	-0.063723
1066	5.3250e-01	-2.5539	-15.283427	0.000606	6.058660	2.052730	-0.048397
1067	5.3300e-01	-2.6021	-15.364089	0.000202	2.019553	0.684243	-0.016132
1068	5.3350e-01	-2.6374	-15.735134	0.000929	9.289945	3.147519	-0.074209
1069	5.3400e-01	-2.6887	-16.005352	0.000677	6.765504	2.292215	-0.054044
1070	5.3450e-01	-2.7208	-16.227172	0.000555	5.553772	1.881669	-0.044364
1071	5.3500e-01	-2.7657	-16.505456	0.000697	6.967459	2.360639	-0.055657
1072	5.3550e-01	-2.7946	-16.949097	0.001111	11.107543	3.763338	-0.088728
1073	5.3600e-01	-2.8331	-17.183017	0.000586	5.856705	1.984305	-0.046784
1074	5.3650e-01	-2.8828	-17.465333	0.000707	7.068437	2.394851	-0.056463
1075	5.3700e-01	-2.9133	-17.731518	0.000666	6.664526	2.258003	-0.053237
1076	5.3750e-01	-2.9566	-18.021901	0.000727	7.270392	2.463275	-0.058077
1077	5.3800e-01	-2.9919	-18.324383	0.000757	7.573325	2.565912	-0.060496
1078	5.3850e-01	-3.0304	-18.453443	0.000323	3.231285	1.094789	-0.025812
1079	5.3900e-01	-3.0785	-18.820455	0.000919	9.188968	3.113307	-0.073402
1080	5.3950e-01	-3.1154	-19.066474	0.000616	6.159638	2.086942	-0.049204
1081	5.4000e-01	-3.1539	-19.268129	0.000505	5.048883	1.710608	-0.040331
1082	5.4050e-01	-3.1908	-19.740001	0.001181	11.814387	4.002823	-0.094375
1083	5.4100e-01	-3.2438	-20.115079	0.000939	9.390923	3.181731	-0.075016
1084	5.4150e-01	-3.2855	-20.256238	0.000353	3.534218	1.197426	-0.028232
1085	5.4200e-01	-3.3159	-20.530488	0.000687	6.866481	2.326427	-0.054850
1086	5.4250e-01	-3.3545	-20.792640	0.000656	6.563548	2.223790	-0.052430
1087	5.4300e-01	-3.4026	-20.966063	0.000434	4.342040	1.471123	-0.034685
1088	5.4350e-01	-3.4331	-21.373406	0.001020	10.198744	3.455428	-0.081469
1089	5.4400e-01	-3.4716	-21.772683	0.001000	9.996789	3.387004	-0.079855
1090	5.4450e-01	-3.5181	-22.127595	0.000889	8.886035	3.010670	-0.070983
1091	5.4500e-01	-3.5566	-22.296986	0.000424	4.241062	1.436911	-0.033878
1092	5.4550e-01	-3.6031	-22.530905	0.000586	5.856705	1.984305	-0.046784
1093	5.4600e-01	-3.6320	-22.615600	0.000212	2.120531	0.718455	-0.016939
1094	5.4650e-01	-3.6737	-23.010844	0.000990	9.895811	3.352792	-0.079049
1095	5.4700e-01	-3.7282	-23.309293	0.000747	7.472347	2.531700	-0.059690
1096	5.4750e-01	-3.7523	-23.777133	0.001171	11.713409	3.968611	-0.093568
1097	5.4800e-01	-3.7972	-23.756967	-0.000050	-0.504888	-0.171061	0.004033
1098	5.4850e-01	-3.8293	-24.136079	0.000949	9.491901	3.215943	-0.075822
1099	5.4900e-01	-3.8855	-24.672481	0.001343	13.430030	4.550217	-0.107280
1100	5.4950e-01	-3.9256	-24.946731	0.000687	6.866481	2.326427	-0.054850
1101	5.5000e-01	-3.9576	-25.140320	0.000485	4.846928	1.642184	-0.038718
1102	5.5050e-01	-3.9977	-25.418604	0.000697	6.967459	2.360639	-0.055657
1103	5.5100e-01	-4.0395	-25.575895	0.000394	3.938129	1.334274	-0.031458
1104	5.5150e-01	-4.0764	-25.805781	0.000576	5.755727	1.950093	-0.045977
1105	5.5200e-01	-4.1229	-26.112297	0.000767	7.674303	2.600124	-0.061303
1106	5.5250e-01	-4.1518	-26.265555	0.000384	3.837151	1.300062	-0.030652
1107	5.5300e-01	-4.1999	-26.737427	0.001181	11.814387	4.002823	-0.094375
1108	5.5350e-01	-4.2304	-26.991512	0.000636	6.361593	2.155366	-0.050817
1109	5.5400e-01	-4.2753	-27.281895	0.000727	7.270392	2.463275	-0.058077
1110	5.5450e-01	-4.3154	-27.531948	0.000626	6.260615	2.121154	-0.050010
1111	5.5500e-01	-4.3667	-27.939291	0.001020	10.198744	3.455428	-0.081469
1112	5.5550e-01	-4.3972	-28.040118	0.000252	2.524442	0.855304	-0.020165
1113	5.5600e-01	-4.4389	-28.419229	0.000949	9.491901	3.215943	-0.075822
1114	5.5650e-01	-4.4710	-28.596686	0.000444	4.443017	1.505335	-0.035491
1115	5.5700e-01	-4.5255	-29.028227	0.001080	10.804610	3.660701	-0.086308
1116	5.5750e-01	-4.5544	-29.096790	0.000172	1.716620	0.581607	-0.013713
1117	5.5800e-01	-4.6009	-29.479934	0.000959	9.592878	3.250155	-0.076629
1118	5.5850e-01	-4.6459	-29.754185	0.000687	6.866481	2.326427	-0.054850
1119	5.5900e-01	-4.6795	-29.976005	0.000555	5.553772	1.881669	-0.044364
1120	5.5950e-01	-4.7180	-30.290587	0.000788	7.876258	2.668548	-0.062916
1121	5.6000e-01	-4.7582	-30.754393	0.001161	11.612432	3.934398	-0.092761
1122	5.6050e-01	-4.7967	-31.036710	0.000707	7.068437	2.394851	-0.056463
1123	5.6100e-01	-4.8384	-31.226266	0.000475	4.745950	1.607972	-0.037911
1124	5.6150e-01	-4.8769	-31.427921	0.000505	5.048883	1.710608	-0.040331
1125	5.6200e-01	-4.9138	-31.673940	0.000616	6.159638	2.086942	-0.049204
1126	5.6250e-01	-4.9539	-32.093382	0.001050	10.501677	3.558065	-0.083888
1127	5.6300e-01	-5.0036	-32.363600	0.000677	6.765504	2.292215	-0.054044
1128	5.6350e-01	-5.0405	-32.746744	0.000959	9.592878	3.250155	-0.076629
1129	5.6400e-01	-5.0758	-32.940333	0.000485	4.846928	1.642184	-0.038718
1130	5.6450e-01	-5.1207	-33.375907	0.001091	10.905588	3.694913	-0.087115
1131	5.6500e-01	-5.1544	-33.210550	-0.000414	-4.140084	-1.402699	0.033071
1132	5.6550e-01	-5.1961	-33.710655	0.001252	12.521231	4.242308	-0.100021
1133	5.6600e-01	-5.2362	-34.061534	0.000879	8.785057	2.976458	-0.070176
1134	5.6650e-01	-5.2779	-34.275288	0.000535	5.351816	1.813244	-0.042751
1135	5.6700e-01	-5.3132	-34.355950	0.000202	2.019553	0.684243	-0.016132
1136	5.6750e-01	-5.3597	-34.815724	0.001151	11.511454	3.900186	-0.091955
1137	5.6800e-01	-5.4079	-34.868154	0.000131	1.312710	0.444758	-0.010486
1138	5.6850e-01	-5.4367	-35.436821	0.001424	14.237851	4.823915	-0.113733
1139	5.6900e-01	-5.4704	-35.634443	0.000495	4.947906	1.676396	-0.039524
1140	5.6950e-01	-5.5186	-35.957091	0.000808	8.078213	2.736973	-0.064530
1141	5.7000e-01	-5.5458	-36.352334	0.000990	9.895811	3.352792	-0.079049
1142	5.7050e-01	-5.5956	-36.481393	0.000323	3.231285	1.094789	-0.025812
1143	5.7100e-01	-5.6293	-36.880670	0.001000	9.996789	3.387004	-0.079855
1144	5.7150e-01	-5.6886	-37.082325	0.000505	5.048883	1.710608	-0.040331
1145	5.7200e-01	-5.7271	-37.304146	0.000555	5.553772	1.881669	-0.044364
1146	5.7250e-01	-5.7592	-37.630827	0.000818	8.179191	2.771185	-0.065336
1147	5.7300e-01	-5.8057	-37.816349	0.000464	4.644973	1.573759	-0.037105
1148	5.7350e-01	-5.8394	-38.122865	0.000767	7.674303	2.600124	-0.061303
1149	5.7400e-01	-5.8795	-38.489877	0.000919	9.188968	3.113307	-0.073402
1150	5.7450e-01	-5.9180	-38.901253	0.001030	10.299722	3.489640	-0.082275
1151	5.7500e-01	-5.9581	-39.014179	0.000283	2.827375	0.957940	-0.022585
1152	5.7550e-01	-5.9998	-39.127106	0.000283	2.827375	0.957940	-0.022585
1153	5.7600e-01	-6.0383	-39.562681	0.001091	10.905588	3.694913	-0.087115
1154	5.7650e-01	-6.0768	-39.921627	0.000899	8.987012	3.044882	-0.071789
1155	5.7700e-01	-6.1169	-40.111182	0.000475	4.745950	1.607972	-0.037911
1156	5.7750e-01	-6.1619	-40.453996	0.000858	8.583102	2.908034	-0.068563
1157	5.7800e-01	-6.2020	-40.554823	0.000252	2.524442	0.855304	-0.020165
1158	5.7850e-01	-6.2421	-40.889570	0.000838	8.381146	2.839609	-0.066949
1159	5.7900e-01	-6.2790	-41.272715	0.000959	9.592878	3.250155	-0.076629
1160	5.7950e-01	-6.3207	-41.502601	0.000576	5.755727	1.950093	-0.045977
1161	5.8000e-01	-6.3544	-42.026904	0.001313	13.127097	4.447581	-0.104861
1162	5.8050e-01	-6.3897	-42.059169	0.000081	0.807821	0.273697	-0.006453
1163	5.8100e-01	-6.4378	-42.648001	0.001474	14.742739	4.994975	-0.117766
1164	5.8150e-01	-6.4699	-42.736729	0.000222	2.221509	0.752668	-0.017746
1165	5.8200e-01	-6.5084	-42.942417	0.000515	5.149861	1.744820	-0.041138
1166	5.8250e-01	-6.5501	-43.232800	0.000727	7.270392	2.463275	-0.058077
1167	5.8300e-01	-6.5950	-43.466720	0.000586	5.856705	1.984305	-0.046784
1168	5.8350e-01	-6.6383	-43.712739	0.000616	6.159638	2.086942	-0.049204
1169	5.8400e-01	-6.6832	-43.942626	0.000576	5.755727	1.950093	-0.045977
1170	5.8450e-01	-6.7169	-44.341903	0.001000	9.996789	3.387004	-0.079855
1171	5.8500e-01	-6.7602	-44.483061	0.000353	3.534218	1.197426	-0.028232
1172	5.8550e-01	-6.7891	-44.773444	0.000727	7.270392	2.463275	-0.058077
1173	5.8600e-01	-6.8485	-45.007364	0.000586	5.856705	1.984305	-0.046784
1174	5.8650e-01	-6.8725	-45.438905	0.001080	10.804610	3.660701	-0.086308
1175	5.8700e-01	-6.9287	-45.668792	0.000576	5.755727	1.950093	-0.045977
1176	5.8750e-01	-6.9592	-45.834149	0.000414	4.140084	1.402699	-0.033071
1177	5.8800e-01	-6.9945	-46.108400	0.000687	6.866481	2.326427	-0.054850
1178	5.8850e-01	-7.0362	-46.410882	0.000757	7.573325	2.565912	-0.060496
1179	5.8900e-01	-7.0747	-46.644802	0.000586	5.856705	1.984305	-0.046784
1180	5.8950e-01	-7.1164	-46.959384	0.000788	7.876258	2.668548	-0.062916
1181	5.9000e-01	-7.1549	-47.112641	0.000384	3.837151	1.300062	-0.030652
1182	5.9050e-01	-7.1982	-47.580481	0.001171	11.713409	3.968611	-0.093568
1183	5.9100e-01	-7.2383	-48.084618	0.001262	12.622208	4.276520	-0.100827
1184	5.9150e-01	-7.2656	-48.282240	0.000495	4.947906	1.676396	-0.039524
1185	5.9200e-01	-7.3153	-48.419365	0.000343	3.433241	1.163213	-0.027425
1186	5.9250e-01	-7.3442	-48.616987	0.000495	4.947906	1.676396	-0.039524
1187	5.9300e-01	-7.3939	-48.778311	0.000404	4.039107	1.368486	-0.032265
1188	5.9350e-01	-7.4308	-49.254217	0.001192	11.915365	4.037035	-0.095181
1189	5.9400e-01	-7.4725	-49.601063	0.000868	8.684079	2.942246	-0.069369
1190	5.9450e-01	-7.5126	-49.839016	0.000596	5.957682	2.018517	-0.047591
1191	5.9500e-01	-7.5640	-49.887413	0.000121	1.211732	0.410546	-0.009679
1192	5.9550e-01	-7.6057	-50.351220	0.001161	11.612432	3.934398	-0.092761
1193	5.9600e-01	-7.6378	-50.661768	0.000778	7.775280	2.634336	-0.062110
1194	5.9650e-01	-7.6827	-50.871489	0.000525	5.250839	1.779032	-0.041944
1195	5.9700e-01	-7.7164	-51.069111	0.000495	4.947906	1.676396	-0.039524
1196	5.9750e-01	-7.7517	-51.371593	0.000757	7.573325	2.565912	-0.060496
1197	5.9800e-01	-7.7934	-51.573248	0.000505	5.048883	1.710608	-0.040331
1198	5.9850e-01	-7.8287	-51.992691	0.001050	10.501677	3.558065	-0.083888
1199	5.9900e-01	-7.8784	-52.226610	0.000586	5.856705	1.984305	-0.046784
1200	5.9950e-01	-7.9217	-52.500861	0.000687	6.866481	2.326427	-0.054850
1201	6.0000e-01	-7.9586	-52.758979	0.000646	6.462571	2.189578	-0.051624
1202	6.0050e-01	-7.9971	-53.049362	0.000727	7.270392	2.463275	-0.058077
1203	6.0100e-01	-8.0372	-53.384110	0.000838	8.381146	2.839609	-0.066949
1204	6.0150e-01	-8.0741	-53.694658	0.000778	7.775280	2.634336	-0.062110
1205	6.0200e-01	-8.1206	-53.682559	-0.000030	-0.302933	-0.102636	0.002420
1206	6.0250e-01	-8.1559	-54.021339	0.000848	8.482124	2.873821	-0.067756
1207	6.0300e-01	-8.1976	-54.319789	0.000747	7.472347	2.531700	-0.059690
1208	6.0350e-01	-8.2329	-54.577907	0.000646	6.462571	2.189578	-0.051624
1209	6.0400e-01	-8.2634	-54.836025	0.000646	6.462571	2.189578	-0.051624
1210	6.0450e-01	-8.3147	-55.158673	0.000808	8.078213	2.736973	-0.064530
1211	6.0500e-01	-8.3564	-55.517619	0.000899	8.987012	3.044882	-0.071789
1212	6.0550e-01	-8.3901	-55.743472	0.000565	5.654749	1.915881	-0.045171
1213	6.0600e-01	-8.4302	-56.005624	0.000656	6.563548	2.223790	-0.052430
1214	6.0650e-01	-8.4703	-56.175014	0.000424	4.241062	1.436911	-0.033878
1215	6.0700e-01	-8.5121	-56.388768	0.000535	5.351816	1.813244	-0.042751
1216	6.0750e-01	-8.5538	-56.788045	0.001000	9.996789	3.387004	-0.079855
1217	6.0800e-01	-8.5987	-57.138924	0.000879	8.785057	2.976458	-0.070176
1218	6.0850e-01	-8.6404	-57.324447	0.000464	4.644973	1.573759	-0.037105
1219	6.0900e-01	-8.6757	-57.534168	0.000525	5.250839	1.779032	-0.041944
1220	6.0950e-01	-8.7174	-57.977809	0.001111	11.107543	3.763338	-0.088728
1221	6.1000e-01	-8.7511	-58.151232	0.000434	4.342040	1.471123	-0.034685
1222	6.1050e-01	-8.7896	-58.356920	0.000515	5.149861	1.744820	-0.041138
1223	6.1100e-01	-8.8377	-58.788462	0.001080	10.804610	3.660701	-0.086308
1224	6.1150e-01	-8.8730	-58.978017	0.000475	4.745950	1.607972	-0.037911
1225	6.1200e-01	-8.9163	-58.994150	0.000040	0.403911	0.136849	-0.003226
1226	6.1250e-01	-8.9548	-59.526519	0.001333	13.329052	4.516005	-0.106474
1227	6.1300e-01	-8.9933	-59.647512	0.000303	3.029330	1.026365	-0.024199
1228	6.1350e-01	-9.0366	-60.054855	0.001020	10.198744	3.455428	-0.081469
1229	6.1400e-01	-9.0751	-60.187947	0.000333	3.332263	1.129001	-0.026618
1230	6.1450e-01	-9.1104	-60.655786	0.001171	11.713409	3.968611	-0.093568
1231	6.1500e-01	-9.1634	-60.708217	0.000131	1.312710	0.444758	-0.010486
1232	6.1550e-01	-9.1955	-61.172023	0.001161	11.612432	3.934398	-0.092761
1233	6.1600e-01	-9.2420	-61.361579	0.000475	4.745950	1.607972	-0.037911
1234	6.1650e-01	-9.2741	-61.716491	0.000889	8.886035	3.010670	-0.070983
1235	6.1700e-01	-9.3142	-61.793120	0.000192	1.918576	0.650031	-0.015326
1236	6.1750e-01	-9.3607	-62.103669	0.000778	7.775280	2.634336	-0.062110
1237	6.1800e-01	-9.4024	-62.329522	0.000565	5.654749	1.915881	-0.045171
1238	6.1850e-01	-9.4505	-62.716700	0.000969	9.693856	3.284367	-0.077435
1239	6.1900e-01	-9.4746	-62.958686	0.000606	6.058660	2.052730	-0.048397
1240	6.1950e-01	-9.5179	-63.055480	0.000242	2.423464	0.821092	-0.019359
1241	6.2000e-01	-9.5564	-63.446691	0.000979	9.794834	3.318579	-0.078242
1242	6.2050e-01	-9.5997	-63.708842	0.000656	6.563548	2.223790	-0.052430
1243	6.2100e-01	-9.6366	-64.221046	0.001282	12.824164	4.344944	-0.102441
1244	6.2150e-01	-9.6671	-64.273476	0.000131	1.312710	0.444758	-0.010486
1245	6.2200e-01	-9.7184	-64.483197	0.000525	5.250839	1.779032	-0.041944
1246	6.2250e-01	-9.7602	-64.741315	0.000646	6.462571	2.189578	-0.051624
1247	6.2300e-01	-9.8003	-65.076062	0.000838	8.381146	2.839609	-0.066949
1248	6.2350e-01	-9.8356	-65.410810	0.000838	8.381146	2.839609	-0.066949
1249	6.2400e-01	-9.8757	-65.576167	0.000414	4.140084	1.402699	-0.033071
1250	6.2450e-01	-9.9158	-65.906881	0.000828	8.280169	2.805397	-0.066143
1251	6.2500e-01	-9.9591	-66.156933	0.000626	6.260615	2.121154	-0.050010
1252	6.2550e-01	-9.9992	-66.560243	0.001010	10.097767	3.421216	-0.080662
1253	6.2600e-01	-10.0377	-66.725600	0.000414	4.140084	1.402699	-0.033071
1254	6.2650e-01	-10.0778	-67.028082	0.000757	7.573325	2.565912	-0.060496
1255	6.2700e-01	-10.1147	-67.302333	0.000687	6.866481	2.326427	-0.054850
1256	6.2750e-01	-10.1516	-67.370896	0.000172	1.716620	0.581607	-0.013713
1257	6.2800e-01	-10.1981	-67.681444	0.000778	7.775280	2.634336	-0.062110
1258	6.2850e-01	-10.2302	-67.975860	0.000737	7.371370	2.497488	-0.058883
1259	6.2900e-01	-10.2783	-68.209780	0.000586	5.856705	1.984305	-0.046784
1260	6.2950e-01	-10.3152	-68.463865	0.000636	6.361593	2.155366	-0.050817
1261	6.3000e-01	-10.3617	-68.693752	0.000576	5.755727	1.950093	-0.045977
1262	6.3050e-01	-10.3970	-69.052698	0.000899	8.987012	3.044882	-0.071789
1263	6.3100e-01	-10.4355	-69.302750	0.000626	6.260615	2.121154	-0.050010
1264	6.3150e-01	-10.4724	-69.653629	0.000879	8.785057	2.976458	-0.070176
1265	6.3200e-01	-10.5190	-69.726225	0.000182	1.817598	0.615819	-0.014519
1266	6.3250e-01	-10.5575	-70.020641	0.000737	7.371370	2.497488	-0.058883
1267	6.3300e-01	-10.5927	-70.456216	0.001091	10.905588	3.694913	-0.087115
1268	6.3350e-01	-10.6409	-70.605441	0.000374	3.736174	1.265850	-0.029845
1269	6.3400e-01	-10.6746	-70.952287	0.000868	8.684079	2.942246	-0.069369
1270	6.3450e-01	-10.7099	-71.149909	0.000495	4.947906	1.676396	-0.039524
1271	6.3500e-01	-10.7660	-71.323332	0.000434	4.342040	1.471123	-0.034685
1272	6.3550e-01	-10.7965	-71.912165	0.001474	14.742739	4.994975	-0.117766
1273	6.3600e-01	-10.8350	-71.948463	0.000091	0.908799	0.307909	-0.007260
1274	6.3650e-01	-10.8799	-72.121886	0.000434	4.342040	1.471123	-0.034685
1275	6.3700e-01	-10.9216	-72.476798	0.000889	8.886035	3.010670	-0.070983
1276	6.3750e-01	-10.9585	-72.670387	0.000485	4.846928	1.642184	-0.038718
1277	6.3800e-01	-10.9938	-72.989002	0.000798	7.977236	2.702761	-0.063723
1278	6.3850e-01	-11.0387	-72.968836	-0.000050	-0.504888	-0.171061	0.004033
1279	6.3900e-01	-11.0804	-73.489106	0.001303	13.026119	4.413369	-0.104054
1280	6.3950e-01	-11.1125	-73.831920	0.000858	8.583102	2.908034	-0.068563
1281	6.4000e-01	-11.1671	-73.884350	0.000131	1.312710	0.444758	-0.010486
1282	6.4050e-01	-11.2024	-74.114236	0.000576	5.755727	1.950093	-0.045977
1283	6.4100e-01	-11.2360	-74.388487	0.000687	6.866481	2.326427	-0.054850
1284	6.4150e-01	-11.2794	-74.815996	0.001070	10.703633	3.626489	-0.085502
1285	6.4200e-01	-11.3130	-75.062015	0.000616	6.159638	2.086942	-0.049204
1286	6.4250e-01	-11.3532	-75.203173	0.000353	3.534218	1.197426	-0.028232
1287	6.4300e-01	-11.3901	-75.594384	0.000979	9.794834	3.318579	-0.078242
1288	6.4350e-01	-11.4382	-75.921065	0.000818	8.179191	2.771185	-0.065336
1289	6.4400e-01	-11.4767	-76.038024	0.000293	2.928352	0.992153	-0.023392
1290	6.4450e-01	-11.5136	-76.251779	0.000535	5.351816	1.813244	-0.042751
1291	6.4500e-01	-11.5617	-76.441334	0.000475	4.745950	1.607972	-0.037911
1292	6.4550e-01	-11.6018	-76.784148	0.000858	8.583102	2.908034	-0.068563
1293	6.4600e-01	-11.6403	-77.280219	0.001242	12.420253	4.208096	-0.099214
1294	6.4650e-01	-11.6692	-77.506072	0.000565	5.654749	1.915881	-0.045171
1295	6.4700e-01	-11.7189	-77.824687	0.000798	7.977236	2.702761	-0.063723
1296	6.4750e-01	-11.7590	-77.873084	0.000121	1.211732	0.410546	-0.009679
1297	6.4800e-01	-11.7959	-78.143302	0.000677	6.765504	2.292215	-0.054044
1298	6.4850e-01	-11.8328	-78.264295	0.000303	3.029330	1.026365	-0.024199
1299	6.4900e-01	-11.8793	-78.776498	0.001282	12.824164	4.344944	-0.102441
1300	6.4950e-01	-11.9162	-78.933789	0.000394	3.938129	1.334274	-0.031458
1301	6.5000e-01	-11.9483	-79.135444	0.000505	5.048883	1.710608	-0.040331
1302	6.5050e-01	-11.9948	-79.365331	0.000576	5.755727	1.950093	-0.045977
1303	6.5100e-01	-12.0398	-79.780740	0.001040	10.400700	3.523852	-0.083082
1304	6.5150e-01	-12.0767	-80.014660	0.000586	5.856705	1.984305	-0.046784
1305	6.5200e-01	-12.1200	-80.180017	0.000414	4.140084	1.402699	-0.033071
1306	6.5250e-01	-12.1537	-80.357473	0.000444	4.443017	1.505335	-0.035491
1307	6.5300e-01	-12.2082	-80.740617	0.000959	9.592878	3.250155	-0.076629
1308	6.5350e-01	-12.2355	-80.889842	0.000374	3.736174	1.265850	-0.029845
1309	6.5400e-01	-12.2724	-81.260887	0.000929	9.289945	3.147519	-0.074209
1310	6.5450e-01	-12.3157	-81.377847	0.000293	2.928352	0.992153	-0.023392
1311	6.5500e-01	-12.3574	-81.688396	0.000778	7.775280	2.634336	-0.062110
1312	6.5550e-01	-12.4007	-81.809389	0.000303	3.029330	1.026365	-0.024199
1313	6.5600e-01	-12.4360	-82.091706	0.000707	7.068437	2.394851	-0.056463
1314	6.5650e-01	-12.4745	-82.595843	0.001262	12.622208	4.276520	-0.100827
1315	6.5700e-01	-12.5130	-82.950756	0.000889	8.886035	3.010670	-0.070983
1316	6.5750e-01	-12.5579	-83.071748	0.000303	3.029330	1.026365	-0.024199
1317	6.5800e-01	-12.5996	-83.148377	0.000192	1.918576	0.650031	-0.015326
1318	6.5850e-01	-12.6381	-83.305668	0.000394	3.938129	1.334274	-0.031458
1319	6.5900e-01	-12.6750	-83.834004	0.001323	13.228074	4.481793	-0.105667
1320	6.5950e-01	-12.7071	-84.152619	0.000798	7.977236	2.702761	-0.063723
1321	6.6000e-01	-12.7601	-84.257479	0.000263	2.625419	0.889516	-0.020972
1322	6.6050e-01	-12.8034	-84.515598	0.000646	6.462571	2.189578	-0.051624
1323	6.6100e-01	-12.8467	-84.757584	0.000606	6.058660	2.052730	-0.048397
1324	6.6150e-01	-12.8788	-85.257688	0.001252	12.521231	4.242308	-0.100021
1325	6.6200e-01	-12.9157	-85.435144	0.000444	4.443017	1.505335	-0.035491
1326	6.6250e-01	-12.9510	-85.608567	0.000434	4.342040	1.471123	-0.034685
1327	6.6300e-01	-12.9927	-85.894917	0.000717	7.169414	2.429063	-0.057270
1328	6.6350e-01	-13.0392	-85.987679	0.000232	2.322486	0.786880	-0.018552
1329	6.6400e-01	-13.0777	-86.455518	0.001171	11.713409	3.968611	-0.093568
1330	6.6450e-01	-13.1146	-86.641041	0.000464	4.644973	1.573759	-0.037105
1331	6.6500e-01	-13.1483	-86.826563	0.000464	4.644973	1.573759	-0.037105
1332	6.6550e-01	-13.1932	-87.096781	0.000677	6.765504	2.292215	-0.054044
1333	6.6600e-01	-13.2333	-87.403296	0.000767	7.674303	2.600124	-0.061303
1334	6.6650e-01	-13.2718	-87.657382	0.000636	6.361593	2.155366	-0.050817
1335	6.6700e-01	-13.3167	-87.786441	0.000323	3.231285	1.094789	-0.025812
1336	6.6750e-01	-13.3568	-87.992129	0.000515	5.149861	1.744820	-0.041138
1337	6.6800e-01	-13.3986	-88.302677	0.000778	7.775280	2.634336	-0.062110
1338	6.6850e-01	-13.4258	-88.714053	0.001030	10.299722	3.489640	-0.082275
1339	6.6900e-01	-13.4868	-88.851179	0.000343	3.433241	1.163213	-0.027425
1340	6.6950e-01	-13.5189	-88.907642	0.000141	1.413687	0.478970	-0.011293
1341	6.7000e-01	-13.5590	-89.234323	0.000818	8.179191	2.771185	-0.065336
1342	6.7050e-01	-13.5879	-89.532772	0.000747	7.472347	2.531700	-0.059690
1343	6.7100e-01	-13.6296	-90.032877	0.001252	12.521231	4.242308	-0.100021
1344	6.7150e-01	-13.6793	-90.157903	0.000313	3.130308	1.060577	-0.025005
1345	6.7200e-01	-13.7114	-90.403922	0.000616	6.159638	2.086942	-0.049204
1346	6.7250e-01	-13.7515	-90.609610	0.000515	5.149861	1.744820	-0.041138
1347	6.7300e-01	-13.7980	-90.847563	0.000596	5.957682	2.018517	-0.047591
1348	6.7350e-01	-13.8365	-90.928225	0.000202	2.019553	0.684243	-0.016132
1349	6.7400e-01	-13.8814	-91.444461	0.001293	12.925141	4.379156	-0.103247
1350	6.7450e-01	-13.9199	-91.553355	0.000273	2.726397	0.923728	-0.021779
1351	6.7500e-01	-13.9665	-91.968764	0.001040	10.400700	3.523852	-0.083082
1352	6.7550e-01	-14.0001	-92.234948	0.000666	6.664526	2.258003	-0.053237
1353	6.7600e-01	-14.0370	-92.372074	0.000343	3.433241	1.163213	-0.027425
1354	6.7650e-01	-14.0755	-92.436603	0.000162	1.615643	0.547395	-0.012906
1355	6.7700e-01	-14.1140	-92.698755	0.000656	6.563548	2.223790	-0.052430
1356	6.7750e-01	-14.1590	-92.985105	0.000717	7.169414	2.429063	-0.057270
1357	6.7800e-01	-14.1878	-93.344051	0.000899	8.987012	3.044882	-0.071789
1358	6.7850e-01	-14.2456	-93.299687	-0.000111	-1.110754	-0.376334	0.008873
1359	6.7900e-01	-14.2825	-93.573937	0.000687	6.866481	2.326427	-0.054850
1360	6.7950e-01	-14.3130	-94.005479	0.001080	10.804610	3.660701	-0.086308
1361	6.8000e-01	-14.3515	-94.388623	0.000959	9.592878	3.250155	-0.076629
1362	6.8050e-01	-14.3916	-94.537848	0.000374	3.736174	1.265850	-0.029845
1363	6.8100e-01	-14.4317	-94.824198	0.000717	7.169414	2.429063	-0.057270
1364	6.8150e-01	-14.4734	-95.106515	0.000707	7.068437	2.394851	-0.056463
1365	6.8200e-01	-14.5183	-95.376732	0.000677	6.765504	2.292215	-0.054044
1366	6.8250e-01	-14.5632	-95.663082	0.000717	7.169414	2.429063	-0.057270
1367	6.8300e-01	-14.5921	-95.695347	0.000081	0.807821	0.273697	-0.006453
1368	6.8350e-01	-14.6402	-95.961532	0.000666	6.664526	2.258003	-0.053237
1369	6.8400e-01	-14.6868	-96.259981	0.000747	7.472347	2.531700	-0.059690
1370	6.8450e-01	-14.7204	-96.497934	0.000596	5.957682	2.018517	-0.047591
1371	6.8500e-01	-14.7541	-96.981906	0.001212	12.117320	4.105459	-0.096794
1372	6.8550e-01	-14.7926	-97.167428	0.000464	4.644973	1.573759	-0.037105
1373	6.8600e-01	-14.8311	-97.542506	0.000939	9.390923	3.181731	-0.075016
1374	6.8650e-01	-14.8793	-97.566705	0.000061	0.605866	0.205273	-0.004840
1375	6.8700e-01	-14.9146	-97.732062	0.000414	4.140084	1.402699	-0.033071
1376	6.8750e-01	-14.9563	-97.921618	0.000475	4.745950	1.607972	-0.037911
1377	6.8800e-01	-15.0044	-98.212001	0.000727	7.270392	2.463275	-0.058077
1378	6.8850e-01	-15.0349	-98.494318	0.000707	7.068437	2.394851	-0.056463
1379	6.8900e-01	-15.0766	-98.776634	0.000707	7.068437	2.394851	-0.056463
1380	6.8950e-01	-15.1183	-99.062984	0.000717	7.169414	2.429063	-0.057270
1381	6.9000e-01	-15.1568	-99.288838	0.000565	5.654749	1.915881	-0.045171
1382	6.9050e-01	-15.1921	-99.498559	0.000525	5.250839	1.779032	-0.041944
1383	6.9100e-01	-15.2386	-99.571155	0.000182	1.817598	0.615819	-0.014519
1384	6.9150e-01	-15.2739	-100.075292	0.001262	12.622208	4.276520	-0.100827
1385	6.9200e-01	-15.3204	-100.301146	0.000565	5.654749	1.915881	-0.045171
1386	6.9250e-01	-15.3557	-100.571363	0.000677	6.765504	2.292215	-0.054044
1387	6.9300e-01	-15.4006	-100.643959	0.000182	1.817598	0.615819	-0.014519
1388	6.9350e-01	-15.4375	-100.732687	0.000222	2.221509	0.752668	-0.017746
1389	6.9400e-01	-15.4792	-101.047269	0.000788	7.876258	2.668548	-0.062916
1390	6.9450e-01	-15.5177	-101.567539	0.001303	13.026119	4.413369	-0.104054
1391	6.9500e-01	-15.5611	-101.684499	0.000293	2.928352	0.992153	-0.023392
1392	6.9550e-01	-15.6012	-101.995047	0.000778	7.775280	2.634336	-0.062110
1393	6.9600e-01	-15.6332	-102.237033	0.000606	6.058660	2.052730	-0.048397
1394	6.9650e-01	-15.6782	-102.341894	0.000263	2.625419	0.889516	-0.020972
1395	6.9700e-01	-15.7151	-102.503218	0.000404	4.039107	1.368486	-0.032265
1396	6.9750e-01	-15.7536	-103.031553	0.001323	13.228074	4.481793	-0.105667
1397	6.9800e-01	-15.8033	-103.301771	0.000677	6.765504	2.292215	-0.054044
1398	6.9850e-01	-15.8338	-103.418731	0.000293	2.928352	0.992153	-0.023392
1399	6.9900e-01	-15.8771	-103.676849	0.000646	6.462571	2.189578	-0.051624
1400	6.9950e-01	-15.9236	-103.725246	0.000121	1.211732	0.410546	-0.009679
1401	7.0000e-01	-15.9525	-103.959166	0.000586	5.856705	1.984305	-0.046784
1402	7.0050e-01	-15.9958	-104.306013	0.000868	8.684079	2.942246	-0.069369
1403	7.0100e-01	-16.0375	-104.632694	0.000818	8.179191	2.771185	-0.065336
1404	7.0150e-01	-16.0824	-104.757720	0.000313	3.130308	1.060577	-0.025005
1405	7.0200e-01	-16.1193	-105.181195	0.001060	10.602655	3.592277	-0.084695
1406	7.0250e-01	-16.1530	-105.572406	0.000979	9.794834	3.318579	-0.078242
1407	7.0300e-01	-16.1995	-105.568372	-0.000010	-0.100978	-0.034212	0.000807
1408	7.0350e-01	-16.2284	-105.903120	0.000838	8.381146	2.839609	-0.066949
1409	7.0400e-01	-16.2814	-106.161238	0.000646	6.462571	2.189578	-0.051624
1410	7.0450e-01	-16.3118	-106.346760	0.000464	4.644973	1.573759	-0.037105
1411	7.0500e-01	-16.3584	-106.608912	0.000656	6.563548	2.223790	-0.052430
1412	7.0550e-01	-16.3985	-106.867030	0.000646	6.462571	2.189578	-0.051624
1413	7.0600e-01	-16.4354	-106.915427	0.000121	1.211732	0.410546	-0.009679
1414	7.0650e-01	-16.4819	-107.314704	0.001000	9.996789	3.387004	-0.079855
1415	7.0700e-01	-16.5172	-107.645418	0.000828	8.280169	2.805397	-0.066143
1416	7.0750e-01	-16.5541	-107.976132	0.000828	8.280169	2.805397	-0.066143
1417	7.0800e-01	-16.5958	-108.121324	0.000364	3.635196	1.231638	-0.029038
1418	7.0850e-01	-16.6359	-108.246350	0.000313	3.130308	1.060577	-0.025005
1419	7.0900e-01	-16.6744	-108.500435	0.000636	6.361593	2.155366	-0.050817
1420	7.0950e-01	-16.7129	-108.923911	0.001060	10.602655	3.592277	-0.084695
1421	7.1000e-01	-16.7514	-108.964241	0.000101	1.009777	0.342122	-0.008066
1422	7.1050e-01	-16.7963	-109.125565	0.000404	4.039107	1.368486	-0.032265
1423	7.1100e-01	-16.8380	-109.625670	0.001252	12.521231	4.242308	-0.100021
1424	7.1150e-01	-16.8781	-109.649868	0.000061	0.605866	0.205273	-0.004840
1425	7.1200e-01	-16.9102	-110.109641	0.001151	11.511454	3.900186	-0.091955
1426	7.1250e-01	-16.9551	-110.331462	0.000555	5.553772	1.881669	-0.044364
1427	7.1300e-01	-16.9952	-110.593613	0.000656	6.563548	2.223790	-0.052430
1428	7.1350e-01	-17.0386	-110.779136	0.000464	4.644973	1.573759	-0.037105
1429	7.1400e-01	-17.0722	-110.948526	0.000424	4.241062	1.436911	-0.033878
1430	7.1450e-01	-17.1236	-111.263108	0.000788	7.876258	2.668548	-0.062916
1431	7.1500e-01	-17.1589	-111.585756	0.000808	8.078213	2.736973	-0.064530
1432	7.1550e-01	-17.1942	-111.759179	0.000434	4.342040	1.471123	-0.034685
1433	7.1600e-01	-17.2423	-111.827741	0.000172	1.716620	0.581607	-0.013713
1434	7.1650e-01	-17.2744	-112.101992	0.000687	6.866481	2.326427	-0.054850
1435	7.1700e-01	-17.3225	-112.307680	0.000515	5.149861	1.744820	-0.041138
1436	7.1750e-01	-17.3530	-112.432706	0.000313	3.130308	1.060577	-0.025005
1437	7.1800e-01	-17.3963	-112.823917	0.000979	9.794834	3.318579	-0.078242
1438	7.1850e-01	-17.4348	-113.053803	0.000576	5.755727	1.950093	-0.045977
1439	7.1900e-01	-17.4717	-113.211094	0.000394	3.938129	1.334274	-0.031458
1440	7.1950e-01	-17.5118	-113.610371	0.001000	9.996789	3.387004	-0.079855
1441	7.2000e-01	-17.5503	-113.848324	0.000596	5.957682	2.018517	-0.047591
1442	7.2050e-01	-17.6049	-114.025780	0.000444	4.443017	1.505335	-0.035491
1443	7.2100e-01	-17.6353	-114.146773	0.000303	3.029330	1.026365	-0.024199
1444	7.2150e-01	-17.6754	-114.453289	0.000767	7.674303	2.600124	-0.061303
1445	7.2200e-01	-17.7123	-114.775937	0.000808	8.078213	2.736973	-0.064530
1446	7.2250e-01	-17.7621	-115.013889	0.000596	5.957682	2.018517	-0.047591
1447	7.2300e-01	-17.8054	-115.481729	0.001171	11.713409	3.968611	-0.093568
1448	7.2350e-01	-17.8327	-115.651119	0.000424	4.241062	1.436911	-0.033878
1449	7.2400e-01	-17.8760	-115.860840	0.000525	5.250839	1.779032	-0.041944
1450	7.2450e-01	-17.9129	-115.957634	0.000242	2.423464	0.821092	-0.019359
1451	7.2500e-01	-17.9626	-116.199620	0.000606	6.058660	2.052730	-0.048397
1452	7.2550e-01	-17.9883	-116.566632	0.000919	9.188968	3.113307	-0.073402
1453	7.2600e-01	-18.0364	-116.752155	0.000464	4.644973	1.573759	-0.037105
1454	7.2650e-01	-18.0781	-116.909446	0.000394	3.938129	1.334274	-0.031458
1455	7.2700e-01	-18.1102	-117.280491	0.000929	9.289945	3.147519	-0.074209
1456	7.2750e-01	-18.1647	-117.486179	0.000515	5.149861	1.744820	-0.041138
1457	7.2800e-01	-18.1936	-117.635403	0.000374	3.736174	1.265850	-0.029845
1458	7.2850e-01	-18.2481	-118.062912	0.001070	10.703633	3.626489	-0.085502
1459	7.2900e-01	-18.2786	-118.252468	0.000475	4.745950	1.607972	-0.037911
1460	7.2950e-01	-18.3235	-118.369427	0.000293	2.928352	0.992153	-0.023392
1461	7.3000e-01	-18.3556	-118.732406	0.000909	9.087990	3.079094	-0.072596
1462	7.3050e-01	-18.3909	-119.026823	0.000737	7.371370	2.497488	-0.058883
1463	7.3100e-01	-18.4358	-119.176047	0.000374	3.736174	1.265850	-0.029845
1464	7.3150e-01	-18.4840	-119.474496	0.000747	7.472347	2.531700	-0.059690
1465	7.3200e-01	-18.5096	-119.530960	0.000141	1.413687	0.478970	-0.011293
1466	7.3250e-01	-18.5513	-119.813277	0.000707	7.068437	2.394851	-0.056463
1467	7.3300e-01	-18.5979	-120.236752	0.001060	10.602655	3.592277	-0.084695
1468	7.3350e-01	-18.6364	-120.587632	0.000879	8.785057	2.976458	-0.070176
1469	7.3400e-01	-18.6797	-120.587632	-0.000000	-0.000000	-0.000000	0.000000
1470	7.3450e-01	-18.7150	-121.019173	0.001080	10.804610	3.660701	-0.086308
1471	7.3500e-01	-18.7583	-121.144199	0.000313	3.130308	1.060577	-0.025005
1472	7.3550e-01	-18.7968	-121.482980	0.000848	8.482124	2.873821	-0.067756
1473	7.3600e-01	-18.8337	-121.728999	0.000616	6.159638	2.086942	-0.049204
1474	7.3650e-01	-18.8738	-122.043580	0.000788	7.876258	2.668548	-0.062916
1475	7.3700e-01	-18.9251	-122.221037	0.000444	4.443017	1.505335	-0.035491
1476	7.3750e-01	-18.9684	-122.362195	0.000353	3.534218	1.197426	-0.028232
1477	7.3800e-01	-18.9989	-122.608214	0.000616	6.159638	2.086942	-0.049204
1478	7.3850e-01	-19.0422	-123.063954	0.001141	11.410476	3.865974	-0.091148
1479	7.3900e-01	-19.0807	-123.289808	0.000565	5.654749	1.915881	-0.045171
1480	7.3950e-01	-19.1080	-123.519694	0.000576	5.755727	1.950093	-0.045977
1481	7.4000e-01	-19.1594	-123.685051	0.000414	4.140084	1.402699	-0.033071
1482	7.4050e-01	-19.1962	-123.918971	0.000586	5.856705	1.984305	-0.046784
1483	7.4100e-01	-19.2331	-124.108527	0.000475	4.745950	1.607972	-0.037911
1484	7.4150e-01	-19.2845	-124.459406	0.000879	8.785057	2.976458	-0.070176
1485	7.4200e-01	-19.3182	-125.052272	0.001484	14.843717	5.029187	-0.118573
1486	7.4250e-01	-19.3583	-124.943378	-0.000273	-2.726397	-0.923728	0.021779
1487	7.4300e-01	-19.4000	-125.185364	0.000606	6.058660	2.052730	-0.048397
1488	7.4350e-01	-19.4417	-125.403151	0.000545	5.452794	1.847457	-0.043557
1489	7.4400e-01	-19.4770	-125.552376	0.000374	3.736174	1.265850	-0.029845
1490	7.4450e-01	-19.5219	-125.991984	0.001101	11.006566	3.729125	-0.087922
1491	7.4500e-01	-19.5604	-126.246069	0.000636	6.361593	2.155366	-0.050817
1492	7.4550e-01	-19.5941	-126.665511	0.001050	10.501677	3.558065	-0.083888
1493	7.4600e-01	-19.6374	-126.782471	0.000293	2.928352	0.992153	-0.023392
1494	7.4650e-01	-19.6791	-126.955894	0.000434	4.342040	1.471123	-0.034685
1495	7.4700e-01	-19.7144	-127.173682	0.000545	5.452794	1.847457	-0.043557
1496	7.4750e-01	-19.7513	-127.423734	0.000626	6.260615	2.121154	-0.050010
1497	7.4800e-01	-19.7994	-127.548760	0.000313	3.130308	1.060577	-0.025005
1498	7.4850e-01	-19.8412	-127.915772	0.000919	9.188968	3.113307	-0.073402
1499	7.4900e-01	-19.8684	-128.133559	0.000545	5.452794	1.847457	-0.043557
1500	7.4950e-01	-19.9149	-128.500571	0.000919	9.188968	3.113307	-0.073402
1501	7.5000e-01	-19.9583	-128.710292	0.000525	5.250839	1.779032	-0.041944
1502	7.5050e-01	-19.9583	-128.907914	0.000495	4.947906	1.676396	-0.039524
1503	7.5100e-01	-19.9294	-129.049073	-0.000353	-3.534218	-1.197426	-0.028232
1504	7.5150e-01	-19.8989	-128.843384	0.000515	5.149861	1.744820	0.041138
1505	7.5200e-01	-19.8588	-128.601399	0.000606	6.058660	2.052730	0.048397
1506	7.5250e-01	-19.8203	-128.621564	-0.000050	-0.504888	-0.171061	-0.004033
1507	7.5300e-01	-19.7818	-128.258585	0.000909	9.087990	3.079094	0.072596
1508	7.5350e-01	-19.7305	-128.230354	0.000071	0.706844	0.239485	0.005646
1509	7.5400e-01	-19.7032	-128.250519	-0.000050	-0.504888	-0.171061	-0.004033
1510	7.5450e-01	-19.6599	-128.077096	0.000434	4.342040	1.471123	0.034685
1511	7.5500e-01	-19.6182	-127.786713	0.000727	7.270392	2.463275	0.058077
1512	7.5550e-01	-19.5781	-127.766547	0.000050	0.504888	0.171061	0.004033
1513	7.5600e-01	-19.5412	-127.476164	0.000727	7.270392	2.463275	0.058077
1514	7.5650e-01	-19.4962	-127.633455	-0.000394	-3.938129	-1.334274	-0.031458
1515	7.5700e-01	-19.4626	-127.536661	0.000242	2.423464	0.821092	0.019359
1516	7.5750e-01	-19.4144	-127.330973	0.000515	5.149861	1.744820	0.041138
1517	7.5800e-01	-19.3807	-127.185781	0.000364	3.635196	1.231638	0.029038
1518	7.5850e-01	-19.3374	-126.895398	0.000727	7.270392	2.463275	0.058077
1519	7.5900e-01	-19.3037	-126.867166	0.000071	0.706844	0.239485	0.005646
1520	7.5950e-01	-19.2668	-126.625180	0.000606	6.058660	2.052730	0.048397
1521	7.6000e-01	-19.2203	-126.592915	0.000081	0.807821	0.273697	0.006453
1522	7.6050e-01	-19.1754	-126.689710	-0.000242	-2.423464	-0.821092	-0.019359
1523	7.6100e-01	-19.1417	-126.504187	0.000464	4.644973	1.573759	0.037105
1524	7.6150e-01	-19.1048	-126.100877	0.001010	10.097767	3.421216	0.080662
1525	7.6200e-01	-19.0583	-125.975851	0.000313	3.130308	1.060577	0.025005
1526	7.6250e-01	-19.0214	-125.939554	0.000091	0.908799	0.307909	0.007260
1527	7.6300e-01	-18.9781	-125.858892	0.000202	2.019553	0.684243	0.016132
1528	7.6350e-01	-18.9428	-125.693534	0.000414	4.140084	1.402699	0.033071
1529	7.6400e-01	-18.9011	-125.346688	0.000868	8.684079	2.942246	0.069369
1530	7.6450e-01	-18.8578	-125.427350	-0.000202	-2.019553	-0.684243	-0.016132
1531	7.6500e-01	-18.8225	-125.261993	0.000414	4.140084	1.402699	0.033071
1532	7.6550e-01	-18.7888	-124.995808	0.000666	6.664526	2.258003	0.053237
1533	7.6600e-01	-18.7487	-124.814319	0.000454	4.543995	1.539547	0.036298
1534	7.6650e-01	-18.6973	-124.814319	0.000000	0.000000	0.000000	0.000000
1535	7.6700e-01	-18.6652	-124.620730	0.000485	4.846928	1.642184	0.038718
1536	7.6750e-01	-18.6251	-124.491671	0.000323	3.231285	1.094789	0.025812
1537	7.6800e-01	-18.5786	-124.314215	0.000444	4.443017	1.505335	0.035491
1538	7.6850e-01	-18.5433	-124.378744	-0.000162	-1.615643	-0.547395	-0.012906
1539	7.6900e-01	-18.4984	-124.052063	0.000818	8.179191	2.771185	0.065336
1540	7.6950e-01	-18.4551	-123.826210	0.000565	5.654749	1.915881	0.045171
1541	7.7000e-01	-18.4214	-123.745548	0.000202	2.019553	0.684243	0.016132
1542	7.7050e-01	-18.3829	-123.503562	0.000606	6.058660	2.052730	0.048397
1543	7.7100e-01	-18.3364	-123.519694	-0.000040	-0.403911	-0.136849	-0.003226
1544	7.7150e-01	-18.3043	-122.963127	0.001393	13.934918	4.721278	0.111314
1545	7.7200e-01	-18.2546	-123.031689	-0.000172	-1.716620	-0.581607	-0.013713
1546	7.7250e-01	-18.2193	-122.777604	0.000636	6.361593	2.155366	0.050817
1547	7.7300e-01	-18.1840	-122.834068	-0.000141	-1.413687	-0.478970	-0.011293
1548	7.7350e-01	-18.1487	-122.571916	0.000656	6.563548	2.223790	0.052430
1549	7.7400e-01	-18.0909	-122.325897	0.000616	6.159638	2.086942	0.049204
1550	7.7450e-01	-18.0605	-122.229103	0.000242	2.423464	0.821092	0.019359
1551	7.7500e-01	-18.0220	-122.128275	0.000252	2.524442	0.855304	0.020165
1552	7.7550e-01	-17.9899	-121.918554	0.000525	5.250839	1.779032	0.041944
1553	7.7600e-01	-17.9337	-121.716899	0.000505	5.048883	1.710608	0.040331
1554	7.7650e-01	-17.9016	-121.406351	0.000778	7.775280	2.634336	0.062110
1555	7.7700e-01	-17.8535	-121.450715	-0.000111	-1.110754	-0.376334	-0.008873
1556	7.7750e-01	-17.8230	-121.047405	0.001010	10.097767	3.421216	0.080662
1557	7.7800e-01	-17.7829	-121.063537	-0.000040	-0.403911	-0.136849	-0.003226
1558	7.7850e-01	-17.7396	-120.640062	0.001060	10.602655	3.592277	0.084695
1559	7.7900e-01	-17.6995	-120.640062	0.000000	0.000000	0.000000	0.000000
1560	7.7950e-01	-17.6642	-120.652161	-0.000030	-0.302933	-0.102636	-0.002420
1561	7.8000e-01	-17.6241	-120.385977	0.000666	6.664526	2.258003	0.053237
1562	7.8050e-01	-17.5824	-120.148024	0.000596	5.957682	2.018517	0.047591
1563	7.8100e-01	-17.5407	-119.954435	0.000485	4.846928	1.642184	0.038718
1564	7.8150e-01	-17.4942	-119.837475	0.000293	2.928352	0.992153	0.023392
1565	7.8200e-01	-17.4685	-119.643887	0.000485	4.846928	1.642184	0.038718
1566	7.8250e-01	-17.4220	-119.434165	0.000525	5.250839	1.779032	0.041944
1567	7.8300e-01	-17.3851	-119.325272	0.000273	2.726397	0.923728	0.021779
1568	7.8350e-01	-17.3353	-119.051021	0.000687	6.866481	2.326427	0.054850
1569	7.8400e-01	-17.2984	-118.857432	0.000485	4.846928	1.642184	0.038718
1570	7.8450e-01	-17.2519	-118.958260	-0.000252	-2.524442	-0.855304	-0.020165
1571	7.8500e-01	-17.2198	-118.688042	0.000677	6.765504	2.292215	0.054044
1572	7.8550e-01	-17.1749	-118.321030	0.000919	9.188968	3.113307	0.073402
1573	7.8600e-01	-17.1348	-118.236335	0.000212	2.120531	0.718455	0.016939
1574	7.8650e-01	-17.0947	-118.010482	0.000565	5.654749	1.915881	0.045171
1575	7.8700e-01	-17.0610	-117.736231	0.000687	6.866481	2.326427	0.054850
1576	7.8750e-01	-17.0257	-117.724132	0.000030	0.302933	0.102636	0.002420
1577	7.8800e-01	-16.9808	-117.655569	0.000172	1.716620	0.581607	0.013713
1578	7.8850e-01	-16.9423	-117.353087	0.000757	7.573325	2.565912	0.060496
1579	7.8900e-01	-16.9086	-117.175630	0.000444	4.443017	1.505335	0.035491
1580	7.8950e-01	-16.8605	-116.990108	0.000464	4.644973	1.573759	0.037105
1581	7.9000e-01	-16.8236	-116.848949	0.000353	3.534218	1.197426	0.028232
1582	7.9050e-01	-16.7851	-116.574699	0.000687	6.866481	2.326427	0.054850
1583	7.9100e-01	-16.7418	-116.558566	0.000040	0.403911	0.136849	0.003226
1584	7.9150e-01	-16.7097	-116.195587	0.000909	9.087990	3.079094	0.072596
1585	7.9200e-01	-16.6616	-116.187521	0.000020	0.201955	0.068424	0.001613
1586	7.9250e-01	-16.6118	-116.074594	0.000283	2.827375	0.957940	0.022585
1587	7.9300e-01	-16.5830	-115.808410	0.000666	6.664526	2.258003	0.053237
1588	7.9350e-01	-16.5396	-115.546258	0.000656	6.563548	2.223790	0.052430
1589	7.9400e-01	-16.5043	-115.344603	0.000505	5.048883	1.710608	0.040331
1590	7.9450e-01	-16.4498	-115.259908	0.000212	2.120531	0.718455	0.016939
1591	7.9500e-01	-16.4145	-114.961459	0.000747	7.472347	2.531700	0.059690
1592	7.9550e-01	-16.3760	-114.715440	0.000616	6.159638	2.086942	0.049204
1593	7.9600e-01	-16.3471	-114.638811	0.000192	1.918576	0.650031	0.015326
1594	7.9650e-01	-16.3006	-114.602513	0.000091	0.908799	0.307909	0.007260
1595	7.9700e-01	-16.2621	-114.259700	0.000858	8.583102	2.908034	0.068563
1596	7.9750e-01	-16.2220	-114.066111	0.000485	4.846928	1.642184	0.038718
1597	7.9800e-01	-16.1723	-113.949151	0.000293	2.928352	0.992153	0.023392
1598	7.9850e-01	-16.1370	-113.561974	0.000969	9.693856	3.284367	0.077435
1599	7.9900e-01	-16.1065	-113.489378	0.000182	1.817598	0.615819	0.014519
1600	7.9950e-01	-16.0632	-113.380484	0.000273	2.726397	0.923728	0.021779
1601	8.0000e-01	-16.0135	-113.069936	0.000778	7.775280	2.634336	0.062110
1602	8.0050e-01	-15.9814	-112.924744	0.000364	3.635196	1.231638	0.029038
1603	8.0100e-01	-15.9348	-112.743255	0.000454	4.543995	1.539547	0.036298
1604	8.0150e-01	-15.8979	-112.585964	0.000394	3.938129	1.334274	0.031458
1605	8.0200e-01	-15.8691	-112.331879	0.000636	6.361593	2.155366	0.050817
1606	8.0250e-01	-15.8177	-112.093926	0.000596	5.957682	2.018517	0.047591
1607	8.0300e-01	-15.7824	-111.964867	0.000323	3.231285	1.094789	0.025812
1608	8.0350e-01	-15.7407	-111.928569	0.000091	0.908799	0.307909	0.007260
1609	8.0400e-01	-15.6974	-111.682550	0.000616	6.159638	2.086942	0.049204
1610	8.0450e-01	-15.6589	-111.601888	0.000202	2.019553	0.684243	0.016132
1611	8.0500e-01	-15.6076	-111.384101	0.000545	5.452794	1.847457	0.043557
1612	8.0550e-01	-15.5819	-111.017089	0.000919	9.188968	3.113307	0.073402
1613	8.0600e-01	-15.5434	-110.924327	0.000232	2.322486	0.786880	0.018552
1614	8.0650e-01	-15.4921	-110.722672	0.000505	5.048883	1.710608	0.040331
1615	8.0700e-01	-15.4600	-110.452455	0.000677	6.765504	2.292215	0.054044
1616	8.0750e-01	-15.4279	-110.113675	0.000848	8.482124	2.873821	0.067756
1617	8.0800e-01	-15.3830	-110.149972	-0.000091	-0.908799	-0.307909	-0.007260
1618	8.0850e-01	-15.3413	-110.234668	-0.000212	-2.120531	-0.718455	-0.016939
1619	8.0900e-01	-15.3028	-109.899920	0.000838	8.381146	2.839609	0.066949
1620	8.0950e-01	-15.2611	-109.629703	0.000677	6.765504	2.292215	0.054044
1621	8.1000e-01	-15.2129	-109.230426	0.001000	9.996789	3.387004	0.079855
1622	8.1050e-01	-15.1776	-109.044903	0.000464	4.644973	1.573759	0.037105
1623	8.1100e-01	-15.1440	-108.907778	0.000343	3.433241	1.163213	0.027425
1624	8.1150e-01	-15.0942	-108.718222	0.000475	4.745950	1.607972	0.037911
1625	8.1200e-01	-15.0589	-108.677891	0.000101	1.009777	0.342122	0.008066
1626	8.1250e-01	-15.0301	-108.331045	0.000868	8.684079	2.942246	0.069369
1627	8.1300e-01	-14.9803	-107.992265	0.000848	8.482124	2.873821	0.067756
1628	8.1350e-01	-14.9418	-108.012430	-0.000050	-0.504888	-0.171061	-0.004033
1629	8.1400e-01	-14.8969	-107.532491	0.001202	12.016342	4.071247	0.095988
1630	8.1450e-01	-14.8488	-107.383267	0.000374	3.736174	1.265850	0.029845
1631	8.1500e-01	-14.8247	-107.270340	0.000283	2.827375	0.957940	0.022585
1632	8.1550e-01	-14.7734	-107.230009	0.000101	1.009777	0.342122	0.008066
1633	8.1600e-01	-14.7429	-106.988023	0.000606	6.058660	2.052730	0.048397
1634	8.1650e-01	-14.6964	-106.879130	0.000273	2.726397	0.923728	0.021779
1635	8.1700e-01	-14.6547	-106.786368	0.000232	2.322486	0.786880	0.018552
1636	8.1750e-01	-14.6210	-106.629077	0.000394	3.938129	1.334274	0.031458
1637	8.1800e-01	-14.5777	-106.306430	0.000808	8.078213	2.736973	0.064530
1638	8.1850e-01	-14.5456	-105.923285	0.000959	9.592878	3.250155	0.076629
1639	8.1900e-01	-14.4975	-105.632902	0.000727	7.270392	2.463275	0.058077
1640	8.1950e-01	-14.4670	-105.608703	0.000061	0.605866	0.205273	0.004840
1641	8.2000e-01	-14.4221	-105.592571	0.000040	0.403911	0.136849	0.003226
1642	8.2050e-01	-14.3755	-105.253791	0.000848	8.482124	2.873821	0.067756
1643	8.2100e-01	-14.3370	-104.995672	0.000646	6.462571	2.189578	0.051624
1644	8.2150e-01	-14.2985	-104.664958	0.000828	8.280169	2.805397	0.066143
1645	8.2200e-01	-14.2664	-104.556065	0.000273	2.726397	0.923728	0.021779
1646	8.2250e-01	-14.2119	-104.427006	0.000323	3.231285	1.094789	0.025812
1647	8.2300e-01	-14.1830	-104.229384	0.000495	4.947906	1.676396	0.039524
1648	8.2350e-01	-14.1349	-104.027729	0.000505	5.048883	1.710608	0.040331
1649	8.2400e-01	-14.1028	-103.777677	0.000626	6.260615	2.121154	0.050010
1650	8.2450e-01	-14.0627	-103.499393	0.000697	6.967459	2.360639	0.055657
1651	8.2500e-01	-14.0178	-103.378400	0.000303	3.029330	1.026365	0.024199
1652	8.2550e-01	-13.9825	-103.096083	0.000707	7.068437	2.394851	0.056463
1653	8.2600e-01	-13.9456	-102.950891	0.000364	3.635196	1.231638	0.029038
1654	8.2650e-01	-13.8975	-102.769402	0.000454	4.543995	1.539547	0.036298
1655	8.2700e-01	-13.8622	-102.704872	0.000162	1.615643	0.547395	0.012906
1656	8.2750e-01	-13.8221	-102.378191	0.000818	8.179191	2.771185	0.065336
1657	8.2800e-01	-13.7916	-102.200735	0.000444	4.443017	1.505335	0.035491
1658	8.2850e-01	-13.7403	-101.890187	0.000778	7.775280	2.634336	0.062110
1659	8.2900e-01	-13.6985	-101.567539	0.000808	8.078213	2.736973	0.064530
1660	8.2950e-01	-13.6600	-101.281189	0.000717	7.169414	2.429063	0.057270
1661	8.3000e-01	-13.6087	-101.156163	0.000313	3.130308	1.060577	0.025005
1662	8.3050e-01	-13.5782	-100.958541	0.000495	4.947906	1.676396	0.039524
1663	8.3100e-01	-13.5445	-100.801250	0.000394	3.938129	1.334274	0.031458
1664	8.3150e-01	-13.5092	-100.555231	0.000616	6.159638	2.086942	0.049204
1665	8.3200e-01	-13.4563	-100.518933	0.000091	0.908799	0.307909	0.007260
1666	8.3250e-01	-13.4178	-100.252749	0.000666	6.664526	2.258003	0.053237
1667	8.3300e-01	-13.3889	-99.837339	0.001040	10.400700	3.523852	0.083082
1668	8.3350e-01	-13.3360	-99.817174	0.000050	0.504888	0.171061	0.004033
1669	8.3400e-01	-13.3007	-99.659883	0.000394	3.938129	1.334274	0.031458
1670	8.3450e-01	-13.2718	-99.405798	0.000636	6.361593	2.155366	0.050817
1671	8.3500e-01	-13.2189	-99.317070	0.000222	2.221509	0.752668	0.017746
1672	8.3550e-01	-13.1772	-99.135580	0.000454	4.543995	1.539547	0.036298
1673	8.3600e-01	-13.1515	-99.006521	0.000323	3.231285	1.094789	0.025812
1674	8.3650e-01	-13.1018	-98.825032	0.000454	4.543995	1.539547	0.036298
1675	8.3700e-01	-13.0552	-98.462053	0.000909	9.087990	3.079094	0.072596
1676	8.3750e-01	-13.0151	-98.131339	0.000828	8.280169	2.805397	0.066143
1677	8.3800e-01	-12.9798	-97.889353	0.000606	6.058660	2.052730	0.048397
1678	8.3850e-01	-12.9365	-97.756260	0.000333	3.332263	1.129001	0.026618
1679	8.3900e-01	-12.8932	-97.203726	0.001383	13.833940	4.687066	0.110507
1680	8.3950e-01	-12.8627	-97.235991	-0.000081	-0.807821	-0.273697	-0.006453
1681	8.4000e-01	-12.8226	-97.199693	0.000091	0.908799	0.307909	0.007260
1682	8.4050e-01	-12.7873	-96.796383	0.001010	10.097767	3.421216	0.080662
1683	8.4100e-01	-12.7408	-96.574563	0.000555	5.553772	1.881669	0.044364
1684	8.4150e-01	-12.7023	-96.590695	-0.000040	-0.403911	-0.136849	-0.003226
1685	8.4200e-01	-12.6606	-96.457603	0.000333	3.332263	1.129001	0.026618
1686	8.4250e-01	-12.6189	-96.106723	0.000879	8.785057	2.976458	0.070176
1687	8.4300e-01	-12.5836	-95.844572	0.000656	6.563548	2.223790	0.052430
1688	8.4350e-01	-12.5435	-95.606619	0.000596	5.957682	2.018517	0.047591
1689	8.4400e-01	-12.4970	-95.400931	0.000515	5.149861	1.744820	0.041138
1690	8.4450e-01	-12.4537	-95.255739	0.000364	3.635196	1.231638	0.029038
1691	8.4500e-01	-12.4152	-95.058118	0.000495	4.947906	1.676396	0.039524
1692	8.4550e-01	-12.3863	-94.812098	0.000616	6.159638	2.086942	0.049204
1693	8.4600e-01	-12.3382	-94.638675	0.000434	4.342040	1.471123	0.034685
1694	8.4650e-01	-12.3077	-94.191001	0.001121	11.208521	3.797550	0.089535
1695	8.4700e-01	-12.2660	-94.025644	0.000414	4.140084	1.402699	0.033071
1696	8.4750e-01	-12.2275	-93.916751	0.000273	2.726397	0.923728	0.021779
1697	8.4800e-01	-12.1858	-93.658632	0.000646	6.462571	2.189578	0.051624
1698	8.4850e-01	-12.1360	-93.646533	0.000030	0.302933	0.102636	0.002420
1699	8.4900e-01	-12.0991	-93.360183	0.000717	7.169414	2.429063	0.057270
1700	8.4950e-01	-12.0654	-93.206925	0.000384	3.837151	1.300062	0.030652
1701	8.5000e-01	-12.0173	-92.956873	0.000626	6.260615	2.121154	0.050010
1702	8.5050e-01	-11.9852	-92.690689	0.000666	6.664526	2.258003	0.053237
1703	8.5100e-01	-11.9435	-92.368041	0.000808	8.078213	2.736973	0.064530
1704	8.5150e-01	-11.8986	-92.243015	0.000313	3.130308	1.060577	0.025005
1705	8.5200e-01	-11.8537	-92.037327	0.000515	5.149861	1.744820	0.041138
1706	8.5250e-01	-11.8280	-91.755010	0.000707	7.068437	2.394851	0.056463
1707	8.5300e-01	-11.7799	-91.605785	0.000374	3.736174	1.265850	0.029845
1708	8.5350e-01	-11.7414	-91.480759	0.000313	3.130308	1.060577	0.025005
1709	8.5400e-01	-11.6965	-91.250872	0.000576	5.755727	1.950093	0.045977
1710	8.5450e-01	-11.6628	-90.984688	0.000666	6.664526	2.258003	0.053237
1711	8.5500e-01	-11.6195	-90.674139	0.000778	7.775280	2.634336	0.062110
1712	8.5550e-01	-11.5874	-90.464418	0.000525	5.250839	1.779032	0.041944
1713	8.5600e-01	-11.5409	-90.234532	0.000576	5.755727	1.950093	0.045977
1714	8.5650e-01	-11.4991	-89.972380	0.000656	6.563548	2.223790	0.052430
1715	8.5700e-01	-11.4622	-89.774758	0.000495	4.947906	1.676396	0.039524
1716	8.5750e-01	-11.4125	-89.702163	0.000182	1.817598	0.615819	0.014519
1717	8.5800e-01	-11.3868	-89.343217	0.000899	8.987012	3.044882	0.071789
1718	8.5850e-01	-11.3467	-89.133496	0.000525	5.250839	1.779032	0.041944
1719	8.5900e-01	-11.3018	-88.774550	0.000899	8.987012	3.044882	0.071789
1720	8.5950e-01	-11.2569	-88.435770	0.000848	8.482124	2.873821	0.067756
1721	8.6000e-01	-11.2216	-88.403505	0.000081	0.807821	0.273697	0.006453
1722	8.6050e-01	-11.1847	-88.383339	0.000050	0.504888	0.171061	0.004033
1723	8.6100e-01	-11.1318	-88.096989	0.000717	7.169414	2.429063	0.057270
1724	8.6150e-01	-11.1029	-87.951798	0.000364	3.635196	1.231638	0.029038
1725	8.6200e-01	-11.0628	-87.443627	0.001272	12.723186	4.310732	0.101634
1726	8.6250e-01	-11.0323	-87.383131	0.000151	1.514665	0.513182	0.012099
1727	8.6300e-01	-10.9826	-86.963689	0.001050	10.501677	3.558065	0.083888
1728	8.6350e-01	-10.9425	-87.004020	-0.000101	-1.009777	-0.342122	-0.008066
1729	8.6400e-01	-10.9024	-86.733802	0.000677	6.765504	2.292215	0.054044
1730	8.6450e-01	-10.8591	-86.471651	0.000656	6.563548	2.223790	0.052430
1731	8.6500e-01	-10.8173	-86.338558	0.000333	3.332263	1.129001	0.026618
1732	8.6550e-01	-10.7708	-86.157069	0.000454	4.543995	1.539547	0.036298
1733	8.6600e-01	-10.7403	-85.991712	0.000414	4.140084	1.402699	0.033071
1734	8.6650e-01	-10.7050	-85.705362	0.000717	7.169414	2.429063	0.057270
1735	8.6700e-01	-10.6489	-85.443210	0.000656	6.563548	2.223790	0.052430
1736	8.6750e-01	-10.6264	-85.201225	0.000606	6.058660	2.052730	0.048397
1737	8.6800e-01	-10.5847	-84.918908	0.000707	7.068437	2.394851	0.056463
1738	8.6850e-01	-10.5430	-84.709186	0.000525	5.250839	1.779032	0.041944
1739	8.6900e-01	-10.4949	-84.592227	0.000293	2.928352	0.992153	0.023392
1740	8.6950e-01	-10.4612	-84.229248	0.000909	9.087990	3.079094	0.072596
1741	8.7000e-01	-10.4227	-83.950964	0.000697	6.967459	2.360639	0.055657
1742	8.7050e-01	-10.3810	-83.721077	0.000576	5.755727	1.950093	0.045977
1743	8.7100e-01	-10.3425	-83.535555	0.000464	4.644973	1.573759	0.037105
1744	8.7150e-01	-10.2960	-83.249205	0.000717	7.169414	2.429063	0.057270
1745	8.7200e-01	-10.2639	-83.019318	0.000576	5.755727	1.950093	0.045977
1746	8.7250e-01	-10.2206	-82.890259	0.000323	3.231285	1.094789	0.025812
1747	8.7300e-01	-10.1821	-82.519214	0.000929	9.289945	3.147519	0.074209
1748	8.7350e-01	-10.1468	-82.551479	-0.000081	-0.807821	-0.273697	-0.006453
1749	8.7400e-01	-10.0986	-82.297394	0.000636	6.361593	2.155366	0.050817
1750	8.7450e-01	-10.0634	-81.890051	0.001020	10.198744	3.455428	0.081469
1751	8.7500e-01	-10.0136	-81.760991	0.000323	3.231285	1.094789	0.025812
1752	8.7550e-01	-9.9831	-81.329450	0.001080	10.804610	3.660701	0.086308
1753	8.7600e-01	-9.9398	-81.180225	0.000374	3.736174	1.265850	0.029845
1754	8.7650e-01	-9.9029	-80.994703	0.000464	4.644973	1.573759	0.037105
1755	8.7700e-01	-9.8580	-80.825313	0.000424	4.241062	1.436911	0.033878
1756	8.7750e-01	-9.8195	-80.784982	0.000101	1.009777	0.342122	0.008066
1757	8.7800e-01	-9.7858	-80.349407	0.001091	10.905588	3.694913	0.087115
1758	8.7850e-01	-9.7393	-80.091289	0.000646	6.462571	2.189578	0.051624
1759	8.7900e-01	-9.6992	-79.913832	0.000444	4.443017	1.505335	0.035491
1760	8.7950e-01	-9.6703	-79.498423	0.001040	10.400700	3.523852	0.083082
1761	8.8000e-01	-9.6158	-79.361298	0.000343	3.433241	1.163213	0.027425
1762	8.8050e-01	-9.5757	-79.280636	0.000202	2.019553	0.684243	0.016132
1763	8.8100e-01	-9.5468	-79.078981	0.000505	5.048883	1.710608	0.040331
1764	8.8150e-01	-9.4906	-78.841028	0.000596	5.957682	2.018517	0.047591
1765	8.8200e-01	-9.4553	-78.558711	0.000707	7.068437	2.394851	0.056463
1766	8.8250e-01	-9.4329	-78.401420	0.000394	3.938129	1.334274	0.031458
1767	8.8300e-01	-9.3735	-78.123136	0.000697	6.967459	2.360639	0.055657
1768	8.8350e-01	-9.3382	-77.897283	0.000565	5.654749	1.915881	0.045171
1769	8.8400e-01	-9.2981	-77.651264	0.000616	6.159638	2.086942	0.049204
1770	8.8450e-01	-9.2693	-77.409278	0.000606	6.058660	2.052730	0.048397
1771	8.8500e-01	-9.2259	-77.078564	0.000828	8.280169	2.805397	0.066143
1772	8.8550e-01	-9.1810	-76.884975	0.000485	4.846928	1.642184	0.038718
1773	8.8600e-01	-9.1425	-76.824479	0.000151	1.514665	0.513182	0.012099
1774	8.8650e-01	-9.0992	-76.578460	0.000616	6.159638	2.086942	0.049204
1775	8.8700e-01	-9.0575	-76.247746	0.000828	8.280169	2.805397	0.066143
1776	8.8750e-01	-9.0206	-75.973495	0.000687	6.866481	2.326427	0.054850
1777	8.8800e-01	-8.9853	-75.755708	0.000545	5.452794	1.847457	0.043557
1778	8.8850e-01	-8.9372	-75.646814	0.000273	2.726397	0.923728	0.021779
1779	8.8900e-01	-8.9051	-75.283835	0.000909	9.087990	3.079094	0.072596
1780	8.8950e-01	-8.8618	-74.932955	0.000879	8.785057	2.976458	0.070176
1781	8.9000e-01	-8.8249	-74.844227	0.000222	2.221509	0.752668	0.017746
1782	8.9050e-01	-8.7703	-74.606274	0.000596	5.957682	2.018517	0.047591
1783	8.9100e-01	-8.7431	-74.493348	0.000283	2.827375	0.957940	0.022585
1784	8.9150e-01	-8.7046	-74.077939	0.001040	10.400700	3.523852	0.083082
1785	8.9200e-01	-8.6580	-73.787555	0.000727	7.270392	2.463275	0.058077
1786	8.9250e-01	-8.6195	-73.557669	0.000576	5.755727	1.950093	0.045977
1787	8.9300e-01	-8.5842	-73.485073	0.000182	1.817598	0.615819	0.014519
1788	8.9350e-01	-8.5425	-73.388279	0.000242	2.423464	0.821092	0.019359
1789	8.9400e-01	-8.5040	-73.085796	0.000757	7.573325	2.565912	0.060496
1790	8.9450e-01	-8.4543	-72.823645	0.000656	6.563548	2.223790	0.052430
1791	8.9500e-01	-8.4222	-72.605858	0.000545	5.452794	1.847457	0.043557
1792	8.9550e-01	-8.3773	-72.222713	0.000959	9.592878	3.250155	0.076629
1793	8.9600e-01	-8.3436	-72.017025	0.000515	5.149861	1.744820	0.041138
1794	8.9650e-01	-8.2987	-71.883933	0.000333	3.332263	1.129001	0.026618
1795	8.9700e-01	-8.2618	-71.545153	0.000848	8.482124	2.873821	0.067756
1796	8.9750e-01	-8.2185	-71.351564	0.000485	4.846928	1.642184	0.038718
1797	8.9800e-01	-8.1752	-71.129743	0.000555	5.553772	1.881669	0.044364
1798	8.9850e-01	-8.1319	-70.960353	0.000424	4.241062	1.436911	0.033878
1799	8.9900e-01	-8.1014	-70.637705	0.000808	8.078213	2.736973	0.064530
1800	8.9950e-01	-8.0581	-70.355389	0.000707	7.068437	2.394851	0.056463
1801	9.0000e-01	-8.0260	-70.012575	0.000858	8.583102	2.908034	0.068563
1802	9.0050e-01	-7.9730	-69.907715	0.000263	2.625419	0.889516	0.020972
1803	9.0100e-01	-7.9393	-69.730258	0.000444	4.443017	1.505335	0.035491
1804	9.0150e-01	-7.8960	-69.460041	0.000677	6.765504	2.292215	0.054044
1805	9.0200e-01	-7.8511	-69.169658	0.000727	7.270392	2.463275	0.058077
1806	9.0250e-01	-7.8158	-69.076896	0.000232	2.322486	0.786880	0.018552
1807	9.0300e-01	-7.7757	-68.766348	0.000778	7.775280	2.634336	0.062110
1808	9.0350e-01	-7.7324	-68.484031	0.000707	7.068437	2.394851	0.056463
1809	9.0400e-01	-7.6955	-68.133151	0.000879	8.785057	2.976458	0.070176
1810	9.0450e-01	-7.6538	-67.822603	0.000778	7.775280	2.634336	0.062110
1811	9.0500e-01	-7.6169	-67.641113	0.000454	4.543995	1.539547	0.036298
1812	9.0550e-01	-7.5784	-67.508021	0.000333	3.332263	1.129001	0.026618
1813	9.0600e-01	-7.5383	-67.346697	0.000404	4.039107	1.368486	0.032265
1814	9.0650e-01	-7.5030	-67.149075	0.000495	4.947906	1.676396	0.039524
1815	9.0700e-01	-7.4581	-66.765931	0.000959	9.592878	3.250155	0.076629
1816	9.0750e-01	-7.4228	-66.600574	0.000414	4.140084	1.402699	0.033071
1817	9.0800e-01	-7.3731	-66.100470	0.001252	12.521231	4.242308	0.100021
1818	9.0850e-01	-7.3410	-65.910914	0.000475	4.745950	1.607972	0.037911
1819	9.0900e-01	-7.2944	-65.793954	0.000293	2.928352	0.992153	0.023392
1820	9.0950e-01	-7.2640	-65.451141	0.000858	8.583102	2.908034	0.068563
1821	9.1000e-01	-7.2174	-65.334181	0.000293	2.928352	0.992153	0.023392
1822	9.1050e-01	-7.1773	-64.979268	0.000889	8.886035	3.010670	0.070983
1823	9.1100e-01	-7.1388	-64.753415	0.000565	5.654749	1.915881	0.045171
1824	9.1150e-01	-7.1003	-64.531594	0.000555	5.553772	1.881669	0.044364
1825	9.1200e-01	-7.0538	-64.487230	0.000111	1.110754	0.376334	0.008873
1826	9.1250e-01	-7.0201	-64.156516	0.000828	8.280169	2.805397	0.066143
1827	9.1300e-01	-6.9848	-63.729008	0.001070	10.703633	3.626489	0.085502
1828	9.1350e-01	-6.9383	-63.567684	0.000404	4.039107	1.368486	0.032265
1829	9.1400e-01	-6.8982	-63.394260	0.000434	4.342040	1.471123	0.034685
1830	9.1450e-01	-6.8613	-63.051447	0.000858	8.583102	2.908034	0.068563
1831	9.1500e-01	-6.8228	-62.946586	0.000263	2.625419	0.889516	0.020972
1832	9.1550e-01	-6.7763	-62.434383	0.001282	12.824164	4.344944	0.102441
1833	9.1600e-01	-6.7426	-62.418251	0.000040	0.403911	0.136849	0.003226
1834	9.1650e-01	-6.6961	-62.184331	0.000586	5.856705	1.984305	0.046784
1835	9.1700e-01	-6.6656	-61.845551	0.000848	8.482124	2.873821	0.067756
1836	9.1750e-01	-6.6303	-61.696326	0.000374	3.736174	1.265850	0.029845
1837	9.1800e-01	-6.5854	-61.510803	0.000464	4.644973	1.573759	0.037105
1838	9.1850e-01	-6.5389	-61.272851	0.000596	5.957682	2.018517	0.047591
1839	9.1900e-01	-6.5052	-60.970368	0.000757	7.573325	2.565912	0.060496
1840	9.1950e-01	-6.4506	-60.409767	0.001404	14.035896	4.755490	0.112120
1841	9.2000e-01	-6.4169	-60.337172	0.000182	1.817598	0.615819	0.014519
1842	9.2050e-01	-6.3800	-60.240377	0.000242	2.423464	0.821092	0.019359
1843	9.2100e-01	-6.3415	-60.042755	0.000495	4.947906	1.676396	0.039524
1844	9.2150e-01	-6.2950	-59.845134	0.000495	4.947906	1.676396	0.039524
1845	9.2200e-01	-6.2565	-59.526519	0.000798	7.977236	2.702761	0.063723
1846	9.2250e-01	-6.2260	-59.264367	0.000656	6.563548	2.223790	0.052430
1847	9.2300e-01	-6.1843	-58.921554	0.000858	8.583102	2.908034	0.068563
1848	9.2350e-01	-6.1426	-58.748131	0.000434	4.342040	1.471123	0.034685
1849	9.2400e-01	-6.1057	-58.441615	0.000767	7.674303	2.600124	0.061303
1850	9.2450e-01	-6.0624	-58.268192	0.000434	4.342040	1.471123	0.034685
1851	9.2500e-01	-6.0271	-58.070570	0.000495	4.947906	1.676396	0.039524
1852	9.2550e-01	-5.9806	-57.743889	0.000818	8.179191	2.771185	0.065336
1853	9.2600e-01	-5.9421	-57.372844	0.000929	9.289945	3.147519	0.074209
1854	9.2650e-01	-5.9020	-57.272017	0.000252	2.524442	0.855304	0.020165
1855	9.2700e-01	-5.8538	-57.114726	0.000394	3.938129	1.334274	0.031458
1856	9.2750e-01	-5.8202	-56.755780	0.000899	8.987012	3.044882	0.071789
1857	9.2800e-01	-5.7817	-56.356503	0.001000	9.996789	3.387004	0.079855
1858	9.2850e-01	-5.7383	-56.166948	0.000475	4.745950	1.607972	0.037911
1859	9.2900e-01	-5.7063	-55.965293	0.000505	5.048883	1.710608	0.040331
1860	9.2950e-01	-5.6597	-55.836234	0.000323	3.231285	1.094789	0.025812
1861	9.3000e-01	-5.6293	-55.384527	0.001131	11.309499	3.831762	0.090341
1862	9.3050e-01	-5.5731	-55.203037	0.000454	4.543995	1.539547	0.036298
1863	9.3100e-01	-5.5378	-54.961051	0.000606	6.058660	2.052730	0.048397
1864	9.3150e-01	-5.5009	-54.868290	0.000232	2.322486	0.786880	0.018552
1865	9.3200e-01	-5.4592	-54.517410	0.000879	8.785057	2.976458	0.070176
1866	9.3250e-01	-5.4191	-54.295590	0.000555	5.553772	1.881669	0.044364
1867	9.3300e-01	-5.3710	-53.968909	0.000818	8.179191	2.771185	0.065336
1868	9.3350e-01	-5.3405	-53.622062	0.000868	8.684079	2.942246	0.069369
1869	9.3400e-01	-5.3068	-53.323613	0.000747	7.472347	2.531700	0.059690
1870	9.3450e-01	-5.2635	-53.222786	0.000252	2.524442	0.855304	0.020165
1871	9.3500e-01	-5.2170	-52.988866	0.000586	5.856705	1.984305	0.046784
1872	9.3550e-01	-5.1849	-52.863840	0.000313	3.130308	1.060577	0.025005
1873	9.3600e-01	-5.1351	-52.529093	0.000838	8.381146	2.839609	0.066949
1874	9.3650e-01	-5.0999	-52.230643	0.000747	7.472347	2.531700	0.059690
1875	9.3700e-01	-5.0630	-51.839433	0.000979	9.794834	3.318579	0.078242
1876	9.3750e-01	-5.0148	-51.686175	0.000384	3.837151	1.300062	0.030652
1877	9.3800e-01	-4.9844	-51.254634	0.001080	10.804610	3.660701	0.086308
1878	9.3850e-01	-4.9394	-50.956184	0.000747	7.472347	2.531700	0.059690
1879	9.3900e-01	-4.9057	-50.980383	-0.000061	-0.605866	-0.205273	-0.004840
1880	9.3950e-01	-4.8640	-50.657735	0.000808	8.078213	2.736973	0.064530
1881	9.4000e-01	-4.8271	-50.201995	0.001141	11.410476	3.865974	0.091148
1882	9.4050e-01	-4.7838	-50.068903	0.000333	3.332263	1.129001	0.026618
1883	9.4100e-01	-4.7309	-49.814817	0.000636	6.361593	2.155366	0.050817
1884	9.4150e-01	-4.7020	-49.705924	0.000273	2.726397	0.923728	0.021779
1885	9.4200e-01	-4.6603	-49.536534	0.000424	4.241062	1.436911	0.033878
1886	9.4250e-01	-4.6186	-49.165489	0.000929	9.289945	3.147519	0.074209
1887	9.4300e-01	-4.5849	-48.818642	0.000868	8.684079	2.942246	0.069369
1888	9.4350e-01	-4.5336	-48.568590	0.000626	6.260615	2.121154	0.050010
1889	9.4400e-01	-4.4999	-48.266108	0.000757	7.573325	2.565912	0.060496
1890	9.4450e-01	-4.4598	-47.971691	0.000737	7.371370	2.497488	0.058883
1891	9.4500e-01	-4.4245	-47.689374	0.000707	7.068437	2.394851	0.056463
1892	9.4550e-01	-4.3828	-47.556282	0.000333	3.332263	1.129001	0.026618
1893	9.4600e-01	-4.3443	-47.310263	0.000616	6.159638	2.086942	0.049204
1894	9.4650e-01	-4.3009	-47.003748	0.000767	7.674303	2.600124	0.061303
1895	9.4700e-01	-4.2592	-46.886788	0.000293	2.928352	0.992153	0.023392
1896	9.4750e-01	-4.2143	-46.656901	0.000576	5.755727	1.950093	0.045977
1897	9.4800e-01	-4.1806	-46.225360	0.001080	10.804610	3.660701	0.086308
1898	9.4850e-01	-4.1437	-46.015639	0.000525	5.250839	1.779032	0.041944
1899	9.4900e-01	-4.1116	-45.838182	0.000444	4.443017	1.505335	0.035491
1900	9.4950e-01	-4.0635	-45.483269	0.000889	8.886035	3.010670	0.070983
1901	9.5000e-01	-4.0170	-45.196919	0.000717	7.169414	2.429063	0.057270
1902	9.5050e-01	-3.9833	-44.761345	0.001091	10.905588	3.694913	0.087115
1903	9.5100e-01	-3.9480	-44.604054	0.000394	3.938129	1.334274	0.031458
1904	9.5150e-01	-3.8983	-44.277373	0.000818	8.179191	2.771185	0.065336
1905	9.5200e-01	-3.8646	-44.095884	0.000454	4.543995	1.539547	0.036298
1906	9.5250e-01	-3.8181	-43.841798	0.000636	6.361593	2.155366	0.050817
1907	9.5300e-01	-3.7828	-43.587713	0.000636	6.361593	2.155366	0.050817
1908	9.5350e-01	-3.7363	-43.261032	0.000818	8.179191	2.771185	0.065336
1909	9.5400e-01	-3.7074	-43.087609	0.000434	4.342040	1.471123	0.034685
1910	9.5450e-01	-3.6577	-42.829491	0.000646	6.462571	2.189578	0.051624
1911	9.5500e-01	-3.6208	-42.623803	0.000515	5.149861	1.744820	0.041138
1912	9.5550e-01	-3.5871	-42.337453	0.000717	7.169414	2.429063	0.057270
1913	9.5600e-01	-3.5373	-42.276956	0.000151	1.514665	0.513182	0.012099
1914	9.5650e-01	-3.5181	-41.990606	0.000717	7.169414	2.429063	0.057270
1915	9.5700e-01	-3.4587	-41.792984	0.000495	4.947906	1.676396	0.039524
1916	9.5750e-01	-3.4170	-41.224317	0.001424	14.237851	4.823915	0.113733
1917	9.5800e-01	-3.3801	-41.296913	-0.000182	-1.817598	-0.615819	-0.014519
1918	9.5850e-01	-3.3480	-40.885537	0.001030	10.299722	3.489640	0.082275
1919	9.5900e-01	-3.3079	-40.441896	0.001111	11.107543	3.763338	0.088728
1920	9.5950e-01	-3.2582	-40.333003	0.000273	2.726397	0.923728	0.021779
1921	9.6000e-01	-3.2213	-40.006322	0.000818	8.179191	2.771185	0.065336
1922	9.6050e-01	-3.1796	-39.611078	0.000990	9.895811	3.352792	0.079049
1923	9.6100e-01	-3.1459	-39.441688	0.000424	4.241062	1.436911	0.033878
1924	9.6150e-01	-3.1058	-39.231967	0.000525	5.250839	1.779032	0.041944
1925	9.6200e-01	-3.0625	-39.086775	0.000364	3.635196	1.231638	0.029038
1926	9.6250e-01	-3.0256	-38.796392	0.000727	7.270392	2.463275	0.058077
1927	9.6300e-01	-2.9807	-38.594737	0.000505	5.048883	1.710608	0.040331
1928	9.6350e-01	-2.9325	-38.211593	0.000959	9.592878	3.250155	0.076629
1929	9.6400e-01	-2.9037	-37.703422	0.001272	12.723186	4.310732	0.101634
1930	9.6450e-01	-2.8587	-37.699389	0.000010	0.100978	0.034212	0.000807
1931	9.6500e-01	-2.8218	-37.413039	0.000717	7.169414	2.429063	0.057270
1932	9.6550e-01	-2.7898	-37.106524	0.000767	7.674303	2.600124	0.061303
1933	9.6600e-01	-2.7481	-36.743545	0.000909	9.087990	3.079094	0.072596
1934	9.6650e-01	-2.7047	-36.618519	0.000313	3.130308	1.060577	0.025005
1935	9.6700e-01	-2.6582	-36.186977	0.001080	10.804610	3.660701	0.086308
1936	9.6750e-01	-2.6245	-35.957091	0.000576	5.755727	1.950093	0.045977
1937	9.6800e-01	-2.5700	-35.836098	0.000303	3.029330	1.026365	0.024199
1938	9.6850e-01	-2.5427	-35.485218	0.000879	8.785057	2.976458	0.070176
1939	9.6900e-01	-2.5010	-35.352126	0.000333	3.332263	1.129001	0.026618
1940	9.6950e-01	-2.4657	-34.860088	0.001232	12.319275	4.173883	0.098408
1941	9.7000e-01	-2.4192	-34.638267	0.000555	5.553772	1.881669	0.044364
1942	9.7050e-01	-2.3871	-34.452745	0.000464	4.644973	1.573759	0.037105
1943	9.7100e-01	-2.3406	-34.311586	0.000353	3.534218	1.197426	0.028232
1944	9.7150e-01	-2.2973	-34.033303	0.000697	6.967459	2.360639	0.055657
1945	9.7200e-01	-2.2539	-33.799383	0.000586	5.856705	1.984305	0.046784
1946	9.7250e-01	-2.2170	-33.456569	0.000858	8.583102	2.908034	0.068563
1947	9.7300e-01	-2.1866	-33.133922	0.000808	8.078213	2.736973	0.064530
1948	9.7350e-01	-2.1352	-32.867737	0.000666	6.664526	2.258003	0.053237
1949	9.7400e-01	-2.1096	-32.581387	0.000717	7.169414	2.429063	0.057270
1950	9.7450e-01	-2.0454	-32.307136	0.000687	6.866481	2.326427	0.054850
1951	9.7500e-01	-2.0149	-32.157912	0.000374	3.736174	1.265850	0.029845
1952	9.7550e-01	-1.9780	-31.911893	0.000616	6.159638	2.086942	0.049204
1953	9.7600e-01	-1.9395	-31.621510	0.000727	7.270392	2.463275	0.058077
1954	9.7650e-01	-1.8978	-31.222233	0.001000	9.996789	3.387004	0.079855
1955	9.7700e-01	-1.8625	-30.927817	0.000737	7.371370	2.497488	0.058883
1956	9.7750e-01	-1.8256	-30.552738	0.000939	9.390923	3.181731	0.075016
1957	9.7800e-01	-1.7839	-30.464010	0.000222	2.221509	0.752668	0.017746
1958	9.7850e-01	-1.7374	-29.927608	0.001343	13.430030	4.550217	0.107280
1959	9.7900e-01	-1.7117	-29.742086	0.000464	4.644973	1.573759	0.037105
1960	9.7950e-01	-1.6556	-29.685622	0.000141	1.413687	0.478970	0.011293
1961	9.8000e-01	-1.6203	-29.209717	0.001192	11.915365	4.037035	0.095181
1962	9.8050e-01	-1.5818	-29.137121	0.000182	1.817598	0.615819	0.014519
1963	9.8100e-01	-1.5449	-28.729778	0.001020	10.198744	3.455428	0.081469
1964	9.8150e-01	-1.4951	-28.713645	0.000040	0.403911	0.136849	0.003226
1965	9.8200e-01	-1.4534	-28.330501	0.000959	9.592878	3.250155	0.076629
1966	9.8250e-01	-1.4165	-28.015919	0.000788	7.876258	2.668548	0.062916
1967	9.8300e-01	-1.3780	-27.544047	0.001181	11.814387	4.002823	0.094375
1968	9.8350e-01	-1.3443	-27.338359	0.000515	5.149861	1.744820	0.041138
1969	9.8400e-01	-1.3074	-26.918917	0.001050	10.501677	3.558065	0.083888
1970	9.8450e-01	-1.2609	-26.725328	0.000485	4.846928	1.642184	0.038718
1971	9.8500e-01	-1.2176	-26.697096	0.000071	0.706844	0.239485	0.005646
1972	9.8550e-01	-1.1791	-26.551905	0.000364	3.635196	1.231638	0.029038
1973	9.8600e-01	-1.1438	-26.229257	0.000808	8.078213	2.736973	0.064530
1974	9.8650e-01	-1.0989	-25.842079	0.000969	9.693856	3.284367	0.077435
1975	9.8700e-01	-1.0668	-25.515398	0.000818	8.179191	2.771185	0.065336
1976	9.8750e-01	-1.0251	-25.253247	0.000656	6.563548	2.223790	0.052430
1977	9.8800e-01	-0.9770	-24.906400	0.000868	8.684079	2.942246	0.069369
1978	9.8850e-01	-0.9433	-24.741043	0.000414	4.140084	1.402699	0.033071
1979	9.8900e-01	-0.8984	-24.365965	0.000939	9.390923	3.181731	0.075016
1980	9.8950e-01	-0.8615	-24.079615	0.000717	7.169414	2.429063	0.057270
1981	9.9000e-01	-0.8182	-23.809398	0.000677	6.765504	2.292215	0.054044
1982	9.9050e-01	-0.7861	-23.769067	0.000101	1.009777	0.342122	0.008066
1983	9.9100e-01	-0.7315	-23.627908	0.000353	3.534218	1.197426	0.028232
1984	9.9150e-01	-0.7043	-22.954381	0.001686	16.863270	5.713431	0.134705
1985	9.9200e-01	-0.6545	-22.571236	0.000959	9.592878	3.250155	0.076629
1986	9.9250e-01	-0.6176	-22.603501	-0.000081	-0.807821	-0.273697	-0.006453
1987	9.9300e-01	-0.5775	-22.127595	0.001192	11.915365	4.037035	0.095181
1988	9.9350e-01	-0.5358	-21.929974	0.000495	4.947906	1.676396	0.039524
1989	9.9400e-01	-0.5021	-21.764617	0.000414	4.140084	1.402699	0.033071
1990	9.9450e-01	-0.4620	-21.401638	0.000909	9.087990	3.079094	0.072596
1991	9.9500e-01	-0.4107	-21.095122	0.000767	7.674303	2.600124	0.061303
1992	9.9550e-01	-0.3786	-20.800706	0.000737	7.371370	2.497488	0.058883
1993	9.9600e-01	-0.3385	-20.538555	0.000656	6.563548	2.223790	0.052430
1994	9.9650e-01	-0.2968	-20.381264	0.000394	3.938129	1.334274	0.031458
1995	9.9700e-01	-0.2663	-20.010219	0.000929	9.289945	3.147519	0.074209
1996	9.9750e-01	-0.2166	-19.860994	0.000374	3.736174	1.265850	0.029845
1997	9.9800e-01	-0.1684	-19.619008	0.000606	6.058660	2.052730	0.048397
1998	9.9850e-01	-0.1412	-19.352824	0.000666	6.664526	2.258003	0.053237
1999	9.9900e-01	-0.1043	-19.030176	0.000808	8.078213	2.736973	0.064530
2000	9.9950e-01	-0.0626	-18.574436	0.001141	11.410476	3.865974	0.091148
2001	1.0000e+00	-0.0112	-18.445376	0.001141	11.410476	3.865974	0.025812

PMax (uC/cm2):	1.36e+02
Pr (uC/cm2):	9.83e+00
-Pr (uC/cm2):	-1.14e+01
PLoss (uC/cm2):	-1.14e+01
-Vc:	-1.43e+00
C (Max-Eff) (nF):	6.81e-01
K (Eff):	2.31e+03
Vert. (+/-Pr) Shift (uC/cm2):	-7.67e-01
Offset (uC/cm2):	7.08e+00

A (Loop Area - uC/cm2·Volts):	-1.33e-01



Hysteresis Version: 5.48.1 - Radiant Technologies, Inc., 1999 - 9/12/24

