»»»»»»»»»»»»»»»»»»»»»»»»»»»»»»»»»»»» Hysteresis ««««««««««««««««««««««««««««««««««««
»»»  Executed Version:	5.48.1
»»»  Vision Version:	5.48.4 (R)
»»»  Vision Compiled:	9/18/24
»»»  Driver Version:	5.47.0
»»»  Windows Version:	Windows 8 or 8.1
»»»  Processor Information:	x86 (AMD or Intel) - 32 Processors
»»»  Tester Name:	PMF21124-494 (100V)
»»»  Tester S/N:	PMF21124-494
»»»  Internal Amp Type:	100V RevK 270k
»»»  Internal Amp S/N:	iAB2-596/K     
»»»  Execution Count:	1
»»»»»»»»»»»»»»»»»»»»»»»»»»»»»»»»»»»»»»»»»»««««««««««««««««««««««««««««««««««««««««««

Stored:	6/18/2025 - 16:14:26
Configured:	06/18/25 09:47:30 AM
Executed:	06/18/25 04:13:50 PM

»»»»»»»»»»»»»»»»»»»»»»»»»»»»»»»»»»» Sample Info ««««««««««««««««««««««««««««««««««««
Sample Name:	
Lot Name:	
Wafer Name:	
Die Row/Column:	0/0
Capacitor Number:	0
Sample Area (cm2):	1.00e-04
Sample Thickness (microns):	3.00e-01

Amplifier:	Internal

»»»»»»»»»»»»»»»»»»»»»»»»»»»»»»»»»»» Tester Info «««««««««««««««««««««««««««««««««««
Tester Name:	PMF21124-494 (100V)
Tester Serial Number:	PMF21124-494
Return Signal Amp. Level:	0.19 [Index: 3]

»»»»»»»»»»»»»»»»»»»»»»»»»»»»»»»» Hysteresis Info ««««««««««««««««««««««««««««««««««
Task Name:	Hyst-554
Volts:	20.00
Field:	666.67 (kV/cm)
DCBias:	0.00
DCField:	0.00 (kV/cm)
Hysteresis Period (ms):	2.00e+02
Preset:	Enabled
Preset Delay (ms):	1.00e+03
Profile:	Standard Bipolar

»»»»»»»»»»»»»»»»»»»»»»»»»»»»»»»»»»»»»» Data «««««««««««««««««««««««««««««««««««««««
Points:	2009

Valid Data

Point	Time (ms)	Drive Voltage	Measured Polarization (uC/cm2)	Capacitance (uF)	Normalized Capacitance (uF/cm2)	Dielectric Constant	Instantaneous Current (mA)
   1	0.0000e+00	0.0080	-63.158970	0.000730	7.297093	2.472322	0.000292
   2	9.9500e-02	0.0273	-62.868296	0.000730	7.297093	2.472322	0.000292
   3	1.9900e-01	0.0802	-62.492843	0.000943	9.425412	3.193416	0.000377
   4	2.9850e-01	0.1171	-62.109315	0.000963	9.628109	3.262092	0.000385
   5	3.9800e-01	0.1540	-61.721750	0.000973	9.729458	3.296429	0.000390
   6	4.9750e-01	0.1941	-61.370519	0.000882	8.817321	2.987389	0.000353
   7	5.9700e-01	0.2294	-61.003140	0.000922	9.222715	3.124740	0.000369
   8	6.9650e-01	0.2775	-60.635760	0.000922	9.222715	3.124740	0.000369
   9	7.9600e-01	0.3208	-60.308752	0.000821	8.209230	2.781362	0.000329
  10	8.9550e-01	0.3449	-59.905039	0.001013	10.134852	3.433781	0.000406
  11	9.9500e-01	0.3978	-59.569956	0.000841	8.411927	2.850038	0.000337
  12	1.0945e+00	0.4444	-59.154131	0.001044	10.438897	3.536794	0.000418
  13	1.1940e+00	0.4749	-58.774641	0.000953	9.526761	3.227754	0.000381
  14	1.2935e+00	0.5118	-58.403224	0.000932	9.324064	3.159078	0.000373
  15	1.3930e+00	0.5470	-58.035845	0.000922	9.222715	3.124740	0.000369
  16	1.4925e+00	0.6000	-57.640205	0.000993	9.932155	3.365105	0.000398
  17	1.5920e+00	0.6337	-57.256678	0.000963	9.628109	3.262092	0.000385
  18	1.6915e+00	0.6770	-56.840853	0.001044	10.438897	3.536794	0.000418
  19	1.7910e+00	0.7075	-56.485585	0.000892	8.918669	3.021727	0.000357
  20	1.8905e+00	0.7540	-56.110131	0.000943	9.425412	3.193416	0.000377
  21	1.9900e+00	0.8005	-55.706417	0.001013	10.134852	3.433781	0.000406
  22	2.0895e+00	0.8326	-55.286555	0.001054	10.540246	3.571132	0.000422
  23	2.1890e+00	0.8775	-54.882842	0.001013	10.134852	3.433781	0.000406
  24	2.2885e+00	0.9128	-54.531611	0.000882	8.817321	2.987389	0.000353
  25	2.3880e+00	0.9545	-54.071378	0.001155	11.553731	3.914510	0.000463
  26	2.4875e+00	0.9930	-53.748407	0.000811	8.107881	2.747025	0.000325
  27	2.5870e+00	1.0315	-53.344693	0.001013	10.134852	3.433781	0.000406
  28	2.6865e+00	1.0636	-52.981351	0.000912	9.121367	3.090403	0.000365
  29	2.7860e+00	1.1133	-52.597823	0.000963	9.628109	3.262092	0.000385
  30	2.8855e+00	1.1550	-52.194109	0.001013	10.134852	3.433781	0.000406
  31	2.9850e+00	1.1855	-51.798470	0.000993	9.932155	3.365105	0.000398
  32	3.0845e+00	1.2304	-51.435128	0.000912	9.121367	3.090403	0.000365
  33	3.1840e+00	1.2722	-51.039489	0.000993	9.932155	3.365105	0.000398
  34	3.2835e+00	1.3171	-50.619626	0.001054	10.540246	3.571132	0.000422
  35	3.3830e+00	1.3540	-50.187653	0.001084	10.844291	3.674145	0.000434
  36	3.4825e+00	1.3909	-49.844496	0.000861	8.614624	2.918714	0.000345
  37	3.5820e+00	1.4262	-49.416560	0.001074	10.742943	3.639808	0.000430
  38	3.6815e+00	1.4759	-49.033032	0.000963	9.628109	3.262092	0.000385
  39	3.7810e+00	1.5128	-48.641430	0.000983	9.830806	3.330767	0.000394
  40	3.8805e+00	1.5513	-48.229642	0.001034	10.337549	3.502456	0.000414
  41	3.9800e+00	1.5834	-47.805743	0.001064	10.641594	3.605470	0.000426
  42	4.0795e+00	1.6251	-47.381844	0.001064	10.641594	3.605470	0.000426
  43	4.1790e+00	1.6716	-46.974093	0.001024	10.236200	3.468119	0.000410
  44	4.2785e+00	1.7149	-46.594602	0.000953	9.526761	3.227754	0.000381
  45	4.3780e+00	1.7534	-46.219148	0.000943	9.425412	3.193416	0.000377
  46	4.4775e+00	1.7855	-45.807361	0.001034	10.337549	3.502456	0.000414
  47	4.5770e+00	1.8320	-45.415758	0.000983	9.830806	3.330767	0.000394
  48	4.6765e+00	1.8673	-45.040305	0.000943	9.425412	3.193416	0.000377
  49	4.7760e+00	1.9122	-44.624480	0.001044	10.438897	3.536794	0.000418
  50	4.8755e+00	1.9507	-44.196543	0.001074	10.742943	3.639808	0.000430
  51	4.9750e+00	1.9860	-43.813016	0.000963	9.628109	3.262092	0.000385
  52	5.0745e+00	2.0197	-43.413339	0.001003	10.033503	3.399443	0.000402
  53	5.1740e+00	2.0727	-43.001551	0.001034	10.337549	3.502456	0.000414
  54	5.2735e+00	2.1144	-42.609949	0.000983	9.830806	3.330767	0.000394
  55	5.3730e+00	2.1577	-42.165864	0.001115	11.148337	3.777159	0.000446
  56	5.4725e+00	2.1834	-41.794448	0.000932	9.324064	3.159078	0.000373
  57	5.5720e+00	2.2331	-41.350363	0.001115	11.148337	3.777159	0.000446
  58	5.6715e+00	2.2716	-40.902241	0.001125	11.249685	3.811497	0.000450
  59	5.7710e+00	2.3037	-40.498527	0.001013	10.134852	3.433781	0.000406
  60	5.8705e+00	2.3406	-40.038294	0.001155	11.553731	3.914510	0.000463
  61	5.9700e+00	2.3759	-39.650729	0.000973	9.729458	3.296429	0.000390
  62	6.0695e+00	2.4192	-39.226829	0.001064	10.641594	3.605470	0.000426
  63	6.1690e+00	2.4641	-38.843302	0.000963	9.628109	3.262092	0.000385
  64	6.2685e+00	2.5042	-38.431514	0.001034	10.337549	3.502456	0.000414
  65	6.3680e+00	2.5475	-38.052023	0.000953	9.526761	3.227754	0.000381
  66	6.4675e+00	2.5973	-37.636198	0.001044	10.438897	3.536794	0.000418
  67	6.5670e+00	2.6277	-37.208262	0.001074	10.742943	3.639808	0.000430
  68	6.6665e+00	2.6791	-36.804548	0.001013	10.134852	3.433781	0.000406
  69	6.7660e+00	2.7128	-36.400834	0.001013	10.134852	3.433781	0.000406
  70	6.8655e+00	2.7593	-35.980972	0.001054	10.540246	3.571132	0.000422
  71	6.9650e+00	2.7833	-35.561110	0.001054	10.540246	3.571132	0.000422
  72	7.0645e+00	2.8251	-35.141248	0.001054	10.540246	3.571132	0.000422
  73	7.1640e+00	2.8716	-34.717349	0.001064	10.641594	3.605470	0.000426
  74	7.2635e+00	2.9165	-34.301524	0.001044	10.438897	3.536794	0.000418
  75	7.3630e+00	2.9502	-33.861476	0.001105	11.046988	3.742821	0.000442
  76	7.4625e+00	2.9903	-33.425465	0.001095	10.945640	3.708483	0.000438
  77	7.5620e+00	3.0320	-33.070197	0.000892	8.918669	3.021727	0.000357
  78	7.6615e+00	3.0721	-32.545370	0.001318	13.175307	4.463915	0.000527
  79	7.7610e+00	3.1074	-32.145693	0.001003	10.033503	3.399443	0.000402
  80	7.8605e+00	3.1443	-31.697571	0.001125	11.249685	3.811497	0.000450
  81	7.9600e+00	3.1828	-31.305969	0.000983	9.830806	3.330767	0.000394
  82	8.0595e+00	3.2309	-30.962813	0.000861	8.614624	2.918714	0.000345
  83	8.1590e+00	3.2598	-30.510653	0.001135	11.351034	3.845834	0.000454
  84	8.2585e+00	3.3047	-30.090791	0.001054	10.540246	3.571132	0.000422
  85	8.3580e+00	3.3464	-29.658818	0.001084	10.844291	3.674145	0.000434
  86	8.4575e+00	3.3865	-29.234918	0.001064	10.641594	3.605470	0.000426
  87	8.5570e+00	3.4298	-28.798908	0.001095	10.945640	3.708483	0.000438
  88	8.6565e+00	3.4748	-28.366934	0.001084	10.844291	3.674145	0.000434
  89	8.7560e+00	3.5036	-27.938998	0.001074	10.742943	3.639808	0.000430
  90	8.8555e+00	3.5389	-27.539321	0.001003	10.033503	3.399443	0.000402
  91	8.9550e+00	3.5855	-27.095237	0.001115	11.148337	3.777159	0.000446
  92	9.0545e+00	3.6320	-26.675374	0.001054	10.540246	3.571132	0.000422
  93	9.1540e+00	3.6609	-26.239364	0.001095	10.945640	3.708483	0.000438
  94	9.2535e+00	3.7042	-25.819502	0.001054	10.540246	3.571132	0.000422
  95	9.3530e+00	3.7475	-25.375417	0.001115	11.148337	3.777159	0.000446
  96	9.4525e+00	3.7748	-24.915183	0.001155	11.553731	3.914510	0.000463
  97	9.5520e+00	3.8293	-24.471098	0.001115	11.148337	3.777159	0.000446
  98	9.6515e+00	3.8534	-24.119867	0.000882	8.817321	2.987389	0.000353
  99	9.7510e+00	3.9063	-23.659634	0.001155	11.553731	3.914510	0.000463
 100	9.8505e+00	3.9384	-23.211512	0.001125	11.249685	3.811497	0.000450
 101	9.9500e+00	3.9785	-22.848170	0.000912	9.121367	3.090403	0.000365
 102	1.0050e+01	4.0218	-22.396011	0.001135	11.351034	3.845834	0.000454
 103	1.0149e+01	4.0587	-21.980186	0.001044	10.438897	3.536794	0.000418
 104	1.0248e+01	4.0972	-21.584546	0.000993	9.932155	3.365105	0.000398
 105	1.0348e+01	4.1373	-21.140461	0.001115	11.148337	3.777159	0.000446
 106	1.0447e+01	4.1774	-20.712525	0.001074	10.742943	3.639808	0.000430
 107	1.0547e+01	4.2272	-20.280551	0.001084	10.844291	3.674145	0.000434
 108	1.0646e+01	4.2592	-19.836466	0.001115	11.148337	3.777159	0.000446
 109	1.0746e+01	4.3058	-19.424679	0.001034	10.337549	3.502456	0.000414
 110	1.0845e+01	4.3475	-19.008854	0.001044	10.438897	3.536794	0.000418
 111	1.0945e+01	4.3812	-18.552657	0.001145	11.452382	3.880172	0.000458
 112	1.1044e+01	4.4213	-18.148944	0.001013	10.134852	3.433781	0.000406
 113	1.1144e+01	4.4598	-17.680636	0.001176	11.756428	3.983186	0.000471
 114	1.1243e+01	4.5015	-17.208291	0.001186	11.857776	4.017523	0.000475
 115	1.1343e+01	4.5400	-16.768243	0.001105	11.046988	3.742821	0.000442
 116	1.1443e+01	4.5897	-16.356455	0.001034	10.337549	3.502456	0.000414
 117	1.1542e+01	4.6154	-15.920445	0.001095	10.945640	3.708483	0.000438
 118	1.1642e+01	4.6683	-15.500583	0.001054	10.540246	3.571132	0.000422
 119	1.1741e+01	4.7004	-15.076683	0.001064	10.641594	3.605470	0.000426
 120	1.1841e+01	4.7421	-14.624524	0.001135	11.351034	3.845834	0.000454
 121	1.1940e+01	4.7822	-14.208699	0.001044	10.438897	3.536794	0.000418
 122	1.2040e+01	4.8143	-13.800949	0.001024	10.236200	3.468119	0.000410
 123	1.2139e+01	4.8608	-13.385124	0.001044	10.438897	3.536794	0.000418
 124	1.2239e+01	4.9057	-12.957187	0.001074	10.742943	3.639808	0.000430
 125	1.2338e+01	4.9394	-12.553474	0.001013	10.134852	3.433781	0.000406
 126	1.2438e+01	4.9731	-12.085166	0.001176	11.756428	3.983186	0.000471
 127	1.2537e+01	5.0164	-11.641081	0.001115	11.148337	3.777159	0.000446
 128	1.2636e+01	5.0614	-11.205070	0.001095	10.945640	3.708483	0.000438
 129	1.2736e+01	5.0854	-10.756948	0.001125	11.249685	3.811497	0.000450
 130	1.2835e+01	5.1416	-10.324975	0.001084	10.844291	3.674145	0.000434
 131	1.2935e+01	5.1737	-9.872815	0.001135	11.351034	3.845834	0.000454
 132	1.3034e+01	5.2089	-9.400471	0.001186	11.857776	4.017523	0.000475
 133	1.3134e+01	5.2683	-8.964460	0.001095	10.945640	3.708483	0.000438
 134	1.3233e+01	5.2859	-8.536524	0.001074	10.742943	3.639808	0.000430
 135	1.3333e+01	5.3405	-8.080327	0.001145	11.452382	3.880172	0.000458
 136	1.3432e+01	5.3806	-7.696799	0.000963	9.628109	3.262092	0.000385
 137	1.3532e+01	5.4207	-7.196194	0.001257	12.567216	4.257888	0.000503
 138	1.3632e+01	5.4624	-6.840927	0.000892	8.918669	3.021727	0.000357
 139	1.3731e+01	5.4929	-6.408953	0.001084	10.844291	3.674145	0.000434
 140	1.3831e+01	5.5298	-5.964868	0.001115	11.148337	3.777159	0.000446
 141	1.3930e+01	5.5875	-5.565192	0.001003	10.033503	3.399443	0.000402
 142	1.4030e+01	5.6148	-5.129181	0.001095	10.945640	3.708483	0.000438
 143	1.4129e+01	5.6533	-4.656836	0.001186	11.857776	4.017523	0.000475
 144	1.4229e+01	5.6982	-4.249085	0.001024	10.236200	3.468119	0.000410
 145	1.4328e+01	5.7432	-3.805000	0.001115	11.148337	3.777159	0.000446
 146	1.4428e+01	5.7784	-3.385138	0.001054	10.540246	3.571132	0.000422
 147	1.4527e+01	5.8137	-2.957202	0.001074	10.742943	3.639808	0.000430
 148	1.4627e+01	5.8587	-2.521191	0.001095	10.945640	3.708483	0.000438
 149	1.4726e+01	5.8972	-2.020586	0.001257	12.567216	4.257888	0.000503
 150	1.4825e+01	5.9389	-1.580539	0.001105	11.046988	3.742821	0.000442
 151	1.4925e+01	5.9806	-1.160677	0.001054	10.540246	3.571132	0.000422
 152	1.5024e+01	6.0062	-0.724666	0.001095	10.945640	3.708483	0.000438
 153	1.5124e+01	6.0544	-0.268470	0.001145	11.452382	3.880172	0.000458
 154	1.5223e+01	6.0865	0.179653	0.001125	11.249685	3.811497	0.000450
 155	1.5323e+01	6.1298	0.595478	0.001044	10.438897	3.536794	0.000418
 156	1.5422e+01	6.1715	1.015340	0.001054	10.540246	3.571132	0.000422
 157	1.5522e+01	6.2068	1.423090	0.001024	10.236200	3.468119	0.000410
 158	1.5621e+01	6.2437	1.859101	0.001095	10.945640	3.708483	0.000438
 159	1.5721e+01	6.2934	2.270889	0.001034	10.337549	3.502456	0.000414
 160	1.5820e+01	6.3255	2.702862	0.001084	10.844291	3.674145	0.000434
 161	1.5920e+01	6.3704	3.110613	0.001024	10.236200	3.468119	0.000410
 162	1.6020e+01	6.4137	3.615255	0.001267	12.668565	4.292226	0.000507
 163	1.6119e+01	6.4506	3.998783	0.000963	9.628109	3.262092	0.000385
 164	1.6218e+01	6.4875	4.454979	0.001145	11.452382	3.880172	0.000458
 165	1.6318e+01	6.5389	4.886953	0.001084	10.844291	3.674145	0.000434
 166	1.6418e+01	6.5677	5.335075	0.001125	11.249685	3.811497	0.000450
 167	1.6517e+01	6.6046	5.775123	0.001105	11.046988	3.742821	0.000442
 168	1.6616e+01	6.6608	6.219208	0.001115	11.148337	3.777159	0.000446
 169	1.6716e+01	6.6897	6.647144	0.001074	10.742943	3.639808	0.000430
 170	1.6816e+01	6.7249	7.083155	0.001095	10.945640	3.708483	0.000438
 171	1.6915e+01	6.7747	7.511091	0.001074	10.742943	3.639808	0.000430
 172	1.7015e+01	6.8116	7.975362	0.001166	11.655079	3.948848	0.000467
 173	1.7114e+01	6.8469	8.395224	0.001054	10.540246	3.571132	0.000422
 174	1.7213e+01	6.8870	8.802974	0.001024	10.236200	3.468119	0.000410
 175	1.7313e+01	6.9367	9.226874	0.001064	10.641594	3.605470	0.000426
 176	1.7413e+01	6.9784	9.594253	0.000922	9.222715	3.124740	0.000369
 177	1.7512e+01	7.0121	10.090821	0.001247	12.465868	4.223550	0.000499
 178	1.7611e+01	7.0474	10.478386	0.000973	9.729458	3.296429	0.000390
 179	1.7711e+01	7.1051	10.886137	0.001024	10.236200	3.468119	0.000410
 180	1.7811e+01	7.1244	11.322147	0.001095	10.945640	3.708483	0.000438
 181	1.7910e+01	7.1693	11.810641	0.001226	12.263171	4.154875	0.000491
 182	1.8009e+01	7.2110	12.238577	0.001074	10.742943	3.639808	0.000430
 183	1.8109e+01	7.2479	12.678625	0.001105	11.046988	3.742821	0.000442
 184	1.8209e+01	7.2896	13.155007	0.001196	11.959125	4.051861	0.000479
 185	1.8308e+01	7.3297	13.603129	0.001125	11.249685	3.811497	0.000450
 186	1.8407e+01	7.3602	13.990694	0.000973	9.729458	3.296429	0.000390
 187	1.8507e+01	7.4083	14.450927	0.001155	11.553731	3.914510	0.000463
 188	1.8607e+01	7.4501	14.899049	0.001125	11.249685	3.811497	0.000450
 189	1.8706e+01	7.4934	15.326986	0.001074	10.742943	3.639808	0.000430
 190	1.8805e+01	7.5319	15.791256	0.001166	11.655079	3.948848	0.000467
 191	1.8905e+01	7.5688	16.166710	0.000943	9.425412	3.193416	0.000377
 192	1.9005e+01	7.6025	16.614832	0.001125	11.249685	3.811497	0.000450
 193	1.9104e+01	7.6394	17.022583	0.001024	10.236200	3.468119	0.000410
 194	1.9203e+01	7.6859	17.438408	0.001044	10.438897	3.536794	0.000418
 195	1.9303e+01	7.7292	17.866344	0.001074	10.742943	3.639808	0.000430
 196	1.9402e+01	7.7645	18.253909	0.000973	9.729458	3.296429	0.000390
 197	1.9502e+01	7.8078	18.790848	0.001348	13.479353	4.566928	0.000540
 198	1.9602e+01	7.8479	19.125931	0.000841	8.411927	2.850038	0.000337
 199	1.9701e+01	7.8864	19.578090	0.001135	11.351034	3.845834	0.000454
 200	1.9800e+01	7.9249	20.022175	0.001115	11.148337	3.777159	0.000446
 201	1.9900e+01	7.9618	20.458185	0.001095	10.945640	3.708483	0.000438
 202	2.0000e+01	8.0035	20.869973	0.001034	10.337549	3.502456	0.000414
 203	2.0099e+01	8.0404	21.354429	0.001216	12.161822	4.120537	0.000487
 204	2.0198e+01	8.0950	21.758143	0.001013	10.134852	3.433781	0.000406
 205	2.0298e+01	8.1254	22.218377	0.001155	11.553731	3.914510	0.000463
 206	2.0398e+01	8.1655	22.634202	0.001044	10.438897	3.536794	0.000418
 207	2.0497e+01	8.2008	23.086361	0.001135	11.351034	3.845834	0.000454
 208	2.0596e+01	8.2345	23.445666	0.000902	9.020018	3.056065	0.000361
 209	2.0696e+01	8.2810	23.918011	0.001186	11.857776	4.017523	0.000475
 210	2.0796e+01	8.3292	24.341910	0.001064	10.641594	3.605470	0.000426
 211	2.0895e+01	8.3693	24.741586	0.001003	10.033503	3.399443	0.000402
 212	2.0994e+01	8.4014	25.193746	0.001135	11.351034	3.845834	0.000454
 213	2.1094e+01	8.4463	25.577273	0.000963	9.628109	3.262092	0.000385
 214	2.1194e+01	8.4816	26.021358	0.001115	11.148337	3.777159	0.000446
 215	2.1293e+01	8.5281	26.449295	0.001074	10.742943	3.639808	0.000430
 216	2.1392e+01	8.5666	26.873194	0.001064	10.641594	3.605470	0.000426
 217	2.1492e+01	8.6099	27.301130	0.001074	10.742943	3.639808	0.000430
 218	2.1591e+01	8.6516	27.725030	0.001064	10.641594	3.605470	0.000426
 219	2.1691e+01	8.6869	28.148929	0.001064	10.641594	3.605470	0.000426
 220	2.1791e+01	8.7190	28.568791	0.001054	10.540246	3.571132	0.000422
 221	2.1890e+01	8.7623	29.020950	0.001135	11.351034	3.845834	0.000454
 222	2.1989e+01	8.8024	29.481184	0.001155	11.553731	3.914510	0.000463
 223	2.2089e+01	8.8441	29.892972	0.001034	10.337549	3.502456	0.000414
 224	2.2189e+01	8.8746	30.365316	0.001186	11.857776	4.017523	0.000475
 225	2.2288e+01	8.9308	30.781141	0.001044	10.438897	3.536794	0.000418
 226	2.2387e+01	8.9596	31.217152	0.001095	10.945640	3.708483	0.000438
 227	2.2487e+01	9.0094	31.620866	0.001013	10.134852	3.433781	0.000406
 228	2.2587e+01	9.0399	32.020542	0.001003	10.033503	3.399443	0.000402
 229	2.2686e+01	9.0800	32.412144	0.000983	9.830806	3.330767	0.000394
 230	2.2785e+01	9.1297	32.848155	0.001095	10.945640	3.708483	0.000438
 231	2.2885e+01	9.1554	33.280128	0.001084	10.844291	3.674145	0.000434
 232	2.2985e+01	9.1971	33.695953	0.001044	10.438897	3.536794	0.000418
 233	2.3084e+01	9.2420	34.127927	0.001084	10.844291	3.674145	0.000434
 234	2.3183e+01	9.2853	34.572012	0.001115	11.148337	3.777159	0.000446
 235	2.3283e+01	9.3190	34.979763	0.001024	10.236200	3.468119	0.000410
 236	2.3383e+01	9.3607	35.387513	0.001024	10.236200	3.468119	0.000410
 237	2.3482e+01	9.3960	35.851784	0.001166	11.655079	3.948848	0.000467
 238	2.3581e+01	9.4489	36.263572	0.001034	10.337549	3.502456	0.000414
 239	2.3681e+01	9.4874	36.663248	0.001003	10.033503	3.399443	0.000402
 240	2.3780e+01	9.5179	37.123482	0.001155	11.553731	3.914510	0.000463
 241	2.3880e+01	9.5660	37.535270	0.001034	10.337549	3.502456	0.000414
 242	2.3980e+01	9.5965	37.999540	0.001166	11.655079	3.948848	0.000467
 243	2.4079e+01	9.6430	38.439588	0.001105	11.046988	3.742821	0.000442
 244	2.4178e+01	9.6783	38.855413	0.001044	10.438897	3.536794	0.000418
 245	2.4278e+01	9.7168	39.255089	0.001003	10.033503	3.399443	0.000402
 246	2.4378e+01	9.7585	39.666877	0.001034	10.337549	3.502456	0.000414
 247	2.4477e+01	9.8003	40.062516	0.000993	9.932155	3.365105	0.000398
 248	2.4576e+01	9.8420	40.478341	0.001044	10.438897	3.536794	0.000418
 249	2.4676e+01	9.8789	40.902241	0.001064	10.641594	3.605470	0.000426
 250	2.4776e+01	9.9222	41.297880	0.000993	9.932155	3.365105	0.000398
 251	2.4875e+01	9.9639	41.737928	0.001105	11.046988	3.742821	0.000442
 252	2.4974e+01	9.9944	42.137604	0.001003	10.033503	3.399443	0.000402
 253	2.5074e+01	10.0361	42.609949	0.001186	11.857776	4.017523	0.000475
 254	2.5174e+01	10.0794	43.029811	0.001054	10.540246	3.571132	0.000422
 255	2.5273e+01	10.1147	43.445636	0.001044	10.438897	3.536794	0.000418
 256	2.5372e+01	10.1548	43.857424	0.001034	10.337549	3.502456	0.000414
 257	2.5472e+01	10.1917	44.321695	0.001166	11.655079	3.948848	0.000467
 258	2.5572e+01	10.2366	44.725408	0.001013	10.134852	3.433781	0.000406
 259	2.5671e+01	10.2687	45.157382	0.001084	10.844291	3.674145	0.000434
 260	2.5770e+01	10.3184	45.544947	0.000973	9.729458	3.296429	0.000390
 261	2.5870e+01	10.3569	46.037477	0.001236	12.364519	4.189212	0.000495
 262	2.5970e+01	10.3922	46.457340	0.001054	10.540246	3.571132	0.000422
 263	2.6069e+01	10.4387	46.836830	0.000953	9.526761	3.227754	0.000381
 264	2.6169e+01	10.4756	47.272841	0.001095	10.945640	3.708483	0.000438
 265	2.6268e+01	10.5270	47.668480	0.000993	9.932155	3.365105	0.000398
 266	2.6367e+01	10.5559	48.064120	0.000993	9.932155	3.365105	0.000398
 267	2.6467e+01	10.5992	48.496093	0.001084	10.844291	3.674145	0.000434
 268	2.6567e+01	10.6409	48.936141	0.001105	11.046988	3.742821	0.000442
 269	2.6666e+01	10.6778	49.331780	0.000993	9.932155	3.365105	0.000398
 270	2.6765e+01	10.7211	49.735494	0.001013	10.134852	3.433781	0.000406
 271	2.6865e+01	10.7516	50.167467	0.001084	10.844291	3.674145	0.000434
 272	2.6965e+01	10.7933	50.583292	0.001044	10.438897	3.536794	0.000418
 273	2.7064e+01	10.8334	51.043526	0.001155	11.553731	3.914510	0.000463
 274	2.7163e+01	10.8783	51.427054	0.000963	9.628109	3.262092	0.000385
 275	2.7263e+01	10.9184	51.867101	0.001105	11.046988	3.742821	0.000442
 276	2.7363e+01	10.9601	52.339446	0.001186	11.857776	4.017523	0.000475
 277	2.7462e+01	10.9874	52.710863	0.000932	9.324064	3.159078	0.000373
 278	2.7561e+01	11.0371	53.134762	0.001064	10.641594	3.605470	0.000426
 279	2.7661e+01	11.0708	53.534438	0.001003	10.033503	3.399443	0.000402
 280	2.7761e+01	11.1093	54.006783	0.001186	11.857776	4.017523	0.000475
 281	2.7860e+01	11.1446	54.422608	0.001044	10.438897	3.536794	0.000418
 282	2.7959e+01	11.1975	54.858619	0.001095	10.945640	3.708483	0.000438
 283	2.8059e+01	11.2264	55.201776	0.000861	8.614624	2.918714	0.000345
 284	2.8159e+01	11.2697	55.637786	0.001095	10.945640	3.708483	0.000438
 285	2.8258e+01	11.3211	56.065723	0.001074	10.742943	3.639808	0.000430
 286	2.8358e+01	11.3467	56.489622	0.001064	10.641594	3.605470	0.000426
 287	2.8457e+01	11.3997	56.905447	0.001044	10.438897	3.536794	0.000418
 288	2.8556e+01	11.4253	57.317235	0.001034	10.337549	3.502456	0.000414
 289	2.8656e+01	11.4735	57.733060	0.001044	10.438897	3.536794	0.000418
 290	2.8756e+01	11.5120	58.197330	0.001166	11.655079	3.948848	0.000467
 291	2.8855e+01	11.5553	58.605081	0.001024	10.236200	3.468119	0.000410
 292	2.8954e+01	11.5938	59.033017	0.001074	10.742943	3.639808	0.000430
 293	2.9054e+01	11.6403	59.436731	0.001013	10.134852	3.433781	0.000406
 294	2.9154e+01	11.6628	59.848519	0.001034	10.337549	3.502456	0.000414
 295	2.9253e+01	11.7125	60.288567	0.001105	11.046988	3.742821	0.000442
 296	2.9352e+01	11.7446	60.708429	0.001054	10.540246	3.571132	0.000422
 297	2.9452e+01	11.7863	61.168662	0.001155	11.553731	3.914510	0.000463
 298	2.9552e+01	11.8376	61.580450	0.001034	10.337549	3.502456	0.000414
 299	2.9651e+01	11.8697	62.044721	0.001166	11.655079	3.948848	0.000467
 300	2.9750e+01	11.9146	62.468620	0.001064	10.641594	3.605470	0.000426
 301	2.9850e+01	11.9467	62.807739	0.000851	8.513275	2.884376	0.000341
 302	2.9950e+01	11.9932	63.272010	0.001166	11.655079	3.948848	0.000467
 303	3.0049e+01	12.0317	63.663612	0.000983	9.830806	3.330767	0.000394
 304	3.0148e+01	12.0638	64.099623	0.001095	10.945640	3.708483	0.000438
 305	3.0248e+01	12.1007	64.551782	0.001135	11.351034	3.845834	0.000454
 306	3.0348e+01	12.1569	64.951458	0.001003	10.033503	3.399443	0.000402
 307	3.0447e+01	12.1793	65.379395	0.001074	10.742943	3.639808	0.000430
 308	3.0547e+01	12.2275	65.803294	0.001064	10.641594	3.605470	0.000426
 309	3.0646e+01	12.2628	66.279676	0.001196	11.959125	4.051861	0.000479
 310	3.0745e+01	12.3045	66.651092	0.000932	9.324064	3.159078	0.000373
 311	3.0845e+01	12.3494	67.091140	0.001105	11.046988	3.742821	0.000442
 312	3.0945e+01	12.3847	67.535225	0.001115	11.148337	3.777159	0.000446
 313	3.1044e+01	12.4328	67.955087	0.001054	10.540246	3.571132	0.000422
 314	3.1143e+01	12.4681	68.403209	0.001125	11.249685	3.811497	0.000450
 315	3.1243e+01	12.5050	68.835183	0.001084	10.844291	3.674145	0.000434
 316	3.1343e+01	12.5579	69.259082	0.001064	10.641594	3.605470	0.000426
 317	3.1442e+01	12.5900	69.687019	0.001074	10.742943	3.639808	0.000430
 318	3.1541e+01	12.6317	70.110918	0.001064	10.641594	3.605470	0.000426
 319	3.1641e+01	12.6702	70.474260	0.000912	9.121367	3.090403	0.000365
 320	3.1741e+01	12.7071	70.930456	0.001145	11.452382	3.880172	0.000458
 321	3.1840e+01	12.7472	71.334170	0.001013	10.134852	3.433781	0.000406
 322	3.1939e+01	12.7857	71.770181	0.001095	10.945640	3.708483	0.000438
 323	3.2039e+01	12.8323	72.173894	0.001013	10.134852	3.433781	0.000406
 324	3.2139e+01	12.8595	72.646239	0.001186	11.857776	4.017523	0.000475
 325	3.2238e+01	12.9061	73.045915	0.001003	10.033503	3.399443	0.000402
 326	3.2337e+01	12.9430	73.494038	0.001125	11.249685	3.811497	0.000450
 327	3.2437e+01	12.9911	73.853343	0.000902	9.020018	3.056065	0.000361
 328	3.2536e+01	13.0216	74.309539	0.001145	11.452382	3.880172	0.000458
 329	3.2636e+01	13.0585	74.737475	0.001074	10.742943	3.639808	0.000430
 330	3.2736e+01	13.1002	75.149263	0.001034	10.337549	3.502456	0.000414
 331	3.2835e+01	13.1387	75.569125	0.001054	10.540246	3.571132	0.000422
 332	3.2934e+01	13.1852	76.005136	0.001095	10.945640	3.708483	0.000438
 333	3.3034e+01	13.2157	76.412887	0.001024	10.236200	3.468119	0.000410
 334	3.3133e+01	13.2654	76.885232	0.001186	11.857776	4.017523	0.000475
 335	3.3233e+01	13.3023	77.373725	0.001226	12.263171	4.154875	0.000491
 336	3.3333e+01	13.3488	77.761290	0.000973	9.729458	3.296429	0.000390
 337	3.3432e+01	13.3761	78.193264	0.001084	10.844291	3.674145	0.000434
 338	3.3532e+01	13.4242	78.601014	0.001024	10.236200	3.468119	0.000410
 339	3.3631e+01	13.4627	79.061248	0.001155	11.553731	3.914510	0.000463
 340	3.3730e+01	13.5044	79.452850	0.000983	9.830806	3.330767	0.000394
 341	3.3830e+01	13.5397	79.872712	0.001054	10.540246	3.571132	0.000422
 342	3.3929e+01	13.5766	80.349094	0.001196	11.959125	4.051861	0.000479
 343	3.4029e+01	13.6183	80.748770	0.001003	10.033503	3.399443	0.000402
 344	3.4129e+01	13.6552	81.200930	0.001135	11.351034	3.845834	0.000454
 345	3.4228e+01	13.7001	81.649052	0.001125	11.249685	3.811497	0.000450
 346	3.4328e+01	13.7451	82.064877	0.001044	10.438897	3.536794	0.000418
 347	3.4427e+01	13.7755	82.496850	0.001084	10.844291	3.674145	0.000434
 348	3.4526e+01	13.8269	82.973232	0.001196	11.959125	4.051861	0.000479
 349	3.4626e+01	13.8558	83.380983	0.001024	10.236200	3.468119	0.000410
 350	3.4725e+01	13.9071	83.808919	0.001074	10.742943	3.639808	0.000430
 351	3.4825e+01	13.9392	84.261079	0.001135	11.351034	3.845834	0.000454
 352	3.4925e+01	13.9761	84.725349	0.001166	11.655079	3.948848	0.000467
 353	3.5024e+01	14.0226	85.165397	0.001105	11.046988	3.742821	0.000442
 354	3.5123e+01	14.0595	85.629668	0.001166	11.655079	3.948848	0.000467
 355	3.5223e+01	14.1012	86.053567	0.001064	10.641594	3.605470	0.000426
 356	3.5322e+01	14.1333	86.473429	0.001054	10.540246	3.571132	0.000422
 357	3.5422e+01	14.1894	86.897328	0.001064	10.641594	3.605470	0.000426
 358	3.5522e+01	14.2119	87.321227	0.001064	10.641594	3.605470	0.000426
 359	3.5621e+01	14.2632	87.781461	0.001155	11.553731	3.914510	0.000463
 360	3.5721e+01	14.2921	88.241694	0.001155	11.553731	3.914510	0.000463
 361	3.5820e+01	14.3322	88.685779	0.001115	11.148337	3.777159	0.000446
 362	3.5919e+01	14.3755	89.125827	0.001105	11.046988	3.742821	0.000442
 363	3.6019e+01	14.4108	89.590098	0.001166	11.655079	3.948848	0.000467
 364	3.6118e+01	14.4590	90.054368	0.001166	11.655079	3.948848	0.000467
 365	3.6218e+01	14.4975	90.490379	0.001095	10.945640	3.708483	0.000438
 366	3.6318e+01	14.5440	90.962724	0.001186	11.857776	4.017523	0.000475
 367	3.6417e+01	14.5761	91.374512	0.001034	10.337549	3.502456	0.000414
 368	3.6517e+01	14.6146	91.826671	0.001135	11.351034	3.845834	0.000454
 369	3.6616e+01	14.6547	92.278830	0.001135	11.351034	3.845834	0.000454
 370	3.6715e+01	14.6884	92.739064	0.001155	11.553731	3.914510	0.000463
 371	3.6815e+01	14.7413	93.191223	0.001135	11.351034	3.845834	0.000454
 372	3.6914e+01	14.7846	93.671642	0.001206	12.060474	4.086199	0.000483
 373	3.7014e+01	14.8119	94.131875	0.001155	11.553731	3.914510	0.000463
 374	3.7114e+01	14.8632	94.608257	0.001196	11.959125	4.051861	0.000479
 375	3.7213e+01	14.8905	95.052342	0.001115	11.148337	3.777159	0.000446
 376	3.7313e+01	14.9402	95.504502	0.001135	11.351034	3.845834	0.000454
 377	3.7412e+01	14.9723	95.932438	0.001074	10.742943	3.639808	0.000430
 378	3.7511e+01	15.0140	96.437080	0.001267	12.668565	4.292226	0.000507
 379	3.7611e+01	15.0493	96.893276	0.001145	11.452382	3.880172	0.000458
 380	3.7711e+01	15.1006	97.369658	0.001196	11.959125	4.051861	0.000479
 381	3.7810e+01	15.1295	97.882375	0.001287	12.871262	4.360901	0.000515
 382	3.7910e+01	15.1825	98.318385	0.001095	10.945640	3.708483	0.000438
 383	3.8009e+01	15.2178	98.778619	0.001155	11.553731	3.914510	0.000463
 384	3.8108e+01	15.2563	99.263075	0.001216	12.161822	4.120537	0.000487
 385	3.8208e+01	15.2819	99.763680	0.001257	12.567216	4.257888	0.000503
 386	3.8307e+01	15.3365	100.284470	0.001307	13.073959	4.429577	0.000523
 387	3.8407e+01	15.3798	100.748741	0.001166	11.655079	3.948848	0.000467
 388	3.8507e+01	15.4151	101.233197	0.001216	12.161822	4.120537	0.000487
 389	3.8606e+01	15.4600	101.721691	0.001226	12.263171	4.154875	0.000491
 390	3.8706e+01	15.4937	102.202110	0.001206	12.060474	4.086199	0.000483
 391	3.8805e+01	15.5402	102.759235	0.001399	13.986095	4.738617	0.000560
 392	3.8904e+01	15.5755	103.271951	0.001287	12.871262	4.360901	0.000515
 393	3.9004e+01	15.6156	103.679701	0.001024	10.236200	3.468119	0.000410
 394	3.9103e+01	15.6541	104.176269	0.001247	12.465868	4.223550	0.000499
 395	3.9203e+01	15.6894	104.693023	0.001297	12.972610	4.395239	0.000519
 396	3.9303e+01	15.7375	105.225924	0.001338	13.378004	4.532591	0.000536
 397	3.9402e+01	15.7680	105.726529	0.001257	12.567216	4.257888	0.000503
 398	3.9502e+01	15.8065	106.178688	0.001135	11.351034	3.845834	0.000454
 399	3.9601e+01	15.8562	106.691405	0.001287	12.871262	4.360901	0.000515
 400	3.9700e+01	15.8915	107.232381	0.001358	13.580701	4.601266	0.000544
 401	3.9800e+01	15.9268	107.720874	0.001226	12.263171	4.154875	0.000491
 402	3.9900e+01	15.9717	108.225516	0.001267	12.668565	4.292226	0.000507
 403	3.9999e+01	16.0022	108.766492	0.001358	13.580701	4.601266	0.000544
 404	4.0099e+01	16.0487	109.222689	0.001145	11.452382	3.880172	0.000458
 405	4.0198e+01	16.0921	109.715219	0.001236	12.364519	4.189212	0.000495
 406	4.0297e+01	16.1306	110.240047	0.001318	13.175307	4.463915	0.000527
 407	4.0397e+01	16.1787	110.752763	0.001287	12.871262	4.360901	0.000515
 408	4.0496e+01	16.2060	111.277591	0.001318	13.175307	4.463915	0.000527
 409	4.0596e+01	16.2621	111.830679	0.001388	13.884747	4.704280	0.000556
 410	4.0696e+01	16.2926	112.359543	0.001328	13.276656	4.498253	0.000532
 411	4.0795e+01	16.3423	112.868222	0.001277	12.769913	4.326564	0.000511
 412	4.0895e+01	16.3728	113.352679	0.001216	12.161822	4.120537	0.000487
 413	4.0994e+01	16.4065	113.905766	0.001388	13.884747	4.704280	0.000556
 414	4.1093e+01	16.4594	114.450780	0.001368	13.682050	4.635604	0.000548
 415	4.1193e+01	16.4819	114.927162	0.001196	11.959125	4.051861	0.000479
 416	4.1292e+01	16.5316	115.496398	0.001429	14.290141	4.841631	0.000572
 417	4.1392e+01	16.5749	115.988928	0.001236	12.364519	4.189212	0.000495
 418	4.1492e+01	16.6134	116.570276	0.001459	14.594186	4.944644	0.000584
 419	4.1591e+01	16.6503	117.099141	0.001328	13.276656	4.498253	0.000532
 420	4.1691e+01	16.6824	117.628005	0.001328	13.276656	4.498253	0.000532
 421	4.1790e+01	16.7257	118.160907	0.001338	13.378004	4.532591	0.000536
 422	4.1889e+01	16.7755	118.705921	0.001368	13.682050	4.635604	0.000548
 423	4.1989e+01	16.8124	119.234785	0.001328	13.276656	4.498253	0.000532
 424	4.2089e+01	16.8444	119.775762	0.001358	13.580701	4.601266	0.000544
 425	4.2188e+01	16.8878	120.316738	0.001358	13.580701	4.601266	0.000544
 426	4.2288e+01	16.9343	120.898085	0.001459	14.594186	4.944644	0.000584
 427	4.2387e+01	16.9583	121.447136	0.001378	13.783398	4.669942	0.000552
 428	4.2486e+01	17.0081	121.988112	0.001358	13.580701	4.601266	0.000544
 429	4.2586e+01	17.0418	122.589645	0.001510	15.100929	5.116333	0.000605
 430	4.2685e+01	17.0899	123.138696	0.001378	13.783398	4.669942	0.000552
 431	4.2785e+01	17.1252	123.679672	0.001358	13.580701	4.601266	0.000544
 432	4.2885e+01	17.1621	124.208537	0.001328	13.276656	4.498253	0.000532
 433	4.2984e+01	17.1990	124.733364	0.001318	13.175307	4.463915	0.000527
 434	4.3084e+01	17.2407	125.314712	0.001459	14.594186	4.944644	0.000584
 435	4.3183e+01	17.2872	125.867799	0.001388	13.884747	4.704280	0.000556
 436	4.3282e+01	17.3225	126.441073	0.001439	14.391489	4.875969	0.000576
 437	4.3382e+01	17.3594	126.982049	0.001358	13.580701	4.601266	0.000544
 438	4.3481e+01	17.4107	127.551285	0.001429	14.290141	4.841631	0.000572
 439	4.3581e+01	17.4444	128.100336	0.001378	13.783398	4.669942	0.000552
 440	4.3681e+01	17.4877	128.665535	0.001419	14.188792	4.807293	0.000568
 441	4.3780e+01	17.5311	129.279179	0.001540	15.404975	5.219347	0.000617
 442	4.3880e+01	17.5647	129.824192	0.001368	13.682050	4.635604	0.000548
 443	4.3979e+01	17.6113	130.377280	0.001388	13.884747	4.704280	0.000556
 444	4.4078e+01	17.6417	130.942479	0.001419	14.188792	4.807293	0.000568
 445	4.4178e+01	17.6851	131.535938	0.001490	14.898232	5.047658	0.000596
 446	4.4278e+01	17.7284	132.121323	0.001470	14.695535	4.978982	0.000588
 447	4.4377e+01	17.7717	132.646150	0.001318	13.175307	4.463915	0.000527
 448	4.4477e+01	17.8134	133.312278	0.001672	16.722505	5.665738	0.000669
 449	4.4576e+01	17.8487	133.917848	0.001520	15.202278	5.150671	0.000609
 450	4.4675e+01	17.8808	134.458824	0.001358	13.580701	4.601266	0.000544
 451	4.4775e+01	17.9321	135.040172	0.001459	14.594186	4.944644	0.000584
 452	4.4874e+01	17.9642	135.605371	0.001419	14.188792	4.807293	0.000568
 453	4.4974e+01	18.0075	136.202867	0.001500	14.999580	5.081995	0.000600
 454	4.5074e+01	18.0492	136.816512	0.001540	15.404975	5.219347	0.000617
 455	4.5173e+01	18.0765	137.369599	0.001388	13.884747	4.704280	0.000556
 456	4.5273e+01	18.1278	137.991318	0.001561	15.607672	5.288022	0.000625
 457	4.5372e+01	18.1599	138.592851	0.001510	15.100929	5.116333	0.000605
 458	4.5471e+01	18.2064	139.214570	0.001561	15.607672	5.288022	0.000625
 459	4.5571e+01	18.2546	139.816103	0.001510	15.100929	5.116333	0.000605
 460	4.5670e+01	18.2899	140.441859	0.001571	15.709020	5.322360	0.000629
 461	4.5770e+01	18.3171	141.059541	0.001551	15.506323	5.253684	0.000621
 462	4.5870e+01	18.3653	141.669149	0.001530	15.303626	5.185009	0.000613
 463	4.5969e+01	18.4038	142.307016	0.001601	16.013066	5.425374	0.000641
 464	4.6069e+01	18.4455	142.920661	0.001540	15.404975	5.219347	0.000617
 465	4.6168e+01	18.4792	143.530268	0.001530	15.303626	5.185009	0.000613
 466	4.6267e+01	18.5273	144.192359	0.001662	16.621157	5.631400	0.000665
 467	4.6367e+01	18.5674	144.882709	0.001733	17.330596	5.871765	0.000694
 468	4.6467e+01	18.6059	145.460019	0.001449	14.492838	4.910306	0.000580
 469	4.6566e+01	18.6508	146.057515	0.001500	14.999580	5.081995	0.000600
 470	4.6666e+01	18.6765	146.687308	0.001581	15.810369	5.356698	0.000633
 471	4.6765e+01	18.7294	147.272693	0.001470	14.695535	4.978982	0.000588
 472	4.6864e+01	18.7567	147.918635	0.001622	16.215763	5.494049	0.000649
 473	4.6964e+01	18.8000	148.588799	0.001682	16.823854	5.700076	0.000674
 474	4.7063e+01	18.8497	149.234741	0.001622	16.215763	5.494049	0.000649
 475	4.7163e+01	18.8802	149.872609	0.001601	16.013066	5.425374	0.000641
 476	4.7263e+01	18.9219	150.486253	0.001540	15.404975	5.219347	0.000617
 477	4.7362e+01	18.9684	151.152381	0.001672	16.722505	5.665738	0.000669
 478	4.7462e+01	19.0021	151.774100	0.001561	15.607672	5.288022	0.000625
 479	4.7561e+01	19.0422	152.440227	0.001672	16.722505	5.665738	0.000669
 480	4.7660e+01	19.0888	153.110391	0.001682	16.823854	5.700076	0.000674
 481	4.7760e+01	19.1160	153.780556	0.001682	16.823854	5.700076	0.000674
 482	4.7859e+01	19.1577	154.442646	0.001662	16.621157	5.631400	0.000665
 483	4.7959e+01	19.2075	155.076477	0.001591	15.911717	5.391036	0.000637
 484	4.8059e+01	19.2460	155.758752	0.001713	17.127899	5.803089	0.000686
 485	4.8158e+01	19.2861	156.445066	0.001723	17.229248	5.837427	0.000690
 486	4.8258e+01	19.3134	157.123304	0.001703	17.026551	5.768752	0.000682
 487	4.8357e+01	19.3583	157.732912	0.001530	15.303626	5.185009	0.000613
 488	4.8456e+01	19.3936	158.374816	0.001611	16.114414	5.459711	0.000645
 489	4.8556e+01	19.4433	159.032870	0.001652	16.519808	5.597063	0.000661
 490	4.8656e+01	19.4882	159.694960	0.001662	16.621157	5.631400	0.000665
 491	4.8755e+01	19.5139	160.353013	0.001652	16.519808	5.597063	0.000661
 492	4.8855e+01	19.5556	161.055475	0.001763	17.634642	5.974778	0.000706
 493	4.8954e+01	19.5989	161.741788	0.001723	17.229248	5.837427	0.000690
 494	4.9053e+01	19.6358	162.379655	0.001601	16.013066	5.425374	0.000641
 495	4.9153e+01	19.6727	163.061931	0.001713	17.127899	5.803089	0.000686
 496	4.9252e+01	19.7192	163.736133	0.001693	16.925202	5.734414	0.000678
 497	4.9352e+01	19.7641	164.450706	0.001794	17.938687	6.077792	0.000718
 498	4.9452e+01	19.8026	165.132982	0.001713	17.127899	5.803089	0.000686
 499	4.9551e+01	19.8331	165.839480	0.001774	17.735990	6.009116	0.000710
 500	4.9651e+01	19.8797	166.545979	0.001774	17.735990	6.009116	0.000710
 501	4.9750e+01	19.9149	167.195958	0.001632	16.317111	5.528387	0.000653
 502	4.9849e+01	19.9583	167.894383	0.001753	17.533293	5.940441	0.000702
 503	4.9949e+01	19.9936	168.600881	0.001774	17.735990	6.009116	0.000710
 504	5.0048e+01	19.9599	168.746218	-0.000365	-3.648547	-1.236161	0.000146
 505	5.0148e+01	19.9198	168.814849	-0.000172	-1.722925	-0.583743	0.000069
 506	5.0248e+01	19.8845	168.899629	-0.000213	-2.128319	-0.721094	0.000085
 507	5.0347e+01	19.8428	168.948075	-0.000122	-1.216182	-0.412054	0.000049
 508	5.0447e+01	19.7994	169.049003	-0.000253	-2.533713	-0.858445	0.000101
 509	5.0546e+01	19.7577	169.145895	-0.000243	-2.432364	-0.824107	0.000097
 510	5.0645e+01	19.7128	169.186266	-0.000101	-1.013485	-0.343378	0.000041
 511	5.0745e+01	19.6711	169.271046	-0.000213	-2.128319	-0.721094	0.000085
 512	5.0844e+01	19.6326	169.380048	-0.000274	-2.736410	-0.927121	0.000110
 513	5.0944e+01	19.5925	169.396197	-0.000041	-0.405394	-0.137351	0.000016
 514	5.1044e+01	19.5524	169.440605	-0.000111	-1.114834	-0.377716	0.000045
 515	5.1143e+01	19.5155	169.529422	-0.000223	-2.229667	-0.755432	0.000089
 516	5.1242e+01	19.4850	169.569794	-0.000101	-1.013485	-0.343378	0.000041
 517	5.1342e+01	19.4465	169.642462	-0.000182	-1.824273	-0.618081	0.000073
 518	5.1441e+01	19.3888	169.686871	-0.000111	-1.114834	-0.377716	0.000045
 519	5.1541e+01	19.3599	169.698982	-0.000030	-0.304046	-0.103013	0.000012
 520	5.1641e+01	19.3198	169.775688	-0.000193	-1.925622	-0.652418	0.000077
 521	5.1740e+01	19.2716	169.791836	-0.000041	-0.405394	-0.137351	0.000016
 522	5.1840e+01	19.2380	169.836245	-0.000111	-1.114834	-0.377716	0.000045
 523	5.1939e+01	19.2107	169.900839	-0.000162	-1.621576	-0.549405	0.000065
 524	5.2038e+01	19.1626	169.872579	0.000071	0.709440	0.240365	-0.000028
 525	5.2138e+01	19.1160	169.876616	-0.000010	-0.101349	-0.034338	0.000004
 526	5.2237e+01	19.0888	169.921025	-0.000111	-1.114834	-0.377716	0.000045
 527	5.2337e+01	19.0455	169.937173	-0.000041	-0.405394	-0.137351	0.000016
 528	5.2437e+01	19.0037	169.941210	-0.000010	-0.101349	-0.034338	0.000004
 529	5.2536e+01	18.9572	169.993693	-0.000132	-1.317531	-0.446391	0.000053
 530	5.2636e+01	18.9187	170.013879	-0.000051	-0.506743	-0.171689	0.000020
 531	5.2735e+01	18.8882	169.989656	0.000061	0.608091	0.206027	-0.000024
 532	5.2834e+01	18.8481	169.989656	-0.000000	-0.000000	-0.000000	0.000000
 533	5.2934e+01	18.8016	170.005804	-0.000041	-0.405394	-0.137351	0.000016
 534	5.3033e+01	18.7599	169.985619	0.000051	0.506743	0.171689	-0.000020
 535	5.3133e+01	18.7134	170.005804	-0.000051	-0.506743	-0.171689	0.000020
 536	5.3233e+01	18.6845	169.985619	0.000051	0.506743	0.171689	-0.000020
 537	5.3332e+01	18.6476	169.961396	0.000061	0.608091	0.206027	-0.000024
 538	5.3431e+01	18.6043	169.969470	-0.000020	-0.202697	-0.068676	0.000008
 539	5.3531e+01	18.5674	169.949285	0.000051	0.506743	0.171689	-0.000020
 540	5.3630e+01	18.5257	169.989656	-0.000101	-1.013485	-0.343378	0.000041
 541	5.3730e+01	18.4872	169.981582	0.000020	0.202697	0.068676	-0.000008
 542	5.3830e+01	18.4519	169.933136	0.000122	1.216182	0.412054	-0.000049
 543	5.3929e+01	18.4134	169.916988	0.000041	0.405394	0.137351	-0.000016
 544	5.4029e+01	18.3588	169.848356	0.000172	1.722925	0.583743	-0.000069
 545	5.4128e+01	18.3155	169.848356	-0.000000	-0.000000	-0.000000	0.000000
 546	5.4227e+01	18.2786	169.803948	0.000111	1.114834	0.377716	-0.000045
 547	5.4327e+01	18.2369	169.795873	0.000020	0.202697	0.068676	-0.000008
 548	5.4426e+01	18.1984	169.799911	-0.000010	-0.101349	-0.034338	0.000004
 549	5.4526e+01	18.1663	169.775688	0.000061	0.608091	0.206027	-0.000024
 550	5.4626e+01	18.1278	169.703019	0.000182	1.824273	0.618081	-0.000073
 551	5.4725e+01	18.0941	169.690908	0.000030	0.304046	0.103013	-0.000012
 552	5.4825e+01	18.0540	169.662648	0.000071	0.709440	0.240365	-0.000028
 553	5.4924e+01	18.0107	169.638425	0.000061	0.608091	0.206027	-0.000024
 554	5.5023e+01	17.9610	169.581905	0.000142	1.418879	0.480729	-0.000057
 555	5.5123e+01	17.9097	169.525385	0.000142	1.418879	0.480729	-0.000057
 556	5.5222e+01	17.8856	169.485014	0.000101	1.013485	0.343378	-0.000041
 557	5.5322e+01	17.8535	169.472903	0.000030	0.304046	0.103013	-0.000012
 558	5.5422e+01	17.8102	169.400234	0.000182	1.824273	0.618081	-0.000073
 559	5.5521e+01	17.7669	169.355826	0.000111	1.114834	0.377716	-0.000045
 560	5.5620e+01	17.7171	169.287194	0.000172	1.722925	0.583743	-0.000069
 561	5.5720e+01	17.6883	169.250860	0.000091	0.912137	0.309040	-0.000037
 562	5.5819e+01	17.6434	169.186266	0.000162	1.621576	0.549405	-0.000065
 563	5.5919e+01	17.5968	169.158006	0.000071	0.709440	0.240365	-0.000028
 564	5.6019e+01	17.5680	169.065152	0.000233	2.331016	0.789770	-0.000093
 565	5.6118e+01	17.5262	169.028818	0.000091	0.912137	0.309040	-0.000037
 566	5.6218e+01	17.4861	168.972298	0.000142	1.418879	0.480729	-0.000057
 567	5.6317e+01	17.4364	168.907704	0.000162	1.621576	0.549405	-0.000065
 568	5.6416e+01	17.4139	168.826961	0.000203	2.026970	0.686756	-0.000081
 569	5.6516e+01	17.3674	168.746218	0.000203	2.026970	0.686756	-0.000081
 570	5.6615e+01	17.3241	168.709884	0.000091	0.912137	0.309040	-0.000037
 571	5.6715e+01	17.2824	168.669513	0.000101	1.013485	0.343378	-0.000041
 572	5.6815e+01	17.2503	168.568584	0.000253	2.533713	0.858445	-0.000101
 573	5.6914e+01	17.2070	168.495916	0.000182	1.824273	0.618081	-0.000073
 574	5.7014e+01	17.1685	168.467656	0.000071	0.709440	0.240365	-0.000028
 575	5.7113e+01	17.1284	168.350579	0.000294	2.939107	0.995796	-0.000118
 576	5.7212e+01	17.0883	168.298096	0.000132	1.317531	0.446391	-0.000053
 577	5.7312e+01	17.0434	168.225428	0.000182	1.824273	0.618081	-0.000073
 578	5.7411e+01	16.9985	168.156796	0.000172	1.722925	0.583743	-0.000069
 579	5.7511e+01	16.9760	168.039719	0.000294	2.939107	0.995796	-0.000118
 580	5.7611e+01	16.9295	167.971088	0.000172	1.722925	0.583743	-0.000069
 581	5.7710e+01	16.8926	167.870160	0.000253	2.533713	0.858445	-0.000101
 582	5.7809e+01	16.8444	167.809603	0.000152	1.520228	0.515067	-0.000061
 583	5.7909e+01	16.8204	167.708674	0.000253	2.533713	0.858445	-0.000101
 584	5.8008e+01	16.7562	167.619857	0.000223	2.229667	0.755432	-0.000089
 585	5.8108e+01	16.7305	167.510855	0.000274	2.736410	0.927121	-0.000110
 586	5.8208e+01	16.6872	167.466446	0.000111	1.114834	0.377716	-0.000045
 587	5.8307e+01	16.6535	167.369555	0.000243	2.432364	0.824107	-0.000097
 588	5.8407e+01	16.6070	167.244404	0.000314	3.141804	1.064472	-0.000126
 589	5.8506e+01	16.5733	167.167698	0.000193	1.925622	0.652418	-0.000077
 590	5.8605e+01	16.5316	167.082918	0.000213	2.128319	0.721094	-0.000085
 591	5.8705e+01	16.4835	166.973916	0.000274	2.736410	0.927121	-0.000110
 592	5.8804e+01	16.4466	166.877024	0.000243	2.432364	0.824107	-0.000097
 593	5.8904e+01	16.4193	166.751873	0.000314	3.141804	1.064472	-0.000126
 594	5.9004e+01	16.3728	166.646908	0.000264	2.635061	0.892783	-0.000105
 595	5.9103e+01	16.3407	166.558091	0.000223	2.229667	0.755432	-0.000089
 596	5.9203e+01	16.2878	166.432939	0.000314	3.141804	1.064472	-0.000126
 597	5.9302e+01	16.2477	166.352197	0.000203	2.026970	0.686756	-0.000081
 598	5.9401e+01	16.2028	166.243194	0.000274	2.736410	0.927121	-0.000110
 599	5.9501e+01	16.1675	166.114006	0.000324	3.243153	1.098810	-0.000130
 600	5.9600e+01	16.1306	165.980780	0.000334	3.344501	1.133148	-0.000134
 601	5.9700e+01	16.0937	165.891963	0.000223	2.229667	0.755432	-0.000089
 602	5.9800e+01	16.0471	165.766812	0.000314	3.141804	1.064472	-0.000126
 603	5.9899e+01	16.0118	165.657809	0.000274	2.736410	0.927121	-0.000110
 604	5.9998e+01	15.9637	165.472101	0.000466	4.662032	1.579539	-0.000187
 605	6.0098e+01	15.9332	165.415581	0.000142	1.418879	0.480729	-0.000057
 606	6.0197e+01	15.8867	165.278319	0.000345	3.445850	1.167485	-0.000138
 607	6.0297e+01	15.8562	165.137019	0.000355	3.547198	1.201823	-0.000142
 608	6.0397e+01	15.8049	165.032053	0.000264	2.635061	0.892783	-0.000105
 609	6.0496e+01	15.7728	164.919013	0.000284	2.837758	0.961459	-0.000114
 610	6.0596e+01	15.7375	164.797899	0.000304	3.040456	1.030134	-0.000122
 611	6.0695e+01	15.6974	164.656600	0.000355	3.547198	1.201823	-0.000142
 612	6.0794e+01	15.6493	164.523374	0.000334	3.344501	1.133148	-0.000134
 613	6.0894e+01	15.6188	164.386112	0.000345	3.445850	1.167485	-0.000138
 614	6.0993e+01	15.5771	164.248849	0.000345	3.445850	1.167485	-0.000138
 615	6.1093e+01	15.5386	164.091401	0.000395	3.952592	1.339174	-0.000158
 616	6.1193e+01	15.4873	163.933952	0.000395	3.952592	1.339174	-0.000158
 617	6.1292e+01	15.4488	163.833024	0.000253	2.533713	0.858445	-0.000101
 618	6.1392e+01	15.4103	163.679613	0.000385	3.851244	1.304837	-0.000154
 619	6.1491e+01	15.3718	163.566573	0.000284	2.837758	0.961459	-0.000114
 620	6.1590e+01	15.3333	163.401050	0.000416	4.155289	1.407850	-0.000166
 621	6.1690e+01	15.2948	163.255714	0.000365	3.648547	1.236161	-0.000146
 622	6.1789e+01	15.2595	163.078080	0.000446	4.459335	1.510864	-0.000179
 623	6.1889e+01	15.2129	162.936780	0.000355	3.547198	1.201823	-0.000142
 624	6.1989e+01	15.1809	162.831814	0.000264	2.635061	0.892783	-0.000105
 625	6.2088e+01	15.1391	162.670329	0.000405	4.053941	1.373512	-0.000162
 626	6.2188e+01	15.0990	162.545178	0.000314	3.141804	1.064472	-0.000126
 627	6.2287e+01	15.0637	162.391766	0.000385	3.851244	1.304837	-0.000154
 628	6.2386e+01	15.0301	162.210095	0.000456	4.560683	1.545201	-0.000183
 629	6.2486e+01	14.9787	162.024387	0.000466	4.662032	1.579539	-0.000187
 630	6.2586e+01	14.9418	161.911347	0.000284	2.837758	0.961459	-0.000114
 631	6.2685e+01	14.9033	161.741788	0.000426	4.256638	1.442188	-0.000170
 632	6.2785e+01	14.8552	161.584339	0.000395	3.952592	1.339174	-0.000158
 633	6.2884e+01	14.8135	161.402668	0.000456	4.560683	1.545201	-0.000183
 634	6.2983e+01	14.7734	161.233109	0.000426	4.256638	1.442188	-0.000170
 635	6.3083e+01	14.7381	161.103920	0.000324	3.243153	1.098810	-0.000130
 636	6.3182e+01	14.6948	160.906101	0.000497	4.966077	1.682553	-0.000199
 637	6.3282e+01	14.6579	160.744615	0.000405	4.053941	1.373512	-0.000162
 638	6.3382e+01	14.6242	160.603315	0.000355	3.547198	1.201823	-0.000142
 639	6.3481e+01	14.5761	160.441830	0.000405	4.053941	1.373512	-0.000162
 640	6.3581e+01	14.5472	160.264196	0.000446	4.459335	1.510864	-0.000179
 641	6.3680e+01	14.4991	160.078488	0.000466	4.662032	1.579539	-0.000187
 642	6.3779e+01	14.4638	159.925077	0.000385	3.851244	1.304837	-0.000154
 643	6.3879e+01	14.4237	159.690923	0.000588	5.878214	1.991593	-0.000235
 644	6.3978e+01	14.3803	159.557697	0.000334	3.344501	1.133148	-0.000134
 645	6.4078e+01	14.3338	159.339692	0.000547	5.472820	1.854242	-0.000219
 646	6.4177e+01	14.2953	159.182244	0.000395	3.952592	1.339174	-0.000158
 647	6.4277e+01	14.2584	158.980387	0.000507	5.067426	1.716890	-0.000203
 648	6.4376e+01	14.2199	158.810827	0.000426	4.256638	1.442188	-0.000170
 649	6.4476e+01	14.1782	158.629156	0.000456	4.560683	1.545201	-0.000183
 650	6.4576e+01	14.1429	158.447485	0.000456	4.560683	1.545201	-0.000183
 651	6.4675e+01	14.0996	158.261777	0.000466	4.662032	1.579539	-0.000187
 652	6.4775e+01	14.0643	158.023586	0.000598	5.979562	2.025931	-0.000239
 653	6.4874e+01	14.0178	157.833840	0.000476	4.763380	1.613877	-0.000191
 654	6.4974e+01	13.9841	157.668318	0.000416	4.155289	1.407850	-0.000166
 655	6.5073e+01	13.9360	157.458387	0.000527	5.270123	1.785566	-0.000211
 656	6.5172e+01	13.9071	157.248456	0.000527	5.270123	1.785566	-0.000211
 657	6.5272e+01	13.8702	157.091007	0.000395	3.952592	1.339174	-0.000158
 658	6.5371e+01	13.8157	156.860891	0.000578	5.776865	1.957255	-0.000231
 659	6.5471e+01	13.7788	156.671145	0.000476	4.763380	1.613877	-0.000191
 660	6.5570e+01	13.7386	156.481400	0.000476	4.763380	1.613877	-0.000191
 661	6.5670e+01	13.7066	156.263394	0.000547	5.472820	1.854242	-0.000219
 662	6.5769e+01	13.6633	156.101909	0.000405	4.053941	1.373512	-0.000162
 663	6.5869e+01	13.6151	155.879867	0.000557	5.574168	1.888579	-0.000223
 664	6.5969e+01	13.5846	155.653787	0.000568	5.675517	1.922917	-0.000227
 665	6.6068e+01	13.5526	155.431744	0.000557	5.574168	1.888579	-0.000223
 666	6.6168e+01	13.5012	155.254111	0.000446	4.459335	1.510864	-0.000179
 667	6.6267e+01	13.4659	155.060328	0.000486	4.864729	1.648215	-0.000195
 668	6.6367e+01	13.4194	154.830211	0.000578	5.776865	1.957255	-0.000231
 669	6.6466e+01	13.3793	154.628354	0.000507	5.067426	1.716890	-0.000203
 670	6.6566e+01	13.3408	154.402275	0.000568	5.675517	1.922917	-0.000227
 671	6.6665e+01	13.3039	154.172158	0.000578	5.776865	1.957255	-0.000231
 672	6.6764e+01	13.2654	153.982413	0.000476	4.763380	1.613877	-0.000191
 673	6.6864e+01	13.2189	153.724036	0.000649	6.486305	2.197620	-0.000260
 674	6.6963e+01	13.1852	153.506031	0.000547	5.472820	1.854242	-0.000219
 675	6.7063e+01	13.1435	153.304174	0.000507	5.067426	1.716890	-0.000203
 676	6.7162e+01	13.0970	153.057909	0.000618	6.182260	2.094606	-0.000248
 677	6.7262e+01	13.0681	152.835866	0.000557	5.574168	1.888579	-0.000223
 678	6.7362e+01	13.0216	152.638047	0.000497	4.966077	1.682553	-0.000199
 679	6.7461e+01	12.9879	152.407930	0.000578	5.776865	1.957255	-0.000231
 680	6.7561e+01	12.9462	152.193962	0.000537	5.371471	1.819904	-0.000215
 681	6.7660e+01	12.9044	151.955771	0.000598	5.979562	2.025931	-0.000239
 682	6.7760e+01	12.8724	151.741802	0.000537	5.371471	1.819904	-0.000215
 683	6.7859e+01	12.8307	151.515723	0.000568	5.675517	1.922917	-0.000227
 684	6.7959e+01	12.7905	151.325977	0.000476	4.763380	1.613877	-0.000191
 685	6.8058e+01	12.7440	151.055489	0.000679	6.790351	2.300633	-0.000272
 686	6.8157e+01	12.7071	150.865744	0.000476	4.763380	1.613877	-0.000191
 687	6.8257e+01	12.6750	150.663887	0.000507	5.067426	1.716890	-0.000203
 688	6.8356e+01	12.6414	150.401473	0.000659	6.587654	2.231957	-0.000264
 689	6.8456e+01	12.5836	150.135022	0.000669	6.689002	2.266295	-0.000268
 690	6.8555e+01	12.5611	149.921054	0.000537	5.371471	1.819904	-0.000215
 691	6.8655e+01	12.5114	149.630380	0.000730	7.297093	2.472322	-0.000292
 692	6.8754e+01	12.4665	149.412375	0.000547	5.472820	1.854242	-0.000219
 693	6.8854e+01	12.4280	149.198407	0.000537	5.371471	1.819904	-0.000215
 694	6.8954e+01	12.3895	148.923882	0.000689	6.891699	2.334971	-0.000276
 695	6.9053e+01	12.3382	148.621096	0.000760	7.601139	2.575336	-0.000304
 696	6.9153e+01	12.3093	148.423277	0.000497	4.966077	1.682553	-0.000199
 697	6.9252e+01	12.2708	148.225457	0.000497	4.966077	1.682553	-0.000199
 698	6.9352e+01	12.2339	147.954969	0.000679	6.790351	2.300633	-0.000272
 699	6.9451e+01	12.1841	147.712741	0.000608	6.080911	2.060268	-0.000243
 700	6.9550e+01	12.1489	147.454364	0.000649	6.486305	2.197620	-0.000260
 701	6.9650e+01	12.1152	147.171765	0.000709	7.094396	2.403646	-0.000284
 702	6.9749e+01	12.0702	146.965871	0.000517	5.168774	1.751228	-0.000207
 703	6.9849e+01	12.0382	146.719606	0.000618	6.182260	2.094606	-0.000248
 704	6.9948e+01	11.9900	146.412783	0.000770	7.702487	2.609673	-0.000308
 705	7.0048e+01	11.9499	146.214964	0.000497	4.966077	1.682553	-0.000199
 706	7.0147e+01	11.9178	145.960624	0.000638	6.384957	2.163282	-0.000256
 707	7.0247e+01	11.8761	145.694173	0.000669	6.689002	2.266295	-0.000268
 708	7.0347e+01	11.8312	145.383314	0.000780	7.803836	2.644011	-0.000312
 709	7.0446e+01	11.7879	145.116863	0.000669	6.689002	2.266295	-0.000268
 710	7.0546e+01	11.7430	144.834263	0.000709	7.094396	2.403646	-0.000284
 711	7.0645e+01	11.7157	144.596072	0.000598	5.979562	2.025931	-0.000239
 712	7.0745e+01	11.6772	144.309436	0.000720	7.195745	2.437984	-0.000288
 713	7.0844e+01	11.6243	144.095467	0.000537	5.371471	1.819904	-0.000215
 714	7.0944e+01	11.5842	143.792682	0.000760	7.601139	2.575336	-0.000304
 715	7.1043e+01	11.5537	143.530268	0.000659	6.587654	2.231957	-0.000264
 716	7.1142e+01	11.5104	143.267855	0.000659	6.587654	2.231957	-0.000264
 717	7.1242e+01	11.4687	143.001404	0.000669	6.689002	2.266295	-0.000268
 718	7.1341e+01	11.4334	142.710730	0.000730	7.297093	2.472322	-0.000292
 719	7.1441e+01	11.3997	142.464464	0.000618	6.182260	2.094606	-0.000248
 720	7.1540e+01	11.3516	142.181865	0.000709	7.094396	2.403646	-0.000284
 721	7.1640e+01	11.3098	141.871006	0.000780	7.803836	2.644011	-0.000312
 722	7.1740e+01	11.2745	141.592443	0.000699	6.993048	2.369309	-0.000280
 723	7.1839e+01	11.2344	141.338104	0.000638	6.384957	2.163282	-0.000256
 724	7.1939e+01	11.1927	141.128173	0.000527	5.270123	1.785566	-0.000211
 725	7.2038e+01	11.1526	140.865759	0.000659	6.587654	2.231957	-0.000264
 726	7.2138e+01	11.1254	140.530676	0.000841	8.411927	2.850038	-0.000337
 727	7.2237e+01	11.0708	140.244040	0.000720	7.195745	2.437984	-0.000288
 728	7.2337e+01	11.0371	139.908958	0.000841	8.411927	2.850038	-0.000337
 729	7.2436e+01	10.9922	139.658655	0.000628	6.283608	2.128944	-0.000252
 730	7.2535e+01	10.9585	139.343759	0.000791	7.905184	2.678349	-0.000316
 731	7.2635e+01	10.9184	139.085382	0.000649	6.486305	2.197620	-0.000260
 732	7.2734e+01	10.8703	138.782597	0.000760	7.601139	2.575336	-0.000304
 733	7.2834e+01	10.8270	138.491923	0.000730	7.297093	2.472322	-0.000292
 734	7.2933e+01	10.7901	138.245658	0.000618	6.182260	2.094606	-0.000248
 735	7.3033e+01	10.7516	137.942872	0.000760	7.601139	2.575336	-0.000304
 736	7.3132e+01	10.7115	137.652199	0.000730	7.297093	2.472322	-0.000292
 737	7.3232e+01	10.6730	137.369599	0.000709	7.094396	2.403646	-0.000284
 738	7.3332e+01	10.6345	137.070851	0.000750	7.499790	2.540998	-0.000300
 739	7.3431e+01	10.5911	136.796326	0.000689	6.891699	2.334971	-0.000276
 740	7.3531e+01	10.5542	136.509689	0.000720	7.195745	2.437984	-0.000288
 741	7.3630e+01	10.5141	136.235164	0.000689	6.891699	2.334971	-0.000276
 742	7.3730e+01	10.4692	135.972750	0.000659	6.587654	2.231957	-0.000264
 743	7.3829e+01	10.4403	135.661891	0.000780	7.803836	2.644011	-0.000312
 744	7.3928e+01	10.3954	135.346994	0.000791	7.905184	2.678349	-0.000316
 745	7.4028e+01	10.3553	135.048246	0.000750	7.499790	2.540998	-0.000300
 746	7.4127e+01	10.3120	134.721238	0.000821	8.209230	2.781362	-0.000329
 747	7.4227e+01	10.2719	134.418453	0.000760	7.601139	2.575336	-0.000304
 748	7.4326e+01	10.2366	134.095482	0.000811	8.107881	2.747025	-0.000325
 749	7.4426e+01	10.1917	133.784623	0.000780	7.803836	2.644011	-0.000312
 750	7.4525e+01	10.1468	133.481837	0.000760	7.601139	2.575336	-0.000304
 751	7.4625e+01	10.1147	133.175015	0.000770	7.702487	2.609673	-0.000308
 752	7.4725e+01	10.0746	132.852044	0.000811	8.107881	2.747025	-0.000325
 753	7.4824e+01	10.0473	132.569445	0.000709	7.094396	2.403646	-0.000284
 754	7.4924e+01	9.9944	132.214177	0.000892	8.918669	3.021727	-0.000357
 755	7.5023e+01	9.9478	131.955800	0.000649	6.486305	2.197620	-0.000260
 756	7.5123e+01	9.9158	131.644941	0.000780	7.803836	2.644011	-0.000312
 757	7.5222e+01	9.8773	131.334081	0.000780	7.803836	2.644011	-0.000312
 758	7.5322e+01	9.8356	131.027259	0.000770	7.702487	2.609673	-0.000308
 759	7.5421e+01	9.8019	130.704288	0.000811	8.107881	2.747025	-0.000325
 760	7.5520e+01	9.7602	130.421689	0.000709	7.094396	2.403646	-0.000284
 761	7.5620e+01	9.7217	130.126978	0.000740	7.398442	2.506660	-0.000296
 762	7.5719e+01	9.6783	129.779784	0.000872	8.715972	2.953051	-0.000349
 763	7.5819e+01	9.6366	129.460850	0.000801	8.006533	2.712687	-0.000321
 764	7.5918e+01	9.6029	129.125768	0.000841	8.411927	2.850038	-0.000337
 765	7.6018e+01	9.5596	128.802797	0.000811	8.107881	2.747025	-0.000325
 766	7.6118e+01	9.5147	128.524235	0.000699	6.993048	2.369309	-0.000280
 767	7.6217e+01	9.4858	128.173004	0.000882	8.817321	2.987389	-0.000353
 768	7.6317e+01	9.4377	127.845996	0.000821	8.209230	2.781362	-0.000329
 769	7.6416e+01	9.3992	127.527062	0.000801	8.006533	2.712687	-0.000321
 770	7.6516e+01	9.3575	127.187943	0.000851	8.513275	2.884376	-0.000341
 771	7.6615e+01	9.3206	126.881121	0.000770	7.702487	2.609673	-0.000308
 772	7.6715e+01	9.2869	126.546038	0.000841	8.411927	2.850038	-0.000337
 773	7.6814e+01	9.2404	126.206919	0.000851	8.513275	2.884376	-0.000341
 774	7.6913e+01	9.2003	125.879911	0.000821	8.209230	2.781362	-0.000329
 775	7.7013e+01	9.1650	125.528680	0.000882	8.817321	2.987389	-0.000353
 776	7.7112e+01	9.1281	125.225895	0.000760	7.601139	2.575336	-0.000304
 777	7.7212e+01	9.0816	124.902924	0.000811	8.107881	2.747025	-0.000325
 778	7.7311e+01	9.0382	124.547656	0.000892	8.918669	3.021727	-0.000357
 779	7.7411e+01	8.9997	124.265057	0.000709	7.094396	2.403646	-0.000284
 780	7.7510e+01	8.9628	123.913826	0.000882	8.817321	2.987389	-0.000353
 781	7.7610e+01	8.9260	123.578744	0.000841	8.411927	2.850038	-0.000337
 782	7.7710e+01	8.8891	123.259810	0.000801	8.006533	2.712687	-0.000321
 783	7.7809e+01	8.8361	122.856096	0.001013	10.134852	3.433781	-0.000406
 784	7.7909e+01	8.8056	122.545237	0.000780	7.803836	2.644011	-0.000312
 785	7.8008e+01	8.7607	122.181895	0.000912	9.121367	3.090403	-0.000365
 786	7.8108e+01	8.7254	121.866998	0.000791	7.905184	2.678349	-0.000316
 787	7.8207e+01	8.6805	121.539990	0.000821	8.209230	2.781362	-0.000329
 788	7.8306e+01	8.6452	121.168573	0.000932	9.324064	3.159078	-0.000373
 789	7.8406e+01	8.6051	120.833491	0.000841	8.411927	2.850038	-0.000337
 790	7.8505e+01	8.5634	120.530706	0.000760	7.601139	2.575336	-0.000304
 791	7.8605e+01	8.5233	120.143141	0.000973	9.729458	3.296429	-0.000390
 792	7.8704e+01	8.4784	119.828244	0.000791	7.905184	2.678349	-0.000316
 793	7.8804e+01	8.4431	119.452791	0.000943	9.425412	3.193416	-0.000377
 794	7.8903e+01	8.4014	119.113671	0.000851	8.513275	2.884376	-0.000341
 795	7.9003e+01	8.3629	118.778589	0.000841	8.411927	2.850038	-0.000337
 796	7.9103e+01	8.3244	118.443507	0.000841	8.411927	2.850038	-0.000337
 797	7.9202e+01	8.2746	118.144759	0.000750	7.499790	2.540998	-0.000300
 798	7.9302e+01	8.2425	117.773342	0.000932	9.324064	3.159078	-0.000373
 799	7.9401e+01	8.2040	117.458446	0.000791	7.905184	2.678349	-0.000316
 800	7.9501e+01	8.1623	117.050695	0.001024	10.236200	3.468119	-0.000410
 801	7.9600e+01	8.1254	116.743873	0.000770	7.702487	2.609673	-0.000308
 802	7.9700e+01	8.0853	116.348233	0.000993	9.932155	3.365105	-0.000398
 803	7.9799e+01	8.0500	115.972780	0.000943	9.425412	3.193416	-0.000377
 804	7.9898e+01	7.9987	115.597326	0.000943	9.425412	3.193416	-0.000377
 805	7.9998e+01	7.9634	115.258207	0.000851	8.513275	2.884376	-0.000341
 806	8.0097e+01	7.9249	114.890827	0.000922	9.222715	3.124740	-0.000369
 807	8.0197e+01	7.8864	114.575931	0.000791	7.905184	2.678349	-0.000316
 808	8.0296e+01	7.8527	114.228737	0.000872	8.715972	2.953051	-0.000349
 809	8.0396e+01	7.8126	113.845209	0.000963	9.628109	3.262092	-0.000385
 810	8.0496e+01	7.7629	113.473793	0.000932	9.324064	3.159078	-0.000373
 811	8.0595e+01	7.7308	113.126599	0.000872	8.715972	2.953051	-0.000349
 812	8.0695e+01	7.6779	112.791517	0.000841	8.411927	2.850038	-0.000337
 813	8.0794e+01	7.6474	112.424137	0.000922	9.222715	3.124740	-0.000369
 814	8.0894e+01	7.6009	112.080981	0.000861	8.614624	2.918714	-0.000345
 815	8.0993e+01	7.5672	111.689379	0.000983	9.830806	3.330767	-0.000394
 816	8.1093e+01	7.5255	111.394668	0.000740	7.398442	2.506660	-0.000296
 817	8.1192e+01	7.4934	111.003066	0.000983	9.830806	3.330767	-0.000394
 818	8.1291e+01	7.4485	110.651835	0.000882	8.817321	2.987389	-0.000353
 819	8.1391e+01	7.3987	110.276381	0.000943	9.425412	3.193416	-0.000377
 820	8.1490e+01	7.3682	109.884779	0.000983	9.830806	3.330767	-0.000394
 821	8.1590e+01	7.3297	109.525474	0.000902	9.020018	3.056065	-0.000361
 822	8.1689e+01	7.2912	109.085426	0.001105	11.046988	3.742821	-0.000442
 823	8.1789e+01	7.2527	108.754381	0.000831	8.310578	2.815700	-0.000333
 824	8.1888e+01	7.2126	108.362779	0.000983	9.830806	3.330767	-0.000394
 825	8.1988e+01	7.1709	108.007511	0.000892	8.918669	3.021727	-0.000357
 826	8.2088e+01	7.1228	107.615909	0.000983	9.830806	3.330767	-0.000394
 827	8.2187e+01	7.0811	107.248529	0.000922	9.222715	3.124740	-0.000369
 828	8.2287e+01	7.0506	106.848853	0.001003	10.033503	3.399443	-0.000402
 829	8.2386e+01	7.0089	106.525882	0.000811	8.107881	2.747025	-0.000325
 830	8.2486e+01	6.9816	106.122169	0.001013	10.134852	3.433781	-0.000406
 831	8.2585e+01	6.9287	105.750752	0.000932	9.324064	3.159078	-0.000373
 832	8.2684e+01	6.8918	105.363187	0.000973	9.729458	3.296429	-0.000390
 833	8.2784e+01	6.8469	105.028105	0.000841	8.411927	2.850038	-0.000337
 834	8.2883e+01	6.8084	104.684948	0.000861	8.614624	2.918714	-0.000345
 835	8.2983e+01	6.7731	104.297383	0.000973	9.729458	3.296429	-0.000390
 836	8.3082e+01	6.7330	103.962301	0.000841	8.411927	2.850038	-0.000337
 837	8.3182e+01	6.6945	103.546476	0.001044	10.438897	3.536794	-0.000418
 838	8.3281e+01	6.6495	103.166985	0.000953	9.526761	3.227754	-0.000381
 839	8.3381e+01	6.6126	102.767309	0.001003	10.033503	3.399443	-0.000402
 840	8.3481e+01	6.5693	102.351484	0.001044	10.438897	3.536794	-0.000418
 841	8.3580e+01	6.5228	101.988142	0.000912	9.121367	3.090403	-0.000365
 842	8.3680e+01	6.4923	101.572317	0.001044	10.438897	3.536794	-0.000418
 843	8.3779e+01	6.4490	101.200900	0.000932	9.324064	3.159078	-0.000373
 844	8.3879e+01	6.4153	100.841595	0.000902	9.020018	3.056065	-0.000361
 845	8.3978e+01	6.3624	100.441919	0.001003	10.033503	3.399443	-0.000402
 846	8.4078e+01	6.3399	100.062428	0.000953	9.526761	3.227754	-0.000381
 847	8.4177e+01	6.2934	99.670826	0.000983	9.830806	3.330767	-0.000394
 848	8.4276e+01	6.2613	99.295372	0.000943	9.425412	3.193416	-0.000377
 849	8.4376e+01	6.2180	98.911844	0.000963	9.628109	3.262092	-0.000385
 850	8.4475e+01	6.1747	98.500056	0.001034	10.337549	3.502456	-0.000414
 851	8.4575e+01	6.1410	98.140751	0.000902	9.020018	3.056065	-0.000361
 852	8.4674e+01	6.0913	97.737038	0.001013	10.134852	3.433781	-0.000406
 853	8.4774e+01	6.0512	97.410030	0.000821	8.209230	2.781362	-0.000329
 854	8.4874e+01	6.0223	97.022465	0.000973	9.729458	3.296429	-0.000390
 855	8.4973e+01	5.9726	96.622788	0.001003	10.033503	3.399443	-0.000402
 856	8.5073e+01	5.9308	96.219075	0.001013	10.134852	3.433781	-0.000406
 857	8.5172e+01	5.8907	95.847658	0.000932	9.324064	3.159078	-0.000373
 858	8.5272e+01	5.8538	95.431833	0.001044	10.438897	3.536794	-0.000418
 859	8.5371e+01	5.8234	95.032157	0.001003	10.033503	3.399443	-0.000402
 860	8.5471e+01	5.7704	94.632480	0.001003	10.033503	3.399443	-0.000402
 861	8.5570e+01	5.7383	94.232804	0.001003	10.033503	3.399443	-0.000402
 862	8.5669e+01	5.6886	93.825053	0.001024	10.236200	3.468119	-0.000410
 863	8.5769e+01	5.6613	93.425377	0.001003	10.033503	3.399443	-0.000402
 864	8.5868e+01	5.6052	93.021663	0.001013	10.134852	3.433781	-0.000406
 865	8.5968e+01	5.5779	92.658321	0.000912	9.121367	3.090403	-0.000365
 866	8.6067e+01	5.5426	92.230385	0.001074	10.742943	3.639808	-0.000430
 867	8.6167e+01	5.4993	91.818597	0.001034	10.337549	3.502456	-0.000414
 868	8.6266e+01	5.4480	91.455254	0.000912	9.121367	3.090403	-0.000365
 869	8.6366e+01	5.4159	91.039429	0.001044	10.438897	3.536794	-0.000418
 870	8.6466e+01	5.3678	90.696273	0.000861	8.614624	2.918714	-0.000345
 871	8.6565e+01	5.3405	90.288522	0.001024	10.236200	3.468119	-0.000410
 872	8.6665e+01	5.2940	89.896920	0.000983	9.830806	3.330767	-0.000394
 873	8.6764e+01	5.2619	89.460909	0.001095	10.945640	3.708483	-0.000438
 874	8.6864e+01	5.2170	89.077381	0.000963	9.628109	3.262092	-0.000385
 875	8.6963e+01	5.1865	88.657519	0.001054	10.540246	3.571132	-0.000422
 876	8.7063e+01	5.1239	88.282066	0.000943	9.425412	3.193416	-0.000377
 877	8.7162e+01	5.1015	87.837981	0.001115	11.148337	3.777159	-0.000446
 878	8.7261e+01	5.0565	87.474639	0.000912	9.121367	3.090403	-0.000365
 879	8.7361e+01	5.0164	86.994219	0.001206	12.060474	4.086199	-0.000483
 880	8.7460e+01	4.9763	86.578394	0.001044	10.438897	3.536794	-0.000418
 881	8.7560e+01	4.9394	86.170644	0.001024	10.236200	3.468119	-0.000410
 882	8.7659e+01	4.9009	85.787116	0.000963	9.628109	3.262092	-0.000385
 883	8.7759e+01	4.8640	85.359179	0.001074	10.742943	3.639808	-0.000430
 884	8.7859e+01	4.8319	84.939317	0.001054	10.540246	3.571132	-0.000422
 885	8.7958e+01	4.7854	84.507344	0.001084	10.844291	3.674145	-0.000434
 886	8.8058e+01	4.7325	84.152076	0.000892	8.918669	3.021727	-0.000357
 887	8.8157e+01	4.6972	83.683768	0.001176	11.756428	3.983186	-0.000471
 888	8.8257e+01	4.6603	83.368872	0.000791	7.905184	2.678349	-0.000316
 889	8.8356e+01	4.6154	82.908638	0.001155	11.553731	3.914510	-0.000463
 890	8.8456e+01	4.5897	82.525110	0.000963	9.628109	3.262092	-0.000385
 891	8.8555e+01	4.5384	82.141582	0.000963	9.628109	3.262092	-0.000385
 892	8.8654e+01	4.5079	81.749980	0.000983	9.830806	3.330767	-0.000394
 893	8.8754e+01	4.4582	81.326081	0.001064	10.641594	3.605470	-0.000426
 894	8.8853e+01	4.4181	80.886033	0.001105	11.046988	3.742821	-0.000442
 895	8.8953e+01	4.3763	80.506542	0.000953	9.526761	3.227754	-0.000381
 896	8.9052e+01	4.3394	80.106866	0.001003	10.033503	3.399443	-0.000402
 897	8.9152e+01	4.3026	79.687004	0.001054	10.540246	3.571132	-0.000422
 898	8.9251e+01	4.2673	79.214659	0.001186	11.857776	4.017523	-0.000475
 899	8.9351e+01	4.2127	78.754425	0.001155	11.553731	3.914510	-0.000463
 900	8.9451e+01	4.1838	78.378972	0.000943	9.425412	3.193416	-0.000377
 901	8.9550e+01	4.1389	77.955073	0.001064	10.641594	3.605470	-0.000426
 902	8.9650e+01	4.0956	77.502913	0.001135	11.351034	3.845834	-0.000454
 903	8.9749e+01	4.0539	77.111311	0.000983	9.830806	3.330767	-0.000394
 904	8.9849e+01	4.0250	76.723746	0.000973	9.729458	3.296429	-0.000390
 905	8.9948e+01	3.9849	76.315995	0.001024	10.236200	3.468119	-0.000410
 906	9.0047e+01	3.9352	75.928430	0.000973	9.729458	3.296429	-0.000390
 907	9.0147e+01	3.9047	75.536828	0.000983	9.830806	3.330767	-0.000394
 908	9.0246e+01	3.8566	75.088706	0.001125	11.249685	3.811497	-0.000450
 909	9.0346e+01	3.8149	74.705178	0.000963	9.628109	3.262092	-0.000385
 910	9.0445e+01	3.7892	74.224759	0.001206	12.060474	4.086199	-0.000483
 911	9.0545e+01	3.7379	73.857380	0.000922	9.222715	3.124740	-0.000369
 912	9.0644e+01	3.7074	73.417332	0.001105	11.046988	3.742821	-0.000442
 913	9.0744e+01	3.6544	73.045915	0.000932	9.324064	3.159078	-0.000373
 914	9.0844e+01	3.6175	72.589719	0.001145	11.452382	3.880172	-0.000458
 915	9.0943e+01	3.5855	72.133523	0.001145	11.452382	3.880172	-0.000458
 916	9.1043e+01	3.5405	71.709624	0.001064	10.641594	3.605470	-0.000426
 917	9.1142e+01	3.4972	71.285724	0.001064	10.641594	3.605470	-0.000426
 918	9.1242e+01	3.4603	70.853751	0.001084	10.844291	3.674145	-0.000434
 919	9.1341e+01	3.4379	70.450037	0.001013	10.134852	3.433781	-0.000406
 920	9.1441e+01	3.3753	70.022101	0.001074	10.742943	3.639808	-0.000430
 921	9.1540e+01	3.3320	69.598202	0.001064	10.641594	3.605470	-0.000426
 922	9.1639e+01	3.2935	69.178339	0.001054	10.540246	3.571132	-0.000422
 923	9.1739e+01	3.2582	68.762514	0.001044	10.438897	3.536794	-0.000418
 924	9.1838e+01	3.2261	68.387061	0.000943	9.425412	3.193416	-0.000377
 925	9.1938e+01	3.1812	67.959124	0.001074	10.742943	3.639808	-0.000430
 926	9.2037e+01	3.1491	67.563485	0.000993	9.932155	3.365105	-0.000398
 927	9.2137e+01	3.1042	67.119400	0.001115	11.148337	3.777159	-0.000446
 928	9.2237e+01	3.0673	66.735872	0.000963	9.628109	3.262092	-0.000385
 929	9.2336e+01	3.0224	66.259490	0.001196	11.959125	4.051861	-0.000479
 930	9.2436e+01	2.9775	65.851740	0.001024	10.236200	3.468119	-0.000410
 931	9.2535e+01	2.9470	65.456100	0.000993	9.932155	3.365105	-0.000398
 932	9.2635e+01	2.9181	65.028164	0.001074	10.742943	3.639808	-0.000430
 933	9.2734e+01	2.8684	64.571968	0.001145	11.452382	3.880172	-0.000458
 934	9.2834e+01	2.8202	64.139994	0.001084	10.844291	3.674145	-0.000434
 935	9.2933e+01	2.7866	63.695909	0.001115	11.148337	3.777159	-0.000446
 936	9.3032e+01	2.7513	63.263936	0.001084	10.844291	3.674145	-0.000434
 937	9.3132e+01	2.7176	62.803702	0.001155	11.553731	3.914510	-0.000463
 938	9.3231e+01	2.6710	62.359617	0.001115	11.148337	3.777159	-0.000446
 939	9.3331e+01	2.6229	61.984164	0.000943	9.425412	3.193416	-0.000377
 940	9.3430e+01	2.5844	61.564301	0.001054	10.540246	3.571132	-0.000422
 941	9.3530e+01	2.5459	61.156551	0.001024	10.236200	3.468119	-0.000410
 942	9.3629e+01	2.5058	60.777060	0.000953	9.526761	3.227754	-0.000381
 943	9.3729e+01	2.4689	60.296641	0.001206	12.060474	4.086199	-0.000483
 944	9.3829e+01	2.4256	59.892927	0.001013	10.134852	3.433781	-0.000406
 945	9.3928e+01	2.3903	59.444805	0.001125	11.249685	3.811497	-0.000450
 946	9.4028e+01	2.3518	59.033017	0.001034	10.337549	3.502456	-0.000414
 947	9.4127e+01	2.3069	58.605081	0.001074	10.742943	3.639808	-0.000430
 948	9.4227e+01	2.2716	58.193293	0.001034	10.337549	3.502456	-0.000414
 949	9.4326e+01	2.2427	57.769394	0.001064	10.641594	3.605470	-0.000426
 950	9.4425e+01	2.1866	57.345495	0.001064	10.641594	3.605470	-0.000426
 951	9.4525e+01	2.1449	56.905447	0.001105	11.046988	3.742821	-0.000442
 952	9.4624e+01	2.1112	56.433102	0.001186	11.857776	4.017523	-0.000475
 953	9.4724e+01	2.0727	56.013240	0.001054	10.540246	3.571132	-0.000422
 954	9.4823e+01	2.0358	55.565118	0.001125	11.249685	3.811497	-0.000450
 955	9.4923e+01	1.9925	55.121033	0.001115	11.148337	3.777159	-0.000446
 956	9.5022e+01	1.9475	54.697134	0.001064	10.641594	3.605470	-0.000426
 957	9.5122e+01	1.9042	54.257086	0.001105	11.046988	3.742821	-0.000442
 958	9.5222e+01	1.8657	53.821075	0.001095	10.945640	3.708483	-0.000438
 959	9.5321e+01	1.8272	53.473881	0.000872	8.715972	2.953051	-0.000349
 960	9.5421e+01	1.7807	53.041908	0.001084	10.844291	3.674145	-0.000434
 961	9.5520e+01	1.7518	52.605897	0.001095	10.945640	3.708483	-0.000438
 962	9.5620e+01	1.7197	52.202184	0.001013	10.134852	3.433781	-0.000406
 963	9.5719e+01	1.6780	51.717727	0.001216	12.161822	4.120537	-0.000487
 964	9.5819e+01	1.6315	51.305940	0.001034	10.337549	3.502456	-0.000414
 965	9.5918e+01	1.5834	50.894152	0.001034	10.337549	3.502456	-0.000414
 966	9.6017e+01	1.5449	50.462178	0.001084	10.844291	3.674145	-0.000434
 967	9.6117e+01	1.5112	50.030205	0.001084	10.844291	3.674145	-0.000434
 968	9.6216e+01	1.4615	49.630528	0.001003	10.033503	3.399443	-0.000402
 969	9.6316e+01	1.4294	49.194518	0.001095	10.945640	3.708483	-0.000438
 970	9.6415e+01	1.3925	48.738321	0.001145	11.452382	3.880172	-0.000458
 971	9.6515e+01	1.3492	48.306348	0.001084	10.844291	3.674145	-0.000434
 972	9.6615e+01	1.3091	47.809780	0.001247	12.465868	4.223550	-0.000499
 973	9.6714e+01	1.2770	47.393955	0.001044	10.438897	3.536794	-0.000418
 974	9.6814e+01	1.2224	46.961981	0.001084	10.844291	3.674145	-0.000434
 975	9.6913e+01	1.1935	46.542119	0.001054	10.540246	3.571132	-0.000422
 976	9.7013e+01	1.1583	46.130332	0.001034	10.337549	3.502456	-0.000414
 977	9.7112e+01	1.1101	45.698358	0.001084	10.844291	3.674145	-0.000434
 978	9.7212e+01	1.0700	45.282533	0.001044	10.438897	3.536794	-0.000418
 979	9.7311e+01	1.0331	44.830374	0.001135	11.351034	3.845834	-0.000454
 980	9.7410e+01	0.9930	44.438772	0.000983	9.830806	3.330767	-0.000394
 981	9.7510e+01	0.9497	43.970464	0.001176	11.756428	3.983186	-0.000471
 982	9.7609e+01	0.9144	43.566750	0.001013	10.134852	3.433781	-0.000406
 983	9.7709e+01	0.8711	43.130740	0.001095	10.945640	3.708483	-0.000438
 984	9.7808e+01	0.8390	42.694729	0.001095	10.945640	3.708483	-0.000438
 985	9.7908e+01	0.7909	42.242570	0.001135	11.351034	3.845834	-0.000454
 986	9.8007e+01	0.7428	41.810596	0.001084	10.844291	3.674145	-0.000434
 987	9.8107e+01	0.7091	41.390734	0.001054	10.540246	3.571132	-0.000422
 988	9.8207e+01	0.6834	40.946649	0.001115	11.148337	3.777159	-0.000446
 989	9.8306e+01	0.6369	40.522750	0.001064	10.641594	3.605470	-0.000426
 990	9.8406e+01	0.5936	40.022145	0.001257	12.567216	4.257888	-0.000503
 991	9.8505e+01	0.5599	39.606320	0.001044	10.438897	3.536794	-0.000418
 992	9.8605e+01	0.5150	39.182421	0.001064	10.641594	3.605470	-0.000426
 993	9.8704e+01	0.4749	38.710076	0.001186	11.857776	4.017523	-0.000475
 994	9.8803e+01	0.4364	38.338660	0.000932	9.324064	3.159078	-0.000373
 995	9.8903e+01	0.3898	37.866315	0.001186	11.857776	4.017523	-0.000475
 996	9.9002e+01	0.3593	37.470675	0.000993	9.932155	3.365105	-0.000398
 997	9.9102e+01	0.3192	37.046776	0.001064	10.641594	3.605470	-0.000426
 998	9.9201e+01	0.2679	36.626914	0.001054	10.540246	3.571132	-0.000422
 999	9.9301e+01	0.2214	36.198978	0.001074	10.742943	3.639808	-0.000430
1000	9.9400e+01	0.1989	35.726633	0.001186	11.857776	4.017523	-0.000475
1001	9.9500e+01	0.1556	35.318882	0.001024	10.236200	3.468119	-0.000410
1002	9.9600e+01	0.1123	34.838463	0.001206	12.060474	4.086199	-0.000483
1003	9.9699e+01	0.0770	34.442824	0.000993	9.932155	3.365105	-0.000398
1004	9.9799e+01	0.0385	34.002776	0.001105	11.046988	3.742821	-0.000442
1005	9.9898e+01	0.0016	33.651545	0.000882	8.817321	2.987389	-0.000353
1006	9.9998e+01	-0.0385	33.215534	0.001095	10.945640	3.708483	-0.000438
1007	1.0010e+02	-0.0642	32.775486	0.001105	11.046988	3.742821	-0.000442
1008	1.0020e+02	-0.1107	32.315253	0.001155	11.553731	3.914510	-0.000463
1009	1.0030e+02	-0.1652	31.850982	0.001166	11.655079	3.948848	-0.000467
1010	1.0040e+02	-0.1925	31.406897	0.001115	11.148337	3.777159	-0.000446
1011	1.0050e+02	-0.2390	30.954738	0.001135	11.351034	3.845834	-0.000454
1012	1.0059e+02	-0.2727	30.551025	0.001013	10.134852	3.433781	-0.000406
1013	1.0069e+02	-0.3192	30.098865	0.001135	11.351034	3.845834	-0.000454
1014	1.0079e+02	-0.3561	29.711300	0.000973	9.729458	3.296429	-0.000390
1015	1.0089e+02	-0.3930	29.299513	0.001034	10.337549	3.502456	-0.000414
1016	1.0099e+02	-0.4444	28.839279	0.001155	11.553731	3.914510	-0.000463
1017	1.0109e+02	-0.4861	28.431528	0.001024	10.236200	3.468119	-0.000410
1018	1.0119e+02	-0.5150	27.951109	0.001206	12.060474	4.086199	-0.000483
1019	1.0129e+02	-0.5567	27.511061	0.001105	11.046988	3.742821	-0.000442
1020	1.0139e+02	-0.6048	27.111385	0.001003	10.033503	3.399443	-0.000402
1021	1.0149e+02	-0.6417	26.679412	0.001084	10.844291	3.674145	-0.000434
1022	1.0159e+02	-0.6722	26.223215	0.001145	11.452382	3.880172	-0.000458
1023	1.0169e+02	-0.7155	25.815464	0.001024	10.236200	3.468119	-0.000410
1024	1.0179e+02	-0.7508	25.355231	0.001155	11.553731	3.914510	-0.000463
1025	1.0189e+02	-0.7973	24.963629	0.000983	9.830806	3.330767	-0.000394
1026	1.0199e+02	-0.8374	24.543767	0.001054	10.540246	3.571132	-0.000422
1027	1.0209e+02	-0.8727	24.067385	0.001196	11.959125	4.051861	-0.000479
1028	1.0219e+02	-0.9048	23.595040	0.001186	11.857776	4.017523	-0.000475
1029	1.0229e+02	-0.9529	23.142881	0.001135	11.351034	3.845834	-0.000454
1030	1.0239e+02	-0.9946	22.694759	0.001125	11.249685	3.811497	-0.000450
1031	1.0248e+02	-1.0363	22.250674	0.001115	11.148337	3.777159	-0.000446
1032	1.0258e+02	-1.0764	21.883294	0.000922	9.222715	3.124740	-0.000369
1033	1.0268e+02	-1.1101	21.419024	0.001166	11.655079	3.948848	-0.000467
1034	1.0278e+02	-1.1534	21.003199	0.001044	10.438897	3.536794	-0.000418
1035	1.0288e+02	-1.1887	20.514705	0.001226	12.263171	4.154875	-0.000491
1036	1.0298e+02	-1.2208	20.127140	0.000973	9.729458	3.296429	-0.000390
1037	1.0308e+02	-1.2673	19.691130	0.001095	10.945640	3.708483	-0.000438
1038	1.0318e+02	-1.2994	19.251082	0.001105	11.046988	3.742821	-0.000442
1039	1.0328e+02	-1.3476	18.823145	0.001074	10.742943	3.639808	-0.000430
1040	1.0338e+02	-1.3957	18.379060	0.001115	11.148337	3.777159	-0.000446
1041	1.0348e+02	-1.4294	17.930938	0.001125	11.249685	3.811497	-0.000450
1042	1.0358e+02	-1.4759	17.507039	0.001064	10.641594	3.605470	-0.000426
1043	1.0368e+02	-1.5176	17.071028	0.001095	10.945640	3.708483	-0.000438
1044	1.0378e+02	-1.5545	16.655203	0.001044	10.438897	3.536794	-0.000418
1045	1.0388e+02	-1.5898	16.215156	0.001105	11.046988	3.742821	-0.000442
1046	1.0398e+02	-1.6299	15.754922	0.001155	11.553731	3.914510	-0.000463
1047	1.0408e+02	-1.6684	15.262392	0.001236	12.364519	4.189212	-0.000495
1048	1.0418e+02	-1.7181	14.850604	0.001034	10.337549	3.502456	-0.000414
1049	1.0428e+02	-1.7502	14.426705	0.001064	10.641594	3.605470	-0.000426
1050	1.0438e+02	-1.7871	13.962434	0.001166	11.655079	3.948848	-0.000467
1051	1.0447e+02	-1.8336	13.542572	0.001054	10.540246	3.571132	-0.000422
1052	1.0457e+02	-1.8657	13.138858	0.001013	10.134852	3.433781	-0.000406
1053	1.0467e+02	-1.9090	12.702848	0.001095	10.945640	3.708483	-0.000438
1054	1.0477e+02	-1.9491	12.250688	0.001135	11.351034	3.845834	-0.000454
1055	1.0487e+02	-1.9844	11.830826	0.001054	10.540246	3.571132	-0.000422
1056	1.0497e+02	-2.0326	11.346370	0.001216	12.161822	4.120537	-0.000487
1057	1.0507e+02	-2.0743	10.938619	0.001024	10.236200	3.468119	-0.000410
1058	1.0517e+02	-2.1080	10.502609	0.001095	10.945640	3.708483	-0.000438
1059	1.0527e+02	-2.1465	10.058524	0.001115	11.148337	3.777159	-0.000446
1060	1.0537e+02	-2.1785	9.594253	0.001166	11.655079	3.948848	-0.000467
1061	1.0547e+02	-2.2267	9.162280	0.001084	10.844291	3.674145	-0.000434
1062	1.0557e+02	-2.2764	8.742417	0.001054	10.540246	3.571132	-0.000422
1063	1.0567e+02	-2.3069	8.282184	0.001155	11.553731	3.914510	-0.000463
1064	1.0577e+02	-2.3534	7.894619	0.000973	9.729458	3.296429	-0.000390
1065	1.0587e+02	-2.3839	7.426311	0.001176	11.756428	3.983186	-0.000471
1066	1.0597e+02	-2.4320	7.026635	0.001003	10.033503	3.399443	-0.000402
1067	1.0607e+02	-2.4657	6.574476	0.001135	11.351034	3.845834	-0.000454
1068	1.0617e+02	-2.5074	6.150576	0.001064	10.641594	3.605470	-0.000426
1069	1.0627e+02	-2.5443	5.702454	0.001125	11.249685	3.811497	-0.000450
1070	1.0637e+02	-2.5828	5.270481	0.001084	10.844291	3.674145	-0.000434
1071	1.0647e+02	-2.6245	4.866767	0.001013	10.134852	3.433781	-0.000406
1072	1.0656e+02	-2.6678	4.382311	0.001216	12.161822	4.120537	-0.000487
1073	1.0666e+02	-2.7015	3.950337	0.001084	10.844291	3.674145	-0.000434
1074	1.0676e+02	-2.7352	3.486067	0.001166	11.655079	3.948848	-0.000467
1075	1.0686e+02	-2.7930	3.114650	0.000932	9.324064	3.159078	-0.000373
1076	1.0696e+02	-2.8154	2.698825	0.001044	10.438897	3.536794	-0.000418
1077	1.0706e+02	-2.8732	2.234555	0.001166	11.655079	3.948848	-0.000467
1078	1.0716e+02	-2.9069	1.766247	0.001176	11.756428	3.983186	-0.000471
1079	1.0726e+02	-2.9454	1.382719	0.000963	9.628109	3.262092	-0.000385
1080	1.0736e+02	-2.9887	0.942671	0.001105	11.046988	3.742821	-0.000442
1081	1.0746e+02	-3.0272	0.498586	0.001115	11.148337	3.777159	-0.000446
1082	1.0756e+02	-3.0593	0.066613	0.001084	10.844291	3.674145	-0.000434
1083	1.0766e+02	-3.1026	-0.337101	0.001013	10.134852	3.433781	-0.000406
1084	1.0776e+02	-3.1443	-0.809446	0.001186	11.857776	4.017523	-0.000475
1085	1.0786e+02	-3.1812	-1.197011	0.000973	9.729458	3.296429	-0.000390
1086	1.0796e+02	-3.2245	-1.637059	0.001105	11.046988	3.742821	-0.000442
1087	1.0806e+02	-3.2678	-2.069032	0.001084	10.844291	3.674145	-0.000434
1088	1.0816e+02	-3.3031	-2.513117	0.001115	11.148337	3.777159	-0.000446
1089	1.0826e+02	-3.3368	-2.937016	0.001064	10.641594	3.605470	-0.000426
1090	1.0836e+02	-3.3753	-3.352841	0.001044	10.438897	3.536794	-0.000418
1091	1.0845e+02	-3.4250	-3.853446	0.001257	12.567216	4.257888	-0.000503
1092	1.0855e+02	-3.4587	-4.236974	0.000963	9.628109	3.262092	-0.000385
1093	1.0865e+02	-3.4940	-4.672985	0.001095	10.945640	3.708483	-0.000438
1094	1.0875e+02	-3.5389	-5.104958	0.001084	10.844291	3.674145	-0.000434
1095	1.0885e+02	-3.5903	-5.512709	0.001024	10.236200	3.468119	-0.000410
1096	1.0895e+02	-3.6191	-5.960831	0.001125	11.249685	3.811497	-0.000450
1097	1.0905e+02	-3.6641	-6.400879	0.001105	11.046988	3.742821	-0.000442
1098	1.0915e+02	-3.6962	-6.752110	0.000882	8.817321	2.987389	-0.000353
1099	1.0925e+02	-3.7427	-7.256751	0.001267	12.668565	4.292226	-0.000507
1100	1.0935e+02	-3.7780	-7.660465	0.001013	10.134852	3.433781	-0.000406
1101	1.0945e+02	-3.8213	-8.104550	0.001115	11.148337	3.777159	-0.000446
1102	1.0955e+02	-3.8614	-8.475966	0.000932	9.324064	3.159078	-0.000373
1103	1.0965e+02	-3.9031	-8.936200	0.001155	11.553731	3.914510	-0.000463
1104	1.0975e+02	-3.9336	-9.347988	0.001034	10.337549	3.502456	-0.000414
1105	1.0985e+02	-3.9833	-9.820333	0.001186	11.857776	4.017523	-0.000475
1106	1.0995e+02	-4.0218	-10.236158	0.001044	10.438897	3.536794	-0.000418
1107	1.1005e+02	-4.0587	-10.656020	0.001054	10.540246	3.571132	-0.000422
1108	1.1015e+02	-4.0908	-11.100105	0.001115	11.148337	3.777159	-0.000446
1109	1.1025e+02	-4.1469	-11.556301	0.001145	11.452382	3.880172	-0.000458
1110	1.1035e+02	-4.1854	-11.976163	0.001054	10.540246	3.571132	-0.000422
1111	1.1044e+02	-4.2127	-12.375840	0.001003	10.033503	3.399443	-0.000402
1112	1.1054e+02	-4.2641	-12.819925	0.001115	11.148337	3.777159	-0.000446
1113	1.1064e+02	-4.3106	-13.251898	0.001084	10.844291	3.674145	-0.000434
1114	1.1074e+02	-4.3362	-13.663686	0.001034	10.337549	3.502456	-0.000414
1115	1.1084e+02	-4.3763	-14.055288	0.000983	9.830806	3.330767	-0.000394
1116	1.1094e+02	-4.4181	-14.519559	0.001166	11.655079	3.948848	-0.000467
1117	1.1104e+02	-4.4614	-14.899049	0.000953	9.526761	3.227754	-0.000381
1118	1.1114e+02	-4.4919	-15.371394	0.001186	11.857776	4.017523	-0.000475
1119	1.1124e+02	-4.5384	-15.746848	0.000943	9.425412	3.193416	-0.000377
1120	1.1134e+02	-4.5721	-16.146524	0.001003	10.033503	3.399443	-0.000402
1121	1.1144e+02	-4.6202	-16.582535	0.001095	10.945640	3.708483	-0.000438
1122	1.1154e+02	-4.6603	-16.994323	0.001034	10.337549	3.502456	-0.000414
1123	1.1164e+02	-4.6892	-17.466668	0.001186	11.857776	4.017523	-0.000475
1124	1.1174e+02	-4.7325	-17.850196	0.000963	9.628109	3.262092	-0.000385
1125	1.1184e+02	-4.7630	-18.314466	0.001166	11.655079	3.948848	-0.000467
1126	1.1194e+02	-4.8175	-18.693957	0.000953	9.526761	3.227754	-0.000381
1127	1.1204e+02	-4.8576	-19.121893	0.001074	10.742943	3.639808	-0.000430
1128	1.1214e+02	-4.9106	-19.574053	0.001135	11.351034	3.845834	-0.000454
1129	1.1224e+02	-4.9426	-19.961618	0.000973	9.729458	3.296429	-0.000390
1130	1.1234e+02	-4.9715	-20.446074	0.001216	12.161822	4.120537	-0.000487
1131	1.1244e+02	-5.0245	-20.829602	0.000963	9.628109	3.262092	-0.000385
1132	1.1253e+02	-5.0533	-21.257538	0.001074	10.742943	3.639808	-0.000430
1133	1.1263e+02	-5.0966	-21.665289	0.001024	10.236200	3.468119	-0.000410
1134	1.1273e+02	-5.1368	-22.064965	0.001003	10.033503	3.399443	-0.000402
1135	1.1283e+02	-5.1785	-22.476753	0.001034	10.337549	3.502456	-0.000414
1136	1.1293e+02	-5.2266	-22.876430	0.001003	10.033503	3.399443	-0.000402
1137	1.1303e+02	-5.2571	-23.312440	0.001095	10.945640	3.708483	-0.000438
1138	1.1313e+02	-5.3020	-23.704042	0.000983	9.830806	3.330767	-0.000394
1139	1.1323e+02	-5.3373	-24.127942	0.001064	10.641594	3.605470	-0.000426
1140	1.1333e+02	-5.3662	-24.503395	0.000943	9.425412	3.193416	-0.000377
1141	1.1343e+02	-5.4079	-24.979777	0.001196	11.959125	4.051861	-0.000479
1142	1.1353e+02	-5.4528	-25.391565	0.001034	10.337549	3.502456	-0.000414
1143	1.1363e+02	-5.4945	-25.823539	0.001084	10.844291	3.674145	-0.000434
1144	1.1373e+02	-5.5394	-26.231289	0.001024	10.236200	3.468119	-0.000410
1145	1.1383e+02	-5.5715	-26.659226	0.001074	10.742943	3.639808	-0.000430
1146	1.1393e+02	-5.6180	-27.083125	0.001064	10.641594	3.605470	-0.000426
1147	1.1403e+02	-5.6485	-27.482802	0.001003	10.033503	3.399443	-0.000402
1148	1.1413e+02	-5.6966	-27.922849	0.001105	11.046988	3.742821	-0.000442
1149	1.1423e+02	-5.7351	-28.322526	0.001003	10.033503	3.399443	-0.000402
1150	1.1433e+02	-5.7720	-28.738351	0.001044	10.438897	3.536794	-0.000418
1151	1.1442e+02	-5.8169	-29.142064	0.001013	10.134852	3.433781	-0.000406
1152	1.1452e+02	-5.8571	-29.549815	0.001024	10.236200	3.468119	-0.000410
1153	1.1462e+02	-5.8956	-29.941417	0.000983	9.830806	3.330767	-0.000394
1154	1.1472e+02	-5.9373	-30.397614	0.001145	11.452382	3.880172	-0.000458
1155	1.1482e+02	-5.9758	-30.764993	0.000922	9.222715	3.124740	-0.000369
1156	1.1492e+02	-6.0111	-31.144484	0.000953	9.526761	3.227754	-0.000381
1157	1.1502e+02	-6.0528	-31.584531	0.001105	11.046988	3.742821	-0.000442
1158	1.1512e+02	-6.0961	-32.008431	0.001064	10.641594	3.605470	-0.000426
1159	1.1522e+02	-6.1266	-32.359662	0.000882	8.817321	2.987389	-0.000353
1160	1.1532e+02	-6.1651	-32.791635	0.001084	10.844291	3.674145	-0.000434
1161	1.1542e+02	-6.2068	-33.219571	0.001074	10.742943	3.639808	-0.000430
1162	1.1552e+02	-6.2501	-33.695953	0.001196	11.959125	4.051861	-0.000479
1163	1.1562e+02	-6.2854	-34.071407	0.000943	9.425412	3.193416	-0.000377
1164	1.1572e+02	-6.3271	-34.442824	0.000932	9.324064	3.159078	-0.000373
1165	1.1582e+02	-6.3784	-34.870760	0.001074	10.742943	3.639808	-0.000430
1166	1.1592e+02	-6.4105	-35.286585	0.001044	10.438897	3.536794	-0.000418
1167	1.1602e+02	-6.4458	-35.662039	0.000943	9.425412	3.193416	-0.000377
1168	1.1612e+02	-6.4923	-36.069789	0.001024	10.236200	3.468119	-0.000410
1169	1.1622e+02	-6.5228	-36.481577	0.001034	10.337549	3.502456	-0.000414
1170	1.1632e+02	-6.5693	-36.921625	0.001105	11.046988	3.742821	-0.000442
1171	1.1642e+02	-6.6126	-37.345524	0.001064	10.641594	3.605470	-0.000426
1172	1.1651e+02	-6.6447	-37.741163	0.000993	9.932155	3.365105	-0.000398
1173	1.1661e+02	-6.6880	-38.108543	0.000922	9.222715	3.124740	-0.000369
1174	1.1671e+02	-6.7346	-38.496108	0.000973	9.729458	3.296429	-0.000390
1175	1.1681e+02	-6.7634	-38.920007	0.001064	10.641594	3.605470	-0.000426
1176	1.1691e+02	-6.8116	-39.295461	0.000943	9.425412	3.193416	-0.000377
1177	1.1701e+02	-6.8437	-39.678989	0.000963	9.628109	3.262092	-0.000385
1178	1.1711e+02	-6.8854	-40.114999	0.001095	10.945640	3.708483	-0.000438
1179	1.1721e+02	-6.9239	-40.502564	0.000973	9.729458	3.296429	-0.000390
1180	1.1731e+02	-6.9640	-40.926464	0.001064	10.641594	3.605470	-0.000426
1181	1.1741e+02	-7.0153	-41.318066	0.000983	9.830806	3.330767	-0.000394
1182	1.1751e+02	-7.0410	-41.778299	0.001155	11.553731	3.914510	-0.000463
1183	1.1761e+02	-7.0811	-42.169901	0.000983	9.830806	3.330767	-0.000394
1184	1.1771e+02	-7.1244	-42.549392	0.000953	9.526761	3.227754	-0.000381
1185	1.1781e+02	-7.1597	-42.993477	0.001115	11.148337	3.777159	-0.000446
1186	1.1791e+02	-7.2046	-43.389116	0.000993	9.932155	3.365105	-0.000398
1187	1.1801e+02	-7.2431	-43.788793	0.001003	10.033503	3.399443	-0.000402
1188	1.1811e+02	-7.2800	-44.164246	0.000943	9.425412	3.193416	-0.000377
1189	1.1821e+02	-7.3217	-44.563923	0.001003	10.033503	3.399443	-0.000402
1190	1.1831e+02	-7.3714	-44.955525	0.000983	9.830806	3.330767	-0.000394
1191	1.1841e+02	-7.4067	-45.375387	0.001054	10.540246	3.571132	-0.000422
1192	1.1850e+02	-7.4404	-45.742766	0.000922	9.222715	3.124740	-0.000369
1193	1.1860e+02	-7.4902	-46.114183	0.000932	9.324064	3.159078	-0.000373
1194	1.1870e+02	-7.5239	-46.542119	0.001074	10.742943	3.639808	-0.000430
1195	1.1880e+02	-7.5704	-46.957944	0.001044	10.438897	3.536794	-0.000418
1196	1.1890e+02	-7.5976	-47.288989	0.000831	8.310578	2.815700	-0.000333
1197	1.1900e+02	-7.6345	-47.704814	0.001044	10.438897	3.536794	-0.000418
1198	1.1910e+02	-7.6763	-48.116602	0.001034	10.337549	3.502456	-0.000414
1199	1.1920e+02	-7.7244	-48.532427	0.001044	10.438897	3.536794	-0.000418
1200	1.1930e+02	-7.7661	-48.907881	0.000943	9.425412	3.193416	-0.000377
1201	1.1940e+02	-7.8014	-49.315632	0.001024	10.236200	3.468119	-0.000410
1202	1.1950e+02	-7.8367	-49.707234	0.000983	9.830806	3.330767	-0.000394
1203	1.1960e+02	-7.8880	-50.119022	0.001034	10.337549	3.502456	-0.000414
1204	1.1970e+02	-7.9169	-50.514661	0.000993	9.932155	3.365105	-0.000398
1205	1.1980e+02	-7.9554	-50.942597	0.001074	10.742943	3.639808	-0.000430
1206	1.1990e+02	-8.0099	-51.318051	0.000943	9.425412	3.193416	-0.000377
1207	1.2000e+02	-8.0420	-51.721765	0.001013	10.134852	3.433781	-0.000406
1208	1.2010e+02	-8.0789	-52.064921	0.000861	8.614624	2.918714	-0.000345
1209	1.2020e+02	-8.1190	-52.492857	0.001074	10.742943	3.639808	-0.000430
1210	1.2030e+02	-8.1575	-52.904645	0.001034	10.337549	3.502456	-0.000414
1211	1.2039e+02	-8.2073	-53.251839	0.000872	8.715972	2.953051	-0.000349
1212	1.2049e+02	-8.2458	-53.659590	0.001024	10.236200	3.468119	-0.000410
1213	1.2059e+02	-8.2859	-54.063303	0.001013	10.134852	3.433781	-0.000406
1214	1.2069e+02	-8.3260	-54.454905	0.000983	9.830806	3.330767	-0.000394
1215	1.2079e+02	-8.3597	-54.830359	0.000943	9.425412	3.193416	-0.000377
1216	1.2089e+02	-8.3966	-55.254258	0.001064	10.641594	3.605470	-0.000426
1217	1.2099e+02	-8.4383	-55.625675	0.000932	9.324064	3.159078	-0.000373
1218	1.2109e+02	-8.4816	-56.033425	0.001024	10.236200	3.468119	-0.000410
1219	1.2119e+02	-8.5281	-56.404842	0.000932	9.324064	3.159078	-0.000373
1220	1.2129e+02	-8.5586	-56.804518	0.001003	10.033503	3.399443	-0.000402
1221	1.2139e+02	-8.5955	-57.196121	0.000983	9.830806	3.330767	-0.000394
1222	1.2149e+02	-8.6420	-57.571574	0.000943	9.425412	3.193416	-0.000377
1223	1.2159e+02	-8.6917	-57.983362	0.001034	10.337549	3.502456	-0.000414
1224	1.2169e+02	-8.7142	-58.383038	0.001003	10.033503	3.399443	-0.000402
1225	1.2179e+02	-8.7559	-58.782715	0.001003	10.033503	3.399443	-0.000402
1226	1.2189e+02	-8.7976	-59.146057	0.000912	9.121367	3.090403	-0.000365
1227	1.2199e+02	-8.8409	-59.537659	0.000983	9.830806	3.330767	-0.000394
1228	1.2209e+02	-8.8794	-59.896964	0.000902	9.020018	3.056065	-0.000361
1229	1.2219e+02	-8.9147	-60.316826	0.001054	10.540246	3.571132	-0.000422
1230	1.2229e+02	-8.9580	-60.700354	0.000963	9.628109	3.262092	-0.000385
1231	1.2239e+02	-9.0046	-61.075808	0.000943	9.425412	3.193416	-0.000377
1232	1.2248e+02	-9.0431	-61.495670	0.001054	10.540246	3.571132	-0.000422
1233	1.2258e+02	-9.0896	-61.891309	0.000993	9.932155	3.365105	-0.000398
1234	1.2268e+02	-9.1153	-62.250615	0.000902	9.020018	3.056065	-0.000361
1235	1.2278e+02	-9.1554	-62.626068	0.000943	9.425412	3.193416	-0.000377
1236	1.2288e+02	-9.1874	-63.005559	0.000953	9.526761	3.227754	-0.000381
1237	1.2298e+02	-9.2388	-63.389087	0.000963	9.628109	3.262092	-0.000385
1238	1.2308e+02	-9.2821	-63.780689	0.000983	9.830806	3.330767	-0.000394
1239	1.2318e+02	-9.3126	-64.168254	0.000973	9.729458	3.296429	-0.000390
1240	1.2328e+02	-9.3607	-64.519485	0.000882	8.817321	2.987389	-0.000353
1241	1.2338e+02	-9.3944	-64.923198	0.001013	10.134852	3.433781	-0.000406
1242	1.2348e+02	-9.4441	-65.310763	0.000973	9.729458	3.296429	-0.000390
1243	1.2358e+02	-9.4778	-65.702366	0.000983	9.830806	3.330767	-0.000394
1244	1.2368e+02	-9.5131	-66.061671	0.000902	9.020018	3.056065	-0.000361
1245	1.2378e+02	-9.5500	-66.445199	0.000963	9.628109	3.262092	-0.000385
1246	1.2388e+02	-9.6013	-66.877172	0.001084	10.844291	3.674145	-0.000434
1247	1.2398e+02	-9.6430	-67.220329	0.000861	8.614624	2.918714	-0.000345
1248	1.2408e+02	-9.6719	-67.603857	0.000963	9.628109	3.262092	-0.000385
1249	1.2418e+02	-9.7184	-67.963162	0.000902	9.020018	3.056065	-0.000361
1250	1.2428e+02	-9.7569	-68.362838	0.001003	10.033503	3.399443	-0.000402
1251	1.2438e+02	-9.7938	-68.714069	0.000882	8.817321	2.987389	-0.000353
1252	1.2447e+02	-9.8307	-69.105671	0.000983	9.830806	3.330767	-0.000394
1253	1.2457e+02	-9.8708	-69.460939	0.000892	8.918669	3.021727	-0.000357
1254	1.2467e+02	-9.9029	-69.848504	0.000973	9.729458	3.296429	-0.000390
1255	1.2477e+02	-9.9639	-70.232032	0.000963	9.628109	3.262092	-0.000385
1256	1.2487e+02	-9.9928	-70.587300	0.000892	8.918669	3.021727	-0.000357
1257	1.2497e+02	-10.0409	-70.938531	0.000882	8.817321	2.987389	-0.000353
1258	1.2507e+02	-10.0698	-71.358393	0.001054	10.540246	3.571132	-0.000422
1259	1.2517e+02	-10.1195	-71.725772	0.000922	9.222715	3.124740	-0.000369
1260	1.2527e+02	-10.1548	-72.133523	0.001024	10.236200	3.468119	-0.000410
1261	1.2537e+02	-10.1965	-72.460531	0.000821	8.209230	2.781362	-0.000329
1262	1.2547e+02	-10.2302	-72.815799	0.000892	8.918669	3.021727	-0.000357
1263	1.2557e+02	-10.2799	-73.227587	0.001034	10.337549	3.502456	-0.000414
1264	1.2567e+02	-10.3200	-73.607077	0.000953	9.526761	3.227754	-0.000381
1265	1.2577e+02	-10.3505	-73.974457	0.000922	9.222715	3.124740	-0.000369
1266	1.2587e+02	-10.3954	-74.370096	0.000993	9.932155	3.365105	-0.000398
1267	1.2597e+02	-10.4420	-74.717290	0.000872	8.715972	2.953051	-0.000349
1268	1.2607e+02	-10.4692	-75.137152	0.001054	10.540246	3.571132	-0.000422
1269	1.2617e+02	-10.5061	-75.500494	0.000912	9.121367	3.090403	-0.000365
1270	1.2627e+02	-10.5510	-75.863836	0.000912	9.121367	3.090403	-0.000365
1271	1.2636e+02	-10.5895	-76.215067	0.000882	8.817321	2.987389	-0.000353
1272	1.2646e+02	-10.6264	-76.590521	0.000943	9.425412	3.193416	-0.000377
1273	1.2656e+02	-10.6794	-77.010383	0.001054	10.540246	3.571132	-0.000422
1274	1.2666e+02	-10.7131	-77.345465	0.000841	8.411927	2.850038	-0.000337
1275	1.2676e+02	-10.7500	-77.676510	0.000831	8.310578	2.815700	-0.000333
1276	1.2686e+02	-10.7885	-78.072149	0.000993	9.932155	3.365105	-0.000398
1277	1.2696e+02	-10.8318	-78.451640	0.000953	9.526761	3.227754	-0.000381
1278	1.2706e+02	-10.8687	-78.835168	0.000963	9.628109	3.262092	-0.000385
1279	1.2716e+02	-10.9104	-79.194473	0.000902	9.020018	3.056065	-0.000361
1280	1.2726e+02	-10.9537	-79.573964	0.000953	9.526761	3.227754	-0.000381
1281	1.2736e+02	-10.9970	-79.896935	0.000811	8.107881	2.747025	-0.000325
1282	1.2746e+02	-11.0403	-80.292574	0.000993	9.932155	3.365105	-0.000398
1283	1.2756e+02	-11.0756	-80.668028	0.000943	9.425412	3.193416	-0.000377
1284	1.2766e+02	-11.1093	-81.075778	0.001024	10.236200	3.468119	-0.000410
1285	1.2776e+02	-11.1542	-81.459306	0.000963	9.628109	3.262092	-0.000385
1286	1.2786e+02	-11.1863	-81.782277	0.000811	8.107881	2.747025	-0.000325
1287	1.2796e+02	-11.2312	-82.157731	0.000943	9.425412	3.193416	-0.000377
1288	1.2806e+02	-11.2745	-82.557407	0.001003	10.033503	3.399443	-0.000402
1289	1.2816e+02	-11.3034	-82.908638	0.000882	8.817321	2.987389	-0.000353
1290	1.2826e+02	-11.3483	-83.227572	0.000801	8.006533	2.712687	-0.000321
1291	1.2835e+02	-11.3772	-83.586877	0.000902	9.020018	3.056065	-0.000361
1292	1.2845e+02	-11.4286	-83.954256	0.000922	9.222715	3.124740	-0.000369
1293	1.2855e+02	-11.4622	-84.333747	0.000953	9.526761	3.227754	-0.000381
1294	1.2865e+02	-11.5088	-84.664792	0.000831	8.310578	2.815700	-0.000333
1295	1.2875e+02	-11.5601	-85.060431	0.000993	9.932155	3.365105	-0.000398
1296	1.2885e+02	-11.5906	-85.411662	0.000882	8.817321	2.987389	-0.000353
1297	1.2895e+02	-11.6435	-85.754819	0.000861	8.614624	2.918714	-0.000345
1298	1.2905e+02	-11.6660	-86.122198	0.000922	9.222715	3.124740	-0.000369
1299	1.2915e+02	-11.7061	-86.465355	0.000861	8.614624	2.918714	-0.000345
1300	1.2925e+02	-11.7494	-86.828697	0.000912	9.121367	3.090403	-0.000365
1301	1.2935e+02	-11.7895	-87.216262	0.000973	9.729458	3.296429	-0.000390
1302	1.2945e+02	-11.8232	-87.547307	0.000831	8.310578	2.815700	-0.000333
1303	1.2955e+02	-11.8729	-87.914686	0.000922	9.222715	3.124740	-0.000369
1304	1.2965e+02	-11.9178	-88.310326	0.000993	9.932155	3.365105	-0.000398
1305	1.2975e+02	-11.9403	-88.625222	0.000791	7.905184	2.678349	-0.000316
1306	1.2985e+02	-11.9836	-89.053159	0.001074	10.742943	3.639808	-0.000430
1307	1.2995e+02	-12.0253	-89.432649	0.000953	9.526761	3.227754	-0.000381
1308	1.3005e+02	-12.0670	-89.723323	0.000730	7.297093	2.472322	-0.000292
1309	1.3015e+02	-12.0975	-90.086665	0.000912	9.121367	3.090403	-0.000365
1310	1.3025e+02	-12.1505	-90.466156	0.000953	9.526761	3.227754	-0.000381
1311	1.3034e+02	-12.1841	-90.805276	0.000851	8.513275	2.884376	-0.000341
1312	1.3044e+02	-12.2210	-91.152469	0.000872	8.715972	2.953051	-0.000349
1313	1.3054e+02	-12.2644	-91.495626	0.000861	8.614624	2.918714	-0.000345
1314	1.3064e+02	-12.2997	-91.879154	0.000963	9.628109	3.262092	-0.000385
1315	1.3074e+02	-12.3398	-92.206162	0.000821	8.209230	2.781362	-0.000329
1316	1.3084e+02	-12.3927	-92.573541	0.000922	9.222715	3.124740	-0.000369
1317	1.3094e+02	-12.4360	-92.936883	0.000912	9.121367	3.090403	-0.000365
1318	1.3104e+02	-12.4681	-93.296188	0.000902	9.020018	3.056065	-0.000361
1319	1.3114e+02	-12.5066	-93.651456	0.000892	8.918669	3.021727	-0.000357
1320	1.3124e+02	-12.5483	-93.998650	0.000872	8.715972	2.953051	-0.000349
1321	1.3134e+02	-12.5852	-94.329695	0.000831	8.310578	2.815700	-0.000333
1322	1.3144e+02	-12.6173	-94.680926	0.000882	8.817321	2.987389	-0.000353
1323	1.3154e+02	-12.6654	-95.096751	0.001044	10.438897	3.536794	-0.000418
1324	1.3164e+02	-12.7023	-95.443945	0.000872	8.715972	2.953051	-0.000349
1325	1.3174e+02	-12.7504	-95.803250	0.000902	9.020018	3.056065	-0.000361
1326	1.3184e+02	-12.7809	-96.122183	0.000801	8.006533	2.712687	-0.000321
1327	1.3194e+02	-12.8162	-96.465340	0.000861	8.614624	2.918714	-0.000345
1328	1.3204e+02	-12.8643	-96.828682	0.000912	9.121367	3.090403	-0.000365
1329	1.3214e+02	-12.9061	-97.123393	0.000740	7.398442	2.506660	-0.000296
1330	1.3224e+02	-12.9397	-97.498847	0.000943	9.425412	3.193416	-0.000377
1331	1.3234e+02	-12.9686	-97.846040	0.000872	8.715972	2.953051	-0.000349
1332	1.3243e+02	-13.0200	-98.201308	0.000892	8.918669	3.021727	-0.000357
1333	1.3253e+02	-13.0633	-98.536391	0.000841	8.411927	2.850038	-0.000337
1334	1.3263e+02	-13.1050	-98.915881	0.000953	9.526761	3.227754	-0.000381
1335	1.3273e+02	-13.1371	-99.263075	0.000872	8.715972	2.953051	-0.000349
1336	1.3283e+02	-13.1820	-99.598157	0.000841	8.411927	2.850038	-0.000337
1337	1.3293e+02	-13.2253	-99.941314	0.000861	8.614624	2.918714	-0.000345
1338	1.3303e+02	-13.2606	-100.332916	0.000983	9.830806	3.330767	-0.000394
1339	1.3313e+02	-13.2927	-100.680110	0.000872	8.715972	2.953051	-0.000349
1340	1.3323e+02	-13.3360	-100.999043	0.000801	8.006533	2.712687	-0.000321
1341	1.3333e+02	-13.3777	-101.418905	0.001054	10.540246	3.571132	-0.000422
1342	1.3343e+02	-13.4210	-101.762062	0.000861	8.614624	2.918714	-0.000345
1343	1.3353e+02	-13.4611	-102.093107	0.000831	8.310578	2.815700	-0.000333
1344	1.3363e+02	-13.4932	-102.440301	0.000872	8.715972	2.953051	-0.000349
1345	1.3373e+02	-13.5381	-102.791532	0.000882	8.817321	2.987389	-0.000353
1346	1.3383e+02	-13.5830	-103.130651	0.000851	8.513275	2.884376	-0.000341
1347	1.3393e+02	-13.6231	-103.441510	0.000780	7.803836	2.644011	-0.000312
1348	1.3403e+02	-13.6681	-103.816964	0.000943	9.425412	3.193416	-0.000377
1349	1.3413e+02	-13.6969	-104.160121	0.000861	8.614624	2.918714	-0.000345
1350	1.3423e+02	-13.7435	-104.458869	0.000750	7.499790	2.540998	-0.000300
1351	1.3432e+02	-13.7804	-104.850471	0.000983	9.830806	3.330767	-0.000394
1352	1.3442e+02	-13.8221	-105.161330	0.000780	7.803836	2.644011	-0.000312
1353	1.3452e+02	-13.8654	-105.500450	0.000851	8.513275	2.884376	-0.000341
1354	1.3462e+02	-13.9023	-105.900126	0.001003	10.033503	3.399443	-0.000402
1355	1.3472e+02	-13.9408	-106.227134	0.000821	8.209230	2.781362	-0.000329
1356	1.3482e+02	-13.9809	-106.598551	0.000932	9.324064	3.159078	-0.000373
1357	1.3492e+02	-14.0130	-106.893262	0.000740	7.398442	2.506660	-0.000296
1358	1.3502e+02	-14.0595	-107.301012	0.001024	10.236200	3.468119	-0.000410
1359	1.3512e+02	-14.1028	-107.632057	0.000831	8.310578	2.815700	-0.000333
1360	1.3522e+02	-14.1429	-107.975214	0.000861	8.614624	2.918714	-0.000345
1361	1.3532e+02	-14.1734	-108.334519	0.000902	9.020018	3.056065	-0.000361
1362	1.3542e+02	-14.2215	-108.665564	0.000831	8.310578	2.815700	-0.000333
1363	1.3552e+02	-14.2600	-109.008721	0.000861	8.614624	2.918714	-0.000345
1364	1.3562e+02	-14.3049	-109.315543	0.000770	7.702487	2.609673	-0.000308
1365	1.3572e+02	-14.3402	-109.674848	0.000902	9.020018	3.056065	-0.000361
1366	1.3582e+02	-14.3739	-110.001856	0.000821	8.209230	2.781362	-0.000329
1367	1.3592e+02	-14.4108	-110.316753	0.000791	7.905184	2.678349	-0.000316
1368	1.3602e+02	-14.4606	-110.724503	0.001024	10.236200	3.468119	-0.000410
1369	1.3612e+02	-14.5007	-111.039400	0.000791	7.905184	2.678349	-0.000316
1370	1.3622e+02	-14.5327	-111.358334	0.000801	8.006533	2.712687	-0.000321
1371	1.3631e+02	-14.5873	-111.705527	0.000872	8.715972	2.953051	-0.000349
1372	1.3641e+02	-14.6178	-112.072907	0.000922	9.222715	3.124740	-0.000369
1373	1.3651e+02	-14.6579	-112.367618	0.000740	7.398442	2.506660	-0.000296
1374	1.3661e+02	-14.6996	-112.783443	0.001044	10.438897	3.536794	-0.000418
1375	1.3671e+02	-14.7220	-113.090265	0.000770	7.702487	2.609673	-0.000308
1376	1.3681e+02	-14.7750	-113.477830	0.000973	9.729458	3.296429	-0.000390
1377	1.3691e+02	-14.8183	-113.849246	0.000932	9.324064	3.159078	-0.000373
1378	1.3701e+02	-14.8488	-114.184329	0.000841	8.411927	2.850038	-0.000337
1379	1.3711e+02	-14.8921	-114.511337	0.000821	8.209230	2.781362	-0.000329
1380	1.3721e+02	-14.9306	-114.862567	0.000882	8.817321	2.987389	-0.000353
1381	1.3731e+02	-14.9723	-115.189575	0.000821	8.209230	2.781362	-0.000329
1382	1.3741e+02	-15.0140	-115.540806	0.000882	8.817321	2.987389	-0.000353
1383	1.3751e+02	-15.0557	-115.879926	0.000851	8.513275	2.884376	-0.000341
1384	1.3761e+02	-15.0990	-116.206934	0.000821	8.209230	2.781362	-0.000329
1385	1.3771e+02	-15.1407	-116.525867	0.000801	8.006533	2.712687	-0.000321
1386	1.3781e+02	-15.1728	-116.925544	0.001003	10.033503	3.399443	-0.000402
1387	1.3791e+02	-15.2242	-117.208143	0.000709	7.094396	2.403646	-0.000284
1388	1.3801e+02	-15.2643	-117.583597	0.000943	9.425412	3.193416	-0.000377
1389	1.3811e+02	-15.2915	-117.971162	0.000973	9.729458	3.296429	-0.000390
1390	1.3821e+02	-15.3397	-118.273947	0.000760	7.601139	2.575336	-0.000304
1391	1.3831e+02	-15.3750	-118.653438	0.000953	9.526761	3.227754	-0.000381
1392	1.3840e+02	-15.4119	-118.972372	0.000801	8.006533	2.712687	-0.000321
1393	1.3850e+02	-15.4520	-119.355900	0.000963	9.628109	3.262092	-0.000385
1394	1.3860e+02	-15.4937	-119.715205	0.000902	9.020018	3.056065	-0.000361
1395	1.3870e+02	-15.5386	-120.058361	0.000861	8.614624	2.918714	-0.000345
1396	1.3880e+02	-15.5691	-120.421703	0.000912	9.121367	3.090403	-0.000365
1397	1.3890e+02	-15.6140	-120.748711	0.000821	8.209230	2.781362	-0.000329
1398	1.3900e+02	-15.6525	-121.112054	0.000912	9.121367	3.090403	-0.000365
1399	1.3910e+02	-15.6942	-121.471359	0.000902	9.020018	3.056065	-0.000361
1400	1.3920e+02	-15.7279	-121.790292	0.000801	8.006533	2.712687	-0.000321
1401	1.3930e+02	-15.7616	-122.101152	0.000780	7.803836	2.644011	-0.000312
1402	1.3940e+02	-15.8161	-122.488717	0.000973	9.729458	3.296429	-0.000390
1403	1.3950e+02	-15.8643	-122.839948	0.000882	8.817321	2.987389	-0.000353
1404	1.3960e+02	-15.8899	-123.187141	0.000872	8.715972	2.953051	-0.000349
1405	1.3970e+02	-15.9300	-123.510112	0.000811	8.107881	2.747025	-0.000325
1406	1.3980e+02	-15.9701	-123.877492	0.000922	9.222715	3.124740	-0.000369
1407	1.3990e+02	-16.0102	-124.252945	0.000943	9.425412	3.193416	-0.000377
1408	1.4000e+02	-16.0423	-124.604176	0.000882	8.817321	2.987389	-0.000353
1409	1.4010e+02	-16.1001	-124.943295	0.000851	8.513275	2.884376	-0.000341
1410	1.4020e+02	-16.1274	-125.306638	0.000912	9.121367	3.090403	-0.000365
1411	1.4029e+02	-16.1691	-125.686128	0.000953	9.526761	3.227754	-0.000381
1412	1.4039e+02	-16.2028	-126.041396	0.000892	8.918669	3.021727	-0.000357
1413	1.4049e+02	-16.2413	-126.437036	0.000993	9.932155	3.365105	-0.000398
1414	1.4059e+02	-16.2830	-126.820564	0.000963	9.628109	3.262092	-0.000385
1415	1.4069e+02	-16.3263	-127.155646	0.000841	8.411927	2.850038	-0.000337
1416	1.4079e+02	-16.3632	-127.486691	0.000831	8.310578	2.815700	-0.000333
1417	1.4089e+02	-16.4113	-127.870219	0.000963	9.628109	3.262092	-0.000385
1418	1.4099e+02	-16.4498	-128.241635	0.000932	9.324064	3.159078	-0.000373
1419	1.4109e+02	-16.4835	-128.544420	0.000760	7.601139	2.575336	-0.000304
1420	1.4119e+02	-16.5236	-128.907763	0.000912	9.121367	3.090403	-0.000365
1421	1.4129e+02	-16.5653	-129.295328	0.000973	9.729458	3.296429	-0.000390
1422	1.4139e+02	-16.6054	-129.654633	0.000902	9.020018	3.056065	-0.000361
1423	1.4149e+02	-16.6391	-130.042198	0.000973	9.729458	3.296429	-0.000390
1424	1.4159e+02	-16.7017	-130.385354	0.000861	8.614624	2.918714	-0.000345
1425	1.4169e+02	-16.7338	-130.760808	0.000943	9.425412	3.193416	-0.000377
1426	1.4179e+02	-16.7755	-131.156447	0.000993	9.932155	3.365105	-0.000398
1427	1.4189e+02	-16.8075	-131.539975	0.000963	9.628109	3.262092	-0.000385
1428	1.4199e+02	-16.8412	-131.911392	0.000932	9.324064	3.159078	-0.000373
1429	1.4209e+02	-16.8781	-132.266660	0.000892	8.918669	3.021727	-0.000357
1430	1.4219e+02	-16.9182	-132.634039	0.000922	9.222715	3.124740	-0.000369
1431	1.4228e+02	-16.9680	-133.078124	0.001115	11.148337	3.777159	-0.000446
1432	1.4238e+02	-17.0001	-133.437429	0.000902	9.020018	3.056065	-0.000361
1433	1.4248e+02	-17.0386	-133.812883	0.000943	9.425412	3.193416	-0.000377
1434	1.4258e+02	-17.0851	-134.220633	0.001024	10.236200	3.468119	-0.000410
1435	1.4268e+02	-17.1284	-134.579938	0.000902	9.020018	3.056065	-0.000361
1436	1.4278e+02	-17.1605	-134.951355	0.000932	9.324064	3.159078	-0.000373
1437	1.4288e+02	-17.2022	-135.379291	0.001074	10.742943	3.639808	-0.000430
1438	1.4298e+02	-17.2487	-135.730522	0.000882	8.817321	2.987389	-0.000353
1439	1.4308e+02	-17.2872	-136.150384	0.001054	10.540246	3.571132	-0.000422
1440	1.4318e+02	-17.3337	-136.505652	0.000892	8.918669	3.021727	-0.000357
1441	1.4328e+02	-17.3722	-136.933589	0.001074	10.742943	3.639808	-0.000430
1442	1.4338e+02	-17.4043	-137.280782	0.000872	8.715972	2.953051	-0.000349
1443	1.4348e+02	-17.4541	-137.716793	0.001095	10.945640	3.708483	-0.000438
1444	1.4358e+02	-17.4845	-138.100321	0.000963	9.628109	3.262092	-0.000385
1445	1.4368e+02	-17.5198	-138.532294	0.001084	10.844291	3.674145	-0.000434
1446	1.4378e+02	-17.5631	-138.956194	0.001064	10.641594	3.605470	-0.000426
1447	1.4388e+02	-17.6049	-139.400278	0.001115	11.148337	3.777159	-0.000446
1448	1.4398e+02	-17.6369	-139.808029	0.001024	10.236200	3.468119	-0.000410
1449	1.4408e+02	-17.6819	-140.187520	0.000953	9.526761	3.227754	-0.000381
1450	1.4418e+02	-17.7236	-140.623531	0.001095	10.945640	3.708483	-0.000438
1451	1.4428e+02	-17.7701	-141.015133	0.000983	9.830806	3.330767	-0.000394
1452	1.4437e+02	-17.8086	-141.467292	0.001135	11.351034	3.845834	-0.000454
1453	1.4447e+02	-17.8407	-141.858894	0.000983	9.830806	3.330767	-0.000394
1454	1.4457e+02	-17.8824	-142.274719	0.001044	10.438897	3.536794	-0.000418
1455	1.4467e+02	-17.9177	-142.642098	0.000922	9.222715	3.124740	-0.000369
1456	1.4477e+02	-17.9578	-143.126555	0.001216	12.161822	4.120537	-0.000487
1457	1.4487e+02	-18.0091	-143.489897	0.000912	9.121367	3.090403	-0.000365
1458	1.4497e+02	-18.0428	-143.938019	0.001125	11.249685	3.811497	-0.000450
1459	1.4507e+02	-18.0829	-144.394215	0.001145	11.452382	3.880172	-0.000458
1460	1.4517e+02	-18.1214	-144.806003	0.001034	10.337549	3.502456	-0.000414
1461	1.4527e+02	-18.1679	-145.258162	0.001135	11.351034	3.845834	-0.000454
1462	1.4537e+02	-18.2064	-145.694173	0.001095	10.945640	3.708483	-0.000438
1463	1.4547e+02	-18.2417	-146.126147	0.001084	10.844291	3.674145	-0.000434
1464	1.4557e+02	-18.2786	-146.562157	0.001095	10.945640	3.708483	-0.000438
1465	1.4567e+02	-18.3155	-147.062762	0.001257	12.567216	4.257888	-0.000503
1466	1.4577e+02	-18.3637	-147.506847	0.001115	11.148337	3.777159	-0.000446
1467	1.4587e+02	-18.3909	-147.954969	0.001125	11.249685	3.811497	-0.000450
1468	1.4597e+02	-18.4407	-148.419240	0.001166	11.655079	3.948848	-0.000467
1469	1.4607e+02	-18.4759	-148.871399	0.001135	11.351034	3.845834	-0.000454
1470	1.4617e+02	-18.5145	-149.335670	0.001166	11.655079	3.948848	-0.000467
1471	1.4626e+02	-18.5610	-149.791866	0.001145	11.452382	3.880172	-0.000458
1472	1.4636e+02	-18.6027	-150.280359	0.001226	12.263171	4.154875	-0.000491
1473	1.4646e+02	-18.6460	-150.696184	0.001044	10.438897	3.536794	-0.000418
1474	1.4656e+02	-18.6893	-151.168529	0.001186	11.857776	4.017523	-0.000475
1475	1.4666e+02	-18.7198	-151.673171	0.001267	12.668565	4.292226	-0.000507
1476	1.4676e+02	-18.7663	-152.125330	0.001135	11.351034	3.845834	-0.000454
1477	1.4686e+02	-18.8016	-152.621898	0.001247	12.465868	4.223550	-0.000499
1478	1.4696e+02	-18.8529	-153.114429	0.001236	12.364519	4.189212	-0.000495
1479	1.4706e+02	-18.8738	-153.578699	0.001166	11.655079	3.948848	-0.000467
1480	1.4716e+02	-18.9235	-154.103527	0.001318	13.175307	4.463915	-0.000527
1481	1.4726e+02	-18.9492	-154.644503	0.001358	13.580701	4.601266	-0.000544
1482	1.4736e+02	-19.0005	-155.161256	0.001297	12.972610	4.395239	-0.000519
1483	1.4746e+02	-19.0342	-155.690121	0.001328	13.276656	4.498253	-0.000532
1484	1.4756e+02	-19.0759	-156.170540	0.001206	12.060474	4.086199	-0.000483
1485	1.4766e+02	-19.1112	-156.695368	0.001318	13.175307	4.463915	-0.000527
1486	1.4776e+02	-19.1642	-157.200010	0.001267	12.668565	4.292226	-0.000507
1487	1.4786e+02	-19.1962	-157.732912	0.001338	13.378004	4.532591	-0.000536
1488	1.4796e+02	-19.2364	-158.290037	0.001399	13.986095	4.738617	-0.000560
1489	1.4806e+02	-19.2765	-158.766419	0.001196	11.959125	4.051861	-0.000479
1490	1.4816e+02	-19.3198	-159.347766	0.001459	14.594186	4.944644	-0.000584
1491	1.4825e+02	-19.3503	-159.824148	0.001196	11.959125	4.051861	-0.000479
1492	1.4835e+02	-19.3984	-160.336864	0.001287	12.871262	4.360901	-0.000515
1493	1.4845e+02	-19.4353	-160.910138	0.001439	14.391489	4.875969	-0.000576
1494	1.4855e+02	-19.4706	-161.455151	0.001368	13.682050	4.635604	-0.000548
1495	1.4865e+02	-19.5283	-162.004201	0.001378	13.783398	4.669942	-0.000552
1496	1.4875e+02	-19.5588	-162.589586	0.001470	14.695535	4.978982	-0.000588
1497	1.4885e+02	-19.5957	-163.146711	0.001399	13.986095	4.738617	-0.000560
1498	1.4895e+02	-19.6406	-163.732096	0.001470	14.695535	4.978982	-0.000588
1499	1.4905e+02	-19.6615	-164.269035	0.001348	13.479353	4.566928	-0.000540
1500	1.4915e+02	-19.7096	-164.902865	0.001591	15.911717	5.391036	-0.000637
1501	1.4925e+02	-19.7561	-165.488250	0.001470	14.695535	4.978982	-0.000588
1502	1.4935e+02	-19.7866	-166.061523	0.001439	14.391489	4.875969	-0.000576
1503	1.4945e+02	-19.8299	-166.650945	0.001480	14.796883	5.013320	-0.000592
1504	1.4955e+02	-19.8861	-167.240367	0.001480	14.796883	5.013320	-0.000592
1505	1.4965e+02	-19.9149	-167.882271	0.001611	16.114414	5.459711	-0.000645
1506	1.4975e+02	-19.9486	-168.520139	0.001601	16.013066	5.425374	-0.000641
1507	1.4985e+02	-19.9984	-169.153969	0.001591	15.911717	5.391036	-0.000637
1508	1.4995e+02	-19.9599	-169.250860	-0.000243	-2.432364	-0.824107	-0.000097
1509	1.5005e+02	-19.9230	-169.380048	-0.000324	-3.243153	-1.098810	-0.000130
1510	1.5015e+02	-19.8732	-169.501163	-0.000304	-3.040456	-1.030134	-0.000122
1511	1.5025e+02	-19.8428	-169.577868	-0.000193	-1.925622	-0.652418	-0.000077
1512	1.5034e+02	-19.7978	-169.646499	-0.000172	-1.722925	-0.583743	-0.000069
1513	1.5044e+02	-19.7561	-169.735316	-0.000223	-2.229667	-0.755432	-0.000089
1514	1.5054e+02	-19.7128	-169.820096	-0.000213	-2.128319	-0.721094	-0.000085
1515	1.5064e+02	-19.6791	-169.844319	-0.000061	-0.608091	-0.206027	-0.000024
1516	1.5074e+02	-19.6278	-169.860468	-0.000041	-0.405394	-0.137351	-0.000016
1517	1.5084e+02	-19.5973	-169.945247	-0.000213	-2.128319	-0.721094	-0.000085
1518	1.5094e+02	-19.5556	-169.965433	-0.000051	-0.506743	-0.171689	-0.000020
1519	1.5104e+02	-19.5091	-169.933136	0.000081	0.810788	0.274702	0.000032
1520	1.5114e+02	-19.4754	-169.973507	-0.000101	-1.013485	-0.343378	-0.000041
1521	1.5124e+02	-19.4353	-170.013879	-0.000101	-1.013485	-0.343378	-0.000041
1522	1.5134e+02	-19.3952	-169.965433	0.000122	1.216182	0.412054	0.000049
1523	1.5144e+02	-19.3519	-169.937173	0.000071	0.709440	0.240365	0.000028
1524	1.5154e+02	-19.3134	-169.896802	0.000101	1.013485	0.343378	0.000041
1525	1.5164e+02	-19.2797	-169.848356	0.000122	1.216182	0.412054	0.000049
1526	1.5174e+02	-19.2380	-169.848356	0.000000	0.000000	0.000000	0.000000
1527	1.5184e+02	-19.1946	-169.763576	0.000213	2.128319	0.721094	0.000085
1528	1.5194e+02	-19.1577	-169.715131	0.000122	1.216182	0.412054	0.000049
1529	1.5204e+02	-19.1192	-169.561720	0.000385	3.851244	1.304837	0.000154
1530	1.5214e+02	-19.0856	-169.541534	0.000051	0.506743	0.171689	0.000020
1531	1.5224e+02	-19.0487	-169.480977	0.000152	1.520228	0.515067	0.000061
1532	1.5233e+02	-18.9941	-169.371974	0.000274	2.736410	0.927121	0.000110
1533	1.5243e+02	-18.9636	-169.246823	0.000314	3.141804	1.064472	0.000126
1534	1.5253e+02	-18.9235	-169.194340	0.000132	1.317531	0.446391	0.000053
1535	1.5263e+02	-18.8802	-169.125709	0.000172	1.722925	0.583743	0.000069
1536	1.5273e+02	-18.8337	-169.036892	0.000223	2.229667	0.755432	0.000089
1537	1.5283e+02	-18.7936	-168.935964	0.000253	2.533713	0.858445	0.000101
1538	1.5293e+02	-18.7583	-168.790627	0.000365	3.648547	1.236161	0.000146
1539	1.5303e+02	-18.7150	-168.677587	0.000284	2.837758	0.961459	0.000114
1540	1.5313e+02	-18.6781	-168.592807	0.000213	2.128319	0.721094	0.000085
1541	1.5323e+02	-18.6412	-168.451507	0.000355	3.547198	1.201823	0.000142
1542	1.5333e+02	-18.6027	-168.322319	0.000324	3.243153	1.098810	0.000130
1543	1.5343e+02	-18.5610	-168.221391	0.000253	2.533713	0.858445	0.000101
1544	1.5353e+02	-18.5209	-168.116425	0.000264	2.635061	0.892783	0.000105
1545	1.5363e+02	-18.4759	-167.910531	0.000517	5.168774	1.751228	0.000207
1546	1.5373e+02	-18.4423	-167.793454	0.000294	2.939107	0.995796	0.000118
1547	1.5383e+02	-18.4022	-167.611783	0.000456	4.560683	1.545201	0.000183
1548	1.5393e+02	-18.3637	-167.462409	0.000375	3.749895	1.270499	0.000150
1549	1.5403e+02	-18.3219	-167.288812	0.000436	4.357986	1.476526	0.000174
1550	1.5413e+02	-18.2738	-167.127327	0.000405	4.053941	1.373512	0.000162
1551	1.5422e+02	-18.2449	-167.018324	0.000274	2.736410	0.927121	0.000110
1552	1.5432e+02	-18.1968	-166.848764	0.000426	4.256638	1.442188	0.000170
1553	1.5442e+02	-18.1679	-166.711502	0.000345	3.445850	1.167485	0.000138
1554	1.5452e+02	-18.1230	-166.545979	0.000416	4.155289	1.407850	0.000166
1555	1.5462e+02	-18.0733	-166.380457	0.000416	4.155289	1.407850	0.000166
1556	1.5472e+02	-18.0556	-166.182637	0.000497	4.966077	1.682553	0.000199
1557	1.5482e+02	-18.0107	-166.029226	0.000385	3.851244	1.304837	0.000154
1558	1.5492e+02	-17.9626	-165.851592	0.000446	4.459335	1.510864	0.000179
1559	1.5502e+02	-17.9209	-165.629549	0.000557	5.574168	1.888579	0.000223
1560	1.5512e+02	-17.8824	-165.484212	0.000365	3.648547	1.236161	0.000146
1561	1.5522e+02	-17.8391	-165.338876	0.000365	3.648547	1.236161	0.000146
1562	1.5532e+02	-17.8086	-165.100685	0.000598	5.979562	2.025931	0.000239
1563	1.5542e+02	-17.7701	-164.914976	0.000466	4.662032	1.579539	0.000187
1564	1.5552e+02	-17.7300	-164.717157	0.000497	4.966077	1.682553	0.000199
1565	1.5562e+02	-17.6915	-164.539523	0.000446	4.459335	1.510864	0.000179
1566	1.5572e+02	-17.6482	-164.349777	0.000476	4.763380	1.613877	0.000191
1567	1.5582e+02	-17.6129	-164.123698	0.000568	5.675517	1.922917	0.000227
1568	1.5592e+02	-17.5696	-163.905692	0.000547	5.472820	1.854242	0.000219
1569	1.5602e+02	-17.5359	-163.691724	0.000537	5.371471	1.819904	0.000215
1570	1.5612e+02	-17.4749	-163.510053	0.000456	4.560683	1.545201	0.000183
1571	1.5622e+02	-17.4348	-163.348568	0.000405	4.053941	1.373512	0.000162
1572	1.5631e+02	-17.3995	-163.158822	0.000476	4.763380	1.613877	0.000191
1573	1.5641e+02	-17.3642	-162.965040	0.000486	4.864729	1.648215	0.000195
1574	1.5651e+02	-17.3193	-162.730886	0.000588	5.878214	1.991593	0.000235
1575	1.5661e+02	-17.2872	-162.549215	0.000456	4.560683	1.545201	0.000183
1576	1.5671e+02	-17.2503	-162.339284	0.000527	5.270123	1.785566	0.000211
1577	1.5681e+02	-17.2070	-162.129353	0.000527	5.270123	1.785566	0.000211
1578	1.5691e+02	-17.1605	-161.899236	0.000578	5.776865	1.957255	0.000231
1579	1.5701e+02	-17.1268	-161.669119	0.000578	5.776865	1.957255	0.000231
1580	1.5711e+02	-17.0819	-161.463225	0.000517	5.168774	1.751228	0.000207
1581	1.5721e+02	-17.0418	-161.208886	0.000638	6.384957	2.163282	0.000256
1582	1.5731e+02	-17.0113	-161.007029	0.000507	5.067426	1.716890	0.000203
1583	1.5741e+02	-16.9712	-160.805172	0.000507	5.067426	1.716890	0.000203
1584	1.5751e+02	-16.9311	-160.502387	0.000760	7.601139	2.575336	0.000304
1585	1.5761e+02	-16.8910	-160.336864	0.000416	4.155289	1.407850	0.000166
1586	1.5771e+02	-16.8525	-160.086562	0.000628	6.283608	2.128944	0.000252
1587	1.5781e+02	-16.8059	-159.836260	0.000628	6.283608	2.128944	0.000252
1588	1.5791e+02	-16.7626	-159.658626	0.000446	4.459335	1.510864	0.000179
1589	1.5801e+02	-16.7193	-159.456769	0.000507	5.067426	1.716890	0.000203
1590	1.5811e+02	-16.6888	-159.226652	0.000578	5.776865	1.957255	0.000231
1591	1.5821e+02	-16.6423	-159.004610	0.000557	5.574168	1.888579	0.000223
1592	1.5830e+02	-16.6150	-158.782567	0.000557	5.574168	1.888579	0.000223
1593	1.5840e+02	-16.5685	-158.499968	0.000709	7.094396	2.403646	0.000284
1594	1.5850e+02	-16.5412	-158.290037	0.000527	5.270123	1.785566	0.000211
1595	1.5860e+02	-16.4915	-158.039734	0.000628	6.283608	2.128944	0.000252
1596	1.5870e+02	-16.4530	-157.825766	0.000537	5.371471	1.819904	0.000215
1597	1.5880e+02	-16.4081	-157.627946	0.000497	4.966077	1.682553	0.000199
1598	1.5890e+02	-16.3728	-157.369570	0.000649	6.486305	2.197620	0.000260
1599	1.5900e+02	-16.3327	-157.155601	0.000537	5.371471	1.819904	0.000215
1600	1.5910e+02	-16.3006	-156.864928	0.000730	7.297093	2.472322	0.000292
1601	1.5920e+02	-16.2445	-156.558105	0.000770	7.702487	2.609673	0.000308
1602	1.5930e+02	-16.2092	-156.372397	0.000466	4.662032	1.579539	0.000187
1603	1.5940e+02	-16.1755	-156.122095	0.000628	6.283608	2.128944	0.000252
1604	1.5950e+02	-16.1306	-155.920238	0.000507	5.067426	1.716890	0.000203
1605	1.5960e+02	-16.0905	-155.613416	0.000770	7.702487	2.609673	0.000308
1606	1.5970e+02	-16.0471	-155.419633	0.000486	4.864729	1.648215	0.000195
1607	1.5980e+02	-16.0022	-155.181442	0.000598	5.979562	2.025931	0.000239
1608	1.5990e+02	-15.9669	-154.955362	0.000568	5.675517	1.922917	0.000227
1609	1.6000e+02	-15.9332	-154.729283	0.000568	5.675517	1.922917	0.000227
1610	1.6010e+02	-15.8915	-154.462832	0.000669	6.689002	2.266295	0.000268
1611	1.6019e+02	-15.8498	-154.240789	0.000557	5.574168	1.888579	0.000223
1612	1.6029e+02	-15.8065	-153.982413	0.000649	6.486305	2.197620	0.000260
1613	1.6039e+02	-15.7680	-153.768445	0.000537	5.371471	1.819904	0.000215
1614	1.6049e+02	-15.7359	-153.469697	0.000750	7.499790	2.540998	0.000300
1615	1.6059e+02	-15.6974	-153.263803	0.000517	5.168774	1.751228	0.000207
1616	1.6069e+02	-15.6605	-152.952943	0.000780	7.803836	2.644011	0.000312
1617	1.6079e+02	-15.6076	-152.718789	0.000588	5.878214	1.991593	0.000235
1618	1.6089e+02	-15.5755	-152.492710	0.000568	5.675517	1.922917	0.000227
1619	1.6099e+02	-15.5290	-152.161665	0.000831	8.310578	2.815700	0.000333
1620	1.6109e+02	-15.5001	-151.971919	0.000476	4.763380	1.613877	0.000191
1621	1.6119e+02	-15.4504	-151.669134	0.000760	7.601139	2.575336	0.000304
1622	1.6129e+02	-15.4167	-151.374423	0.000740	7.398442	2.506660	0.000296
1623	1.6139e+02	-15.3798	-151.176603	0.000497	4.966077	1.682553	0.000199
1624	1.6149e+02	-15.3413	-150.898041	0.000699	6.993048	2.369309	0.000280
1625	1.6159e+02	-15.2932	-150.627553	0.000679	6.790351	2.300633	0.000272
1626	1.6169e+02	-15.2546	-150.389362	0.000598	5.979562	2.025931	0.000239
1627	1.6179e+02	-15.2194	-150.167319	0.000557	5.574168	1.888579	0.000223
1628	1.6189e+02	-15.1712	-149.904906	0.000659	6.587654	2.231957	0.000264
1629	1.6199e+02	-15.1295	-149.654603	0.000628	6.283608	2.128944	0.000252
1630	1.6209e+02	-15.0942	-149.452746	0.000507	5.067426	1.716890	0.000203
1631	1.6219e+02	-15.0541	-149.129776	0.000811	8.107881	2.747025	0.000325
1632	1.6228e+02	-15.0204	-148.859288	0.000679	6.790351	2.300633	0.000272
1633	1.6238e+02	-14.9835	-148.588799	0.000679	6.790351	2.300633	0.000272
1634	1.6248e+02	-14.9338	-148.350608	0.000598	5.979562	2.025931	0.000239
1635	1.6258e+02	-14.8937	-148.092232	0.000649	6.486305	2.197620	0.000260
1636	1.6268e+02	-14.8632	-147.821744	0.000679	6.790351	2.300633	0.000272
1637	1.6278e+02	-14.8183	-147.527033	0.000740	7.398442	2.506660	0.000296
1638	1.6288e+02	-14.7846	-147.236359	0.000730	7.297093	2.472322	0.000292
1639	1.6298e+02	-14.7429	-146.990094	0.000618	6.182260	2.094606	0.000248
1640	1.6308e+02	-14.6964	-146.691346	0.000750	7.499790	2.540998	0.000300
1641	1.6318e+02	-14.6611	-146.449117	0.000608	6.080911	2.060268	0.000243
1642	1.6328e+02	-14.6097	-146.194778	0.000638	6.384957	2.163282	0.000256
1643	1.6338e+02	-14.5712	-145.952550	0.000608	6.080911	2.060268	0.000243
1644	1.6348e+02	-14.5279	-145.734544	0.000547	5.472820	1.854242	0.000219
1645	1.6358e+02	-14.5007	-145.431759	0.000760	7.601139	2.575336	0.000304
1646	1.6368e+02	-14.4590	-145.120900	0.000780	7.803836	2.644011	0.000312
1647	1.6378e+02	-14.4124	-144.850412	0.000679	6.790351	2.300633	0.000272
1648	1.6388e+02	-14.3819	-144.616258	0.000588	5.878214	1.991593	0.000235
1649	1.6398e+02	-14.3370	-144.357881	0.000649	6.486305	2.197620	0.000260
1650	1.6408e+02	-14.2985	-144.087393	0.000679	6.790351	2.300633	0.000272
1651	1.6418e+02	-14.2632	-143.820942	0.000669	6.689002	2.266295	0.000268
1652	1.6427e+02	-14.2231	-143.493934	0.000821	8.209230	2.781362	0.000329
1653	1.6437e+02	-14.1798	-143.251706	0.000608	6.080911	2.060268	0.000243
1654	1.6447e+02	-14.1381	-143.001404	0.000628	6.283608	2.128944	0.000252
1655	1.6457e+02	-14.1060	-142.702656	0.000750	7.499790	2.540998	0.000300
1656	1.6467e+02	-14.0595	-142.436205	0.000669	6.689002	2.266295	0.000268
1657	1.6477e+02	-14.0210	-142.133419	0.000760	7.601139	2.575336	0.000304
1658	1.6487e+02	-13.9793	-141.806411	0.000821	8.209230	2.781362	0.000329
1659	1.6497e+02	-13.9360	-141.535923	0.000679	6.790351	2.300633	0.000272
1660	1.6507e+02	-13.8943	-141.321955	0.000537	5.371471	1.819904	0.000215
1661	1.6517e+02	-13.8654	-141.059541	0.000659	6.587654	2.231957	0.000264
1662	1.6527e+02	-13.8140	-140.817313	0.000608	6.080911	2.060268	0.000243
1663	1.6537e+02	-13.7788	-140.502417	0.000791	7.905184	2.678349	0.000316
1664	1.6547e+02	-13.7338	-140.272300	0.000578	5.776865	1.957255	0.000231
1665	1.6557e+02	-13.7018	-139.917032	0.000892	8.918669	3.021727	0.000357
1666	1.6567e+02	-13.6600	-139.658655	0.000649	6.486305	2.197620	0.000260
1667	1.6577e+02	-13.6231	-139.420464	0.000598	5.979562	2.025931	0.000239
1668	1.6587e+02	-13.5798	-139.109605	0.000780	7.803836	2.644011	0.000312
1669	1.6597e+02	-13.5429	-138.839117	0.000679	6.790351	2.300633	0.000272
1670	1.6607e+02	-13.5044	-138.504034	0.000841	8.411927	2.850038	0.000337
1671	1.6616e+02	-13.4611	-138.281992	0.000557	5.574168	1.888579	0.000223
1672	1.6626e+02	-13.4290	-137.995355	0.000720	7.195745	2.437984	0.000288
1673	1.6636e+02	-13.3841	-137.745053	0.000628	6.283608	2.128944	0.000252
1674	1.6646e+02	-13.3296	-137.430156	0.000791	7.905184	2.678349	0.000316
1675	1.6656e+02	-13.3055	-137.087000	0.000861	8.614624	2.918714	0.000345
1676	1.6666e+02	-13.2590	-136.800363	0.000720	7.195745	2.437984	0.000288
1677	1.6676e+02	-13.2237	-136.493541	0.000770	7.702487	2.609673	0.000308
1678	1.6686e+02	-13.1708	-136.243238	0.000628	6.283608	2.128944	0.000252
1679	1.6696e+02	-13.1419	-135.964676	0.000699	6.993048	2.369309	0.000280
1680	1.6706e+02	-13.0954	-135.726485	0.000598	5.979562	2.025931	0.000239
1681	1.6716e+02	-13.0617	-135.407551	0.000801	8.006533	2.712687	0.000321
1682	1.6726e+02	-13.0216	-135.197620	0.000527	5.270123	1.785566	0.000211
1683	1.6736e+02	-12.9863	-134.874649	0.000811	8.107881	2.747025	0.000325
1684	1.6746e+02	-12.9413	-134.559753	0.000791	7.905184	2.678349	0.000316
1685	1.6756e+02	-12.8964	-134.289265	0.000679	6.790351	2.300633	0.000272
1686	1.6766e+02	-12.8724	-133.990517	0.000750	7.499790	2.540998	0.000300
1687	1.6776e+02	-12.8290	-133.752326	0.000598	5.979562	2.025931	0.000239
1688	1.6786e+02	-12.7873	-133.469726	0.000709	7.094396	2.403646	0.000284
1689	1.6796e+02	-12.7504	-133.142718	0.000821	8.209230	2.781362	0.000329
1690	1.6806e+02	-12.7039	-132.856081	0.000720	7.195745	2.437984	0.000288
1691	1.6816e+02	-12.6702	-132.625965	0.000578	5.776865	1.957255	0.000231
1692	1.6825e+02	-12.6301	-132.302994	0.000811	8.107881	2.747025	0.000325
1693	1.6835e+02	-12.5884	-131.996172	0.000770	7.702487	2.609673	0.000308
1694	1.6845e+02	-12.5579	-131.636866	0.000902	9.020018	3.056065	0.000361
1695	1.6855e+02	-12.5082	-131.370415	0.000669	6.689002	2.266295	0.000268
1696	1.6865e+02	-12.4617	-131.051482	0.000801	8.006533	2.712687	0.000321
1697	1.6875e+02	-12.4248	-130.797142	0.000638	6.384957	2.163282	0.000256
1698	1.6885e+02	-12.3767	-130.506468	0.000730	7.297093	2.472322	0.000292
1699	1.6895e+02	-12.3398	-130.215795	0.000730	7.297093	2.472322	0.000292
1700	1.6905e+02	-12.3141	-129.921084	0.000740	7.398442	2.506660	0.000296
1701	1.6915e+02	-12.2595	-129.610224	0.000780	7.803836	2.644011	0.000312
1702	1.6925e+02	-12.2194	-129.355885	0.000638	6.384957	2.163282	0.000256
1703	1.6935e+02	-12.1825	-129.036951	0.000801	8.006533	2.712687	0.000321
1704	1.6945e+02	-12.1440	-128.750314	0.000720	7.195745	2.437984	0.000288
1705	1.6955e+02	-12.0975	-128.463678	0.000720	7.195745	2.437984	0.000288
1706	1.6965e+02	-12.0622	-128.181078	0.000709	7.094396	2.403646	0.000284
1707	1.6975e+02	-12.0334	-127.858107	0.000811	8.107881	2.747025	0.000325
1708	1.6985e+02	-11.9932	-127.547248	0.000780	7.803836	2.644011	0.000312
1709	1.6995e+02	-11.9467	-127.264648	0.000709	7.094396	2.403646	0.000284
1710	1.7005e+02	-11.9034	-126.990123	0.000689	6.891699	2.334971	0.000276
1711	1.7015e+02	-11.8681	-126.651004	0.000851	8.513275	2.884376	0.000341
1712	1.7024e+02	-11.8360	-126.328033	0.000811	8.107881	2.747025	0.000325
1713	1.7034e+02	-11.7863	-126.037359	0.000730	7.297093	2.472322	0.000292
1714	1.7044e+02	-11.7398	-125.750723	0.000720	7.195745	2.437984	0.000288
1715	1.7054e+02	-11.7061	-125.476197	0.000689	6.891699	2.334971	0.000276
1716	1.7064e+02	-11.6676	-125.205709	0.000679	6.790351	2.300633	0.000272
1717	1.7074e+02	-11.6339	-124.882738	0.000811	8.107881	2.747025	0.000325
1718	1.7084e+02	-11.5874	-124.571879	0.000780	7.803836	2.644011	0.000312
1719	1.7094e+02	-11.5425	-124.281205	0.000730	7.297093	2.472322	0.000292
1720	1.7104e+02	-11.5007	-123.986494	0.000740	7.398442	2.506660	0.000296
1721	1.7114e+02	-11.4655	-123.707932	0.000699	6.993048	2.369309	0.000280
1722	1.7124e+02	-11.4302	-123.368812	0.000851	8.513275	2.884376	0.000341
1723	1.7134e+02	-11.3820	-123.082176	0.000720	7.195745	2.437984	0.000288
1724	1.7144e+02	-11.3596	-122.763242	0.000801	8.006533	2.712687	0.000321
1725	1.7154e+02	-11.3082	-122.488717	0.000689	6.891699	2.334971	0.000276
1726	1.7164e+02	-11.2745	-122.169783	0.000801	8.006533	2.712687	0.000321
1727	1.7174e+02	-11.2344	-121.850849	0.000801	8.006533	2.712687	0.000321
1728	1.7184e+02	-11.1943	-121.552101	0.000750	7.499790	2.540998	0.000300
1729	1.7194e+02	-11.1542	-121.273539	0.000699	6.993048	2.369309	0.000280
1730	1.7204e+02	-11.1093	-120.902123	0.000932	9.324064	3.159078	0.000373
1731	1.7213e+02	-11.0756	-120.563003	0.000851	8.513275	2.884376	0.000341
1732	1.7223e+02	-11.0259	-120.324812	0.000598	5.979562	2.025931	0.000239
1733	1.7233e+02	-10.9890	-120.022027	0.000760	7.601139	2.575336	0.000304
1734	1.7243e+02	-10.9521	-119.723279	0.000750	7.499790	2.540998	0.000300
1735	1.7253e+02	-10.9072	-119.355900	0.000922	9.222715	3.124740	0.000369
1736	1.7263e+02	-10.8783	-119.081374	0.000689	6.891699	2.334971	0.000276
1737	1.7273e+02	-10.8398	-118.774552	0.000770	7.702487	2.609673	0.000308
1738	1.7283e+02	-10.7885	-118.443507	0.000831	8.310578	2.815700	0.000333
1739	1.7293e+02	-10.7387	-118.120536	0.000811	8.107881	2.747025	0.000325
1740	1.7303e+02	-10.7211	-117.805639	0.000791	7.905184	2.678349	0.000316
1741	1.7313e+02	-10.6794	-117.539188	0.000669	6.689002	2.266295	0.000268
1742	1.7323e+02	-10.6361	-117.224292	0.000791	7.905184	2.678349	0.000316
1743	1.7333e+02	-10.6024	-116.917470	0.000770	7.702487	2.609673	0.000308
1744	1.7343e+02	-10.5526	-116.590462	0.000821	8.209230	2.781362	0.000329
1745	1.7353e+02	-10.5157	-116.283639	0.000770	7.702487	2.609673	0.000308
1746	1.7363e+02	-10.4788	-115.944520	0.000851	8.513275	2.884376	0.000341
1747	1.7373e+02	-10.4355	-115.653846	0.000730	7.297093	2.472322	0.000292
1748	1.7383e+02	-10.3890	-115.351061	0.000760	7.601139	2.575336	0.000304
1749	1.7393e+02	-10.3441	-114.967533	0.000963	9.628109	3.262092	0.000385
1750	1.7403e+02	-10.3216	-114.737416	0.000578	5.776865	1.957255	0.000231
1751	1.7413e+02	-10.2751	-114.374074	0.000912	9.121367	3.090403	0.000365
1752	1.7422e+02	-10.2302	-114.059177	0.000791	7.905184	2.678349	0.000316
1753	1.7432e+02	-10.1933	-113.724095	0.000841	8.411927	2.850038	0.000337
1754	1.7442e+02	-10.1580	-113.481867	0.000608	6.080911	2.060268	0.000243
1755	1.7452e+02	-10.1179	-113.138710	0.000861	8.614624	2.918714	0.000345
1756	1.7462e+02	-10.0714	-112.827851	0.000780	7.803836	2.644011	0.000312
1757	1.7472e+02	-10.0409	-112.480657	0.000872	8.715972	2.953051	0.000349
1758	1.7482e+02	-9.9896	-112.129427	0.000882	8.817321	2.987389	0.000353
1759	1.7492e+02	-9.9543	-111.822604	0.000770	7.702487	2.609673	0.000308
1760	1.7502e+02	-9.9158	-111.535968	0.000720	7.195745	2.437984	0.000288
1761	1.7512e+02	-9.8741	-111.192811	0.000861	8.614624	2.918714	0.000345
1762	1.7522e+02	-9.8339	-110.885989	0.000770	7.702487	2.609673	0.000308
1763	1.7532e+02	-9.7987	-110.542832	0.000861	8.614624	2.918714	0.000345
1764	1.7542e+02	-9.7602	-110.203713	0.000851	8.513275	2.884376	0.000341
1765	1.7552e+02	-9.7152	-109.876705	0.000821	8.209230	2.781362	0.000329
1766	1.7562e+02	-9.6719	-109.561808	0.000791	7.905184	2.678349	0.000316
1767	1.7572e+02	-9.6350	-109.254986	0.000770	7.702487	2.609673	0.000308
1768	1.7582e+02	-9.5949	-108.932015	0.000811	8.107881	2.747025	0.000325
1769	1.7592e+02	-9.5468	-108.564636	0.000922	9.222715	3.124740	0.000369
1770	1.7602e+02	-9.5147	-108.302222	0.000659	6.587654	2.231957	0.000264
1771	1.7612e+02	-9.4746	-107.938880	0.000912	9.121367	3.090403	0.000365
1772	1.7621e+02	-9.4313	-107.644169	0.000740	7.398442	2.506660	0.000296
1773	1.7631e+02	-9.4008	-107.309086	0.000841	8.411927	2.850038	0.000337
1774	1.7641e+02	-9.3655	-106.978041	0.000831	8.310578	2.815700	0.000333
1775	1.7651e+02	-9.3158	-106.675256	0.000760	7.601139	2.575336	0.000304
1776	1.7661e+02	-9.2693	-106.340174	0.000841	8.411927	2.850038	0.000337
1777	1.7671e+02	-9.2420	-106.021240	0.000801	8.006533	2.712687	0.000321
1778	1.7681e+02	-9.1923	-105.670009	0.000882	8.817321	2.987389	0.000353
1779	1.7691e+02	-9.1650	-105.343001	0.000821	8.209230	2.781362	0.000329
1780	1.7701e+02	-9.1217	-105.024068	0.000801	8.006533	2.712687	0.000321
1781	1.7711e+02	-9.0864	-104.729357	0.000740	7.398442	2.506660	0.000296
1782	1.7721e+02	-9.0415	-104.337755	0.000983	9.830806	3.330767	0.000394
1783	1.7731e+02	-8.9933	-104.030932	0.000770	7.702487	2.609673	0.000308
1784	1.7741e+02	-8.9580	-103.707961	0.000811	8.107881	2.747025	0.000325
1785	1.7751e+02	-8.9179	-103.336545	0.000932	9.324064	3.159078	0.000373
1786	1.7761e+02	-8.8891	-102.989351	0.000872	8.715972	2.953051	0.000349
1787	1.7771e+02	-8.8329	-102.698677	0.000730	7.297093	2.472322	0.000292
1788	1.7781e+02	-8.8008	-102.331298	0.000922	9.222715	3.124740	0.000369
1789	1.7791e+02	-8.7527	-102.000253	0.000831	8.310578	2.815700	0.000333
1790	1.7801e+02	-8.7254	-101.705542	0.000740	7.398442	2.506660	0.000296
1791	1.7810e+02	-8.6805	-101.354311	0.000882	8.817321	2.987389	0.000353
1792	1.7820e+02	-8.6372	-101.019229	0.000841	8.411927	2.850038	0.000337
1793	1.7830e+02	-8.6051	-100.704332	0.000791	7.905184	2.678349	0.000316
1794	1.7840e+02	-8.5586	-100.361176	0.000861	8.614624	2.918714	0.000345
1795	1.7850e+02	-8.5297	-99.981685	0.000953	9.526761	3.227754	0.000381
1796	1.7860e+02	-8.4912	-99.695048	0.000720	7.195745	2.437984	0.000288
1797	1.7870e+02	-8.4399	-99.311521	0.000963	9.628109	3.262092	0.000385
1798	1.7880e+02	-8.3998	-99.000661	0.000780	7.803836	2.644011	0.000312
1799	1.7890e+02	-8.3677	-98.645393	0.000892	8.918669	3.021727	0.000357
1800	1.7900e+02	-8.3244	-98.338571	0.000770	7.702487	2.609673	0.000308
1801	1.7910e+02	-8.2859	-97.979266	0.000902	9.020018	3.056065	0.000361
1802	1.7920e+02	-8.2490	-97.615924	0.000912	9.121367	3.090403	0.000365
1803	1.7930e+02	-8.2073	-97.240470	0.000943	9.425412	3.193416	0.000377
1804	1.7940e+02	-8.1623	-96.893276	0.000872	8.715972	2.953051	0.000349
1805	1.7950e+02	-8.1174	-96.602603	0.000730	7.297093	2.472322	0.000292
1806	1.7960e+02	-8.0821	-96.243297	0.000902	9.020018	3.056065	0.000361
1807	1.7970e+02	-8.0468	-95.888029	0.000892	8.918669	3.021727	0.000357
1808	1.7980e+02	-8.0067	-95.552947	0.000841	8.411927	2.850038	0.000337
1809	1.7990e+02	-7.9650	-95.177494	0.000943	9.425412	3.193416	0.000377
1810	1.8000e+02	-7.9281	-94.874708	0.000760	7.601139	2.575336	0.000304
1811	1.8009e+02	-7.8816	-94.499255	0.000943	9.425412	3.193416	0.000377
1812	1.8019e+02	-7.8351	-94.204544	0.000740	7.398442	2.506660	0.000296
1813	1.8029e+02	-7.7853	-93.812942	0.000983	9.830806	3.330767	0.000394
1814	1.8039e+02	-7.7629	-93.465748	0.000872	8.715972	2.953051	0.000349
1815	1.8049e+02	-7.7244	-93.146814	0.000801	8.006533	2.712687	0.000321
1816	1.8059e+02	-7.6859	-92.799621	0.000872	8.715972	2.953051	0.000349
1817	1.8069e+02	-7.6442	-92.444353	0.000892	8.918669	3.021727	0.000357
1818	1.8079e+02	-7.6057	-92.089085	0.000892	8.918669	3.021727	0.000357
1819	1.8089e+02	-7.5624	-91.770151	0.000801	8.006533	2.712687	0.000321
1820	1.8099e+02	-7.5319	-91.447180	0.000811	8.107881	2.747025	0.000325
1821	1.8109e+02	-7.4805	-91.011170	0.001095	10.945640	3.708483	0.000438
1822	1.8119e+02	-7.4436	-90.680124	0.000831	8.310578	2.815700	0.000333
1823	1.8129e+02	-7.3987	-90.316782	0.000912	9.121367	3.090403	0.000365
1824	1.8139e+02	-7.3682	-89.981700	0.000841	8.411927	2.850038	0.000337
1825	1.8149e+02	-7.3217	-89.666803	0.000791	7.905184	2.678349	0.000316
1826	1.8159e+02	-7.2816	-89.267127	0.001003	10.033503	3.399443	0.000402
1827	1.8169e+02	-7.2463	-88.980490	0.000720	7.195745	2.437984	0.000288
1828	1.8179e+02	-7.1966	-88.609074	0.000932	9.324064	3.159078	0.000373
1829	1.8189e+02	-7.1677	-88.241694	0.000922	9.222715	3.124740	0.000369
1830	1.8199e+02	-7.1244	-87.850092	0.000983	9.830806	3.330767	0.000394
1831	1.8209e+02	-7.0811	-87.535196	0.000791	7.905184	2.678349	0.000316
1832	1.8218e+02	-7.0410	-87.188002	0.000872	8.715972	2.953051	0.000349
1833	1.8228e+02	-7.0121	-86.820623	0.000922	9.222715	3.124740	0.000369
1834	1.8238e+02	-6.9768	-86.457280	0.000912	9.121367	3.090403	0.000365
1835	1.8248e+02	-6.9239	-86.114124	0.000861	8.614624	2.918714	0.000345
1836	1.8258e+02	-6.8822	-85.770967	0.000861	8.614624	2.918714	0.000345
1837	1.8268e+02	-6.8549	-85.411662	0.000902	9.020018	3.056065	0.000361
1838	1.8278e+02	-6.8068	-85.032171	0.000953	9.526761	3.227754	0.000381
1839	1.8288e+02	-6.7683	-84.664792	0.000922	9.222715	3.124740	0.000369
1840	1.8298e+02	-6.7249	-84.293376	0.000932	9.324064	3.159078	0.000373
1841	1.8308e+02	-6.6864	-83.901773	0.000983	9.830806	3.330767	0.000394
1842	1.8318e+02	-6.6399	-83.562654	0.000851	8.513275	2.884376	0.000341
1843	1.8328e+02	-6.6062	-83.219498	0.000861	8.614624	2.918714	0.000345
1844	1.8338e+02	-6.5629	-82.892490	0.000821	8.209230	2.781362	0.000329
1845	1.8348e+02	-6.5260	-82.504925	0.000973	9.729458	3.296429	0.000390
1846	1.8358e+02	-6.4875	-82.133508	0.000932	9.324064	3.159078	0.000373
1847	1.8368e+02	-6.4602	-81.786314	0.000872	8.715972	2.953051	0.000349
1848	1.8378e+02	-6.4137	-81.467381	0.000801	8.006533	2.712687	0.000321
1849	1.8388e+02	-6.3720	-81.100001	0.000922	9.222715	3.124740	0.000369
1850	1.8398e+02	-6.3303	-80.728585	0.000932	9.324064	3.159078	0.000373
1851	1.8407e+02	-6.2950	-80.393503	0.000841	8.411927	2.850038	0.000337
1852	1.8417e+02	-6.2613	-79.985752	0.001024	10.236200	3.468119	0.000410
1853	1.8427e+02	-6.2100	-79.634521	0.000882	8.817321	2.987389	0.000353
1854	1.8437e+02	-6.1779	-79.263105	0.000932	9.324064	3.159078	0.000373
1855	1.8447e+02	-6.1330	-78.879577	0.000963	9.628109	3.262092	0.000385
1856	1.8457e+02	-6.0945	-78.568717	0.000780	7.803836	2.644011	0.000312
1857	1.8467e+02	-6.0560	-78.144818	0.001064	10.641594	3.605470	0.000426
1858	1.8477e+02	-6.0159	-77.741104	0.001013	10.134852	3.433781	0.000406
1859	1.8487e+02	-5.9822	-77.401985	0.000851	8.513275	2.884376	0.000341
1860	1.8497e+02	-5.9260	-77.030568	0.000932	9.324064	3.159078	0.000373
1861	1.8507e+02	-5.8843	-76.647041	0.000963	9.628109	3.262092	0.000385
1862	1.8517e+02	-5.8474	-76.287735	0.000902	9.020018	3.056065	0.000361
1863	1.8527e+02	-5.8137	-75.936505	0.000882	8.817321	2.987389	0.000353
1864	1.8537e+02	-5.7784	-75.589311	0.000872	8.715972	2.953051	0.000349
1865	1.8547e+02	-5.7335	-75.230006	0.000902	9.020018	3.056065	0.000361
1866	1.8557e+02	-5.6902	-74.838404	0.000983	9.830806	3.330767	0.000394
1867	1.8567e+02	-5.6645	-74.458913	0.000953	9.526761	3.227754	0.000381
1868	1.8577e+02	-5.6148	-74.067311	0.000983	9.830806	3.330767	0.000394
1869	1.8587e+02	-5.5747	-73.708006	0.000902	9.020018	3.056065	0.000361
1870	1.8597e+02	-5.5314	-73.328515	0.000953	9.526761	3.227754	0.000381
1871	1.8606e+02	-5.4929	-72.989396	0.000851	8.513275	2.884376	0.000341
1872	1.8616e+02	-5.4560	-72.545311	0.001115	11.148337	3.777159	0.000446
1873	1.8626e+02	-5.4159	-72.238488	0.000770	7.702487	2.609673	0.000308
1874	1.8636e+02	-5.3726	-71.887258	0.000882	8.817321	2.987389	0.000353
1875	1.8646e+02	-5.3373	-71.467395	0.001054	10.540246	3.571132	0.000422
1876	1.8656e+02	-5.2988	-71.059645	0.001024	10.236200	3.468119	0.000410
1877	1.8666e+02	-5.2523	-70.639783	0.001054	10.540246	3.571132	0.000422
1878	1.8676e+02	-5.2122	-70.304700	0.000841	8.411927	2.850038	0.000337
1879	1.8686e+02	-5.1785	-69.961544	0.000861	8.614624	2.918714	0.000345
1880	1.8696e+02	-5.1271	-69.582053	0.000953	9.526761	3.227754	0.000381
1881	1.8706e+02	-5.0854	-69.218711	0.000912	9.121367	3.090403	0.000365
1882	1.8716e+02	-5.0549	-68.823071	0.000993	9.932155	3.365105	0.000398
1883	1.8726e+02	-5.0180	-68.475878	0.000872	8.715972	2.953051	0.000349
1884	1.8736e+02	-4.9779	-68.088313	0.000973	9.729458	3.296429	0.000390
1885	1.8746e+02	-4.9426	-67.716896	0.000932	9.324064	3.159078	0.000373
1886	1.8756e+02	-4.8897	-67.301071	0.001044	10.438897	3.536794	0.000418
1887	1.8766e+02	-4.8544	-66.953878	0.000872	8.715972	2.953051	0.000349
1888	1.8776e+02	-4.8207	-66.578424	0.000943	9.425412	3.193416	0.000377
1889	1.8786e+02	-4.7758	-66.186822	0.000983	9.830806	3.330767	0.000394
1890	1.8796e+02	-4.7293	-65.815405	0.000932	9.324064	3.159078	0.000373
1891	1.8806e+02	-4.6940	-65.435915	0.000953	9.526761	3.227754	0.000381
1892	1.8815e+02	-4.6555	-65.060461	0.000943	9.425412	3.193416	0.000377
1893	1.8825e+02	-4.6138	-64.652710	0.001024	10.236200	3.468119	0.000410
1894	1.8835e+02	-4.5753	-64.257071	0.000993	9.932155	3.365105	0.000398
1895	1.8845e+02	-4.5448	-63.845283	0.001034	10.337549	3.502456	0.000414
1896	1.8855e+02	-4.5031	-63.457718	0.000973	9.729458	3.296429	0.000390
1897	1.8865e+02	-4.4566	-63.094376	0.000912	9.121367	3.090403	0.000365
1898	1.8875e+02	-4.4148	-62.694699	0.001003	10.033503	3.399443	0.000402
1899	1.8885e+02	-4.3812	-62.339431	0.000892	8.918669	3.021727	0.000357
1900	1.8895e+02	-4.3411	-61.976089	0.000912	9.121367	3.090403	0.000365
1901	1.8905e+02	-4.2993	-61.620821	0.000892	8.918669	3.021727	0.000357
1902	1.8915e+02	-4.2560	-61.209033	0.001034	10.337549	3.502456	0.000414
1903	1.8925e+02	-4.2127	-60.785134	0.001064	10.641594	3.605470	0.000426
1904	1.8935e+02	-4.1758	-60.405643	0.000953	9.526761	3.227754	0.000381
1905	1.8945e+02	-4.1453	-60.010004	0.000993	9.932155	3.365105	0.000398
1906	1.8955e+02	-4.0988	-59.602253	0.001024	10.236200	3.468119	0.000410
1907	1.8965e+02	-4.0699	-59.206614	0.000993	9.932155	3.365105	0.000398
1908	1.8975e+02	-4.0266	-58.831161	0.000943	9.425412	3.193416	0.000377
1909	1.8985e+02	-3.9817	-58.459744	0.000932	9.324064	3.159078	0.000373
1910	1.8995e+02	-3.9464	-58.039882	0.001054	10.540246	3.571132	0.000422
1911	1.9004e+02	-3.8983	-57.680577	0.000902	9.020018	3.056065	0.000361
1912	1.9014e+02	-3.8550	-57.260715	0.001054	10.540246	3.571132	0.000422
1913	1.9024e+02	-3.8261	-56.844890	0.001044	10.438897	3.536794	0.000418
1914	1.9034e+02	-3.7828	-56.437139	0.001024	10.236200	3.468119	0.000410
1915	1.9044e+02	-3.7475	-56.017277	0.001054	10.540246	3.571132	0.000422
1916	1.9054e+02	-3.6978	-55.653935	0.000912	9.121367	3.090403	0.000365
1917	1.9064e+02	-3.6593	-55.306741	0.000872	8.715972	2.953051	0.000349
1918	1.9074e+02	-3.6191	-54.907065	0.001003	10.033503	3.399443	0.000402
1919	1.9084e+02	-3.5839	-54.503351	0.001013	10.134852	3.433781	0.000406
1920	1.9094e+02	-3.5405	-54.131935	0.000932	9.324064	3.159078	0.000373
1921	1.9104e+02	-3.5036	-53.699961	0.001084	10.844291	3.674145	0.000434
1922	1.9114e+02	-3.4587	-53.340656	0.000902	9.020018	3.056065	0.000361
1923	1.9124e+02	-3.4250	-52.928868	0.001034	10.337549	3.502456	0.000414
1924	1.9134e+02	-3.3881	-52.549377	0.000953	9.526761	3.227754	0.000381
1925	1.9144e+02	-3.3400	-52.149701	0.001003	10.033503	3.399443	0.000402
1926	1.9154e+02	-3.2999	-51.725802	0.001064	10.641594	3.605470	0.000426
1927	1.9164e+02	-3.2694	-51.330162	0.000993	9.932155	3.365105	0.000398
1928	1.9174e+02	-3.2213	-50.918374	0.001034	10.337549	3.502456	0.000414
1929	1.9184e+02	-3.1780	-50.538884	0.000953	9.526761	3.227754	0.000381
1930	1.9194e+02	-3.1411	-50.106910	0.001084	10.844291	3.674145	0.000434
1931	1.9203e+02	-3.1058	-49.683011	0.001064	10.641594	3.605470	0.000426
1932	1.9213e+02	-3.0689	-49.299483	0.000963	9.628109	3.262092	0.000385
1933	1.9223e+02	-3.0272	-48.871547	0.001074	10.742943	3.639808	0.000430
1934	1.9233e+02	-2.9775	-48.447647	0.001064	10.641594	3.605470	0.000426
1935	1.9243e+02	-2.9454	-48.076231	0.000932	9.324064	3.159078	0.000373
1936	1.9253e+02	-2.9037	-47.729037	0.000872	8.715972	2.953051	0.000349
1937	1.9263e+02	-2.8716	-47.321287	0.001024	10.236200	3.468119	0.000410
1938	1.9273e+02	-2.8234	-46.921610	0.001003	10.033503	3.399443	0.000402
1939	1.9283e+02	-2.7930	-46.497711	0.001064	10.641594	3.605470	0.000426
1940	1.9293e+02	-2.7400	-46.098034	0.001003	10.033503	3.399443	0.000402
1941	1.9303e+02	-2.7015	-45.710469	0.000973	9.729458	3.296429	0.000390
1942	1.9313e+02	-2.6662	-45.262347	0.001125	11.249685	3.811497	0.000450
1943	1.9323e+02	-2.6309	-44.862671	0.001003	10.033503	3.399443	0.000402
1944	1.9333e+02	-2.5892	-44.454920	0.001024	10.236200	3.468119	0.000410
1945	1.9343e+02	-2.5411	-44.055244	0.001003	10.033503	3.399443	0.000402
1946	1.9353e+02	-2.5026	-43.631344	0.001064	10.641594	3.605470	0.000426
1947	1.9363e+02	-2.4657	-43.247817	0.000963	9.628109	3.262092	0.000385
1948	1.9373e+02	-2.4272	-42.864289	0.000963	9.628109	3.262092	0.000385
1949	1.9383e+02	-2.3823	-42.432315	0.001084	10.844291	3.674145	0.000434
1950	1.9393e+02	-2.3502	-41.947859	0.001216	12.161822	4.120537	0.000487
1951	1.9403e+02	-2.3069	-41.532034	0.001044	10.438897	3.536794	0.000418
1952	1.9412e+02	-2.2700	-41.192915	0.000851	8.513275	2.884376	0.000341
1953	1.9422e+02	-2.2251	-40.781127	0.001034	10.337549	3.502456	0.000414
1954	1.9432e+02	-2.1882	-40.373376	0.001024	10.236200	3.468119	0.000410
1955	1.9442e+02	-2.1433	-39.977737	0.000993	9.932155	3.365105	0.000398
1956	1.9452e+02	-2.0999	-39.549800	0.001074	10.742943	3.639808	0.000430
1957	1.9462e+02	-2.0743	-39.186458	0.000912	9.121367	3.090403	0.000365
1958	1.9472e+02	-2.0278	-38.754485	0.001084	10.844291	3.674145	0.000434
1959	1.9482e+02	-1.9796	-38.358845	0.000993	9.932155	3.365105	0.000398
1960	1.9492e+02	-1.9459	-37.866315	0.001236	12.364519	4.189212	0.000495
1961	1.9502e+02	-1.9074	-37.490861	0.000943	9.425412	3.193416	0.000377
1962	1.9512e+02	-1.8689	-37.087147	0.001013	10.134852	3.433781	0.000406
1963	1.9522e+02	-1.8320	-36.634988	0.001135	11.351034	3.845834	0.000454
1964	1.9532e+02	-1.7823	-36.235312	0.001003	10.033503	3.399443	0.000402
1965	1.9542e+02	-1.7631	-35.811413	0.001064	10.641594	3.605470	0.000426
1966	1.9552e+02	-1.7053	-35.395588	0.001044	10.438897	3.536794	0.000418
1967	1.9562e+02	-1.6684	-34.975725	0.001054	10.540246	3.571132	0.000422
1968	1.9572e+02	-1.6395	-34.519529	0.001145	11.452382	3.880172	0.000458
1969	1.9582e+02	-1.5834	-34.083518	0.001095	10.945640	3.708483	0.000438
1970	1.9592e+02	-1.5465	-33.695953	0.000973	9.729458	3.296429	0.000390
1971	1.9601e+02	-1.5064	-33.239757	0.001145	11.452382	3.880172	0.000458
1972	1.9611e+02	-1.4711	-32.868341	0.000932	9.324064	3.159078	0.000373
1973	1.9621e+02	-1.4294	-32.480776	0.000973	9.729458	3.296429	0.000390
1974	1.9631e+02	-1.4005	-32.028616	0.001135	11.351034	3.845834	0.000454
1975	1.9641e+02	-1.3492	-31.620866	0.001024	10.236200	3.468119	0.000410
1976	1.9651e+02	-1.3155	-31.152558	0.001176	11.756428	3.983186	0.000471
1977	1.9661e+02	-1.2722	-30.752881	0.001003	10.033503	3.399443	0.000402
1978	1.9671e+02	-1.2304	-30.369354	0.000963	9.628109	3.262092	0.000385
1979	1.9681e+02	-1.1887	-29.941417	0.001074	10.742943	3.639808	0.000430
1980	1.9691e+02	-1.1390	-29.497332	0.001115	11.148337	3.777159	0.000446
1981	1.9701e+02	-1.1133	-29.117842	0.000953	9.526761	3.227754	0.000381
1982	1.9711e+02	-1.0732	-28.641459	0.001196	11.959125	4.051861	0.000479
1983	1.9721e+02	-1.0331	-28.233709	0.001024	10.236200	3.468119	0.000410
1984	1.9731e+02	-0.9866	-27.789624	0.001115	11.148337	3.777159	0.000446
1985	1.9741e+02	-0.9545	-27.398022	0.000983	9.830806	3.330767	0.000394
1986	1.9751e+02	-0.9144	-26.929714	0.001176	11.756428	3.983186	0.000471
1987	1.9761e+02	-0.8727	-26.489666	0.001105	11.046988	3.742821	0.000442
1988	1.9771e+02	-0.8406	-26.085953	0.001013	10.134852	3.433781	0.000406
1989	1.9781e+02	-0.7941	-25.649942	0.001095	10.945640	3.708483	0.000438
1990	1.9791e+02	-0.7508	-25.230080	0.001054	10.540246	3.571132	0.000422
1991	1.9800e+02	-0.7171	-24.806181	0.001064	10.641594	3.605470	0.000426
1992	1.9810e+02	-0.6802	-24.390356	0.001044	10.438897	3.536794	0.000418
1993	1.9820e+02	-0.6369	-23.970493	0.001054	10.540246	3.571132	0.000422
1994	1.9830e+02	-0.5984	-23.546594	0.001064	10.641594	3.605470	0.000426
1995	1.9840e+02	-0.5535	-23.159029	0.000973	9.729458	3.296429	0.000390
1996	1.9850e+02	-0.5085	-22.727056	0.001084	10.844291	3.674145	0.000434
1997	1.9860e+02	-0.4749	-22.287008	0.001105	11.046988	3.742821	0.000442
1998	1.9870e+02	-0.4347	-21.850997	0.001095	10.945640	3.708483	0.000438
1999	1.9880e+02	-0.4059	-21.398838	0.001135	11.351034	3.845834	0.000454
2000	1.9890e+02	-0.3561	-20.987050	0.001034	10.337549	3.502456	0.000414
2001	1.9900e+02	-0.3128	-20.538928	0.001125	11.249685	3.811497	0.000450
2002	1.9910e+02	-0.2807	-20.106955	0.001084	10.844291	3.674145	0.000434
2003	1.9920e+02	-0.2310	-19.707278	0.001003	10.033503	3.399443	0.000402
2004	1.9930e+02	-0.1973	-19.230896	0.001196	11.959125	4.051861	0.000479
2005	1.9940e+02	-0.1556	-18.819108	0.001034	10.337549	3.502456	0.000414
2006	1.9950e+02	-0.1155	-18.334652	0.001216	12.161822	4.120537	0.000487
2007	1.9960e+02	-0.0706	-17.955161	0.000953	9.526761	3.227754	0.000381
2008	1.9970e+02	-0.0273	-17.519151	0.001095	10.945640	3.708483	0.000438
2009	1.9980e+02	0.0112	-17.066991	0.001095	10.945640	3.708483	0.000454

PMax (uC/cm2):	2.32e+02
Pr (uC/cm2):	9.68e+01
-Pr (uC/cm2):	4.61e+01
PLoss (uC/cm2):	4.61e+01
Vc:	-4.46e+00
-Vc:	-9.20e+00
C (Max-Eff) (nF):	1.16e+00
K (Eff):	3.93e+03
Vert. (+/-Pr) Shift (uC/cm2):	7.14e+01
Horiz. Shift (+/-Vc):	-6.83e+00
Offset (uC/cm2):	6.31e+01

A (Loop Area - uC/cm2·Volts):	-2.51e+00



Hysteresis Version: 5.48.1 - Radiant Technologies, Inc., 1999 - 9/12/24

