»»»»»»»»»»»»»»»»»»»»»»»»»»»»»»»»»»»» Hysteresis ««««««««««««««««««««««««««««««««««««
»»»  Executed Version:	5.48.1
»»»  Vision Version:	5.48.4 (R)
»»»  Vision Compiled:	9/18/24
»»»  Driver Version:	5.47.0
»»»  Windows Version:	Windows 8 or 8.1
»»»  Processor Information:	x86 (AMD or Intel) - 32 Processors
»»»  Tester Name:	PMF21124-494 (100V)
»»»  Tester S/N:	PMF21124-494
»»»  Internal Amp Type:	100V RevK 270k
»»»  Internal Amp S/N:	iAB2-596/K     
»»»  Execution Count:	1
»»»»»»»»»»»»»»»»»»»»»»»»»»»»»»»»»»»»»»»»»»««««««««««««««««««««««««««««««««««««««««««

Stored:	6/18/2025 - 16:13:39
Configured:	06/18/25 09:47:30 AM
Executed:	06/18/25 04:13:01 PM

»»»»»»»»»»»»»»»»»»»»»»»»»»»»»»»»»»» Sample Info ««««««««««««««««««««««««««««««««««««
Sample Name:	
Lot Name:	
Wafer Name:	
Die Row/Column:	0/0
Capacitor Number:	0
Sample Area (cm2):	1.00e-04
Sample Thickness (microns):	3.00e-01

Amplifier:	Internal

»»»»»»»»»»»»»»»»»»»»»»»»»»»»»»»»»»» Tester Info «««««««««««««««««««««««««««««««««««
Tester Name:	PMF21124-494 (100V)
Tester Serial Number:	PMF21124-494
Return Signal Amp. Level:	0.19 [Index: 3]

»»»»»»»»»»»»»»»»»»»»»»»»»»»»»»»» Hysteresis Info ««««««««««««««««««««««««««««««««««
Task Name:	Hyst-554
Volts:	20.00
Field:	666.67 (kV/cm)
DCBias:	0.00
DCField:	0.00 (kV/cm)
Hysteresis Period (ms):	1.00e+00
Preset:	Enabled
Preset Delay (ms):	1.00e+03
Profile:	Standard Bipolar

»»»»»»»»»»»»»»»»»»»»»»»»»»»»»»»»»»»»»» Data «««««««««««««««««««««««««««««««««««««««
Points:	2001

Valid Data

Point	Time (ms)	Drive Voltage	Measured Polarization (uC/cm2)	Capacitance (uF)	Normalized Capacitance (uF/cm2)	Dielectric Constant	Instantaneous Current (mA)
   1	0.0000e+00	0.0128	-16.424794	0.001060	10.602633	3.592269	0.084695
   2	5.0000e-04	0.0321	-16.001319	0.001060	10.602633	3.592269	0.084695
   3	1.0000e-03	0.0545	-16.247338	-0.000616	-6.159625	-2.086937	-0.049204
   4	1.5000e-03	0.0914	-15.960988	0.000717	7.169399	2.429058	0.057270
   5	2.0000e-03	0.1364	-15.735134	0.000565	5.654738	1.915877	0.045171
   6	2.5000e-03	0.1620	-15.259229	0.001192	11.915340	4.037026	0.095181
   7	3.0000e-03	0.2150	-14.823654	0.001091	10.905565	3.694906	0.087115
   8	3.5000e-03	0.2551	-14.642164	0.000454	4.543986	1.539544	0.036298
   9	4.0000e-03	0.2968	-14.004935	0.001595	15.954438	5.405510	0.127446
  10	4.5000e-03	0.3321	-13.694386	0.000778	7.775264	2.634331	0.062110
  11	5.0000e-03	0.3674	-13.428202	0.000666	6.664512	2.257998	0.053237
  12	5.5000e-03	0.4091	-13.085388	0.000858	8.583084	2.908028	0.068563
  13	6.0000e-03	0.4476	-12.851469	0.000586	5.856693	1.984301	0.046784
  14	6.5000e-03	0.4861	-12.516722	0.000838	8.381129	2.839603	0.066949
  15	7.0000e-03	0.5310	-12.133577	0.000959	9.592858	3.250148	0.076629
  16	7.5000e-03	0.5679	-11.673804	0.001151	11.511430	3.900178	0.091955
  17	8.0000e-03	0.6160	-11.383421	0.000727	7.270377	2.463270	0.058077
  18	8.5000e-03	0.6513	-11.137402	0.000616	6.159625	2.086937	0.049204
  19	9.0000e-03	0.6914	-10.939780	0.000495	4.947895	1.676392	0.039524
  20	9.5000e-03	0.7396	-10.383212	0.001393	13.934889	4.721268	0.111314
  21	1.0000e-02	0.7588	-9.895207	0.001222	12.218272	4.139663	0.097601
  22	1.0500e-02	0.8101	-9.491898	0.001010	10.097746	3.421209	0.080662
  23	1.1000e-02	0.8551	-9.411236	0.000202	2.019549	0.684242	0.016132
  24	1.1500e-02	0.8936	-8.927264	0.001212	12.117295	4.105451	0.096794
  25	1.2000e-02	0.9256	-8.519921	0.001020	10.198723	3.455421	0.081469
  26	1.2500e-02	0.9818	-8.326332	0.000485	4.846918	1.642180	0.038718
  27	1.3000e-02	1.0107	-8.124677	0.000505	5.048873	1.710604	0.040331
  28	1.3500e-02	1.0540	-7.640705	0.001212	12.117295	4.105451	0.096794
  29	1.4000e-02	1.0925	-7.184965	0.001141	11.410453	3.865966	0.091148
  30	1.4500e-02	1.1278	-6.785688	0.001000	9.996768	3.386997	0.079855
  31	1.5000e-02	1.1695	-6.293650	0.001232	12.319250	4.173875	0.098408
  32	1.5500e-02	1.2096	-5.862109	0.001080	10.804588	3.660694	0.086308
  33	1.6000e-02	1.2577	-5.733050	0.000323	3.231279	1.094787	0.025812
  34	1.6500e-02	1.2850	-5.656421	0.000192	1.918572	0.650030	0.015326
  35	1.7000e-02	1.3363	-5.019191	0.001595	15.954438	5.405510	0.127446
  36	1.7500e-02	1.3796	-4.773172	0.000616	6.159625	2.086937	0.049204
  37	1.8000e-02	1.4085	-4.402127	0.000929	9.289926	3.147512	0.074209
  38	1.8500e-02	1.4454	-3.938321	0.001161	11.612408	3.934390	0.092761
  39	1.9000e-02	1.4855	-3.631805	0.000767	7.674287	2.600119	0.061303
  40	1.9500e-02	1.5353	-3.325290	0.000767	7.674287	2.600119	0.061303
  41	2.0000e-02	1.5754	-2.893748	0.001080	10.804588	3.660694	0.086308
  42	2.0500e-02	1.6155	-2.510604	0.000959	9.592858	3.250148	0.076629
  43	2.1000e-02	1.6524	-2.204088	0.000767	7.674287	2.600119	0.061303
  44	2.1500e-02	1.6877	-1.905639	0.000747	7.472332	2.531695	0.059690
  45	2.2000e-02	1.7294	-1.570892	0.000838	8.381129	2.839603	0.066949
  46	2.2500e-02	1.7727	-1.111119	0.001151	11.511430	3.900178	0.091955
  47	2.3000e-02	1.8080	-0.865100	0.000616	6.159625	2.086937	0.049204
  48	2.3500e-02	1.8625	-0.538419	0.000818	8.179174	2.771179	0.065336
  49	2.4000e-02	1.8930	0.086712	0.001565	15.651506	5.302874	0.125026
  50	2.4500e-02	1.9235	0.590849	0.001262	12.622182	4.276511	0.100827
  51	2.5000e-02	1.9732	0.816702	0.000565	5.654738	1.915877	0.045171
  52	2.5500e-02	1.9973	1.276476	0.001151	11.511430	3.900178	0.091955
  53	2.6000e-02	2.0502	1.413601	0.000343	3.433234	1.163211	0.027425
  54	2.6500e-02	2.0919	1.889507	0.001192	11.915340	4.037026	0.095181
  55	2.7000e-02	2.1368	2.143592	0.000636	6.361580	2.155362	0.050817
  56	2.7500e-02	2.1737	2.591266	0.001121	11.208498	3.797542	0.089535
  57	2.8000e-02	2.2138	2.913914	0.000808	8.078197	2.736967	0.064530
  58	2.8500e-02	2.2523	3.280926	0.000919	9.188949	3.113300	0.073402
  59	2.9000e-02	2.3037	3.656004	0.000939	9.390904	3.181724	0.075016
  60	2.9500e-02	2.3390	4.023016	0.000919	9.188949	3.113300	0.073402
  61	3.0000e-02	2.3743	4.349697	0.000818	8.179174	2.771179	0.065336
  62	3.0500e-02	2.4031	5.055489	0.001767	17.671055	5.987116	0.141158
  63	3.1000e-02	2.4465	5.265210	0.000525	5.250828	1.779029	0.041944
  64	3.1500e-02	2.4914	5.450733	0.000464	4.644963	1.573756	0.037105
  65	3.2000e-02	2.5251	5.825811	0.000939	9.390904	3.181724	0.075016
  66	3.2500e-02	2.5780	6.156525	0.000828	8.280152	2.805391	0.066143
  67	3.3000e-02	2.6069	6.559835	0.001010	10.097746	3.421209	0.080662
  68	3.3500e-02	2.6566	6.987343	0.001070	10.703611	3.626481	0.085502
  69	3.4000e-02	2.6839	7.435017	0.001121	11.208498	3.797542	0.089535
  70	3.4500e-02	2.7288	7.789930	0.000889	8.886016	3.010664	0.070983
  71	3.5000e-02	2.7769	8.189207	0.001000	9.996768	3.386997	0.079855
  72	3.5500e-02	2.8058	8.584450	0.000990	9.895791	3.352785	0.079049
  73	3.6000e-02	2.8507	8.903065	0.000798	7.977219	2.702755	0.063723
  74	3.6500e-02	2.8908	9.306375	0.001010	10.097746	3.421209	0.080662
  75	3.7000e-02	2.9357	9.600791	0.000737	7.371354	2.497482	0.058883
  76	3.7500e-02	2.9726	10.125094	0.001313	13.127069	4.447572	0.104861
  77	3.8000e-02	3.0192	10.532437	0.001020	10.198723	3.455421	0.081469
  78	3.8500e-02	3.0464	10.939780	0.001020	10.198723	3.455421	0.081469
  79	3.9000e-02	3.0962	11.306792	0.000919	9.188949	3.113300	0.073402
  80	3.9500e-02	3.1234	11.653638	0.000868	8.684061	2.942240	0.069369
  81	4.0000e-02	3.1668	12.044849	0.000979	9.794813	3.318573	0.078242
  82	4.0500e-02	3.2133	12.395729	0.000879	8.785039	2.976452	0.070176
  83	4.1000e-02	3.2598	12.855502	0.001151	11.511430	3.900178	0.091955
  84	4.1500e-02	3.2951	13.069256	0.000535	5.351805	1.813241	0.042751
  85	4.2000e-02	3.3352	13.448367	0.000949	9.491881	3.215936	0.075822
  86	4.2500e-02	3.3769	13.730684	0.000707	7.068422	2.394846	0.056463
  87	4.3000e-02	3.4122	14.121895	0.000979	9.794813	3.318573	0.078242
  88	4.3500e-02	3.4587	14.380013	0.000646	6.462557	2.189574	0.051624
  89	4.4000e-02	3.4892	15.041441	0.001656	16.560303	5.610783	0.132286
  90	4.4500e-02	3.5373	15.432652	0.000979	9.794813	3.318573	0.078242
  91	4.5000e-02	3.5758	15.735134	0.000757	7.573309	2.565907	0.060496
  92	4.5500e-02	3.6159	16.118279	0.000959	9.592858	3.250148	0.076629
  93	4.6000e-02	3.6528	16.420761	0.000757	7.573309	2.565907	0.060496
  94	4.6500e-02	3.6929	16.779707	0.000899	8.986994	3.044876	0.071789
  95	4.7000e-02	3.7282	17.098322	0.000798	7.977219	2.702755	0.063723
  96	4.7500e-02	3.7716	17.578260	0.001202	12.016317	4.071239	0.095988
  97	4.8000e-02	3.8165	18.070298	0.001232	12.319250	4.173875	0.098408
  98	4.8500e-02	3.8486	18.336483	0.000666	6.664512	2.257998	0.053237
  99	4.9000e-02	3.8903	18.727693	0.000979	9.794813	3.318573	0.078242
 100	4.9500e-02	3.9336	19.284261	0.001393	13.934889	4.721268	0.111314
 101	5.0000e-02	3.9785	19.582710	0.000747	7.472332	2.531695	0.059690
 102	5.0500e-02	4.0186	19.808564	0.000565	5.654738	1.915877	0.045171
 103	5.1000e-02	4.0571	20.264304	0.001141	11.410453	3.865966	0.091148
 104	5.1500e-02	4.1036	20.562753	0.000747	7.472332	2.531695	0.059690
 105	5.2000e-02	4.1261	21.070924	0.001272	12.723160	4.310723	0.101634
 106	5.2500e-02	4.1710	21.498432	0.001070	10.703611	3.626481	0.085502
 107	5.3000e-02	4.2111	21.687988	0.000475	4.745941	1.607968	0.037911
 108	5.3500e-02	4.2641	22.147761	0.001151	11.511430	3.900178	0.091955
 109	5.4000e-02	4.2897	22.720461	0.001434	14.338799	4.858117	0.114540
 110	5.4500e-02	4.3378	23.107638	0.000969	9.693836	3.284361	0.077435
 111	5.5000e-02	4.3731	23.567412	0.001151	11.511430	3.900178	0.091955
 112	5.5500e-02	4.4068	23.833596	0.000666	6.664512	2.257998	0.053237
 113	5.6000e-02	4.4501	24.208674	0.000939	9.390904	3.181724	0.075016
 114	5.6500e-02	4.4983	24.442594	0.000586	5.856693	1.984301	0.046784
 115	5.7000e-02	4.5320	24.910434	0.001171	11.713385	3.968602	0.093568
 116	5.7500e-02	4.5721	25.563795	0.001636	16.358348	5.542358	0.130672
 117	5.8000e-02	4.6122	25.995337	0.001080	10.804588	3.660694	0.086308
 118	5.8500e-02	4.6571	26.108264	0.000283	2.827369	0.957938	0.022585
 119	5.9000e-02	4.6908	26.463176	0.000889	8.886016	3.010664	0.070983
 120	5.9500e-02	4.7421	26.886652	0.001060	10.602633	3.592269	0.084695
 121	6.0000e-02	4.7533	27.479517	0.001484	14.843686	5.029177	0.118573
 122	6.0500e-02	4.8143	27.806198	0.000818	8.179174	2.771179	0.065336
 123	6.1000e-02	4.8512	28.028019	0.000555	5.553760	1.881665	0.044364
 124	6.1500e-02	4.8897	28.447461	0.001050	10.501656	3.558057	0.083888
 125	6.2000e-02	4.9298	28.935466	0.001222	12.218272	4.139663	0.097601
 126	6.2500e-02	4.9747	29.133088	0.000495	4.947895	1.676392	0.039524
 127	6.3000e-02	5.0084	29.657391	0.001313	13.127069	4.447572	0.104861
 128	6.3500e-02	5.0549	30.189760	0.001333	13.329024	4.515996	0.106474
 129	6.4000e-02	5.0918	30.580970	0.000979	9.794813	3.318573	0.078242
 130	6.4500e-02	5.1335	31.000412	0.001050	10.501656	3.558057	0.083888
 131	6.5000e-02	5.1624	31.286762	0.000717	7.169399	2.429058	0.057270
 132	6.5500e-02	5.2073	31.653774	0.000919	9.188949	3.113300	0.073402
 133	6.6000e-02	5.2490	31.859462	0.000515	5.149850	1.744817	0.041138
 134	6.6500e-02	5.2924	32.379732	0.001303	13.026092	4.413359	0.104054
 135	6.7000e-02	5.3309	32.875803	0.001242	12.420227	4.208087	0.099214
 136	6.7500e-02	5.3710	33.121822	0.000616	6.159625	2.086937	0.049204
 137	6.8000e-02	5.4111	33.517066	0.000990	9.895791	3.352785	0.079049
 138	6.8500e-02	5.4448	33.908276	0.000979	9.794813	3.318573	0.078242
 139	6.9000e-02	5.4849	34.255123	0.000868	8.684061	2.942240	0.069369
 140	6.9500e-02	5.5314	34.977048	0.001807	18.074965	6.123964	0.144385
 141	7.0000e-02	5.5763	35.259365	0.000707	7.068422	2.394846	0.056463
 142	7.0500e-02	5.6100	35.783667	0.001313	13.127069	4.447572	0.104861
 143	7.1000e-02	5.6453	36.178911	0.000990	9.895791	3.352785	0.079049
 144	7.1500e-02	5.6966	36.477360	0.000747	7.472332	2.531695	0.059690
 145	7.2000e-02	5.7287	36.763710	0.000717	7.169399	2.429058	0.057270
 146	7.2500e-02	5.7752	37.328344	0.001414	14.136844	4.789692	0.112927
 147	7.3000e-02	5.8137	37.586462	0.000646	6.462557	2.189574	0.051624
 148	7.3500e-02	5.8506	38.227725	0.001606	16.055416	5.439722	0.128253
 149	7.4000e-02	5.8988	38.554406	0.000818	8.179174	2.771179	0.065336
 150	7.4500e-02	5.9437	38.808491	0.000636	6.361580	2.155362	0.050817
 151	7.5000e-02	5.9645	39.268265	0.001151	11.511430	3.900178	0.091955
 152	7.5500e-02	6.0175	39.506217	0.000596	5.957670	2.018513	0.047591
 153	7.6000e-02	6.0576	40.034553	0.001323	13.228047	4.481784	0.105667
 154	7.6500e-02	6.0849	40.522558	0.001222	12.218272	4.139663	0.097601
 155	7.7000e-02	6.1282	40.881504	0.000899	8.986994	3.044876	0.071789
 156	7.7500e-02	6.1731	41.232384	0.000879	8.785039	2.976452	0.070176
 157	7.8000e-02	6.2036	41.744587	0.001282	12.824137	4.344935	0.102441
 158	7.8500e-02	6.2597	41.893812	0.000374	3.736166	1.265847	0.029845
 159	7.9000e-02	6.2966	42.373750	0.001202	12.016317	4.071239	0.095988
 160	7.9500e-02	6.3271	42.845623	0.001181	11.814363	4.002814	0.094375
 161	8.0000e-02	6.3688	43.341694	0.001242	12.420227	4.208087	0.099214
 162	8.0500e-02	6.4105	43.591746	0.000626	6.260602	2.121150	0.050010
 163	8.1000e-02	6.4522	44.297538	0.001767	17.671055	5.987116	0.141158
 164	8.1500e-02	6.4939	44.600021	0.000757	7.573309	2.565907	0.060496
 165	8.2000e-02	6.5324	44.741179	0.000353	3.534211	1.197423	0.028232
 166	8.2500e-02	6.5661	45.217085	0.001192	11.915340	4.037026	0.095181
 167	8.3000e-02	6.6143	45.483269	0.000666	6.664512	2.257998	0.053237
 168	8.3500e-02	6.6447	46.055969	0.001434	14.338799	4.858117	0.114540
 169	8.4000e-02	6.6897	46.366518	0.000778	7.775264	2.634331	0.062110
 170	8.4500e-02	6.7282	46.749662	0.000959	9.592858	3.250148	0.076629
 171	8.5000e-02	6.7634	47.322362	0.001434	14.338799	4.858117	0.114540
 172	8.5500e-02	6.8132	47.479653	0.000394	3.938121	1.334271	0.031458
 173	8.6000e-02	6.8453	48.092684	0.001535	15.348574	5.200237	0.122606
 174	8.6500e-02	6.8918	48.370968	0.000697	6.967445	2.360634	0.055657
 175	8.7000e-02	6.9255	48.774278	0.001010	10.097746	3.421209	0.080662
 176	8.7500e-02	6.9768	49.056595	0.000707	7.068422	2.394846	0.056463
 177	8.8000e-02	7.0057	49.544600	0.001222	12.218272	4.139663	0.097601
 178	8.8500e-02	7.0490	50.076969	0.001333	13.329024	4.515996	0.106474
 179	8.9000e-02	7.0971	50.339120	0.000656	6.563535	2.223786	0.052430
 180	8.9500e-02	7.1404	50.685967	0.000868	8.684061	2.942240	0.069369
 181	9.0000e-02	7.1741	51.117508	0.001080	10.804588	3.660694	0.086308
 182	9.0500e-02	7.2062	51.637778	0.001303	13.026092	4.413359	0.104054
 183	9.1000e-02	7.2543	51.940260	0.000757	7.573309	2.565907	0.060496
 184	9.1500e-02	7.2816	52.270974	0.000828	8.280152	2.805391	0.066143
 185	9.2000e-02	7.3378	52.557324	0.000717	7.169399	2.429058	0.057270
 186	9.2500e-02	7.3714	53.311514	0.001888	18.882785	6.397661	0.150838
 187	9.3000e-02	7.4100	53.751122	0.001101	11.006543	3.729118	0.087922
 188	9.3500e-02	7.4565	54.049571	0.000747	7.472332	2.531695	0.059690
 189	9.4000e-02	7.4918	54.509344	0.001151	11.511430	3.900178	0.091955
 190	9.4500e-02	7.5351	54.646470	0.000343	3.433234	1.163211	0.027425
 191	9.5000e-02	7.5704	55.057846	0.001030	10.299701	3.489633	0.082275
 192	9.5500e-02	7.6137	55.481321	0.001060	10.602633	3.592269	0.084695
 193	9.6000e-02	7.6570	56.114517	0.001585	15.853461	5.371298	0.126639
 194	9.6500e-02	7.6939	56.279874	0.000414	4.140076	1.402696	0.033071
 195	9.7000e-02	7.7308	56.582357	0.000757	7.573309	2.565907	0.060496
 196	9.7500e-02	7.7677	57.138924	0.001393	13.934889	4.721268	0.111314
 197	9.8000e-02	7.8142	57.429308	0.000727	7.270377	2.463270	0.058077
 198	9.8500e-02	7.8463	58.094769	0.001666	16.661281	5.644995	0.133092
 199	9.9000e-02	7.8864	58.522277	0.001070	10.703611	3.626481	0.085502
 200	9.9500e-02	7.9281	58.687634	0.000414	4.140076	1.402696	0.033071
 201	1.0000e-01	7.9730	59.010282	0.000808	8.078197	2.736967	0.064530
 202	1.0050e-01	8.0131	59.506353	0.001242	12.420227	4.208087	0.099214
 203	1.0100e-01	8.0388	60.018557	0.001282	12.824137	4.344935	0.102441
 204	1.0150e-01	8.0918	60.393635	0.000939	9.390904	3.181724	0.075016
 205	1.0200e-01	8.1254	60.813077	0.001050	10.501656	3.558057	0.083888
 206	1.0250e-01	8.1704	61.256718	0.001111	11.107520	3.763330	0.088728
 207	1.0300e-01	8.2089	61.575333	0.000798	7.977219	2.702755	0.063723
 208	1.0350e-01	8.2522	61.970577	0.000990	9.895791	3.352785	0.079049
 209	1.0400e-01	8.2891	62.196430	0.000565	5.654738	1.915877	0.045171
 210	1.0450e-01	8.3356	62.712667	0.001293	12.925115	4.379147	0.103247
 211	1.0500e-01	8.3693	63.111943	0.001000	9.996768	3.386997	0.079855
 212	1.0550e-01	8.4062	63.309565	0.000495	4.947895	1.676392	0.039524
 213	1.0600e-01	8.4479	63.821769	0.001282	12.824137	4.344935	0.102441
 214	1.0650e-01	8.4816	64.418667	0.001494	14.944664	5.063389	0.119380
 215	1.0700e-01	8.5313	64.773580	0.000889	8.886016	3.010664	0.070983
 216	1.0750e-01	8.5730	65.084129	0.000778	7.775264	2.634331	0.062110
 217	1.0800e-01	8.6163	65.354346	0.000677	6.765490	2.292210	0.054044
 218	1.0850e-01	8.6596	65.789921	0.001091	10.905565	3.694906	0.087115
 219	1.0900e-01	8.6965	66.156933	0.000919	9.188949	3.113300	0.073402
 220	1.0950e-01	8.7286	66.540077	0.000959	9.592858	3.250148	0.076629
 221	1.1000e-01	8.7784	67.132943	0.001484	14.843686	5.029177	0.118573
 222	1.1050e-01	8.8088	67.528186	0.000990	9.895791	3.352785	0.079049
 223	1.1100e-01	8.8506	67.879066	0.000879	8.785039	2.976452	0.070176
 224	1.1150e-01	8.8923	68.387236	0.001272	12.723160	4.310723	0.101634
 225	1.1200e-01	8.9211	68.963970	0.001444	14.439776	4.892329	0.115347
 226	1.1250e-01	8.9757	69.226121	0.000656	6.563535	2.223786	0.052430
 227	1.1300e-01	9.0174	69.516504	0.000727	7.270377	2.463270	0.058077
 228	1.1350e-01	9.0495	69.790755	0.000687	6.866467	2.326422	0.054850
 229	1.1400e-01	9.0832	70.379587	0.001474	14.742709	4.994965	0.117766
 230	1.1450e-01	9.1361	70.669970	0.000727	7.270377	2.463270	0.058077
 231	1.1500e-01	9.1714	70.996651	0.000818	8.179174	2.771179	0.065336
 232	1.1550e-01	9.2179	71.408027	0.001030	10.299701	3.489633	0.082275
 233	1.1600e-01	9.2548	71.734708	0.000818	8.179174	2.771179	0.065336
 234	1.1650e-01	9.2901	72.242879	0.001272	12.723160	4.310723	0.101634
 235	1.1700e-01	9.3414	72.609891	0.000919	9.188949	3.113300	0.073402
 236	1.1750e-01	9.3687	73.033366	0.001060	10.602633	3.592269	0.084695
 237	1.1800e-01	9.4120	73.368113	0.000838	8.381129	2.839603	0.066949
 238	1.1850e-01	9.4553	73.848052	0.001202	12.016317	4.071239	0.095988
 239	1.1900e-01	9.4922	74.356222	0.001272	12.723160	4.310723	0.101634
 240	1.1950e-01	9.5291	74.666771	0.000778	7.775264	2.634331	0.062110
 241	1.2000e-01	9.5757	74.989419	0.000808	8.078197	2.736967	0.064530
 242	1.2050e-01	9.6142	75.316100	0.000818	8.179174	2.771179	0.065336
 243	1.2100e-01	9.6479	75.808138	0.001232	12.319250	4.173875	0.098408
 244	1.2150e-01	9.6864	76.493765	0.001717	17.166168	5.816055	0.137125
 245	1.2200e-01	9.7281	76.691386	0.000495	4.947895	1.676392	0.039524
 246	1.2250e-01	9.7714	76.901108	0.000525	5.250828	1.779029	0.041944
 247	1.2300e-01	9.8163	77.401212	0.001252	12.521205	4.242299	0.100021
 248	1.2350e-01	9.8452	77.800489	0.001000	9.996768	3.386997	0.079855
 249	1.2400e-01	9.8981	78.332858	0.001333	13.329024	4.515996	0.106474
 250	1.2450e-01	9.9350	78.574844	0.000606	6.058647	2.052725	0.048397
 251	1.2500e-01	9.9767	78.937822	0.000909	9.087971	3.079088	0.072596
 252	1.2550e-01	10.0088	79.264503	0.000818	8.179174	2.771179	0.065336
 253	1.2600e-01	10.0473	79.687979	0.001060	10.602633	3.592269	0.084695
 254	1.2650e-01	10.0938	80.107421	0.001050	10.501656	3.558057	0.083888
 255	1.2700e-01	10.1275	80.567194	0.001151	11.511430	3.900178	0.091955
 256	1.2750e-01	10.1756	80.978570	0.001030	10.299701	3.489633	0.082275
 257	1.2800e-01	10.2125	81.236689	0.000646	6.462557	2.189574	0.051624
 258	1.2850e-01	10.2527	81.583535	0.000868	8.684061	2.942240	0.069369
 259	1.2900e-01	10.2895	82.059441	0.001192	11.915340	4.037026	0.095181
 260	1.2950e-01	10.3425	82.305460	0.000616	6.159625	2.086937	0.049204
 261	1.3000e-01	10.3746	82.793465	0.001222	12.218272	4.139663	0.097601
 262	1.3050e-01	10.4083	83.112079	0.000798	7.977219	2.702755	0.063723
 263	1.3100e-01	10.4500	83.745276	0.001585	15.853461	5.371298	0.126639
 264	1.3150e-01	10.4949	83.926765	0.000454	4.543986	1.539544	0.036298
 265	1.3200e-01	10.5254	84.160685	0.000586	5.856693	1.984301	0.046784
 266	1.3250e-01	10.5655	84.801948	0.001606	16.055416	5.439722	0.128253
 267	1.3300e-01	10.6136	85.019735	0.000545	5.452783	1.847453	0.043557
 268	1.3350e-01	10.6521	85.576303	0.001393	13.934889	4.721268	0.111314
 269	1.3400e-01	10.6906	86.056241	0.001202	12.016317	4.071239	0.095988
 270	1.3450e-01	10.7275	86.330492	0.000687	6.866467	2.326422	0.054850
 271	1.3500e-01	10.7644	86.915291	0.001464	14.641731	4.960753	0.116960
 272	1.3550e-01	10.8077	87.213741	0.000747	7.472332	2.531695	0.059690
 273	1.3600e-01	10.8430	87.600918	0.000969	9.693836	3.284361	0.077435
 274	1.3650e-01	10.8863	87.911467	0.000778	7.775264	2.634331	0.062110
 275	1.3700e-01	10.9377	88.298644	0.000969	9.693836	3.284361	0.077435
 276	1.3750e-01	10.9681	88.653557	0.000889	8.886016	3.010664	0.070983
 277	1.3800e-01	11.0179	89.072999	0.001050	10.501656	3.558057	0.083888
 278	1.3850e-01	11.0596	89.395647	0.000808	8.078197	2.736967	0.064530
 279	1.3900e-01	11.0852	89.766692	0.000929	9.289926	3.147512	0.074209
 280	1.3950e-01	11.1318	90.319227	0.001383	13.833912	4.687056	0.110507
 281	1.4000e-01	11.1799	90.343425	0.000061	0.605865	0.205273	0.004840
 282	1.4050e-01	11.2152	90.924191	0.001454	14.540754	4.926541	0.116153
 283	1.4100e-01	11.2569	91.287170	0.000909	9.087971	3.079088	0.072596
 284	1.4150e-01	11.3034	91.634017	0.000868	8.684061	2.942240	0.069369
 285	1.4200e-01	11.3371	91.996996	0.000909	9.087971	3.079088	0.072596
 286	1.4250e-01	11.3676	92.593894	0.001494	14.944664	5.063389	0.119380
 287	1.4300e-01	11.4109	92.900410	0.000767	7.674287	2.600119	0.061303
 288	1.4350e-01	11.4414	93.340018	0.001101	11.006543	3.729118	0.087922
 289	1.4400e-01	11.4943	93.658632	0.000798	7.977219	2.702755	0.063723
 290	1.4450e-01	11.5344	94.110339	0.001131	11.309475	3.831754	0.090341
 291	1.4500e-01	11.5697	94.509616	0.001000	9.996768	3.386997	0.079855
 292	1.4550e-01	11.6098	94.997621	0.001222	12.218272	4.139663	0.097601
 293	1.4600e-01	11.6403	95.183144	0.000464	4.644963	1.573756	0.037105
 294	1.4650e-01	11.6949	95.425129	0.000606	6.058647	2.052725	0.048397
 295	1.4700e-01	11.7366	95.804241	0.000949	9.491881	3.215936	0.075822
 296	1.4750e-01	11.7735	96.215617	0.001030	10.299701	3.489633	0.082275
 297	1.4800e-01	11.8136	96.824615	0.001525	15.247596	5.166025	0.121800
 298	1.4850e-01	11.8553	97.252123	0.001070	10.703611	3.626481	0.085502
 299	1.4900e-01	11.8954	97.405381	0.000384	3.837143	1.300059	0.030652
 300	1.4950e-01	11.9339	97.901452	0.001242	12.420227	4.208087	0.099214
 301	1.5000e-01	11.9724	98.050677	0.000374	3.736166	1.265847	0.029845
 302	1.5050e-01	12.0125	98.429788	0.000949	9.491881	3.215936	0.075822
 303	1.5100e-01	12.0590	98.905694	0.001192	11.915340	4.037026	0.095181
 304	1.5150e-01	12.0959	99.329169	0.001060	10.602633	3.592269	0.084695
 305	1.5200e-01	12.1312	99.930101	0.001505	15.045641	5.097601	0.120186
 306	1.5250e-01	12.1681	100.268881	0.000848	8.482106	2.873815	0.067756
 307	1.5300e-01	12.2098	100.623794	0.000889	8.886016	3.010664	0.070983
 308	1.5350e-01	12.2531	100.958541	0.000838	8.381129	2.839603	0.066949
 309	1.5400e-01	12.2868	101.486877	0.001323	13.228047	4.481784	0.105667
 310	1.5450e-01	12.3382	101.716763	0.000576	5.755715	1.950089	0.045977
 311	1.5500e-01	12.3606	102.031345	0.000788	7.876242	2.668543	0.062916
 312	1.5550e-01	12.4103	102.434655	0.001010	10.097746	3.421209	0.080662
 313	1.5600e-01	12.4505	102.866196	0.001080	10.804588	3.660694	0.086308
 314	1.5650e-01	12.4954	103.031553	0.000414	4.140076	1.402696	0.033071
 315	1.5700e-01	12.5339	103.386466	0.000889	8.886016	3.010664	0.070983
 316	1.5750e-01	12.5756	103.955133	0.001424	14.237822	4.823905	0.113733
 317	1.5800e-01	12.6189	104.301980	0.000868	8.684061	2.942240	0.069369
 318	1.5850e-01	12.6430	104.822249	0.001303	13.026092	4.413359	0.104054
 319	1.5900e-01	12.6895	105.036003	0.000535	5.351805	1.813241	0.042751
 320	1.5950e-01	12.7280	105.612737	0.001444	14.439776	4.892329	0.115347
 321	1.6000e-01	12.7681	105.931351	0.000798	7.977219	2.702755	0.063723
 322	1.6050e-01	12.8146	106.181403	0.000626	6.260602	2.121150	0.050010
 323	1.6100e-01	12.8531	106.548415	0.000919	9.188949	3.113300	0.073402
 324	1.6150e-01	12.8900	107.209844	0.001656	16.560303	5.610783	0.132286
 325	1.6200e-01	12.9285	107.467962	0.000646	6.462557	2.189574	0.051624
 326	1.6250e-01	12.9702	107.613153	0.000364	3.635188	1.231635	0.029038
 327	1.6300e-01	13.0103	108.085026	0.001181	11.814363	4.002814	0.094375
 328	1.6350e-01	13.0536	108.351210	0.000666	6.664512	2.257998	0.053237
 329	1.6400e-01	13.0889	108.786785	0.001091	10.905565	3.694906	0.087115
 330	1.6450e-01	13.1210	109.173963	0.000969	9.693836	3.284361	0.077435
 331	1.6500e-01	13.1724	109.419982	0.000616	6.159625	2.086937	0.049204
 332	1.6550e-01	13.1980	109.932185	0.001282	12.824137	4.344935	0.102441
 333	1.6600e-01	13.2478	110.258866	0.000818	8.179174	2.771179	0.065336
 334	1.6650e-01	13.2830	110.625878	0.000919	9.188949	3.113300	0.073402
 335	1.6700e-01	13.3328	111.113883	0.001222	12.218272	4.139663	0.097601
 336	1.6750e-01	13.3729	111.529292	0.001040	10.400678	3.523845	0.083082
 337	1.6800e-01	13.4114	111.718848	0.000475	4.745941	1.607968	0.037911
 338	1.6850e-01	13.4435	112.222985	0.001262	12.622182	4.276511	0.100827
 339	1.6900e-01	13.4948	112.577898	0.000889	8.886016	3.010664	0.070983
 340	1.6950e-01	13.5269	113.134465	0.001393	13.934889	4.721268	0.111314
 341	1.7000e-01	13.5606	113.420815	0.000717	7.169399	2.429058	0.057270
 342	1.7050e-01	13.6087	113.933019	0.001282	12.824137	4.344935	0.102441
 343	1.7100e-01	13.6456	114.118542	0.000464	4.644963	1.573756	0.037105
 344	1.7150e-01	13.6937	114.505719	0.000969	9.693836	3.284361	0.077435
 345	1.7200e-01	13.7258	114.933227	0.001070	10.703611	3.626481	0.085502
 346	1.7250e-01	13.7739	115.380901	0.001121	11.208498	3.797542	0.089535
 347	1.7300e-01	13.8124	115.453497	0.000182	1.817594	0.615818	0.014519
 348	1.7350e-01	13.8493	115.764046	0.000778	7.775264	2.634331	0.062110
 349	1.7400e-01	13.8782	116.175422	0.001030	10.299701	3.489633	0.082275
 350	1.7450e-01	13.9344	116.651327	0.001192	11.915340	4.037026	0.095181
 351	1.7500e-01	13.9681	117.086902	0.001091	10.905565	3.694906	0.087115
 352	1.7550e-01	14.0098	117.449881	0.000909	9.087971	3.079088	0.072596
 353	1.7600e-01	14.0451	118.018548	0.001424	14.237822	4.823905	0.113733
 354	1.7650e-01	14.0836	118.377494	0.000899	8.986994	3.044876	0.071789
 355	1.7700e-01	14.1365	118.401692	0.000061	0.605865	0.205273	0.004840
 356	1.7750e-01	14.1718	118.591248	0.000475	4.745941	1.607968	0.037911
 357	1.7800e-01	14.2119	119.119584	0.001323	13.228047	4.481784	0.105667
 358	1.7850e-01	14.2408	119.547092	0.001070	10.703611	3.626481	0.085502
 359	1.7900e-01	14.2857	119.974601	0.001070	10.703611	3.626481	0.085502
 360	1.7950e-01	14.3258	120.341613	0.000919	9.188949	3.113300	0.073402
 361	1.8000e-01	14.3723	120.696525	0.000889	8.886016	3.010664	0.070983
 362	1.8050e-01	14.4124	121.091769	0.000990	9.895791	3.352785	0.079049
 363	1.8100e-01	14.4493	121.386185	0.000737	7.371354	2.497482	0.058883
 364	1.8150e-01	14.4878	121.950819	0.001414	14.136844	4.789692	0.112927
 365	1.8200e-01	14.5247	122.406559	0.001141	11.410453	3.865966	0.091148
 366	1.8250e-01	14.5745	122.438824	0.000081	0.807820	0.273697	0.006453
 367	1.8300e-01	14.6146	122.934895	0.001242	12.420227	4.208087	0.099214
 368	1.8350e-01	14.6450	123.120418	0.000464	4.644963	1.573756	0.037105
 369	1.8400e-01	14.6851	123.560025	0.001101	11.006543	3.729118	0.087922
 370	1.8450e-01	14.7349	124.003666	0.001111	11.107520	3.763330	0.088728
 371	1.8500e-01	14.7686	124.197255	0.000485	4.846918	1.642180	0.038718
 372	1.8550e-01	14.8183	124.657028	0.001151	11.511430	3.900178	0.091955
 373	1.8600e-01	14.8536	125.177298	0.001303	13.026092	4.413359	0.104054
 374	1.8650e-01	14.8937	125.399118	0.000555	5.553760	1.881665	0.044364
 375	1.8700e-01	14.9226	125.560442	0.000404	4.039098	1.368484	0.032265
 376	1.8750e-01	14.9739	125.975851	0.001040	10.400678	3.523845	0.083082
 377	1.8800e-01	15.0156	126.346896	0.000929	9.289926	3.147512	0.074209
 378	1.8850e-01	15.0477	126.794570	0.001121	11.208498	3.797542	0.089535
 379	1.8900e-01	15.0926	127.375337	0.001454	14.540754	4.926541	0.116153
 380	1.8950e-01	15.1263	127.621356	0.000616	6.159625	2.086937	0.049204
 381	1.9000e-01	15.1712	128.069030	0.001121	11.208498	3.797542	0.089535
 382	1.9050e-01	15.2113	128.399744	0.000828	8.280152	2.805391	0.066143
 383	1.9100e-01	15.2466	128.625597	0.000565	5.654738	1.915877	0.045171
 384	1.9150e-01	15.2899	128.855484	0.000576	5.755715	1.950089	0.045977
 385	1.9200e-01	15.3236	129.391886	0.001343	13.430002	4.550208	0.107280
 386	1.9250e-01	15.3750	129.654037	0.000656	6.563535	2.223786	0.052430
 387	1.9300e-01	15.4135	130.170274	0.001293	12.925115	4.379147	0.103247
 388	1.9350e-01	15.4600	130.472756	0.000757	7.573309	2.565907	0.060496
 389	1.9400e-01	15.4937	130.851868	0.000949	9.491881	3.215936	0.075822
 390	1.9450e-01	15.5226	131.154350	0.000757	7.573309	2.565907	0.060496
 391	1.9500e-01	15.5723	131.424568	0.000677	6.765490	2.292210	0.054044
 392	1.9550e-01	15.6220	131.852076	0.001070	10.703611	3.626481	0.085502
 393	1.9600e-01	15.6461	132.287651	0.001091	10.905565	3.694906	0.087115
 394	1.9650e-01	15.6878	132.602232	0.000788	7.876242	2.668543	0.062916
 395	1.9700e-01	15.7311	133.037807	0.001091	10.905565	3.694906	0.087115
 396	1.9750e-01	15.7696	133.332223	0.000737	7.371354	2.497482	0.058883
 397	1.9800e-01	15.8017	133.779897	0.001121	11.208498	3.797542	0.089535
 398	1.9850e-01	15.8562	134.183207	0.001010	10.097746	3.421209	0.080662
 399	1.9900e-01	15.8835	134.489723	0.000767	7.674287	2.600119	0.061303
 400	1.9950e-01	15.9364	134.905132	0.001040	10.400678	3.523845	0.083082
 401	2.0000e-01	15.9653	135.276177	0.000929	9.289926	3.147512	0.074209
 402	2.0050e-01	16.0135	135.631089	0.000889	8.886016	3.010664	0.070983
 403	2.0100e-01	16.0552	135.913406	0.000707	7.068422	2.394846	0.056463
 404	2.0150e-01	16.0872	136.252187	0.000848	8.482106	2.873815	0.067756
 405	2.0200e-01	16.1338	136.849085	0.001494	14.944664	5.063389	0.119380
 406	2.0250e-01	16.1626	137.103170	0.000636	6.361580	2.155362	0.050817
 407	2.0300e-01	16.2060	137.526646	0.001060	10.602633	3.592269	0.084695
 408	2.0350e-01	16.2557	137.796863	0.000677	6.765490	2.292210	0.054044
 409	2.0400e-01	16.2862	138.054982	0.000646	6.462557	2.189574	0.051624
 410	2.0450e-01	16.3375	138.510722	0.001141	11.410453	3.865966	0.091148
 411	2.0500e-01	16.3616	138.865635	0.000889	8.886016	3.010664	0.070983
 412	2.0550e-01	16.4177	139.095521	0.000576	5.755715	1.950089	0.045977
 413	2.0600e-01	16.4514	139.506897	0.001030	10.299701	3.489633	0.082275
 414	2.0650e-01	16.4899	139.950538	0.001111	11.107520	3.763330	0.088728
 415	2.0700e-01	16.5252	140.382080	0.001080	10.804588	3.660694	0.086308
 416	2.0750e-01	16.5685	140.462742	0.000202	2.019549	0.684242	0.016132
 417	2.0800e-01	16.6102	140.966879	0.001262	12.622182	4.276511	0.100827
 418	2.0850e-01	16.6503	141.261295	0.000737	7.371354	2.497482	0.058883
 419	2.0900e-01	16.6872	141.596042	0.000838	8.381129	2.839603	0.066949
 420	2.0950e-01	16.7321	141.991286	0.000990	9.895791	3.352785	0.079049
 421	2.1000e-01	16.7755	142.354265	0.000909	9.087971	3.079088	0.072596
 422	2.1050e-01	16.8059	142.810005	0.001141	11.410453	3.865966	0.091148
 423	2.1100e-01	16.8509	143.181050	0.000929	9.289926	3.147512	0.074209
 424	2.1150e-01	16.8958	143.451268	0.000677	6.765490	2.292210	0.054044
 425	2.1200e-01	16.9263	143.786015	0.000838	8.381129	2.839603	0.066949
 426	2.1250e-01	16.9664	144.181258	0.000990	9.895791	3.352785	0.079049
 427	2.1300e-01	17.0049	144.866885	0.001717	17.166168	5.816055	0.137125
 428	2.1350e-01	17.0498	145.008044	0.000353	3.534211	1.197423	0.028232
 429	2.1400e-01	17.0867	145.193566	0.000464	4.644963	1.573756	0.037105
 430	2.1450e-01	17.1300	145.661406	0.001171	11.713385	3.968602	0.093568
 431	2.1500e-01	17.1781	145.963888	0.000757	7.573309	2.565907	0.060496
 432	2.1550e-01	17.2038	146.165543	0.000505	5.048873	1.710604	0.040331
 433	2.1600e-01	17.2455	146.552720	0.000969	9.693836	3.284361	0.077435
 434	2.1650e-01	17.2904	147.072990	0.001303	13.026092	4.413359	0.104054
 435	2.1700e-01	17.3305	147.202049	0.000323	3.231279	1.094787	0.025812
 436	2.1750e-01	17.3738	147.593260	0.000979	9.794813	3.318573	0.078242
 437	2.1800e-01	17.4107	148.157894	0.001414	14.136844	4.789692	0.112927
 438	2.1850e-01	17.4573	148.500707	0.000858	8.583084	2.908028	0.068563
 439	2.1900e-01	17.4974	148.706395	0.000515	5.149850	1.744817	0.041138
 440	2.1950e-01	17.5391	149.073407	0.000919	9.188949	3.113300	0.073402
 441	2.2000e-01	17.5760	149.351691	0.000697	6.967445	2.360634	0.055657
 442	2.2050e-01	17.6065	149.863894	0.001282	12.824137	4.344935	0.102441
 443	2.2100e-01	17.6562	150.138145	0.000687	6.866467	2.326422	0.054850
 444	2.2150e-01	17.6867	150.380131	0.000606	6.058647	2.052725	0.048397
 445	2.2200e-01	17.7348	150.956864	0.001444	14.439776	4.892329	0.115347
 446	2.2250e-01	17.7765	151.311777	0.000889	8.886016	3.010664	0.070983
 447	2.2300e-01	17.8134	151.606193	0.000737	7.371354	2.497482	0.058883
 448	2.2350e-01	17.8535	151.819947	0.000535	5.351805	1.813241	0.042751
 449	2.2400e-01	17.8920	152.332151	0.001282	12.824137	4.344935	0.102441
 450	2.2450e-01	17.9273	152.683030	0.000879	8.785039	2.976452	0.070176
 451	2.2500e-01	17.9706	152.961314	0.000697	6.967445	2.360634	0.055657
 452	2.2550e-01	18.0075	153.344459	0.000959	9.592858	3.250148	0.076629
 453	2.2600e-01	18.0492	153.792132	0.001121	11.208498	3.797542	0.089535
 454	2.2650e-01	18.0974	153.844563	0.000131	1.312707	0.444757	0.010486
 455	2.2700e-01	18.1262	154.372899	0.001323	13.228047	4.481784	0.105667
 456	2.2750e-01	18.1760	154.735878	0.000909	9.087971	3.079088	0.072596
 457	2.2800e-01	18.2145	155.147254	0.001030	10.299701	3.489633	0.082275
 458	2.2850e-01	18.2626	155.465868	0.000798	7.977219	2.702755	0.063723
 459	2.2900e-01	18.2915	155.840947	0.000939	9.390904	3.181724	0.075016
 460	2.2950e-01	18.3364	155.986138	0.000364	3.635188	1.231635	0.029038
 461	2.3000e-01	18.3749	156.357183	0.000929	9.289926	3.147512	0.074209
 462	2.3050e-01	18.4198	156.776625	0.001050	10.501656	3.558057	0.083888
 463	2.3100e-01	18.4455	157.397723	0.001555	15.550528	5.268662	0.124219
 464	2.3150e-01	18.4872	157.567113	0.000424	4.241053	1.436908	0.033878
 465	2.3200e-01	18.5305	157.986555	0.001050	10.501656	3.558057	0.083888
 466	2.3250e-01	18.5690	158.337435	0.000879	8.785039	2.976452	0.070176
 467	2.3300e-01	18.6091	158.672182	0.000838	8.381129	2.839603	0.066949
 468	2.3350e-01	18.6396	158.998863	0.000818	8.179174	2.771179	0.065336
 469	2.3400e-01	18.6893	159.337643	0.000848	8.482106	2.873815	0.067756
 470	2.3450e-01	18.7358	159.462669	0.000313	3.130301	1.060575	0.025005
 471	2.3500e-01	18.7647	159.870012	0.001020	10.198723	3.455421	0.081469
 472	2.3550e-01	18.8064	160.249123	0.000949	9.491881	3.215936	0.075822
 473	2.3600e-01	18.8642	160.628235	0.000949	9.491881	3.215936	0.075822
 474	2.3650e-01	18.8947	160.991213	0.000909	9.087971	3.079088	0.072596
 475	2.3700e-01	18.9316	161.196901	0.000515	5.149850	1.744817	0.041138
 476	2.3750e-01	18.9668	161.543748	0.000868	8.684061	2.942240	0.069369
 477	2.3800e-01	19.0134	161.842197	0.000747	7.472332	2.531695	0.059690
 478	2.3850e-01	19.0535	162.402798	0.001404	14.035867	4.755480	0.112120
 479	2.3900e-01	19.0904	162.685115	0.000707	7.068422	2.394846	0.056463
 480	2.3950e-01	19.1289	163.084392	0.001000	9.996768	3.386997	0.079855
 481	2.4000e-01	19.1674	163.721621	0.001595	15.954438	5.405510	0.127446
 482	2.4050e-01	19.2075	163.858747	0.000343	3.433234	1.163211	0.027425
 483	2.4100e-01	19.2508	164.181394	0.000808	8.078197	2.736967	0.064530
 484	2.4150e-01	19.2909	164.512109	0.000828	8.280152	2.805391	0.066143
 485	2.4200e-01	19.3358	164.697631	0.000464	4.644963	1.573756	0.037105
 486	2.4250e-01	19.3711	165.346960	0.001626	16.257371	5.508146	0.129866
 487	2.4300e-01	19.4096	165.496185	0.000374	3.736166	1.265847	0.029845
 488	2.4350e-01	19.4529	165.653475	0.000394	3.938121	1.334271	0.031458
 489	2.4400e-01	19.4978	166.008388	0.000889	8.886016	3.010664	0.070983
 490	2.4450e-01	19.5315	166.411698	0.001010	10.097746	3.421209	0.080662
 491	2.4500e-01	19.5716	166.774677	0.000909	9.087971	3.079088	0.072596
 492	2.4550e-01	19.6134	166.988431	0.000535	5.351805	1.813241	0.042751
 493	2.4600e-01	19.6535	167.359476	0.000929	9.289926	3.147512	0.074209
 494	2.4650e-01	19.6855	167.791018	0.001080	10.804588	3.660694	0.086308
 495	2.4700e-01	19.7353	168.081401	0.000727	7.270377	2.463270	0.058077
 496	2.4750e-01	19.7674	168.404049	0.000808	8.078197	2.736967	0.064530
 497	2.4800e-01	19.8139	168.508909	0.000263	2.625414	0.889514	0.020972
 498	2.4850e-01	19.8540	169.077576	0.001424	14.237822	4.823905	0.113733
 499	2.4900e-01	19.8957	169.400224	0.000808	8.078197	2.736967	0.064530
 500	2.4950e-01	19.9294	169.872097	0.001181	11.814363	4.002814	0.094375
 501	2.5000e-01	19.9791	170.142314	0.000677	6.765490	2.292210	0.054044
 502	2.5050e-01	19.9855	170.311704	0.000424	4.241053	1.436908	0.033878
 503	2.5100e-01	19.9518	170.089884	0.000555	5.553760	1.881665	-0.044364
 504	2.5150e-01	19.9198	170.069718	0.000050	0.504887	0.171060	-0.004033
 505	2.5200e-01	19.8797	169.726905	0.000858	8.583084	2.908028	-0.068563
 506	2.5250e-01	19.8363	169.529283	0.000495	4.947895	1.676392	-0.039524
 507	2.5300e-01	19.8043	169.234867	0.000737	7.371354	2.497482	-0.058883
 508	2.5350e-01	19.7577	169.081609	0.000384	3.837143	1.300059	-0.030652
 509	2.5400e-01	19.7144	168.871888	0.000525	5.250828	1.779029	-0.041944
 510	2.5450e-01	19.6743	168.448413	0.001060	10.602633	3.592269	-0.084695
 511	2.5500e-01	19.6310	168.363718	0.000212	2.120527	0.718454	-0.016939
 512	2.5550e-01	19.5877	168.097533	0.000666	6.664512	2.257998	-0.053237
 513	2.5600e-01	19.5588	167.811183	0.000717	7.169399	2.429058	-0.057270
 514	2.5650e-01	19.5155	167.609528	0.000505	5.048873	1.710604	-0.040331
 515	2.5700e-01	19.4770	167.395774	0.000535	5.351805	1.813241	-0.042751
 516	2.5750e-01	19.4369	167.024729	0.000929	9.289926	3.147512	-0.074209
 517	2.5800e-01	19.3888	166.597221	0.001070	10.703611	3.626481	-0.085502
 518	2.5850e-01	19.3551	166.379433	0.000545	5.452783	1.847453	-0.043557
 519	2.5900e-01	19.3214	166.258440	0.000303	3.029324	1.026363	-0.024199
 520	2.5950e-01	19.2749	165.859163	0.001000	9.996768	3.386997	-0.079855
 521	2.6000e-01	19.2380	165.742204	0.000293	2.928346	0.992151	-0.023392
 522	2.6050e-01	19.1979	165.540549	0.000505	5.048873	1.710604	-0.040331
 523	2.6100e-01	19.1610	165.121106	0.001050	10.501656	3.558057	-0.083888
 524	2.6150e-01	19.1144	164.915418	0.000515	5.149850	1.744817	-0.041138
 525	2.6200e-01	19.0727	164.862988	0.000131	1.312707	0.444757	-0.010486
 526	2.6250e-01	19.0230	164.709730	0.000384	3.837143	1.300059	-0.030652
 527	2.6300e-01	18.9941	164.298354	0.001030	10.299701	3.489633	-0.082275
 528	2.6350e-01	18.9572	163.931342	0.000919	9.188949	3.113300	-0.073402
 529	2.6400e-01	18.9219	163.697423	0.000586	5.856693	1.984301	-0.046784
 530	2.6450e-01	18.8786	163.213451	0.001212	12.117295	4.105451	-0.096794
 531	2.6500e-01	18.8401	163.100524	0.000283	2.827369	0.957938	-0.022585
 532	2.6550e-01	18.8000	162.822240	0.000697	6.967445	2.360634	-0.055657
 533	2.6600e-01	18.7615	162.495559	0.000818	8.179174	2.771179	-0.065336
 534	2.6650e-01	18.7166	162.322136	0.000434	4.342031	1.471120	-0.034685
 535	2.6700e-01	18.6797	162.003521	0.000798	7.977219	2.702755	-0.063723
 536	2.6750e-01	18.6380	161.834131	0.000424	4.241053	1.436908	-0.033878
 537	2.6800e-01	18.5898	161.438887	0.000990	9.895791	3.352785	-0.079049
 538	2.6850e-01	18.5594	161.120273	0.000798	7.977219	2.702755	-0.063723
 539	2.6900e-01	18.5209	160.882320	0.000596	5.957670	2.018513	-0.047591
 540	2.6950e-01	18.4792	160.555639	0.000818	8.179174	2.771179	-0.065336
 541	2.7000e-01	18.4374	160.406414	0.000374	3.736166	1.265847	-0.029845
 542	2.7050e-01	18.4022	160.176528	0.000576	5.755715	1.950089	-0.045977
 543	2.7100e-01	18.3556	159.878078	0.000747	7.472332	2.531695	-0.059690
 544	2.7150e-01	18.3187	159.325544	0.001383	13.833912	4.687056	-0.110507
 545	2.7200e-01	18.2850	159.083558	0.000606	6.058647	2.052725	-0.048397
 546	2.7250e-01	18.2417	158.962565	0.000303	3.029324	1.026363	-0.024199
 547	2.7300e-01	18.1952	158.656049	0.000767	7.674287	2.600119	-0.061303
 548	2.7350e-01	18.1535	158.107548	0.001373	13.732934	4.652844	-0.109700
 549	2.7400e-01	18.1166	158.002687	0.000263	2.625414	0.889514	-0.020972
 550	2.7450e-01	18.0797	157.506616	0.001242	12.420227	4.208087	-0.099214
 551	2.7500e-01	18.0412	157.462252	0.000111	1.110752	0.376333	-0.008873
 552	2.7550e-01	17.9979	157.127505	0.000838	8.381129	2.839603	-0.066949
 553	2.7600e-01	17.9626	156.780659	0.000868	8.684061	2.942240	-0.069369
 554	2.7650e-01	17.9241	156.562871	0.000545	5.452783	1.847453	-0.043557
 555	2.7700e-01	17.8824	156.256356	0.000767	7.674287	2.600119	-0.061303
 556	2.7750e-01	17.8343	155.893377	0.000909	9.087971	3.079088	-0.072596
 557	2.7800e-01	17.8022	155.873211	0.000050	0.504887	0.171060	-0.004033
 558	2.7850e-01	17.7556	155.530398	0.000858	8.583084	2.908028	-0.068563
 559	2.7900e-01	17.7155	155.139187	0.000979	9.794813	3.318573	-0.078242
 560	2.7950e-01	17.6786	154.864937	0.000687	6.866467	2.326422	-0.054850
 561	2.8000e-01	17.6401	154.493892	0.000929	9.289926	3.147512	-0.074209
 562	2.8050e-01	17.6000	154.118813	0.000939	9.390904	3.181724	-0.075016
 563	2.8100e-01	17.5631	153.937324	0.000454	4.543986	1.539544	-0.036298
 564	2.8150e-01	17.5182	153.671139	0.000666	6.664512	2.257998	-0.053237
 565	2.8200e-01	17.4717	153.529981	0.000353	3.534211	1.197423	-0.028232
 566	2.8250e-01	17.4380	153.150870	0.000949	9.491881	3.215936	-0.075822
 567	2.8300e-01	17.3947	152.872586	0.000697	6.967445	2.360634	-0.055657
 568	2.8350e-01	17.3594	152.630600	0.000606	6.058647	2.052725	-0.048397
 569	2.8400e-01	17.3177	152.114363	0.001293	12.925115	4.379147	-0.103247
 570	2.8450e-01	17.2728	151.795749	0.000798	7.977219	2.702755	-0.063723
 571	2.8500e-01	17.2391	151.654590	0.000353	3.534211	1.197423	-0.028232
 572	2.8550e-01	17.1942	151.287578	0.000919	9.188949	3.113300	-0.073402
 573	2.8600e-01	17.1589	150.956864	0.000828	8.280152	2.805391	-0.066143
 574	2.8650e-01	17.1188	150.803606	0.000384	3.837143	1.300059	-0.030652
 575	2.8700e-01	17.0803	150.577753	0.000565	5.654738	1.915877	-0.045171
 576	2.8750e-01	17.0450	150.033285	0.001363	13.631957	4.618632	-0.108894
 577	2.8800e-01	16.9872	149.807431	0.000565	5.654738	1.915877	-0.045171
 578	2.8850e-01	16.9632	149.541247	0.000666	6.664512	2.257998	-0.053237
 579	2.8900e-01	16.9102	149.432353	0.000273	2.726391	0.923726	-0.021779
 580	2.8950e-01	16.8862	148.988712	0.001111	11.107520	3.763330	-0.088728
 581	2.9000e-01	16.8396	148.670097	0.000798	7.977219	2.702755	-0.063723
 582	2.9050e-01	16.7963	148.444244	0.000565	5.654738	1.915877	-0.045171
 583	2.9100e-01	16.7610	148.012702	0.001080	10.804588	3.660694	-0.086308
 584	2.9150e-01	16.7097	147.774749	0.000596	5.957670	2.018513	-0.047591
 585	2.9200e-01	16.6744	147.657789	0.000293	2.928346	0.992151	-0.023392
 586	2.9250e-01	16.6359	147.319009	0.000848	8.482106	2.873815	-0.067756
 587	2.9300e-01	16.5910	146.935865	0.000959	9.592858	3.250148	-0.076629
 588	2.9350e-01	16.5557	146.633382	0.000757	7.573309	2.565907	-0.060496
 589	2.9400e-01	16.5188	146.165543	0.001171	11.713385	3.968602	-0.093568
 590	2.9450e-01	16.4658	146.008252	0.000394	3.938121	1.334271	-0.031458
 591	2.9500e-01	16.4418	145.588810	0.001050	10.501656	3.558057	-0.083888
 592	2.9550e-01	16.3937	145.282294	0.000767	7.674287	2.600119	-0.061303
 593	2.9600e-01	16.3600	144.999977	0.000707	7.068422	2.394846	-0.056463
 594	2.9650e-01	16.3215	144.665230	0.000838	8.381129	2.839603	-0.066949
 595	2.9700e-01	16.2814	144.576502	0.000222	2.221504	0.752666	-0.017746
 596	2.9750e-01	16.2284	144.294185	0.000707	7.068422	2.394846	-0.056463
 597	2.9800e-01	16.2028	143.806180	0.001222	12.218272	4.139663	-0.097601
 598	2.9850e-01	16.1578	143.390771	0.001040	10.400678	3.523845	-0.083082
 599	2.9900e-01	16.1177	143.253646	0.000343	3.433234	1.163211	-0.027425
 600	2.9950e-01	16.0792	142.882601	0.000929	9.289926	3.147512	-0.074209
 601	3.0000e-01	16.0423	142.531721	0.000879	8.785039	2.976452	-0.070176
 602	3.0050e-01	16.0006	142.237305	0.000737	7.371354	2.497482	-0.058883
 603	3.0100e-01	15.9541	142.067915	0.000424	4.241053	1.436908	-0.033878
 604	3.0150e-01	15.9172	141.833995	0.000586	5.856693	1.984301	-0.046784
 605	3.0200e-01	15.8755	141.382288	0.001131	11.309475	3.831754	-0.090341
 606	3.0250e-01	15.8402	141.043508	0.000848	8.482106	2.873815	-0.067756
 607	3.0300e-01	15.7937	140.664397	0.000949	9.491881	3.215936	-0.075822
 608	3.0350e-01	15.7552	140.410311	0.000636	6.361580	2.155362	-0.050817
 609	3.0400e-01	15.7135	140.244954	0.000414	4.140076	1.402696	-0.033071
 610	3.0450e-01	15.6766	139.829545	0.001040	10.400678	3.523845	-0.083082
 611	3.0500e-01	15.6413	139.708552	0.000303	3.029324	1.026363	-0.024199
 612	3.0550e-01	15.5915	139.325408	0.000959	9.592858	3.250148	-0.076629
 613	3.0600e-01	15.5530	139.063256	0.000656	6.563535	2.223786	-0.052430
 614	3.0650e-01	15.5161	138.680112	0.000959	9.592858	3.250148	-0.076629
 615	3.0700e-01	15.4696	138.252604	0.001070	10.703611	3.626481	-0.085502
 616	3.0750e-01	15.4311	137.889625	0.000909	9.087971	3.079088	-0.072596
 617	3.0800e-01	15.3830	137.825095	0.000162	1.615639	0.547393	-0.012906
 618	3.0850e-01	15.3541	137.441951	0.000959	9.592858	3.250148	-0.076629
 619	3.0900e-01	15.3044	137.127369	0.000788	7.876242	2.668543	-0.062916
 620	3.0950e-01	15.2851	136.695827	0.001080	10.804588	3.660694	-0.086308
 621	3.1000e-01	15.2450	136.590967	0.000263	2.625414	0.889514	-0.020972
 622	3.1050e-01	15.2017	136.018267	0.001434	14.338799	4.858117	-0.114540
 623	3.1100e-01	15.1584	135.618990	0.001000	9.996768	3.386997	-0.079855
 624	3.1150e-01	15.1247	135.506063	0.000283	2.827369	0.957938	-0.022585
 625	3.1200e-01	15.0670	135.038224	0.001171	11.713385	3.968602	-0.093568
 626	3.1250e-01	15.0365	134.985794	0.000131	1.312707	0.444757	-0.010486
 627	3.1300e-01	14.9883	134.469557	0.001293	12.925115	4.379147	-0.103247
 628	3.1350e-01	14.9547	134.199339	0.000677	6.765490	2.292210	-0.054044
 629	3.1400e-01	14.9162	133.896857	0.000757	7.573309	2.565907	-0.060496
 630	3.1450e-01	14.8744	133.630673	0.000666	6.664512	2.257998	-0.053237
 631	3.1500e-01	14.8359	133.275760	0.000889	8.886016	3.010664	-0.070983
 632	3.1550e-01	14.7974	132.932946	0.000858	8.583084	2.908028	-0.068563
 633	3.1600e-01	14.7573	132.610299	0.000808	8.078197	2.736967	-0.064530
 634	3.1650e-01	14.7269	132.255386	0.000889	8.886016	3.010664	-0.070983
 635	3.1700e-01	14.6739	132.009367	0.000616	6.159625	2.086937	-0.049204
 636	3.1750e-01	14.6322	131.614123	0.000990	9.895791	3.352785	-0.079049
 637	3.1800e-01	14.5873	131.388270	0.000565	5.654738	1.915877	-0.045171
 638	3.1850e-01	14.5520	130.980927	0.001020	10.198723	3.455421	-0.081469
 639	3.1900e-01	14.5263	130.589716	0.000979	9.794813	3.318573	-0.078242
 640	3.1950e-01	14.4782	130.351763	0.000596	5.957670	2.018513	-0.047591
 641	3.2000e-01	14.4317	130.206572	0.000364	3.635188	1.231635	-0.029038
 642	3.2050e-01	14.3996	129.839560	0.000919	9.188949	3.113300	-0.073402
 643	3.2100e-01	14.3563	129.343489	0.001242	12.420227	4.208087	-0.099214
 644	3.2150e-01	14.3114	128.996642	0.000868	8.684061	2.942240	-0.069369
 645	3.2200e-01	14.2729	128.746590	0.000626	6.260602	2.121150	-0.050010
 646	3.2250e-01	14.2392	128.423942	0.000808	8.078197	2.736967	-0.064530
 647	3.2300e-01	14.1975	128.181956	0.000606	6.058647	2.052725	-0.048397
 648	3.2350e-01	14.1574	127.879474	0.000757	7.573309	2.565907	-0.060496
 649	3.2400e-01	14.1092	127.516495	0.000909	9.087971	3.079088	-0.072596
 650	3.2450e-01	14.0755	126.988159	0.001323	13.228047	4.481784	-0.105667
 651	3.2500e-01	14.0451	126.959927	0.000071	0.706842	0.239485	-0.005646
 652	3.2550e-01	13.9969	126.613081	0.000868	8.684061	2.942240	-0.069369
 653	3.2600e-01	13.9552	126.213804	0.001000	9.996768	3.386997	-0.079855
 654	3.2650e-01	13.9215	125.907289	0.000767	7.674287	2.600119	-0.061303
 655	3.2700e-01	13.8718	125.673369	0.000586	5.856693	1.984301	-0.046784
 656	3.2750e-01	13.8349	125.459615	0.000535	5.351805	1.813241	-0.042751
 657	3.2800e-01	13.8092	125.181331	0.000697	6.967445	2.360634	-0.055657
 658	3.2850e-01	13.7467	124.798187	0.000959	9.592858	3.250148	-0.076629
 659	3.2900e-01	13.7098	124.398910	0.001000	9.996768	3.386997	-0.079855
 660	3.2950e-01	13.6761	123.939137	0.001151	11.511430	3.900178	-0.091955
 661	3.3000e-01	13.6296	123.523727	0.001040	10.400678	3.523845	-0.083082
 662	3.3050e-01	13.5975	123.281742	0.000606	6.058647	2.052725	-0.048397
 663	3.3100e-01	13.5558	123.184947	0.000242	2.423459	0.821090	-0.019359
 664	3.3150e-01	13.5173	122.725174	0.001151	11.511430	3.900178	-0.091955
 665	3.3200e-01	13.4804	122.221037	0.001262	12.622182	4.276511	-0.100827
 666	3.3250e-01	13.4371	121.712866	0.001272	12.723160	4.310723	-0.101634
 667	3.3300e-01	13.3953	121.547509	0.000414	4.140076	1.402696	-0.033071
 668	3.3350e-01	13.3536	121.321656	0.000565	5.654738	1.915877	-0.045171
 669	3.3400e-01	13.3215	120.942544	0.000949	9.491881	3.215936	-0.075822
 670	3.3450e-01	13.2702	120.668294	0.000687	6.866467	2.326422	-0.054850
 671	3.3500e-01	13.2429	120.196421	0.001181	11.814363	4.002814	-0.094375
 672	3.3550e-01	13.1996	119.926203	0.000677	6.765490	2.292210	-0.054044
 673	3.3600e-01	13.1643	119.591456	0.000838	8.381129	2.839603	-0.066949
 674	3.3650e-01	13.1066	119.232511	0.000899	8.986994	3.044876	-0.071789
 675	3.3700e-01	13.0793	118.994558	0.000596	5.957670	2.018513	-0.047591
 676	3.3750e-01	13.0328	118.732406	0.000656	6.563535	2.223786	-0.052430
 677	3.3800e-01	12.9863	118.377494	0.000889	8.886016	3.010664	-0.070983
 678	3.3850e-01	12.9590	117.974184	0.001010	10.097746	3.421209	-0.080662
 679	3.3900e-01	12.9157	117.324855	0.001626	16.257371	5.508146	-0.129866
 680	3.3950e-01	12.8788	117.466013	-0.000353	-3.534211	-1.197423	0.028232
 681	3.4000e-01	12.8258	117.099001	0.000919	9.188949	3.113300	-0.073402
 682	3.4050e-01	12.8002	116.792486	0.000767	7.674287	2.600119	-0.061303
 683	3.4100e-01	12.7601	116.574699	0.000545	5.452783	1.847453	-0.043557
 684	3.4150e-01	12.7216	116.070561	0.001262	12.622182	4.276511	-0.100827
 685	3.4200e-01	12.6718	115.727748	0.000858	8.583084	2.908028	-0.068563
 686	3.4250e-01	12.6349	115.485762	0.000606	6.058647	2.052725	-0.048397
 687	3.4300e-01	12.6077	115.159081	0.000818	8.179174	2.771179	-0.065336
 688	3.4350e-01	12.5676	114.590414	0.001424	14.237822	4.823905	-0.113733
 689	3.4400e-01	12.5242	114.392792	0.000495	4.947895	1.676392	-0.039524
 690	3.4450e-01	12.4809	113.997549	0.000990	9.895791	3.352785	-0.079049
 691	3.4500e-01	12.4424	113.553908	0.001111	11.107520	3.763330	-0.088728
 692	3.4550e-01	12.3943	113.360319	0.000485	4.846918	1.642180	-0.038718
 693	3.4600e-01	12.3574	113.073969	0.000717	7.169399	2.429058	-0.057270
 694	3.4650e-01	12.3173	112.694858	0.000949	9.491881	3.215936	-0.075822
 695	3.4700e-01	12.2884	112.509335	0.000464	4.644963	1.573756	-0.037105
 696	3.4750e-01	12.2419	112.045529	0.001161	11.612408	3.934390	-0.092761
 697	3.4800e-01	12.1954	111.597855	0.001121	11.208498	3.797542	-0.089535
 698	3.4850e-01	12.1569	111.351836	0.000616	6.159625	2.086937	-0.049204
 699	3.4900e-01	12.1248	110.859798	0.001232	12.319250	4.173875	-0.098408
 700	3.4950e-01	12.0895	110.682341	0.000444	4.443008	1.505332	-0.035491
 701	3.5000e-01	12.0366	110.335495	0.000868	8.684061	2.942240	-0.069369
 702	3.5050e-01	12.0061	110.033013	0.000757	7.573309	2.565907	-0.060496
 703	3.5100e-01	11.9596	109.766828	0.000666	6.664512	2.257998	-0.053237
 704	3.5150e-01	11.9243	109.391750	0.000939	9.390904	3.181724	-0.075016
 705	3.5200e-01	11.8890	109.169930	0.000555	5.553760	1.881665	-0.044364
 706	3.5250e-01	11.8360	108.698057	0.001181	11.814363	4.002814	-0.094375
 707	3.5300e-01	11.7975	108.427839	0.000677	6.765490	2.292210	-0.054044
 708	3.5350e-01	11.7638	107.911603	0.001293	12.925115	4.379147	-0.103247
 709	3.5400e-01	11.7125	107.641385	0.000677	6.765490	2.292210	-0.054044
 710	3.5450e-01	11.6868	107.371168	0.000677	6.765490	2.292210	-0.054044
 711	3.5500e-01	11.6355	106.887196	0.001212	12.117295	4.105451	-0.096794
 712	3.5550e-01	11.5970	106.637144	0.000626	6.260602	2.121150	-0.050010
 713	3.5600e-01	11.5553	106.153172	0.001212	12.117295	4.105451	-0.096794
 714	3.5650e-01	11.5280	105.854722	0.000747	7.472332	2.531695	-0.059690
 715	3.5700e-01	11.4799	105.439313	0.001040	10.400678	3.523845	-0.083082
 716	3.5750e-01	11.4414	105.156996	0.000707	7.068422	2.394846	-0.056463
 717	3.5800e-01	11.4061	105.015838	0.000353	3.534211	1.197423	-0.028232
 718	3.5850e-01	11.3516	104.802084	0.000535	5.351805	1.813241	-0.042751
 719	3.5900e-01	11.3179	104.499601	0.000757	7.573309	2.565907	-0.060496
 720	3.5950e-01	11.2729	104.193086	0.000767	7.674287	2.600119	-0.061303
 721	3.6000e-01	11.2409	103.612320	0.001454	14.540754	4.926541	-0.116153
 722	3.6050e-01	11.1927	103.273539	0.000848	8.482106	2.873815	-0.067756
 723	3.6100e-01	11.1510	103.003322	0.000677	6.765490	2.292210	-0.054044
 724	3.6150e-01	11.1205	102.725038	0.000697	6.967445	2.360634	-0.055657
 725	3.6200e-01	11.0756	102.031345	0.001737	17.368123	5.884479	-0.138739
 726	3.6250e-01	11.0403	101.841789	0.000475	4.745941	1.607968	-0.037911
 727	3.6300e-01	10.9986	101.527208	0.000788	7.876242	2.668543	-0.062916
 728	3.6350e-01	10.9585	101.002905	0.001313	13.127069	4.447572	-0.104861
 729	3.6400e-01	10.9152	100.833515	0.000424	4.241053	1.436908	-0.033878
 730	3.6450e-01	10.8719	100.349543	0.001212	12.117295	4.105451	-0.096794
 731	3.6500e-01	10.8334	100.119656	0.000576	5.755715	1.950089	-0.045977
 732	3.6550e-01	10.8013	99.623585	0.001242	12.420227	4.208087	-0.099214
 733	3.6600e-01	10.7644	99.272706	0.000879	8.785039	2.976452	-0.070176
 734	3.6650e-01	10.7291	98.966190	0.000767	7.674287	2.600119	-0.061303
 735	3.6700e-01	10.6826	98.542715	0.001060	10.602633	3.592269	-0.084695
 736	3.6750e-01	10.6393	98.151504	0.000979	9.794813	3.318573	-0.078242
 737	3.6800e-01	10.5927	98.099074	0.000131	1.312707	0.444757	-0.010486
 738	3.6850e-01	10.5559	97.719963	0.000949	9.491881	3.215936	-0.075822
 739	3.6900e-01	10.5125	97.187594	0.001333	13.329024	4.515996	-0.106474
 740	3.6950e-01	10.4821	96.852846	0.000838	8.381129	2.839603	-0.066949
 741	3.7000e-01	10.4436	96.421305	0.001080	10.804588	3.660694	-0.086308
 742	3.7050e-01	10.3890	96.183352	0.000596	5.957670	2.018513	-0.047591
 743	3.7100e-01	10.3585	95.876837	0.000767	7.674287	2.600119	-0.061303
 744	3.7150e-01	10.3184	95.594520	0.000707	7.068422	2.394846	-0.056463
 745	3.7200e-01	10.2751	95.400931	0.000485	4.846918	1.642180	-0.038718
 746	3.7250e-01	10.2334	94.832264	0.001424	14.237822	4.823905	-0.113733
 747	3.7300e-01	10.1965	94.525748	0.000767	7.674287	2.600119	-0.061303
 748	3.7350e-01	10.1612	94.009512	0.001293	12.925115	4.379147	-0.103247
 749	3.7400e-01	10.1291	93.646533	0.000909	9.087971	3.079088	-0.072596
 750	3.7450e-01	10.0810	93.340018	0.000767	7.674287	2.600119	-0.061303
 751	3.7500e-01	10.0425	93.142396	0.000495	4.947895	1.676392	-0.039524
 752	3.7550e-01	9.9992	92.634225	0.001272	12.723160	4.310723	-0.101634
 753	3.7600e-01	9.9623	92.218816	0.001040	10.400678	3.523845	-0.083082
 754	3.7650e-01	9.9110	92.162353	0.000141	1.413684	0.478969	-0.011293
 755	3.7700e-01	9.8773	91.726778	0.001091	10.905565	3.694906	-0.087115
 756	3.7750e-01	9.8307	91.242806	0.001212	12.117295	4.105451	-0.096794
 757	3.7800e-01	9.7906	90.891927	0.000879	8.785039	2.976452	-0.070176
 758	3.7850e-01	9.7553	90.573312	0.000798	7.977219	2.702755	-0.063723
 759	3.7900e-01	9.7120	90.004645	0.001424	14.237822	4.823905	-0.113733
 760	3.7950e-01	9.6767	89.746527	0.000646	6.462557	2.189574	-0.051624
 761	3.8000e-01	9.6382	89.500508	0.000616	6.159625	2.086937	-0.049204
 762	3.8050e-01	9.5933	89.193992	0.000767	7.674287	2.600119	-0.061303
 763	3.8100e-01	9.5644	88.697921	0.001242	12.420227	4.208087	-0.099214
 764	3.8150e-01	9.5259	88.443836	0.000636	6.361580	2.155362	-0.050817
 765	3.8200e-01	9.4762	88.121188	0.000808	8.078197	2.736967	-0.064530
 766	3.8250e-01	9.4377	87.834838	0.000717	7.169399	2.429058	-0.057270
 767	3.8300e-01	9.3960	87.250039	0.001464	14.641731	4.960753	-0.116960
 768	3.8350e-01	9.3591	86.866894	0.000959	9.592858	3.250148	-0.076629
 769	3.8400e-01	9.3190	86.568445	0.000747	7.472332	2.531695	-0.059690
 770	3.8450e-01	9.2741	86.229665	0.000848	8.482106	2.873815	-0.067756
 771	3.8500e-01	9.2404	85.927182	0.000757	7.573309	2.565907	-0.060496
 772	3.8550e-01	9.1906	85.616634	0.000778	7.775264	2.634331	-0.062110
 773	3.8600e-01	9.1521	85.128629	0.001222	12.218272	4.139663	-0.097601
 774	3.8650e-01	9.1104	84.652723	0.001192	11.915340	4.037026	-0.095181
 775	3.8700e-01	9.0784	84.418803	0.000586	5.856693	1.984301	-0.046784
 776	3.8750e-01	9.0415	84.075990	0.000858	8.583084	2.908028	-0.068563
 777	3.8800e-01	8.9981	83.664614	0.001030	10.299701	3.489633	-0.082275
 778	3.8850e-01	8.9596	83.374231	0.000727	7.270377	2.463270	-0.058077
 779	3.8900e-01	8.9147	83.144344	0.000576	5.755715	1.950089	-0.045977
 780	3.8950e-01	8.8746	82.789432	0.000889	8.886016	3.010664	-0.070983
 781	3.9000e-01	8.8329	82.410320	0.000949	9.491881	3.215936	-0.075822
 782	3.9050e-01	8.8072	82.035242	0.000939	9.390904	3.181724	-0.075016
 783	3.9100e-01	8.7527	81.672263	0.000909	9.087971	3.079088	-0.072596
 784	3.9150e-01	8.7238	81.264920	0.001020	10.198723	3.455421	-0.081469
 785	3.9200e-01	8.6789	80.760783	0.001262	12.622182	4.276511	-0.100827
 786	3.9250e-01	8.6404	80.313109	0.001121	11.208498	3.797542	-0.089535
 787	3.9300e-01	8.6019	79.966263	0.000868	8.684061	2.942240	-0.069369
 788	3.9350e-01	8.5522	79.800905	0.000414	4.140076	1.402696	-0.033071
 789	3.9400e-01	8.5185	79.195941	0.001515	15.146619	5.131813	-0.120993
 790	3.9450e-01	8.4832	78.933789	0.000656	6.563535	2.223786	-0.052430
 791	3.9500e-01	8.4302	78.679704	0.000636	6.361580	2.155362	-0.050817
 792	3.9550e-01	8.4030	78.223964	0.001141	11.410453	3.865966	-0.091148
 793	3.9600e-01	8.3564	77.796455	0.001070	10.703611	3.626481	-0.085502
 794	3.9650e-01	8.3228	77.610933	0.000464	4.644963	1.573756	-0.037105
 795	3.9700e-01	8.2730	77.260053	0.000879	8.785039	2.976452	-0.070176
 796	3.9750e-01	8.2265	77.054365	0.000515	5.149850	1.744817	-0.041138
 797	3.9800e-01	8.2105	76.562327	0.001232	12.319250	4.173875	-0.098408
 798	3.9850e-01	8.1527	76.086422	0.001192	11.915340	4.037026	-0.095181
 799	3.9900e-01	8.1190	75.501622	0.001464	14.641731	4.960753	-0.116960
 800	3.9950e-01	8.0821	75.308034	0.000485	4.846918	1.642180	-0.038718
 801	4.0000e-01	8.0356	74.832128	0.001192	11.915340	4.037026	-0.095181
 802	4.0050e-01	7.9939	74.646605	0.000464	4.644963	1.573756	-0.037105
 803	4.0100e-01	7.9618	74.327991	0.000798	7.977219	2.702755	-0.063723
 804	4.0150e-01	7.9153	73.944846	0.000959	9.592858	3.250148	-0.076629
 805	4.0200e-01	7.8736	73.650430	0.000737	7.371354	2.497482	-0.058883
 806	4.0250e-01	7.8335	73.267286	0.000959	9.592858	3.250148	-0.076629
 807	4.0300e-01	7.7918	72.908340	0.000899	8.986994	3.044876	-0.071789
 808	4.0350e-01	7.7565	72.444534	0.001161	11.612408	3.934390	-0.092761
 809	4.0400e-01	7.7260	71.891999	0.001383	13.833912	4.687056	-0.110507
 810	4.0450e-01	7.6779	71.710510	0.000454	4.543986	1.539544	-0.036298
 811	4.0500e-01	7.6410	71.270902	0.001101	11.006543	3.729118	-0.087922
 812	4.0550e-01	7.6025	70.992618	0.000697	6.967445	2.360634	-0.055657
 813	4.0600e-01	7.5591	70.432017	0.001404	14.035867	4.755480	-0.112120
 814	4.0650e-01	7.5094	70.141634	0.000727	7.270377	2.463270	-0.058077
 815	4.0700e-01	7.4741	69.798821	0.000858	8.583084	2.908028	-0.068563
 816	4.0750e-01	7.4372	69.460041	0.000848	8.482106	2.873815	-0.067756
 817	4.0800e-01	7.3939	69.129327	0.000828	8.280152	2.805391	-0.066143
 818	4.0850e-01	7.3554	68.677620	0.001131	11.309475	3.831754	-0.090341
 819	4.0900e-01	7.3073	68.270277	0.001020	10.198723	3.455421	-0.081469
 820	4.0950e-01	7.2784	67.987960	0.000707	7.068422	2.394846	-0.056463
 821	4.1000e-01	7.2303	67.483822	0.001262	12.622182	4.276511	-0.100827
 822	4.1050e-01	7.1950	67.011950	0.001181	11.814363	4.002814	-0.094375
 823	4.1100e-01	7.1597	66.757865	0.000636	6.361580	2.155362	-0.050817
 824	4.1150e-01	7.1116	66.415051	0.000858	8.583084	2.908028	-0.068563
 825	4.1200e-01	7.0699	65.959311	0.001141	11.410453	3.865966	-0.091148
 826	4.1250e-01	7.0362	65.539869	0.001050	10.501656	3.558057	-0.083888
 827	4.1300e-01	6.9993	65.265618	0.000687	6.866467	2.326422	-0.054850
 828	4.1350e-01	6.9592	65.120427	0.000364	3.635188	1.231635	-0.029038
 829	4.1400e-01	6.9158	64.616289	0.001262	12.622182	4.276511	-0.100827
 830	4.1450e-01	6.8677	64.208946	0.001020	10.198723	3.455421	-0.081469
 831	4.1500e-01	6.8372	63.749173	0.001151	11.511430	3.900178	-0.091955
 832	4.1550e-01	6.8003	63.527353	0.000555	5.553760	1.881665	-0.044364
 833	4.1600e-01	6.7522	62.954653	0.001434	14.338799	4.858117	-0.114540
 834	4.1650e-01	6.7137	62.567475	0.000969	9.693836	3.284361	-0.077435
 835	4.1700e-01	6.6784	62.365820	0.000505	5.048873	1.710604	-0.040331
 836	4.1750e-01	6.6415	61.885882	0.001202	12.016317	4.071239	-0.095988
 837	4.1800e-01	6.5902	61.587432	0.000747	7.472332	2.531695	-0.059690
 838	4.1850e-01	6.5549	61.151858	0.001091	10.905565	3.694906	-0.087115
 839	4.1900e-01	6.5164	60.825177	0.000818	8.179174	2.771179	-0.065336
 840	4.1950e-01	6.4747	60.381536	0.001111	11.107520	3.763330	-0.088728
 841	4.2000e-01	6.4378	60.079053	0.000757	7.573309	2.565907	-0.060496
 842	4.2050e-01	6.3993	59.615247	0.001161	11.612408	3.934390	-0.092761
 843	4.2100e-01	6.3544	59.470055	0.000364	3.635188	1.231635	-0.029038
 844	4.2150e-01	6.3239	58.877190	0.001484	14.843686	5.029177	-0.118573
 845	4.2200e-01	6.2822	58.671502	0.000515	5.149850	1.744817	-0.041138
 846	4.2250e-01	6.2405	58.280291	0.000979	9.794813	3.318573	-0.078242
 847	4.2300e-01	6.2004	57.828584	0.001131	11.309475	3.831754	-0.090341
 848	4.2350e-01	6.1570	57.493837	0.000838	8.381129	2.839603	-0.066949
 849	4.2400e-01	6.1137	57.042130	0.001131	11.309475	3.831754	-0.090341
 850	4.2450e-01	6.0833	56.630754	0.001030	10.299701	3.489633	-0.082275
 851	4.2500e-01	6.0399	56.340371	0.000727	7.270377	2.463270	-0.058077
 852	4.2550e-01	5.9966	55.799936	0.001353	13.530979	4.584420	-0.108087
 853	4.2600e-01	5.9549	55.449056	0.000879	8.785039	2.976452	-0.070176
 854	4.2650e-01	5.9164	55.299831	0.000374	3.736166	1.265847	-0.029845
 855	4.2700e-01	5.8763	54.840058	0.001151	11.511430	3.900178	-0.091955
 856	4.2750e-01	5.8426	54.404484	0.001091	10.905565	3.694906	-0.087115
 857	4.2800e-01	5.7993	54.041505	0.000909	9.087971	3.079088	-0.072596
 858	4.2850e-01	5.7576	53.674493	0.000919	9.188949	3.113300	-0.073402
 859	4.2900e-01	5.7223	53.287315	0.000969	9.693836	3.284361	-0.077435
 860	4.2950e-01	5.6758	52.892072	0.000990	9.895791	3.352785	-0.079049
 861	4.3000e-01	5.6293	52.597655	0.000737	7.371354	2.497482	-0.058883
 862	4.3050e-01	5.5956	52.299206	0.000747	7.472332	2.531695	-0.059690
 863	4.3100e-01	5.5555	51.637778	0.001656	16.560303	5.610783	-0.132286
 864	4.3150e-01	5.5202	51.222369	0.001040	10.400678	3.523845	-0.083082
 865	4.3200e-01	5.4785	50.891655	0.000828	8.280152	2.805391	-0.066143
 866	4.3250e-01	5.4335	50.448014	0.001111	11.107520	3.763330	-0.088728
 867	4.3300e-01	5.3886	50.072936	0.000939	9.390904	3.181724	-0.075016
 868	4.3350e-01	5.3565	49.972108	0.000252	2.524436	0.855302	-0.020165
 869	4.3400e-01	5.3132	49.419574	0.001383	13.833912	4.687056	-0.110507
 870	4.3450e-01	5.2843	48.838808	0.001454	14.540754	4.926541	-0.116153
 871	4.3500e-01	5.2314	48.475829	0.000909	9.087971	3.079088	-0.072596
 872	4.3550e-01	5.1945	48.318538	0.000394	3.938121	1.334271	-0.031458
 873	4.3600e-01	5.1576	48.056386	0.000656	6.563535	2.223786	-0.052430
 874	4.3650e-01	5.1191	47.616779	0.001101	11.006543	3.729118	-0.087922
 875	4.3700e-01	5.0774	46.902920	0.001787	17.873010	6.055540	-0.142772
 876	4.3750e-01	5.0325	46.628669	0.000687	6.866467	2.326422	-0.054850
 877	4.3800e-01	4.9924	46.459279	0.000424	4.241053	1.436908	-0.033878
 878	4.3850e-01	4.9667	45.902712	0.001393	13.934889	4.721268	-0.111314
 879	4.3900e-01	4.9154	45.616362	0.000717	7.169399	2.429058	-0.057270
 880	4.3950e-01	4.8801	45.233217	0.000959	9.592858	3.250148	-0.076629
 881	4.4000e-01	4.8416	44.777477	0.001141	11.410453	3.865966	-0.091148
 882	4.4050e-01	4.7967	44.434664	0.000858	8.583084	2.908028	-0.068563
 883	4.4100e-01	4.7501	44.152347	0.000707	7.068422	2.394846	-0.056463
 884	4.4150e-01	4.7148	43.720805	0.001080	10.804588	3.660694	-0.086308
 885	4.4200e-01	4.6795	43.281198	0.001101	11.006543	3.729118	-0.087922
 886	4.4250e-01	4.6410	42.873855	0.001020	10.198723	3.455421	-0.081469
 887	4.4300e-01	4.5913	42.648001	0.000565	5.654738	1.915877	-0.045171
 888	4.4350e-01	4.5544	42.030937	0.001545	15.449551	5.234450	-0.123413
 889	4.4400e-01	4.5143	41.736521	0.000737	7.371354	2.497482	-0.058883
 890	4.4450e-01	4.4838	41.337244	0.001000	9.996768	3.386997	-0.079855
 891	4.4500e-01	4.4389	41.034762	0.000757	7.573309	2.565907	-0.060496
 892	4.4550e-01	4.4004	40.333003	0.001757	17.570078	5.952903	-0.140352
 893	4.4600e-01	4.3619	40.058752	0.000687	6.866467	2.326422	-0.054850
 894	4.4650e-01	4.3154	39.792567	0.000666	6.664512	2.257998	-0.053237
 895	4.4700e-01	4.2657	39.570747	0.000555	5.553760	1.881665	-0.044364
 896	4.4750e-01	4.2368	38.998047	0.001434	14.338799	4.858117	-0.114540
 897	4.4800e-01	4.1999	38.582638	0.001040	10.400678	3.523845	-0.083082
 898	4.4850e-01	4.1566	38.425347	0.000394	3.938121	1.334271	-0.031458
 899	4.4900e-01	4.1068	38.001872	0.001060	10.602633	3.592269	-0.084695
 900	4.4950e-01	4.0748	37.489668	0.001282	12.824137	4.344935	-0.102441
 901	4.5000e-01	4.0362	37.086358	0.001010	10.097746	3.421209	-0.080662
 902	4.5050e-01	3.9977	36.521724	0.001414	14.136844	4.789692	-0.112927
 903	4.5100e-01	3.9592	36.110348	0.001030	10.299701	3.489633	-0.082275
 904	4.5150e-01	3.9143	35.795767	0.000788	7.876242	2.668543	-0.062916
 905	4.5200e-01	3.8758	35.674774	0.000303	3.029324	1.026363	-0.024199
 906	4.5250e-01	3.8325	35.154504	0.001303	13.026092	4.413359	-0.104054
 907	4.5300e-01	3.8020	34.856055	0.000747	7.472332	2.531695	-0.059690
 908	4.5350e-01	3.7571	34.355950	0.001252	12.521205	4.242299	-0.100021
 909	4.5400e-01	3.7186	33.956674	0.001000	9.996768	3.386997	-0.079855
 910	4.5450e-01	3.6849	33.484801	0.001181	11.814363	4.002814	-0.094375
 911	4.5500e-01	3.6400	32.980664	0.001262	12.622182	4.276511	-0.100827
 912	4.5550e-01	3.6031	32.577354	0.001010	10.097746	3.421209	-0.080662
 913	4.5600e-01	3.5598	32.186143	0.000979	9.794813	3.318573	-0.078242
 914	4.5650e-01	3.5149	31.972389	0.000535	5.351805	1.813241	-0.042751
 915	4.5700e-01	3.4748	31.613443	0.000899	8.986994	3.044876	-0.071789
 916	4.5750e-01	3.4347	31.073008	0.001353	13.530979	4.584420	-0.108087
 917	4.5800e-01	3.3930	30.564838	0.001272	12.723160	4.310723	-0.101634
 918	4.5850e-01	3.3512	30.556772	0.000020	0.201955	0.068424	-0.001613
 919	4.5900e-01	3.3192	29.963906	0.001484	14.843686	5.029177	-0.118573
 920	4.5950e-01	3.2710	29.544464	0.001050	10.501656	3.558057	-0.083888
 921	4.6000e-01	3.2261	29.020161	0.001313	13.127069	4.447572	-0.104861
 922	4.6050e-01	3.2020	28.798341	0.000555	5.553760	1.881665	-0.044364
 923	4.6100e-01	3.1539	28.366799	0.001080	10.804588	3.660694	-0.086308
 924	4.6150e-01	3.1250	27.987688	0.000949	9.491881	3.215936	-0.075822
 925	4.6200e-01	3.0753	27.556146	0.001080	10.804588	3.660694	-0.086308
 926	4.6250e-01	3.0320	27.306094	0.000626	6.260602	2.121150	-0.050010
 927	4.6300e-01	2.9919	26.963281	0.000858	8.583084	2.908028	-0.068563
 928	4.6350e-01	2.9518	26.447044	0.001293	12.925115	4.379147	-0.103247
 929	4.6400e-01	2.9277	25.950973	0.001242	12.420227	4.208087	-0.099214
 930	4.6450e-01	2.8844	25.499266	0.001131	11.309475	3.831754	-0.090341
 931	4.6500e-01	2.8363	25.087890	0.001030	10.299701	3.489633	-0.082275
 932	4.6550e-01	2.8026	24.821705	0.000666	6.664512	2.257998	-0.053237
 933	4.6600e-01	2.7577	24.232873	0.001474	14.742709	4.994965	-0.117766
 934	4.6650e-01	2.7256	23.869894	0.000909	9.087971	3.079088	-0.072596
 935	4.6700e-01	2.6775	23.680338	0.000475	4.745941	1.607968	-0.037911
 936	4.6750e-01	2.6390	23.172168	0.001272	12.723160	4.310723	-0.101634
 937	4.6800e-01	2.5989	22.768858	0.001010	10.097746	3.421209	-0.080662
 938	4.6850e-01	2.5652	22.462343	0.000767	7.674287	2.600119	-0.061303
 939	4.6900e-01	2.5138	21.938040	0.001313	13.127069	4.447572	-0.104861
 940	4.6950e-01	2.4753	21.696054	0.000606	6.058647	2.052725	-0.048397
 941	4.7000e-01	2.4400	21.260479	0.001091	10.905565	3.694906	-0.087115
 942	4.7050e-01	2.4047	20.812805	0.001121	11.208498	3.797542	-0.089535
 943	4.7100e-01	2.3534	20.348999	0.001161	11.612408	3.934390	-0.092761
 944	4.7150e-01	2.3213	19.981987	0.000919	9.188949	3.113300	-0.073402
 945	4.7200e-01	2.2732	19.639174	0.000858	8.583084	2.908028	-0.068563
 946	4.7250e-01	2.2395	19.106805	0.001333	13.329024	4.515996	-0.106474
 947	4.7300e-01	2.1994	18.792223	0.000788	7.876242	2.668543	-0.062916
 948	4.7350e-01	2.1609	18.433277	0.000899	8.986994	3.044876	-0.071789
 949	4.7400e-01	2.1112	18.122729	0.000778	7.775264	2.634331	-0.062110
 950	4.7450e-01	2.0839	17.800081	0.000808	8.078197	2.736967	-0.064530
 951	4.7500e-01	2.0406	17.404837	0.000990	9.895791	3.352785	-0.079049
 952	4.7550e-01	1.9892	17.033792	0.000929	9.289926	3.147512	-0.074209
 953	4.7600e-01	1.9572	16.578052	0.001141	11.410453	3.865966	-0.091148
 954	4.7650e-01	1.9171	16.150543	0.001070	10.703611	3.626481	-0.085502
 955	4.7700e-01	1.8802	15.602042	0.001373	13.732934	4.652844	-0.109700
 956	4.7750e-01	1.8336	15.339891	0.000656	6.563535	2.223786	-0.052430
 957	4.7800e-01	1.8016	14.984978	0.000889	8.886016	3.010664	-0.070983
 958	4.7850e-01	1.7663	14.295318	0.001727	17.267145	5.850267	-0.137932
 959	4.7900e-01	1.7213	14.142060	0.000384	3.837143	1.300059	-0.030652
 960	4.7950e-01	1.6780	13.783114	0.000899	8.986994	3.044876	-0.071789
 961	4.8000e-01	1.6411	13.129752	0.001636	16.358348	5.542358	-0.130672
 962	4.8050e-01	1.6026	12.811138	0.000798	7.977219	2.702755	-0.063723
 963	4.8100e-01	1.5545	12.440093	0.000929	9.289926	3.147512	-0.074209
 964	4.8150e-01	1.5128	11.980319	0.001151	11.511430	3.900178	-0.091955
 965	4.8200e-01	1.4775	11.782698	0.000495	4.947895	1.676392	-0.039524
 966	4.8250e-01	1.4342	11.185799	0.001494	14.944664	5.063389	-0.119380
 967	4.8300e-01	1.3877	10.915581	0.000677	6.765490	2.292210	-0.054044
 968	4.8350e-01	1.3604	10.818787	0.000242	2.423459	0.821090	-0.019359
 969	4.8400e-01	1.3139	10.112995	0.001767	17.671055	5.987116	-0.141158
 970	4.8450e-01	1.2802	9.608857	0.001262	12.622182	4.276511	-0.100827
 971	4.8500e-01	1.2337	9.439467	0.000424	4.241053	1.436908	-0.033878
 972	4.8550e-01	1.1919	8.870800	0.001424	14.237822	4.823905	-0.113733
 973	4.8600e-01	1.1567	8.733675	0.000343	3.433234	1.163211	-0.027425
 974	4.8650e-01	1.1133	8.124677	0.001525	15.247596	5.166025	-0.121800
 975	4.8700e-01	1.0845	7.652805	0.001181	11.814363	4.002814	-0.094375
 976	4.8750e-01	1.0428	7.261594	0.000979	9.794813	3.318573	-0.078242
 977	4.8800e-01	0.9994	6.999443	0.000656	6.563535	2.223786	-0.052430
 978	4.8850e-01	0.9465	6.612265	0.000969	9.693836	3.284361	-0.077435
 979	4.8900e-01	0.9192	6.011333	0.001505	15.045641	5.097601	-0.120186
 980	4.8950e-01	0.8775	5.700785	0.000778	7.775264	2.634331	-0.062110
 981	4.9000e-01	0.8342	5.462832	0.000596	5.957670	2.018513	-0.047591
 982	4.9050e-01	0.8021	4.740907	0.001807	18.074965	6.123964	-0.144385
 983	4.9100e-01	0.7556	4.454557	0.000717	7.169399	2.429058	-0.057270
 984	4.9150e-01	0.7139	4.055281	0.001000	9.996768	3.386997	-0.079855
 985	4.9200e-01	0.6754	3.789096	0.000666	6.664512	2.257998	-0.053237
 986	4.9250e-01	0.6369	3.341422	0.001121	11.208498	3.797542	-0.089535
 987	4.9300e-01	0.5952	2.930046	0.001030	10.299701	3.489633	-0.082275
 988	4.9350e-01	0.5567	2.595299	0.000838	8.381129	2.839603	-0.066949
 989	4.9400e-01	0.5085	2.151658	0.001111	11.107520	3.763330	-0.088728
 990	4.9450e-01	0.4797	1.691885	0.001151	11.511430	3.900178	-0.091955
 991	4.9500e-01	0.4380	1.300674	0.000979	9.794813	3.318573	-0.078242
 992	4.9550e-01	0.3882	1.058688	0.000606	6.058647	2.052725	-0.048397
 993	4.9600e-01	0.3593	0.639246	0.001050	10.501656	3.558057	-0.083888
 994	4.9650e-01	0.3160	0.074612	0.001414	14.136844	4.789692	-0.112927
 995	4.9700e-01	0.2775	-0.385161	0.001151	11.511430	3.900178	-0.091955
 996	4.9750e-01	0.2374	-0.643279	0.000646	6.462557	2.189574	-0.051624
 997	4.9800e-01	0.1989	-1.224045	0.001454	14.540754	4.926541	-0.116153
 998	4.9850e-01	0.1620	-1.474098	0.000626	6.260602	2.121150	-0.050010
 999	4.9900e-01	0.1155	-1.966136	0.001232	12.319250	4.173875	-0.098408
1000	4.9950e-01	0.0818	-2.353313	0.000969	9.693836	3.284361	-0.077435
1001	5.0000e-01	0.0497	-2.857450	0.001262	12.622182	4.276511	-0.100827
1002	5.0050e-01	0.0080	-3.256727	0.001000	9.996768	3.386997	-0.079855
1003	5.0100e-01	-0.0337	-3.502746	0.000616	6.159625	2.086937	-0.049204
1004	5.0150e-01	-0.0674	-3.914122	0.001030	10.299701	3.489633	-0.082275
1005	5.0200e-01	-0.1171	-4.252902	0.000848	8.482106	2.873815	-0.067756
1006	5.0250e-01	-0.1492	-4.825602	0.001434	14.338799	4.858117	-0.114540
1007	5.0300e-01	-0.1973	-5.168416	0.000858	8.583084	2.908028	-0.068563
1008	5.0350e-01	-0.2310	-5.329740	0.000404	4.039098	1.368484	-0.032265
1009	5.0400e-01	-0.2839	-5.890341	0.001404	14.035867	4.755480	-0.112120
1010	5.0450e-01	-0.3289	-6.087962	0.000495	4.947895	1.676392	-0.039524
1011	5.0500e-01	-0.3529	-6.535636	0.001121	11.208498	3.797542	-0.089535
1012	5.0550e-01	-0.3995	-7.047840	0.001282	12.824137	4.344935	-0.102441
1013	5.0600e-01	-0.4251	-7.414852	0.000919	9.188949	3.113300	-0.073402
1014	5.0650e-01	-0.4781	-7.773798	0.000899	8.986994	3.044876	-0.071789
1015	5.0700e-01	-0.5118	-8.209372	0.001091	10.905565	3.694906	-0.087115
1016	5.0750e-01	-0.5535	-8.632848	0.001060	10.602633	3.592269	-0.084695
1017	5.0800e-01	-0.6016	-9.278143	0.001616	16.156393	5.473934	-0.129059
1018	5.0850e-01	-0.6369	-9.399136	0.000303	3.029324	1.026363	-0.024199
1019	5.0900e-01	-0.6754	-9.745983	0.000868	8.684061	2.942240	-0.069369
1020	5.0950e-01	-0.7123	-10.173491	0.001070	10.703611	3.626481	-0.085502
1021	5.1000e-01	-0.7524	-10.717960	0.001363	13.631957	4.618632	-0.108894
1022	5.1050e-01	-0.7909	-11.193865	0.001192	11.915340	4.037026	-0.095181
1023	5.1100e-01	-0.8390	-11.512480	0.000798	7.977219	2.702755	-0.063723
1024	5.1150e-01	-0.8727	-11.810929	0.000747	7.472332	2.531695	-0.059690
1025	5.1200e-01	-0.9192	-12.161809	0.000879	8.785039	2.976452	-0.070176
1026	5.1250e-01	-0.9625	-12.524788	0.000909	9.087971	3.079088	-0.072596
1027	5.1300e-01	-0.9930	-13.077322	0.001383	13.833912	4.687056	-0.110507
1028	5.1350e-01	-1.0363	-13.319308	0.000606	6.058647	2.052725	-0.048397
1029	5.1400e-01	-1.0780	-13.690353	0.000929	9.289926	3.147512	-0.074209
1030	5.1450e-01	-1.1182	-14.158193	0.001171	11.713385	3.968602	-0.093568
1031	5.1500e-01	-1.1567	-14.630065	0.001181	11.814363	4.002814	-0.094375
1032	5.1550e-01	-1.1984	-14.976912	0.000868	8.684061	2.942240	-0.069369
1033	5.1600e-01	-1.2369	-15.315692	0.000848	8.482106	2.873815	-0.067756
1034	5.1650e-01	-1.2673	-15.908557	0.001484	14.843686	5.029177	-0.118573
1035	5.1700e-01	-1.3139	-16.384463	0.001192	11.915340	4.037026	-0.095181
1036	5.1750e-01	-1.3540	-16.610317	0.000565	5.654738	1.915877	-0.045171
1037	5.1800e-01	-1.4053	-16.872468	0.000656	6.563535	2.223786	-0.052430
1038	5.1850e-01	-1.4310	-17.267712	0.000990	9.895791	3.352785	-0.079049
1039	5.1900e-01	-1.4839	-17.775882	0.001272	12.723160	4.310723	-0.101634
1040	5.1950e-01	-1.5208	-17.997703	0.000555	5.553760	1.881665	-0.044364
1041	5.2000e-01	-1.5529	-18.614767	0.001545	15.449551	5.234450	-0.123413
1042	5.2050e-01	-1.5994	-19.135036	0.001303	13.026092	4.413359	-0.104054
1043	5.2100e-01	-1.6459	-19.312493	0.000444	4.443008	1.505332	-0.035491
1044	5.2150e-01	-1.6764	-19.852928	0.001353	13.530979	4.584420	-0.108087
1045	5.2200e-01	-1.7181	-20.111046	0.000646	6.462557	2.189574	-0.051624
1046	5.2250e-01	-1.7518	-20.449826	0.000848	8.482106	2.873815	-0.067756
1047	5.2300e-01	-1.7983	-21.014460	0.001414	14.136844	4.789692	-0.112927
1048	5.2350e-01	-1.8352	-21.397605	0.000959	9.592858	3.250148	-0.076629
1049	5.2400e-01	-1.8818	-21.712186	0.000788	7.876242	2.668543	-0.062916
1050	5.2450e-01	-1.9203	-22.079198	0.000919	9.188949	3.113300	-0.073402
1051	5.2500e-01	-1.9588	-22.522839	0.001111	11.107520	3.763330	-0.088728
1052	5.2550e-01	-2.0021	-22.910017	0.000969	9.693836	3.284361	-0.077435
1053	5.2600e-01	-2.0358	-23.369790	0.001151	11.511430	3.900178	-0.091955
1054	5.2650e-01	-2.0807	-23.748901	0.000949	9.491881	3.215936	-0.075822
1055	5.2700e-01	-2.1176	-23.962655	0.000535	5.351805	1.813241	-0.042751
1056	5.2750e-01	-2.1545	-24.152211	0.000475	4.745941	1.607968	-0.037911
1057	5.2800e-01	-2.1946	-24.737010	0.001464	14.641731	4.960753	-0.116960
1058	5.2850e-01	-2.2315	-25.245181	0.001272	12.723160	4.310723	-0.101634
1059	5.2900e-01	-2.2668	-25.765450	0.001303	13.026092	4.413359	-0.104054
1060	5.2950e-01	-2.3165	-25.906609	0.000353	3.534211	1.197423	-0.028232
1061	5.3000e-01	-2.3582	-26.547872	0.001606	16.055416	5.439722	-0.128253
1062	5.3050e-01	-2.3903	-27.003612	0.001141	11.410453	3.865966	-0.091148
1063	5.3100e-01	-2.4432	-27.185101	0.000454	4.543986	1.539544	-0.036298
1064	5.3150e-01	-2.4769	-27.616643	0.001080	10.804588	3.660694	-0.086308
1065	5.3200e-01	-2.5122	-27.979622	0.000909	9.087971	3.079088	-0.072596
1066	5.3250e-01	-2.5523	-28.374865	0.000990	9.895791	3.352785	-0.079049
1067	5.3300e-01	-2.5973	-28.951598	0.001444	14.439776	4.892329	-0.115347
1068	5.3350e-01	-2.6422	-29.169386	0.000545	5.452783	1.847453	-0.043557
1069	5.3400e-01	-2.6743	-29.592861	0.001060	10.602633	3.592269	-0.084695
1070	5.3450e-01	-2.7224	-30.032469	0.001101	11.006543	3.729118	-0.087922
1071	5.3500e-01	-2.7577	-30.464010	0.001080	10.804588	3.660694	-0.086308
1072	5.3550e-01	-2.8026	-30.863287	0.001000	9.996768	3.386997	-0.079855
1073	5.3600e-01	-2.8411	-31.117372	0.000636	6.361580	2.155362	-0.050817
1074	5.3650e-01	-2.8764	-31.331126	0.000535	5.351805	1.813241	-0.042751
1075	5.3700e-01	-2.9261	-31.730403	0.001000	9.996768	3.386997	-0.079855
1076	5.3750e-01	-2.9598	-32.274872	0.001363	13.631957	4.618632	-0.108894
1077	5.3800e-01	-2.9903	-32.738678	0.001161	11.612408	3.934390	-0.092761
1078	5.3850e-01	-3.0272	-33.125855	0.000969	9.693836	3.284361	-0.077435
1079	5.3900e-01	-3.0817	-33.488834	0.000909	9.087971	3.079088	-0.072596
1080	5.3950e-01	-3.1186	-33.952641	0.001161	11.612408	3.934390	-0.092761
1081	5.4000e-01	-3.1507	-34.295454	0.000858	8.583084	2.908028	-0.068563
1082	5.4050e-01	-3.2004	-34.964948	0.001676	16.762258	5.679207	-0.133899
1083	5.4100e-01	-3.2277	-35.057710	0.000232	2.322482	0.786878	-0.018552
1084	5.4150e-01	-3.2807	-35.481185	0.001060	10.602633	3.592269	-0.084695
1085	5.4200e-01	-3.3208	-35.900627	0.001050	10.501656	3.558057	-0.083888
1086	5.4250e-01	-3.3625	-36.251507	0.000879	8.785039	2.976452	-0.070176
1087	5.4300e-01	-3.3962	-36.586254	0.000838	8.381129	2.839603	-0.066949
1088	5.4350e-01	-3.4315	-36.925034	0.000848	8.482106	2.873815	-0.067756
1089	5.4400e-01	-3.4684	-37.473536	0.001373	13.732934	4.652844	-0.109700
1090	5.4450e-01	-3.5133	-37.945408	0.001181	11.814363	4.002814	-0.094375
1091	5.4500e-01	-3.5598	-38.167229	0.000555	5.553760	1.881665	-0.044364
1092	5.4550e-01	-3.6079	-38.651200	0.001212	12.117295	4.105451	-0.096794
1093	5.4600e-01	-3.6400	-38.965782	0.000788	7.876242	2.668543	-0.062916
1094	5.4650e-01	-3.6705	-39.482019	0.001293	12.925115	4.379147	-0.103247
1095	5.4700e-01	-3.7122	-39.869196	0.000969	9.693836	3.284361	-0.077435
1096	5.4750e-01	-3.7619	-39.994222	0.000313	3.130301	1.060575	-0.025005
1097	5.4800e-01	-3.8004	-40.453996	0.001151	11.511430	3.900178	-0.091955
1098	5.4850e-01	-3.8502	-40.845206	0.000979	9.794813	3.318573	-0.078242
1099	5.4900e-01	-3.8838	-41.345310	0.001252	12.521205	4.242299	-0.100021
1100	5.4950e-01	-3.9223	-41.567131	0.000555	5.553760	1.881665	-0.044364
1101	5.5000e-01	-3.9625	-41.934143	0.000919	9.188949	3.113300	-0.073402
1102	5.5050e-01	-3.9897	-42.244691	0.000778	7.775264	2.634331	-0.062110
1103	5.5100e-01	-4.0395	-42.704465	0.001151	11.511430	3.900178	-0.091955
1104	5.5150e-01	-4.0764	-43.051311	0.000868	8.684061	2.942240	-0.069369
1105	5.5200e-01	-4.1277	-43.599812	0.001373	13.732934	4.652844	-0.109700
1106	5.5250e-01	-4.1518	-43.882129	0.000707	7.068422	2.394846	-0.056463
1107	5.5300e-01	-4.1983	-44.333836	0.001131	11.309475	3.831754	-0.090341
1108	5.5350e-01	-4.2416	-44.700848	0.000919	9.188949	3.113300	-0.073402
1109	5.5400e-01	-4.2817	-44.753279	0.000131	1.312707	0.444757	-0.010486
1110	5.5450e-01	-4.3218	-45.309846	0.001393	13.934889	4.721268	-0.111314
1111	5.5500e-01	-4.3587	-45.765586	0.001141	11.410453	3.865966	-0.091148
1112	5.5550e-01	-4.3940	-46.180996	0.001040	10.400678	3.523845	-0.083082
1113	5.5600e-01	-4.4421	-46.826291	0.001616	16.156393	5.473934	-0.129059
1114	5.5650e-01	-4.4694	-47.197336	0.000929	9.289926	3.147512	-0.074209
1115	5.5700e-01	-4.5223	-47.298164	0.000252	2.524436	0.855302	-0.020165
1116	5.5750e-01	-4.5496	-47.584514	0.000717	7.169399	2.429058	-0.057270
1117	5.5800e-01	-4.5945	-48.052353	0.001171	11.713385	3.968602	-0.093568
1118	5.5850e-01	-4.6410	-48.375001	0.000808	8.078197	2.736967	-0.064530
1119	5.5900e-01	-4.6795	-48.778311	0.001010	10.097746	3.421209	-0.080662
1120	5.5950e-01	-4.7148	-49.205819	0.001070	10.703611	3.626481	-0.085502
1121	5.6000e-01	-4.7566	-49.770453	0.001414	14.136844	4.789692	-0.112927
1122	5.6050e-01	-4.7918	-50.068903	0.000747	7.472332	2.531695	-0.059690
1123	5.6100e-01	-4.8400	-50.262491	0.000485	4.846918	1.642180	-0.038718
1124	5.6150e-01	-4.8865	-50.810993	0.001373	13.732934	4.652844	-0.109700
1125	5.6200e-01	-4.9138	-51.303031	0.001232	12.319250	4.173875	-0.098408
1126	5.6250e-01	-4.9635	-51.678109	0.000939	9.390904	3.181724	-0.075016
1127	5.6300e-01	-4.9908	-51.734572	0.000141	1.413684	0.478969	-0.011293
1128	5.6350e-01	-5.0389	-52.275008	0.001353	13.530979	4.584420	-0.108087
1129	5.6400e-01	-5.0790	-52.553291	0.000697	6.967445	2.360634	-0.055657
1130	5.6450e-01	-5.1159	-52.984833	0.001080	10.804588	3.660694	-0.086308
1131	5.6500e-01	-5.1608	-53.295381	0.000778	7.775264	2.634331	-0.062110
1132	5.6550e-01	-5.1961	-53.730956	0.001091	10.905565	3.694906	-0.087115
1133	5.6600e-01	-5.2474	-54.069736	0.000848	8.482106	2.873815	-0.067756
1134	5.6650e-01	-5.2715	-54.469013	0.001000	9.996768	3.386997	-0.079855
1135	5.6700e-01	-5.3196	-54.670668	0.000505	5.048873	1.710604	-0.040331
1136	5.6750e-01	-5.3565	-55.259500	0.001474	14.742709	4.994965	-0.117766
1137	5.6800e-01	-5.3998	-55.513586	0.000636	6.361580	2.155362	-0.050817
1138	5.6850e-01	-5.4432	-56.114517	0.001505	15.045641	5.097601	-0.120186
1139	5.6900e-01	-5.4720	-56.360536	0.000616	6.159625	2.086937	-0.049204
1140	5.6950e-01	-5.5105	-56.622688	0.000656	6.563535	2.223786	-0.052430
1141	5.7000e-01	-5.5555	-56.921137	0.000747	7.472332	2.531695	-0.059690
1142	5.7050e-01	-5.6052	-57.328480	0.001020	10.198723	3.455421	-0.081469
1143	5.7100e-01	-5.6389	-57.695492	0.000919	9.188949	3.113300	-0.073402
1144	5.7150e-01	-5.6854	-57.929412	0.000586	5.856693	1.984301	-0.046784
1145	5.7200e-01	-5.7239	-58.449681	0.001303	13.026092	4.413359	-0.104054
1146	5.7250e-01	-5.7656	-58.828793	0.000949	9.491881	3.215936	-0.075822
1147	5.7300e-01	-5.7913	-59.296632	0.001171	11.713385	3.968602	-0.093568
1148	5.7350e-01	-5.8458	-59.675743	0.000949	9.491881	3.215936	-0.075822
1149	5.7400e-01	-5.8763	-59.929829	0.000636	6.361580	2.155362	-0.050817
1150	5.7450e-01	-5.9164	-60.393635	0.001161	11.612408	3.934390	-0.092761
1151	5.7500e-01	-5.9533	-60.946170	0.001383	13.833912	4.687056	-0.110507
1152	5.7550e-01	-5.9950	-61.059096	0.000283	2.827369	0.957938	-0.022585
1153	5.7600e-01	-6.0319	-61.405943	0.000868	8.684061	2.942240	-0.069369
1154	5.7650e-01	-6.0752	-61.768922	0.000909	9.087971	3.079088	-0.072596
1155	5.7700e-01	-6.1153	-62.035106	0.000666	6.664512	2.257998	-0.053237
1156	5.7750e-01	-6.1619	-62.599740	0.001414	14.136844	4.789692	-0.112927
1157	5.7800e-01	-6.2004	-62.833660	0.000586	5.856693	1.984301	-0.046784
1158	5.7850e-01	-6.2340	-63.099844	0.000666	6.664512	2.257998	-0.053237
1159	5.7900e-01	-6.2774	-63.612048	0.001282	12.824137	4.344935	-0.102441
1160	5.7950e-01	-6.3175	-63.914530	0.000757	7.573309	2.565907	-0.060496
1161	5.8000e-01	-6.3576	-64.366237	0.001131	11.309475	3.831754	-0.090341
1162	5.8050e-01	-6.4057	-64.592091	0.000565	5.654738	1.915877	-0.045171
1163	5.8100e-01	-6.4410	-65.394677	0.002009	20.094514	6.808206	-0.160517
1164	5.8150e-01	-6.4795	-65.471306	0.000192	1.918572	0.650030	-0.015326
1165	5.8200e-01	-6.5164	-65.737491	0.000666	6.664512	2.257998	-0.053237
1166	5.8250e-01	-6.5533	-66.031907	0.000737	7.371354	2.497482	-0.058883
1167	5.8300e-01	-6.5918	-66.483614	0.001131	11.309475	3.831754	-0.090341
1168	5.8350e-01	-6.6303	-66.967586	0.001212	12.117295	4.105451	-0.096794
1169	5.8400e-01	-6.6752	-67.100678	0.000333	3.332256	1.128999	-0.026618
1170	5.8450e-01	-6.7153	-67.491889	0.000979	9.794813	3.318573	-0.078242
1171	5.8500e-01	-6.7522	-67.939563	0.001121	11.208498	3.797542	-0.089535
1172	5.8550e-01	-6.8003	-68.322707	0.000959	9.592858	3.250148	-0.076629
1173	5.8600e-01	-6.8388	-68.568726	0.000616	6.159625	2.086937	-0.049204
1174	5.8650e-01	-6.8741	-68.875241	0.000767	7.674287	2.600119	-0.061303
1175	5.8700e-01	-6.9142	-69.294684	0.001050	10.501656	3.558057	-0.083888
1176	5.8750e-01	-6.9495	-69.778655	0.001212	12.117295	4.105451	-0.096794
1177	5.8800e-01	-7.0041	-70.020641	0.000606	6.058647	2.052725	-0.048397
1178	5.8850e-01	-7.0394	-70.589308	0.001424	14.237822	4.823905	-0.113733
1179	5.8900e-01	-7.0682	-71.041015	0.001131	11.309475	3.831754	-0.090341
1180	5.8950e-01	-7.1116	-71.283001	0.000606	6.058647	2.052725	-0.048397
1181	5.9000e-01	-7.1453	-71.589517	0.000767	7.674287	2.600119	-0.061303
1182	5.9050e-01	-7.1902	-71.775039	0.000464	4.644963	1.573756	-0.037105
1183	5.9100e-01	-7.2319	-72.154151	0.000949	9.491881	3.215936	-0.075822
1184	5.9150e-01	-7.2816	-72.472765	0.000798	7.977219	2.702755	-0.063723
1185	5.9200e-01	-7.3185	-72.779281	0.000767	7.674287	2.600119	-0.061303
1186	5.9250e-01	-7.3538	-73.263253	0.001212	12.117295	4.105451	-0.096794
1187	5.9300e-01	-7.3987	-73.678662	0.001040	10.400678	3.523845	-0.083082
1188	5.9350e-01	-7.4436	-73.997277	0.000798	7.977219	2.702755	-0.063723
1189	5.9400e-01	-7.4757	-74.424785	0.001070	10.703611	3.626481	-0.085502
1190	5.9450e-01	-7.5222	-74.638539	0.000535	5.351805	1.813241	-0.042751
1191	5.9500e-01	-7.5575	-74.941022	0.000757	7.573309	2.565907	-0.060496
1192	5.9550e-01	-7.5960	-75.316100	0.000939	9.390904	3.181724	-0.075016
1193	5.9600e-01	-7.6378	-75.731509	0.001040	10.400678	3.523845	-0.083082
1194	5.9650e-01	-7.6682	-76.304209	0.001434	14.338799	4.858117	-0.114540
1195	5.9700e-01	-7.7115	-76.558294	0.000636	6.361580	2.155362	-0.050817
1196	5.9750e-01	-7.7533	-76.755916	0.000495	4.947895	1.676392	-0.039524
1197	5.9800e-01	-7.7934	-77.001935	0.000616	6.159625	2.086937	-0.049204
1198	5.9850e-01	-7.8367	-77.372980	0.000929	9.289926	3.147512	-0.074209
1199	5.9900e-01	-7.8800	-77.723860	0.000879	8.785039	2.976452	-0.070176
1200	5.9950e-01	-7.9233	-78.062640	0.000848	8.482106	2.873815	-0.067756
1201	6.0000e-01	-7.9538	-78.494182	0.001080	10.804588	3.660694	-0.086308
1202	6.0050e-01	-7.9923	-79.050749	0.001393	13.934889	4.721268	-0.111314
1203	6.0100e-01	-8.0292	-79.466158	0.001040	10.400678	3.523845	-0.083082
1204	6.0150e-01	-8.0757	-79.728310	0.000656	6.563535	2.223786	-0.052430
1205	6.0200e-01	-8.1222	-80.010627	0.000707	7.068422	2.394846	-0.056463
1206	6.0250e-01	-8.1591	-80.260679	0.000626	6.260602	2.121150	-0.050010
1207	6.0300e-01	-8.1992	-80.542996	0.000707	7.068422	2.394846	-0.056463
1208	6.0350e-01	-8.2345	-81.022934	0.001202	12.016317	4.071239	-0.095988
1209	6.0400e-01	-8.2794	-81.373814	0.000879	8.785039	2.976452	-0.070176
1210	6.0450e-01	-8.3163	-81.664197	0.000727	7.270377	2.463270	-0.058077
1211	6.0500e-01	-8.3597	-82.091706	0.001070	10.703611	3.626481	-0.085502
1212	6.0550e-01	-8.3982	-82.446618	0.000889	8.886016	3.010664	-0.070983
1213	6.0600e-01	-8.4367	-82.745067	0.000747	7.472332	2.531695	-0.059690
1214	6.0650e-01	-8.4768	-83.083848	0.000848	8.482106	2.873815	-0.067756
1215	6.0700e-01	-8.5265	-83.458926	0.000939	9.390904	3.181724	-0.075016
1216	6.0750e-01	-8.5570	-83.801739	0.000858	8.583084	2.908028	-0.068563
1217	6.0800e-01	-8.5939	-84.096156	0.000737	7.371354	2.497482	-0.058883
1218	6.0850e-01	-8.6308	-84.366373	0.000677	6.765490	2.292210	-0.054044
1219	6.0900e-01	-8.6661	-84.749517	0.000959	9.592858	3.250148	-0.076629
1220	6.0950e-01	-8.7094	-85.132662	0.000959	9.592858	3.250148	-0.076629
1221	6.1000e-01	-8.7479	-85.535972	0.001010	10.097746	3.421209	-0.080662
1222	6.1050e-01	-8.8040	-85.560170	0.000061	0.605865	0.205273	-0.004840
1223	6.1100e-01	-8.8409	-86.068341	0.001272	12.723160	4.310723	-0.101634
1224	6.1150e-01	-8.8762	-86.560379	0.001232	12.319250	4.173875	-0.098408
1225	6.1200e-01	-8.9147	-86.749934	0.000475	4.745941	1.607968	-0.037911
1226	6.1250e-01	-8.9564	-87.044351	0.000737	7.371354	2.497482	-0.058883
1227	6.1300e-01	-8.9965	-87.459760	0.001040	10.400678	3.523845	-0.083082
1228	6.1350e-01	-9.0302	-87.939698	0.001202	12.016317	4.071239	-0.095988
1229	6.1400e-01	-9.0719	-88.351075	0.001030	10.299701	3.489633	-0.082275
1230	6.1450e-01	-9.1201	-88.556763	0.000515	5.149850	1.744817	-0.041138
1231	6.1500e-01	-9.1505	-88.919741	0.000909	9.087971	3.079088	-0.072596
1232	6.1550e-01	-9.1987	-89.101231	0.000454	4.543986	1.539544	-0.036298
1233	6.1600e-01	-9.2388	-89.516640	0.001040	10.400678	3.523845	-0.083082
1234	6.1650e-01	-9.2709	-89.867520	0.000879	8.785039	2.976452	-0.070176
1235	6.1700e-01	-9.3254	-90.149837	0.000707	7.068422	2.394846	-0.056463
1236	6.1750e-01	-9.3559	-90.464418	0.000788	7.876242	2.668543	-0.062916
1237	6.1800e-01	-9.3976	-90.895960	0.001080	10.804588	3.660694	-0.086308
1238	6.1850e-01	-9.4361	-91.129879	0.000586	5.856693	1.984301	-0.046784
1239	6.1900e-01	-9.4890	-91.492858	0.000909	9.087971	3.079088	-0.072596
1240	6.1950e-01	-9.5163	-91.908267	0.001040	10.400678	3.523845	-0.083082
1241	6.2000e-01	-9.5516	-92.182518	0.000687	6.866467	2.326422	-0.054850
1242	6.2050e-01	-9.5981	-92.400306	0.000545	5.452783	1.847453	-0.043557
1243	6.2100e-01	-9.6366	-92.977039	0.001444	14.439776	4.892329	-0.115347
1244	6.2150e-01	-9.6607	-93.396481	0.001050	10.501656	3.558057	-0.083888
1245	6.2200e-01	-9.7152	-93.719129	0.000808	8.078197	2.736967	-0.064530
1246	6.2250e-01	-9.7537	-93.973214	0.000636	6.361580	2.155362	-0.050817
1247	6.2300e-01	-9.8003	-94.223266	0.000626	6.260602	2.121150	-0.050010
1248	6.2350e-01	-9.8307	-94.670940	0.001121	11.208498	3.797542	-0.089535
1249	6.2400e-01	-9.8757	-94.820165	0.000374	3.736166	1.265847	-0.029845
1250	6.2450e-01	-9.9158	-95.041985	0.000555	5.553760	1.881665	-0.044364
1251	6.2500e-01	-9.9559	-95.360600	0.000798	7.977219	2.702755	-0.063723
1252	6.2550e-01	-9.9928	-95.949432	0.001474	14.742709	4.994965	-0.117766
1253	6.2600e-01	-10.0361	-96.219650	0.000677	6.765490	2.292210	-0.054044
1254	6.2650e-01	-10.0778	-96.522132	0.000757	7.573309	2.565907	-0.060496
1255	6.2700e-01	-10.1147	-96.848813	0.000818	8.179174	2.771179	-0.065336
1256	6.2750e-01	-10.1580	-97.280355	0.001080	10.804588	3.660694	-0.086308
1257	6.2800e-01	-10.1837	-97.687698	0.001020	10.198723	3.455421	-0.081469
1258	6.2850e-01	-10.2366	-97.925651	0.000596	5.957670	2.018513	-0.047591
1259	6.2900e-01	-10.2703	-98.123272	0.000495	4.947895	1.676392	-0.039524
1260	6.2950e-01	-10.3136	-98.599178	0.001192	11.915340	4.037026	-0.095181
1261	6.3000e-01	-10.3633	-98.804866	0.000515	5.149850	1.744817	-0.041138
1262	6.3050e-01	-10.4002	-99.127514	0.000808	8.078197	2.736967	-0.064530
1263	6.3100e-01	-10.4323	-99.555022	0.001070	10.703611	3.626481	-0.085502
1264	6.3150e-01	-10.4724	-99.909935	0.000889	8.886016	3.010664	-0.070983
1265	6.3200e-01	-10.5302	-100.164020	0.000636	6.361580	2.155362	-0.050817
1266	6.3250e-01	-10.5510	-100.587496	0.001060	10.602633	3.592269	-0.084695
1267	6.3300e-01	-10.5992	-100.716555	0.000323	3.231279	1.094787	-0.025812
1268	6.3350e-01	-10.6361	-101.184394	0.001171	11.713385	3.968602	-0.093568
1269	6.3400e-01	-10.6762	-101.454612	0.000677	6.765490	2.292210	-0.054044
1270	6.3450e-01	-10.7115	-101.740962	0.000717	7.169399	2.429058	-0.057270
1271	6.3500e-01	-10.7628	-102.164437	0.001060	10.602633	3.592269	-0.084695
1272	6.3550e-01	-10.7933	-102.535482	0.000929	9.289926	3.147512	-0.074209
1273	6.3600e-01	-10.8414	-102.833932	0.000747	7.472332	2.531695	-0.059690
1274	6.3650e-01	-10.8751	-103.079951	0.000616	6.159625	2.086937	-0.049204
1275	6.3700e-01	-10.9168	-103.418731	0.000848	8.482106	2.873815	-0.067756
1276	6.3750e-01	-10.9553	-103.713147	0.000737	7.371354	2.497482	-0.058883
1277	6.3800e-01	-11.0050	-104.051927	0.000848	8.482106	2.873815	-0.067756
1278	6.3850e-01	-11.0403	-104.394741	0.000858	8.583084	2.908028	-0.068563
1279	6.3900e-01	-11.0756	-104.636727	0.000606	6.058647	2.052725	-0.048397
1280	6.3950e-01	-11.1205	-105.011805	0.000939	9.390904	3.181724	-0.075016
1281	6.4000e-01	-11.1542	-105.261857	0.000626	6.260602	2.121150	-0.050010
1282	6.4050e-01	-11.1927	-105.697432	0.001091	10.905565	3.694906	-0.087115
1283	6.4100e-01	-11.2377	-105.971682	0.000687	6.866467	2.326422	-0.054850
1284	6.4150e-01	-11.2810	-106.225768	0.000636	6.361580	2.155362	-0.050817
1285	6.4200e-01	-11.3163	-106.524217	0.000747	7.472332	2.531695	-0.059690
1286	6.4250e-01	-11.3596	-106.975924	0.001131	11.309475	3.831754	-0.090341
1287	6.4300e-01	-11.4045	-107.294539	0.000798	7.977219	2.702755	-0.063723
1288	6.4350e-01	-11.4430	-107.520392	0.000565	5.654738	1.915877	-0.045171
1289	6.4400e-01	-11.4863	-107.834974	0.000788	7.876242	2.668543	-0.062916
1290	6.4450e-01	-11.5152	-108.109225	0.000687	6.866467	2.326422	-0.054850
1291	6.4500e-01	-11.5617	-108.496402	0.000969	9.693836	3.284361	-0.077435
1292	6.4550e-01	-11.5954	-108.718222	0.000555	5.553760	1.881665	-0.044364
1293	6.4600e-01	-11.6371	-109.182029	0.001161	11.612408	3.934390	-0.092761
1294	6.4650e-01	-11.6804	-109.565173	0.000959	9.592858	3.250148	-0.076629
1295	6.4700e-01	-11.7125	-109.690199	0.000313	3.130301	1.060575	-0.025005
1296	6.4750e-01	-11.7558	-110.133840	0.001111	11.107520	3.763330	-0.088728
1297	6.4800e-01	-11.7991	-110.492786	0.000899	8.986994	3.044876	-0.071789
1298	6.4850e-01	-11.8441	-110.718639	0.000565	5.654738	1.915877	-0.045171
1299	6.4900e-01	-11.8858	-110.948526	0.000576	5.755715	1.950089	-0.045977
1300	6.4950e-01	-11.9146	-111.311505	0.000909	9.087971	3.079088	-0.072596
1301	6.5000e-01	-11.9563	-111.589789	0.000697	6.967445	2.360634	-0.055657
1302	6.5050e-01	-11.9965	-111.896304	0.000767	7.674287	2.600119	-0.061303
1303	6.5100e-01	-12.0366	-112.323813	0.001070	10.703611	3.626481	-0.085502
1304	6.5150e-01	-12.0686	-112.589997	0.000666	6.664512	2.257998	-0.053237
1305	6.5200e-01	-12.1184	-112.892480	0.000757	7.573309	2.565907	-0.060496
1306	6.5250e-01	-12.1649	-113.275624	0.000959	9.592858	3.250148	-0.076629
1307	6.5300e-01	-12.1890	-113.525676	0.000626	6.260602	2.121150	-0.050010
1308	6.5350e-01	-12.2467	-113.896721	0.000929	9.289926	3.147512	-0.074209
1309	6.5400e-01	-12.2804	-113.969317	0.000182	1.817594	0.615818	-0.014519
1310	6.5450e-01	-12.3205	-114.461355	0.001232	12.319250	4.173875	-0.098408
1311	6.5500e-01	-12.3654	-114.844499	0.000959	9.592858	3.250148	-0.076629
1312	6.5550e-01	-12.3991	-115.146982	0.000757	7.573309	2.565907	-0.060496
1313	6.5600e-01	-12.4376	-115.433332	0.000717	7.169399	2.429058	-0.057270
1314	6.5650e-01	-12.4761	-115.687417	0.000636	6.361580	2.155362	-0.050817
1315	6.5700e-01	-12.5275	-116.074594	0.000969	9.693836	3.284361	-0.077435
1316	6.5750e-01	-12.5547	-116.389176	0.000788	7.876242	2.668543	-0.062916
1317	6.5800e-01	-12.5964	-116.643261	0.000636	6.361580	2.155362	-0.050817
1318	6.5850e-01	-12.6349	-116.865082	0.000555	5.553760	1.881665	-0.044364
1319	6.5900e-01	-12.6766	-117.385351	0.001303	13.026092	4.413359	-0.104054
1320	6.5950e-01	-12.7055	-117.591039	0.000515	5.149850	1.744817	-0.041138
1321	6.6000e-01	-12.7569	-117.695900	0.000263	2.625414	0.889514	-0.020972
1322	6.6050e-01	-12.7954	-118.224236	0.001323	13.228047	4.481784	-0.105667
1323	6.6100e-01	-12.8403	-118.611413	0.000969	9.693836	3.284361	-0.077435
1324	6.6150e-01	-12.8692	-119.284941	0.001686	16.863235	5.713419	-0.134705
1325	6.6200e-01	-12.9157	-118.990525	-0.000737	-7.371354	-2.497482	0.058883
1326	6.6250e-01	-12.9622	-119.418033	0.001070	10.703611	3.626481	-0.085502
1327	6.6300e-01	-12.9943	-119.829409	0.001030	10.299701	3.489633	-0.082275
1328	6.6350e-01	-13.0312	-120.103660	0.000687	6.866467	2.326422	-0.054850
1329	6.6400e-01	-13.0841	-120.240785	0.000343	3.433234	1.163211	-0.027425
1330	6.6450e-01	-13.1098	-120.547301	0.000767	7.674287	2.600119	-0.061303
1331	6.6500e-01	-13.1579	-120.954644	0.001020	10.198723	3.455421	-0.081469
1332	6.6550e-01	-13.1980	-121.366020	0.001030	10.299701	3.489633	-0.082275
1333	6.6600e-01	-13.2381	-121.527344	0.000404	4.039098	1.368484	-0.032265
1334	6.6650e-01	-13.2734	-122.003249	0.001192	11.915340	4.037026	-0.095181
1335	6.6700e-01	-13.3151	-122.091977	0.000222	2.221504	0.752666	-0.017746
1336	6.6750e-01	-13.3617	-122.402526	0.000778	7.775264	2.634331	-0.062110
1337	6.6800e-01	-13.3873	-122.830034	0.001070	10.703611	3.626481	-0.085502
1338	6.6850e-01	-13.4354	-123.031689	0.000505	5.048873	1.710604	-0.040331
1339	6.6900e-01	-13.4691	-123.370470	0.000848	8.482106	2.873815	-0.067756
1340	6.6950e-01	-13.5189	-123.632621	0.000656	6.563535	2.223786	-0.052430
1341	6.7000e-01	-13.5477	-124.048030	0.001040	10.400678	3.523845	-0.083082
1342	6.7050e-01	-13.5975	-124.346480	0.000747	7.472332	2.531695	-0.059690
1343	6.7100e-01	-13.6376	-124.536035	0.000475	4.745941	1.607968	-0.037911
1344	6.7150e-01	-13.6729	-125.032106	0.001242	12.420227	4.208087	-0.099214
1345	6.7200e-01	-13.7178	-125.181331	0.000374	3.736166	1.265847	-0.029845
1346	6.7250e-01	-13.7531	-125.512045	0.000828	8.280152	2.805391	-0.066143
1347	6.7300e-01	-13.7900	-125.790329	0.000697	6.967445	2.360634	-0.055657
1348	6.7350e-01	-13.8301	-126.100877	0.000778	7.775264	2.634331	-0.062110
1349	6.7400e-01	-13.8734	-126.391261	0.000727	7.270377	2.463270	-0.058077
1350	6.7450e-01	-13.9135	-126.734074	0.000858	8.583084	2.908028	-0.068563
1351	6.7500e-01	-13.9552	-126.988159	0.000636	6.361580	2.155362	-0.050817
1352	6.7550e-01	-14.0001	-127.512462	0.001313	13.127069	4.447572	-0.104861
1353	6.7600e-01	-14.0370	-127.455999	-0.000141	-1.413684	-0.478969	0.011293
1354	6.7650e-01	-14.0804	-127.823011	0.000919	9.188949	3.113300	-0.073402
1355	6.7700e-01	-14.1124	-128.129526	0.000767	7.674287	2.600119	-0.061303
1356	6.7750e-01	-14.1606	-128.540902	0.001030	10.299701	3.489633	-0.082275
1357	6.7800e-01	-14.1959	-128.718358	0.000444	4.443008	1.505332	-0.035491
1358	6.7850e-01	-14.2392	-129.081337	0.000909	9.087971	3.079088	-0.072596
1359	6.7900e-01	-14.2809	-129.432217	0.000879	8.785039	2.976452	-0.070176
1360	6.7950e-01	-14.3226	-129.815361	0.000959	9.592858	3.250148	-0.076629
1361	6.8000e-01	-14.3675	-129.952487	0.000343	3.433234	1.163211	-0.027425
1362	6.8050e-01	-14.3948	-130.319499	0.000919	9.188949	3.113300	-0.073402
1363	6.8100e-01	-14.4397	-130.533253	0.000535	5.351805	1.813241	-0.042751
1364	6.8150e-01	-14.4702	-131.170482	0.001595	15.954438	5.405510	-0.127446
1365	6.8200e-01	-14.5231	-131.299542	0.000323	3.231279	1.094787	-0.025812
1366	6.8250e-01	-14.5568	-131.606057	0.000767	7.674287	2.600119	-0.061303
1367	6.8300e-01	-14.5969	-131.868208	0.000656	6.563535	2.223786	-0.052430
1368	6.8350e-01	-14.6418	-131.795613	-0.000182	-1.817594	-0.615818	0.014519
1369	6.8400e-01	-14.6771	-132.267485	0.001181	11.814363	4.002814	-0.094375
1370	6.8450e-01	-14.7204	-132.509471	0.000606	6.058647	2.052725	-0.048397
1371	6.8500e-01	-14.7638	-132.945046	0.001091	10.905565	3.694906	-0.087115
1372	6.8550e-01	-14.7958	-133.336256	0.000979	9.794813	3.318573	-0.078242
1373	6.8600e-01	-14.8375	-133.691169	0.000889	8.886016	3.010664	-0.070983
1374	6.8650e-01	-14.8712	-133.884758	0.000485	4.846918	1.642180	-0.038718
1375	6.8700e-01	-14.9242	-134.122711	0.000596	5.957670	2.018513	-0.047591
1376	6.8750e-01	-14.9611	-134.340498	0.000545	5.452783	1.847453	-0.043557
1377	6.8800e-01	-14.9948	-134.550219	0.000525	5.250828	1.779029	-0.041944
1378	6.8850e-01	-15.0317	-135.001926	0.001131	11.309475	3.831754	-0.090341
1379	6.8900e-01	-15.0718	-135.328607	0.000818	8.179174	2.771179	-0.065336
1380	6.8950e-01	-15.1103	-135.647222	0.000798	7.977219	2.702755	-0.063723
1381	6.9000e-01	-15.1600	-135.848877	0.000505	5.048873	1.710604	-0.040331
1382	6.9050e-01	-15.1953	-136.353014	0.001262	12.622182	4.276511	-0.100827
1383	6.9100e-01	-15.2354	-136.627265	0.000687	6.866467	2.326422	-0.054850
1384	6.9150e-01	-15.2835	-136.691794	0.000162	1.615639	0.547393	-0.012906
1385	6.9200e-01	-15.3188	-136.974111	0.000707	7.068422	2.394846	-0.056463
1386	6.9250e-01	-15.3653	-137.260461	0.000717	7.169399	2.429058	-0.057270
1387	6.9300e-01	-15.4038	-137.506480	0.000616	6.159625	2.086937	-0.049204
1388	6.9350e-01	-15.4375	-137.929956	0.001060	10.602633	3.592269	-0.084695
1389	6.9400e-01	-15.4841	-138.204206	0.000687	6.866467	2.326422	-0.054850
1390	6.9450e-01	-15.5129	-138.627682	0.001060	10.602633	3.592269	-0.084695
1391	6.9500e-01	-15.5562	-138.720443	0.000232	2.322482	0.786878	-0.018552
1392	6.9550e-01	-15.5964	-138.922098	0.000505	5.048873	1.710604	-0.040331
1393	6.9600e-01	-15.6268	-139.228613	0.000767	7.674287	2.600119	-0.061303
1394	6.9650e-01	-15.6782	-139.712585	0.001212	12.117295	4.105451	-0.096794
1395	6.9700e-01	-15.7167	-140.055399	0.000858	8.583084	2.908028	-0.068563
1396	6.9750e-01	-15.7536	-140.232855	0.000444	4.443008	1.505332	-0.035491
1397	6.9800e-01	-15.7969	-140.591801	0.000899	8.986994	3.044876	-0.071789
1398	6.9850e-01	-15.8418	-140.829754	0.000596	5.957670	2.018513	-0.047591
1399	6.9900e-01	-15.8771	-141.156435	0.000818	8.179174	2.771179	-0.065336
1400	6.9950e-01	-15.9092	-141.208865	0.000131	1.312707	0.444757	-0.010486
1401	7.0000e-01	-15.9557	-141.680737	0.001181	11.814363	4.002814	-0.094375
1402	7.0050e-01	-16.0038	-141.846094	0.000414	4.140076	1.402696	-0.033071
1403	7.0100e-01	-16.0327	-142.205040	0.000899	8.986994	3.044876	-0.071789
1404	7.0150e-01	-16.0792	-142.495423	0.000727	7.270377	2.463270	-0.058077
1405	7.0200e-01	-16.1129	-142.858402	0.000909	9.087971	3.079088	-0.072596
1406	7.0250e-01	-16.1546	-143.011660	0.000384	3.837143	1.300059	-0.030652
1407	7.0300e-01	-16.2060	-143.249613	0.000596	5.957670	2.018513	-0.047591
1408	7.0350e-01	-16.2332	-143.640823	0.000979	9.794813	3.318573	-0.078242
1409	7.0400e-01	-16.2782	-144.076398	0.001091	10.905565	3.694906	-0.087115
1410	7.0450e-01	-16.3183	-144.225623	0.000374	3.736166	1.265847	-0.029845
1411	7.0500e-01	-16.3552	-144.536171	0.000778	7.775264	2.634331	-0.062110
1412	7.0550e-01	-16.4049	-144.729760	0.000485	4.846918	1.642180	-0.038718
1413	7.0600e-01	-16.4370	-145.129037	0.001000	9.996768	3.386997	-0.079855
1414	7.0650e-01	-16.4787	-145.459751	0.000828	8.280152	2.805391	-0.066143
1415	7.0700e-01	-16.5204	-145.782399	0.000808	8.078197	2.736967	-0.064530
1416	7.0750e-01	-16.5557	-146.016318	0.000586	5.856693	1.984301	-0.046784
1417	7.0800e-01	-16.5990	-146.234106	0.000545	5.452783	1.847453	-0.043557
1418	7.0850e-01	-16.6327	-146.536588	0.000757	7.573309	2.565907	-0.060496
1419	7.0900e-01	-16.6760	-146.726144	0.000475	4.745941	1.607968	-0.037911
1420	7.0950e-01	-16.7177	-147.028626	0.000757	7.573309	2.565907	-0.060496
1421	7.1000e-01	-16.7578	-147.302877	0.000687	6.866467	2.326422	-0.054850
1422	7.1050e-01	-16.8011	-147.790882	0.001222	12.218272	4.139663	-0.097601
1423	7.1100e-01	-16.8348	-148.012702	0.000555	5.553760	1.881665	-0.044364
1424	7.1150e-01	-16.8813	-148.420045	0.001020	10.198723	3.455421	-0.081469
1425	7.1200e-01	-16.9102	-148.774958	0.000889	8.886016	3.010664	-0.070983
1426	7.1250e-01	-16.9551	-148.964513	0.000475	4.745941	1.607968	-0.037911
1427	7.1300e-01	-16.9904	-149.125837	0.000404	4.039098	1.368484	-0.032265
1428	7.1350e-01	-17.0353	-149.335558	0.000525	5.250828	1.779029	-0.041944
1429	7.1400e-01	-17.0771	-149.791299	0.001141	11.410453	3.865966	-0.091148
1430	7.1450e-01	-17.1107	-149.996987	0.000515	5.149850	1.744817	-0.041138
1431	7.1500e-01	-17.1621	-149.984887	-0.000030	-0.302932	-0.102636	0.002420
1432	7.1550e-01	-17.1958	-150.303502	0.000798	7.977219	2.702755	-0.063723
1433	7.1600e-01	-17.2423	-150.714878	0.001030	10.299701	3.489633	-0.082275
1434	7.1650e-01	-17.2808	-150.876202	0.000404	4.039098	1.368484	-0.032265
1435	7.1700e-01	-17.3161	-151.227082	0.000879	8.785039	2.976452	-0.070176
1436	7.1750e-01	-17.3578	-151.618292	0.000979	9.794813	3.318573	-0.078242
1437	7.1800e-01	-17.4011	-152.065966	0.001121	11.208498	3.797542	-0.089535
1438	7.1850e-01	-17.4444	-152.267621	0.000505	5.048873	1.710604	-0.040331
1439	7.1900e-01	-17.4813	-152.457177	0.000475	4.745941	1.607968	-0.037911
1440	7.1950e-01	-17.5070	-152.880652	0.001060	10.602633	3.592269	-0.084695
1441	7.2000e-01	-17.5647	-153.082307	0.000505	5.048873	1.710604	-0.040331
1442	7.2050e-01	-17.5952	-153.292028	0.000525	5.250828	1.779029	-0.041944
1443	7.2100e-01	-17.6385	-153.695338	0.001010	10.097746	3.421209	-0.080662
1444	7.2150e-01	-17.6706	-153.917159	0.000555	5.553760	1.881665	-0.044364
1445	7.2200e-01	-17.7043	-154.223674	0.000767	7.674287	2.600119	-0.061303
1446	7.2250e-01	-17.7589	-154.477759	0.000636	6.361580	2.155362	-0.050817
1447	7.2300e-01	-17.7974	-154.719745	0.000606	6.058647	2.052725	-0.048397
1448	7.2350e-01	-17.8407	-155.110956	0.000979	9.794813	3.318573	-0.078242
1449	7.2400e-01	-17.8776	-155.461835	0.000879	8.785039	2.976452	-0.070176
1450	7.2450e-01	-17.9129	-155.691722	0.000576	5.755715	1.950089	-0.045977
1451	7.2500e-01	-17.9466	-155.990171	0.000747	7.472332	2.531695	-0.059690
1452	7.2550e-01	-17.9963	-156.385415	0.000990	9.895791	3.352785	-0.079049
1453	7.2600e-01	-18.0316	-156.635467	0.000626	6.260602	2.121150	-0.050010
1454	7.2650e-01	-18.0749	-156.704030	0.000172	1.716617	0.581606	-0.013713
1455	7.2700e-01	-18.1198	-156.933916	0.000576	5.755715	1.950089	-0.045977
1456	7.2750e-01	-18.1631	-157.192035	0.000646	6.462557	2.189574	-0.051624
1457	7.2800e-01	-18.1920	-157.490484	0.000747	7.472332	2.531695	-0.059690
1458	7.2850e-01	-18.2401	-157.889761	0.001000	9.996768	3.386997	-0.079855
1459	7.2900e-01	-18.2738	-158.172078	0.000707	7.068422	2.394846	-0.056463
1460	7.2950e-01	-18.3252	-158.478593	0.000767	7.674287	2.600119	-0.061303
1461	7.3000e-01	-18.3604	-158.672182	0.000485	4.846918	1.642180	-0.038718
1462	7.3050e-01	-18.4086	-158.978697	0.000767	7.674287	2.600119	-0.061303
1463	7.3100e-01	-18.4391	-159.301345	0.000808	8.078197	2.736967	-0.064530
1464	7.3150e-01	-18.4759	-159.519132	0.000545	5.452783	1.847453	-0.043557
1465	7.3200e-01	-18.5273	-159.696589	0.000444	4.443008	1.505332	-0.035491
1466	7.3250e-01	-18.5562	-160.047468	0.000879	8.785039	2.976452	-0.070176
1467	7.3300e-01	-18.5931	-160.261223	0.000535	5.351805	1.813241	-0.042751
1468	7.3350e-01	-18.6524	-160.567738	0.000767	7.674287	2.600119	-0.061303
1469	7.3400e-01	-18.6829	-161.132372	0.001414	14.136844	4.789692	-0.112927
1470	7.3450e-01	-18.7134	-161.471152	0.000848	8.482106	2.873815	-0.067756
1471	7.3500e-01	-18.7583	-161.612311	0.000353	3.534211	1.197423	-0.028232
1472	7.3550e-01	-18.7936	-161.922859	0.000778	7.775264	2.634331	-0.062110
1473	7.3600e-01	-18.8433	-162.068051	0.000364	3.635188	1.231635	-0.029038
1474	7.3650e-01	-18.8802	-162.451195	0.000959	9.592858	3.250148	-0.076629
1475	7.3700e-01	-18.9091	-162.761744	0.000778	7.775264	2.634331	-0.062110
1476	7.3750e-01	-18.9572	-163.140855	0.000949	9.491881	3.215936	-0.075822
1477	7.3800e-01	-19.0070	-163.140855	-0.000000	-0.000000	-0.000000	0.000000
1478	7.3850e-01	-19.0390	-163.733721	0.001484	14.843686	5.029177	-0.118573
1479	7.3900e-01	-19.0904	-163.713555	-0.000050	-0.504887	-0.171060	0.004033
1480	7.3950e-01	-19.1144	-164.028137	0.000788	7.876242	2.668543	-0.062916
1481	7.4000e-01	-19.1561	-164.592771	0.001414	14.136844	4.789692	-0.112927
1482	7.4050e-01	-19.2027	-164.814591	0.000555	5.553760	1.881665	-0.044364
1483	7.4100e-01	-19.2364	-165.068676	0.000636	6.361580	2.155362	-0.050817
1484	7.4150e-01	-19.2765	-165.173537	0.000263	2.625414	0.889514	-0.020972
1485	7.4200e-01	-19.3214	-165.742204	0.001424	14.237822	4.823905	-0.113733
1486	7.4250e-01	-19.3599	-165.843031	0.000252	2.524436	0.855302	-0.020165
1487	7.4300e-01	-19.4032	-166.020487	0.000444	4.443008	1.505332	-0.035491
1488	7.4350e-01	-19.4385	-166.310871	0.000727	7.270377	2.463270	-0.058077
1489	7.4400e-01	-19.4770	-166.677882	0.000919	9.188949	3.113300	-0.073402
1490	7.4450e-01	-19.5219	-166.899703	0.000555	5.553760	1.881665	-0.044364
1491	7.4500e-01	-19.5636	-167.303013	0.001010	10.097746	3.421209	-0.080662
1492	7.4550e-01	-19.6053	-167.395774	0.000232	2.322482	0.786878	-0.018552
1493	7.4600e-01	-19.6422	-167.674058	0.000697	6.967445	2.360634	-0.055657
1494	7.4650e-01	-19.6759	-168.198361	0.001313	13.127069	4.447572	-0.104861
1495	7.4700e-01	-19.7224	-168.488744	0.000727	7.270377	2.463270	-0.058077
1496	7.4750e-01	-19.7561	-168.698465	0.000525	5.250828	1.779029	-0.041944
1497	7.4800e-01	-19.7978	-168.879954	0.000454	4.543986	1.539544	-0.036298
1498	7.4850e-01	-19.8444	-169.505085	0.001565	15.651506	5.302874	-0.125026
1499	7.4900e-01	-19.8845	-169.747071	0.000606	6.058647	2.052725	-0.048397
1500	7.4950e-01	-19.9166	-169.904361	0.000394	3.938121	1.334271	-0.031458
1501	7.5000e-01	-19.9567	-170.089884	0.000464	4.644963	1.573756	-0.037105
1502	7.5050e-01	-19.9679	-170.311704	0.000555	5.553760	1.881665	-0.044364
1503	7.5100e-01	-19.9422	-170.198778	0.000283	2.827369	0.957938	0.022585
1504	7.5150e-01	-19.9005	-170.081818	0.000293	2.928346	0.992151	0.023392
1505	7.5200e-01	-19.8572	-170.081818	0.000000	0.000000	0.000000	0.000000
1506	7.5250e-01	-19.8235	-169.827732	0.000636	6.361580	2.155362	0.050817
1507	7.5300e-01	-19.7818	-169.674475	0.000384	3.837143	1.300059	0.030652
1508	7.5350e-01	-19.7337	-169.460721	0.000535	5.351805	1.813241	0.042751
1509	7.5400e-01	-19.7000	-169.351827	0.000273	2.726391	0.923726	0.021779
1510	7.5450e-01	-19.6599	-169.279231	0.000182	1.817594	0.615818	0.014519
1511	7.5500e-01	-19.6214	-168.928352	0.000879	8.785039	2.976452	0.070176
1512	7.5550e-01	-19.5861	-168.908186	0.000050	0.504887	0.171060	0.004033
1513	7.5600e-01	-19.5428	-168.621836	0.000717	7.169399	2.429058	0.057270
1514	7.5650e-01	-19.4914	-168.452446	0.000424	4.241053	1.436908	0.033878
1515	7.5700e-01	-19.4642	-168.371784	0.000202	2.019549	0.684242	0.016132
1516	7.5750e-01	-19.4144	-168.166096	0.000515	5.149850	1.744817	0.041138
1517	7.5800e-01	-19.3743	-168.000739	0.000414	4.140076	1.402696	0.033071
1518	7.5850e-01	-19.3390	-167.581297	0.001050	10.501656	3.558057	0.083888
1519	7.5900e-01	-19.2957	-167.674058	-0.000232	-2.322482	-0.786878	-0.018552
1520	7.5950e-01	-19.2636	-167.504668	0.000424	4.241053	1.436908	0.033878
1521	7.6000e-01	-19.2283	-167.133623	0.000929	9.289926	3.147512	0.074209
1522	7.6050e-01	-19.1818	-166.976332	0.000394	3.938121	1.334271	0.031458
1523	7.6100e-01	-19.1465	-166.726280	0.000626	6.260602	2.121150	0.050010
1524	7.6150e-01	-19.1016	-166.605287	0.000303	3.029324	1.026363	0.024199
1525	7.6200e-01	-19.0599	-166.488327	0.000293	2.928346	0.992151	0.023392
1526	7.6250e-01	-19.0134	-166.460095	0.000071	0.706842	0.239485	0.005646
1527	7.6300e-01	-18.9845	-166.093083	0.000919	9.188949	3.113300	0.073402
1528	7.6350e-01	-18.9396	-165.883362	0.000525	5.250828	1.779029	0.041944
1529	7.6400e-01	-18.9011	-165.645409	0.000596	5.957670	2.018513	0.047591
1530	7.6450e-01	-18.8626	-165.496185	0.000374	3.736166	1.265847	0.029845
1531	7.6500e-01	-18.8305	-165.201768	0.000737	7.371354	2.497482	0.058883
1532	7.6550e-01	-18.7824	-165.242099	-0.000101	-1.009775	-0.342121	-0.008066
1533	7.6600e-01	-18.7471	-164.834756	0.001020	10.198723	3.455421	0.081469
1534	7.6650e-01	-18.6957	-164.701664	0.000333	3.332256	1.128999	0.026618
1535	7.6700e-01	-18.6636	-164.455645	0.000616	6.159625	2.086937	0.049204
1536	7.6750e-01	-18.6235	-164.379016	0.000192	1.918572	0.650030	0.015326
1537	7.6800e-01	-18.5754	-164.084600	0.000737	7.371354	2.497482	0.058883
1538	7.6850e-01	-18.5449	-163.947475	0.000343	3.433234	1.163211	0.027425
1539	7.6900e-01	-18.5096	-163.697423	0.000626	6.260602	2.121150	0.050010
1540	7.6950e-01	-18.4695	-163.451404	0.000616	6.159625	2.086937	0.049204
1541	7.7000e-01	-18.4246	-163.282013	0.000424	4.241053	1.436908	0.033878
1542	7.7050e-01	-18.3829	-162.995663	0.000717	7.169399	2.429058	0.057270
1543	7.7100e-01	-18.3396	-162.939200	0.000141	1.413684	0.478969	0.011293
1544	7.7150e-01	-18.3059	-162.439096	0.001252	12.521205	4.242299	0.100021
1545	7.7200e-01	-18.2530	-162.523791	-0.000212	-2.120527	-0.718454	-0.016939
1546	7.7250e-01	-18.2289	-162.378599	0.000364	3.635188	1.231635	0.029038
1547	7.7300e-01	-18.1808	-162.132580	0.000616	6.159625	2.086937	0.049204
1548	7.7350e-01	-18.1439	-161.866396	0.000666	6.664512	2.257998	0.053237
1549	7.7400e-01	-18.0990	-161.729271	0.000343	3.433234	1.163211	0.027425
1550	7.7450e-01	-18.0540	-161.390490	0.000848	8.482106	2.873815	0.067756
1551	7.7500e-01	-18.0220	-161.225133	0.000414	4.140076	1.402696	0.033071
1552	7.7550e-01	-17.9786	-161.047677	0.000444	4.443008	1.505332	0.035491
1553	7.7600e-01	-17.9401	-160.696797	0.000879	8.785039	2.976452	0.070176
1554	7.7650e-01	-17.9016	-160.539506	0.000394	3.938121	1.334271	0.031458
1555	7.7700e-01	-17.8615	-160.301554	0.000596	5.957670	2.018513	0.047591
1556	7.7750e-01	-17.8134	-159.962773	0.000848	8.482106	2.873815	0.067756
1557	7.7800e-01	-17.7797	-159.773218	0.000475	4.745941	1.607968	0.037911
1558	7.7850e-01	-17.7460	-159.632059	0.000353	3.534211	1.197423	0.028232
1559	7.7900e-01	-17.6963	-159.503000	0.000323	3.231279	1.094787	0.025812
1560	7.7950e-01	-17.6530	-159.305378	0.000495	4.947895	1.676392	0.039524
1561	7.8000e-01	-17.6209	-158.998863	0.000767	7.674287	2.600119	0.061303
1562	7.8050e-01	-17.5776	-158.652016	0.000868	8.684061	2.942240	0.069369
1563	7.8100e-01	-17.5359	-158.539090	0.000283	2.827369	0.957938	0.022585
1564	7.8150e-01	-17.5006	-158.482626	0.000141	1.413684	0.478969	0.011293
1565	7.8200e-01	-17.4637	-158.280971	0.000505	5.048873	1.710604	0.040331
1566	7.8250e-01	-17.4204	-157.930092	0.000879	8.785039	2.976452	0.070176
1567	7.8300e-01	-17.3803	-157.744569	0.000464	4.644963	1.573756	0.037105
1568	7.8350e-01	-17.3385	-157.478385	0.000666	6.664512	2.257998	0.053237
1569	7.8400e-01	-17.2968	-157.264630	0.000535	5.351805	1.813241	0.042751
1570	7.8450e-01	-17.2712	-156.921817	0.000858	8.583084	2.908028	0.068563
1571	7.8500e-01	-17.2214	-156.752427	0.000424	4.241053	1.436908	0.033878
1572	7.8550e-01	-17.1749	-156.526573	0.000565	5.654738	1.915877	0.045171
1573	7.8600e-01	-17.1509	-156.417680	0.000273	2.726391	0.923726	0.021779
1574	7.8650e-01	-17.1027	-156.324918	0.000232	2.322482	0.786878	0.018552
1575	7.8700e-01	-17.0755	-155.933708	0.000979	9.794813	3.318573	0.078242
1576	7.8750e-01	-17.0225	-155.893377	0.000101	1.009775	0.342121	0.008066
1577	7.8800e-01	-16.9856	-155.542497	0.000879	8.785039	2.976452	0.070176
1578	7.8850e-01	-16.9407	-155.409405	0.000333	3.332256	1.128999	0.026618
1579	7.8900e-01	-16.9038	-155.062559	0.000868	8.684061	2.942240	0.069369
1580	7.8950e-01	-16.8589	-154.800407	0.000656	6.563535	2.223786	0.052430
1581	7.9000e-01	-16.8204	-154.578587	0.000555	5.553760	1.881665	0.044364
1582	7.9050e-01	-16.7755	-154.223674	0.000889	8.886016	3.010664	0.070983
1583	7.9100e-01	-16.7354	-154.094615	0.000323	3.231279	1.094787	0.025812
1584	7.9150e-01	-16.6969	-154.022019	0.000182	1.817594	0.615818	0.014519
1585	7.9200e-01	-16.6616	-153.521915	0.001252	12.521205	4.242299	0.100021
1586	7.9250e-01	-16.6231	-153.400922	0.000303	3.029324	1.026363	0.024199
1587	7.9300e-01	-16.5765	-153.203300	0.000495	4.947895	1.676392	0.039524
1588	7.9350e-01	-16.5493	-152.981480	0.000555	5.553760	1.881665	0.044364
1589	7.9400e-01	-16.4947	-152.719328	0.000656	6.563535	2.223786	0.052430
1590	7.9450e-01	-16.4450	-152.558004	0.000404	4.039098	1.368484	0.032265
1591	7.9500e-01	-16.4209	-152.275687	0.000707	7.068422	2.394846	0.056463
1592	7.9550e-01	-16.3872	-152.118397	0.000394	3.938121	1.334271	0.031458
1593	7.9600e-01	-16.3391	-151.832047	0.000717	7.169399	2.429058	0.057270
1594	7.9650e-01	-16.3038	-151.569895	0.000656	6.563535	2.223786	0.052430
1595	7.9700e-01	-16.2685	-151.319843	0.000626	6.260602	2.121150	0.050010
1596	7.9750e-01	-16.2188	-151.106089	0.000535	5.351805	1.813241	0.042751
1597	7.9800e-01	-16.1851	-150.960897	0.000364	3.635188	1.231635	0.029038
1598	7.9850e-01	-16.1354	-150.509190	0.001131	11.309475	3.831754	0.090341
1599	7.9900e-01	-16.0953	-150.343833	0.000414	4.140076	1.402696	0.033071
1600	7.9950e-01	-16.0648	-150.061516	0.000707	7.068422	2.394846	0.056463
1601	8.0000e-01	-16.0151	-149.964722	0.000242	2.423459	0.821090	0.019359
1602	8.0050e-01	-15.9862	-149.726769	0.000596	5.957670	2.018513	0.047591
1603	8.0100e-01	-15.9429	-149.521081	0.000515	5.149850	1.744817	0.041138
1604	8.0150e-01	-15.8996	-149.359757	0.000404	4.039098	1.368484	0.032265
1605	8.0200e-01	-15.8675	-149.117771	0.000606	6.058647	2.052725	0.048397
1606	8.0250e-01	-15.8209	-148.557170	0.001404	14.035867	4.755480	0.112120
1607	8.0300e-01	-15.7824	-148.420045	0.000343	3.433234	1.163211	0.027425
1608	8.0350e-01	-15.7375	-148.242589	0.000444	4.443008	1.505332	0.035491
1609	8.0400e-01	-15.6974	-148.073199	0.000424	4.241053	1.436908	0.033878
1610	8.0450e-01	-15.6525	-147.702154	0.000929	9.289926	3.147512	0.074209
1611	8.0500e-01	-15.6188	-147.423870	0.000697	6.967445	2.360634	0.055657
1612	8.0550e-01	-15.5819	-147.173818	0.000626	6.260602	2.121150	0.050010
1613	8.0600e-01	-15.5482	-147.157685	0.000040	0.403910	0.136848	0.003226
1614	8.0650e-01	-15.5049	-146.758408	0.001000	9.996768	3.386997	0.079855
1615	8.0700e-01	-15.4552	-146.504323	0.000636	6.361580	2.155362	0.050817
1616	8.0750e-01	-15.4167	-146.359132	0.000364	3.635188	1.231635	0.029038
1617	8.0800e-01	-15.3750	-146.080848	0.000697	6.967445	2.360634	0.055657
1618	8.0850e-01	-15.3381	-145.782399	0.000747	7.472332	2.531695	0.059690
1619	8.0900e-01	-15.2964	-145.560578	0.000555	5.553760	1.881665	0.044364
1620	8.0950e-01	-15.2611	-145.354890	0.000515	5.149850	1.744817	0.041138
1621	8.1000e-01	-15.2113	-145.068540	0.000717	7.169399	2.429058	0.057270
1622	8.1050e-01	-15.1760	-144.649098	0.001050	10.501656	3.558057	0.083888
1623	8.1100e-01	-15.1375	-144.564403	0.000212	2.120527	0.718454	0.016939
1624	8.1150e-01	-15.1006	-144.201424	0.000909	9.087971	3.079088	0.072596
1625	8.1200e-01	-15.0557	-143.927173	0.000687	6.866467	2.326422	0.054850
1626	8.1250e-01	-15.0156	-143.943306	-0.000040	-0.403910	-0.136848	-0.003226
1627	8.1300e-01	-14.9787	-143.640823	0.000757	7.573309	2.565907	0.060496
1628	8.1350e-01	-14.9450	-143.217348	0.001060	10.602633	3.592269	0.084695
1629	8.1400e-01	-14.8985	-143.120554	0.000242	2.423459	0.821090	0.019359
1630	8.1450e-01	-14.8616	-142.910832	0.000525	5.250828	1.779029	0.041944
1631	8.1500e-01	-14.8231	-142.680946	0.000576	5.755715	1.950089	0.045977
1632	8.1550e-01	-14.7798	-142.305868	0.000939	9.390904	3.181724	0.075016
1633	8.1600e-01	-14.7381	-142.035650	0.000677	6.765490	2.292210	0.054044
1634	8.1650e-01	-14.7012	-141.733168	0.000757	7.573309	2.565907	0.060496
1635	8.1700e-01	-14.6563	-141.495215	0.000596	5.957670	2.018513	0.047591
1636	8.1750e-01	-14.6130	-141.446818	0.000121	1.211729	0.410545	0.009679
1637	8.1800e-01	-14.5793	-141.019309	0.001070	10.703611	3.626481	0.085502
1638	8.1850e-01	-14.5408	-140.753125	0.000666	6.664512	2.257998	0.053237
1639	8.1900e-01	-14.4975	-140.652297	0.000252	2.524436	0.855302	0.020165
1640	8.1950e-01	-14.4590	-140.240921	0.001030	10.299701	3.489633	0.082275
1641	8.2000e-01	-14.4269	-140.059432	0.000454	4.543986	1.539544	0.036298
1642	8.2050e-01	-14.3739	-139.736784	0.000808	8.078197	2.736967	0.064530
1643	8.2100e-01	-14.3418	-139.498831	0.000596	5.957670	2.018513	0.047591
1644	8.2150e-01	-14.3017	-139.321375	0.000444	4.443008	1.505332	0.035491
1645	8.2200e-01	-14.2632	-138.901932	0.001050	10.501656	3.558057	0.083888
1646	8.2250e-01	-14.2215	-138.659946	0.000606	6.058647	2.052725	0.048397
1647	8.2300e-01	-14.1798	-138.518788	0.000353	3.534211	1.197423	0.028232
1648	8.2350e-01	-14.1349	-138.349398	0.000424	4.241053	1.436908	0.033878
1649	8.2400e-01	-14.0900	-138.022717	0.000818	8.179174	2.771179	0.065336
1650	8.2450e-01	-14.0643	-137.897691	0.000313	3.130301	1.060575	0.025005
1651	8.2500e-01	-14.0194	-137.518580	0.000949	9.491881	3.215936	0.075822
1652	8.2550e-01	-13.9873	-137.264494	0.000636	6.361580	2.155362	0.050817
1653	8.2600e-01	-13.9408	-137.038641	0.000565	5.654738	1.915877	0.045171
1654	8.2650e-01	-13.9023	-136.780523	0.000646	6.462557	2.189574	0.051624
1655	8.2700e-01	-13.8670	-136.332849	0.001121	11.208498	3.797542	0.089535
1656	8.2750e-01	-13.8205	-136.179591	0.000384	3.837143	1.300059	0.030652
1657	8.2800e-01	-13.7868	-135.840811	0.000848	8.482106	2.873815	0.067756
1658	8.2850e-01	-13.7322	-135.804513	0.000091	0.908797	0.307909	0.007260
1659	8.2900e-01	-13.6889	-135.465732	0.000848	8.482106	2.873815	0.067756
1660	8.2950e-01	-13.6568	-135.155184	0.000778	7.775264	2.634331	0.062110
1661	8.3000e-01	-13.6183	-134.880933	0.000687	6.866467	2.326422	0.054850
1662	8.3050e-01	-13.5734	-134.558285	0.000808	8.078197	2.736967	0.064530
1663	8.3100e-01	-13.5349	-134.651046	-0.000232	-2.322482	-0.786878	-0.018552
1664	8.3150e-01	-13.4948	-134.259836	0.000979	9.794813	3.318573	0.078242
1665	8.3200e-01	-13.4643	-133.848460	0.001030	10.299701	3.489633	0.082275
1666	8.3250e-01	-13.4162	-133.469349	0.000949	9.491881	3.215936	0.075822
1667	8.3300e-01	-13.3857	-133.316091	0.000384	3.837143	1.300059	0.030652
1668	8.3350e-01	-13.3456	-133.187032	0.000323	3.231279	1.094787	0.025812
1669	8.3400e-01	-13.3007	-132.731292	0.001141	11.410453	3.865966	0.091148
1670	8.3450e-01	-13.2654	-132.533670	0.000495	4.947895	1.676392	0.039524
1671	8.3500e-01	-13.2141	-132.259419	0.000687	6.866467	2.326422	0.054850
1672	8.3550e-01	-13.1836	-131.803679	0.001141	11.410453	3.865966	0.091148
1673	8.3600e-01	-13.1322	-131.771414	0.000081	0.807820	0.273697	0.006453
1674	8.3650e-01	-13.1018	-131.561693	0.000525	5.250828	1.779029	0.041944
1675	8.3700e-01	-13.0520	-131.311641	0.000626	6.260602	2.121150	0.050010
1676	8.3750e-01	-13.0216	-130.916397	0.000990	9.895791	3.352785	0.079049
1677	8.3800e-01	-12.9750	-130.581650	0.000838	8.381129	2.839603	0.066949
1678	8.3850e-01	-12.9349	-130.488889	0.000232	2.322482	0.786878	0.018552
1679	8.3900e-01	-12.8996	-129.742765	0.001868	18.680830	6.329236	0.149225
1680	8.3950e-01	-12.8611	-129.577408	0.000414	4.140076	1.402696	0.033071
1681	8.4000e-01	-12.8307	-129.504813	0.000182	1.817594	0.615818	0.014519
1682	8.4050e-01	-12.7905	-129.258794	0.000616	6.159625	2.086937	0.049204
1683	8.4100e-01	-12.7376	-129.161999	0.000242	2.423459	0.821090	0.019359
1684	8.4150e-01	-12.7055	-128.827252	0.000838	8.381129	2.839603	0.066949
1685	8.4200e-01	-12.6670	-128.524770	0.000757	7.573309	2.565907	0.060496
1686	8.4250e-01	-12.6269	-128.311015	0.000535	5.351805	1.813241	0.042751
1687	8.4300e-01	-12.5884	-127.996434	0.000788	7.876242	2.668543	0.062916
1688	8.4350e-01	-12.5451	-127.702018	0.000737	7.371354	2.497482	0.058883
1689	8.4400e-01	-12.5002	-127.339039	0.000909	9.087971	3.079088	0.072596
1690	8.4450e-01	-12.4665	-127.218046	0.000303	3.029324	1.026363	0.024199
1691	8.4500e-01	-12.4312	-126.855067	0.000909	9.087971	3.079088	0.072596
1692	8.4550e-01	-12.3767	-126.564684	0.000727	7.270377	2.463270	0.058077
1693	8.4600e-01	-12.3414	-126.443691	0.000303	3.029324	1.026363	0.024199
1694	8.4650e-01	-12.2932	-126.104911	0.000848	8.482106	2.873815	0.067756
1695	8.4700e-01	-12.2660	-125.689501	0.001040	10.400678	3.523845	0.083082
1696	8.4750e-01	-12.2162	-125.536244	0.000384	3.837143	1.300059	0.030652
1697	8.4800e-01	-12.1841	-125.334589	0.000505	5.048873	1.710604	0.040331
1698	8.4850e-01	-12.1360	-125.044206	0.000727	7.270377	2.463270	0.058077
1699	8.4900e-01	-12.1023	-124.685260	0.000899	8.986994	3.044876	0.071789
1700	8.4950e-01	-12.0622	-124.491671	0.000485	4.846918	1.642180	0.038718
1701	8.5000e-01	-12.0061	-124.189189	0.000757	7.573309	2.565907	0.060496
1702	8.5050e-01	-11.9804	-123.890739	0.000747	7.472332	2.531695	0.059690
1703	8.5100e-01	-11.9451	-123.600356	0.000727	7.270377	2.463270	0.058077
1704	8.5150e-01	-11.8938	-123.305940	0.000737	7.371354	2.497482	0.058883
1705	8.5200e-01	-11.8617	-122.999425	0.000767	7.674287	2.600119	0.061303
1706	8.5250e-01	-11.8264	-122.793737	0.000515	5.149850	1.744817	0.041138
1707	8.5300e-01	-11.7751	-122.475122	0.000798	7.977219	2.702755	0.063723
1708	8.5350e-01	-11.7446	-122.015349	0.001151	11.511430	3.900178	0.091955
1709	8.5400e-01	-11.7013	-121.833859	0.000454	4.543986	1.539544	0.036298
1710	8.5450e-01	-11.6612	-121.720932	0.000283	2.827369	0.957938	0.022585
1711	8.5500e-01	-11.6179	-121.430549	0.000727	7.270377	2.463270	0.058077
1712	8.5550e-01	-11.5922	-121.148232	0.000707	7.068422	2.394846	0.056463
1713	8.5600e-01	-11.5409	-120.813485	0.000838	8.381129	2.839603	0.066949
1714	8.5650e-01	-11.4959	-120.567466	0.000616	6.159625	2.086937	0.049204
1715	8.5700e-01	-11.4638	-120.192388	0.000939	9.390904	3.181724	0.075016
1716	8.5750e-01	-11.4141	-119.994766	0.000495	4.947895	1.676392	0.039524
1717	8.5800e-01	-11.3788	-119.720515	0.000687	6.866467	2.326422	0.054850
1718	8.5850e-01	-11.3323	-119.470463	0.000626	6.260602	2.121150	0.050010
1719	8.5900e-01	-11.2922	-119.240577	0.000576	5.755715	1.950089	0.045977
1720	8.5950e-01	-11.2617	-118.760638	0.001202	12.016317	4.071239	0.095988
1721	8.6000e-01	-11.2264	-118.442023	0.000798	7.977219	2.702755	0.063723
1722	8.6050e-01	-11.1767	-118.276666	0.000414	4.140076	1.402696	0.033071
1723	8.6100e-01	-11.1430	-117.970151	0.000767	7.674287	2.600119	0.061303
1724	8.6150e-01	-11.0965	-117.631370	0.000848	8.482106	2.873815	0.067756
1725	8.6200e-01	-11.0612	-117.389384	0.000606	6.058647	2.052725	0.048397
1726	8.6250e-01	-11.0179	-117.143365	0.000616	6.159625	2.086937	0.049204
1727	8.6300e-01	-10.9842	-116.764254	0.000949	9.491881	3.215936	0.075822
1728	8.6350e-01	-10.9441	-116.421441	0.000858	8.583084	2.908028	0.068563
1729	8.6400e-01	-10.8976	-116.199620	0.000555	5.553760	1.881665	0.044364
1730	8.6450e-01	-10.8542	-115.885039	0.000788	7.876242	2.668543	0.062916
1731	8.6500e-01	-10.8125	-115.562391	0.000808	8.078197	2.736967	0.064530
1732	8.6550e-01	-10.7756	-115.453497	0.000273	2.726391	0.923726	0.021779
1733	8.6600e-01	-10.7435	-115.284107	0.000424	4.241053	1.436908	0.033878
1734	8.6650e-01	-10.7066	-114.779970	0.001262	12.622182	4.276511	0.100827
1735	8.6700e-01	-10.6537	-114.771903	0.000020	0.201955	0.068424	0.001613
1736	8.6750e-01	-10.6216	-114.320196	0.001131	11.309475	3.831754	0.090341
1737	8.6800e-01	-10.5879	-113.820092	0.001252	12.521205	4.242299	0.100021
1738	8.6850e-01	-10.5398	-113.501477	0.000798	7.977219	2.702755	0.063723
1739	8.6900e-01	-10.5013	-113.259491	0.000606	6.058647	2.052725	0.048397
1740	8.6950e-01	-10.4612	-113.166730	0.000232	2.322482	0.786878	0.018552
1741	8.7000e-01	-10.4163	-112.690825	0.001192	11.915340	4.037026	0.095181
1742	8.7050e-01	-10.3762	-112.311713	0.000949	9.491881	3.215936	0.075822
1743	8.7100e-01	-10.3377	-112.235084	0.000192	1.918572	0.650030	0.015326
1744	8.7150e-01	-10.2944	-111.847907	0.000969	9.693836	3.284361	0.077435
1745	8.7200e-01	-10.2639	-111.609954	0.000596	5.957670	2.018513	0.047591
1746	8.7250e-01	-10.2270	-111.093718	0.001293	12.925115	4.379147	0.103247
1747	8.7300e-01	-10.1837	-110.960625	0.000333	3.332256	1.128999	0.026618
1748	8.7350e-01	-10.1420	-110.573448	0.000969	9.693836	3.284361	0.077435
1749	8.7400e-01	-10.1051	-110.137873	0.001091	10.905565	3.694906	0.087115
1750	8.7450e-01	-10.0521	-110.145939	-0.000020	-0.201955	-0.068424	-0.001613
1751	8.7500e-01	-10.0104	-109.883788	0.000656	6.563535	2.223786	0.052430
1752	8.7550e-01	-9.9799	-109.484511	0.001000	9.996768	3.386997	0.079855
1753	8.7600e-01	-9.9382	-109.040870	0.001111	11.107520	3.763330	0.088728
1754	8.7650e-01	-9.8997	-108.827116	0.000535	5.351805	1.813241	0.042751
1755	8.7700e-01	-9.8596	-108.601263	0.000565	5.654738	1.915877	0.045171
1756	8.7750e-01	-9.8227	-108.331045	0.000677	6.765490	2.292210	0.054044
1757	8.7800e-01	-9.7762	-108.153589	0.000444	4.443008	1.505332	0.035491
1758	8.7850e-01	-9.7393	-107.734146	0.001050	10.501656	3.558057	0.083888
1759	8.7900e-01	-9.7040	-107.391333	0.000858	8.583084	2.908028	0.068563
1760	8.7950e-01	-9.6607	-107.100950	0.000727	7.270377	2.463270	0.058077
1761	8.8000e-01	-9.6190	-107.020288	0.000202	2.019549	0.684242	0.016132
1762	8.8050e-01	-9.5757	-106.576647	0.001111	11.107520	3.763330	0.088728
1763	8.8100e-01	-9.5291	-106.173337	0.001010	10.097746	3.421209	0.080662
1764	8.8150e-01	-9.5083	-105.854722	0.000798	7.977219	2.702755	0.063723
1765	8.8200e-01	-9.4586	-105.511909	0.000858	8.583084	2.908028	0.068563
1766	8.8250e-01	-9.4313	-105.286056	0.000565	5.654738	1.915877	0.045171
1767	8.8300e-01	-9.3799	-105.096500	0.000475	4.745941	1.607968	0.037911
1768	8.8350e-01	-9.3463	-104.906944	0.000475	4.745941	1.607968	0.037911
1769	8.8400e-01	-9.3062	-104.560098	0.000868	8.684061	2.942240	0.069369
1770	8.8450e-01	-9.2612	-104.136622	0.001060	10.602633	3.592269	0.084695
1771	8.8500e-01	-9.2115	-103.862372	0.000687	6.866467	2.326422	0.054850
1772	8.8550e-01	-9.1730	-103.680882	0.000454	4.543986	1.539544	0.036298
1773	8.8600e-01	-9.1377	-103.269506	0.001030	10.299701	3.489633	0.082275
1774	8.8650e-01	-9.1040	-102.902494	0.000919	9.188949	3.113300	0.073402
1775	8.8700e-01	-9.0623	-102.587913	0.000788	7.876242	2.668543	0.062916
1776	8.8750e-01	-9.0158	-102.483052	0.000263	2.625414	0.889514	0.020972
1777	8.8800e-01	-8.9805	-102.007146	0.001192	11.915340	4.037026	0.095181
1778	8.8850e-01	-8.9372	-101.861955	0.000364	3.635188	1.231635	0.029038
1779	8.8900e-01	-8.8955	-101.426380	0.001091	10.905565	3.694906	0.087115
1780	8.8950e-01	-8.8618	-101.002905	0.001060	10.602633	3.592269	0.084695
1781	8.9000e-01	-8.8153	-100.756886	0.000616	6.159625	2.086937	0.049204
1782	8.9050e-01	-8.7735	-100.454403	0.000757	7.573309	2.565907	0.060496
1783	8.9100e-01	-8.7383	-100.204351	0.000626	6.260602	2.121150	0.050010
1784	8.9150e-01	-8.7094	-99.853472	0.000879	8.785039	2.976452	0.070176
1785	8.9200e-01	-8.6677	-99.550989	0.000757	7.573309	2.565907	0.060496
1786	8.9250e-01	-8.6179	-99.175911	0.000939	9.390904	3.181724	0.075016
1787	8.9300e-01	-8.5826	-98.941991	0.000586	5.856693	1.984301	0.046784
1788	8.9350e-01	-8.5409	-98.498351	0.001111	11.107520	3.763330	0.088728
1789	8.9400e-01	-8.4976	-98.199901	0.000747	7.472332	2.531695	0.059690
1790	8.9450e-01	-8.4591	-97.970015	0.000576	5.755715	1.950089	0.045977
1791	8.9500e-01	-8.4206	-97.723996	0.000616	6.159625	2.086937	0.049204
1792	8.9550e-01	-8.3773	-97.264222	0.001151	11.511430	3.900178	0.091955
1793	8.9600e-01	-8.3388	-96.977872	0.000717	7.169399	2.429058	0.057270
1794	8.9650e-01	-8.2875	-96.885111	0.000232	2.322482	0.786878	0.018552
1795	8.9700e-01	-8.2586	-96.457603	0.001070	10.703611	3.626481	0.085502
1796	8.9750e-01	-8.2249	-96.001863	0.001141	11.410453	3.865966	0.091148
1797	8.9800e-01	-8.1832	-95.804241	0.000495	4.947895	1.676392	0.039524
1798	8.9850e-01	-8.1303	-95.275905	0.001323	13.228047	4.481784	0.105667
1799	8.9900e-01	-8.0901	-94.880661	0.000990	9.895791	3.352785	0.079049
1800	8.9950e-01	-8.0549	-94.707238	0.000434	4.342031	1.471120	0.034685
1801	9.0000e-01	-8.0244	-94.485418	0.000555	5.553760	1.881665	0.044364
1802	9.0050e-01	-7.9762	-94.364425	0.000303	3.029324	1.026363	0.024199
1803	9.0100e-01	-7.9329	-93.836089	0.001323	13.228047	4.481784	0.105667
1804	9.0150e-01	-7.8992	-93.239190	0.001494	14.944664	5.063389	0.119380
1805	9.0200e-01	-7.8688	-93.231124	0.000020	0.201955	0.068424	0.001613
1806	9.0250e-01	-7.8238	-92.779417	0.001131	11.309475	3.831754	0.090341
1807	9.0300e-01	-7.7725	-92.485001	0.000737	7.371354	2.497482	0.058883
1808	9.0350e-01	-7.7404	-92.247048	0.000596	5.957670	2.018513	0.047591
1809	9.0400e-01	-7.6939	-92.033294	0.000535	5.351805	1.813241	0.042751
1810	9.0450e-01	-7.6554	-91.480759	0.001383	13.833912	4.687056	0.110507
1811	9.0500e-01	-7.6137	-91.307336	0.000434	4.342031	1.471120	0.034685
1812	9.0550e-01	-7.5832	-90.996787	0.000778	7.775264	2.634331	0.062110
1813	9.0600e-01	-7.5319	-90.702371	0.000737	7.371354	2.497482	0.058883
1814	9.0650e-01	-7.4918	-90.532981	0.000424	4.241053	1.436908	0.033878
1815	9.0700e-01	-7.4629	-90.028844	0.001262	12.622182	4.276511	0.100827
1816	9.0750e-01	-7.4196	-89.839288	0.000475	4.745941	1.607968	0.037911
1817	9.0800e-01	-7.3763	-89.464210	0.000939	9.390904	3.181724	0.075016
1818	9.0850e-01	-7.3490	-89.004437	0.001151	11.511430	3.900178	0.091955
1819	9.0900e-01	-7.3089	-88.855212	0.000374	3.736166	1.265847	0.029845
1820	9.0950e-01	-7.2527	-88.544663	0.000778	7.775264	2.634331	0.062110
1821	9.1000e-01	-7.2255	-88.044559	0.001252	12.521205	4.242299	0.100021
1822	9.1050e-01	-7.1805	-87.689646	0.000889	8.886016	3.010664	0.070983
1823	9.1100e-01	-7.1356	-87.588819	0.000252	2.524436	0.855302	0.020165
1824	9.1150e-01	-7.1035	-87.225840	0.000909	9.087971	3.079088	0.072596
1825	9.1200e-01	-7.0506	-86.814464	0.001030	10.299701	3.489633	0.082275
1826	9.1250e-01	-7.0153	-86.290161	0.001313	13.127069	4.447572	0.104861
1827	9.1300e-01	-6.9768	-86.136903	0.000384	3.837143	1.300059	0.030652
1828	9.1350e-01	-6.9479	-85.919116	0.000545	5.452783	1.847453	0.043557
1829	9.1400e-01	-6.8998	-85.588402	0.000828	8.280152	2.805391	0.066143
1830	9.1450e-01	-6.8533	-85.310118	0.000697	6.967445	2.360634	0.055657
1831	9.1500e-01	-6.8148	-84.753551	0.001393	13.934889	4.721268	0.111314
1832	9.1550e-01	-6.7731	-84.576094	0.000444	4.443008	1.505332	0.035491
1833	9.1600e-01	-6.7314	-84.273612	0.000757	7.573309	2.565907	0.060496
1834	9.1650e-01	-6.6929	-83.882401	0.000979	9.794813	3.318573	0.078242
1835	9.1700e-01	-6.6528	-83.503290	0.000949	9.491881	3.215936	0.075822
1836	9.1750e-01	-6.6207	-83.225006	0.000697	6.967445	2.360634	0.055657
1837	9.1800e-01	-6.5806	-82.753134	0.001181	11.814363	4.002814	0.094375
1838	9.1850e-01	-6.5340	-82.599876	0.000384	3.837143	1.300059	0.030652
1839	9.1900e-01	-6.5004	-82.152202	0.001121	11.208498	3.797542	0.089535
1840	9.1950e-01	-6.4635	-81.599667	0.001383	13.833912	4.687056	0.110507
1841	9.2000e-01	-6.4233	-81.486741	0.000283	2.827369	0.957938	0.022585
1842	9.2050e-01	-6.3768	-81.357682	0.000323	3.231279	1.094787	0.025812
1843	9.2100e-01	-6.3415	-80.833379	0.001313	13.127069	4.447572	0.104861
1844	9.2150e-01	-6.2982	-80.498632	0.000838	8.381129	2.839603	0.066949
1845	9.2200e-01	-6.2645	-80.228414	0.000677	6.765490	2.292210	0.054044
1846	9.2250e-01	-6.2164	-79.861402	0.000919	9.188949	3.113300	0.073402
1847	9.2300e-01	-6.1811	-79.615383	0.000616	6.159625	2.086937	0.049204
1848	9.2350e-01	-6.1394	-79.333066	0.000707	7.068422	2.394846	0.056463
1849	9.2400e-01	-6.0993	-78.970087	0.000909	9.087971	3.079088	0.072596
1850	9.2450e-01	-6.0608	-78.449817	0.001303	13.026092	4.413359	0.104054
1851	9.2500e-01	-6.0303	-78.199765	0.000626	6.260602	2.121150	0.050010
1852	9.2550e-01	-5.9790	-78.022309	0.000444	4.443008	1.505332	0.035491
1853	9.2600e-01	-5.9437	-77.578668	0.001111	11.107520	3.763330	0.088728
1854	9.2650e-01	-5.9116	-77.280219	0.000747	7.472332	2.531695	0.059690
1855	9.2700e-01	-5.8554	-77.074531	0.000515	5.149850	1.744817	0.041138
1856	9.2750e-01	-5.8218	-76.497798	0.001444	14.439776	4.892329	0.115347
1857	9.2800e-01	-5.7736	-76.288077	0.000525	5.250828	1.779029	0.041944
1858	9.2850e-01	-5.7271	-75.985594	0.000757	7.573309	2.565907	0.060496
1859	9.2900e-01	-5.7047	-75.586317	0.001000	9.996768	3.386997	0.079855
1860	9.2950e-01	-5.6597	-75.239471	0.000868	8.684061	2.942240	0.069369
1861	9.3000e-01	-5.6228	-74.836161	0.001010	10.097746	3.421209	0.080662
1862	9.3050e-01	-5.5779	-74.594175	0.000606	6.058647	2.052725	0.048397
1863	9.3100e-01	-5.5442	-74.206998	0.000969	9.693836	3.284361	0.077435
1864	9.3150e-01	-5.4945	-73.940813	0.000666	6.664512	2.257998	0.053237
1865	9.3200e-01	-5.4576	-73.525404	0.001040	10.400678	3.523845	0.083082
1866	9.3250e-01	-5.4223	-73.243087	0.000707	7.068422	2.394846	0.056463
1867	9.3300e-01	-5.3790	-72.863976	0.000949	9.491881	3.215936	0.075822
1868	9.3350e-01	-5.3325	-72.565527	0.000747	7.472332	2.531695	0.059690
1869	9.3400e-01	-5.3004	-72.331607	0.000586	5.856693	1.984301	0.046784
1870	9.3450e-01	-5.2635	-72.029124	0.000757	7.573309	2.565907	0.060496
1871	9.3500e-01	-5.2266	-71.605649	0.001060	10.602633	3.592269	0.084695
1872	9.3550e-01	-5.1833	-71.137810	0.001171	11.713385	3.968602	0.093568
1873	9.3600e-01	-5.1335	-70.750632	0.000969	9.693836	3.284361	0.077435
1874	9.3650e-01	-5.0999	-70.282793	0.001171	11.713385	3.968602	0.093568
1875	9.3700e-01	-5.0662	-69.944013	0.000848	8.482106	2.873815	0.067756
1876	9.3750e-01	-5.0196	-69.653629	0.000727	7.270377	2.463270	0.058077
1877	9.3800e-01	-4.9795	-69.415677	0.000596	5.957670	2.018513	0.047591
1878	9.3850e-01	-4.9442	-69.076896	0.000848	8.482106	2.873815	0.067756
1879	9.3900e-01	-4.9025	-68.871208	0.000515	5.149850	1.744817	0.041138
1880	9.3950e-01	-4.8624	-68.447733	0.001060	10.602633	3.592269	0.084695
1881	9.4000e-01	-4.8223	-68.024258	0.001060	10.602633	3.592269	0.084695
1882	9.4050e-01	-4.7822	-67.778239	0.000616	6.159625	2.086937	0.049204
1883	9.4100e-01	-4.7373	-67.503988	0.000687	6.866467	2.326422	0.054850
1884	9.4150e-01	-4.6988	-66.987751	0.001293	12.925115	4.379147	0.103247
1885	9.4200e-01	-4.6443	-66.782063	0.000515	5.149850	1.744817	0.041138
1886	9.4250e-01	-4.6186	-66.285992	0.001242	12.420227	4.208087	0.099214
1887	9.4300e-01	-4.5705	-65.874616	0.001030	10.299701	3.489633	0.082275
1888	9.4350e-01	-4.5480	-65.334181	0.001353	13.530979	4.584420	0.108087
1889	9.4400e-01	-4.5031	-65.116393	0.000545	5.452783	1.847453	0.043557
1890	9.4450e-01	-4.4614	-64.854242	0.000656	6.563535	2.223786	0.052430
1891	9.4500e-01	-4.4197	-64.390436	0.001161	11.612408	3.934390	0.092761
1892	9.4550e-01	-4.3876	-64.180715	0.000525	5.250828	1.779029	0.041944
1893	9.4600e-01	-4.3491	-63.692710	0.001222	12.218272	4.139663	0.097601
1894	9.4650e-01	-4.3042	-63.426525	0.000666	6.664512	2.257998	0.053237
1895	9.4700e-01	-4.2657	-63.156308	0.000677	6.765490	2.292210	0.054044
1896	9.4750e-01	-4.2239	-62.853825	0.000757	7.573309	2.565907	0.060496
1897	9.4800e-01	-4.1790	-62.410184	0.001111	11.107520	3.763330	0.088728
1898	9.4850e-01	-4.1373	-62.131901	0.000697	6.967445	2.360634	0.055657
1899	9.4900e-01	-4.0940	-61.942345	0.000475	4.745941	1.607968	0.037911
1900	9.4950e-01	-4.0683	-61.446274	0.001242	12.420227	4.208087	0.099214
1901	9.5000e-01	-4.0138	-61.010699	0.001091	10.905565	3.694906	0.087115
1902	9.5050e-01	-3.9801	-60.603356	0.001020	10.198723	3.455421	0.081469
1903	9.5100e-01	-3.9336	-60.151649	0.001131	11.309475	3.831754	0.090341
1904	9.5150e-01	-3.9063	-59.820935	0.000828	8.280152	2.805391	0.066143
1905	9.5200e-01	-3.8598	-59.643479	0.000444	4.443008	1.505332	0.035491
1906	9.5250e-01	-3.8181	-59.248235	0.000990	9.895791	3.352785	0.079049
1907	9.5300e-01	-3.7860	-58.727965	0.001303	13.026092	4.413359	0.104054
1908	9.5350e-01	-3.7379	-58.473880	0.000636	6.361580	2.155362	0.050817
1909	9.5400e-01	-3.6978	-58.046372	0.001070	10.703611	3.626481	0.085502
1910	9.5450e-01	-3.6689	-57.671293	0.000939	9.390904	3.181724	0.075016
1911	9.5500e-01	-3.6143	-57.445440	0.000565	5.654738	1.915877	0.045171
1912	9.5550e-01	-3.5790	-56.884839	0.001404	14.035867	4.755480	0.112120
1913	9.5600e-01	-3.5309	-56.574291	0.000778	7.775264	2.634331	0.062110
1914	9.5650e-01	-3.4972	-56.300040	0.000687	6.866467	2.326422	0.054850
1915	9.5700e-01	-3.4523	-55.953193	0.000868	8.684061	2.942240	0.069369
1916	9.5750e-01	-3.4218	-55.610380	0.000858	8.583084	2.908028	0.068563
1917	9.5800e-01	-3.3689	-55.380493	0.000576	5.755715	1.950089	0.045977
1918	9.5850e-01	-3.3400	-54.771496	0.001525	15.247596	5.166025	0.121800
1919	9.5900e-01	-3.2935	-54.481112	0.000727	7.270377	2.463270	0.058077
1920	9.5950e-01	-3.2566	-54.053604	0.001070	10.703611	3.626481	0.085502
1921	9.6000e-01	-3.2197	-53.650294	0.001010	10.097746	3.421209	0.080662
1922	9.6050e-01	-3.1860	-53.315547	0.000838	8.381129	2.839603	0.066949
1923	9.6100e-01	-3.1459	-52.964667	0.000879	8.785039	2.976452	0.070176
1924	9.6150e-01	-3.0978	-52.734781	0.000576	5.755715	1.950089	0.045977
1925	9.6200e-01	-3.0577	-52.412133	0.000808	8.078197	2.736967	0.064530
1926	9.6250e-01	-3.0224	-51.799102	0.001535	15.348574	5.200237	0.122606
1927	9.6300e-01	-2.9775	-51.440156	0.000899	8.986994	3.044876	0.071789
1928	9.6350e-01	-2.9293	-51.303031	0.000343	3.433234	1.163211	0.027425
1929	9.6400e-01	-2.8924	-50.847291	0.001141	11.410453	3.865966	0.091148
1930	9.6450e-01	-2.8539	-50.484312	0.000909	9.087971	3.079088	0.072596
1931	9.6500e-01	-2.8234	-49.947910	0.001343	13.430002	4.550208	0.107280
1932	9.6550e-01	-2.7801	-49.693824	0.000636	6.361580	2.155362	0.050817
1933	9.6600e-01	-2.7304	-49.298581	0.000990	9.895791	3.352785	0.079049
1934	9.6650e-01	-2.6935	-49.080793	0.000545	5.452783	1.847453	0.043557
1935	9.6700e-01	-2.6582	-48.762179	0.000798	7.977219	2.702755	0.063723
1936	9.6750e-01	-2.6245	-48.387100	0.000939	9.390904	3.181724	0.075016
1937	9.6800e-01	-2.5780	-48.032188	0.000889	8.886016	3.010664	0.070983
1938	9.6850e-01	-2.5379	-47.536117	0.001242	12.420227	4.208087	0.099214
1939	9.6900e-01	-2.4882	-47.120708	0.001040	10.400678	3.523845	0.083082
1940	9.6950e-01	-2.4625	-46.838391	0.000707	7.068422	2.394846	0.056463
1941	9.7000e-01	-2.4256	-46.467346	0.000929	9.289926	3.147512	0.074209
1942	9.7050e-01	-2.3759	-46.289889	0.000444	4.443008	1.505332	0.035491
1943	9.7100e-01	-2.3326	-45.709123	0.001454	14.540754	4.926541	0.116153
1944	9.7150e-01	-2.3037	-45.438905	0.000677	6.765490	2.292210	0.054044
1945	9.7200e-01	-2.2588	-44.963000	0.001192	11.915340	4.037026	0.095181
1946	9.7250e-01	-2.2235	-44.640352	0.000808	8.078197	2.736967	0.064530
1947	9.7300e-01	-2.1802	-44.277373	0.000909	9.087971	3.079088	0.072596
1948	9.7350e-01	-2.1352	-43.878096	0.001000	9.996768	3.386997	0.079855
1949	9.7400e-01	-2.0903	-43.486886	0.000979	9.794813	3.318573	0.078242
1950	9.7450e-01	-2.0566	-43.031146	0.001141	11.410453	3.865966	0.091148
1951	9.7500e-01	-2.0213	-42.623803	0.001020	10.198723	3.455421	0.081469
1952	9.7550e-01	-1.9796	-42.276956	0.000868	8.684061	2.942240	0.069369
1953	9.7600e-01	-1.9395	-41.958341	0.000798	7.977219	2.702755	0.063723
1954	9.7650e-01	-1.8978	-41.700223	0.000646	6.462557	2.189574	0.051624
1955	9.7700e-01	-1.8609	-41.349343	0.000879	8.785039	2.976452	0.070176
1956	9.7750e-01	-1.8240	-41.018629	0.000828	8.280152	2.805391	0.066143
1957	9.7800e-01	-1.7791	-40.494327	0.001313	13.127069	4.447572	0.104861
1958	9.7850e-01	-1.7406	-39.816766	0.001696	16.964213	5.747631	0.135512
1959	9.7900e-01	-1.7021	-39.385224	0.001080	10.804588	3.660694	0.086308
1960	9.7950e-01	-1.6700	-39.207768	0.000444	4.443008	1.505332	0.035491
1961	9.8000e-01	-1.6155	-38.868988	0.000848	8.482106	2.873815	0.067756
1962	9.8050e-01	-1.5786	-38.574572	0.000737	7.371354	2.497482	0.058883
1963	9.8100e-01	-1.5304	-38.247891	0.000818	8.179174	2.771179	0.065336
1964	9.8150e-01	-1.4871	-37.937342	0.000778	7.775264	2.634331	0.062110
1965	9.8200e-01	-1.4534	-37.586462	0.000879	8.785039	2.976452	0.070176
1966	9.8250e-01	-1.4181	-37.138788	0.001121	11.208498	3.797542	0.089535
1967	9.8300e-01	-1.3796	-36.638684	0.001252	12.521205	4.242299	0.100021
1968	9.8350e-01	-1.3411	-36.368467	0.000677	6.765490	2.292210	0.054044
1969	9.8400e-01	-1.2978	-35.912727	0.001141	11.410453	3.865966	0.091148
1970	9.8450e-01	-1.2577	-35.537648	0.000939	9.390904	3.181724	0.075016
1971	9.8500e-01	-1.2192	-35.037544	0.001252	12.521205	4.242299	0.100021
1972	9.8550e-01	-1.1775	-34.815724	0.000555	5.553760	1.881665	0.044364
1973	9.8600e-01	-1.1406	-34.347884	0.001171	11.713385	3.968602	0.093568
1974	9.8650e-01	-1.0973	-34.089766	0.000646	6.462557	2.189574	0.051624
1975	9.8700e-01	-1.0668	-33.625960	0.001161	11.612408	3.934390	0.092761
1976	9.8750e-01	-1.0235	-33.258948	0.000919	9.188949	3.113300	0.073402
1977	9.8800e-01	-0.9882	-32.795141	0.001161	11.612408	3.934390	0.092761
1978	9.8850e-01	-0.9337	-32.641884	0.000384	3.837143	1.300059	0.030652
1979	9.8900e-01	-0.9032	-32.238574	0.001010	10.097746	3.421209	0.080662
1980	9.8950e-01	-0.8615	-31.690072	0.001373	13.732934	4.652844	0.109700
1981	9.9000e-01	-0.8166	-31.335160	0.000889	8.886016	3.010664	0.070983
1982	9.9050e-01	-0.7716	-30.984280	0.000879	8.785039	2.976452	0.070176
1983	9.9100e-01	-0.7396	-30.564838	0.001050	10.501656	3.558057	0.083888
1984	9.9150e-01	-0.6978	-30.096998	0.001171	11.713385	3.968602	0.093568
1985	9.9200e-01	-0.6545	-29.471868	0.001565	15.651506	5.302874	0.125026
1986	9.9250e-01	-0.6160	-29.459769	0.000030	0.302932	0.102636	0.002420
1987	9.9300e-01	-0.5759	-29.201650	0.000646	6.462557	2.189574	0.051624
1988	9.9350e-01	-0.5390	-28.830605	0.000929	9.289926	3.147512	0.074209
1989	9.9400e-01	-0.4989	-28.556355	0.000687	6.866467	2.326422	0.054850
1990	9.9450e-01	-0.4540	-27.995754	0.001404	14.035867	4.755480	0.112120
1991	9.9500e-01	-0.4123	-27.689238	0.000767	7.674287	2.600119	0.061303
1992	9.9550e-01	-0.3754	-27.116538	0.001434	14.338799	4.858117	0.114540
1993	9.9600e-01	-0.3401	-26.725328	0.000979	9.794813	3.318573	0.078242
1994	9.9650e-01	-0.3016	-26.374448	0.000879	8.785039	2.976452	0.070176
1995	9.9700e-01	-0.2615	-25.959039	0.001040	10.400678	3.523845	0.083082
1996	9.9750e-01	-0.2182	-25.692855	0.000666	6.664512	2.257998	0.053237
1997	9.9800e-01	-0.1749	-25.434736	0.000646	6.462557	2.189574	0.051624
1998	9.9850e-01	-0.1428	-24.741043	0.001737	17.368123	5.884479	0.138739
1999	9.9900e-01	-0.0963	-24.422429	0.000798	7.977219	2.702755	0.063723
2000	9.9950e-01	-0.0594	-24.023152	0.001000	9.996768	3.386997	0.079855
2001	1.0000e+00	-0.0128	-23.490783	0.001000	9.996768	3.386997	0.106474

PMax (uC/cm2):	1.87e+02
Pr (uC/cm2):	1.32e+01
-Pr (uC/cm2):	-7.00e+00
PLoss (uC/cm2):	-7.07e+00
-Vc:	-1.33e+00
C (Max-Eff) (nF):	9.35e-01
K (Eff):	3.17e+03
Vert. (+/-Pr) Shift (uC/cm2):	3.09e+00
Offset (uC/cm2):	1.65e+01

A (Loop Area - uC/cm2·Volts):	5.64e-02



Hysteresis Version: 5.48.1 - Radiant Technologies, Inc., 1999 - 9/12/24

