»»»»»»»»»»»»»»»»»»»»»»»»»»»»»»»»»»»» Hysteresis ««««««««««««««««««««««««««««««««««««
»»»  Executed Version:	5.48.1
»»»  Vision Version:	5.48.4 (R)
»»»  Vision Compiled:	9/18/24
»»»  Driver Version:	5.47.0
»»»  Windows Version:	Windows 8 or 8.1
»»»  Processor Information:	x86 (AMD or Intel) - 32 Processors
»»»  Tester Name:	PMF21124-494 (100V)
»»»  Tester S/N:	PMF21124-494
»»»  Internal Amp Type:	100V RevK 270k
»»»  Internal Amp S/N:	iAB2-596/K     
»»»  Execution Count:	1
»»»»»»»»»»»»»»»»»»»»»»»»»»»»»»»»»»»»»»»»»»««««««««««««««««««««««««««««««««««««««««««

Stored:	6/18/2025 - 16:19:21
Configured:	06/18/25 09:47:30 AM
Executed:	06/18/25 04:18:51 PM

»»»»»»»»»»»»»»»»»»»»»»»»»»»»»»»»»»» Sample Info ««««««««««««««««««««««««««««««««««««
Sample Name:	
Lot Name:	
Wafer Name:	
Die Row/Column:	0/0
Capacitor Number:	0
Sample Area (cm2):	1.00e-04
Sample Thickness (microns):	3.00e-01

Amplifier:	Internal

»»»»»»»»»»»»»»»»»»»»»»»»»»»»»»»»»»» Tester Info «««««««««««««««««««««««««««««««««««
Tester Name:	PMF21124-494 (100V)
Tester Serial Number:	PMF21124-494
Return Signal Amp. Level:	0.19 [Index: 3]

»»»»»»»»»»»»»»»»»»»»»»»»»»»»»»»» Hysteresis Info ««««««««««««««««««««««««««««««««««
Task Name:	Hyst-554
Volts:	20.00
Field:	666.67 (kV/cm)
DCBias:	0.00
DCField:	0.00 (kV/cm)
Hysteresis Period (ms):	1.00e+00
Preset:	Enabled
Preset Delay (ms):	1.00e+03
Profile:	Standard Bipolar

»»»»»»»»»»»»»»»»»»»»»»»»»»»»»»»»»»»»»» Data «««««««««««««««««««««««««««««««««««««««
Points:	2001

Valid Data

Point	Time (ms)	Drive Voltage	Measured Polarization (uC/cm2)	Capacitance (uF)	Normalized Capacitance (uF/cm2)	Dielectric Constant	Instantaneous Current (mA)
   1	0.0000e+00	0.0257	-13.002710	0.000465	4.647670	1.574673	0.037105
   2	5.0000e-04	0.0369	-12.817187	0.000465	4.647670	1.574673	0.037105
   3	1.0000e-03	0.0690	-12.651830	0.000414	4.142488	1.403513	0.033071
   4	1.5000e-03	0.0930	-12.526804	0.000313	3.132125	1.061193	0.025005
   5	2.0000e-03	0.1332	-12.115428	0.001031	10.305703	3.491667	0.082275
   6	2.5000e-03	0.1765	-11.901674	0.000535	5.354924	1.814297	0.042751
   7	3.0000e-03	0.2086	-11.720185	0.000455	4.546634	1.540441	0.036298
   8	3.5000e-03	0.2519	-11.417702	0.000758	7.577723	2.567402	0.060496
   9	4.0000e-03	0.2968	-11.074889	0.000859	8.588086	2.909722	0.068563
  10	4.5000e-03	0.3417	-10.849035	0.000566	5.658033	1.916993	0.045171
  11	5.0000e-03	0.3706	-10.526387	0.000808	8.082904	2.738562	0.064530
  12	5.5000e-03	0.4123	-10.284401	0.000606	6.062178	2.053922	0.048397
  13	6.0000e-03	0.4540	-10.038382	0.000616	6.163214	2.088154	0.049204
  14	6.5000e-03	0.4941	-9.663304	0.000940	9.396376	3.183578	0.075016
  15	7.0000e-03	0.5342	-9.223697	0.001101	11.012957	3.731291	0.087922
  16	7.5000e-03	0.5679	-8.949446	0.000687	6.870468	2.327778	0.054850
  17	8.0000e-03	0.6257	-8.505805	0.001111	11.113993	3.765523	0.088728
  18	8.5000e-03	0.6609	-8.376746	0.000323	3.233162	1.095425	0.025812
  19	9.0000e-03	0.7010	-8.041999	0.000839	8.386013	2.841258	0.066949
  20	9.5000e-03	0.7428	-7.812112	0.000576	5.759069	1.951225	0.045977
  21	1.0000e-02	0.7764	-7.533828	0.000697	6.971505	2.362010	0.055657
  22	1.0500e-02	0.8101	-7.090187	0.001111	11.113993	3.765523	0.088728
  23	1.1000e-02	0.8615	-6.751407	0.000849	8.487049	2.875490	0.067756
  24	1.1500e-02	0.8968	-6.557818	0.000485	4.849742	1.643137	0.038718
  25	1.2000e-02	0.9369	-6.182740	0.000940	9.396376	3.183578	0.075016
  26	1.2500e-02	0.9641	-5.823794	0.000899	8.992231	3.046650	0.071789
  27	1.3000e-02	1.0155	-5.501146	0.000808	8.082904	2.738562	0.064530
  28	1.3500e-02	1.0508	-5.045406	0.001142	11.417102	3.868219	0.091148
  29	1.4000e-02	1.0957	-4.972811	0.000182	1.818653	0.616176	0.014519
  30	1.4500e-02	1.1310	-4.597732	0.000940	9.396376	3.183578	0.075016
  31	1.5000e-02	1.1791	-4.105694	0.001233	12.326429	4.176307	0.098408
  32	1.5500e-02	1.2112	-3.916139	0.000475	4.748706	1.608905	0.037911
  33	1.6000e-02	1.2577	-3.774980	0.000354	3.536271	1.198121	0.028232
  34	1.6500e-02	1.2866	-3.234545	0.001354	13.538864	4.587091	0.108087
  35	1.7000e-02	1.3347	-2.899798	0.000839	8.386013	2.841258	0.066949
  36	1.7500e-02	1.3684	-2.561018	0.000849	8.487049	2.875490	0.067756
  37	1.8000e-02	1.4133	-2.500521	0.000152	1.515545	0.513480	0.012099
  38	1.8500e-02	1.4631	-2.294833	0.000515	5.152851	1.745833	0.041138
  39	1.9000e-02	1.4871	-1.798762	0.001243	12.427465	4.210539	0.099214
  40	1.9500e-02	1.5385	-1.391419	0.001020	10.204666	3.457435	0.081469
  41	2.0000e-02	1.5818	-1.226062	0.000414	4.142488	1.403513	0.033071
  42	2.0500e-02	1.6155	-0.754189	0.001182	11.821247	4.005147	0.094375
  43	2.1000e-02	1.6556	-0.479939	0.000687	6.870468	2.327778	0.054850
  44	2.1500e-02	1.6973	-0.213754	0.000667	6.668396	2.259314	0.053237
  45	2.2000e-02	1.7310	0.173423	0.000970	9.699485	3.286274	0.077435
  46	2.2500e-02	1.7839	0.504137	0.000828	8.284977	2.807026	0.066143
  47	2.3000e-02	1.8144	0.786454	0.000707	7.072541	2.396242	0.056463
  48	2.3500e-02	1.8561	1.004242	0.000546	5.455960	1.848529	0.043557
  49	2.4000e-02	1.8898	1.238161	0.000586	5.860105	1.985457	0.046784
  50	2.4500e-02	1.9299	1.625339	0.000970	9.699485	3.286274	0.077435
  51	2.5000e-02	1.9716	1.964119	0.000849	8.487049	2.875490	0.067756
  52	2.5500e-02	2.0085	2.165774	0.000505	5.051815	1.711601	0.040331
  53	2.6000e-02	2.0454	2.734441	0.001425	14.246118	4.826716	0.113733
  54	2.6500e-02	2.0855	2.992559	0.000647	6.466323	2.190850	0.051624
  55	2.7000e-02	2.1336	3.351505	0.000899	8.992231	3.046650	0.071789
  56	2.7500e-02	2.1785	3.416035	0.000162	1.616581	0.547712	0.012906
  57	2.8000e-02	2.2122	3.912106	0.001243	12.427465	4.210539	0.099214
  58	2.8500e-02	2.2491	4.299283	0.000970	9.699485	3.286274	0.077435
  59	2.9000e-02	2.2908	4.561435	0.000657	6.567360	2.225082	0.052430
  60	2.9500e-02	2.3293	4.972811	0.001031	10.305703	3.491667	0.082275
  61	3.0000e-02	2.3727	5.142201	0.000424	4.243525	1.437745	0.033878
  62	3.0500e-02	2.4080	5.448716	0.000768	7.678759	2.601634	0.061303
  63	3.1000e-02	2.4561	5.755232	0.000768	7.678759	2.601634	0.061303
  64	3.1500e-02	2.4946	6.170641	0.001041	10.406739	3.525899	0.083082
  65	3.2000e-02	2.5299	6.416660	0.000616	6.163214	2.088154	0.049204
  66	3.2500e-02	2.5604	6.807870	0.000980	9.800521	3.320506	0.078242
  67	3.3000e-02	2.6069	7.211180	0.001010	10.103630	3.423203	0.080662
  68	3.3500e-02	2.6534	7.505596	0.000738	7.375650	2.498938	0.058883
  69	3.4000e-02	2.6887	7.896807	0.000980	9.800521	3.320506	0.078242
  70	3.4500e-02	2.7352	8.255753	0.000899	8.992231	3.046650	0.071789
  71	3.5000e-02	2.7753	8.453375	0.000495	4.950779	1.677369	0.039524
  72	3.5500e-02	2.8186	8.699394	0.000616	6.163214	2.088154	0.049204
  73	3.6000e-02	2.8555	9.126902	0.001071	10.709848	3.628595	0.085502
  74	3.6500e-02	2.8972	9.453583	0.000818	8.183940	2.772794	0.065336
  75	3.7000e-02	2.9341	9.538278	0.000212	2.121762	0.718873	0.016939
  76	3.7500e-02	2.9726	9.868992	0.000828	8.284977	2.807026	0.066143
  77	3.8000e-02	3.0224	10.227938	0.000899	8.992231	3.046650	0.071789
  78	3.8500e-02	3.0529	10.639314	0.001031	10.305703	3.491667	0.082275
  79	3.9000e-02	3.0946	10.925664	0.000717	7.173577	2.430474	0.057270
  80	3.9500e-02	3.1315	11.478199	0.001384	13.841973	4.689787	0.110507
  81	4.0000e-02	3.1668	11.808913	0.000828	8.284977	2.807026	0.066143
  82	4.0500e-02	3.2165	12.256587	0.001122	11.215029	3.799755	0.089535
  83	4.1000e-02	3.2598	12.389679	0.000333	3.334198	1.129657	0.026618
  84	4.1500e-02	3.2951	12.825254	0.001091	10.911921	3.697059	0.087115
  85	4.2000e-02	3.3320	13.184199	0.000899	8.992231	3.046650	0.071789
  86	4.2500e-02	3.3785	13.478616	0.000738	7.375650	2.498938	0.058883
  87	4.3000e-02	3.4170	13.660105	0.000455	4.546634	1.540441	0.036298
  88	4.3500e-02	3.4523	14.010985	0.000879	8.790158	2.978186	0.070176
  89	4.4000e-02	3.5117	14.353798	0.000859	8.588086	2.909722	0.068563
  90	4.4500e-02	3.5325	14.636115	0.000707	7.072541	2.396242	0.056463
  91	4.5000e-02	3.5710	15.003127	0.000919	9.194303	3.115114	0.073402
  92	4.5500e-02	3.6127	15.394337	0.000980	9.800521	3.320506	0.078242
  93	4.6000e-02	3.6496	15.612125	0.000546	5.455960	1.848529	0.043557
  94	4.6500e-02	3.6994	16.011401	0.001000	10.002594	3.388971	0.079855
  95	4.7000e-02	3.7330	16.321950	0.000778	7.779795	2.635866	0.062110
  96	4.7500e-02	3.7748	16.523605	0.000505	5.051815	1.711601	0.040331
  97	4.8000e-02	3.8181	16.854319	0.000828	8.284977	2.807026	0.066143
  98	4.8500e-02	3.8502	17.197132	0.000859	8.588086	2.909722	0.068563
  99	4.9000e-02	3.8887	17.669005	0.001182	11.821247	4.005147	0.094375
 100	4.9500e-02	3.9320	18.007785	0.000849	8.487049	2.875490	0.067756
 101	5.0000e-02	3.9785	18.390930	0.000960	9.598449	3.252042	0.076629
 102	5.0500e-02	4.0138	18.709544	0.000798	7.981868	2.704330	0.063723
 103	5.1000e-02	4.0555	18.979762	0.000677	6.769432	2.293546	0.054044
 104	5.1500e-02	4.1052	19.282244	0.000758	7.577723	2.567402	0.060496
 105	5.2000e-02	4.1293	19.641190	0.000899	8.992231	3.046650	0.071789
 106	5.2500e-02	4.1822	20.004169	0.000909	9.093267	3.080882	0.072596
 107	5.3000e-02	4.2143	20.419578	0.001041	10.406739	3.525899	0.083082
 108	5.3500e-02	4.2544	20.653498	0.000586	5.860105	1.985457	0.046784
 109	5.4000e-02	4.2881	21.020510	0.000919	9.194303	3.115114	0.073402
 110	5.4500e-02	4.3282	21.492382	0.001182	11.821247	4.005147	0.094375
 111	5.5000e-02	4.3763	21.895692	0.001010	10.103630	3.423203	0.080662
 112	5.5500e-02	4.4148	21.992487	0.000242	2.424871	0.821569	0.019359
 113	5.6000e-02	4.4469	22.371598	0.000950	9.497412	3.217810	0.075822
 114	5.6500e-02	4.5031	22.617617	0.000616	6.163214	2.088154	0.049204
 115	5.7000e-02	4.5320	22.871702	0.000637	6.365287	2.156618	0.050817
 116	5.7500e-02	4.5849	23.335509	0.001162	11.619175	3.936683	0.092761
 117	5.8000e-02	4.6106	23.795282	0.001152	11.518138	3.902451	0.091955
 118	5.8500e-02	4.6507	24.198592	0.001010	10.103630	3.423203	0.080662
 119	5.9000e-02	4.6988	24.456710	0.000647	6.466323	2.190850	0.051624
 120	5.9500e-02	4.7405	24.795490	0.000849	8.487049	2.875490	0.067756
 121	6.0000e-02	4.7790	25.029410	0.000586	5.860105	1.985457	0.046784
 122	6.0500e-02	4.8143	25.638408	0.001526	15.256481	5.169036	0.121800
 123	6.1000e-02	4.8544	25.973155	0.000839	8.386013	2.841258	0.066949
 124	6.1500e-02	4.8993	26.178843	0.000515	5.152851	1.745833	0.041138
 125	6.2000e-02	4.9378	26.545855	0.000919	9.194303	3.115114	0.073402
 126	6.2500e-02	4.9747	26.908834	0.000909	9.093267	3.080882	0.072596
 127	6.3000e-02	5.0036	27.158886	0.000626	6.264251	2.122386	0.050010
 128	6.3500e-02	5.0549	27.521865	0.000909	9.093267	3.080882	0.072596
 129	6.4000e-02	5.0902	27.900976	0.000950	9.497412	3.217810	0.075822
 130	6.4500e-02	5.1351	28.146995	0.000616	6.163214	2.088154	0.049204
 131	6.5000e-02	5.1753	28.501908	0.000889	8.891195	3.012418	0.070983
 132	6.5500e-02	5.2122	28.981847	0.001202	12.023320	4.073611	0.095988
 133	6.6000e-02	5.2539	29.268197	0.000717	7.173577	2.430474	0.057270
 134	6.6500e-02	5.2972	29.518249	0.000626	6.264251	2.122386	0.050010
 135	6.7000e-02	5.3277	30.066750	0.001374	13.740937	4.655555	0.109700
 136	6.7500e-02	5.3726	30.449894	0.000960	9.598449	3.252042	0.076629
 137	6.8000e-02	5.4159	30.768509	0.000798	7.981868	2.704330	0.063723
 138	6.8500e-02	5.4512	31.018561	0.000626	6.264251	2.122386	0.050010
 139	6.9000e-02	5.4897	31.526732	0.001273	12.730574	4.313235	0.101634
 140	6.9500e-02	5.5362	31.720321	0.000485	4.849742	1.643137	0.038718
 141	7.0000e-02	5.5779	31.825181	0.000263	2.626944	0.890033	0.020972
 142	7.0500e-02	5.6180	32.357550	0.001334	13.336792	4.518627	0.106474
 143	7.1000e-02	5.6597	32.881853	0.001313	13.134719	4.450163	0.104861
 144	7.1500e-02	5.6934	33.127872	0.000616	6.163214	2.088154	0.049204
 145	7.2000e-02	5.7399	33.264997	0.000344	3.435234	1.163889	0.027425
 146	7.2500e-02	5.7801	33.692506	0.001071	10.709848	3.628595	0.085502
 147	7.3000e-02	5.8105	34.168411	0.001192	11.922284	4.039379	0.095181
 148	7.3500e-02	5.8554	34.547523	0.000950	9.497412	3.217810	0.075822
 149	7.4000e-02	5.8972	34.777409	0.000576	5.759069	1.951225	0.045977
 150	7.4500e-02	5.9357	35.418672	0.001606	16.064772	5.442892	0.128253
 151	7.5000e-02	5.9726	35.680823	0.000657	6.567360	2.225082	0.052430
 152	7.5500e-02	6.0159	35.963140	0.000707	7.072541	2.396242	0.056463
 153	7.6000e-02	6.0512	36.128497	0.000414	4.142488	1.403513	0.033071
 154	7.6500e-02	6.0913	36.584237	0.001142	11.417102	3.868219	0.091148
 155	7.7000e-02	6.1266	37.124673	0.001354	13.538864	4.587091	0.108087
 156	7.7500e-02	6.1747	37.439254	0.000788	7.880831	2.670098	0.062916
 157	7.8000e-02	6.2164	37.544115	0.000263	2.626944	0.890033	0.020972
 158	7.8500e-02	6.2629	38.237808	0.001738	17.378244	5.887908	0.138739
 159	7.9000e-02	6.2822	38.366867	0.000323	3.233162	1.095425	0.025812
 160	7.9500e-02	6.3351	38.649184	0.000707	7.072541	2.396242	0.056463
 161	8.0000e-02	6.3736	39.080725	0.001081	10.810884	3.662827	0.086308
 162	8.0500e-02	6.4153	39.391274	0.000778	7.779795	2.635866	0.062110
 163	8.1000e-02	6.4474	40.234192	0.002112	21.116587	7.154493	0.168584
 164	8.1500e-02	6.5020	40.141430	-0.000232	-2.323835	-0.787337	-0.018552
 165	8.2000e-02	6.5324	40.351152	0.000525	5.253888	1.780065	0.041944
 166	8.2500e-02	6.5709	40.794792	0.001111	11.113993	3.765523	0.088728
 167	8.3000e-02	6.6110	41.048878	0.000637	6.365287	2.156618	0.050817
 168	8.3500e-02	6.6560	41.363459	0.000788	7.880831	2.670098	0.062916
 169	8.4000e-02	6.6993	41.718372	0.000889	8.891195	3.012418	0.070983
 170	8.4500e-02	6.7217	42.016821	0.000748	7.476686	2.533170	0.059690
 171	8.5000e-02	6.7811	42.589521	0.001435	14.347155	4.860948	0.114540
 172	8.5500e-02	6.8212	42.883937	0.000738	7.375650	2.498938	0.058883
 173	8.6000e-02	6.8533	43.355810	0.001182	11.821247	4.005147	0.094375
 174	8.6500e-02	6.8902	43.686524	0.000828	8.284977	2.807026	0.066143
 175	8.7000e-02	6.9399	43.880113	0.000485	4.849742	1.643137	0.038718
 176	8.7500e-02	6.9720	44.178562	0.000748	7.476686	2.533170	0.059690
 177	8.8000e-02	7.0073	44.509276	0.000828	8.284977	2.807026	0.066143
 178	8.8500e-02	7.0426	44.936785	0.001071	10.709848	3.628595	0.085502
 179	8.9000e-02	7.1003	45.315896	0.000950	9.497412	3.217810	0.075822
 180	8.9500e-02	7.1372	45.686941	0.000930	9.295340	3.149346	0.074209
 181	9.0000e-02	7.1757	45.961192	0.000687	6.870468	2.327778	0.054850
 182	9.0500e-02	7.2158	46.388700	0.001071	10.709848	3.628595	0.085502
 183	9.1000e-02	7.2608	46.820242	0.001081	10.810884	3.662827	0.086308
 184	9.1500e-02	7.2928	47.159022	0.000849	8.487049	2.875490	0.067756
 185	9.2000e-02	7.3313	47.626861	0.001172	11.720211	3.970915	0.093568
 186	9.2500e-02	7.3731	47.945476	0.000798	7.981868	2.704330	0.063723
 187	9.3000e-02	7.4196	48.074535	0.000323	3.233162	1.095425	0.025812
 188	9.3500e-02	7.4485	48.477845	0.001010	10.103630	3.423203	0.080662
 189	9.4000e-02	7.4950	48.865023	0.000970	9.699485	3.286274	0.077435
 190	9.4500e-02	7.5222	49.348994	0.001212	12.124356	4.107843	0.096794
 191	9.5000e-02	7.5752	49.711973	0.000909	9.093267	3.080882	0.072596
 192	9.5500e-02	7.6153	50.026555	0.000788	7.880831	2.670098	0.062916
 193	9.6000e-02	7.6490	50.381468	0.000889	8.891195	3.012418	0.070983
 194	9.6500e-02	7.7019	50.546825	0.000414	4.142488	1.403513	0.033071
 195	9.7000e-02	7.7356	51.050962	0.001263	12.629538	4.279003	0.100827
 196	9.7500e-02	7.7709	51.365544	0.000788	7.880831	2.670098	0.062916
 197	9.8000e-02	7.8174	51.692225	0.000818	8.183940	2.772794	0.065336
 198	9.8500e-02	7.8543	52.143932	0.001132	11.316066	3.833987	0.090341
 199	9.9000e-02	7.8976	52.631937	0.001223	12.225392	4.142075	0.097601
 200	9.9500e-02	7.9329	52.809393	0.000445	4.445597	1.506209	0.035491
 201	1.0000e-01	7.9762	53.156240	0.000869	8.689122	2.943954	0.069369
 202	1.0050e-01	8.0067	53.442590	0.000717	7.173577	2.430474	0.057270
 203	1.0100e-01	8.0549	53.870098	0.001071	10.709848	3.628595	0.085502
 204	1.0150e-01	8.0901	54.168547	0.000748	7.476686	2.533170	0.059690
 205	1.0200e-01	8.1399	54.632354	0.001162	11.619175	3.936683	0.092761
 206	1.0250e-01	8.1784	54.821909	0.000475	4.748706	1.608905	0.037911
 207	1.0300e-01	8.2153	55.152623	0.000828	8.284977	2.807026	0.066143
 208	1.0350e-01	8.2522	55.584165	0.001081	10.810884	3.662827	0.086308
 209	1.0400e-01	8.2955	55.951177	0.000919	9.194303	3.115114	0.073402
 210	1.0450e-01	8.3340	56.435149	0.001212	12.124356	4.107843	0.096794
 211	1.0500e-01	8.3725	56.661002	0.000566	5.658033	1.916993	0.045171
 212	1.0550e-01	8.4142	57.040114	0.000950	9.497412	3.217810	0.075822
 213	1.0600e-01	8.4463	57.378894	0.000849	8.487049	2.875490	0.067756
 214	1.0650e-01	8.4992	57.705575	0.000818	8.183940	2.772794	0.065336
 215	1.0700e-01	8.5297	58.104852	0.001000	10.002594	3.388971	0.079855
 216	1.0750e-01	8.5746	58.459764	0.000889	8.891195	3.012418	0.070983
 217	1.0800e-01	8.6083	58.681585	0.000556	5.556997	1.882761	0.044364
 218	1.0850e-01	8.6516	59.177656	0.001243	12.427465	4.210539	0.099214
 219	1.0900e-01	8.6869	59.379311	0.000505	5.051815	1.711601	0.040331
 220	1.0950e-01	8.7367	59.786654	0.001020	10.204666	3.457435	0.081469
 221	1.1000e-01	8.7752	60.214162	0.001071	10.709848	3.628595	0.085502
 222	1.1050e-01	8.8201	60.544876	0.000828	8.284977	2.807026	0.066143
 223	1.1100e-01	8.8570	60.847359	0.000758	7.577723	2.567402	0.060496
 224	1.1150e-01	8.8874	61.411992	0.001415	14.145082	4.792484	0.112927
 225	1.1200e-01	8.9420	61.658011	0.000616	6.163214	2.088154	0.049204
 226	1.1250e-01	8.9693	61.899997	0.000606	6.062178	2.053922	0.048397
 227	1.1300e-01	9.0094	62.323473	0.001061	10.608812	3.594363	0.084695
 228	1.1350e-01	9.0527	62.815511	0.001233	12.326429	4.176307	0.098408
 229	1.1400e-01	9.0912	63.194622	0.000950	9.497412	3.217810	0.075822
 230	1.1450e-01	9.1265	63.238986	0.000111	1.111399	0.376552	0.008873
 231	1.1500e-01	9.1746	63.944778	0.001768	17.681353	5.990604	0.141158
 232	1.1550e-01	9.2099	64.094003	0.000374	3.738343	1.266585	0.029845
 233	1.1600e-01	9.2644	64.432783	0.000849	8.487049	2.875490	0.067756
 234	1.1650e-01	9.2885	64.670736	0.000596	5.961142	2.019690	0.047591
 235	1.1700e-01	9.3398	65.045814	0.000940	9.396376	3.183578	0.075016
 236	1.1750e-01	9.3864	65.392661	0.000869	8.689122	2.943954	0.069369
 237	1.1800e-01	9.4201	65.759673	0.000919	9.194303	3.115114	0.073402
 238	1.1850e-01	9.4634	66.146850	0.000970	9.699485	3.286274	0.077435
 239	1.1900e-01	9.4987	66.445299	0.000748	7.476686	2.533170	0.059690
 240	1.1950e-01	9.5452	66.771980	0.000818	8.183940	2.772794	0.065336
 241	1.2000e-01	9.5725	67.316449	0.001364	13.639901	4.621323	0.108894
 242	1.2050e-01	9.6126	67.586666	0.000677	6.769432	2.293546	0.054044
 243	1.2100e-01	9.6575	68.090804	0.001263	12.629538	4.279003	0.100827
 244	1.2150e-01	9.6976	68.381187	0.000727	7.274614	2.464706	0.058077
 245	1.2200e-01	9.7297	68.627206	0.000616	6.163214	2.088154	0.049204
 246	1.2250e-01	9.7778	69.135376	0.001273	12.730574	4.313235	0.101634
 247	1.2300e-01	9.8195	69.458024	0.000808	8.082904	2.738562	0.064530
 248	1.2350e-01	9.8612	69.865367	0.001020	10.204666	3.457435	0.081469
 249	1.2400e-01	9.8885	70.099287	0.000586	5.860105	1.985457	0.046784
 250	1.2450e-01	9.9334	70.264644	0.000414	4.142488	1.403513	0.033071
 251	1.2500e-01	9.9719	70.797013	0.001334	13.336792	4.518627	0.106474
 252	1.2550e-01	10.0088	71.034966	0.000596	5.961142	2.019690	0.047591
 253	1.2600e-01	10.0521	71.502805	0.001172	11.720211	3.970915	0.093568
 254	1.2650e-01	10.0954	72.006942	0.001263	12.629538	4.279003	0.100827
 255	1.2700e-01	10.1388	72.313458	0.000768	7.678759	2.601634	0.061303
 256	1.2750e-01	10.1708	72.466716	0.000384	3.839379	1.300817	0.030652
 257	1.2800e-01	10.2142	72.773231	0.000768	7.678759	2.601634	0.061303
 258	1.2850e-01	10.2591	73.091846	0.000798	7.981868	2.704330	0.063723
 259	1.2900e-01	10.2912	73.612116	0.001303	13.033683	4.415931	0.104054
 260	1.2950e-01	10.3281	73.837969	0.000566	5.658033	1.916993	0.045171
 261	1.3000e-01	10.3730	74.209014	0.000930	9.295340	3.149346	0.074209
 262	1.3050e-01	10.4147	74.584092	0.000940	9.396376	3.183578	0.075016
 263	1.3100e-01	10.4644	74.834145	0.000626	6.264251	2.122386	0.050010
 264	1.3150e-01	10.5029	75.237454	0.001010	10.103630	3.423203	0.080662
 265	1.3200e-01	10.5302	75.592367	0.000889	8.891195	3.012418	0.070983
 266	1.3250e-01	10.5831	76.076339	0.001212	12.124356	4.107843	0.096794
 267	1.3300e-01	10.6200	76.487715	0.001031	10.305703	3.491667	0.082275
 268	1.3350e-01	10.6585	76.628873	0.000354	3.536271	1.198121	0.028232
 269	1.3400e-01	10.6970	76.939422	0.000778	7.779795	2.635866	0.062110
 270	1.3450e-01	10.7355	77.427427	0.001223	12.225392	4.142075	0.097601
 271	1.3500e-01	10.7692	77.746042	0.000798	7.981868	2.704330	0.063723
 272	1.3550e-01	10.8189	78.072723	0.000818	8.183940	2.772794	0.065336
 273	1.3600e-01	10.8510	78.488132	0.001041	10.406739	3.525899	0.083082
 274	1.3650e-01	10.8943	78.883376	0.000990	9.901558	3.354739	0.079049
 275	1.3700e-01	10.9345	79.141494	0.000647	6.466323	2.190850	0.051624
 276	1.3750e-01	10.9633	79.520605	0.000950	9.497412	3.217810	0.075822
 277	1.3800e-01	11.0147	79.887617	0.000919	9.194303	3.115114	0.073402
 278	1.3850e-01	11.0628	80.113471	0.000566	5.658033	1.916993	0.045171
 279	1.3900e-01	11.0965	80.536946	0.001061	10.608812	3.594363	0.084695
 280	1.3950e-01	11.1270	81.008819	0.001182	11.821247	4.005147	0.094375
 281	1.4000e-01	11.1783	81.162076	0.000384	3.839379	1.300817	0.030652
 282	1.4050e-01	11.2168	81.541188	0.000950	9.497412	3.217810	0.075822
 283	1.4100e-01	11.2617	82.069523	0.001324	13.235755	4.484395	0.105667
 284	1.4150e-01	11.3002	82.367973	0.000748	7.476686	2.533170	0.059690
 285	1.4200e-01	11.3307	82.674488	0.000768	7.678759	2.601634	0.061303
 286	1.4250e-01	11.3788	82.872110	0.000495	4.950779	1.677369	0.039524
 287	1.4300e-01	11.4125	83.303652	0.001081	10.810884	3.662827	0.086308
 288	1.4350e-01	11.4542	83.678730	0.000940	9.396376	3.183578	0.075016
 289	1.4400e-01	11.5023	83.888451	0.000525	5.253888	1.780065	0.041944
 290	1.4450e-01	11.5392	84.408721	0.001303	13.033683	4.415931	0.104054
 291	1.4500e-01	11.5777	84.888659	0.001202	12.023320	4.073611	0.095988
 292	1.4550e-01	11.6082	85.199208	0.000778	7.779795	2.635866	0.062110
 293	1.4600e-01	11.6580	85.336333	0.000344	3.435234	1.163889	0.027425
 294	1.4650e-01	11.6949	85.804173	0.001172	11.720211	3.970915	0.093568
 295	1.4700e-01	11.7334	86.146986	0.000859	8.588086	2.909722	0.068563
 296	1.4750e-01	11.7863	86.562395	0.001041	10.406739	3.525899	0.083082
 297	1.4800e-01	11.8152	86.727752	0.000414	4.142488	1.403513	0.033071
 298	1.4850e-01	11.8585	86.893109	0.000414	4.142488	1.403513	0.033071
 299	1.4900e-01	11.8970	87.332717	0.001101	11.012957	3.731291	0.087922
 300	1.4950e-01	11.9355	87.703762	0.000930	9.295340	3.149346	0.074209
 301	1.5000e-01	11.9804	87.986079	0.000707	7.072541	2.396242	0.056463
 302	1.5050e-01	12.0173	88.506349	0.001303	13.033683	4.415931	0.104054
 303	1.5100e-01	12.0558	88.647507	0.000354	3.536271	1.198121	0.028232
 304	1.5150e-01	12.0863	89.397664	0.001879	18.792752	6.367157	0.150031
 305	1.5200e-01	12.1296	89.599319	0.000505	5.051815	1.711601	0.040331
 306	1.5250e-01	12.1713	89.986496	0.000970	9.699485	3.286274	0.077435
 307	1.5300e-01	12.2162	90.188151	0.000505	5.051815	1.711601	0.040331
 308	1.5350e-01	12.2547	90.627759	0.001101	11.012957	3.731291	0.087922
 309	1.5400e-01	12.2964	90.910076	0.000707	7.072541	2.396242	0.056463
 310	1.5450e-01	12.3317	91.164161	0.000637	6.365287	2.156618	0.050817
 311	1.5500e-01	12.3767	91.559404	0.000990	9.901558	3.354739	0.079049
 312	1.5550e-01	12.4216	91.926416	0.000919	9.194303	3.115114	0.073402
 313	1.5600e-01	12.4601	92.228899	0.000758	7.577723	2.567402	0.060496
 314	1.5650e-01	12.4922	92.640275	0.001031	10.305703	3.491667	0.082275
 315	1.5700e-01	12.5323	92.898393	0.000647	6.466323	2.190850	0.051624
 316	1.5750e-01	12.5772	93.233140	0.000839	8.386013	2.841258	0.066949
 317	1.5800e-01	12.6173	93.644516	0.001031	10.305703	3.491667	0.082275
 318	1.5850e-01	12.6542	94.027661	0.000960	9.598449	3.252042	0.076629
 319	1.5900e-01	12.6975	94.305945	0.000697	6.971505	2.362010	0.055657
 320	1.5950e-01	12.7440	94.535831	0.000576	5.759069	1.951225	0.045977
 321	1.6000e-01	12.7745	94.999638	0.001162	11.619175	3.936683	0.092761
 322	1.6050e-01	12.8194	95.544106	0.001364	13.639901	4.621323	0.108894
 323	1.6100e-01	12.8515	95.802224	0.000647	6.466323	2.190850	0.051624
 324	1.6150e-01	12.8900	96.419288	0.001546	15.458554	5.237500	0.123413
 325	1.6200e-01	12.9285	96.588678	0.000424	4.243525	1.437745	0.033878
 326	1.6250e-01	12.9911	96.661274	0.000182	1.818653	0.616176	0.014519
 327	1.6300e-01	13.0167	96.971823	0.000778	7.779795	2.635866	0.062110
 328	1.6350e-01	13.0472	97.233974	0.000657	6.567360	2.225082	0.052430
 329	1.6400e-01	13.0857	97.770376	0.001344	13.437828	4.552859	0.107280
 330	1.6450e-01	13.1403	98.153521	0.000960	9.598449	3.252042	0.076629
 331	1.6500e-01	13.1756	98.568930	0.001041	10.406739	3.525899	0.083082
 332	1.6550e-01	13.2109	98.814949	0.000616	6.163214	2.088154	0.049204
 333	1.6600e-01	13.2542	99.065001	0.000626	6.264251	2.122386	0.050010
 334	1.6650e-01	13.2863	99.524774	0.001152	11.518138	3.902451	0.091955
 335	1.6700e-01	13.3312	99.762727	0.000596	5.961142	2.019690	0.047591
 336	1.6750e-01	13.3697	100.182169	0.001051	10.507775	3.560131	0.083888
 337	1.6800e-01	13.4130	100.440288	0.000647	6.466323	2.190850	0.051624
 338	1.6850e-01	13.4499	100.698406	0.000647	6.466323	2.190850	0.051624
 339	1.6900e-01	13.4932	100.976690	0.000697	6.971505	2.362010	0.055657
 340	1.6950e-01	13.5317	101.513092	0.001344	13.437828	4.552859	0.107280
 341	1.7000e-01	13.5766	101.972865	0.001152	11.518138	3.902451	0.091955
 342	1.7050e-01	13.6151	102.226950	0.000637	6.365287	2.156618	0.050817
 343	1.7100e-01	13.6440	102.610095	0.000960	9.598449	3.252042	0.076629
 344	1.7150e-01	13.6953	102.876279	0.000667	6.668396	2.259314	0.053237
 345	1.7200e-01	13.7403	103.206993	0.000828	8.284977	2.807026	0.066143
 346	1.7250e-01	13.7755	103.541740	0.000839	8.386013	2.841258	0.066949
 347	1.7300e-01	13.8157	103.775660	0.000586	5.860105	1.985457	0.046784
 348	1.7350e-01	13.8558	103.928918	0.000384	3.839379	1.300817	0.030652
 349	1.7400e-01	13.8975	104.545982	0.001546	15.458554	5.237500	0.123413
 350	1.7450e-01	13.9440	104.917027	0.000930	9.295340	3.149346	0.074209
 351	1.7500e-01	13.9809	105.195311	0.000697	6.971505	2.362010	0.055657
 352	1.7550e-01	14.0114	105.590555	0.000990	9.901558	3.354739	0.079049
 353	1.7600e-01	14.0531	105.864805	0.000687	6.870468	2.327778	0.054850
 354	1.7650e-01	14.0948	106.231817	0.000919	9.194303	3.115114	0.073402
 355	1.7700e-01	14.1365	106.465737	0.000586	5.860105	1.985457	0.046784
 356	1.7750e-01	14.1734	106.921477	0.001142	11.417102	3.868219	0.091148
 357	1.7800e-01	14.2135	107.344952	0.001061	10.608812	3.594363	0.084695
 358	1.7850e-01	14.2648	107.530475	0.000465	4.647670	1.574673	0.037105
 359	1.7900e-01	14.2937	107.812792	0.000707	7.072541	2.396242	0.056463
 360	1.7950e-01	14.3322	108.123340	0.000778	7.779795	2.635866	0.062110
 361	1.8000e-01	14.3819	108.337095	0.000535	5.354924	1.814297	0.042751
 362	1.8050e-01	14.4156	108.603279	0.000667	6.668396	2.259314	0.053237
 363	1.8100e-01	14.4525	108.933993	0.000828	8.284977	2.807026	0.066143
 364	1.8150e-01	14.4910	109.325204	0.000980	9.800521	3.320506	0.078242
 365	1.8200e-01	14.5343	109.970500	0.001617	16.165808	5.477124	0.129059
 366	1.8250e-01	14.5745	110.256850	0.000717	7.173577	2.430474	0.057270
 367	1.8300e-01	14.6017	110.664193	0.001020	10.204666	3.457435	0.081469
 368	1.8350e-01	14.6611	110.861814	0.000495	4.950779	1.677369	0.039524
 369	1.8400e-01	14.6964	111.204628	0.000859	8.588086	2.909722	0.068563
 370	1.8450e-01	14.7301	111.446614	0.000606	6.062178	2.053922	0.048397
 371	1.8500e-01	14.7798	111.636169	0.000475	4.748706	1.608905	0.037911
 372	1.8550e-01	14.8103	111.797493	0.000404	4.041452	1.369281	0.032265
 373	1.8600e-01	14.8440	112.446822	0.001627	16.266844	5.511356	0.129866
 374	1.8650e-01	14.8937	112.817867	0.000930	9.295340	3.149346	0.074209
 375	1.8700e-01	14.9402	113.192945	0.000940	9.396376	3.183578	0.075016
 376	1.8750e-01	14.9755	113.612388	0.001051	10.507775	3.560131	0.083888
 377	1.8800e-01	15.0172	113.951168	0.000849	8.487049	2.875490	0.067756
 378	1.8850e-01	15.0509	114.056028	0.000263	2.626944	0.890033	0.020972
 379	1.8900e-01	15.0910	114.552100	0.001243	12.427465	4.210539	0.099214
 380	1.8950e-01	15.1343	114.878781	0.000818	8.183940	2.772794	0.065336
 381	1.9000e-01	15.1760	115.201428	0.000808	8.082904	2.738562	0.064530
 382	1.9050e-01	15.2178	115.661202	0.001152	11.518138	3.902451	0.091955
 383	1.9100e-01	15.2466	115.971750	0.000778	7.779795	2.635866	0.062110
 384	1.9150e-01	15.2867	116.338762	0.000919	9.194303	3.115114	0.073402
 385	1.9200e-01	15.3300	116.548483	0.000525	5.253888	1.780065	0.041944
 386	1.9250e-01	15.3782	116.806602	0.000647	6.466323	2.190850	0.051624
 387	1.9300e-01	15.4103	117.161514	0.000889	8.891195	3.012418	0.070983
 388	1.9350e-01	15.4439	117.500295	0.000849	8.487049	2.875490	0.067756
 389	1.9400e-01	15.4905	117.883439	0.000960	9.598449	3.252042	0.076629
 390	1.9450e-01	15.5434	118.056862	0.000434	4.344561	1.471977	0.034685
 391	1.9500e-01	15.5691	118.444040	0.000970	9.699485	3.286274	0.077435
 392	1.9550e-01	15.6156	118.754588	0.000778	7.779795	2.635866	0.062110
 393	1.9600e-01	15.6589	119.125633	0.000930	9.295340	3.149346	0.074209
 394	1.9650e-01	15.6942	119.367619	0.000606	6.062178	2.053922	0.048397
 395	1.9700e-01	15.7327	119.674135	0.000768	7.678759	2.601634	0.061303
 396	1.9750e-01	15.7712	120.218603	0.001364	13.639901	4.621323	0.108894
 397	1.9800e-01	15.8177	120.347662	0.000323	3.233162	1.095425	0.025812
 398	1.9850e-01	15.8514	120.621913	0.000687	6.870468	2.327778	0.054850
 399	1.9900e-01	15.8883	121.122017	0.001253	12.528501	4.244771	0.100021
 400	1.9950e-01	15.9364	121.489029	0.000919	9.194303	3.115114	0.073402
 401	2.0000e-01	15.9733	121.759247	0.000677	6.769432	2.293546	0.054044
 402	2.0050e-01	16.0151	122.231119	0.001182	11.821247	4.005147	0.094375
 403	2.0100e-01	16.0664	122.469072	0.000596	5.961142	2.019690	0.047591
 404	2.0150e-01	16.0969	122.666694	0.000495	4.950779	1.677369	0.039524
 405	2.0200e-01	16.1306	123.158732	0.001233	12.326429	4.176307	0.098408
 406	2.0250e-01	16.1723	123.473314	0.000788	7.880831	2.670098	0.062916
 407	2.0300e-01	16.2124	123.808061	0.000839	8.386013	2.841258	0.066949
 408	2.0350e-01	16.2573	124.058113	0.000626	6.264251	2.122386	0.050010
 409	2.0400e-01	16.2958	124.267834	0.000525	5.253888	1.780065	0.041944
 410	2.0450e-01	16.3343	124.675177	0.001020	10.204666	3.457435	0.081469
 411	2.0500e-01	16.3760	125.130917	0.001142	11.417102	3.868219	0.091148
 412	2.0550e-01	16.4145	125.409201	0.000697	6.971505	2.362010	0.055657
 413	2.0600e-01	16.4514	125.554393	0.000364	3.637307	1.232353	0.029038
 414	2.0650e-01	16.4963	126.018199	0.001162	11.619175	3.936683	0.092761
 415	2.0700e-01	16.5380	126.163390	0.000364	3.637307	1.232353	0.029038
 416	2.0750e-01	16.5701	126.663495	0.001253	12.528501	4.244771	0.100021
 417	2.0800e-01	16.6118	127.256360	0.001485	14.852336	5.032108	0.118573
 418	2.0850e-01	16.6600	127.562876	0.000768	7.678759	2.601634	0.061303
 419	2.0900e-01	16.6904	127.845193	0.000707	7.072541	2.396242	0.056463
 420	2.0950e-01	16.7257	128.014583	0.000424	4.243525	1.437745	0.033878
 421	2.1000e-01	16.7851	128.284800	0.000677	6.769432	2.293546	0.054044
 422	2.1050e-01	16.8188	128.663912	0.000950	9.497412	3.217810	0.075822
 423	2.1100e-01	16.8557	128.966394	0.000758	7.577723	2.567402	0.060496
 424	2.1150e-01	16.8797	129.410035	0.001111	11.113993	3.765523	0.088728
 425	2.1200e-01	16.9343	129.720583	0.000778	7.779795	2.635866	0.062110
 426	2.1250e-01	16.9728	130.031132	0.000778	7.779795	2.635866	0.062110
 427	2.1300e-01	17.0177	130.269085	0.000596	5.961142	2.019690	0.047591
 428	2.1350e-01	17.0530	130.551402	0.000707	7.072541	2.396242	0.056463
 429	2.1400e-01	17.0995	130.833719	0.000707	7.072541	2.396242	0.056463
 430	2.1450e-01	17.1380	131.265260	0.001081	10.810884	3.662827	0.086308
 431	2.1500e-01	17.1717	131.624206	0.000899	8.992231	3.046650	0.071789
 432	2.1550e-01	17.2134	131.874258	0.000626	6.264251	2.122386	0.050010
 433	2.1600e-01	17.2599	132.253369	0.000950	9.497412	3.217810	0.075822
 434	2.1650e-01	17.2952	132.438892	0.000465	4.647670	1.574673	0.037105
 435	2.1700e-01	17.3337	132.797838	0.000899	8.992231	3.046650	0.071789
 436	2.1750e-01	17.3851	133.213247	0.001041	10.406739	3.525899	0.083082
 437	2.1800e-01	17.4204	133.628656	0.001041	10.406739	3.525899	0.083082
 438	2.1850e-01	17.4524	133.915006	0.000717	7.173577	2.430474	0.057270
 439	2.1900e-01	17.4942	134.144893	0.000576	5.759069	1.951225	0.045977
 440	2.1950e-01	17.5278	134.495772	0.000879	8.790158	2.978186	0.070176
 441	2.2000e-01	17.5744	134.891016	0.000990	9.901558	3.354739	0.079049
 442	2.2050e-01	17.6225	135.137035	0.000616	6.163214	2.088154	0.049204
 443	2.2100e-01	17.6610	135.330624	0.000485	4.849742	1.643137	0.038718
 444	2.2150e-01	17.7043	135.697636	0.000919	9.194303	3.115114	0.073402
 445	2.2200e-01	17.7348	136.113045	0.001041	10.406739	3.525899	0.083082
 446	2.2250e-01	17.7733	136.588950	0.001192	11.922284	4.039379	0.095181
 447	2.2300e-01	17.8246	136.851102	0.000657	6.567360	2.225082	0.052430
 448	2.2350e-01	17.8599	137.189882	0.000849	8.487049	2.875490	0.067756
 449	2.2400e-01	17.8952	137.649655	0.001152	11.518138	3.902451	0.091955
 450	2.2450e-01	17.9353	137.948105	0.000748	7.476686	2.533170	0.059690
 451	2.2500e-01	17.9834	138.085230	0.000344	3.435234	1.163889	0.027425
 452	2.2550e-01	18.0203	138.278819	0.000485	4.849742	1.643137	0.038718
 453	2.2600e-01	18.0556	138.428043	0.000374	3.738343	1.266585	0.029845
 454	2.2650e-01	18.0845	138.996710	0.001425	14.246118	4.826716	0.113733
 455	2.2700e-01	18.1198	139.367755	0.000930	9.295340	3.149346	0.074209
 456	2.2750e-01	18.1679	139.892058	0.001313	13.134719	4.450163	0.104861
 457	2.2800e-01	18.2080	140.238905	0.000869	8.689122	2.943954	0.069369
 458	2.2850e-01	18.2530	140.190507	-0.000121	-1.212436	-0.410784	-0.009679
 459	2.2900e-01	18.2979	140.492990	0.000758	7.577723	2.567402	0.060496
 460	2.2950e-01	18.3396	141.009226	0.001293	12.932647	4.381699	0.103247
 461	2.3000e-01	18.3749	141.360106	0.000879	8.790158	2.978186	0.070176
 462	2.3050e-01	18.4118	141.771482	0.001031	10.305703	3.491667	0.082275
 463	2.3100e-01	18.4583	142.061865	0.000727	7.274614	2.464706	0.058077
 464	2.3150e-01	18.4968	142.219156	0.000394	3.940416	1.335049	0.031458
 465	2.3200e-01	18.5337	142.674896	0.001142	11.417102	3.868219	0.091148
 466	2.3250e-01	18.5850	142.864452	0.000475	4.748706	1.608905	0.037911
 467	2.3300e-01	18.6187	143.090305	0.000566	5.658033	1.916993	0.045171
 468	2.3350e-01	18.6620	143.570244	0.001202	12.023320	4.073611	0.095988
 469	2.3400e-01	18.6941	143.812230	0.000606	6.062178	2.053922	0.048397
 470	2.3450e-01	18.7439	144.296202	0.001212	12.124356	4.107843	0.096794
 471	2.3500e-01	18.7711	144.513989	0.000546	5.455960	1.848529	0.043557
 472	2.3550e-01	18.8112	144.909233	0.000990	9.901558	3.354739	0.079049
 473	2.3600e-01	18.8529	145.135086	0.000566	5.658033	1.916993	0.045171
 474	2.3650e-01	18.8963	145.469833	0.000839	8.386013	2.841258	0.066949
 475	2.3700e-01	18.9267	145.840879	0.000930	9.295340	3.149346	0.074209
 476	2.3750e-01	18.9829	146.062699	0.000556	5.556997	1.882761	0.044364
 477	2.3800e-01	19.0198	146.292586	0.000576	5.759069	1.951225	0.045977
 478	2.3850e-01	19.0583	146.764458	0.001182	11.821247	4.005147	0.094375
 479	2.3900e-01	19.0920	147.325059	0.001404	14.044046	4.758252	0.112120
 480	2.3950e-01	19.1369	147.458151	0.000333	3.334198	1.129657	0.026618
 481	2.4000e-01	19.1754	147.708203	0.000626	6.264251	2.122386	0.050010
 482	2.4050e-01	19.2251	148.083281	0.000940	9.396376	3.183578	0.075016
 483	2.4100e-01	19.2588	148.329300	0.000616	6.163214	2.088154	0.049204
 484	2.4150e-01	19.3021	148.571286	0.000606	6.062178	2.053922	0.048397
 485	2.4200e-01	19.3310	149.083490	0.001283	12.831610	4.347467	0.102441
 486	2.4250e-01	19.3759	149.640057	0.001394	13.943010	4.724020	0.111314
 487	2.4300e-01	19.4128	149.623925	-0.000040	-0.404145	-0.136928	-0.003226
 488	2.4350e-01	19.4513	149.922374	0.000748	7.476686	2.533170	0.059690
 489	2.4400e-01	19.4898	150.281320	0.000899	8.992231	3.046650	0.071789
 490	2.4450e-01	19.5508	150.720928	0.001101	11.012957	3.731291	0.087922
 491	2.4500e-01	19.5748	151.087940	0.000919	9.194303	3.115114	0.073402
 492	2.4550e-01	19.6150	151.180701	0.000232	2.323835	0.787337	0.018552
 493	2.4600e-01	19.6599	151.350091	0.000424	4.243525	1.437745	0.033878
 494	2.4650e-01	19.6984	151.713070	0.000909	9.093267	3.080882	0.072596
 495	2.4700e-01	19.7417	152.092181	0.000950	9.497412	3.217810	0.075822
 496	2.4750e-01	19.7690	152.495491	0.001010	10.103630	3.423203	0.080662
 497	2.4800e-01	19.8107	152.910900	0.001041	10.406739	3.525899	0.083082
 498	2.4850e-01	19.8540	153.136754	0.000566	5.658033	1.916993	0.045171
 499	2.4900e-01	19.8925	153.519898	0.000960	9.598449	3.252042	0.076629
 500	2.4950e-01	19.9294	153.886910	0.000919	9.194303	3.115114	0.073402
 501	2.5000e-01	19.9759	154.120830	0.000586	5.860105	1.985457	0.046784
 502	2.5050e-01	19.9823	154.169227	0.000121	1.212436	0.410784	0.009679
 503	2.5100e-01	19.9502	154.060334	0.000273	2.727980	0.924265	-0.021779
 504	2.5150e-01	19.9133	154.011936	0.000121	1.212436	0.410784	-0.009679
 505	2.5200e-01	19.8716	153.967572	0.000111	1.111399	0.376552	-0.008873
 506	2.5250e-01	19.8395	153.737686	0.000576	5.759069	1.951225	-0.045977
 507	2.5300e-01	19.7962	153.431170	0.000768	7.678759	2.601634	-0.061303
 508	2.5350e-01	19.7545	153.128688	0.000758	7.577723	2.567402	-0.060496
 509	2.5400e-01	19.7160	152.802007	0.000818	8.183940	2.772794	-0.065336
 510	2.5450e-01	19.6679	152.668914	0.000333	3.334198	1.129657	-0.026618
 511	2.5500e-01	19.6374	152.644716	0.000061	0.606218	0.205392	-0.004840
 512	2.5550e-01	19.5989	152.342234	0.000758	7.577723	2.567402	-0.060496
 513	2.5600e-01	19.5540	151.894560	0.001122	11.215029	3.799755	-0.089535
 514	2.5650e-01	19.5155	151.809864	0.000212	2.121762	0.718873	-0.016939
 515	2.5700e-01	19.4754	151.789699	0.000051	0.505182	0.171160	-0.004033
 516	2.5750e-01	19.4417	151.463018	0.000818	8.183940	2.772794	-0.065336
 517	2.5800e-01	19.3984	150.825788	0.001596	15.963736	5.408660	-0.127446
 518	2.5850e-01	19.3615	150.777391	0.000121	1.212436	0.410784	-0.009679
 519	2.5900e-01	19.3310	150.499107	0.000697	6.971505	2.362010	-0.055657
 520	2.5950e-01	19.2797	150.434578	0.000162	1.616581	0.547712	-0.012906
 521	2.6000e-01	19.2331	150.107897	0.000818	8.183940	2.772794	-0.065336
 522	2.6050e-01	19.2011	149.825580	0.000707	7.072541	2.396242	-0.056463
 523	2.6100e-01	19.1642	149.648124	0.000445	4.445597	1.506209	-0.035491
 524	2.6150e-01	19.1144	149.502932	0.000364	3.637307	1.232353	-0.029038
 525	2.6200e-01	19.0807	149.422270	0.000202	2.020726	0.684641	-0.016132
 526	2.6250e-01	19.0406	149.248847	0.000434	4.344561	1.471977	-0.034685
 527	2.6300e-01	18.9941	148.724544	0.001313	13.134719	4.450163	-0.104861
 528	2.6350e-01	18.9540	148.539022	0.000465	4.647670	1.574673	-0.037105
 529	2.6400e-01	18.9219	148.212341	0.000818	8.183940	2.772794	-0.065336
 530	2.6450e-01	18.8770	148.188142	0.000061	0.606218	0.205392	-0.004840
 531	2.6500e-01	18.8401	147.736435	0.001132	11.316066	3.833987	-0.090341
 532	2.6550e-01	18.7984	147.510581	0.000566	5.658033	1.916993	-0.045171
 533	2.6600e-01	18.7695	147.300860	0.000525	5.253888	1.780065	-0.041944
 534	2.6650e-01	18.7214	147.058874	0.000606	6.062178	2.053922	-0.048397
 535	2.6700e-01	18.6765	146.816888	0.000606	6.062178	2.053922	-0.048397
 536	2.6750e-01	18.6396	146.611200	0.000515	5.152851	1.745833	-0.041138
 537	2.6800e-01	18.6059	146.498274	0.000283	2.829016	0.958497	-0.022585
 538	2.6850e-01	18.5578	146.086898	0.001031	10.305703	3.491667	-0.082275
 539	2.6900e-01	18.5257	145.740051	0.000869	8.689122	2.943954	-0.069369
 540	2.6950e-01	18.4840	145.417403	0.000808	8.082904	2.738562	-0.064530
 541	2.7000e-01	18.4407	145.352874	0.000162	1.616581	0.547712	-0.012906
 542	2.7050e-01	18.4070	145.046358	0.000768	7.678759	2.601634	-0.061303
 543	2.7100e-01	18.3620	144.743876	0.000758	7.577723	2.567402	-0.060496
 544	2.7150e-01	18.3203	144.457526	0.000717	7.173577	2.430474	-0.057270
 545	2.7200e-01	18.2738	144.263937	0.000485	4.849742	1.643137	-0.038718
 546	2.7250e-01	18.2337	143.909024	0.000889	8.891195	3.012418	-0.070983
 547	2.7300e-01	18.1984	143.546045	0.000909	9.093267	3.080882	-0.072596
 548	2.7350e-01	18.1583	143.259695	0.000717	7.173577	2.430474	-0.057270
 549	2.7400e-01	18.1118	143.094338	0.000414	4.142488	1.403513	-0.033071
 550	2.7450e-01	18.0893	142.969312	0.000313	3.132125	1.061193	-0.025005
 551	2.7500e-01	18.0444	142.678929	0.000727	7.274614	2.464706	-0.058077
 552	2.7550e-01	18.0059	142.424844	0.000637	6.365287	2.156618	-0.050817
 553	2.7600e-01	17.9658	142.021534	0.001010	10.103630	3.423203	-0.080662
 554	2.7650e-01	17.9145	141.892475	0.000323	3.233162	1.095425	-0.025812
 555	2.7700e-01	17.8856	141.868276	0.000061	0.606218	0.205392	-0.004840
 556	2.7750e-01	17.8359	141.424636	0.001111	11.113993	3.765523	-0.088728
 557	2.7800e-01	17.7925	141.186683	0.000596	5.961142	2.019690	-0.047591
 558	2.7850e-01	17.7540	140.811605	0.000940	9.396376	3.183578	-0.075016
 559	2.7900e-01	17.7171	140.464758	0.000869	8.689122	2.943954	-0.069369
 560	2.7950e-01	17.6786	140.246971	0.000546	5.455960	1.848529	-0.043557
 561	2.8000e-01	17.6401	140.004985	0.000606	6.062178	2.053922	-0.048397
 562	2.8050e-01	17.5952	139.928356	0.000192	1.919690	0.650408	-0.015326
 563	2.8100e-01	17.5631	139.686370	0.000606	6.062178	2.053922	-0.048397
 564	2.8150e-01	17.5182	139.424219	0.000657	6.567360	2.225082	-0.052430
 565	2.8200e-01	17.4861	139.065273	0.000899	8.992231	3.046650	-0.071789
 566	2.8250e-01	17.4364	138.916048	0.000374	3.738343	1.266585	-0.029845
 567	2.8300e-01	17.3995	138.569202	0.000869	8.689122	2.943954	-0.069369
 568	2.8350e-01	17.3642	138.173958	0.000990	9.901558	3.354739	-0.079049
 569	2.8400e-01	17.3161	137.992469	0.000455	4.546634	1.540441	-0.036298
 570	2.8450e-01	17.2792	137.734350	0.000647	6.466323	2.190850	-0.051624
 571	2.8500e-01	17.2375	137.564960	0.000424	4.243525	1.437745	-0.033878
 572	2.8550e-01	17.2006	137.193915	0.000930	9.295340	3.149346	-0.074209
 573	2.8600e-01	17.1509	136.843036	0.000879	8.790158	2.978186	-0.070176
 574	2.8650e-01	17.1107	136.540553	0.000758	7.577723	2.567402	-0.060496
 575	2.8700e-01	17.0706	136.234038	0.000768	7.678759	2.601634	-0.061303
 576	2.8750e-01	17.0353	136.072714	0.000404	4.041452	1.369281	-0.032265
 577	2.8800e-01	16.9985	136.004151	0.000172	1.717617	0.581944	-0.013713
 578	2.8850e-01	16.9583	135.459683	0.001364	13.639901	4.621323	-0.108894
 579	2.8900e-01	16.9166	135.225763	0.000586	5.860105	1.985457	-0.046784
 580	2.8950e-01	16.8733	135.068472	0.000394	3.940416	1.335049	-0.031458
 581	2.9000e-01	16.8396	134.786155	0.000707	7.072541	2.396242	-0.056463
 582	2.9050e-01	16.7979	134.386879	0.001000	10.002594	3.388971	-0.079855
 583	2.9100e-01	16.7626	134.156992	0.000576	5.759069	1.951225	-0.045977
 584	2.9150e-01	16.7177	133.806112	0.000879	8.790158	2.978186	-0.070176
 585	2.9200e-01	16.6824	133.624623	0.000455	4.546634	1.540441	-0.036298
 586	2.9250e-01	16.6359	133.422968	0.000505	5.051815	1.711601	-0.040331
 587	2.9300e-01	16.6038	133.160817	0.000657	6.567360	2.225082	-0.052430
 588	2.9350e-01	16.5541	132.922864	0.000596	5.961142	2.019690	-0.047591
 589	2.9400e-01	16.5236	132.539719	0.000960	9.598449	3.252042	-0.076629
 590	2.9450e-01	16.4851	132.156575	0.000960	9.598449	3.252042	-0.076629
 591	2.9500e-01	16.4402	131.914589	0.000606	6.062178	2.053922	-0.048397
 592	2.9550e-01	16.3969	131.600007	0.000788	7.880831	2.670098	-0.062916
 593	2.9600e-01	16.3648	131.434650	0.000414	4.142488	1.403513	-0.033071
 594	2.9650e-01	16.3167	131.091837	0.000859	8.588086	2.909722	-0.068563
 595	2.9700e-01	16.2765	130.978910	0.000283	2.829016	0.958497	-0.022585
 596	2.9750e-01	16.2380	130.567534	0.001031	10.305703	3.491667	-0.082275
 597	2.9800e-01	16.1995	130.289250	0.000697	6.971505	2.362010	-0.055657
 598	2.9850e-01	16.1610	129.813345	0.001192	11.922284	4.039379	-0.095181
 599	2.9900e-01	16.1241	129.668153	0.000364	3.637307	1.232353	-0.029038
 600	2.9950e-01	16.0776	129.381803	0.000717	7.173577	2.430474	-0.057270
 601	3.0000e-01	16.0327	129.172082	0.000525	5.253888	1.780065	-0.041944
 602	3.0050e-01	15.9894	129.026890	0.000364	3.637307	1.232353	-0.029038
 603	3.0100e-01	15.9637	128.756673	0.000677	6.769432	2.293546	-0.054044
 604	3.0150e-01	15.9316	128.454190	0.000758	7.577723	2.567402	-0.060496
 605	3.0200e-01	15.8835	128.171874	0.000707	7.072541	2.396242	-0.056463
 606	3.0250e-01	15.8482	127.937954	0.000586	5.860105	1.985457	-0.046784
 607	3.0300e-01	15.7937	127.526578	0.001031	10.305703	3.491667	-0.082275
 608	3.0350e-01	15.7616	127.163599	0.000909	9.093267	3.080882	-0.072596
 609	3.0400e-01	15.7086	127.091003	0.000182	1.818653	0.616176	-0.014519
 610	3.0450e-01	15.6814	126.679627	0.001031	10.305703	3.491667	-0.082275
 611	3.0500e-01	15.6349	126.469906	0.000525	5.253888	1.780065	-0.041944
 612	3.0550e-01	15.5947	126.110960	0.000899	8.992231	3.046650	-0.071789
 613	3.0600e-01	15.5562	125.832676	0.000697	6.971505	2.362010	-0.055657
 614	3.0650e-01	15.5097	125.622955	0.000525	5.253888	1.780065	-0.041944
 615	3.0700e-01	15.4760	125.171248	0.001132	11.316066	3.833987	-0.090341
 616	3.0750e-01	15.4391	124.884898	0.000717	7.173577	2.430474	-0.057270
 617	3.0800e-01	15.3974	124.546118	0.000849	8.487049	2.875490	-0.067756
 618	3.0850e-01	15.3621	124.404959	0.000354	3.536271	1.198121	-0.028232
 619	3.0900e-01	15.3140	124.324298	0.000202	2.020726	0.684641	-0.016132
 620	3.0950e-01	15.2851	124.058113	0.000667	6.668396	2.259314	-0.053237
 621	3.1000e-01	15.2418	123.594307	0.001162	11.619175	3.936683	-0.092761
 622	3.1050e-01	15.2033	123.235361	0.000899	8.992231	3.046650	-0.071789
 623	3.1100e-01	15.1712	123.094202	0.000354	3.536271	1.198121	-0.028232
 624	3.1150e-01	15.1231	122.735257	0.000899	8.992231	3.046650	-0.071789
 625	3.1200e-01	15.0846	122.408576	0.000818	8.183940	2.772794	-0.065336
 626	3.1250e-01	15.0365	122.194821	0.000535	5.354924	1.814297	-0.042751
 627	3.1300e-01	14.9996	121.936703	0.000647	6.466323	2.190850	-0.051624
 628	3.1350e-01	14.9563	121.638254	0.000748	7.476686	2.533170	-0.059690
 629	3.1400e-01	14.9129	121.420467	0.000546	5.455960	1.848529	-0.043557
 630	3.1450e-01	14.8793	120.996991	0.001061	10.608812	3.594363	-0.084695
 631	3.1500e-01	14.8311	120.944561	0.000131	1.313472	0.445016	-0.010486
 632	3.1550e-01	14.8007	120.440424	0.001263	12.629538	4.279003	-0.100827
 633	3.1600e-01	14.7557	120.174239	0.000667	6.668396	2.259314	-0.053237
 634	3.1650e-01	14.7124	120.045180	0.000323	3.233162	1.095425	-0.025812
 635	3.1700e-01	14.6835	119.859657	0.000465	4.647670	1.574673	-0.037105
 636	3.1750e-01	14.6418	119.428116	0.001081	10.810884	3.662827	-0.086308
 637	3.1800e-01	14.6001	118.980442	0.001122	11.215029	3.799755	-0.089535
 638	3.1850e-01	14.5632	118.516636	0.001162	11.619175	3.936683	-0.092761
 639	3.1900e-01	14.5183	118.460172	0.000141	1.414508	0.479248	-0.011293
 640	3.1950e-01	14.4830	118.193988	0.000667	6.668396	2.259314	-0.053237
 641	3.2000e-01	14.4413	118.032664	0.000404	4.041452	1.369281	-0.032265
 642	3.2050e-01	14.4060	117.605155	0.001071	10.709848	3.628595	-0.085502
 643	3.2100e-01	14.3611	117.334938	0.000677	6.769432	2.293546	-0.054044
 644	3.2150e-01	14.3194	117.028422	0.000768	7.678759	2.601634	-0.061303
 645	3.2200e-01	14.2857	116.649311	0.000950	9.497412	3.217810	-0.075822
 646	3.2250e-01	14.2392	116.560583	0.000222	2.222799	0.753105	-0.017746
 647	3.2300e-01	14.2039	116.270200	0.000727	7.274614	2.464706	-0.058077
 648	3.2350e-01	14.1590	115.798327	0.001182	11.821247	4.005147	-0.094375
 649	3.2400e-01	14.1172	115.624904	0.000434	4.344561	1.471977	-0.034685
 650	3.2450e-01	14.0755	115.080436	0.001364	13.639901	4.621323	-0.108894
 651	3.2500e-01	14.0402	115.032038	0.000121	1.212436	0.410784	-0.009679
 652	3.2550e-01	14.0066	114.507736	0.001313	13.134719	4.450163	-0.104861
 653	3.2600e-01	13.9681	114.277849	0.000576	5.759069	1.951225	-0.045977
 654	3.2650e-01	13.9151	114.249617	0.000071	0.707254	0.239624	-0.005646
 655	3.2700e-01	13.8782	113.890671	0.000899	8.992231	3.046650	-0.071789
 656	3.2750e-01	13.8381	113.559957	0.000828	8.284977	2.807026	-0.066143
 657	3.2800e-01	13.8108	113.096151	0.001162	11.619175	3.936683	-0.092761
 658	3.2850e-01	13.7595	112.692841	0.001010	10.103630	3.423203	-0.080662
 659	3.2900e-01	13.7130	112.612179	0.000202	2.020726	0.684641	-0.016132
 660	3.2950e-01	13.6809	112.325829	0.000717	7.173577	2.430474	-0.057270
 661	3.3000e-01	13.6376	111.902354	0.001061	10.608812	3.594363	-0.084695
 662	3.3050e-01	13.5975	111.894288	0.000020	0.202073	0.068464	-0.001613
 663	3.3100e-01	13.5606	111.539375	0.000889	8.891195	3.012418	-0.070983
 664	3.3150e-01	13.5173	111.115900	0.001061	10.608812	3.594363	-0.084695
 665	3.3200e-01	13.4756	110.934410	0.000455	4.546634	1.540441	-0.036298
 666	3.3250e-01	13.4322	110.514968	0.001051	10.507775	3.560131	-0.083888
 667	3.3300e-01	13.3921	110.248783	0.000667	6.668396	2.259314	-0.053237
 668	3.3350e-01	13.3584	109.970500	0.000697	6.971505	2.362010	-0.055657
 669	3.3400e-01	13.3248	109.728514	0.000606	6.062178	2.053922	-0.048397
 670	3.3450e-01	13.2927	109.357469	0.000930	9.295340	3.149346	-0.074209
 671	3.3500e-01	13.2381	108.942059	0.001041	10.406739	3.525899	-0.083082
 672	3.3550e-01	13.2028	108.708140	0.000586	5.860105	1.985457	-0.046784
 673	3.3600e-01	13.1595	108.421790	0.000717	7.173577	2.430474	-0.057270
 674	3.3650e-01	13.1178	108.163671	0.000647	6.466323	2.190850	-0.051624
 675	3.3700e-01	13.0841	107.881355	0.000707	7.072541	2.396242	-0.056463
 676	3.3750e-01	13.0440	107.518376	0.000909	9.093267	3.080882	-0.072596
 677	3.3800e-01	12.9927	107.248158	0.000677	6.769432	2.293546	-0.054044
 678	3.3850e-01	12.9670	107.102966	0.000364	3.637307	1.232353	-0.029038
 679	3.3900e-01	12.9173	106.502035	0.001505	15.054409	5.100572	-0.120186
 680	3.3950e-01	12.8804	106.352810	0.000374	3.738343	1.266585	-0.029845
 681	3.4000e-01	12.8435	105.921269	0.001081	10.810884	3.662827	-0.086308
 682	3.4050e-01	12.8018	105.711547	0.000525	5.253888	1.780065	-0.041944
 683	3.4100e-01	12.7601	105.562323	0.000374	3.738343	1.266585	-0.029845
 684	3.4150e-01	12.7184	105.292105	0.000677	6.769432	2.293546	-0.054044
 685	3.4200e-01	12.6766	105.046086	0.000616	6.163214	2.088154	-0.049204
 686	3.4250e-01	12.6398	104.533883	0.001283	12.831610	4.347467	-0.102441
 687	3.4300e-01	12.6012	104.183003	0.000879	8.790158	2.978186	-0.070176
 688	3.4350e-01	12.5611	104.013613	0.000424	4.243525	1.437745	-0.033878
 689	3.4400e-01	12.5210	103.650634	0.000909	9.093267	3.080882	-0.072596
 690	3.4450e-01	12.4857	103.453012	0.000495	4.950779	1.677369	-0.039524
 691	3.4500e-01	12.4456	102.916610	0.001344	13.437828	4.552859	-0.107280
 692	3.4550e-01	12.3975	102.751253	0.000414	4.142488	1.403513	-0.033071
 693	3.4600e-01	12.3686	102.404407	0.000869	8.689122	2.943954	-0.069369
 694	3.4650e-01	12.3189	102.170487	0.000586	5.860105	1.985457	-0.046784
 695	3.4700e-01	12.2820	101.807508	0.000909	9.093267	3.080882	-0.072596
 696	3.4750e-01	12.2435	101.468728	0.000849	8.487049	2.875490	-0.067756
 697	3.4800e-01	12.2034	101.250940	0.000546	5.455960	1.848529	-0.043557
 698	3.4850e-01	12.1633	100.807300	0.001111	11.113993	3.765523	-0.088728
 699	3.4900e-01	12.1168	100.633876	0.000434	4.344561	1.471977	-0.034685
 700	3.4950e-01	12.0831	100.234600	0.001000	10.002594	3.388971	-0.079855
 701	3.5000e-01	12.0301	100.113607	0.000303	3.031089	1.026961	-0.024199
 702	3.5050e-01	11.9997	99.710297	0.001010	10.103630	3.423203	-0.080662
 703	3.5100e-01	11.9596	99.367483	0.000859	8.588086	2.909722	-0.068563
 704	3.5150e-01	11.9307	99.113398	0.000637	6.365287	2.156618	-0.050817
 705	3.5200e-01	11.8874	98.750419	0.000909	9.093267	3.080882	-0.072596
 706	3.5250e-01	11.8392	98.226116	0.001313	13.134719	4.450163	-0.104861
 707	3.5300e-01	11.8055	98.004296	0.000556	5.556997	1.882761	-0.044364
 708	3.5350e-01	11.7606	97.851038	0.000384	3.839379	1.300817	-0.030652
 709	3.5400e-01	11.7285	97.564688	0.000717	7.173577	2.430474	-0.057270
 710	3.5450e-01	11.6836	97.306570	0.000647	6.466323	2.190850	-0.051624
 711	3.5500e-01	11.6515	96.979889	0.000818	8.183940	2.772794	-0.065336
 712	3.5550e-01	11.5986	96.717738	0.000657	6.567360	2.225082	-0.052430
 713	3.5600e-01	11.5697	96.161170	0.001394	13.943010	4.724020	-0.111314
 714	3.5650e-01	11.5264	95.907085	0.000637	6.365287	2.156618	-0.050817
 715	3.5700e-01	11.4783	95.794158	0.000283	2.829016	0.958497	-0.022585
 716	3.5750e-01	11.4398	95.358583	0.001091	10.911921	3.697059	-0.087115
 717	3.5800e-01	11.4109	95.128697	0.000576	5.759069	1.951225	-0.045977
 718	3.5850e-01	11.3548	94.701188	0.001071	10.709848	3.628595	-0.085502
 719	3.5900e-01	11.3243	94.334176	0.000919	9.194303	3.115114	-0.073402
 720	3.5950e-01	11.2778	94.197051	0.000344	3.435234	1.163889	-0.027425
 721	3.6000e-01	11.2409	93.696947	0.001253	12.528501	4.244771	-0.100021
 722	3.6050e-01	11.2056	93.471093	0.000566	5.658033	1.916993	-0.045171
 723	3.6100e-01	11.1671	93.241207	0.000576	5.759069	1.951225	-0.045977
 724	3.6150e-01	11.1205	92.950823	0.000727	7.274614	2.464706	-0.058077
 725	3.6200e-01	11.0740	92.515249	0.001091	10.911921	3.697059	-0.087115
 726	3.6250e-01	11.0451	92.103873	0.001031	10.305703	3.491667	-0.082275
 727	3.6300e-01	10.9954	92.003045	0.000253	2.525908	0.855801	-0.020165
 728	3.6350e-01	10.9601	91.636033	0.000919	9.194303	3.115114	-0.073402
 729	3.6400e-01	10.9296	91.390014	0.000616	6.163214	2.088154	-0.049204
 730	3.6450e-01	10.8863	90.946373	0.001111	11.113993	3.765523	-0.088728
 731	3.6500e-01	10.8462	90.708421	0.000596	5.961142	2.019690	-0.047591
 732	3.6550e-01	10.8045	90.357541	0.000879	8.790158	2.978186	-0.070176
 733	3.6600e-01	10.7676	89.905834	0.001132	11.316066	3.833987	-0.090341
 734	3.6650e-01	10.7211	89.768709	0.000344	3.435234	1.163889	-0.027425
 735	3.6700e-01	10.6778	89.442028	0.000818	8.183940	2.772794	-0.065336
 736	3.6750e-01	10.6361	88.998387	0.001111	11.113993	3.765523	-0.088728
 737	3.6800e-01	10.5992	88.788666	0.000525	5.253888	1.780065	-0.041944
 738	3.6850e-01	10.5655	88.219999	0.001425	14.246118	4.826716	-0.113733
 739	3.6900e-01	10.5238	88.086907	0.000333	3.334198	1.129657	-0.026618
 740	3.6950e-01	10.4724	87.861053	0.000566	5.658033	1.916993	-0.045171
 741	3.7000e-01	10.4452	87.481942	0.000950	9.497412	3.217810	-0.075822
 742	3.7050e-01	10.3970	87.356916	0.000313	3.132125	1.061193	-0.025005
 743	3.7100e-01	10.3682	86.889076	0.001172	11.720211	3.970915	-0.093568
 744	3.7150e-01	10.3264	86.602726	0.000717	7.173577	2.430474	-0.057270
 745	3.7200e-01	10.2863	86.211516	0.000980	9.800521	3.320506	-0.078242
 746	3.7250e-01	10.2446	85.925166	0.000717	7.173577	2.430474	-0.057270
 747	3.7300e-01	10.2093	85.683180	0.000606	6.062178	2.053922	-0.048397
 748	3.7350e-01	10.1708	85.255671	0.001071	10.709848	3.628595	-0.085502
 749	3.7400e-01	10.1259	85.005619	0.000626	6.264251	2.122386	-0.050010
 750	3.7450e-01	10.0874	84.461151	0.001364	13.639901	4.621323	-0.108894
 751	3.7500e-01	10.0361	84.239331	0.000556	5.556997	1.882761	-0.044364
 752	3.7550e-01	9.9992	84.061874	0.000445	4.445597	1.506209	-0.035491
 753	3.7600e-01	9.9591	83.642432	0.001051	10.507775	3.560131	-0.083888
 754	3.7650e-01	9.9254	83.356082	0.000717	7.173577	2.430474	-0.057270
 755	3.7700e-01	9.8789	83.110063	0.000616	6.163214	2.088154	-0.049204
 756	3.7750e-01	9.8388	82.787415	0.000808	8.082904	2.738562	-0.064530
 757	3.7800e-01	9.8003	82.456701	0.000828	8.284977	2.807026	-0.066143
 758	3.7850e-01	9.7553	82.214715	0.000606	6.062178	2.053922	-0.048397
 759	3.7900e-01	9.7200	81.835604	0.000950	9.497412	3.217810	-0.075822
 760	3.7950e-01	9.6831	81.617816	0.000546	5.455960	1.848529	-0.043557
 761	3.8000e-01	9.6479	81.387930	0.000576	5.759069	1.951225	-0.045977
 762	3.8050e-01	9.6142	80.778932	0.001526	15.256481	5.169036	-0.121800
 763	3.8100e-01	9.5644	80.621641	0.000394	3.940416	1.335049	-0.031458
 764	3.8150e-01	9.5259	80.186066	0.001091	10.911921	3.697059	-0.087115
 765	3.8200e-01	9.4938	79.790823	0.000990	9.901558	3.354739	-0.079049
 766	3.8250e-01	9.4473	79.270553	0.001303	13.033683	4.415931	-0.104054
 767	3.8300e-01	9.4088	79.105196	0.000414	4.142488	1.403513	-0.033071
 768	3.8350e-01	9.3607	78.931773	0.000434	4.344561	1.471977	-0.034685
 769	3.8400e-01	9.3286	78.508297	0.001061	10.608812	3.594363	-0.084695
 770	3.8450e-01	9.2901	78.129186	0.000950	9.497412	3.217810	-0.075822
 771	3.8500e-01	9.2372	77.818638	0.000778	7.779795	2.635866	-0.062110
 772	3.8550e-01	9.2003	77.383063	0.001091	10.911921	3.697059	-0.087115
 773	3.8600e-01	9.1554	77.334666	0.000121	1.212436	0.410784	-0.009679
 774	3.8650e-01	9.1249	77.016051	0.000798	7.981868	2.704330	-0.063723
 775	3.8700e-01	9.0800	76.794230	0.000556	5.556997	1.882761	-0.044364
 776	3.8750e-01	9.0479	76.382854	0.001031	10.305703	3.491667	-0.082275
 777	3.8800e-01	9.0062	75.830320	0.001384	13.841973	4.689787	-0.110507
 778	3.8850e-01	8.9645	75.572202	0.000647	6.466323	2.190850	-0.051624
 779	3.8900e-01	8.9243	75.289885	0.000707	7.072541	2.396242	-0.056463
 780	3.8950e-01	8.8923	75.031766	0.000647	6.466323	2.190850	-0.051624
 781	3.9000e-01	8.8393	74.741383	0.000727	7.274614	2.464706	-0.058077
 782	3.9050e-01	8.8072	74.386471	0.000889	8.891195	3.012418	-0.070983
 783	3.9100e-01	8.7655	74.035591	0.000879	8.790158	2.978186	-0.070176
 784	3.9150e-01	8.7254	73.716976	0.000798	7.981868	2.704330	-0.063723
 785	3.9200e-01	8.6741	73.309633	0.001020	10.204666	3.457435	-0.081469
 786	3.9250e-01	8.6388	73.019250	0.000727	7.274614	2.464706	-0.058077
 787	3.9300e-01	8.6019	72.680470	0.000849	8.487049	2.875490	-0.067756
 788	3.9350e-01	8.5634	72.285226	0.000990	9.901558	3.354739	-0.079049
 789	3.9400e-01	8.5185	72.180366	0.000263	2.626944	0.890033	-0.020972
 790	3.9450e-01	8.4768	71.813354	0.000919	9.194303	3.115114	-0.073402
 791	3.9500e-01	8.4383	71.240654	0.001435	14.347155	4.860948	-0.114540
 792	3.9550e-01	8.4014	70.986568	0.000637	6.365287	2.156618	-0.050817
 793	3.9600e-01	8.3613	70.732483	0.000637	6.365287	2.156618	-0.050817
 794	3.9650e-01	8.3292	70.401769	0.000828	8.284977	2.807026	-0.066143
 795	3.9700e-01	8.2891	70.002492	0.001000	10.002594	3.388971	-0.079855
 796	3.9750e-01	8.2570	69.655646	0.000869	8.689122	2.943954	-0.069369
 797	3.9800e-01	8.1928	69.401561	0.000637	6.365287	2.156618	-0.050817
 798	3.9850e-01	8.1655	68.929688	0.001182	11.821247	4.005147	-0.094375
 799	3.9900e-01	8.1222	68.865159	0.000162	1.616581	0.547712	-0.012906
 800	3.9950e-01	8.0837	68.502180	0.000909	9.093267	3.080882	-0.072596
 801	4.0000e-01	8.0581	68.131135	0.000930	9.295340	3.149346	-0.074209
 802	4.0050e-01	7.9955	67.969811	0.000404	4.041452	1.369281	-0.032265
 803	4.0100e-01	7.9650	67.514071	0.001142	11.417102	3.868219	-0.091148
 804	4.0150e-01	7.9265	67.074463	0.001101	11.012957	3.731291	-0.087922
 805	4.0200e-01	7.8784	66.594524	0.001202	12.023320	4.073611	-0.095988
 806	4.0250e-01	7.8383	66.388836	0.000515	5.152851	1.745833	-0.041138
 807	4.0300e-01	7.8078	66.154916	0.000586	5.860105	1.985457	-0.046784
 808	4.0350e-01	7.7645	65.872599	0.000707	7.072541	2.396242	-0.056463
 809	4.0400e-01	7.7180	65.356363	0.001293	12.932647	4.381699	-0.103247
 810	4.0450e-01	7.6843	65.041781	0.000788	7.880831	2.670098	-0.062916
 811	4.0500e-01	7.6506	64.868358	0.000434	4.344561	1.471977	-0.034685
 812	4.0550e-01	7.6041	64.384386	0.001212	12.124356	4.107843	-0.096794
 813	4.0600e-01	7.5656	64.057705	0.000818	8.183940	2.772794	-0.065336
 814	4.0650e-01	7.5351	63.819752	0.000596	5.961142	2.019690	-0.047591
 815	4.0700e-01	7.4854	63.416442	0.001010	10.103630	3.423203	-0.080662
 816	4.0750e-01	7.4517	63.138159	0.000697	6.971505	2.362010	-0.055657
 817	4.0800e-01	7.4019	62.791312	0.000869	8.689122	2.943954	-0.069369
 818	4.0850e-01	7.3666	62.492863	0.000748	7.476686	2.533170	-0.059690
 819	4.0900e-01	7.3233	62.162149	0.000828	8.284977	2.807026	-0.066143
 820	4.0950e-01	7.2864	61.843534	0.000798	7.981868	2.704330	-0.063723
 821	4.1000e-01	7.2287	61.512820	0.000828	8.284977	2.807026	-0.066143
 822	4.1050e-01	7.2062	61.073212	0.001101	11.012957	3.731291	-0.087922
 823	4.1100e-01	7.1613	60.823160	0.000626	6.264251	2.122386	-0.050010
 824	4.1150e-01	7.1212	60.234328	0.001475	14.751300	4.997876	-0.117766
 825	4.1200e-01	7.0699	59.843117	0.000980	9.800521	3.320506	-0.078242
 826	4.1250e-01	7.0442	59.693892	0.000374	3.738343	1.266585	-0.029845
 827	4.1300e-01	7.0073	59.443840	0.000626	6.264251	2.122386	-0.050010
 828	4.1350e-01	6.9672	59.121192	0.000808	8.082904	2.738562	-0.064530
 829	4.1400e-01	6.9255	58.794511	0.000818	8.183940	2.772794	-0.065336
 830	4.1450e-01	6.8854	58.258109	0.001344	13.437828	4.552859	-0.107280
 831	4.1500e-01	6.8421	57.971759	0.000717	7.173577	2.430474	-0.057270
 832	4.1550e-01	6.8019	57.854799	0.000293	2.930053	0.992729	-0.023392
 833	4.1600e-01	6.7634	57.580549	0.000687	6.870468	2.327778	-0.054850
 834	4.1650e-01	6.7249	57.189338	0.000980	9.800521	3.320506	-0.078242
 835	4.1700e-01	6.6816	56.620671	0.001425	14.246118	4.826716	-0.113733
 836	4.1750e-01	6.6447	56.362553	0.000647	6.466323	2.190850	-0.051624
 837	4.1800e-01	6.6126	56.181064	0.000455	4.546634	1.540441	-0.036298
 838	4.1850e-01	6.5629	55.737423	0.001111	11.113993	3.765523	-0.088728
 839	4.1900e-01	6.5212	55.253451	0.001212	12.124356	4.107843	-0.096794
 840	4.1950e-01	6.4811	54.850141	0.001010	10.103630	3.423203	-0.080662
 841	4.2000e-01	6.4586	54.571857	0.000697	6.971505	2.362010	-0.055657
 842	4.2050e-01	6.4137	54.479096	0.000232	2.323835	0.787337	-0.018552
 843	4.2100e-01	6.3640	53.922528	0.001394	13.943010	4.724020	-0.111314
 844	4.2150e-01	6.3207	53.672476	0.000626	6.264251	2.122386	-0.050010
 845	4.2200e-01	6.2886	53.212703	0.001152	11.518138	3.902451	-0.091955
 846	4.2250e-01	6.2469	52.849724	0.000909	9.093267	3.080882	-0.072596
 847	4.2300e-01	6.2052	52.724698	0.000313	3.132125	1.061193	-0.025005
 848	4.2350e-01	6.1651	52.281057	0.001111	11.113993	3.765523	-0.088728
 849	4.2400e-01	6.1266	51.780953	0.001253	12.528501	4.244771	-0.100021
 850	4.2450e-01	6.0881	51.744655	0.000091	0.909327	0.308088	-0.007260
 851	4.2500e-01	6.0544	51.305047	0.001101	11.012957	3.731291	-0.087922
 852	4.2550e-01	6.0014	51.010631	0.000738	7.375650	2.498938	-0.058883
 853	4.2600e-01	5.9645	50.788811	0.000556	5.556997	1.882761	-0.044364
 854	4.2650e-01	5.9260	50.421799	0.000919	9.194303	3.115114	-0.073402
 855	4.2700e-01	5.8811	49.966059	0.001142	11.417102	3.868219	-0.091148
 856	4.2750e-01	5.8442	49.728106	0.000596	5.961142	2.019690	-0.047591
 857	4.2800e-01	5.8041	49.397392	0.000828	8.284977	2.807026	-0.066143
 858	4.2850e-01	5.7640	49.119108	0.000697	6.971505	2.362010	-0.055657
 859	4.2900e-01	5.7191	48.735964	0.000960	9.598449	3.252042	-0.076629
 860	4.2950e-01	5.6902	48.457680	0.000697	6.971505	2.362010	-0.055657
 861	4.3000e-01	5.6517	48.175363	0.000707	7.072541	2.396242	-0.056463
 862	4.3050e-01	5.5988	47.703490	0.001182	11.821247	4.005147	-0.094375
 863	4.3100e-01	5.5603	47.364710	0.000849	8.487049	2.875490	-0.067756
 864	4.3150e-01	5.5330	46.953334	0.001031	10.305703	3.491667	-0.082275
 865	4.3200e-01	5.4752	46.574223	0.000950	9.497412	3.217810	-0.075822
 866	4.3250e-01	5.4416	46.158814	0.001041	10.406739	3.525899	-0.083082
 867	4.3300e-01	5.3998	45.985390	0.000434	4.344561	1.471977	-0.034685
 868	4.3350e-01	5.3710	45.666775	0.000798	7.981868	2.704330	-0.063723
 869	4.3400e-01	5.3373	45.045678	0.001556	15.559590	5.271732	-0.124219
 870	4.3450e-01	5.2908	44.856123	0.000475	4.748706	1.608905	-0.037911
 871	4.3500e-01	5.2458	44.368118	0.001223	12.225392	4.142075	-0.097601
 872	4.3550e-01	5.2057	44.057569	0.000778	7.779795	2.635866	-0.062110
 873	4.3600e-01	5.1688	43.767186	0.000727	7.274614	2.464706	-0.058077
 874	4.3650e-01	5.1207	43.375975	0.000980	9.800521	3.320506	-0.078242
 875	4.3700e-01	5.0726	43.129956	0.000616	6.163214	2.088154	-0.049204
 876	4.3750e-01	5.0405	42.577422	0.001384	13.841973	4.689787	-0.110507
 877	4.3800e-01	5.0084	42.194278	0.000960	9.598449	3.252042	-0.076629
 878	4.3850e-01	4.9571	41.851464	0.000859	8.588086	2.909722	-0.068563
 879	4.3900e-01	4.9330	41.488485	0.000909	9.093267	3.080882	-0.072596
 880	4.3950e-01	4.8865	41.476386	0.000030	0.303109	0.102696	-0.002420
 881	4.4000e-01	4.8576	41.206168	0.000677	6.769432	2.293546	-0.054044
 882	4.4050e-01	4.8095	40.693965	0.001283	12.831610	4.347467	-0.102441
 883	4.4100e-01	4.7598	40.367284	0.000818	8.183940	2.772794	-0.065336
 884	4.4150e-01	4.7261	40.101099	0.000667	6.668396	2.259314	-0.053237
 885	4.4200e-01	4.6876	39.786518	0.000788	7.880831	2.670098	-0.062916
 886	4.4250e-01	4.6459	39.145255	0.001606	16.064772	5.442892	-0.128253
 887	4.4300e-01	4.6074	38.963766	0.000455	4.546634	1.540441	-0.036298
 888	4.4350e-01	4.5608	38.697581	0.000667	6.668396	2.259314	-0.053237
 889	4.4400e-01	4.5223	38.403165	0.000738	7.375650	2.498938	-0.058883
 890	4.4450e-01	4.4774	38.036153	0.000919	9.194303	3.115114	-0.073402
 891	4.4500e-01	4.4389	37.519916	0.001293	12.932647	4.381699	-0.103247
 892	4.4550e-01	4.3972	37.257765	0.000657	6.567360	2.225082	-0.052430
 893	4.4600e-01	4.3603	36.878654	0.000950	9.497412	3.217810	-0.075822
 894	4.4650e-01	4.3202	36.511642	0.000919	9.194303	3.115114	-0.073402
 895	4.4700e-01	4.2801	36.188994	0.000808	8.082904	2.738562	-0.064530
 896	4.4750e-01	4.2384	35.817949	0.000930	9.295340	3.149346	-0.074209
 897	4.4800e-01	4.2079	35.463036	0.000889	8.891195	3.012418	-0.070983
 898	4.4850e-01	4.1662	35.168620	0.000738	7.375650	2.498938	-0.058883
 899	4.4900e-01	4.1181	34.906468	0.000657	6.567360	2.225082	-0.052430
 900	4.4950e-01	4.0812	34.418463	0.001223	12.225392	4.142075	-0.097601
 901	4.5000e-01	4.0411	33.930459	0.001223	12.225392	4.142075	-0.097601
 902	4.5050e-01	4.0058	33.708638	0.000556	5.556997	1.882761	-0.044364
 903	4.5100e-01	3.9641	33.321461	0.000970	9.699485	3.286274	-0.077435
 904	4.5150e-01	3.9240	33.055276	0.000667	6.668396	2.259314	-0.053237
 905	4.5200e-01	3.8822	32.942349	0.000283	2.829016	0.958497	-0.022585
 906	4.5250e-01	3.8389	32.426113	0.001293	12.932647	4.381699	-0.103247
 907	4.5300e-01	3.7956	32.034902	0.000980	9.800521	3.320506	-0.078242
 908	4.5350e-01	3.7619	31.724354	0.000778	7.779795	2.635866	-0.062110
 909	4.5400e-01	3.7218	31.474301	0.000626	6.264251	2.122386	-0.050010
 910	4.5450e-01	3.6817	31.200051	0.000687	6.870468	2.327778	-0.054850
 911	4.5500e-01	3.6448	30.808840	0.000980	9.800521	3.320506	-0.078242
 912	4.5550e-01	3.6127	30.304703	0.001263	12.629538	4.279003	-0.100827
 913	4.5600e-01	3.5550	29.804599	0.001253	12.528501	4.244771	-0.100021
 914	4.5650e-01	3.5229	29.570679	0.000586	5.860105	1.985457	-0.046784
 915	4.5700e-01	3.4780	29.159303	0.001031	10.305703	3.491667	-0.082275
 916	4.5750e-01	3.4411	28.788258	0.000930	9.295340	3.149346	-0.074209
 917	4.5800e-01	3.4010	28.469643	0.000798	7.981868	2.704330	-0.063723
 918	4.5850e-01	3.3673	28.017936	0.001132	11.316066	3.833987	-0.090341
 919	4.5900e-01	3.3240	27.630759	0.000970	9.699485	3.286274	-0.077435
 920	4.5950e-01	3.2823	27.481534	0.000374	3.738343	1.266585	-0.029845
 921	4.6000e-01	3.2486	26.957231	0.001313	13.134719	4.450163	-0.104861
 922	4.6050e-01	3.2020	26.687013	0.000677	6.769432	2.293546	-0.054044
 923	4.6100e-01	3.1668	26.449061	0.000596	5.961142	2.019690	-0.047591
 924	4.6150e-01	3.1234	26.194975	0.000637	6.365287	2.156618	-0.050817
 925	4.6200e-01	3.0849	25.602110	0.001485	14.852336	5.032108	-0.118573
 926	4.6250e-01	3.0545	25.106039	0.001243	12.427465	4.210539	-0.099214
 927	4.6300e-01	3.0031	24.884218	0.000556	5.556997	1.882761	-0.044364
 928	4.6350e-01	2.9614	24.847920	0.000091	0.909327	0.308088	-0.007260
 929	4.6400e-01	2.9197	24.408313	0.001101	11.012957	3.731291	-0.087922
 930	4.6450e-01	2.8812	23.904175	0.001263	12.629538	4.279003	-0.100827
 931	4.6500e-01	2.8459	23.533130	0.000930	9.295340	3.149346	-0.074209
 932	4.6550e-01	2.8074	23.230648	0.000758	7.577723	2.567402	-0.060496
 933	4.6600e-01	2.7529	22.903967	0.000818	8.183940	2.772794	-0.065336
 934	4.6650e-01	2.7256	22.428061	0.001192	11.922284	4.039379	-0.095181
 935	4.6700e-01	2.6823	22.125579	0.000758	7.577723	2.567402	-0.060496
 936	4.6750e-01	2.6390	21.891659	0.000586	5.860105	1.985457	-0.046784
 937	4.6800e-01	2.5924	21.524647	0.000919	9.194303	3.115114	-0.073402
 938	4.6850e-01	2.5636	21.250397	0.000687	6.870468	2.327778	-0.054850
 939	4.6900e-01	2.5235	20.911616	0.000849	8.487049	2.875490	-0.067756
 940	4.6950e-01	2.4817	20.649465	0.000657	6.567360	2.225082	-0.052430
 941	4.7000e-01	2.4481	20.205824	0.001111	11.113993	3.765523	-0.088728
 942	4.7050e-01	2.4112	19.693620	0.001283	12.831610	4.347467	-0.102441
 943	4.7100e-01	2.3598	19.483899	0.000525	5.253888	1.780065	-0.041944
 944	4.7150e-01	2.3181	19.137053	0.000869	8.689122	2.943954	-0.069369
 945	4.7200e-01	2.2828	18.745842	0.000980	9.800521	3.320506	-0.078242
 946	4.7250e-01	2.2411	18.407062	0.000849	8.487049	2.875490	-0.067756
 947	4.7300e-01	2.1994	18.100547	0.000768	7.678759	2.601634	-0.061303
 948	4.7350e-01	2.1625	17.652873	0.001122	11.215029	3.799755	-0.089535
 949	4.7400e-01	2.1240	17.334258	0.000798	7.981868	2.704330	-0.063723
 950	4.7450e-01	2.0855	16.882551	0.001132	11.316066	3.833987	-0.090341
 951	4.7500e-01	2.0374	16.487307	0.000990	9.901558	3.354739	-0.079049
 952	4.7550e-01	2.0005	16.334049	0.000384	3.839379	1.300817	-0.030652
 953	4.7600e-01	1.9604	16.011401	0.000808	8.082904	2.738562	-0.064530
 954	4.7650e-01	1.9283	15.458867	0.001384	13.841973	4.689787	-0.110507
 955	4.7700e-01	1.8866	15.116054	0.000859	8.588086	2.909722	-0.068563
 956	4.7750e-01	1.8417	14.745008	0.000930	9.295340	3.149346	-0.074209
 957	4.7800e-01	1.8016	14.648214	0.000242	2.424871	0.821569	-0.019359
 958	4.7850e-01	1.7647	14.365897	0.000707	7.072541	2.396242	-0.056463
 959	4.7900e-01	1.7149	13.793197	0.001435	14.347155	4.860948	-0.114540
 960	4.7950e-01	1.6828	13.365689	0.001071	10.709848	3.628595	-0.085502
 961	4.8000e-01	1.6379	13.091438	0.000687	6.870468	2.327778	-0.054850
 962	4.8050e-01	1.5978	12.506639	0.001465	14.650264	4.963644	-0.116960
 963	4.8100e-01	1.5738	12.054932	0.001132	11.316066	3.833987	-0.090341
 964	4.8150e-01	1.5192	11.796813	0.000647	6.466323	2.190850	-0.051624
 965	4.8200e-01	1.4775	11.683887	0.000283	2.829016	0.958497	-0.022585
 966	4.8250e-01	1.4438	11.236213	0.001122	11.215029	3.799755	-0.089535
 967	4.8300e-01	1.3941	11.050690	0.000465	4.647670	1.574673	-0.037105
 968	4.8350e-01	1.3588	10.639314	0.001031	10.305703	3.491667	-0.082275
 969	4.8400e-01	1.3187	10.236004	0.001010	10.103630	3.423203	-0.080662
 970	4.8450e-01	1.2850	9.901257	0.000839	8.386013	2.841258	-0.066949
 971	4.8500e-01	1.2337	9.602808	0.000748	7.476686	2.533170	-0.059690
 972	4.8550e-01	1.2112	9.118836	0.001212	12.124356	4.107843	-0.096794
 973	4.8600e-01	1.1567	8.868784	0.000626	6.264251	2.122386	-0.050010
 974	4.8650e-01	1.1182	8.513871	0.000889	8.891195	3.012418	-0.070983
 975	4.8700e-01	1.0796	8.167025	0.000869	8.689122	2.943954	-0.069369
 976	4.8750e-01	1.0428	7.735483	0.001081	10.810884	3.662827	-0.086308
 977	4.8800e-01	0.9978	7.416868	0.000798	7.981868	2.704330	-0.063723
 978	4.8850e-01	0.9706	6.932896	0.001212	12.124356	4.107843	-0.096794
 979	4.8900e-01	0.9321	6.602182	0.000828	8.284977	2.807026	-0.066143
 980	4.8950e-01	0.8807	6.198873	0.001010	10.103630	3.423203	-0.080662
 981	4.9000e-01	0.8470	5.928655	0.000677	6.769432	2.293546	-0.054044
 982	4.9050e-01	0.7957	5.525345	0.001010	10.103630	3.423203	-0.080662
 983	4.9100e-01	0.7668	5.339823	0.000465	4.647670	1.574673	-0.037105
 984	4.9150e-01	0.7299	4.803420	0.001344	13.437828	4.552859	-0.107280
 985	4.9200e-01	0.6818	4.589666	0.000535	5.354924	1.814297	-0.042751
 986	4.9250e-01	0.6481	4.174257	0.001041	10.406739	3.525899	-0.083082
 987	4.9300e-01	0.6016	3.674153	0.001253	12.528501	4.244771	-0.100021
 988	4.9350e-01	0.5567	3.565259	0.000273	2.727980	0.924265	-0.021779
 989	4.9400e-01	0.5246	3.178082	0.000970	9.699485	3.286274	-0.077435
 990	4.9450e-01	0.4829	2.710242	0.001172	11.720211	3.970915	-0.093568
 991	4.9500e-01	0.4396	2.581183	0.000323	3.233162	1.095425	-0.025812
 992	4.9550e-01	0.4075	2.198039	0.000960	9.598449	3.252042	-0.076629
 993	4.9600e-01	0.3577	1.915722	0.000707	7.072541	2.396242	-0.056463
 994	4.9650e-01	0.3257	1.423684	0.001233	12.326429	4.176307	-0.098408
 995	4.9700e-01	0.2759	1.008275	0.001041	10.406739	3.525899	-0.083082
 996	4.9750e-01	0.2390	0.742090	0.000667	6.668396	2.259314	-0.053237
 997	4.9800e-01	0.2021	0.290383	0.001132	11.316066	3.833987	-0.090341
 998	4.9850e-01	0.1620	-0.052430	0.000859	8.588086	2.909722	-0.068563
 999	4.9900e-01	0.1187	-0.419442	0.000919	9.194303	3.115114	-0.073402
1000	4.9950e-01	0.0802	-0.560601	0.000354	3.536271	1.198121	-0.028232
1001	5.0000e-01	0.0417	-1.052639	0.001233	12.326429	4.176307	-0.098408
1002	5.0050e-01	0.0144	-1.226062	0.000434	4.344561	1.471977	-0.034685
1003	5.0100e-01	-0.0321	-1.701968	0.001192	11.922284	4.039379	-0.095181
1004	5.0150e-01	-0.0674	-2.052847	0.000879	8.790158	2.978186	-0.070176
1005	5.0200e-01	-0.1091	-2.528753	0.001192	11.922284	4.039379	-0.095181
1006	5.0250e-01	-0.1460	-2.633613	0.000263	2.626944	0.890033	-0.020972
1007	5.0300e-01	-0.1829	-3.182115	0.001374	13.740937	4.655555	-0.109700
1008	5.0350e-01	-0.2262	-3.649954	0.001172	11.720211	3.970915	-0.093568
1009	5.0400e-01	-0.2711	-3.843543	0.000485	4.849742	1.643137	-0.038718
1010	5.0450e-01	-0.3032	-4.258952	0.001041	10.406739	3.525899	-0.083082
1011	5.0500e-01	-0.3513	-4.601766	0.000859	8.588086	2.909722	-0.068563
1012	5.0550e-01	-0.3914	-4.932480	0.000828	8.284977	2.807026	-0.066143
1013	5.0600e-01	-0.4299	-5.351922	0.001051	10.507775	3.560131	-0.083888
1014	5.0650e-01	-0.4700	-5.819761	0.001172	11.720211	3.970915	-0.093568
1015	5.0700e-01	-0.5182	-6.017383	0.000495	4.950779	1.677369	-0.039524
1016	5.0750e-01	-0.5551	-6.291634	0.000687	6.870468	2.327778	-0.054850
1017	5.0800e-01	-0.5888	-6.473123	0.000455	4.546634	1.540441	-0.036298
1018	5.0850e-01	-0.6337	-6.819970	0.000869	8.689122	2.943954	-0.069369
1019	5.0900e-01	-0.6690	-7.279743	0.001152	11.518138	3.902451	-0.091955
1020	5.0950e-01	-0.7139	-7.735483	0.001142	11.417102	3.868219	-0.091148
1021	5.1000e-01	-0.7412	-8.171058	0.001091	10.911921	3.697059	-0.087115
1022	5.1050e-01	-0.7973	-8.481606	0.000778	7.779795	2.635866	-0.062110
1023	5.1100e-01	-0.8278	-8.719559	0.000596	5.961142	2.019690	-0.047591
1024	5.1150e-01	-0.8663	-9.118836	0.001000	10.002594	3.388971	-0.079855
1025	5.1200e-01	-0.9080	-9.493914	0.000940	9.396376	3.183578	-0.075016
1026	5.1250e-01	-0.9561	-10.062581	0.001425	14.246118	4.826716	-0.113733
1027	5.1300e-01	-0.9898	-10.264236	0.000505	5.051815	1.711601	-0.040331
1028	5.1350e-01	-1.0411	-10.465891	0.000505	5.051815	1.711601	-0.040331
1029	5.1400e-01	-1.0780	-10.986161	0.001303	13.033683	4.415931	-0.104054
1030	5.1450e-01	-1.1085	-11.252345	0.000667	6.668396	2.259314	-0.053237
1031	5.1500e-01	-1.1502	-11.687920	0.001091	10.911921	3.697059	-0.087115
1032	5.1550e-01	-1.1855	-11.925873	0.000596	5.961142	2.019690	-0.047591
1033	5.1600e-01	-1.2288	-12.333216	0.001020	10.204666	3.457435	-0.081469
1034	5.1650e-01	-1.2673	-12.696194	0.000909	9.093267	3.080882	-0.072596
1035	5.1700e-01	-1.3139	-12.934147	0.000596	5.961142	2.019690	-0.047591
1036	5.1750e-01	-1.3443	-13.297126	0.000909	9.093267	3.080882	-0.072596
1037	5.1800e-01	-1.3877	-13.752866	0.001142	11.417102	3.868219	-0.091148
1038	5.1850e-01	-1.4214	-14.047282	0.000738	7.375650	2.498938	-0.058883
1039	5.1900e-01	-1.4711	-14.599817	0.001384	13.841973	4.689787	-0.110507
1040	5.1950e-01	-1.5048	-14.978928	0.000950	9.497412	3.217810	-0.075822
1041	5.2000e-01	-1.5481	-15.341907	0.000909	9.093267	3.080882	-0.072596
1042	5.2050e-01	-1.5882	-15.499198	0.000394	3.940416	1.335049	-0.031458
1043	5.2100e-01	-1.6251	-15.809747	0.000778	7.779795	2.635866	-0.062110
1044	5.2150e-01	-1.6684	-16.390513	0.001455	14.549227	4.929412	-0.116153
1045	5.2200e-01	-1.7053	-16.660730	0.000677	6.769432	2.293546	-0.054044
1046	5.2250e-01	-1.7566	-16.777690	0.000293	2.930053	0.992729	-0.023392
1047	5.2300e-01	-1.7935	-17.237463	0.001152	11.518138	3.902451	-0.091955
1048	5.2350e-01	-1.8368	-17.418953	0.000455	4.546634	1.540441	-0.036298
1049	5.2400e-01	-1.8721	-17.927123	0.001273	12.730574	4.313235	-0.101634
1050	5.2450e-01	-1.9042	-18.382863	0.001142	11.417102	3.868219	-0.091148
1051	5.2500e-01	-1.9572	-18.564353	0.000455	4.546634	1.540441	-0.036298
1052	5.2550e-01	-1.9860	-18.995894	0.001081	10.810884	3.662827	-0.086308
1053	5.2600e-01	-2.0245	-19.451635	0.001142	11.417102	3.868219	-0.091148
1054	5.2650e-01	-2.0759	-19.689587	0.000596	5.961142	2.019690	-0.047591
1055	5.2700e-01	-2.1096	-20.121129	0.001081	10.810884	3.662827	-0.086308
1056	5.2750e-01	-2.1497	-20.363115	0.000606	6.062178	2.053922	-0.048397
1057	5.2800e-01	-2.1946	-20.762392	0.001000	10.002594	3.388971	-0.079855
1058	5.2850e-01	-2.2411	-21.044709	0.000707	7.072541	2.396242	-0.056463
1059	5.2900e-01	-2.2732	-21.322992	0.000697	6.971505	2.362010	-0.055657
1060	5.2950e-01	-2.3117	-21.677905	0.000889	8.891195	3.012418	-0.070983
1061	5.3000e-01	-2.3550	-22.194142	0.001293	12.932647	4.381699	-0.103247
1062	5.3050e-01	-2.3919	-22.702312	0.001273	12.730574	4.313235	-0.101634
1063	5.3100e-01	-2.4256	-23.129820	0.001071	10.709848	3.628595	-0.085502
1064	5.3150e-01	-2.4625	-23.194350	0.000162	1.616581	0.547712	-0.012906
1065	5.3200e-01	-2.5090	-23.512965	0.000798	7.981868	2.704330	-0.063723
1066	5.3250e-01	-2.5539	-23.940473	0.001071	10.709848	3.628595	-0.085502
1067	5.3300e-01	-2.5908	-24.206658	0.000667	6.668396	2.259314	-0.053237
1068	5.3350e-01	-2.6277	-24.795490	0.001475	14.751300	4.997876	-0.117766
1069	5.3400e-01	-2.6791	-25.045542	0.000626	6.264251	2.122386	-0.050010
1070	5.3450e-01	-2.7112	-25.404488	0.000899	8.992231	3.046650	-0.071789
1071	5.3500e-01	-2.7464	-25.602110	0.000495	4.950779	1.677369	-0.039524
1072	5.3550e-01	-2.7882	-26.065916	0.001162	11.619175	3.936683	-0.092761
1073	5.3600e-01	-2.8331	-26.328068	0.000657	6.567360	2.225082	-0.052430
1074	5.3650e-01	-2.8748	-26.428895	0.000253	2.525908	0.855801	-0.020165
1075	5.3700e-01	-2.9037	-26.816073	0.000970	9.699485	3.286274	-0.077435
1076	5.3750e-01	-2.9598	-27.316177	0.001253	12.528501	4.244771	-0.100021
1077	5.3800e-01	-2.9935	-27.622692	0.000768	7.678759	2.601634	-0.061303
1078	5.3850e-01	-3.0240	-28.199425	0.001445	14.448191	4.895180	-0.115347
1079	5.3900e-01	-3.0721	-28.505941	0.000768	7.678759	2.601634	-0.061303
1080	5.3950e-01	-3.1074	-28.893118	0.000970	9.699485	3.286274	-0.077435
1081	5.4000e-01	-3.1443	-29.381123	0.001223	12.225392	4.142075	-0.097601
1082	5.4050e-01	-3.1908	-29.606977	0.000566	5.658033	1.916993	-0.045171
1083	5.4100e-01	-3.2357	-29.937691	0.000828	8.284977	2.807026	-0.066143
1084	5.4150e-01	-3.2710	-30.179677	0.000606	6.062178	2.053922	-0.048397
1085	5.4200e-01	-3.3111	-30.486192	0.000768	7.678759	2.601634	-0.061303
1086	5.4250e-01	-3.3416	-30.889502	0.001010	10.103630	3.423203	-0.080662
1087	5.4300e-01	-3.3913	-31.502533	0.001536	15.357518	5.203268	-0.122606
1088	5.4350e-01	-3.4315	-31.631592	0.000323	3.233162	1.095425	-0.025812
1089	5.4400e-01	-3.4700	-31.978439	0.000869	8.689122	2.943954	-0.069369
1090	5.4450e-01	-3.5117	-32.224458	0.000616	6.163214	2.088154	-0.049204
1091	5.4500e-01	-3.5486	-32.543073	0.000798	7.981868	2.704330	-0.063723
1092	5.4550e-01	-3.5887	-32.857654	0.000788	7.880831	2.670098	-0.062916
1093	5.4600e-01	-3.6336	-33.402123	0.001364	13.639901	4.621323	-0.108894
1094	5.4650e-01	-3.6609	-33.555380	0.000384	3.839379	1.300817	-0.030652
1095	5.4700e-01	-3.7042	-33.801399	0.000616	6.163214	2.088154	-0.049204
1096	5.4750e-01	-3.7603	-34.192610	0.000980	9.800521	3.320506	-0.078242
1097	5.4800e-01	-3.7876	-34.773376	0.001455	14.549227	4.929412	-0.116153
1098	5.4850e-01	-3.8181	-34.946799	0.000434	4.344561	1.471977	-0.034685
1099	5.4900e-01	-3.8662	-35.253315	0.000768	7.678759	2.601634	-0.061303
1100	5.4950e-01	-3.9095	-35.616294	0.000909	9.093267	3.080882	-0.072596
1101	5.5000e-01	-3.9512	-36.068001	0.001132	11.316066	3.833987	-0.090341
1102	5.5050e-01	-3.9929	-36.455178	0.000970	9.699485	3.286274	-0.077435
1103	5.5100e-01	-4.0266	-36.729429	0.000687	6.870468	2.327778	-0.054850
1104	5.5150e-01	-4.0699	-37.100474	0.000930	9.295340	3.149346	-0.074209
1105	5.5200e-01	-4.1084	-37.370692	0.000677	6.769432	2.293546	-0.054044
1106	5.5250e-01	-4.1518	-37.677207	0.000768	7.678759	2.601634	-0.061303
1107	5.5300e-01	-4.1983	-38.028087	0.000879	8.790158	2.978186	-0.070176
1108	5.5350e-01	-4.2320	-38.362834	0.000839	8.386013	2.841258	-0.066949
1109	5.5400e-01	-4.2721	-38.697581	0.000839	8.386013	2.841258	-0.066949
1110	5.5450e-01	-4.3042	-39.270281	0.001435	14.347155	4.860948	-0.114540
1111	5.5500e-01	-4.3555	-39.520333	0.000626	6.264251	2.122386	-0.050010
1112	5.5550e-01	-4.3860	-39.802650	0.000707	7.072541	2.396242	-0.056463
1113	5.5600e-01	-4.4245	-40.282589	0.001202	12.023320	4.073611	-0.095988
1114	5.5650e-01	-4.4614	-40.629435	0.000869	8.689122	2.943954	-0.069369
1115	5.5700e-01	-4.5079	-40.851256	0.000556	5.556997	1.882761	-0.044364
1116	5.5750e-01	-4.5496	-41.113407	0.000657	6.567360	2.225082	-0.052430
1117	5.5800e-01	-4.5977	-41.311029	0.000495	4.950779	1.677369	-0.039524
1118	5.5850e-01	-4.6330	-41.795001	0.001212	12.124356	4.107843	-0.096794
1119	5.5900e-01	-4.6731	-42.121682	0.000818	8.183940	2.772794	-0.065336
1120	5.5950e-01	-4.6988	-42.682283	0.001404	14.044046	4.758252	-0.112120
1121	5.6000e-01	-4.7566	-42.807309	0.000313	3.132125	1.061193	-0.025005
1122	5.6050e-01	-4.7934	-43.218685	0.001031	10.305703	3.491667	-0.082275
1123	5.6100e-01	-4.8303	-43.424373	0.000515	5.152851	1.745833	-0.041138
1124	5.6150e-01	-4.8705	-43.775252	0.000879	8.790158	2.978186	-0.070176
1125	5.6200e-01	-4.9073	-44.073702	0.000748	7.476686	2.533170	-0.059690
1126	5.6250e-01	-4.9410	-44.650435	0.001445	14.448191	4.895180	-0.115347
1127	5.6300e-01	-4.9940	-44.872255	0.000556	5.556997	1.882761	-0.044364
1128	5.6350e-01	-5.0325	-45.247333	0.000940	9.396376	3.183578	-0.075016
1129	5.6400e-01	-5.0710	-45.751471	0.001263	12.629538	4.279003	-0.100827
1130	5.6450e-01	-5.1047	-45.848265	0.000242	2.424871	0.821569	-0.019359
1131	5.6500e-01	-5.1480	-46.223343	0.000940	9.396376	3.183578	-0.075016
1132	5.6550e-01	-5.1945	-46.352402	0.000323	3.233162	1.095425	-0.025812
1133	5.6600e-01	-5.2346	-46.864606	0.001283	12.831610	4.347467	-0.102441
1134	5.6650e-01	-5.2619	-47.247750	0.000960	9.598449	3.252042	-0.076629
1135	5.6700e-01	-5.3100	-47.457471	0.000525	5.253888	1.780065	-0.041944
1136	5.6750e-01	-5.3469	-47.800285	0.000859	8.588086	2.909722	-0.068563
1137	5.6800e-01	-5.3950	-48.042271	0.000606	6.062178	2.053922	-0.048397
1138	5.6850e-01	-5.4239	-48.651268	0.001526	15.256481	5.169036	-0.121800
1139	5.6900e-01	-5.4624	-48.933585	0.000707	7.072541	2.396242	-0.056463
1140	5.6950e-01	-5.5025	-49.211869	0.000697	6.971505	2.362010	-0.055657
1141	5.7000e-01	-5.5571	-49.784569	0.001435	14.347155	4.860948	-0.114540
1142	5.7050e-01	-5.5875	-49.861198	0.000192	1.919690	0.650408	-0.015326
1143	5.7100e-01	-5.6373	-50.183846	0.000808	8.082904	2.738562	-0.064530
1144	5.7150e-01	-5.6678	-50.639586	0.001142	11.417102	3.868219	-0.091148
1145	5.7200e-01	-5.7127	-50.970300	0.000828	8.284977	2.807026	-0.066143
1146	5.7250e-01	-5.7528	-51.127591	0.000394	3.940416	1.335049	-0.031458
1147	5.7300e-01	-5.7913	-51.680125	0.001384	13.841973	4.689787	-0.110507
1148	5.7350e-01	-5.8442	-51.994707	0.000788	7.880831	2.670098	-0.062916
1149	5.7400e-01	-5.8731	-52.143932	0.000374	3.738343	1.266585	-0.029845
1150	5.7450e-01	-5.9164	-52.422216	0.000697	6.971505	2.362010	-0.055657
1151	5.7500e-01	-5.9469	-52.708566	0.000717	7.173577	2.430474	-0.057270
1152	5.7550e-01	-5.9934	-53.172372	0.001162	11.619175	3.936683	-0.092761
1153	5.7600e-01	-6.0335	-53.591814	0.001051	10.507775	3.560131	-0.083888
1154	5.7650e-01	-6.0656	-54.051587	0.001152	11.518138	3.902451	-0.091955
1155	5.7700e-01	-6.1041	-54.313739	0.000657	6.567360	2.225082	-0.052430
1156	5.7750e-01	-6.1538	-54.571857	0.000647	6.466323	2.190850	-0.051624
1157	5.7800e-01	-6.1891	-54.809810	0.000596	5.961142	2.019690	-0.047591
1158	5.7850e-01	-6.2260	-55.164723	0.000889	8.891195	3.012418	-0.070983
1159	5.7900e-01	-6.2661	-55.455106	0.000727	7.274614	2.464706	-0.058077
1160	5.7950e-01	-6.3014	-55.854383	0.001000	10.002594	3.388971	-0.079855
1161	5.8000e-01	-6.3512	-56.193163	0.000849	8.487049	2.875490	-0.067756
1162	5.8050e-01	-6.3929	-56.439182	0.000616	6.163214	2.088154	-0.049204
1163	5.8100e-01	-6.4217	-57.048180	0.001526	15.256481	5.169036	-0.121800
1164	5.8150e-01	-6.4667	-57.068345	0.000051	0.505182	0.171160	-0.004033
1165	5.8200e-01	-6.5052	-57.302265	0.000586	5.860105	1.985457	-0.046784
1166	5.8250e-01	-6.5421	-57.745906	0.001111	11.113993	3.765523	-0.088728
1167	5.8300e-01	-6.5918	-58.145183	0.001000	10.002594	3.388971	-0.079855
1168	5.8350e-01	-6.6271	-58.411367	0.000667	6.668396	2.259314	-0.053237
1169	5.8400e-01	-6.6656	-58.842909	0.001081	10.810884	3.662827	-0.086308
1170	5.8450e-01	-6.7089	-59.076828	0.000586	5.860105	1.985457	-0.046784
1171	5.8500e-01	-6.7490	-59.266384	0.000475	4.748706	1.608905	-0.037911
1172	5.8550e-01	-6.7875	-59.641462	0.000940	9.396376	3.183578	-0.075016
1173	5.8600e-01	-6.8276	-60.020573	0.000950	9.497412	3.217810	-0.075822
1174	5.8650e-01	-6.8709	-60.387585	0.000919	9.194303	3.115114	-0.073402
1175	5.8700e-01	-6.9062	-60.786862	0.001000	10.002594	3.388971	-0.079855
1176	5.8750e-01	-6.9576	-61.040947	0.000637	6.365287	2.156618	-0.050817
1177	5.8800e-01	-6.9880	-61.424092	0.000960	9.598449	3.252042	-0.076629
1178	5.8850e-01	-7.0410	-61.803203	0.000950	9.497412	3.217810	-0.075822
1179	5.8900e-01	-7.0618	-61.960494	0.000394	3.940416	1.335049	-0.031458
1180	5.8950e-01	-7.1148	-62.327506	0.000919	9.194303	3.115114	-0.073402
1181	5.9000e-01	-7.1420	-62.492863	0.000414	4.142488	1.403513	-0.033071
1182	5.9050e-01	-7.1773	-62.888107	0.000990	9.901558	3.354739	-0.079049
1183	5.9100e-01	-7.2303	-63.343847	0.001142	11.417102	3.868219	-0.091148
1184	5.9150e-01	-7.2575	-63.779421	0.001091	10.911921	3.697059	-0.087115
1185	5.9200e-01	-7.2993	-64.021407	0.000606	6.062178	2.053922	-0.048397
1186	5.9250e-01	-7.3426	-64.227095	0.000515	5.152851	1.745833	-0.041138
1187	5.9300e-01	-7.3987	-64.501346	0.000687	6.870468	2.327778	-0.054850
1188	5.9350e-01	-7.4292	-64.828027	0.000818	8.183940	2.772794	-0.065336
1189	5.9400e-01	-7.4661	-65.223271	0.000990	9.901558	3.354739	-0.079049
1190	5.9450e-01	-7.5110	-65.574150	0.000879	8.790158	2.978186	-0.070176
1191	5.9500e-01	-7.5527	-65.912930	0.000849	8.487049	2.875490	-0.067756
1192	5.9550e-01	-7.5864	-66.171049	0.000647	6.466323	2.190850	-0.051624
1193	5.9600e-01	-7.6297	-66.437233	0.000667	6.668396	2.259314	-0.053237
1194	5.9650e-01	-7.6714	-66.667120	0.000576	5.759069	1.951225	-0.045977
1195	5.9700e-01	-7.7132	-67.066397	0.001000	10.002594	3.388971	-0.079855
1196	5.9750e-01	-7.7372	-67.635064	0.001425	14.246118	4.826716	-0.113733
1197	5.9800e-01	-7.7853	-67.949645	0.000788	7.880831	2.670098	-0.062916
1198	5.9850e-01	-7.8271	-68.090804	0.000354	3.536271	1.198121	-0.028232
1199	5.9900e-01	-7.8768	-68.546544	0.001142	11.417102	3.868219	-0.091148
1200	5.9950e-01	-7.9073	-68.788530	0.000606	6.062178	2.053922	-0.048397
1201	6.0000e-01	-7.9442	-69.179740	0.000980	9.800521	3.320506	-0.078242
1202	6.0050e-01	-7.9939	-69.441892	0.000657	6.567360	2.225082	-0.052430
1203	6.0100e-01	-8.0180	-69.897632	0.001142	11.417102	3.868219	-0.091148
1204	6.0150e-01	-8.0693	-69.978294	0.000202	2.020726	0.684641	-0.016132
1205	6.0200e-01	-8.1094	-70.353372	0.000940	9.396376	3.183578	-0.075016
1206	6.0250e-01	-8.1495	-70.680053	0.000818	8.183940	2.772794	-0.065336
1207	6.0300e-01	-8.1816	-71.139826	0.001152	11.518138	3.902451	-0.091955
1208	6.0350e-01	-8.2233	-71.434242	0.000738	7.375650	2.498938	-0.058883
1209	6.0400e-01	-8.2714	-71.599599	0.000414	4.142488	1.403513	-0.033071
1210	6.0450e-01	-8.3067	-71.950479	0.000879	8.790158	2.978186	-0.070176
1211	6.0500e-01	-8.3452	-72.244895	0.000738	7.375650	2.498938	-0.058883
1212	6.0550e-01	-8.3950	-72.575609	0.000828	8.284977	2.807026	-0.066143
1213	6.0600e-01	-8.4270	-72.958754	0.000960	9.598449	3.252042	-0.076629
1214	6.0650e-01	-8.4655	-73.228971	0.000677	6.769432	2.293546	-0.054044
1215	6.0700e-01	-8.5121	-73.519354	0.000727	7.274614	2.464706	-0.058077
1216	6.0750e-01	-8.5490	-73.878300	0.000899	8.992231	3.046650	-0.071789
1217	6.0800e-01	-8.5826	-74.136419	0.000647	6.466323	2.190850	-0.051624
1218	6.0850e-01	-8.6260	-74.434868	0.000748	7.476686	2.533170	-0.059690
1219	6.0900e-01	-8.6677	-74.765582	0.000828	8.284977	2.807026	-0.066143
1220	6.0950e-01	-8.7110	-75.128561	0.000909	9.093267	3.080882	-0.072596
1221	6.1000e-01	-8.7527	-75.362480	0.000586	5.860105	1.985457	-0.046784
1222	6.1050e-01	-8.7928	-75.677062	0.000788	7.880831	2.670098	-0.062916
1223	6.1100e-01	-8.8233	-76.048107	0.000930	9.295340	3.149346	-0.074209
1224	6.1150e-01	-8.8682	-76.161034	0.000283	2.829016	0.958497	-0.022585
1225	6.1200e-01	-8.9099	-76.556278	0.000990	9.901558	3.354739	-0.079049
1226	6.1250e-01	-8.9420	-76.943455	0.000970	9.699485	3.286274	-0.077435
1227	6.1300e-01	-8.9853	-77.241904	0.000748	7.476686	2.533170	-0.059690
1228	6.1350e-01	-9.0222	-77.641181	0.001000	10.002594	3.388971	-0.079855
1229	6.1400e-01	-9.0671	-77.979961	0.000849	8.487049	2.875490	-0.067756
1230	6.1450e-01	-9.1008	-78.169517	0.000475	4.748706	1.608905	-0.037911
1231	6.1500e-01	-9.1489	-78.367139	0.000495	4.950779	1.677369	-0.039524
1232	6.1550e-01	-9.1971	-78.742217	0.000940	9.396376	3.183578	-0.075016
1233	6.1600e-01	-9.2324	-78.968071	0.000566	5.658033	1.916993	-0.045171
1234	6.1650e-01	-9.2677	-79.286685	0.000798	7.981868	2.704330	-0.063723
1235	6.1700e-01	-9.3142	-79.621433	0.000839	8.386013	2.841258	-0.066949
1236	6.1750e-01	-9.3527	-80.081206	0.001152	11.518138	3.902451	-0.091955
1237	6.1800e-01	-9.3880	-80.278828	0.000495	4.950779	1.677369	-0.039524
1238	6.1850e-01	-9.4233	-80.686171	0.001020	10.204666	3.457435	-0.081469
1239	6.1900e-01	-9.4730	-80.960421	0.000687	6.870468	2.327778	-0.054850
1240	6.1950e-01	-9.5067	-81.299202	0.000849	8.487049	2.875490	-0.067756
1241	6.2000e-01	-9.5500	-81.561353	0.000657	6.567360	2.225082	-0.052430
1242	6.2050e-01	-9.5917	-81.888034	0.000818	8.183940	2.772794	-0.065336
1243	6.2100e-01	-9.6270	-82.283278	0.000990	9.901558	3.354739	-0.079049
1244	6.2150e-01	-9.6591	-82.561561	0.000697	6.971505	2.362010	-0.055657
1245	6.2200e-01	-9.7136	-82.714819	0.000384	3.839379	1.300817	-0.030652
1246	6.2250e-01	-9.7425	-83.005202	0.000727	7.274614	2.464706	-0.058077
1247	6.2300e-01	-9.7842	-83.343983	0.000849	8.487049	2.875490	-0.067756
1248	6.2350e-01	-9.8307	-83.731160	0.000970	9.699485	3.286274	-0.077435
1249	6.2400e-01	-9.8692	-84.090106	0.000899	8.992231	3.046650	-0.071789
1250	6.2450e-01	-9.9077	-84.404688	0.000788	7.880831	2.670098	-0.062916
1251	6.2500e-01	-9.9511	-84.553912	0.000374	3.738343	1.266585	-0.029845
1252	6.2550e-01	-9.9847	-84.973354	0.001051	10.507775	3.560131	-0.083888
1253	6.2600e-01	-10.0313	-85.336333	0.000909	9.093267	3.080882	-0.072596
1254	6.2650e-01	-10.0666	-85.667047	0.000828	8.284977	2.807026	-0.066143
1255	6.2700e-01	-10.1099	-85.759809	0.000232	2.323835	0.787337	-0.018552
1256	6.2750e-01	-10.1484	-86.050192	0.000727	7.274614	2.464706	-0.058077
1257	6.2800e-01	-10.1837	-86.425270	0.000940	9.396376	3.183578	-0.075016
1258	6.2850e-01	-10.2318	-86.780183	0.000889	8.891195	3.012418	-0.070983
1259	6.2900e-01	-10.2671	-87.159294	0.000950	9.497412	3.217810	-0.075822
1260	6.2950e-01	-10.3104	-87.433545	0.000687	6.870468	2.327778	-0.054850
1261	6.3000e-01	-10.3473	-87.627133	0.000485	4.849742	1.643137	-0.038718
1262	6.3050e-01	-10.3890	-87.969947	0.000859	8.588086	2.909722	-0.068563
1263	6.3100e-01	-10.4227	-88.429720	0.001152	11.518138	3.902451	-0.091955
1264	6.3150e-01	-10.4676	-88.530547	0.000253	2.525908	0.855801	-0.020165
1265	6.3200e-01	-10.5157	-88.804798	0.000687	6.870468	2.327778	-0.054850
1266	6.3250e-01	-10.5462	-89.022585	0.000546	5.455960	1.848529	-0.043557
1267	6.3300e-01	-10.5831	-89.458160	0.001091	10.911921	3.697059	-0.087115
1268	6.3350e-01	-10.6313	-89.780808	0.000808	8.082904	2.738562	-0.064530
1269	6.3400e-01	-10.6714	-89.982463	0.000505	5.051815	1.711601	-0.040331
1270	6.3450e-01	-10.7147	-90.482567	0.001253	12.528501	4.244771	-0.100021
1271	6.3500e-01	-10.7403	-90.732619	0.000626	6.264251	2.122386	-0.050010
1272	6.3550e-01	-10.7885	-91.027035	0.000738	7.375650	2.498938	-0.058883
1273	6.3600e-01	-10.8286	-91.333551	0.000768	7.678759	2.601634	-0.061303
1274	6.3650e-01	-10.8639	-91.438412	0.000263	2.626944	0.890033	-0.020972
1275	6.3700e-01	-10.9072	-91.942549	0.001263	12.629538	4.279003	-0.100827
1276	6.3750e-01	-10.9441	-92.293428	0.000879	8.790158	2.978186	-0.070176
1277	6.3800e-01	-10.9890	-92.470885	0.000445	4.445597	1.506209	-0.035491
1278	6.3850e-01	-11.0243	-92.664473	0.000485	4.849742	1.643137	-0.038718
1279	6.3900e-01	-11.0676	-93.003254	0.000849	8.487049	2.875490	-0.067756
1280	6.3950e-01	-11.1061	-93.366233	0.000909	9.093267	3.080882	-0.072596
1281	6.4000e-01	-11.1478	-93.983297	0.001546	15.458554	5.237500	-0.123413
1282	6.4050e-01	-11.1895	-94.160753	0.000445	4.445597	1.506209	-0.035491
1283	6.4100e-01	-11.2280	-94.350309	0.000475	4.748706	1.608905	-0.037911
1284	6.4150e-01	-11.2697	-94.624559	0.000687	6.870468	2.327778	-0.054850
1285	6.4200e-01	-11.3147	-94.834281	0.000525	5.253888	1.780065	-0.041944
1286	6.4250e-01	-11.3548	-95.072233	0.000596	5.961142	2.019690	-0.047591
1287	6.4300e-01	-11.3884	-95.350517	0.000697	6.971505	2.362010	-0.055657
1288	6.4350e-01	-11.4350	-95.584437	0.000586	5.860105	1.985457	-0.046784
1289	6.4400e-01	-11.4719	-96.040177	0.001142	11.417102	3.868219	-0.091148
1290	6.4450e-01	-11.5152	-96.354759	0.000788	7.880831	2.670098	-0.062916
1291	6.4500e-01	-11.5537	-96.495917	0.000354	3.536271	1.198121	-0.028232
1292	6.4550e-01	-11.5890	-96.818565	0.000808	8.082904	2.738562	-0.064530
1293	6.4600e-01	-11.6291	-97.040385	0.000556	5.556997	1.882761	-0.044364
1294	6.4650e-01	-11.6772	-97.492093	0.001132	11.316066	3.833987	-0.090341
1295	6.4700e-01	-11.7077	-97.625185	0.000333	3.334198	1.129657	-0.026618
1296	6.4750e-01	-11.7510	-97.943800	0.000798	7.981868	2.704330	-0.063723
1297	6.4800e-01	-11.7879	-98.423738	0.001202	12.023320	4.073611	-0.095988
1298	6.4850e-01	-11.8248	-98.629426	0.000515	5.152851	1.745833	-0.041138
1299	6.4900e-01	-11.8697	-99.048869	0.001051	10.507775	3.560131	-0.083888
1300	6.4950e-01	-11.9066	-99.169862	0.000303	3.031089	1.026961	-0.024199
1301	6.5000e-01	-11.9499	-99.403781	0.000586	5.860105	1.985457	-0.046784
1302	6.5050e-01	-11.9820	-99.807091	0.001010	10.103630	3.423203	-0.080662
1303	6.5100e-01	-12.0398	-100.234600	0.001071	10.709848	3.628595	-0.085502
1304	6.5150e-01	-12.0654	-100.633876	0.001000	10.002594	3.388971	-0.079855
1305	6.5200e-01	-12.1039	-100.742770	0.000273	2.727980	0.924265	-0.021779
1306	6.5250e-01	-12.1473	-101.073484	0.000828	8.284977	2.807026	-0.066143
1307	6.5300e-01	-12.1954	-101.210609	0.000344	3.435234	1.163889	-0.027425
1308	6.5350e-01	-12.2323	-101.573588	0.000909	9.093267	3.080882	-0.072596
1309	6.5400e-01	-12.2660	-101.823640	0.000626	6.264251	2.122386	-0.050010
1310	6.5450e-01	-12.3125	-102.202752	0.000950	9.497412	3.217810	-0.075822
1311	6.5500e-01	-12.3558	-102.585896	0.000960	9.598449	3.252042	-0.076629
1312	6.5550e-01	-12.3815	-102.694790	0.000273	2.727980	0.924265	-0.021779
1313	6.5600e-01	-12.4328	-103.025504	0.000828	8.284977	2.807026	-0.066143
1314	6.5650e-01	-12.4777	-103.223126	0.000495	4.950779	1.677369	-0.039524
1315	6.5700e-01	-12.5098	-103.694998	0.001182	11.821247	4.005147	-0.094375
1316	6.5750e-01	-12.5451	-103.872455	0.000445	4.445597	1.506209	-0.035491
1317	6.5800e-01	-12.5884	-104.126540	0.000637	6.365287	2.156618	-0.050817
1318	6.5850e-01	-12.6349	-104.392724	0.000667	6.668396	2.259314	-0.053237
1319	6.5900e-01	-12.6718	-104.699240	0.000768	7.678759	2.601634	-0.061303
1320	6.5950e-01	-12.7039	-105.021888	0.000808	8.082904	2.738562	-0.064530
1321	6.6000e-01	-12.7488	-105.417131	0.000990	9.901558	3.354739	-0.079049
1322	6.6050e-01	-12.7970	-105.542157	0.000313	3.132125	1.061193	-0.025005
1323	6.6100e-01	-12.8307	-105.759945	0.000546	5.455960	1.848529	-0.043557
1324	6.6150e-01	-12.8708	-106.409274	0.001627	16.266844	5.511356	-0.129866
1325	6.6200e-01	-12.9077	-106.332645	-0.000192	-1.919690	-0.650408	0.015326
1326	6.6250e-01	-12.9478	-106.651259	0.000798	7.981868	2.704330	-0.063723
1327	6.6300e-01	-12.9895	-106.941643	0.000727	7.274614	2.464706	-0.058077
1328	6.6350e-01	-13.0296	-107.373184	0.001081	10.810884	3.662827	-0.086308
1329	6.6400e-01	-13.0633	-107.720031	0.000869	8.689122	2.943954	-0.069369
1330	6.6450e-01	-13.1066	-107.897487	0.000445	4.445597	1.506209	-0.035491
1331	6.6500e-01	-13.1435	-108.123340	0.000566	5.658033	1.916993	-0.045171
1332	6.6550e-01	-13.1948	-108.389525	0.000667	6.668396	2.259314	-0.053237
1333	6.6600e-01	-13.2253	-108.651676	0.000657	6.567360	2.225082	-0.052430
1334	6.6650e-01	-13.2686	-108.861397	0.000525	5.253888	1.780065	-0.041944
1335	6.6700e-01	-13.3135	-109.212277	0.000879	8.790158	2.978186	-0.070176
1336	6.6750e-01	-13.3520	-109.498627	0.000717	7.173577	2.430474	-0.057270
1337	6.6800e-01	-13.3921	-109.748679	0.000626	6.264251	2.122386	-0.050010
1338	6.6850e-01	-13.4242	-110.232651	0.001212	12.124356	4.107843	-0.096794
1339	6.6900e-01	-13.4707	-110.426240	0.000485	4.849742	1.643137	-0.038718
1340	6.6950e-01	-13.5092	-110.680325	0.000637	6.365287	2.156618	-0.050817
1341	6.7000e-01	-13.5510	-111.087668	0.001020	10.204666	3.457435	-0.081469
1342	6.7050e-01	-13.5782	-111.200595	0.000283	2.829016	0.958497	-0.022585
1343	6.7100e-01	-13.6328	-111.511143	0.000778	7.779795	2.635866	-0.062110
1344	6.7150e-01	-13.6649	-111.910420	0.001000	10.002594	3.388971	-0.079855
1345	6.7200e-01	-13.7162	-111.987049	0.000192	1.919690	0.650408	-0.015326
1346	6.7250e-01	-13.7483	-112.422624	0.001091	10.911921	3.697059	-0.087115
1347	6.7300e-01	-13.7884	-112.773503	0.000879	8.790158	2.978186	-0.070176
1348	6.7350e-01	-13.8253	-112.971125	0.000495	4.950779	1.677369	-0.039524
1349	6.7400e-01	-13.8750	-113.334104	0.000909	9.093267	3.080882	-0.072596
1350	6.7450e-01	-13.9087	-113.680950	0.000869	8.689122	2.943954	-0.069369
1351	6.7500e-01	-13.9472	-114.031830	0.000879	8.790158	2.978186	-0.070176
1352	6.7550e-01	-13.9905	-113.898738	-0.000333	-3.334198	-1.129657	0.026618
1353	6.7600e-01	-14.0290	-114.197187	0.000748	7.476686	2.533170	-0.059690
1354	6.7650e-01	-14.0643	-114.660993	0.001162	11.619175	3.936683	-0.092761
1355	6.7700e-01	-14.1140	-114.959443	0.000748	7.476686	2.533170	-0.059690
1356	6.7750e-01	-14.1509	-115.169164	0.000525	5.253888	1.780065	-0.041944
1357	6.7800e-01	-14.1814	-115.415183	0.000616	6.163214	2.088154	-0.049204
1358	6.7850e-01	-14.2344	-115.520043	0.000263	2.626944	0.890033	-0.020972
1359	6.7900e-01	-14.2680	-115.826559	0.000768	7.678759	2.601634	-0.061303
1360	6.7950e-01	-14.3049	-116.205670	0.000950	9.497412	3.217810	-0.075822
1361	6.8000e-01	-14.3467	-116.512186	0.000768	7.678759	2.601634	-0.061303
1362	6.8050e-01	-14.3868	-116.927595	0.001041	10.406739	3.525899	-0.083082
1363	6.8100e-01	-14.4365	-117.181680	0.000637	6.365287	2.156618	-0.050817
1364	6.8150e-01	-14.4670	-117.330905	0.000374	3.738343	1.266585	-0.029845
1365	6.8200e-01	-14.5039	-117.532559	0.000505	5.051815	1.711601	-0.040331
1366	6.8250e-01	-14.5408	-117.847141	0.000788	7.880831	2.670098	-0.062916
1367	6.8300e-01	-14.5889	-118.262550	0.001041	10.406739	3.525899	-0.083082
1368	6.8350e-01	-14.6338	-118.440007	0.000445	4.445597	1.506209	-0.035491
1369	6.8400e-01	-14.6755	-118.613430	0.000434	4.344561	1.471977	-0.034685
1370	6.8450e-01	-14.7028	-118.980442	0.000919	9.194303	3.115114	-0.073402
1371	6.8500e-01	-14.7461	-119.319222	0.000849	8.487049	2.875490	-0.067756
1372	6.8550e-01	-14.7862	-119.617671	0.000748	7.476686	2.533170	-0.059690
1373	6.8600e-01	-14.8215	-119.972584	0.000889	8.891195	3.012418	-0.070983
1374	6.8650e-01	-14.8696	-120.093577	0.000303	3.031089	1.026961	-0.024199
1375	6.8700e-01	-14.9065	-120.480755	0.000970	9.699485	3.286274	-0.077435
1376	6.8750e-01	-14.9402	-120.609814	0.000323	3.233162	1.095425	-0.025812
1377	6.8800e-01	-14.9739	-120.904230	0.000738	7.375650	2.498938	-0.058883
1378	6.8850e-01	-15.0365	-121.456764	0.001384	13.841973	4.689787	-0.110507
1379	6.8900e-01	-15.0654	-121.666486	0.000525	5.253888	1.780065	-0.041944
1380	6.8950e-01	-15.1087	-121.900405	0.000586	5.860105	1.985457	-0.046784
1381	6.9000e-01	-15.1359	-122.110126	0.000525	5.253888	1.780065	-0.041944
1382	6.9050e-01	-15.1889	-122.356145	0.000616	6.163214	2.088154	-0.049204
1383	6.9100e-01	-15.2290	-122.501337	0.000364	3.637307	1.232353	-0.029038
1384	6.9150e-01	-15.2771	-122.912713	0.001031	10.305703	3.491667	-0.082275
1385	6.9200e-01	-15.3156	-123.251493	0.000849	8.487049	2.875490	-0.067756
1386	6.9250e-01	-15.3477	-123.384586	0.000333	3.334198	1.129657	-0.026618
1387	6.9300e-01	-15.3958	-123.739498	0.000889	8.891195	3.012418	-0.070983
1388	6.9350e-01	-15.4231	-123.961319	0.000556	5.556997	1.882761	-0.044364
1389	6.9400e-01	-15.4776	-124.223470	0.000657	6.567360	2.225082	-0.052430
1390	6.9450e-01	-15.5081	-124.521919	0.000748	7.476686	2.533170	-0.059690
1391	6.9500e-01	-15.5514	-124.683243	0.000404	4.041452	1.369281	-0.032265
1392	6.9550e-01	-15.5883	-124.957494	0.000687	6.870468	2.327778	-0.054850
1393	6.9600e-01	-15.6268	-125.255943	0.000748	7.476686	2.533170	-0.059690
1394	6.9650e-01	-15.6621	-125.518095	0.000657	6.567360	2.225082	-0.052430
1395	6.9700e-01	-15.7119	-125.925438	0.001020	10.204666	3.457435	-0.081469
1396	6.9750e-01	-15.7471	-126.187589	0.000657	6.567360	2.225082	-0.052430
1397	6.9800e-01	-15.7889	-126.417476	0.000576	5.759069	1.951225	-0.045977
1398	6.9850e-01	-15.8258	-126.530402	0.000283	2.829016	0.958497	-0.022585
1399	6.9900e-01	-15.8691	-126.909514	0.000950	9.497412	3.217810	-0.075822
1400	6.9950e-01	-15.9044	-127.155533	0.000616	6.163214	2.088154	-0.049204
1401	7.0000e-01	-15.9445	-127.518512	0.000909	9.093267	3.080882	-0.072596
1402	7.0050e-01	-15.9830	-127.877457	0.000899	8.992231	3.046650	-0.071789
1403	7.0100e-01	-16.0279	-128.119443	0.000606	6.062178	2.053922	-0.048397
1404	7.0150e-01	-16.0632	-128.550985	0.001081	10.810884	3.662827	-0.086308
1405	7.0200e-01	-16.1081	-128.764739	0.000535	5.354924	1.814297	-0.042751
1406	7.0250e-01	-16.1466	-128.877666	0.000283	2.829016	0.958497	-0.022585
1407	7.0300e-01	-16.1867	-128.998659	0.000303	3.031089	1.026961	-0.024199
1408	7.0350e-01	-16.2316	-129.369704	0.000930	9.295340	3.149346	-0.074209
1409	7.0400e-01	-16.2637	-129.692352	0.000808	8.082904	2.738562	-0.064530
1410	7.0450e-01	-16.3070	-129.865775	0.000434	4.344561	1.471977	-0.034685
1411	7.0500e-01	-16.3471	-130.184390	0.000798	7.981868	2.704330	-0.063723
1412	7.0550e-01	-16.3840	-130.543336	0.000899	8.992231	3.046650	-0.071789
1413	7.0600e-01	-16.4322	-130.628031	0.000212	2.121762	0.718873	-0.016939
1414	7.0650e-01	-16.4658	-131.180565	0.001384	13.841973	4.689787	-0.110507
1415	7.0700e-01	-16.5011	-131.277360	0.000242	2.424871	0.821569	-0.019359
1416	7.0750e-01	-16.5557	-131.438683	0.000404	4.041452	1.369281	-0.032265
1417	7.0800e-01	-16.5878	-131.668570	0.000576	5.759069	1.951225	-0.045977
1418	7.0850e-01	-16.6263	-131.991218	0.000808	8.082904	2.738562	-0.064530
1419	7.0900e-01	-16.6728	-132.313866	0.000808	8.082904	2.738562	-0.064530
1420	7.0950e-01	-16.7113	-132.584083	0.000677	6.769432	2.293546	-0.054044
1421	7.1000e-01	-16.7530	-133.031757	0.001122	11.215029	3.799755	-0.089535
1422	7.1050e-01	-16.7899	-133.205181	0.000434	4.344561	1.471977	-0.034685
1423	7.1100e-01	-16.8268	-133.358438	0.000384	3.839379	1.300817	-0.030652
1424	7.1150e-01	-16.8733	-133.612524	0.000637	6.365287	2.156618	-0.050817
1425	7.1200e-01	-16.9038	-133.733517	0.000303	3.031089	1.026961	-0.024199
1426	7.1250e-01	-16.9487	-134.233621	0.001253	12.528501	4.244771	-0.100021
1427	7.1300e-01	-16.9856	-134.536103	0.000758	7.577723	2.567402	-0.060496
1428	7.1350e-01	-17.0289	-134.725659	0.000475	4.748706	1.608905	-0.037911
1429	7.1400e-01	-17.0642	-135.032174	0.000768	7.678759	2.601634	-0.061303
1430	7.1450e-01	-17.1059	-135.374988	0.000859	8.588086	2.909722	-0.068563
1431	7.1500e-01	-17.1525	-135.568576	0.000485	4.849742	1.643137	-0.038718
1432	7.1550e-01	-17.1990	-135.762165	0.000485	4.849742	1.643137	-0.038718
1433	7.1600e-01	-17.2263	-135.967853	0.000515	5.152851	1.745833	-0.041138
1434	7.1650e-01	-17.2664	-136.310667	0.000859	8.588086	2.909722	-0.068563
1435	7.1700e-01	-17.3081	-136.540553	0.000576	5.759069	1.951225	-0.045977
1436	7.1750e-01	-17.3578	-136.762374	0.000556	5.556997	1.882761	-0.044364
1437	7.1800e-01	-17.3835	-137.286676	0.001313	13.134719	4.450163	-0.104861
1438	7.1850e-01	-17.4252	-137.254412	-0.000081	-0.808290	-0.273856	0.006453
1439	7.1900e-01	-17.4717	-137.552861	0.000748	7.476686	2.533170	-0.059690
1440	7.1950e-01	-17.5150	-137.883575	0.000828	8.284977	2.807026	-0.066143
1441	7.2000e-01	-17.5471	-138.101362	0.000546	5.455960	1.848529	-0.043557
1442	7.2050e-01	-17.5968	-138.411911	0.000778	7.779795	2.635866	-0.062110
1443	7.2100e-01	-17.6337	-138.665996	0.000637	6.365287	2.156618	-0.050817
1444	7.2150e-01	-17.6754	-138.976545	0.000778	7.779795	2.635866	-0.062110
1445	7.2200e-01	-17.7091	-139.214498	0.000596	5.961142	2.019690	-0.047591
1446	7.2250e-01	-17.7556	-139.428252	0.000535	5.354924	1.814297	-0.042751
1447	7.2300e-01	-17.8070	-139.742833	0.000788	7.880831	2.670098	-0.062916
1448	7.2350e-01	-17.8327	-139.948521	0.000515	5.152851	1.745833	-0.041138
1449	7.2400e-01	-17.8712	-140.214706	0.000667	6.668396	2.259314	-0.053237
1450	7.2450e-01	-17.9193	-140.501056	0.000717	7.173577	2.430474	-0.057270
1451	7.2500e-01	-17.9562	-140.835803	0.000839	8.386013	2.841258	-0.066949
1452	7.2550e-01	-17.9979	-141.033425	0.000495	4.950779	1.677369	-0.039524
1453	7.2600e-01	-18.0252	-141.348007	0.000788	7.880831	2.670098	-0.062916
1454	7.2650e-01	-18.0685	-141.614191	0.000667	6.668396	2.259314	-0.053237
1455	7.2700e-01	-18.1070	-141.811813	0.000495	4.950779	1.677369	-0.039524
1456	7.2750e-01	-18.1487	-141.997336	0.000465	4.647670	1.574673	-0.037105
1457	7.2800e-01	-18.1856	-142.360314	0.000909	9.093267	3.080882	-0.072596
1458	7.2850e-01	-18.2289	-142.654731	0.000738	7.375650	2.498938	-0.058883
1459	7.2900e-01	-18.2690	-142.953180	0.000748	7.476686	2.533170	-0.059690
1460	7.2950e-01	-18.3091	-143.086272	0.000333	3.334198	1.129657	-0.026618
1461	7.3000e-01	-18.3460	-143.271795	0.000465	4.647670	1.574673	-0.037105
1462	7.3050e-01	-18.3909	-143.715436	0.001111	11.113993	3.765523	-0.088728
1463	7.3100e-01	-18.4294	-143.977587	0.000657	6.567360	2.225082	-0.052430
1464	7.3150e-01	-18.4663	-144.151010	0.000434	4.344561	1.471977	-0.034685
1465	7.3200e-01	-18.5112	-144.461559	0.000778	7.779795	2.635866	-0.062110
1466	7.3250e-01	-18.5530	-144.840670	0.000950	9.497412	3.217810	-0.075822
1467	7.3300e-01	-18.6011	-144.909233	0.000172	1.717617	0.581944	-0.013713
1468	7.3350e-01	-18.6332	-145.288344	0.000950	9.497412	3.217810	-0.075822
1469	7.3400e-01	-18.6717	-145.538396	0.000626	6.264251	2.122386	-0.050010
1470	7.3450e-01	-18.7070	-145.731985	0.000485	4.849742	1.643137	-0.038718
1471	7.3500e-01	-18.7439	-146.050600	0.000798	7.981868	2.704330	-0.063723
1472	7.3550e-01	-18.7920	-146.304685	0.000637	6.365287	2.156618	-0.050817
1473	7.3600e-01	-18.8353	-146.695895	0.000980	9.800521	3.320506	-0.078242
1474	7.3650e-01	-18.8642	-147.034676	0.000849	8.487049	2.875490	-0.067756
1475	7.3700e-01	-18.9155	-147.139536	0.000263	2.626944	0.890033	-0.020972
1476	7.3750e-01	-18.9524	-147.216165	0.000192	1.919690	0.650408	-0.015326
1477	7.3800e-01	-19.0053	-147.530747	0.000788	7.880831	2.670098	-0.062916
1478	7.3850e-01	-19.0438	-147.821130	0.000727	7.274614	2.464706	-0.058077
1479	7.3900e-01	-19.0791	-148.119579	0.000748	7.476686	2.533170	-0.059690
1480	7.3950e-01	-19.1064	-148.522889	0.001010	10.103630	3.423203	-0.080662
1481	7.4000e-01	-19.1529	-148.861669	0.000849	8.487049	2.875490	-0.067756
1482	7.4050e-01	-19.1834	-149.002828	0.000354	3.536271	1.198121	-0.028232
1483	7.4100e-01	-19.2299	-149.337575	0.000839	8.386013	2.841258	-0.066949
1484	7.4150e-01	-19.2636	-149.369840	0.000081	0.808290	0.273856	-0.006453
1485	7.4200e-01	-19.3085	-149.902209	0.001334	13.336792	4.518627	-0.106474
1486	7.4250e-01	-19.3535	-150.107897	0.000515	5.152851	1.745833	-0.041138
1487	7.4300e-01	-19.3904	-150.245022	0.000344	3.435234	1.163889	-0.027425
1488	7.4350e-01	-19.4241	-150.527339	0.000707	7.072541	2.396242	-0.056463
1489	7.4400e-01	-19.4658	-150.741093	0.000535	5.354924	1.814297	-0.042751
1490	7.4450e-01	-19.5059	-151.039543	0.000748	7.476686	2.533170	-0.059690
1491	7.4500e-01	-19.5444	-151.418654	0.000950	9.497412	3.217810	-0.075822
1492	7.4550e-01	-19.5861	-151.785666	0.000919	9.194303	3.115114	-0.073402
1493	7.4600e-01	-19.6374	-151.854229	0.000172	1.717617	0.581944	-0.013713
1494	7.4650e-01	-19.6647	-152.188976	0.000839	8.386013	2.841258	-0.066949
1495	7.4700e-01	-19.7048	-152.382564	0.000485	4.849742	1.643137	-0.038718
1496	7.4750e-01	-19.7513	-152.733444	0.000879	8.790158	2.978186	-0.070176
1497	7.4800e-01	-19.7898	-153.019794	0.000717	7.173577	2.430474	-0.057270
1498	7.4850e-01	-19.8251	-153.225482	0.000515	5.152851	1.745833	-0.041138
1499	7.4900e-01	-19.8748	-153.511832	0.000717	7.173577	2.430474	-0.057270
1500	7.4950e-01	-19.9069	-153.806248	0.000738	7.375650	2.498938	-0.058883
1501	7.5000e-01	-19.9583	-154.052267	0.000616	6.163214	2.088154	-0.049204
1502	7.5050e-01	-19.9551	-154.169227	-0.000293	-2.930053	-0.992729	-0.023392
1503	7.5100e-01	-19.9406	-154.011936	0.000394	3.940416	1.335049	0.031458
1504	7.5150e-01	-19.9005	-153.955473	0.000141	1.414508	0.479248	0.011293
1505	7.5200e-01	-19.8684	-153.713487	0.000606	6.062178	2.053922	0.048397
1506	7.5250e-01	-19.8203	-153.822381	-0.000273	-2.727980	-0.924265	-0.021779
1507	7.5300e-01	-19.7834	-153.544097	0.000697	6.971505	2.362010	0.055657
1508	7.5350e-01	-19.7465	-153.334376	0.000525	5.253888	1.780065	0.041944
1509	7.5400e-01	-19.7016	-153.193217	0.000354	3.536271	1.198121	0.028232
1510	7.5450e-01	-19.6567	-153.039960	0.000384	3.839379	1.300817	0.030652
1511	7.5500e-01	-19.6230	-152.931066	0.000273	2.727980	0.924265	0.021779
1512	7.5550e-01	-19.5748	-152.797974	0.000333	3.334198	1.129657	0.026618
1513	7.5600e-01	-19.5476	-152.713279	0.000212	2.121762	0.718873	0.016939
1514	7.5650e-01	-19.4978	-152.418862	0.000738	7.375650	2.498938	0.058883
1515	7.5700e-01	-19.4609	-152.467260	-0.000121	-1.212436	-0.410784	-0.009679
1516	7.5750e-01	-19.4192	-152.386598	0.000202	2.020726	0.684641	0.016132
1517	7.5800e-01	-19.3759	-152.080082	0.000768	7.678759	2.601634	0.061303
1518	7.5850e-01	-19.3487	-151.507382	0.001435	14.347155	4.860948	0.114540
1519	7.5900e-01	-19.3021	-151.612243	-0.000263	-2.626944	-0.890033	-0.020972
1520	7.5950e-01	-19.2588	-151.584011	0.000071	0.707254	0.239624	0.005646
1521	7.6000e-01	-19.2203	-151.321860	0.000657	6.567360	2.225082	0.052430
1522	7.6050e-01	-19.1834	-151.075841	0.000616	6.163214	2.088154	0.049204
1523	7.6100e-01	-19.1385	-151.148436	-0.000182	-1.818653	-0.616176	-0.014519
1524	7.6150e-01	-19.0984	-150.712862	0.001091	10.911921	3.697059	0.087115
1525	7.6200e-01	-19.0583	-150.724961	-0.000030	-0.303109	-0.102696	-0.002420
1526	7.6250e-01	-19.0262	-150.442644	0.000707	7.072541	2.396242	0.056463
1527	7.6300e-01	-18.9877	-150.261155	0.000455	4.546634	1.540441	0.036298
1528	7.6350e-01	-18.9428	-149.938507	0.000808	8.082904	2.738562	0.064530
1529	7.6400e-01	-18.9059	-149.740885	0.000495	4.950779	1.677369	0.039524
1530	7.6450e-01	-18.8610	-149.575528	0.000414	4.142488	1.403513	0.033071
1531	7.6500e-01	-18.8209	-149.426303	0.000374	3.738343	1.266585	0.029845
1532	7.6550e-01	-18.7759	-149.317410	0.000273	2.727980	0.924265	0.021779
1533	7.6600e-01	-18.7471	-148.966530	0.000879	8.790158	2.978186	0.070176
1534	7.6650e-01	-18.7005	-149.002828	-0.000091	-0.909327	-0.308088	-0.007260
1535	7.6700e-01	-18.6620	-148.768908	0.000586	5.860105	1.985457	0.046784
1536	7.6750e-01	-18.6284	-148.413995	0.000889	8.891195	3.012418	0.070983
1537	7.6800e-01	-18.5882	-148.329300	0.000212	2.121762	0.718873	0.016939
1538	7.6850e-01	-18.5513	-148.317201	0.000030	0.303109	0.102696	0.002420
1539	7.6900e-01	-18.5000	-147.954222	0.000909	9.093267	3.080882	0.072596
1540	7.6950e-01	-18.4583	-147.938090	0.000040	0.404145	0.136928	0.003226
1541	7.7000e-01	-18.4182	-147.546879	0.000980	9.800521	3.320506	0.078242
1542	7.7050e-01	-18.3829	-147.409754	0.000344	3.435234	1.163889	0.027425
1543	7.7100e-01	-18.3396	-147.349257	0.000152	1.515545	0.513480	0.012099
1544	7.7150e-01	-18.2931	-147.191967	0.000394	3.940416	1.335049	0.031458
1545	7.7200e-01	-18.2562	-146.909650	0.000707	7.072541	2.396242	0.056463
1546	7.7250e-01	-18.2241	-146.671697	0.000596	5.961142	2.019690	0.047591
1547	7.7300e-01	-18.1920	-146.357115	0.000788	7.880831	2.670098	0.062916
1548	7.7350e-01	-18.1439	-146.276453	0.000202	2.020726	0.684641	0.016132
1549	7.7400e-01	-18.1022	-146.163526	0.000283	2.829016	0.958497	0.022585
1550	7.7450e-01	-18.0476	-145.921541	0.000606	6.062178	2.053922	0.048397
1551	7.7500e-01	-18.0284	-145.804581	0.000293	2.930053	0.992729	0.023392
1552	7.7550e-01	-17.9867	-145.586793	0.000546	5.455960	1.848529	0.043557
1553	7.7600e-01	-17.9514	-145.308510	0.000697	6.971505	2.362010	0.055657
1554	7.7650e-01	-17.8936	-145.175417	0.000333	3.334198	1.129657	0.026618
1555	7.7700e-01	-17.8615	-144.917299	0.000647	6.466323	2.190850	0.051624
1556	7.7750e-01	-17.8102	-144.788240	0.000323	3.233162	1.095425	0.025812
1557	7.7800e-01	-17.7765	-144.457526	0.000828	8.284977	2.807026	0.066143
1558	7.7850e-01	-17.7428	-144.288136	0.000424	4.243525	1.437745	0.033878
1559	7.7900e-01	-17.7043	-144.110679	0.000445	4.445597	1.506209	0.035491
1560	7.7950e-01	-17.6626	-143.904991	0.000515	5.152851	1.745833	0.041138
1561	7.8000e-01	-17.6129	-143.598476	0.000768	7.678759	2.601634	0.061303
1562	7.8050e-01	-17.5744	-143.469417	0.000323	3.233162	1.095425	0.025812
1563	7.8100e-01	-17.5391	-143.356490	0.000283	2.829016	0.958497	0.022585
1564	7.8150e-01	-17.4974	-143.275828	0.000202	2.020726	0.684641	0.016132
1565	7.8200e-01	-17.4605	-143.009643	0.000667	6.668396	2.259314	0.053237
1566	7.8250e-01	-17.4172	-142.957213	0.000131	1.313472	0.445016	0.010486
1567	7.8300e-01	-17.3754	-142.360314	0.001495	14.953373	5.066340	0.119380
1568	7.8350e-01	-17.3402	-142.336116	0.000061	0.606218	0.205392	0.004840
1569	7.8400e-01	-17.3081	-142.041700	0.000738	7.375650	2.498938	0.058883
1570	7.8450e-01	-17.2648	-141.815846	0.000566	5.658033	1.916993	0.045171
1571	7.8500e-01	-17.2150	-141.682754	0.000333	3.334198	1.129657	0.026618
1572	7.8550e-01	-17.1797	-141.416569	0.000667	6.668396	2.259314	0.053237
1573	7.8600e-01	-17.1284	-141.247179	0.000424	4.243525	1.437745	0.033878
1574	7.8650e-01	-17.0995	-141.134252	0.000283	2.829016	0.958497	0.022585
1575	7.8700e-01	-17.0578	-140.916465	0.000546	5.455960	1.848529	0.043557
1576	7.8750e-01	-17.0225	-140.537354	0.000950	9.497412	3.217810	0.075822
1577	7.8800e-01	-16.9872	-140.275202	0.000657	6.567360	2.225082	0.052430
1578	7.8850e-01	-16.9471	-140.057415	0.000546	5.455960	1.848529	0.043557
1579	7.8900e-01	-16.8974	-139.960621	0.000242	2.424871	0.821569	0.019359
1580	7.8950e-01	-16.8557	-139.767032	0.000485	4.849742	1.643137	0.038718
1581	7.9000e-01	-16.8220	-139.512947	0.000637	6.365287	2.156618	0.050817
1582	7.9050e-01	-16.7787	-139.266928	0.000616	6.163214	2.088154	0.049204
1583	7.9100e-01	-16.7370	-139.166100	0.000253	2.525908	0.855801	0.020165
1584	7.9150e-01	-16.6985	-138.835386	0.000828	8.284977	2.807026	0.066143
1585	7.9200e-01	-16.6616	-138.621632	0.000535	5.354924	1.814297	0.042751
1586	7.9250e-01	-16.6102	-138.464341	0.000394	3.940416	1.335049	0.031458
1587	7.9300e-01	-16.5733	-138.355448	0.000273	2.727980	0.924265	0.021779
1588	7.9350e-01	-16.5477	-138.008601	0.000869	8.689122	2.943954	0.069369
1589	7.9400e-01	-16.4979	-137.762582	0.000616	6.163214	2.088154	0.049204
1590	7.9450e-01	-16.4642	-137.669821	0.000232	2.323835	0.787337	0.018552
1591	7.9500e-01	-16.4225	-137.520596	0.000374	3.738343	1.266585	0.029845
1592	7.9550e-01	-16.3856	-137.189882	0.000828	8.284977	2.807026	0.066143
1593	7.9600e-01	-16.3407	-136.984194	0.000515	5.152851	1.745833	0.041138
1594	7.9650e-01	-16.2990	-136.786572	0.000495	4.950779	1.677369	0.039524
1595	7.9700e-01	-16.2669	-136.568785	0.000546	5.455960	1.848529	0.043557
1596	7.9750e-01	-16.2108	-136.322766	0.000616	6.163214	2.088154	0.049204
1597	7.9800e-01	-16.1787	-136.141276	0.000455	4.546634	1.540441	0.036298
1598	7.9850e-01	-16.1386	-135.822662	0.000798	7.981868	2.704330	0.063723
1599	7.9900e-01	-16.0985	-135.673437	0.000374	3.738343	1.266585	0.029845
1600	7.9950e-01	-16.0600	-135.451617	0.000556	5.556997	1.882761	0.044364
1601	8.0000e-01	-16.0183	-135.141068	0.000778	7.779795	2.635866	0.062110
1602	8.0050e-01	-15.9830	-135.007976	0.000333	3.334198	1.129657	0.026618
1603	8.0100e-01	-15.9477	-134.826486	0.000455	4.546634	1.540441	0.036298
1604	8.0150e-01	-15.9028	-134.519971	0.000768	7.678759	2.601634	0.061303
1605	8.0200e-01	-15.8627	-134.407044	0.000283	2.829016	0.958497	0.022585
1606	8.0250e-01	-15.8209	-134.092462	0.000788	7.880831	2.670098	0.062916
1607	8.0300e-01	-15.7808	-133.915006	0.000445	4.445597	1.506209	0.035491
1608	8.0350e-01	-15.7375	-133.519762	0.000990	9.901558	3.354739	0.079049
1609	8.0400e-01	-15.7054	-133.257611	0.000657	6.567360	2.225082	0.052430
1610	8.0450e-01	-15.6605	-133.124519	0.000333	3.334198	1.129657	0.026618
1611	8.0500e-01	-15.6220	-132.983360	0.000354	3.536271	1.198121	0.028232
1612	8.0550e-01	-15.5771	-132.898665	0.000212	2.121762	0.718873	0.016939
1613	8.0600e-01	-15.5402	-132.515521	0.000960	9.598449	3.252042	0.076629
1614	8.0650e-01	-15.4857	-132.213038	0.000758	7.577723	2.567402	0.060496
1615	8.0700e-01	-15.4600	-132.128343	0.000212	2.121762	0.718873	0.016939
1616	8.0750e-01	-15.4199	-131.793596	0.000839	8.386013	2.841258	0.066949
1617	8.0800e-01	-15.3798	-131.636305	0.000394	3.940416	1.335049	0.031458
1618	8.0850e-01	-15.3365	-131.394319	0.000606	6.062178	2.053922	0.048397
1619	8.0900e-01	-15.2964	-130.914381	0.001202	12.023320	4.073611	0.095988
1620	8.0950e-01	-15.2579	-130.736924	0.000445	4.445597	1.506209	0.035491
1621	8.1000e-01	-15.2161	-130.728858	0.000020	0.202073	0.068464	0.001613
1622	8.1050e-01	-15.1825	-130.547369	0.000455	4.546634	1.540441	0.036298
1623	8.1100e-01	-15.1391	-130.357813	0.000475	4.748706	1.608905	0.037911
1624	8.1150e-01	-15.0958	-129.942404	0.001041	10.406739	3.525899	0.083082
1625	8.1200e-01	-15.0557	-129.756881	0.000465	4.647670	1.574673	0.037105
1626	8.1250e-01	-15.0220	-129.543127	0.000535	5.354924	1.814297	0.042751
1627	8.1300e-01	-14.9819	-129.454399	0.000222	2.222799	0.753105	0.017746
1628	8.1350e-01	-14.9466	-128.962361	0.001233	12.326429	4.176307	0.098408
1629	8.1400e-01	-14.9017	-128.772805	0.000475	4.748706	1.608905	0.037911
1630	8.1450e-01	-14.8600	-128.450157	0.000808	8.082904	2.738562	0.064530
1631	8.1500e-01	-14.8215	-128.276734	0.000434	4.344561	1.471977	0.034685
1632	8.1550e-01	-14.7798	-128.216238	0.000152	1.515545	0.513480	0.012099
1633	8.1600e-01	-14.7445	-128.087179	0.000323	3.233162	1.095425	0.025812
1634	8.1650e-01	-14.6964	-127.708067	0.000950	9.497412	3.217810	0.075822
1635	8.1700e-01	-14.6531	-127.510445	0.000495	4.950779	1.677369	0.039524
1636	8.1750e-01	-14.6258	-127.280559	0.000576	5.759069	1.951225	0.045977
1637	8.1800e-01	-14.5793	-127.179731	0.000253	2.525908	0.855801	0.020165
1638	8.1850e-01	-14.5424	-127.058738	0.000303	3.031089	1.026961	0.024199
1639	8.1900e-01	-14.5087	-126.736090	0.000808	8.082904	2.738562	0.064530
1640	8.1950e-01	-14.4686	-126.296483	0.001101	11.012957	3.731291	0.087922
1641	8.2000e-01	-14.4156	-125.921405	0.000940	9.396376	3.183578	0.075016
1642	8.2050e-01	-14.3852	-125.635055	0.000717	7.173577	2.430474	0.057270
1643	8.2100e-01	-14.3483	-125.457598	0.000445	4.445597	1.506209	0.035491
1644	8.2150e-01	-14.3082	-125.372903	0.000212	2.121762	0.718873	0.016939
1645	8.2200e-01	-14.2648	-125.255943	0.000293	2.930053	0.992729	0.023392
1646	8.2250e-01	-14.2183	-124.945395	0.000778	7.779795	2.635866	0.062110
1647	8.2300e-01	-14.1814	-124.715508	0.000576	5.759069	1.951225	0.045977
1648	8.2350e-01	-14.1445	-124.453357	0.000657	6.567360	2.225082	0.052430
1649	8.2400e-01	-14.0996	-124.175073	0.000697	6.971505	2.362010	0.055657
1650	8.2450e-01	-14.0611	-124.066179	0.000273	2.727980	0.924265	0.021779
1651	8.2500e-01	-14.0242	-123.804028	0.000657	6.567360	2.225082	0.052430
1652	8.2550e-01	-13.9809	-123.445082	0.000899	8.992231	3.046650	0.071789
1653	8.2600e-01	-13.9472	-123.247460	0.000495	4.950779	1.677369	0.039524
1654	8.2650e-01	-13.8991	-122.783654	0.001162	11.619175	3.936683	0.092761
1655	8.2700e-01	-13.8542	-122.602164	0.000455	4.546634	1.540441	0.036298
1656	8.2750e-01	-13.8124	-122.323881	0.000697	6.971505	2.362010	0.055657
1657	8.2800e-01	-13.7804	-122.122226	0.000505	5.051815	1.711601	0.040331
1658	8.2850e-01	-13.7419	-122.053663	0.000172	1.717617	0.581944	0.013713
1659	8.2900e-01	-13.7066	-121.706817	0.000869	8.689122	2.943954	0.069369
1660	8.2950e-01	-13.6568	-121.484996	0.000556	5.556997	1.882761	0.044364
1661	8.3000e-01	-13.6231	-121.255109	0.000576	5.759069	1.951225	0.045977
1662	8.3050e-01	-13.5750	-121.323672	-0.000172	-1.717617	-0.581944	-0.013713
1663	8.3100e-01	-13.5381	-120.867932	0.001142	11.417102	3.868219	0.091148
1664	8.3150e-01	-13.4948	-120.533185	0.000839	8.386013	2.841258	0.066949
1665	8.3200e-01	-13.4643	-120.097610	0.001091	10.911921	3.697059	0.087115
1666	8.3250e-01	-13.4242	-119.952419	0.000364	3.637307	1.232353	0.029038
1667	8.3300e-01	-13.3825	-119.964518	-0.000030	-0.303109	-0.102696	-0.002420
1668	8.3350e-01	-13.3456	-119.690267	0.000687	6.870468	2.327778	0.054850
1669	8.3400e-01	-13.3055	-119.109501	0.001455	14.549227	4.929412	0.116153
1670	8.3450e-01	-13.2590	-119.020773	0.000222	2.222799	0.753105	0.017746
1671	8.3500e-01	-13.2205	-118.919945	0.000253	2.525908	0.855801	0.020165
1672	8.3550e-01	-13.1788	-118.456139	0.001162	11.619175	3.936683	0.092761
1673	8.3600e-01	-13.1339	-118.488404	-0.000081	-0.808290	-0.273856	-0.006453
1674	8.3650e-01	-13.1050	-118.109293	0.000950	9.497412	3.217810	0.075822
1675	8.3700e-01	-13.0569	-117.859240	0.000626	6.264251	2.122386	0.050010
1676	8.3750e-01	-13.0167	-117.701950	0.000394	3.940416	1.335049	0.031458
1677	8.3800e-01	-12.9831	-117.411567	0.000727	7.274614	2.464706	0.058077
1678	8.3850e-01	-12.9397	-117.145382	0.000667	6.668396	2.259314	0.053237
1679	8.3900e-01	-12.8996	-116.717874	0.001071	10.709848	3.628595	0.085502
1680	8.3950e-01	-12.8611	-116.508152	0.000525	5.253888	1.780065	0.041944
1681	8.4000e-01	-12.8290	-116.423457	0.000212	2.121762	0.718873	0.016939
1682	8.4050e-01	-12.7809	-116.120975	0.000758	7.577723	2.567402	0.060496
1683	8.4100e-01	-12.7376	-115.806393	0.000788	7.880831	2.670098	0.062916
1684	8.4150e-01	-12.7007	-115.802360	0.000010	0.101036	0.034232	0.000807
1685	8.4200e-01	-12.6542	-115.528109	0.000687	6.870468	2.327778	0.054850
1686	8.4250e-01	-12.6189	-115.249826	0.000697	6.971505	2.362010	0.055657
1687	8.4300e-01	-12.5852	-115.209495	0.000101	1.010363	0.342320	0.008066
1688	8.4350e-01	-12.5483	-114.660993	0.001374	13.740937	4.655555	0.109700
1689	8.4400e-01	-12.4922	-114.414974	0.000616	6.163214	2.088154	0.049204
1690	8.4450e-01	-12.4601	-114.233485	0.000455	4.546634	1.540441	0.036298
1691	8.4500e-01	-12.4184	-114.189121	0.000111	1.111399	0.376552	0.008873
1692	8.4550e-01	-12.3831	-113.628520	0.001404	14.044046	4.758252	0.112120
1693	8.4600e-01	-12.3349	-113.398633	0.000576	5.759069	1.951225	0.045977
1694	8.4650e-01	-12.2948	-113.229243	0.000424	4.243525	1.437745	0.033878
1695	8.4700e-01	-12.2644	-112.910628	0.000798	7.981868	2.704330	0.063723
1696	8.4750e-01	-12.2114	-112.721073	0.000475	4.748706	1.608905	0.037911
1697	8.4800e-01	-12.1761	-112.543616	0.000445	4.445597	1.506209	0.035491
1698	8.4850e-01	-12.1408	-112.249200	0.000738	7.375650	2.498938	0.058883
1699	8.4900e-01	-12.0991	-111.906387	0.000859	8.588086	2.909722	0.068563
1700	8.4950e-01	-12.0638	-111.712798	0.000485	4.849742	1.643137	0.038718
1701	8.5000e-01	-12.0285	-111.402250	0.000778	7.779795	2.635866	0.062110
1702	8.5050e-01	-11.9772	-111.123966	0.000697	6.971505	2.362010	0.055657
1703	8.5100e-01	-11.9483	-110.716623	0.001020	10.204666	3.457435	0.081469
1704	8.5150e-01	-11.9034	-110.732755	-0.000040	-0.404145	-0.136928	-0.003226
1705	8.5200e-01	-11.8729	-110.551266	0.000455	4.546634	1.540441	0.036298
1706	8.5250e-01	-11.8232	-110.244750	0.000768	7.678759	2.601634	0.061303
1707	8.5300e-01	-11.7767	-110.107625	0.000344	3.435234	1.163889	0.027425
1708	8.5350e-01	-11.7398	-109.510726	0.001495	14.953373	5.066340	0.119380
1709	8.5400e-01	-11.7029	-109.212277	0.000748	7.476686	2.533170	0.059690
1710	8.5450e-01	-11.6628	-108.768636	0.001111	11.113993	3.765523	0.088728
1711	8.5500e-01	-11.6179	-108.667809	0.000253	2.525908	0.855801	0.020165
1712	8.5550e-01	-11.5826	-108.494386	0.000434	4.344561	1.471977	0.034685
1713	8.5600e-01	-11.5473	-108.220135	0.000687	6.870468	2.327778	0.054850
1714	8.5650e-01	-11.5072	-108.054778	0.000414	4.142488	1.403513	0.033071
1715	8.5700e-01	-11.4687	-107.845057	0.000525	5.253888	1.780065	0.041944
1716	8.5750e-01	-11.4205	-107.538541	0.000768	7.678759	2.601634	0.061303
1717	8.5800e-01	-11.3901	-107.348985	0.000475	4.748706	1.608905	0.037911
1718	8.5850e-01	-11.3291	-107.026338	0.000808	8.082904	2.738562	0.064530
1719	8.5900e-01	-11.3018	-106.510101	0.001293	12.932647	4.381699	0.103247
1720	8.5950e-01	-11.2585	-106.368943	0.000354	3.536271	1.198121	0.028232
1721	8.6000e-01	-11.2184	-106.260049	0.000273	2.727980	0.924265	0.021779
1722	8.6050e-01	-11.1879	-106.070493	0.000475	4.748706	1.608905	0.037911
1723	8.6100e-01	-11.1510	-105.768011	0.000758	7.577723	2.567402	0.060496
1724	8.6150e-01	-11.0949	-105.590555	0.000445	4.445597	1.506209	0.035491
1725	8.6200e-01	-11.0676	-105.175145	0.001041	10.406739	3.525899	0.083082
1726	8.6250e-01	-11.0243	-104.844431	0.000828	8.284977	2.807026	0.066143
1727	8.6300e-01	-10.9842	-104.602445	0.000606	6.062178	2.053922	0.048397
1728	8.6350e-01	-10.9328	-104.521783	0.000202	2.020726	0.684641	0.016132
1729	8.6400e-01	-10.9040	-104.150738	0.000930	9.295340	3.149346	0.074209
1730	8.6450e-01	-10.8526	-103.981348	0.000424	4.243525	1.437745	0.033878
1731	8.6500e-01	-10.8254	-103.582071	0.001000	10.002594	3.388971	0.079855
1732	8.6550e-01	-10.7837	-103.170695	0.001031	10.305703	3.491667	0.082275
1733	8.6600e-01	-10.7339	-102.884345	0.000717	7.173577	2.430474	0.057270
1734	8.6650e-01	-10.7050	-102.674624	0.000525	5.253888	1.780065	0.041944
1735	8.6700e-01	-10.6633	-102.525400	0.000374	3.738343	1.266585	0.029845
1736	8.6750e-01	-10.6184	-102.214851	0.000778	7.779795	2.635866	0.062110
1737	8.6800e-01	-10.5831	-101.702647	0.001283	12.831610	4.347467	0.102441
1738	8.6850e-01	-10.5366	-101.775243	-0.000182	-1.818653	-0.616176	-0.014519
1739	8.6900e-01	-10.5061	-101.460662	0.000788	7.880831	2.670098	0.062916
1740	8.6950e-01	-10.4644	-101.109782	0.000879	8.790158	2.978186	0.070176
1741	8.7000e-01	-10.4179	-100.754869	0.000889	8.891195	3.012418	0.070983
1742	8.7050e-01	-10.3842	-100.452387	0.000758	7.577723	2.567402	0.060496
1743	8.7100e-01	-10.3393	-100.476585	-0.000061	-0.606218	-0.205392	-0.004840
1744	8.7150e-01	-10.2912	-100.073276	0.001010	10.103630	3.423203	0.080662
1745	8.7200e-01	-10.2655	-99.980514	0.000232	2.323835	0.787337	0.018552
1746	8.7250e-01	-10.2158	-99.702231	0.000697	6.971505	2.362010	0.055657
1747	8.7300e-01	-10.1853	-99.399748	0.000758	7.577723	2.567402	0.060496
1748	8.7350e-01	-10.1420	-99.113398	0.000717	7.173577	2.430474	0.057270
1749	8.7400e-01	-10.1019	-98.996438	0.000293	2.930053	0.992729	0.023392
1750	8.7450e-01	-10.0601	-98.790750	0.000515	5.152851	1.745833	0.041138
1751	8.7500e-01	-10.0136	-98.306778	0.001212	12.124356	4.107843	0.096794
1752	8.7550e-01	-9.9863	-97.879270	0.001071	10.709848	3.628595	0.085502
1753	8.7600e-01	-9.9430	-97.645350	0.000586	5.860105	1.985457	0.046784
1754	8.7650e-01	-9.8965	-97.471927	0.000434	4.344561	1.471977	0.034685
1755	8.7700e-01	-9.8612	-97.185577	0.000717	7.173577	2.430474	0.057270
1756	8.7750e-01	-9.8243	-96.822598	0.000909	9.093267	3.080882	0.072596
1757	8.7800e-01	-9.7730	-96.544314	0.000697	6.971505	2.362010	0.055657
1758	8.7850e-01	-9.7377	-96.387023	0.000394	3.940416	1.335049	0.031458
1759	8.7900e-01	-9.7024	-96.157137	0.000576	5.759069	1.951225	0.045977
1760	8.7950e-01	-9.6543	-95.657033	0.001253	12.528501	4.244771	0.100021
1761	8.8000e-01	-9.6190	-95.503775	0.000384	3.839379	1.300817	0.030652
1762	8.8050e-01	-9.5821	-95.499742	0.000010	0.101036	0.034232	0.000807
1763	8.8100e-01	-9.5516	-95.152895	0.000869	8.689122	2.943954	0.069369
1764	8.8150e-01	-9.4971	-94.773784	0.000950	9.497412	3.217810	0.075822
1765	8.8200e-01	-9.4634	-94.515666	0.000647	6.466323	2.190850	0.051624
1766	8.8250e-01	-9.4233	-94.233349	0.000707	7.072541	2.396242	0.056463
1767	8.8300e-01	-9.3816	-93.878436	0.000889	8.891195	3.012418	0.070983
1768	8.8350e-01	-9.3463	-93.555788	0.000808	8.082904	2.738562	0.064530
1769	8.8400e-01	-9.2997	-93.281538	0.000687	6.870468	2.327778	0.054850
1770	8.8450e-01	-9.2580	-92.962923	0.000798	7.981868	2.704330	0.063723
1771	8.8500e-01	-9.2211	-92.801599	0.000404	4.041452	1.369281	0.032265
1772	8.8550e-01	-9.1794	-92.624143	0.000445	4.445597	1.506209	0.035491
1773	8.8600e-01	-9.1361	-92.281329	0.000859	8.588086	2.909722	0.068563
1774	8.8650e-01	-9.0992	-91.990946	0.000727	7.274614	2.464706	0.058077
1775	8.8700e-01	-9.0607	-91.623934	0.000919	9.194303	3.115114	0.073402
1776	8.8750e-01	-9.0270	-91.426312	0.000495	4.950779	1.677369	0.039524
1777	8.8800e-01	-8.9789	-91.119797	0.000768	7.678759	2.601634	0.061303
1778	8.8850e-01	-8.9292	-90.809248	0.000778	7.779795	2.635866	0.062110
1779	8.8900e-01	-8.8971	-90.651957	0.000394	3.940416	1.335049	0.031458
1780	8.8950e-01	-8.8634	-90.180085	0.001182	11.821247	4.005147	0.094375
1781	8.9000e-01	-8.8185	-89.958264	0.000556	5.556997	1.882761	0.044364
1782	8.9050e-01	-8.7735	-89.800973	0.000394	3.940416	1.335049	0.031458
1783	8.9100e-01	-8.7495	-89.526723	0.000687	6.870468	2.327778	0.054850
1784	8.9150e-01	-8.7046	-89.103247	0.001061	10.608812	3.594363	0.084695
1785	8.9200e-01	-8.6661	-88.828997	0.000687	6.870468	2.327778	0.054850
1786	8.9250e-01	-8.6147	-88.901592	-0.000182	-1.818653	-0.616176	-0.014519
1787	8.9300e-01	-8.5875	-88.280495	0.001556	15.559590	5.271732	0.124219
1788	8.9350e-01	-8.5361	-88.111105	0.000424	4.243525	1.437745	0.033878
1789	8.9400e-01	-8.4944	-87.953814	0.000394	3.940416	1.335049	0.031458
1790	8.9450e-01	-8.4591	-87.570670	0.000960	9.598449	3.252042	0.076629
1791	8.9500e-01	-8.4254	-87.308519	0.000657	6.567360	2.225082	0.052430
1792	8.9550e-01	-8.3821	-87.006036	0.000758	7.577723	2.567402	0.060496
1793	8.9600e-01	-8.3468	-86.683388	0.000808	8.082904	2.738562	0.064530
1794	8.9650e-01	-8.3003	-86.300244	0.000960	9.598449	3.252042	0.076629
1795	8.9700e-01	-8.2618	-85.929199	0.000930	9.295340	3.149346	0.074209
1796	8.9750e-01	-8.2249	-85.800140	0.000323	3.233162	1.095425	0.025812
1797	8.9800e-01	-8.1768	-85.425061	0.000940	9.396376	3.183578	0.075016
1798	8.9850e-01	-8.1335	-85.033851	0.000980	9.800521	3.320506	0.078242
1799	8.9900e-01	-8.0982	-84.876560	0.000394	3.940416	1.335049	0.031458
1800	8.9950e-01	-8.0532	-84.674905	0.000505	5.051815	1.711601	0.040331
1801	9.0000e-01	-8.0147	-84.449052	0.000566	5.658033	1.916993	0.045171
1802	9.0050e-01	-7.9730	-84.158669	0.000727	7.274614	2.464706	0.058077
1803	9.0100e-01	-7.9393	-83.735193	0.001061	10.608812	3.594363	0.084695
1804	9.0150e-01	-7.9041	-83.243155	0.001233	12.326429	4.176307	0.098408
1805	9.0200e-01	-7.8623	-83.114096	0.000323	3.233162	1.095425	0.025812
1806	9.0250e-01	-7.8190	-82.682554	0.001081	10.810884	3.662827	0.086308
1807	9.0300e-01	-7.7853	-82.549462	0.000333	3.334198	1.129657	0.026618
1808	9.0350e-01	-7.7420	-82.178417	0.000930	9.295340	3.149346	0.074209
1809	9.0400e-01	-7.6987	-81.932398	0.000616	6.163214	2.088154	0.049204
1810	9.0450e-01	-7.6538	-81.633949	0.000748	7.476686	2.533170	0.059690
1811	9.0500e-01	-7.6185	-81.541188	0.000232	2.323835	0.787337	0.018552
1812	9.0550e-01	-7.5720	-81.033017	0.001273	12.730574	4.313235	0.101634
1813	9.0600e-01	-7.5447	-80.932190	0.000253	2.525908	0.855801	0.020165
1814	9.0650e-01	-7.4966	-80.452251	0.001202	12.023320	4.073611	0.095988
1815	9.0700e-01	-7.4645	-80.339324	0.000283	2.829016	0.958497	0.022585
1816	9.0750e-01	-7.4132	-80.109438	0.000576	5.759069	1.951225	0.045977
1817	9.0800e-01	-7.3698	-79.742426	0.000919	9.194303	3.115114	0.073402
1818	9.0850e-01	-7.3362	-79.443976	0.000748	7.476686	2.533170	0.059690
1819	9.0900e-01	-7.3009	-79.048733	0.000990	9.901558	3.354739	0.079049
1820	9.0950e-01	-7.2592	-78.572827	0.001192	11.922284	4.039379	0.095181
1821	9.1000e-01	-7.2207	-78.375205	0.000495	4.950779	1.677369	0.039524
1822	9.1050e-01	-7.1789	-78.294543	0.000202	2.020726	0.684641	0.016132
1823	9.1100e-01	-7.1420	-77.854935	0.001101	11.012957	3.731291	0.087922
1824	9.1150e-01	-7.1051	-77.604883	0.000626	6.264251	2.122386	0.050010
1825	9.1200e-01	-7.0586	-77.229805	0.000940	9.396376	3.183578	0.075016
1826	9.1250e-01	-7.0169	-76.995885	0.000586	5.860105	1.985457	0.046784
1827	9.1300e-01	-6.9720	-76.858760	0.000344	3.435234	1.163889	0.027425
1828	9.1350e-01	-6.9463	-76.528046	0.000828	8.284977	2.807026	0.066143
1829	9.1400e-01	-6.9062	-76.290093	0.000596	5.961142	2.019690	0.047591
1830	9.1450e-01	-6.8581	-75.959379	0.000828	8.284977	2.807026	0.066143
1831	9.1500e-01	-6.8180	-75.749658	0.000525	5.253888	1.780065	0.041944
1832	9.1550e-01	-6.7923	-75.261653	0.001223	12.225392	4.142075	0.097601
1833	9.1600e-01	-6.7394	-75.088230	0.000434	4.344561	1.471977	0.034685
1834	9.1650e-01	-6.7009	-74.729284	0.000899	8.992231	3.046650	0.071789
1835	9.1700e-01	-6.6576	-74.394537	0.000839	8.386013	2.841258	0.066949
1836	9.1750e-01	-6.6191	-74.152551	0.000606	6.062178	2.053922	0.048397
1837	9.1800e-01	-6.5934	-73.813771	0.000849	8.487049	2.875490	0.067756
1838	9.1850e-01	-6.5356	-73.519354	0.000738	7.375650	2.498938	0.058883
1839	9.1900e-01	-6.5100	-73.144276	0.000940	9.396376	3.183578	0.075016
1840	9.1950e-01	-6.4538	-72.498980	0.001617	16.165808	5.477124	0.129059
1841	9.2000e-01	-6.4314	-72.454616	0.000111	1.111399	0.376552	0.008873
1842	9.2050e-01	-6.3768	-72.390087	0.000162	1.616581	0.547712	0.012906
1843	9.2100e-01	-6.3447	-72.087604	0.000758	7.577723	2.567402	0.060496
1844	9.2150e-01	-6.3046	-71.785122	0.000758	7.577723	2.567402	0.060496
1845	9.2200e-01	-6.2677	-71.289051	0.001243	12.427465	4.210539	0.099214
1846	9.2250e-01	-6.2180	-71.010767	0.000697	6.971505	2.362010	0.055657
1847	9.2300e-01	-6.1763	-70.704252	0.000768	7.678759	2.601634	0.061303
1848	9.2350e-01	-6.1426	-70.466299	0.000596	5.961142	2.019690	0.047591
1849	9.2400e-01	-6.1057	-70.042823	0.001061	10.608812	3.594363	0.084695
1850	9.2450e-01	-6.0592	-69.760507	0.000707	7.072541	2.396242	0.056463
1851	9.2500e-01	-6.0207	-69.599183	0.000404	4.041452	1.369281	0.032265
1852	9.2550e-01	-5.9790	-69.449958	0.000374	3.738343	1.266585	0.029845
1853	9.2600e-01	-5.9357	-69.022449	0.001071	10.709848	3.628595	0.085502
1854	9.2650e-01	-5.9020	-68.752232	0.000677	6.769432	2.293546	0.054044
1855	9.2700e-01	-5.8651	-68.248095	0.001263	12.629538	4.279003	0.100827
1856	9.2750e-01	-5.8298	-67.917380	0.000828	8.284977	2.807026	0.066143
1857	9.2800e-01	-5.7817	-67.816553	0.000253	2.525908	0.855801	0.020165
1858	9.2850e-01	-5.7448	-67.441475	0.000940	9.396376	3.183578	0.075016
1859	9.2900e-01	-5.7047	-67.086562	0.000889	8.891195	3.012418	0.070983
1860	9.2950e-01	-5.6533	-66.820378	0.000667	6.668396	2.259314	0.053237
1861	9.3000e-01	-5.6196	-66.687285	0.000333	3.334198	1.129657	0.026618
1862	9.3050e-01	-5.5779	-66.215413	0.001182	11.821247	4.005147	0.094375
1863	9.3100e-01	-5.5378	-65.969394	0.000616	6.163214	2.088154	0.049204
1864	9.3150e-01	-5.5009	-65.646746	0.000808	8.082904	2.738562	0.064530
1865	9.3200e-01	-5.4640	-65.461223	0.000465	4.647670	1.574673	0.037105
1866	9.3250e-01	-5.4191	-64.969185	0.001233	12.326429	4.176307	0.098408
1867	9.3300e-01	-5.3886	-64.565876	0.001010	10.103630	3.423203	0.080662
1868	9.3350e-01	-5.3469	-64.327923	0.000596	5.961142	2.019690	0.047591
1869	9.3400e-01	-5.2972	-64.166599	0.000404	4.041452	1.369281	0.032265
1870	9.3450e-01	-5.2667	-63.868149	0.000748	7.476686	2.533170	0.059690
1871	9.3500e-01	-5.2250	-63.339814	0.001324	13.235755	4.484395	0.105667
1872	9.3550e-01	-5.1801	-63.198655	0.000354	3.536271	1.198121	0.028232
1873	9.3600e-01	-5.1448	-62.827610	0.000930	9.295340	3.149346	0.074209
1874	9.3650e-01	-5.0902	-62.424300	0.001010	10.103630	3.423203	0.080662
1875	9.3700e-01	-5.0646	-62.202480	0.000556	5.556997	1.882761	0.044364
1876	9.3750e-01	-5.0116	-61.871766	0.000828	8.284977	2.807026	0.066143
1877	9.3800e-01	-4.9827	-61.779004	0.000232	2.323835	0.787337	0.018552
1878	9.3850e-01	-4.9410	-61.403926	0.000940	9.396376	3.183578	0.075016
1879	9.3900e-01	-4.9009	-61.262768	0.000354	3.536271	1.198121	0.028232
1880	9.3950e-01	-4.8705	-60.831226	0.001081	10.810884	3.662827	0.086308
1881	9.4000e-01	-4.8191	-60.335155	0.001243	12.427465	4.210539	0.099214
1882	9.4050e-01	-4.7870	-60.044772	0.000727	7.274614	2.464706	0.058077
1883	9.4100e-01	-4.7421	-59.826985	0.000546	5.455960	1.848529	0.043557
1884	9.4150e-01	-4.6988	-59.322847	0.001263	12.629538	4.279003	0.100827
1885	9.4200e-01	-4.6635	-59.209921	0.000283	2.829016	0.958497	0.022585
1886	9.4250e-01	-4.6218	-58.931637	0.000697	6.971505	2.362010	0.055657
1887	9.4300e-01	-4.5801	-58.568658	0.000909	9.093267	3.080882	0.072596
1888	9.4350e-01	-4.5512	-58.185514	0.000960	9.598449	3.252042	0.076629
1889	9.4400e-01	-4.5015	-57.895130	0.000727	7.274614	2.464706	0.058077
1890	9.4450e-01	-4.4566	-57.628946	0.000667	6.668396	2.259314	0.053237
1891	9.4500e-01	-4.4261	-57.173206	0.001142	11.417102	3.868219	0.091148
1892	9.4550e-01	-4.3844	-57.060279	0.000283	2.829016	0.958497	0.022585
1893	9.4600e-01	-4.3346	-56.781995	0.000697	6.971505	2.362010	0.055657
1894	9.4650e-01	-4.3042	-56.374652	0.001020	10.204666	3.457435	0.081469
1895	9.4700e-01	-4.2576	-56.064104	0.000778	7.779795	2.635866	0.062110
1896	9.4750e-01	-4.2223	-55.584165	0.001202	12.023320	4.073611	0.095988
1897	9.4800e-01	-4.1726	-55.249418	0.000839	8.386013	2.841258	0.066949
1898	9.4850e-01	-4.1485	-55.011465	0.000596	5.961142	2.019690	0.047591
1899	9.4900e-01	-4.1004	-54.757380	0.000637	6.365287	2.156618	0.050817
1900	9.4950e-01	-4.0571	-54.204845	0.001384	13.841973	4.689787	0.110507
1901	9.5000e-01	-4.0266	-53.970925	0.000586	5.860105	1.985457	0.046784
1902	9.5050e-01	-3.9833	-53.410325	0.001404	14.044046	4.758252	0.112120
1903	9.5100e-01	-3.9400	-53.281266	0.000323	3.233162	1.095425	0.025812
1904	9.5150e-01	-3.9063	-53.027180	0.000637	6.365287	2.156618	0.050817
1905	9.5200e-01	-3.8566	-52.619837	0.001020	10.204666	3.457435	0.081469
1906	9.5250e-01	-3.8197	-52.329454	0.000727	7.274614	2.464706	0.058077
1907	9.5300e-01	-3.7828	-51.918078	0.001031	10.305703	3.491667	0.082275
1908	9.5350e-01	-3.7395	-51.736589	0.000455	4.546634	1.540441	0.036298
1909	9.5400e-01	-3.6994	-51.450239	0.000717	7.173577	2.430474	0.057270
1910	9.5450e-01	-3.6721	-51.151790	0.000748	7.476686	2.533170	0.059690
1911	9.5500e-01	-3.6208	-50.917870	0.000586	5.860105	1.985457	0.046784
1912	9.5550e-01	-3.5790	-50.579090	0.000849	8.487049	2.875490	0.067756
1913	9.5600e-01	-3.5486	-50.131416	0.001122	11.215029	3.799755	0.089535
1914	9.5650e-01	-3.5052	-50.010423	0.000303	3.031089	1.026961	0.024199
1915	9.5700e-01	-3.4587	-49.687775	0.000808	8.082904	2.738562	0.064530
1916	9.5750e-01	-3.4266	-49.312697	0.000940	9.396376	3.183578	0.075016
1917	9.5800e-01	-3.3769	-48.731930	0.001455	14.549227	4.929412	0.116153
1918	9.5850e-01	-3.3448	-48.526242	0.000515	5.152851	1.745833	0.041138
1919	9.5900e-01	-3.3047	-48.167297	0.000899	8.992231	3.046650	0.071789
1920	9.5950e-01	-3.2662	-47.884980	0.000707	7.072541	2.396242	0.056463
1921	9.6000e-01	-3.2309	-47.356644	0.001324	13.235755	4.484395	0.105667
1922	9.6050e-01	-3.1796	-47.284048	0.000182	1.818653	0.616176	0.014519
1923	9.6100e-01	-3.1459	-47.086426	0.000495	4.950779	1.677369	0.039524
1924	9.6150e-01	-3.1042	-46.558090	0.001324	13.235755	4.484395	0.105667
1925	9.6200e-01	-3.0609	-46.324171	0.000586	5.860105	1.985457	0.046784
1926	9.6250e-01	-3.0224	-45.953125	0.000930	9.295340	3.149346	0.074209
1927	9.6300e-01	-2.9887	-45.759537	0.000485	4.849742	1.643137	0.038718
1928	9.6350e-01	-2.9422	-45.311863	0.001122	11.215029	3.799755	0.089535
1929	9.6400e-01	-2.9021	-45.057778	0.000637	6.365287	2.156618	0.050817
1930	9.6450e-01	-2.8587	-44.622203	0.001091	10.911921	3.697059	0.087115
1931	9.6500e-01	-2.8202	-44.319721	0.000758	7.577723	2.567402	0.060496
1932	9.6550e-01	-2.7898	-44.025304	0.000738	7.375650	2.498938	0.058883
1933	9.6600e-01	-2.7448	-43.702656	0.000808	8.082904	2.738562	0.064530
1934	9.6650e-01	-2.6951	-43.468737	0.000586	5.860105	1.985457	0.046784
1935	9.6700e-01	-2.6598	-42.984765	0.001212	12.124356	4.107843	0.096794
1936	9.6750e-01	-2.6245	-42.650018	0.000839	8.386013	2.841258	0.066949
1937	9.6800e-01	-2.5748	-42.383833	0.000667	6.668396	2.259314	0.053237
1938	9.6850e-01	-2.5459	-42.081351	0.000758	7.577723	2.567402	0.060496
1939	9.6900e-01	-2.4946	-41.758703	0.000808	8.082904	2.738562	0.064530
1940	9.6950e-01	-2.4561	-41.516717	0.000606	6.062178	2.053922	0.048397
1941	9.7000e-01	-2.4176	-41.048878	0.001172	11.720211	3.970915	0.093568
1942	9.7050e-01	-2.3839	-40.641535	0.001020	10.204666	3.457435	0.081469
1943	9.7100e-01	-2.3454	-40.298721	0.000859	8.588086	2.909722	0.068563
1944	9.7150e-01	-2.3069	-40.153530	0.000364	3.637307	1.232353	0.029038
1945	9.7200e-01	-2.2652	-39.786518	0.000919	9.194303	3.115114	0.073402
1946	9.7250e-01	-2.2251	-39.314645	0.001182	11.821247	4.005147	0.094375
1947	9.7300e-01	-2.1834	-39.028295	0.000717	7.173577	2.430474	0.057270
1948	9.7350e-01	-2.1449	-38.685482	0.000859	8.588086	2.909722	0.068563
1949	9.7400e-01	-2.1031	-38.520125	0.000414	4.142488	1.403513	0.033071
1950	9.7450e-01	-2.0502	-38.217642	0.000758	7.577723	2.567402	0.060496
1951	9.7500e-01	-2.0213	-37.818366	0.001000	10.002594	3.388971	0.079855
1952	9.7550e-01	-1.9764	-37.527982	0.000727	7.274614	2.464706	0.058077
1953	9.7600e-01	-1.9427	-37.136772	0.000980	9.800521	3.320506	0.078242
1954	9.7650e-01	-1.8978	-36.898819	0.000596	5.961142	2.019690	0.047591
1955	9.7700e-01	-1.8625	-36.551973	0.000869	8.689122	2.943954	0.069369
1956	9.7750e-01	-1.8208	-36.027670	0.001313	13.134719	4.450163	0.104861
1957	9.7800e-01	-1.7807	-35.890544	0.000344	3.435234	1.163889	0.027425
1958	9.7850e-01	-1.7422	-35.543698	0.000869	8.689122	2.943954	0.069369
1959	9.7900e-01	-1.7085	-34.962932	0.001455	14.549227	4.929412	0.116153
1960	9.7950e-01	-1.6620	-34.841939	0.000303	3.031089	1.026961	0.024199
1961	9.8000e-01	-1.6203	-34.301504	0.001354	13.538864	4.587091	0.108087
1962	9.8050e-01	-1.5914	-34.003054	0.000748	7.476686	2.533170	0.059690
1963	9.8100e-01	-1.5433	-33.708638	0.000738	7.375650	2.498938	0.058883
1964	9.8150e-01	-1.5096	-33.402123	0.000768	7.678759	2.601634	0.061303
1965	9.8200e-01	-1.4663	-33.035111	0.000919	9.194303	3.115114	0.073402
1966	9.8250e-01	-1.4181	-32.740694	0.000738	7.375650	2.498938	0.058883
1967	9.8300e-01	-1.3812	-32.397881	0.000859	8.588086	2.909722	0.068563
1968	9.8350e-01	-1.3427	-31.986505	0.001031	10.305703	3.491667	0.082275
1969	9.8400e-01	-1.3155	-31.518666	0.001172	11.720211	3.970915	0.093568
1970	9.8450e-01	-1.2689	-31.296845	0.000556	5.556997	1.882761	0.044364
1971	9.8500e-01	-1.2144	-31.115356	0.000455	4.546634	1.540441	0.036298
1972	9.8550e-01	-1.1823	-30.643483	0.001182	11.821247	4.005147	0.094375
1973	9.8600e-01	-1.1454	-30.284537	0.000899	8.992231	3.046650	0.071789
1974	9.8650e-01	-1.0973	-30.082882	0.000505	5.051815	1.711601	0.040331
1975	9.8700e-01	-1.0636	-29.808632	0.000687	6.870468	2.327778	0.054850
1976	9.8750e-01	-1.0219	-29.320627	0.001223	12.225392	4.142075	0.097601
1977	9.8800e-01	-0.9914	-29.026211	0.000738	7.375650	2.498938	0.058883
1978	9.8850e-01	-0.9353	-28.651132	0.000940	9.396376	3.183578	0.075016
1979	9.8900e-01	-0.9048	-28.280087	0.000930	9.295340	3.149346	0.074209
1980	9.8950e-01	-0.8583	-28.070366	0.000525	5.253888	1.780065	0.041944
1981	9.9000e-01	-0.8230	-27.546063	0.001313	13.134719	4.450163	0.104861
1982	9.9050e-01	-0.7861	-27.300044	0.000616	6.163214	2.088154	0.049204
1983	9.9100e-01	-0.7379	-26.969330	0.000828	8.284977	2.807026	0.066143
1984	9.9150e-01	-0.7075	-26.852370	0.000293	2.930053	0.992729	0.023392
1985	9.9200e-01	-0.6658	-26.449061	0.001010	10.103630	3.423203	0.080662
1986	9.9250e-01	-0.6160	-25.872328	0.001445	14.448191	4.895180	0.115347
1987	9.9300e-01	-0.5855	-25.565812	0.000768	7.678759	2.601634	0.061303
1988	9.9350e-01	-0.5406	-25.251230	0.000788	7.880831	2.670098	0.062916
1989	9.9400e-01	-0.5069	-24.747093	0.001263	12.629538	4.279003	0.100827
1990	9.9450e-01	-0.4668	-24.529306	0.000546	5.455960	1.848529	0.043557
1991	9.9500e-01	-0.4219	-24.142128	0.000970	9.699485	3.286274	0.077435
1992	9.9550e-01	-0.3818	-24.061466	0.000202	2.020726	0.684641	0.016132
1993	9.9600e-01	-0.3433	-23.726719	0.000839	8.386013	2.841258	0.066949
1994	9.9650e-01	-0.3048	-23.093523	0.001586	15.862699	5.374428	0.126639
1995	9.9700e-01	-0.2647	-23.049159	0.000111	1.111399	0.376552	0.008873
1996	9.9750e-01	-0.2294	-22.557120	0.001233	12.326429	4.176307	0.098408
1997	9.9800e-01	-0.1797	-22.161877	0.000990	9.901558	3.354739	0.079049
1998	9.9850e-01	-0.1444	-21.936023	0.000566	5.658033	1.916993	0.045171
1999	9.9900e-01	-0.1027	-21.552879	0.000960	9.598449	3.252042	0.076629
2000	9.9950e-01	-0.0545	-21.109238	0.001111	11.113993	3.765523	0.088728
2001	1.0000e+00	-0.0209	-20.762392	0.001111	11.113993	3.765523	0.069369

PMax (uC/cm2):	1.67e+02
Pr (uC/cm2):	1.17e+01
-Pr (uC/cm2):	-7.73e+00
PLoss (uC/cm2):	-7.76e+00
-Vc:	-1.32e+00
C (Max-Eff) (nF):	8.37e-01
K (Eff):	2.84e+03
Vert. (+/-Pr) Shift (uC/cm2):	1.96e+00
Offset (uC/cm2):	1.30e+01

A (Loop Area - uC/cm2·Volts):	-1.97e-01



Hysteresis Version: 5.48.1 - Radiant Technologies, Inc., 1999 - 9/12/24

