»»»»»»»»»»»»»»»»»»»»»»»»»»»»»»»»»»»» Hysteresis ««««««««««««««««««««««««««««««««««««
»»»  Executed Version:	5.48.1
»»»  Vision Version:	5.48.4 (R)
»»»  Vision Compiled:	9/18/24
»»»  Driver Version:	5.47.0
»»»  Windows Version:	Windows 8 or 8.1
»»»  Processor Information:	x86 (AMD or Intel) - 32 Processors
»»»  Tester Name:	PMF21124-494 (100V)
»»»  Tester S/N:	PMF21124-494
»»»  Internal Amp Type:	100V RevK 270k
»»»  Internal Amp S/N:	iAB2-596/K     
»»»  Execution Count:	1
»»»»»»»»»»»»»»»»»»»»»»»»»»»»»»»»»»»»»»»»»»««««««««««««««««««««««««««««««««««««««««««

Stored:	6/18/2025 - 16:49:9
Configured:	06/18/25 09:47:30 AM
Executed:	06/18/25 04:47:54 PM

»»»»»»»»»»»»»»»»»»»»»»»»»»»»»»»»»»» Sample Info ««««««««««««««««««««««««««««««««««««
Sample Name:	
Lot Name:	
Wafer Name:	
Die Row/Column:	0/0
Capacitor Number:	0
Sample Area (cm2):	1.00e-04
Sample Thickness (microns):	3.00e-01

Amplifier:	Internal

»»»»»»»»»»»»»»»»»»»»»»»»»»»»»»»»»»» Tester Info «««««««««««««««««««««««««««««««««««
Tester Name:	PMF21124-494 (100V)
Tester Serial Number:	PMF21124-494
Return Signal Amp. Level:	0.19 [Index: 3]

»»»»»»»»»»»»»»»»»»»»»»»»»»»»»»»» Hysteresis Info ««««««««««««««««««««««««««««««««««
Task Name:	Hyst-554
Volts:	20.00
Field:	666.67 (kV/cm)
DCBias:	0.00
DCField:	0.00 (kV/cm)
Hysteresis Period (ms):	1.00e+00
Preset:	Enabled
Preset Delay (ms):	1.00e+03
Profile:	Standard Bipolar

»»»»»»»»»»»»»»»»»»»»»»»»»»»»»»»»»»»»»» Data «««««««««««««««««««««««««««««««««««««««
Points:	2001

Valid Data

Point	Time (ms)	Drive Voltage	Measured Polarization (uC/cm2)	Capacitance (uF)	Normalized Capacitance (uF/cm2)	Dielectric Constant	Instantaneous Current (mA)
   1	0.0000e+00	0.0144	-9.046240	0.000637	6.365159	2.156574	0.050817
   2	5.0000e-04	0.0305	-8.792155	0.000637	6.365159	2.156574	0.050817
   3	1.0000e-03	0.0610	-8.844585	-0.000131	-1.313446	-0.445007	-0.010486
   4	1.5000e-03	0.0946	-8.711493	0.000333	3.334131	1.129634	0.026618
   5	2.0000e-03	0.1315	-8.485639	0.000566	5.657919	1.916955	0.045171
   6	2.5000e-03	0.1717	-8.203323	0.000707	7.072399	2.396194	0.056463
   7	3.0000e-03	0.2166	-7.965370	0.000596	5.961022	2.019649	0.047591
   8	3.5000e-03	0.2519	-7.755649	0.000525	5.253782	1.780030	0.041944
   9	4.0000e-03	0.2920	-7.485431	0.000677	6.769296	2.293500	0.054044
  10	4.5000e-03	0.3353	-7.320074	0.000414	4.142405	1.403485	0.033071
  11	5.0000e-03	0.3802	-7.106320	0.000535	5.354816	1.814261	0.042751
  12	5.5000e-03	0.4235	-6.892566	0.000535	5.354816	1.814261	0.042751
  13	6.0000e-03	0.4620	-6.618315	0.000687	6.870330	2.327731	0.054850
  14	6.5000e-03	0.4957	-6.440858	0.000445	4.445508	1.506179	0.035491
  15	7.0000e-03	0.5390	-6.065780	0.000940	9.396187	3.183514	0.075016
  16	7.5000e-03	0.5839	-5.916556	0.000374	3.738268	1.266559	0.029845
  17	8.0000e-03	0.6144	-5.533411	0.000960	9.598256	3.251977	0.076629
  18	8.5000e-03	0.6401	-5.480981	0.000131	1.313446	0.445007	0.010486
  19	9.0000e-03	0.6978	-5.194631	0.000717	7.173433	2.430425	0.057270
  20	9.5000e-03	0.7363	-5.013142	0.000455	4.546542	1.540410	0.036298
  21	1.0000e-02	0.7764	-4.642096	0.000930	9.295153	3.149283	0.074209
  22	1.0500e-02	0.8037	-4.371879	0.000677	6.769296	2.293500	0.054044
  23	1.1000e-02	0.8551	-4.129893	0.000606	6.062056	2.053880	0.048397
  24	1.1500e-02	0.8920	-3.883874	0.000616	6.163091	2.088112	0.049204
  25	1.2000e-02	0.9369	-3.682219	0.000505	5.051714	1.711567	0.040331
  26	1.2500e-02	0.9754	-3.367637	0.000788	7.880673	2.670044	0.062916
  27	1.3000e-02	1.0267	-3.226479	0.000354	3.536199	1.198097	0.028232
  28	1.3500e-02	1.0620	-2.960294	0.000667	6.668262	2.259268	0.053237
  29	1.4000e-02	1.0941	-2.819136	0.000354	3.536199	1.198097	0.028232
  30	1.4500e-02	1.1310	-2.415826	0.001010	10.103427	3.423134	0.080662
  31	1.5000e-02	1.1711	-2.222237	0.000485	4.849645	1.643104	0.038718
  32	1.5500e-02	1.2128	-1.960086	0.000657	6.567228	2.225037	0.052430
  33	1.6000e-02	1.2609	-1.710034	0.000626	6.264125	2.122343	0.050010
  34	1.6500e-02	1.2994	-1.367220	0.000859	8.587913	2.909664	0.068563
  35	1.7000e-02	1.3267	-1.149433	0.000546	5.455851	1.848492	0.043557
  36	1.7500e-02	1.3828	-0.891315	0.000647	6.466193	2.190806	0.051624
  37	1.8000e-02	1.4214	-0.806620	0.000212	2.121720	0.718858	0.016939
  38	1.8500e-02	1.4582	-0.483972	0.000808	8.082742	2.738507	0.064530
  39	1.9000e-02	1.4919	-0.229887	0.000637	6.365159	2.156574	0.050817
  40	1.9500e-02	1.5401	0.064530	0.000738	7.375502	2.498888	0.058883
  41	2.0000e-02	1.5802	0.423475	0.000899	8.992050	3.046589	0.071789
  42	2.0500e-02	1.6155	0.798554	0.000940	9.396187	3.183514	0.075016
  43	2.1000e-02	1.6604	1.000208	0.000505	5.051714	1.711567	0.040331
  44	2.1500e-02	1.6957	1.282525	0.000707	7.072399	2.396194	0.056463
  45	2.2000e-02	1.7358	1.330923	0.000121	1.212411	0.410776	0.009679
  46	2.2500e-02	1.7791	1.593074	0.000657	6.567228	2.225037	0.052430
  47	2.3000e-02	1.8176	1.903623	0.000778	7.779639	2.635813	0.062110
  48	2.3500e-02	1.8529	2.032682	0.000323	3.233097	1.095403	0.025812
  49	2.4000e-02	1.8962	2.314999	0.000707	7.072399	2.396194	0.056463
  50	2.4500e-02	1.9427	2.673944	0.000899	8.992050	3.046589	0.071789
  51	2.5000e-02	1.9700	2.968361	0.000738	7.375502	2.498888	0.058883
  52	2.5500e-02	2.0213	3.178082	0.000525	5.253782	1.780030	0.041944
  53	2.6000e-02	2.0518	3.436200	0.000647	6.466193	2.190806	0.051624
  54	2.6500e-02	2.0951	3.710451	0.000687	6.870330	2.327731	0.054850
  55	2.7000e-02	2.1417	3.879841	0.000424	4.243439	1.437716	0.033878
  56	2.7500e-02	2.1802	4.117794	0.000596	5.961022	2.019649	0.047591
  57	2.8000e-02	2.2106	4.440442	0.000808	8.082742	2.738507	0.064530
  58	2.8500e-02	2.2539	4.690494	0.000626	6.264125	2.122343	0.050010
  59	2.9000e-02	2.2941	5.001042	0.000778	7.779639	2.635813	0.062110
  60	2.9500e-02	2.3277	5.259161	0.000647	6.466193	2.190806	0.051624
  61	3.0000e-02	2.3662	5.533411	0.000687	6.870330	2.327731	0.054850
  62	3.0500e-02	2.4128	5.876225	0.000859	8.587913	2.909664	0.068563
  63	3.1000e-02	2.4577	6.194839	0.000798	7.981707	2.704276	0.063723
  64	3.1500e-02	2.4994	6.263402	0.000172	1.717583	0.581933	0.013713
  65	3.2000e-02	2.5427	6.533620	0.000677	6.769296	2.293500	0.054044
  66	3.2500e-02	2.5732	6.727208	0.000485	4.849645	1.643104	0.038718
  67	3.3000e-02	2.6069	7.166816	0.001101	11.012736	3.731216	0.087922
  68	3.3500e-02	2.6566	7.489464	0.000808	8.082742	2.738507	0.064530
  69	3.4000e-02	2.6903	7.634656	0.000364	3.637234	1.232328	0.029038
  70	3.4500e-02	2.7368	7.997635	0.000909	9.093084	3.080820	0.072596
  71	3.5000e-02	2.7769	8.227521	0.000576	5.758953	1.951186	0.045977
  72	3.5500e-02	2.8138	8.497739	0.000677	6.769296	2.293500	0.054044
  73	3.6000e-02	2.8523	8.719559	0.000556	5.556885	1.882724	0.044364
  74	3.6500e-02	2.8924	9.058339	0.000849	8.486879	2.875432	0.067756
  75	3.7000e-02	2.9325	9.223697	0.000414	4.142405	1.403485	0.033071
  76	3.7500e-02	2.9742	9.453583	0.000576	5.758953	1.951186	0.045977
  77	3.8000e-02	3.0111	9.804463	0.000879	8.789982	2.978126	0.070176
  78	3.8500e-02	3.0577	10.115011	0.000778	7.779639	2.635813	0.062110
  79	3.9000e-02	3.0962	10.429593	0.000788	7.880673	2.670044	0.062916
  80	3.9500e-02	3.1331	10.687711	0.000647	6.466193	2.190806	0.051624
  81	4.0000e-02	3.1748	10.913565	0.000566	5.657919	1.916955	0.045171
  82	4.0500e-02	3.2229	11.312842	0.001000	10.002393	3.388902	0.079855
  83	4.1000e-02	3.2566	11.454000	0.000354	3.536199	1.198097	0.028232
  84	4.1500e-02	3.3047	11.675820	0.000556	5.556885	1.882724	0.044364
  85	4.2000e-02	3.3416	11.865376	0.000475	4.748611	1.608873	0.037911
  86	4.2500e-02	3.3785	12.240454	0.000940	9.396187	3.183514	0.075016
  87	4.3000e-02	3.4202	12.490506	0.000626	6.264125	2.122343	0.050010
  88	4.3500e-02	3.4619	12.821220	0.000828	8.284810	2.806970	0.066143
  89	4.4000e-02	3.4956	13.083372	0.000657	6.567228	2.225037	0.052430
  90	4.4500e-02	3.5389	13.393920	0.000778	7.779639	2.635813	0.062110
  91	4.5000e-02	3.5662	13.656072	0.000657	6.567228	2.225037	0.052430
  92	4.5500e-02	3.6111	13.934356	0.000697	6.971365	2.361962	0.055657
  93	4.6000e-02	3.6528	14.265070	0.000828	8.284810	2.806970	0.066143
  94	4.6500e-02	3.6978	14.434460	0.000424	4.243439	1.437716	0.033878
  95	4.7000e-02	3.7379	14.757108	0.000808	8.082742	2.738507	0.064530
  96	4.7500e-02	3.7780	15.059590	0.000758	7.577570	2.567350	0.060496
  97	4.8000e-02	3.8149	15.249146	0.000475	4.748611	1.608873	0.037911
  98	4.8500e-02	3.8582	15.555661	0.000768	7.678605	2.601582	0.061303
  99	4.9000e-02	3.8983	15.753283	0.000495	4.950679	1.677336	0.039524
 100	4.9500e-02	3.9448	16.156593	0.001010	10.103427	3.423134	0.080662
 101	5.0000e-02	3.9753	16.487307	0.000828	8.284810	2.806970	0.066143
 102	5.0500e-02	4.0122	16.612333	0.000313	3.132062	1.061171	0.025005
 103	5.1000e-02	4.0619	16.939014	0.000818	8.183776	2.772738	0.065336
 104	5.1500e-02	4.0972	17.197132	0.000647	6.466193	2.190806	0.051624
 105	5.2000e-02	4.1373	17.451218	0.000637	6.365159	2.156574	0.050817
 106	5.2500e-02	4.1806	17.794031	0.000859	8.587913	2.909664	0.068563
 107	5.3000e-02	4.2143	18.007785	0.000535	5.354816	1.814261	0.042751
 108	5.3500e-02	4.2544	18.233639	0.000566	5.657919	1.916955	0.045171
 109	5.4000e-02	4.2961	18.741809	0.001273	12.730318	4.313149	0.101634
 110	5.4500e-02	4.3314	19.052358	0.000778	7.779639	2.635813	0.062110
 111	5.5000e-02	4.3763	19.249980	0.000495	4.950679	1.677336	0.039524
 112	5.5500e-02	4.4100	19.455668	0.000515	5.152748	1.745798	0.041138
 113	5.6000e-02	4.4582	19.766216	0.000778	7.779639	2.635813	0.062110
 114	5.6500e-02	4.5047	20.072732	0.000768	7.678605	2.601582	0.061303
 115	5.7000e-02	4.5239	20.496207	0.001061	10.608598	3.594290	0.084695
 116	5.7500e-02	4.5737	20.697862	0.000505	5.051714	1.711567	0.040331
 117	5.8000e-02	4.6138	20.923716	0.000566	5.657919	1.916955	0.045171
 118	5.8500e-02	4.6571	21.286694	0.000909	9.093084	3.080820	0.072596
 119	5.9000e-02	4.6972	21.556912	0.000677	6.769296	2.293500	0.054044
 120	5.9500e-02	4.7309	21.810997	0.000637	6.365159	2.156574	0.050817
 121	6.0000e-02	4.7790	22.052983	0.000606	6.062056	2.053880	0.048397
 122	6.0500e-02	4.8175	22.403863	0.000879	8.789982	2.978126	0.070176
 123	6.1000e-02	4.8560	22.657948	0.000637	6.365159	2.156574	0.050817
 124	6.1500e-02	4.8945	23.028993	0.000930	9.295153	3.149283	0.074209
 125	6.2000e-02	4.9314	23.279045	0.000626	6.264125	2.122343	0.050010
 126	6.2500e-02	4.9715	23.521031	0.000606	6.062056	2.053880	0.048397
 127	6.3000e-02	5.0164	23.847712	0.000818	8.183776	2.772738	0.065336
 128	6.3500e-02	5.0549	23.920308	0.000182	1.818617	0.616164	0.014519
 129	6.4000e-02	5.0966	24.347816	0.001071	10.709633	3.628522	0.085502
 130	6.4500e-02	5.1335	24.706762	0.000899	8.992050	3.046589	0.071789
 131	6.5000e-02	5.1720	25.130237	0.001061	10.608598	3.594290	0.084695
 132	6.5500e-02	5.2186	25.343992	0.000535	5.354816	1.814261	0.042751
 133	6.6000e-02	5.2635	25.630342	0.000717	7.173433	2.430425	0.057270
 134	6.6500e-02	5.2956	25.856195	0.000566	5.657919	1.916955	0.045171
 135	6.7000e-02	5.3357	26.078016	0.000556	5.556885	1.882724	0.044364
 136	6.7500e-02	5.3742	26.586186	0.001273	12.730318	4.313149	0.101634
 137	6.8000e-02	5.4207	26.775742	0.000475	4.748611	1.608873	0.037911
 138	6.8500e-02	5.4576	27.066125	0.000727	7.274468	2.464656	0.058077
 139	6.9000e-02	5.5009	27.421037	0.000889	8.891016	3.012358	0.070983
 140	6.9500e-02	5.5410	27.715454	0.000738	7.375502	2.498888	0.058883
 141	7.0000e-02	5.5827	27.957440	0.000606	6.062056	2.053880	0.048397
 142	7.0500e-02	5.6116	28.203459	0.000616	6.163091	2.088112	0.049204
 143	7.1000e-02	5.6549	28.618868	0.001041	10.406530	3.525828	0.083082
 144	7.1500e-02	5.6950	28.901185	0.000707	7.072399	2.396194	0.056463
 145	7.2000e-02	5.7432	29.026211	0.000313	3.132062	1.061171	0.025005
 146	7.2500e-02	5.7688	29.348859	0.000808	8.082742	2.738507	0.064530
 147	7.3000e-02	5.8105	29.598911	0.000626	6.264125	2.122343	0.050010
 148	7.3500e-02	5.8603	30.066750	0.001172	11.719975	3.970835	0.093568
 149	7.4000e-02	5.8940	30.445861	0.000950	9.497221	3.217746	0.075822
 150	7.4500e-02	5.9325	30.619285	0.000434	4.344474	1.471948	0.034685
 151	7.5000e-02	5.9806	30.941932	0.000808	8.082742	2.738507	0.064530
 152	7.5500e-02	6.0111	31.264580	0.000808	8.082742	2.738507	0.064530
 153	7.6000e-02	6.0608	31.546897	0.000707	7.072399	2.396194	0.056463
 154	7.6500e-02	6.0897	31.736453	0.000475	4.748611	1.608873	0.037911
 155	7.7000e-02	6.1378	32.006671	0.000677	6.769296	2.293500	0.054044
 156	7.7500e-02	6.1811	32.345451	0.000849	8.486879	2.875432	0.067756
 157	7.8000e-02	6.2116	32.631801	0.000717	7.173433	2.430425	0.057270
 158	7.8500e-02	6.2565	32.966548	0.000839	8.385844	2.841201	0.066949
 159	7.9000e-02	6.2886	33.269030	0.000758	7.577570	2.567350	0.060496
 160	7.9500e-02	6.3415	33.543281	0.000687	6.870330	2.327731	0.054850
 161	8.0000e-02	6.3816	33.898194	0.000889	8.891016	3.012358	0.070983
 162	8.0500e-02	6.4153	34.095816	0.000495	4.950679	1.677336	0.039524
 163	8.1000e-02	6.4554	34.660449	0.001414	14.144798	4.792387	0.112927
 164	8.1500e-02	6.4907	34.805641	0.000364	3.637234	1.232328	0.029038
 165	8.2000e-02	6.5405	35.055693	0.000626	6.264125	2.122343	0.050010
 166	8.2500e-02	6.5725	35.313811	0.000647	6.466193	2.190806	0.051624
 167	8.3000e-02	6.6143	35.652592	0.000849	8.486879	2.875432	0.067756
 168	8.3500e-02	6.6495	35.995405	0.000859	8.587913	2.909664	0.068563
 169	8.4000e-02	6.7009	36.237391	0.000606	6.062056	2.053880	0.048397
 170	8.4500e-02	6.7378	36.652800	0.001041	10.406530	3.525828	0.083082
 171	8.5000e-02	6.7779	36.951249	0.000748	7.476536	2.533119	0.059690
 172	8.5500e-02	6.8228	37.193235	0.000606	6.062056	2.053880	0.048397
 173	8.6000e-02	6.8533	37.580413	0.000970	9.699290	3.286208	0.077435
 174	8.6500e-02	6.8950	37.975656	0.000990	9.901359	3.354671	0.079049
 175	8.7000e-02	6.9351	38.249907	0.000687	6.870330	2.327731	0.054850
 176	8.7500e-02	6.9816	38.564489	0.000788	7.880673	2.670044	0.062916
 177	8.8000e-02	7.0169	38.717747	0.000384	3.839302	1.300791	0.030652
 178	8.8500e-02	7.0506	39.028295	0.000778	7.779639	2.635813	0.062110
 179	8.9000e-02	7.0891	39.294480	0.000667	6.668262	2.259268	0.053237
 180	8.9500e-02	7.1340	39.657459	0.000909	9.093084	3.080820	0.072596
 181	9.0000e-02	7.1677	40.016404	0.000899	8.992050	3.046589	0.071789
 182	9.0500e-02	7.2078	40.189828	0.000434	4.344474	1.471948	0.034685
 183	9.1000e-02	7.2543	40.560873	0.000930	9.295153	3.149283	0.074209
 184	9.1500e-02	7.2977	40.867388	0.000768	7.678605	2.601582	0.061303
 185	9.2000e-02	7.3362	41.149705	0.000707	7.072399	2.396194	0.056463
 186	9.2500e-02	7.3827	41.456221	0.000768	7.678605	2.601582	0.061303
 187	9.3000e-02	7.4083	41.827266	0.000930	9.295153	3.149283	0.074209
 188	9.3500e-02	7.4581	42.032954	0.000515	5.152748	1.745798	0.041138
 189	9.4000e-02	7.4918	42.383833	0.000879	8.789982	2.978126	0.070176
 190	9.4500e-02	7.5351	42.702448	0.000798	7.981707	2.704276	0.063723
 191	9.5000e-02	7.5704	43.238850	0.001344	13.437558	4.552768	0.107280
 192	9.5500e-02	7.6169	43.432439	0.000485	4.849645	1.643104	0.038718
 193	9.6000e-02	7.6538	43.626028	0.000485	4.849645	1.643104	0.038718
 194	9.6500e-02	7.7035	43.851881	0.000566	5.657919	1.916955	0.045171
 195	9.7000e-02	7.7340	44.122099	0.000677	6.769296	2.293500	0.054044
 196	9.7500e-02	7.7757	44.573806	0.001132	11.315838	3.833910	0.090341
 197	9.8000e-02	7.8078	44.856123	0.000707	7.072399	2.396194	0.056463
 198	9.8500e-02	7.8575	45.223135	0.000919	9.194119	3.115052	0.073402
 199	9.9000e-02	7.8880	45.557882	0.000839	8.385844	2.841201	0.066949
 200	9.9500e-02	7.9297	45.755504	0.000495	4.950679	1.677336	0.039524
 201	1.0000e-01	7.9634	46.191078	0.001091	10.911701	3.696984	0.087115
 202	1.0050e-01	8.0164	46.433064	0.000606	6.062056	2.053880	0.048397
 203	1.0100e-01	8.0565	46.808142	0.000940	9.396187	3.183514	0.075016
 204	1.0150e-01	8.0918	47.138856	0.000828	8.284810	2.806970	0.066143
 205	1.0200e-01	8.1399	47.336478	0.000495	4.950679	1.677336	0.039524
 206	1.0250e-01	8.1704	47.594597	0.000647	6.466193	2.190806	0.051624
 207	1.0300e-01	8.2185	47.949509	0.000889	8.891016	3.012358	0.070983
 208	1.0350e-01	8.2506	48.332654	0.000960	9.598256	3.251977	0.076629
 209	1.0400e-01	8.2955	48.671434	0.000849	8.486879	2.875432	0.067756
 210	1.0450e-01	8.3372	48.929552	0.000647	6.466193	2.190806	0.051624
 211	1.0500e-01	8.3693	49.167505	0.000596	5.961022	2.019649	0.047591
 212	1.0550e-01	8.4094	49.433690	0.000667	6.668262	2.259268	0.053237
 213	1.0600e-01	8.4559	49.687775	0.000637	6.365159	2.156574	0.050817
 214	1.0650e-01	8.4992	50.054787	0.000919	9.194119	3.115052	0.073402
 215	1.0700e-01	8.5313	50.349203	0.000738	7.375502	2.498888	0.058883
 216	1.0750e-01	8.5714	50.651685	0.000758	7.577570	2.567350	0.060496
 217	1.0800e-01	8.6195	51.087260	0.001091	10.911701	3.696984	0.087115
 218	1.0850e-01	8.6580	51.413941	0.000818	8.183776	2.772738	0.065336
 219	1.0900e-01	8.7014	51.668026	0.000637	6.365159	2.156574	0.050817
 220	1.0950e-01	8.7254	51.970509	0.000758	7.577570	2.567350	0.060496
 221	1.1000e-01	8.7735	52.450447	0.001202	12.023078	4.073529	0.095988
 222	1.1050e-01	8.8024	52.615804	0.000414	4.142405	1.403485	0.033071
 223	1.1100e-01	8.8602	52.857790	0.000606	6.062056	2.053880	0.048397
 224	1.1150e-01	8.8939	53.208670	0.000879	8.789982	2.978126	0.070176
 225	1.1200e-01	8.9356	53.587781	0.000950	9.497221	3.217746	0.075822
 226	1.1250e-01	8.9757	53.954793	0.000919	9.194119	3.115052	0.073402
 227	1.1300e-01	9.0142	54.229044	0.000687	6.870330	2.327731	0.054850
 228	1.1350e-01	9.0671	54.479096	0.000626	6.264125	2.122343	0.050010
 229	1.1400e-01	9.0880	54.765446	0.000717	7.173433	2.430425	0.057270
 230	1.1450e-01	9.1345	55.112292	0.000869	8.688947	2.943895	0.069369
 231	1.1500e-01	9.1746	55.414775	0.000758	7.577570	2.567350	0.060496
 232	1.1550e-01	9.2131	55.866482	0.001132	11.315838	3.833910	0.090341
 233	1.1600e-01	9.2532	56.076203	0.000525	5.253782	1.780030	0.041944
 234	1.1650e-01	9.3013	56.346421	0.000677	6.769296	2.293500	0.054044
 235	1.1700e-01	9.3414	56.717466	0.000930	9.295153	3.149283	0.074209
 236	1.1750e-01	9.3816	56.963485	0.000616	6.163091	2.088112	0.049204
 237	1.1800e-01	9.4136	57.274033	0.000778	7.779639	2.635813	0.062110
 238	1.1850e-01	9.4521	57.645078	0.000930	9.295153	3.149283	0.074209
 239	1.1900e-01	9.4922	57.931428	0.000717	7.173433	2.430425	0.057270
 240	1.1950e-01	9.5291	58.125017	0.000485	4.849645	1.643104	0.038718
 241	1.2000e-01	9.5741	58.556559	0.001081	10.810667	3.662753	0.086308
 242	1.2050e-01	9.6222	58.834842	0.000697	6.971365	2.361962	0.055657
 243	1.2100e-01	9.6559	59.084895	0.000626	6.264125	2.122343	0.050010
 244	1.2150e-01	9.6848	59.512403	0.001071	10.709633	3.628522	0.085502
 245	1.2200e-01	9.7377	59.855216	0.000859	8.587913	2.909664	0.068563
 246	1.2250e-01	9.7746	60.089136	0.000586	5.859988	1.985418	0.046784
 247	1.2300e-01	9.8051	60.480347	0.000980	9.800324	3.320440	0.078242
 248	1.2350e-01	9.8420	60.802995	0.000808	8.082742	2.738507	0.064530
 249	1.2400e-01	9.8933	61.012716	0.000525	5.253782	1.780030	0.041944
 250	1.2450e-01	9.9334	61.343430	0.000828	8.284810	2.806970	0.066143
 251	1.2500e-01	9.9687	61.597515	0.000637	6.365159	2.156574	0.050817
 252	1.2550e-01	10.0136	62.061321	0.001162	11.618941	3.936604	0.092761
 253	1.2600e-01	10.0489	62.170215	0.000273	2.727925	0.924246	0.021779
 254	1.2650e-01	10.1002	62.585624	0.001041	10.406530	3.525828	0.083082
 255	1.2700e-01	10.1404	62.904239	0.000798	7.981707	2.704276	0.063723
 256	1.2750e-01	10.1724	63.263185	0.000899	8.992050	3.046589	0.071789
 257	1.2800e-01	10.2174	63.493071	0.000576	5.758953	1.951186	0.045977
 258	1.2850e-01	10.2527	63.678594	0.000465	4.647576	1.574642	0.037105
 259	1.2900e-01	10.2944	64.186764	0.001273	12.730318	4.313149	0.101634
 260	1.2950e-01	10.3345	64.541677	0.000889	8.891016	3.012358	0.070983
 261	1.3000e-01	10.3794	64.662670	0.000303	3.031028	1.026940	0.024199
 262	1.3050e-01	10.4147	65.094211	0.001081	10.810667	3.662753	0.086308
 263	1.3100e-01	10.4596	65.469290	0.000940	9.396187	3.183514	0.075016
 264	1.3150e-01	10.4869	65.763706	0.000738	7.375502	2.498888	0.058883
 265	1.3200e-01	10.5286	66.122652	0.000899	8.992050	3.046589	0.071789
 266	1.3250e-01	10.5671	66.425134	0.000758	7.577570	2.567350	0.060496
 267	1.3300e-01	10.6136	66.630822	0.000515	5.152748	1.745798	0.041138
 268	1.3350e-01	10.6473	66.949437	0.000798	7.981707	2.704276	0.063723
 269	1.3400e-01	10.6954	67.284184	0.000839	8.385844	2.841201	0.066949
 270	1.3450e-01	10.7291	67.610865	0.000818	8.183776	2.772738	0.065336
 271	1.3500e-01	10.7772	67.941579	0.000828	8.284810	2.806970	0.066143
 272	1.3550e-01	10.8173	68.159366	0.000546	5.455851	1.848492	0.043557
 273	1.3600e-01	10.8607	68.514279	0.000889	8.891016	3.012358	0.070983
 274	1.3650e-01	10.8911	68.844993	0.000828	8.284810	2.806970	0.066143
 275	1.3700e-01	10.9280	69.240237	0.000990	9.901359	3.354671	0.079049
 276	1.3750e-01	10.9697	69.510454	0.000677	6.769296	2.293500	0.054044
 277	1.3800e-01	11.0147	69.655646	0.000364	3.637234	1.232328	0.029038
 278	1.3850e-01	11.0484	70.167849	0.001283	12.831352	4.347380	0.102441
 279	1.3900e-01	11.0933	70.631656	0.001162	11.618941	3.936604	0.092761
 280	1.3950e-01	11.1318	70.764748	0.000333	3.334131	1.129634	0.026618
 281	1.4000e-01	11.1767	71.014800	0.000626	6.264125	2.122343	0.050010
 282	1.4050e-01	11.2040	71.450375	0.001091	10.911701	3.696984	0.087115
 283	1.4100e-01	11.2505	71.652030	0.000505	5.051714	1.711567	0.040331
 284	1.4150e-01	11.2954	72.015009	0.000909	9.093084	3.080820	0.072596
 285	1.4200e-01	11.3339	72.293292	0.000697	6.971365	2.361962	0.055657
 286	1.4250e-01	11.3692	72.636106	0.000859	8.587913	2.909664	0.068563
 287	1.4300e-01	11.4157	72.991019	0.000889	8.891016	3.012358	0.070983
 288	1.4350e-01	11.4590	73.188640	0.000495	4.950679	1.677336	0.039524
 289	1.4400e-01	11.4879	73.507255	0.000798	7.981707	2.704276	0.063723
 290	1.4450e-01	11.5216	73.850069	0.000859	8.587913	2.909664	0.068563
 291	1.4500e-01	11.5729	74.156584	0.000768	7.678605	2.601582	0.061303
 292	1.4550e-01	11.6130	74.487298	0.000828	8.284810	2.806970	0.066143
 293	1.4600e-01	11.6403	74.826078	0.000849	8.486879	2.875432	0.067756
 294	1.4650e-01	11.6884	75.068064	0.000606	6.062056	2.053880	0.048397
 295	1.4700e-01	11.7269	75.390712	0.000808	8.082742	2.738507	0.064530
 296	1.4750e-01	11.7719	75.668996	0.000697	6.971365	2.361962	0.055657
 297	1.4800e-01	11.8120	76.027942	0.000899	8.992050	3.046589	0.071789
 298	1.4850e-01	11.8408	76.362689	0.000839	8.385844	2.841201	0.066949
 299	1.4900e-01	11.8826	76.802297	0.001101	11.012736	3.731216	0.087922
 300	1.4950e-01	11.9339	77.052349	0.000626	6.264125	2.122343	0.050010
 301	1.5000e-01	11.9740	77.322566	0.000677	6.769296	2.293500	0.054044
 302	1.5050e-01	12.0077	77.750075	0.001071	10.709633	3.628522	0.085502
 303	1.5100e-01	12.0478	77.939630	0.000475	4.748611	1.608873	0.037911
 304	1.5150e-01	12.0847	78.294543	0.000889	8.891016	3.012358	0.070983
 305	1.5200e-01	12.1248	78.621224	0.000818	8.183776	2.772738	0.065336
 306	1.5250e-01	12.1681	79.004369	0.000960	9.598256	3.251977	0.076629
 307	1.5300e-01	12.2130	79.282652	0.000697	6.971365	2.361962	0.055657
 308	1.5350e-01	12.2515	79.564969	0.000707	7.072399	2.396194	0.056463
 309	1.5400e-01	12.2820	79.871485	0.000768	7.678605	2.601582	0.061303
 310	1.5450e-01	12.3269	80.246563	0.000940	9.396187	3.183514	0.075016
 311	1.5500e-01	12.3702	80.512747	0.000667	6.668262	2.259268	0.053237
 312	1.5550e-01	12.4055	80.819263	0.000768	7.678605	2.601582	0.061303
 313	1.5600e-01	12.4537	81.053183	0.000586	5.859988	1.985418	0.046784
 314	1.5650e-01	12.4857	81.371797	0.000798	7.981707	2.704276	0.063723
 315	1.5700e-01	12.5355	81.658147	0.000717	7.173433	2.430425	0.057270
 316	1.5750e-01	12.5692	81.964663	0.000768	7.678605	2.601582	0.061303
 317	1.5800e-01	12.6045	82.380072	0.001041	10.406530	3.525828	0.083082
 318	1.5850e-01	12.6526	82.646257	0.000667	6.668262	2.259268	0.053237
 319	1.5900e-01	12.6911	82.993103	0.000869	8.688947	2.943895	0.069369
 320	1.5950e-01	12.7344	83.275420	0.000707	7.072399	2.396194	0.056463
 321	1.6000e-01	12.7601	83.674697	0.001000	10.002393	3.388902	0.079855
 322	1.6050e-01	12.8146	83.912650	0.000596	5.961022	2.019649	0.047591
 323	1.6100e-01	12.8531	84.203033	0.000727	7.274468	2.464656	0.058077
 324	1.6150e-01	12.8900	84.602309	0.001000	10.002393	3.388902	0.079855
 325	1.6200e-01	12.9205	84.759600	0.000394	3.940337	1.335022	0.031458
 326	1.6250e-01	12.9670	85.062083	0.000758	7.577570	2.567350	0.060496
 327	1.6300e-01	13.0087	85.400863	0.000849	8.486879	2.875432	0.067756
 328	1.6350e-01	13.0408	85.788040	0.000970	9.699290	3.286208	0.077435
 329	1.6400e-01	13.0825	86.122788	0.000839	8.385844	2.841201	0.066949
 330	1.6450e-01	13.1274	86.441402	0.000798	7.981707	2.704276	0.063723
 331	1.6500e-01	13.1675	86.792282	0.000879	8.789982	2.978126	0.070176
 332	1.6550e-01	13.2076	86.985871	0.000485	4.849645	1.643104	0.038718
 333	1.6600e-01	13.2478	87.393214	0.001020	10.204461	3.457365	0.081469
 334	1.6650e-01	13.2847	87.711828	0.000798	7.981707	2.704276	0.063723
 335	1.6700e-01	13.3215	88.030443	0.000798	7.981707	2.704276	0.063723
 336	1.6750e-01	13.3681	88.211933	0.000455	4.546542	1.540410	0.036298
 337	1.6800e-01	13.4082	88.518448	0.000768	7.678605	2.601582	0.061303
 338	1.6850e-01	13.4515	88.889493	0.000930	9.295153	3.149283	0.074209
 339	1.6900e-01	13.4868	89.216174	0.000818	8.183776	2.772738	0.065336
 340	1.6950e-01	13.5365	89.421862	0.000515	5.152748	1.745798	0.041138
 341	1.7000e-01	13.5734	89.724345	0.000758	7.577570	2.567350	0.060496
 342	1.7050e-01	13.6183	90.123621	0.001000	10.002393	3.388902	0.079855
 343	1.7100e-01	13.6472	90.393839	0.000677	6.769296	2.293500	0.054044
 344	1.7150e-01	13.6841	90.720520	0.000818	8.183776	2.772738	0.065336
 345	1.7200e-01	13.7354	90.982671	0.000657	6.567228	2.225037	0.052430
 346	1.7250e-01	13.7659	91.414213	0.001081	10.810667	3.662753	0.086308
 347	1.7300e-01	13.8076	91.724762	0.000778	7.779639	2.635813	0.062110
 348	1.7350e-01	13.8493	91.926416	0.000505	5.051714	1.711567	0.040331
 349	1.7400e-01	13.8878	92.273263	0.000869	8.688947	2.943895	0.069369
 350	1.7450e-01	13.9247	92.515249	0.000606	6.062056	2.053880	0.048397
 351	1.7500e-01	13.9713	92.870162	0.000889	8.891016	3.012358	0.070983
 352	1.7550e-01	14.0098	93.160545	0.000727	7.274468	2.464656	0.058077
 353	1.7600e-01	14.0499	93.575954	0.001041	10.406530	3.525828	0.083082
 354	1.7650e-01	14.0916	93.761476	0.000465	4.647576	1.574642	0.037105
 355	1.7700e-01	14.1156	94.136554	0.000940	9.396187	3.183514	0.075016
 356	1.7750e-01	14.1734	94.527765	0.000980	9.800324	3.320440	0.078242
 357	1.7800e-01	14.2167	94.850413	0.000808	8.082742	2.738507	0.064530
 358	1.7850e-01	14.2536	95.031902	0.000455	4.546542	1.540410	0.036298
 359	1.7900e-01	14.2873	95.411014	0.000950	9.497221	3.217746	0.075822
 360	1.7950e-01	14.3290	95.790125	0.000950	9.497221	3.217746	0.075822
 361	1.8000e-01	14.3691	96.112773	0.000808	8.082742	2.738507	0.064530
 362	1.8050e-01	14.4124	96.338626	0.000566	5.657919	1.916955	0.045171
 363	1.8100e-01	14.4461	96.540281	0.000505	5.051714	1.711567	0.040331
 364	1.8150e-01	14.4942	96.935525	0.000990	9.901359	3.354671	0.079049
 365	1.8200e-01	14.5295	97.363033	0.001071	10.709633	3.628522	0.085502
 366	1.8250e-01	14.5745	97.637284	0.000687	6.870330	2.327731	0.054850
 367	1.8300e-01	14.6001	97.879270	0.000606	6.062056	2.053880	0.048397
 368	1.8350e-01	14.6482	98.032528	0.000384	3.839302	1.300791	0.030652
 369	1.8400e-01	14.6851	98.387440	0.000889	8.891016	3.012358	0.070983
 370	1.8450e-01	14.7269	98.879478	0.001233	12.326181	4.176223	0.098408
 371	1.8500e-01	14.7734	99.137597	0.000647	6.466193	2.190806	0.051624
 372	1.8550e-01	14.8119	99.460245	0.000808	8.082742	2.738507	0.064530
 373	1.8600e-01	14.8440	99.694164	0.000586	5.859988	1.985418	0.046784
 374	1.8650e-01	14.8857	100.077309	0.000960	9.598256	3.251977	0.076629
 375	1.8700e-01	14.9290	100.403990	0.000818	8.183776	2.772738	0.065336
 376	1.8750e-01	14.9643	100.726638	0.000808	8.082742	2.738507	0.064530
 377	1.8800e-01	15.0060	100.879895	0.000384	3.839302	1.300791	0.030652
 378	1.8850e-01	15.0461	101.275139	0.000990	9.901359	3.354671	0.079049
 379	1.8900e-01	15.0846	101.529224	0.000637	6.365159	2.156574	0.050817
 380	1.8950e-01	15.1215	101.855905	0.000818	8.183776	2.772738	0.065336
 381	1.9000e-01	15.1696	102.202752	0.000869	8.688947	2.943895	0.069369
 382	1.9050e-01	15.1985	102.497168	0.000738	7.375502	2.498888	0.058883
 383	1.9100e-01	15.2402	102.783518	0.000717	7.173433	2.430425	0.057270
 384	1.9150e-01	15.2915	103.146497	0.000909	9.093084	3.080820	0.072596
 385	1.9200e-01	15.3300	103.537707	0.000980	9.800324	3.320440	0.078242
 386	1.9250e-01	15.3589	103.739362	0.000505	5.051714	1.711567	0.040331
 387	1.9300e-01	15.4022	104.066043	0.000818	8.183776	2.772738	0.065336
 388	1.9350e-01	15.4439	104.299963	0.000586	5.859988	1.985418	0.046784
 389	1.9400e-01	15.4841	104.743604	0.001111	11.113770	3.765447	0.088728
 390	1.9450e-01	15.5290	104.957358	0.000535	5.354816	1.814261	0.042751
 391	1.9500e-01	15.5659	105.336469	0.000950	9.497221	3.217746	0.075822
 392	1.9550e-01	15.6092	105.598621	0.000657	6.567228	2.225037	0.052430
 393	1.9600e-01	15.6461	105.973699	0.000940	9.396187	3.183514	0.075016
 394	1.9650e-01	15.6910	106.046295	0.000182	1.818617	0.616164	0.014519
 395	1.9700e-01	15.7295	106.498002	0.001132	11.315838	3.833910	0.090341
 396	1.9750e-01	15.7664	106.780319	0.000707	7.072399	2.396194	0.056463
 397	1.9800e-01	15.8001	107.227993	0.001121	11.214804	3.799678	0.089535
 398	1.9850e-01	15.8450	107.421581	0.000485	4.849645	1.643104	0.038718
 399	1.9900e-01	15.8883	107.764395	0.000859	8.587913	2.909664	0.068563
 400	1.9950e-01	15.9284	108.151572	0.000970	9.699290	3.286208	0.077435
 401	2.0000e-01	15.9701	108.441955	0.000727	7.274468	2.464656	0.058077
 402	2.0050e-01	16.0183	108.780736	0.000849	8.486879	2.875432	0.067756
 403	2.0100e-01	16.0487	109.014655	0.000586	5.859988	1.985418	0.046784
 404	2.0150e-01	16.0889	109.268740	0.000637	6.365159	2.156574	0.050817
 405	2.0200e-01	16.1370	109.704315	0.001091	10.911701	3.696984	0.087115
 406	2.0250e-01	16.1771	109.954367	0.000626	6.264125	2.122343	0.050010
 407	2.0300e-01	16.2140	110.188287	0.000586	5.859988	1.985418	0.046784
 408	2.0350e-01	16.2445	110.644027	0.001142	11.416873	3.868141	0.091148
 409	2.0400e-01	16.2958	110.837616	0.000485	4.849645	1.643104	0.038718
 410	2.0450e-01	16.3247	111.035238	0.000495	4.950679	1.677336	0.039524
 411	2.0500e-01	16.3616	111.301422	0.000667	6.668262	2.259268	0.053237
 412	2.0550e-01	16.4065	111.676500	0.000940	9.396187	3.183514	0.075016
 413	2.0600e-01	16.4530	112.043512	0.000919	9.194119	3.115052	0.073402
 414	2.0650e-01	16.4819	112.374226	0.000828	8.284810	2.806970	0.066143
 415	2.0700e-01	16.5284	112.567815	0.000485	4.849645	1.643104	0.038718
 416	2.0750e-01	16.5717	112.898529	0.000828	8.284810	2.806970	0.066143
 417	2.0800e-01	16.6150	113.176813	0.000697	6.971365	2.361962	0.055657
 418	2.0850e-01	16.6423	113.451064	0.000687	6.870330	2.327731	0.054850
 419	2.0900e-01	16.6840	113.886638	0.001091	10.911701	3.696984	0.087115
 420	2.0950e-01	16.7289	114.293981	0.001020	10.204461	3.457365	0.081469
 421	2.1000e-01	16.7690	114.548067	0.000637	6.365159	2.156574	0.050817
 422	2.1050e-01	16.8124	114.781986	0.000586	5.859988	1.985418	0.046784
 423	2.1100e-01	16.8428	115.120767	0.000849	8.486879	2.875432	0.067756
 424	2.1150e-01	16.8829	115.439381	0.000798	7.981707	2.704276	0.063723
 425	2.1200e-01	16.9263	115.725731	0.000717	7.173433	2.430425	0.057270
 426	2.1250e-01	16.9760	115.919320	0.000485	4.849645	1.643104	0.038718
 427	2.1300e-01	17.0049	116.366994	0.001121	11.214804	3.799678	0.089535
 428	2.1350e-01	17.0434	116.649311	0.000707	7.072399	2.396194	0.056463
 429	2.1400e-01	17.0883	116.907429	0.000647	6.466193	2.190806	0.051624
 430	2.1450e-01	17.1348	117.266375	0.000899	8.992050	3.046589	0.071789
 431	2.1500e-01	17.1621	117.540626	0.000687	6.870330	2.327731	0.054850
 432	2.1550e-01	17.2150	117.766479	0.000566	5.657919	1.916955	0.045171
 433	2.1600e-01	17.2455	118.109293	0.000859	8.587913	2.909664	0.068563
 434	2.1650e-01	17.2968	118.480338	0.000930	9.295153	3.149283	0.074209
 435	2.1700e-01	17.3337	118.742489	0.000657	6.567228	2.225037	0.052430
 436	2.1750e-01	17.3658	118.988508	0.000616	6.163091	2.088112	0.049204
 437	2.1800e-01	17.4059	119.416017	0.001071	10.709633	3.628522	0.085502
 438	2.1850e-01	17.4428	119.722532	0.000768	7.678605	2.601582	0.061303
 439	2.1900e-01	17.4926	120.077445	0.000889	8.891016	3.012358	0.070983
 440	2.1950e-01	17.5198	120.319431	0.000606	6.062056	2.053880	0.048397
 441	2.2000e-01	17.5728	120.517052	0.000495	4.950679	1.677336	0.039524
 442	2.2050e-01	17.6129	120.831634	0.000788	7.880673	2.670044	0.062916
 443	2.2100e-01	17.6466	121.283341	0.001132	11.315838	3.833910	0.090341
 444	2.2150e-01	17.6899	121.489029	0.000515	5.152748	1.745798	0.041138
 445	2.2200e-01	17.7236	121.698750	0.000525	5.253782	1.780030	0.041944
 446	2.2250e-01	17.7653	122.114159	0.001041	10.406530	3.525828	0.083082
 447	2.2300e-01	17.8086	122.521502	0.001020	10.204461	3.457365	0.081469
 448	2.2350e-01	17.8583	122.803819	0.000707	7.072399	2.396194	0.056463
 449	2.2400e-01	17.8936	122.985309	0.000455	4.546542	1.540410	0.036298
 450	2.2450e-01	17.9305	123.400718	0.001041	10.406530	3.525828	0.083082
 451	2.2500e-01	17.9626	123.735465	0.000839	8.385844	2.841201	0.066949
 452	2.2550e-01	18.0139	123.973418	0.000596	5.961022	2.019649	0.047591
 453	2.2600e-01	18.0428	124.328331	0.000889	8.891016	3.012358	0.070983
 454	2.2650e-01	18.0925	124.505787	0.000445	4.445508	1.506179	0.035491
 455	2.2700e-01	18.1342	124.780038	0.000687	6.870330	2.327731	0.054850
 456	2.2750e-01	18.1711	125.122851	0.000859	8.587913	2.909664	0.068563
 457	2.2800e-01	18.2016	125.409201	0.000717	7.173433	2.430425	0.057270
 458	2.2850e-01	18.2530	125.735882	0.000818	8.183776	2.772738	0.065336
 459	2.2900e-01	18.2883	126.030298	0.000738	7.375502	2.498888	0.058883
 460	2.2950e-01	18.3316	126.288417	0.000647	6.466193	2.190806	0.051624
 461	2.3000e-01	18.3669	126.663495	0.000940	9.396187	3.183514	0.075016
 462	2.3050e-01	18.4182	126.949845	0.000717	7.173433	2.430425	0.057270
 463	2.3100e-01	18.4439	127.232162	0.000707	7.072399	2.396194	0.056463
 464	2.3150e-01	18.4872	127.679836	0.001121	11.214804	3.799678	0.089535
 465	2.3200e-01	18.5369	127.994417	0.000788	7.880673	2.670044	0.062916
 466	2.3250e-01	18.5610	128.167840	0.000434	4.344474	1.471948	0.034685
 467	2.3300e-01	18.6107	128.514687	0.000869	8.688947	2.943895	0.069369
 468	2.3350e-01	18.6620	128.801037	0.000717	7.173433	2.430425	0.057270
 469	2.3400e-01	18.6861	128.970427	0.000424	4.243439	1.437716	0.033878
 470	2.3450e-01	18.7310	129.369704	0.001000	10.002393	3.388902	0.079855
 471	2.3500e-01	18.7663	129.692352	0.000808	8.082742	2.738507	0.064530
 472	2.3550e-01	18.8096	129.986768	0.000738	7.375502	2.498888	0.058883
 473	2.3600e-01	18.8497	130.337648	0.000879	8.789982	2.978126	0.070176
 474	2.3650e-01	18.8914	130.668362	0.000828	8.284810	2.806970	0.066143
 475	2.3700e-01	18.9348	130.950679	0.000707	7.072399	2.396194	0.056463
 476	2.3750e-01	18.9733	131.228962	0.000697	6.971365	2.361962	0.055657
 477	2.3800e-01	19.0102	131.499180	0.000677	6.769296	2.293500	0.054044
 478	2.3850e-01	19.0583	131.733100	0.000586	5.859988	1.985418	0.046784
 479	2.3900e-01	19.0936	132.035582	0.000758	7.577570	2.567350	0.060496
 480	2.3950e-01	19.1289	132.446958	0.001031	10.305496	3.491596	0.082275
 481	2.4000e-01	19.1626	132.721209	0.000687	6.870330	2.327731	0.054850
 482	2.4050e-01	19.2059	132.983360	0.000657	6.567228	2.225037	0.052430
 483	2.4100e-01	19.2476	133.326174	0.000859	8.587913	2.909664	0.068563
 484	2.4150e-01	19.2941	133.709318	0.000960	9.598256	3.251977	0.076629
 485	2.4200e-01	19.3342	133.991635	0.000707	7.072399	2.396194	0.056463
 486	2.4250e-01	19.3727	134.209422	0.000546	5.455851	1.848492	0.043557
 487	2.4300e-01	19.4128	134.398978	0.000475	4.748611	1.608873	0.037911
 488	2.4350e-01	19.4481	134.713560	0.000788	7.880673	2.670044	0.062916
 489	2.4400e-01	19.4834	135.169300	0.001142	11.416873	3.868141	0.091148
 490	2.4450e-01	19.5235	135.407252	0.000596	5.961022	2.019649	0.047591
 491	2.4500e-01	19.5684	135.774264	0.000919	9.194119	3.115052	0.073402
 492	2.4550e-01	19.6069	136.028350	0.000637	6.365159	2.156574	0.050817
 493	2.4600e-01	19.6535	136.262269	0.000586	5.859988	1.985418	0.046784
 494	2.4650e-01	19.6952	136.564752	0.000758	7.577570	2.567350	0.060496
 495	2.4700e-01	19.7305	136.883367	0.000798	7.981707	2.704276	0.063723
 496	2.4750e-01	19.7706	137.222147	0.000849	8.486879	2.875432	0.067756
 497	2.4800e-01	19.8075	137.476232	0.000637	6.365159	2.156574	0.050817
 498	2.4850e-01	19.8524	137.863410	0.000970	9.699290	3.286208	0.077435
 499	2.4900e-01	19.8941	138.109429	0.000616	6.163091	2.088112	0.049204
 500	2.4950e-01	19.9342	138.319150	0.000525	5.253782	1.780030	0.041944
 501	2.5000e-01	19.9711	138.766824	0.001121	11.214804	3.799678	0.089535
 502	2.5050e-01	19.9791	138.928148	0.000404	4.041371	1.369254	0.032265
 503	2.5100e-01	19.9502	139.049141	-0.000303	-3.031028	-1.026940	0.024199
 504	2.5150e-01	19.9230	138.839419	0.000525	5.253782	1.780030	-0.041944
 505	2.5200e-01	19.8716	138.694228	0.000364	3.637234	1.232328	-0.029038
 506	2.5250e-01	19.8412	138.573235	0.000303	3.031028	1.026940	-0.024199
 507	2.5300e-01	19.7978	138.387712	0.000465	4.647576	1.574642	-0.037105
 508	2.5350e-01	19.7658	138.339315	0.000121	1.212411	0.410776	-0.009679
 509	2.5400e-01	19.7160	138.206223	0.000333	3.334131	1.129634	-0.026618
 510	2.5450e-01	19.6759	137.952138	0.000637	6.365159	2.156574	-0.050817
 511	2.5500e-01	19.6438	137.823079	0.000323	3.233097	1.095403	-0.025812
 512	2.5550e-01	19.6005	137.706119	0.000293	2.929994	0.992709	-0.023392
 513	2.5600e-01	19.5588	137.456067	0.000626	6.264125	2.122343	-0.050010
 514	2.5650e-01	19.5187	137.327007	0.000323	3.233097	1.095403	-0.025812
 515	2.5700e-01	19.4802	137.197948	0.000323	3.233097	1.095403	-0.025812
 516	2.5750e-01	19.4401	136.968062	0.000576	5.758953	1.951186	-0.045977
 517	2.5800e-01	19.3984	136.669612	0.000748	7.476536	2.533119	-0.059690
 518	2.5850e-01	19.3519	136.379229	0.000727	7.274468	2.464656	-0.058077
 519	2.5900e-01	19.3214	136.350998	0.000071	0.707240	0.239619	-0.005646
 520	2.5950e-01	19.2877	136.334865	0.000040	0.404137	0.136925	-0.003226
 521	2.6000e-01	19.2428	136.242104	0.000232	2.323788	0.787321	-0.018552
 522	2.6050e-01	19.2011	135.979952	0.000657	6.567228	2.225037	-0.052430
 523	2.6100e-01	19.1610	135.867026	0.000283	2.828960	0.958477	-0.022585
 524	2.6150e-01	19.1289	135.649238	0.000546	5.455851	1.848492	-0.043557
 525	2.6200e-01	19.0856	135.475815	0.000434	4.344474	1.471948	-0.034685
 526	2.6250e-01	19.0422	135.201564	0.000687	6.870330	2.327731	-0.054850
 527	2.6300e-01	18.9925	135.036207	0.000414	4.142405	1.403485	-0.033071
 528	2.6350e-01	18.9620	134.931347	0.000263	2.626891	0.890015	-0.020972
 529	2.6400e-01	18.9123	134.725659	0.000515	5.152748	1.745798	-0.041138
 530	2.6450e-01	18.8722	134.479640	0.000616	6.163091	2.088112	-0.049204
 531	2.6500e-01	18.8321	134.338481	0.000354	3.536199	1.198097	-0.028232
 532	2.6550e-01	18.7952	134.201356	0.000344	3.435165	1.163865	-0.027425
 533	2.6600e-01	18.7551	133.858543	0.000859	8.587913	2.909664	-0.068563
 534	2.6650e-01	18.7230	133.749649	0.000273	2.727925	0.924246	-0.021779
 535	2.6700e-01	18.6781	133.564126	0.000465	4.647576	1.574642	-0.037105
 536	2.6750e-01	18.6428	133.414902	0.000374	3.738268	1.266559	-0.029845
 537	2.6800e-01	18.5898	133.201148	0.000535	5.354816	1.814261	-0.042751
 538	2.6850e-01	18.5530	132.842202	0.000899	8.992050	3.046589	-0.071789
 539	2.6900e-01	18.5209	132.688944	0.000384	3.839302	1.300791	-0.030652
 540	2.6950e-01	18.4824	132.475190	0.000535	5.354816	1.814261	-0.042751
 541	2.7000e-01	18.4455	132.325965	0.000374	3.738268	1.266559	-0.029845
 542	2.7050e-01	18.4134	131.995251	0.000828	8.284810	2.806970	-0.066143
 543	2.7100e-01	18.3572	131.862159	0.000333	3.334131	1.129634	-0.026618
 544	2.7150e-01	18.3203	131.712934	0.000374	3.738268	1.266559	-0.029845
 545	2.7200e-01	18.2770	131.410452	0.000758	7.577570	2.567350	-0.060496
 546	2.7250e-01	18.2321	131.301558	0.000273	2.727925	0.924246	-0.021779
 547	2.7300e-01	18.2000	131.067638	0.000586	5.859988	1.985418	-0.046784
 548	2.7350e-01	18.1535	130.744990	0.000808	8.082742	2.738507	-0.064530
 549	2.7400e-01	18.1230	130.539302	0.000515	5.152748	1.745798	-0.041138
 550	2.7450e-01	18.0813	130.369912	0.000424	4.243439	1.437716	-0.033878
 551	2.7500e-01	18.0444	130.087595	0.000707	7.072399	2.396194	-0.056463
 552	2.7550e-01	17.9979	129.974669	0.000283	2.828960	0.958477	-0.022585
 553	2.7600e-01	17.9562	129.873841	0.000253	2.525857	0.855783	-0.020165
 554	2.7650e-01	17.9241	129.571359	0.000758	7.577570	2.567350	-0.060496
 555	2.7700e-01	17.8872	129.365671	0.000515	5.152748	1.745798	-0.041138
 556	2.7750e-01	17.8343	129.176115	0.000475	4.748611	1.608873	-0.037911
 557	2.7800e-01	17.8022	128.990593	0.000465	4.647576	1.574642	-0.037105
 558	2.7850e-01	17.7573	128.728441	0.000657	6.567228	2.225037	-0.052430
 559	2.7900e-01	17.7171	128.607448	0.000303	3.031028	1.026940	-0.024199
 560	2.7950e-01	17.6915	128.397727	0.000525	5.253782	1.780030	-0.041944
 561	2.8000e-01	17.6450	128.135576	0.000657	6.567228	2.225037	-0.052430
 562	2.8050e-01	17.5968	127.861325	0.000687	6.870330	2.327731	-0.054850
 563	2.8100e-01	17.5535	127.494313	0.000919	9.194119	3.115052	-0.073402
 564	2.8150e-01	17.5166	127.458015	0.000091	0.909308	0.308082	-0.007260
 565	2.8200e-01	17.4733	127.260393	0.000495	4.950679	1.677336	-0.039524
 566	2.8250e-01	17.4492	127.002275	0.000647	6.466193	2.190806	-0.051624
 567	2.8300e-01	17.3947	126.736090	0.000667	6.668262	2.259268	-0.053237
 568	2.8350e-01	17.3530	126.574767	0.000404	4.041371	1.369254	-0.032265
 569	2.8400e-01	17.3177	126.260185	0.000788	7.880673	2.670044	-0.062916
 570	2.8450e-01	17.2824	126.094828	0.000414	4.142405	1.403485	-0.033071
 571	2.8500e-01	17.2375	125.848809	0.000616	6.163091	2.088112	-0.049204
 572	2.8550e-01	17.1990	125.683452	0.000414	4.142405	1.403485	-0.033071
 573	2.8600e-01	17.1685	125.485830	0.000495	4.950679	1.677336	-0.039524
 574	2.8650e-01	17.1188	125.316440	0.000424	4.243439	1.437716	-0.033878
 575	2.8700e-01	17.0738	124.961527	0.000889	8.891016	3.012358	-0.070983
 576	2.8750e-01	17.0353	124.751806	0.000525	5.253782	1.780030	-0.041944
 577	2.8800e-01	17.0049	124.509820	0.000606	6.062056	2.053880	-0.048397
 578	2.8850e-01	16.9583	124.332364	0.000445	4.445508	1.506179	-0.035491
 579	2.8900e-01	16.9279	124.017782	0.000788	7.880673	2.670044	-0.062916
 580	2.8950e-01	16.8862	123.856458	0.000404	4.041371	1.369254	-0.032265
 581	2.9000e-01	16.8444	123.691101	0.000414	4.142405	1.403485	-0.033071
 582	2.9050e-01	16.7915	123.368453	0.000808	8.082742	2.738507	-0.064530
 583	2.9100e-01	16.7626	123.199063	0.000424	4.243439	1.437716	-0.033878
 584	2.9150e-01	16.7161	122.993375	0.000515	5.152748	1.745798	-0.041138
 585	2.9200e-01	16.6808	122.723157	0.000677	6.769296	2.293500	-0.054044
 586	2.9250e-01	16.6455	122.493271	0.000576	5.758953	1.951186	-0.045977
 587	2.9300e-01	16.6070	122.348079	0.000364	3.637234	1.232328	-0.029038
 588	2.9350e-01	16.5605	122.057696	0.000727	7.274468	2.464656	-0.058077
 589	2.9400e-01	16.5236	121.823776	0.000586	5.859988	1.985418	-0.046784
 590	2.9450e-01	16.4835	121.610022	0.000535	5.354816	1.814261	-0.042751
 591	2.9500e-01	16.4482	121.432566	0.000445	4.445508	1.506179	-0.035491
 592	2.9550e-01	16.4049	121.243010	0.000475	4.748611	1.608873	-0.037911
 593	2.9600e-01	16.3552	120.888098	0.000889	8.891016	3.012358	-0.070983
 594	2.9650e-01	16.3231	120.686443	0.000505	5.051714	1.711567	-0.040331
 595	2.9700e-01	16.2765	120.408159	0.000697	6.971365	2.361962	-0.055657
 596	2.9750e-01	16.2445	120.214570	0.000485	4.849645	1.643104	-0.038718
 597	2.9800e-01	16.2044	119.827393	0.000970	9.699290	3.286208	-0.077435
 598	2.9850e-01	16.1594	119.653969	0.000434	4.344474	1.471948	-0.034685
 599	2.9900e-01	16.1033	119.440215	0.000535	5.354816	1.814261	-0.042751
 600	2.9950e-01	16.0744	119.315189	0.000313	3.132062	1.061171	-0.025005
 601	3.0000e-01	16.0391	118.984475	0.000828	8.284810	2.806970	-0.066143
 602	3.0050e-01	15.9942	118.798952	0.000465	4.647576	1.574642	-0.037105
 603	3.0100e-01	15.9589	118.597297	0.000505	5.051714	1.711567	-0.040331
 604	3.0150e-01	15.9124	118.375477	0.000556	5.556885	1.882724	-0.044364
 605	3.0200e-01	15.8803	118.198021	0.000445	4.445508	1.506179	-0.035491
 606	3.0250e-01	15.8354	117.972167	0.000566	5.657919	1.916955	-0.045171
 607	3.0300e-01	15.7969	117.681784	0.000727	7.274468	2.464656	-0.058077
 608	3.0350e-01	15.7584	117.407533	0.000687	6.870330	2.327731	-0.054850
 609	3.0400e-01	15.7215	117.109084	0.000748	7.476536	2.533119	-0.059690
 610	3.0450e-01	15.6798	116.850966	0.000647	6.466193	2.190806	-0.051624
 611	3.0500e-01	15.6461	116.572682	0.000697	6.971365	2.361962	-0.055657
 612	3.0550e-01	15.6060	116.266167	0.000768	7.678605	2.601582	-0.061303
 613	3.0600e-01	15.5578	116.177438	0.000222	2.222754	0.753089	-0.017746
 614	3.0650e-01	15.5210	115.923353	0.000637	6.365159	2.156574	-0.050817
 615	3.0700e-01	15.4808	115.778162	0.000364	3.637234	1.232328	-0.029038
 616	3.0750e-01	15.4343	115.620871	0.000394	3.940337	1.335022	-0.031458
 617	3.0800e-01	15.3974	115.326455	0.000738	7.375502	2.498888	-0.058883
 618	3.0850e-01	15.3686	114.951376	0.000940	9.396187	3.183514	-0.075016
 619	3.0900e-01	15.3156	114.701324	0.000626	6.264125	2.122343	-0.050010
 620	3.0950e-01	15.2771	114.495636	0.000515	5.152748	1.745798	-0.041138
 621	3.1000e-01	15.2258	114.269783	0.000566	5.657919	1.916955	-0.045171
 622	3.1050e-01	15.2001	114.072161	0.000495	4.950679	1.677336	-0.039524
 623	3.1100e-01	15.1568	113.830175	0.000606	6.062056	2.053880	-0.048397
 624	3.1150e-01	15.1183	113.410733	0.001051	10.507564	3.560059	-0.083888
 625	3.1200e-01	15.0798	113.253442	0.000394	3.940337	1.335022	-0.031458
 626	3.1250e-01	15.0413	113.003390	0.000626	6.264125	2.122343	-0.050010
 627	3.1300e-01	14.9932	112.878364	0.000313	3.132062	1.061171	-0.025005
 628	3.1350e-01	14.9498	112.600080	0.000697	6.971365	2.361962	-0.055657
 629	3.1400e-01	14.9258	112.229035	0.000930	9.295153	3.149283	-0.074209
 630	3.1450e-01	14.8841	112.071744	0.000394	3.940337	1.335022	-0.031458
 631	3.1500e-01	14.8424	111.736997	0.000839	8.385844	2.841201	-0.066949
 632	3.1550e-01	14.8007	111.482912	0.000637	6.365159	2.156574	-0.050817
 633	3.1600e-01	14.7525	111.410316	0.000182	1.818617	0.616164	-0.014519
 634	3.1650e-01	14.7236	111.172363	0.000596	5.961022	2.019649	-0.047591
 635	3.1700e-01	14.6787	110.914245	0.000647	6.466193	2.190806	-0.051624
 636	3.1750e-01	14.6418	110.660159	0.000637	6.365159	2.156574	-0.050817
 637	3.1800e-01	14.5889	110.434306	0.000566	5.657919	1.916955	-0.045171
 638	3.1850e-01	14.5632	110.055195	0.000950	9.497221	3.217746	-0.075822
 639	3.1900e-01	14.5103	109.978566	0.000192	1.919651	0.650395	-0.015326
 640	3.1950e-01	14.4830	109.587355	0.000980	9.800324	3.320440	-0.078242
 641	3.2000e-01	14.4477	109.381667	0.000515	5.152748	1.745798	-0.041138
 642	3.2050e-01	14.4012	109.119516	0.000657	6.567228	2.225037	-0.052430
 643	3.2100e-01	14.3563	108.978357	0.000354	3.536199	1.198097	-0.028232
 644	3.2150e-01	14.3242	108.724272	0.000637	6.365159	2.156574	-0.050817
 645	3.2200e-01	14.2809	108.462121	0.000657	6.567228	2.225037	-0.052430
 646	3.2250e-01	14.2424	108.216102	0.000616	6.163091	2.088112	-0.049204
 647	3.2300e-01	14.1959	107.816825	0.001000	10.002393	3.388902	-0.079855
 648	3.2350e-01	14.1541	107.631302	0.000465	4.647576	1.574642	-0.037105
 649	3.2400e-01	14.1221	107.328820	0.000758	7.577570	2.567350	-0.060496
 650	3.2450e-01	14.0787	106.953742	0.000940	9.396187	3.183514	-0.075016
 651	3.2500e-01	14.0322	106.788385	0.000414	4.142405	1.403485	-0.033071
 652	3.2550e-01	14.0066	106.618995	0.000424	4.243439	1.437716	-0.033878
 653	3.2600e-01	13.9552	106.510101	0.000273	2.727925	0.924246	-0.021779
 654	3.2650e-01	13.9103	106.256016	0.000637	6.365159	2.156574	-0.050817
 655	3.2700e-01	13.8798	105.957566	0.000748	7.476536	2.533119	-0.059690
 656	3.2750e-01	13.8413	105.731713	0.000566	5.657919	1.916955	-0.045171
 657	3.2800e-01	13.8028	105.409065	0.000808	8.082742	2.738507	-0.064530
 658	3.2850e-01	13.7643	105.122715	0.000717	7.173433	2.430425	-0.057270
 659	3.2900e-01	13.7178	104.727471	0.000990	9.901359	3.354671	-0.079049
 660	3.2950e-01	13.6745	104.630677	0.000242	2.424823	0.821552	-0.019359
 661	3.3000e-01	13.6280	104.404824	0.000566	5.657919	1.916955	-0.045171
 662	3.3050e-01	13.6007	104.130573	0.000687	6.870330	2.327731	-0.054850
 663	3.3100e-01	13.5638	103.924885	0.000515	5.152748	1.745798	-0.041138
 664	3.3150e-01	13.5189	103.549807	0.000940	9.396187	3.183514	-0.075016
 665	3.3200e-01	13.4820	103.299755	0.000626	6.264125	2.122343	-0.050010
 666	3.3250e-01	13.4403	103.114232	0.000465	4.647576	1.574642	-0.037105
 667	3.3300e-01	13.3953	102.856114	0.000647	6.466193	2.190806	-0.051624
 668	3.3350e-01	13.3601	102.472969	0.000960	9.598256	3.251977	-0.076629
 669	3.3400e-01	13.3199	102.307612	0.000414	4.142405	1.403485	-0.033071
 670	3.3450e-01	13.2750	102.097891	0.000525	5.253782	1.780030	-0.041944
 671	3.3500e-01	13.2445	101.851872	0.000616	6.163091	2.088112	-0.049204
 672	3.3550e-01	13.2044	101.549390	0.000758	7.577570	2.567350	-0.060496
 673	3.3600e-01	13.1563	101.194477	0.000889	8.891016	3.012358	-0.070983
 674	3.3650e-01	13.1178	100.992822	0.000505	5.051714	1.711567	-0.040331
 675	3.3700e-01	13.0777	100.722604	0.000677	6.769296	2.293500	-0.054044
 676	3.3750e-01	13.0360	100.508850	0.000535	5.354816	1.814261	-0.042751
 677	3.3800e-01	12.9991	100.186202	0.000808	8.082742	2.738507	-0.064530
 678	3.3850e-01	12.9558	100.008746	0.000445	4.445508	1.506179	-0.035491
 679	3.3900e-01	12.9109	99.565105	0.001111	11.113770	3.765447	-0.088728
 680	3.3950e-01	12.8772	99.407814	0.000394	3.940337	1.335022	-0.031458
 681	3.4000e-01	12.8387	99.230358	0.000445	4.445508	1.506179	-0.035491
 682	3.4050e-01	12.8066	98.968207	0.000657	6.567228	2.225037	-0.052430
 683	3.4100e-01	12.7617	98.738320	0.000576	5.758953	1.951186	-0.045977
 684	3.4150e-01	12.7216	98.383407	0.000889	8.891016	3.012358	-0.070983
 685	3.4200e-01	12.6734	98.189819	0.000485	4.849645	1.643104	-0.038718
 686	3.4250e-01	12.6430	97.931700	0.000647	6.466193	2.190806	-0.051624
 687	3.4300e-01	12.6045	97.762310	0.000424	4.243439	1.437716	-0.033878
 688	3.4350e-01	12.5627	97.322702	0.001101	11.012736	3.731216	-0.087922
 689	3.4400e-01	12.5275	97.092816	0.000576	5.758953	1.951186	-0.045977
 690	3.4450e-01	12.4825	96.826631	0.000667	6.668262	2.259268	-0.053237
 691	3.4500e-01	12.4424	96.629009	0.000495	4.950679	1.677336	-0.039524
 692	3.4550e-01	12.4007	96.261997	0.000919	9.194119	3.115052	-0.073402
 693	3.4600e-01	12.3686	96.084541	0.000445	4.445508	1.506179	-0.035491
 694	3.4650e-01	12.3173	95.814323	0.000677	6.769296	2.293500	-0.054044
 695	3.4700e-01	12.2868	95.657033	0.000394	3.940337	1.335022	-0.031458
 696	3.4750e-01	12.2419	95.342451	0.000788	7.880673	2.670044	-0.062916
 697	3.4800e-01	12.2050	94.995604	0.000869	8.688947	2.943895	-0.069369
 698	3.4850e-01	12.1681	94.834281	0.000404	4.041371	1.369254	-0.032265
 699	3.4900e-01	12.1136	94.620526	0.000535	5.354816	1.814261	-0.042751
 700	3.4950e-01	12.0927	94.241415	0.000950	9.497221	3.217746	-0.075822
 701	3.5000e-01	12.0430	93.817940	0.001061	10.608598	3.594290	-0.084695
 702	3.5050e-01	12.0109	93.696947	0.000303	3.031028	1.026940	-0.024199
 703	3.5100e-01	11.9644	93.410597	0.000717	7.173433	2.430425	-0.057270
 704	3.5150e-01	11.9259	93.083916	0.000818	8.183776	2.772738	-0.065336
 705	3.5200e-01	11.8890	92.942757	0.000354	3.536199	1.198097	-0.028232
 706	3.5250e-01	11.8408	92.648341	0.000738	7.375502	2.498888	-0.058883
 707	3.5300e-01	11.8088	92.370057	0.000697	6.971365	2.361962	-0.055657
 708	3.5350e-01	11.7719	92.107906	0.000657	6.567228	2.225037	-0.052430
 709	3.5400e-01	11.7141	91.918350	0.000475	4.748611	1.608873	-0.037911
 710	3.5450e-01	11.6852	91.575537	0.000859	8.587913	2.909664	-0.068563
 711	3.5500e-01	11.6371	91.224657	0.000879	8.789982	2.978126	-0.070176
 712	3.5550e-01	11.6018	90.978638	0.000616	6.163091	2.088112	-0.049204
 713	3.5600e-01	11.5537	90.752785	0.000566	5.657919	1.916955	-0.045171
 714	3.5650e-01	11.5216	90.575328	0.000445	4.445508	1.506179	-0.035491
 715	3.5700e-01	11.4863	90.288978	0.000717	7.173433	2.430425	-0.057270
 716	3.5750e-01	11.4430	90.010695	0.000697	6.971365	2.361962	-0.055657
 717	3.5800e-01	11.4013	89.696113	0.000788	7.880673	2.670044	-0.062916
 718	3.5850e-01	11.3516	89.454127	0.000606	6.062056	2.053880	-0.048397
 719	3.5900e-01	11.3227	89.179876	0.000687	6.870330	2.327731	-0.054850
 720	3.5950e-01	11.2794	88.877394	0.000758	7.577570	2.567350	-0.060496
 721	3.6000e-01	11.2441	88.631375	0.000616	6.163091	2.088112	-0.049204
 722	3.6050e-01	11.1991	88.441819	0.000475	4.748611	1.608873	-0.037911
 723	3.6100e-01	11.1590	88.131271	0.000778	7.779639	2.635813	-0.062110
 724	3.6150e-01	11.1189	87.776358	0.000889	8.891016	3.012358	-0.070983
 725	3.6200e-01	11.0885	87.546471	0.000576	5.758953	1.951186	-0.045977
 726	3.6250e-01	11.0371	87.308519	0.000596	5.961022	2.019649	-0.047591
 727	3.6300e-01	11.0018	87.058466	0.000626	6.264125	2.122343	-0.050010
 728	3.6350e-01	10.9649	86.816481	0.000606	6.062056	2.053880	-0.048397
 729	3.6400e-01	10.9296	86.316376	0.001253	12.528250	4.244686	-0.100021
 730	3.6450e-01	10.8799	86.138920	0.000445	4.445508	1.506179	-0.035491
 731	3.6500e-01	10.8446	85.957431	0.000455	4.546542	1.540410	-0.036298
 732	3.6550e-01	10.8061	85.663014	0.000738	7.375502	2.498888	-0.058883
 733	3.6600e-01	10.7676	85.396830	0.000667	6.668262	2.259268	-0.053237
 734	3.6650e-01	10.7147	85.203241	0.000485	4.849645	1.643104	-0.038718
 735	3.6700e-01	10.6810	84.868494	0.000839	8.385844	2.841201	-0.066949
 736	3.6750e-01	10.6393	84.570045	0.000748	7.476536	2.533119	-0.059690
 737	3.6800e-01	10.6040	84.239331	0.000828	8.284810	2.806970	-0.066143
 738	3.6850e-01	10.5607	83.948947	0.000727	7.274468	2.464656	-0.058077
 739	3.6900e-01	10.5206	83.650498	0.000748	7.476536	2.533119	-0.059690
 740	3.6950e-01	10.4805	83.444810	0.000515	5.152748	1.745798	-0.041138
 741	3.7000e-01	10.4387	83.279453	0.000414	4.142405	1.403485	-0.033071
 742	3.7050e-01	10.4002	82.916474	0.000909	9.093084	3.080820	-0.072596
 743	3.7100e-01	10.3521	82.654323	0.000657	6.567228	2.225037	-0.052430
 744	3.7150e-01	10.3184	82.279245	0.000940	9.396187	3.183514	-0.075016
 745	3.7200e-01	10.2799	82.049358	0.000576	5.758953	1.951186	-0.045977
 746	3.7250e-01	10.2462	81.888034	0.000404	4.041371	1.369254	-0.032265
 747	3.7300e-01	10.2029	81.670247	0.000546	5.455851	1.848492	-0.043557
 748	3.7350e-01	10.1612	81.262904	0.001020	10.204461	3.457365	-0.081469
 749	3.7400e-01	10.1195	81.000752	0.000657	6.567228	2.225037	-0.052430
 750	3.7450e-01	10.0842	80.730535	0.000677	6.769296	2.293500	-0.054044
 751	3.7500e-01	10.0409	80.480483	0.000626	6.264125	2.122343	-0.050010
 752	3.7550e-01	10.0008	80.206232	0.000687	6.870330	2.327731	-0.054850
 753	3.7600e-01	9.9559	79.931981	0.000687	6.870330	2.327731	-0.054850
 754	3.7650e-01	9.9142	79.681929	0.000626	6.264125	2.122343	-0.050010
 755	3.7700e-01	9.8789	79.262487	0.001051	10.507564	3.560059	-0.083888
 756	3.7750e-01	9.8356	79.072931	0.000475	4.748611	1.608873	-0.037911
 757	3.7800e-01	9.8019	78.661555	0.001031	10.305496	3.491596	-0.082275
 758	3.7850e-01	9.7585	78.512330	0.000374	3.738268	1.266559	-0.029845
 759	3.7900e-01	9.7233	78.161451	0.000879	8.789982	2.978126	-0.070176
 760	3.7950e-01	9.6848	77.887200	0.000687	6.870330	2.327731	-0.054850
 761	3.8000e-01	9.6302	77.560519	0.000818	8.183776	2.772738	-0.065336
 762	3.8050e-01	9.6061	77.354831	0.000515	5.152748	1.745798	-0.041138
 763	3.8100e-01	9.5548	77.007985	0.000869	8.688947	2.943895	-0.069369
 764	3.8150e-01	9.5099	76.741800	0.000667	6.668262	2.259268	-0.053237
 765	3.8200e-01	9.4778	76.495781	0.000616	6.163091	2.088112	-0.049204
 766	3.8250e-01	9.4393	76.265895	0.000576	5.758953	1.951186	-0.045977
 767	3.8300e-01	9.4040	75.898883	0.000919	9.194119	3.115052	-0.073402
 768	3.8350e-01	9.3639	75.592367	0.000768	7.678605	2.601582	-0.061303
 769	3.8400e-01	9.3190	75.382646	0.000525	5.253782	1.780030	-0.041944
 770	3.8450e-01	9.2805	75.080164	0.000758	7.577570	2.567350	-0.060496
 771	3.8500e-01	9.2388	74.846244	0.000586	5.859988	1.985418	-0.046784
 772	3.8550e-01	9.2035	74.455033	0.000980	9.800324	3.320440	-0.078242
 773	3.8600e-01	9.1602	74.285643	0.000424	4.243439	1.437716	-0.033878
 774	3.8650e-01	9.1217	73.854102	0.001081	10.810667	3.662753	-0.086308
 775	3.8700e-01	9.0751	73.660513	0.000485	4.849645	1.643104	-0.038718
 776	3.8750e-01	9.0366	73.386262	0.000687	6.870330	2.327731	-0.054850
 777	3.8800e-01	9.0014	73.208806	0.000445	4.445508	1.506179	-0.035491
 778	3.8850e-01	8.9628	72.801463	0.001020	10.204461	3.457365	-0.081469
 779	3.8900e-01	8.9227	72.628040	0.000434	4.344474	1.471948	-0.034685
 780	3.8950e-01	8.8778	72.148101	0.001202	12.023078	4.073529	-0.095988
 781	3.9000e-01	8.8409	71.898049	0.000626	6.264125	2.122343	-0.050010
 782	3.9050e-01	8.8008	71.680261	0.000546	5.455851	1.848492	-0.043557
 783	3.9100e-01	8.7623	71.418110	0.000657	6.567228	2.225037	-0.052430
 784	3.9150e-01	8.7126	71.305183	0.000283	2.828960	0.958477	-0.022585
 785	3.9200e-01	8.6837	71.043032	0.000657	6.567228	2.225037	-0.052430
 786	3.9250e-01	8.6372	70.643755	0.001000	10.002393	3.388902	-0.079855
 787	3.9300e-01	8.5971	70.421935	0.000556	5.556885	1.882724	-0.044364
 788	3.9350e-01	8.5554	70.103320	0.000798	7.981707	2.704276	-0.063723
 789	3.9400e-01	8.5169	69.635480	0.001172	11.719975	3.970835	-0.093568
 790	3.9450e-01	8.4800	69.514488	0.000303	3.031028	1.026940	-0.024199
 791	3.9500e-01	8.4447	69.115211	0.001000	10.002393	3.388902	-0.079855
 792	3.9550e-01	8.4110	68.772397	0.000859	8.587913	2.909664	-0.068563
 793	3.9600e-01	8.3597	68.393286	0.000950	9.497221	3.217746	-0.075822
 794	3.9650e-01	8.3244	68.260194	0.000333	3.334131	1.129634	-0.026618
 795	3.9700e-01	8.2843	67.998042	0.000657	6.567228	2.225037	-0.052430
 796	3.9750e-01	8.2425	67.764123	0.000586	5.859988	1.985418	-0.046784
 797	3.9800e-01	8.1960	67.477773	0.000717	7.173433	2.430425	-0.057270
 798	3.9850e-01	8.1543	67.223688	0.000637	6.365159	2.156574	-0.050817
 799	3.9900e-01	8.1190	66.820378	0.001010	10.103427	3.423134	-0.080662
 800	3.9950e-01	8.0853	66.521928	0.000748	7.476536	2.533119	-0.059690
 801	4.0000e-01	8.0436	66.324307	0.000495	4.950679	1.677336	-0.039524
 802	4.0050e-01	8.0051	66.025857	0.000748	7.476536	2.533119	-0.059690
 803	4.0100e-01	7.9538	65.727408	0.000748	7.476536	2.533119	-0.059690
 804	4.0150e-01	7.9201	65.493488	0.000586	5.859988	1.985418	-0.046784
 805	4.0200e-01	7.8800	65.170840	0.000808	8.082742	2.738507	-0.064530
 806	4.0250e-01	7.8351	64.880457	0.000727	7.274468	2.464656	-0.058077
 807	4.0300e-01	7.8014	64.674769	0.000515	5.152748	1.745798	-0.041138
 808	4.0350e-01	7.7565	64.267426	0.001020	10.204461	3.457365	-0.081469
 809	4.0400e-01	7.7164	64.009308	0.000647	6.466193	2.190806	-0.051624
 810	4.0450e-01	7.6875	63.763289	0.000616	6.163091	2.088112	-0.049204
 811	4.0500e-01	7.6345	63.323681	0.001101	11.012736	3.731216	-0.087922
 812	4.0550e-01	7.6057	63.049430	0.000687	6.870330	2.327731	-0.054850
 813	4.0600e-01	7.5559	62.855842	0.000485	4.849645	1.643104	-0.038718
 814	4.0650e-01	7.5190	62.500929	0.000889	8.891016	3.012358	-0.070983
 815	4.0700e-01	7.4805	62.154083	0.000869	8.688947	2.943895	-0.069369
 816	4.0750e-01	7.4404	61.839501	0.000788	7.880673	2.670044	-0.062916
 817	4.0800e-01	7.3843	61.492654	0.000869	8.688947	2.943895	-0.069369
 818	4.0850e-01	7.3618	61.286966	0.000515	5.152748	1.745798	-0.041138
 819	4.0900e-01	7.3169	61.065146	0.000556	5.556885	1.882724	-0.044364
 820	4.0950e-01	7.2752	60.798961	0.000667	6.668262	2.259268	-0.053237
 821	4.1000e-01	7.2399	60.524711	0.000687	6.870330	2.327731	-0.054850
 822	4.1050e-01	7.1950	60.097202	0.001071	10.709633	3.628522	-0.085502
 823	4.1100e-01	7.1613	59.960077	0.000344	3.435165	1.163865	-0.027425
 824	4.1150e-01	7.1244	59.726157	0.000586	5.859988	1.985418	-0.046784
 825	4.1200e-01	7.0763	59.266384	0.001152	11.517907	3.902372	-0.091955
 826	4.1250e-01	7.0474	59.012299	0.000637	6.365159	2.156574	-0.050817
 827	4.1300e-01	7.0073	58.657386	0.000889	8.891016	3.012358	-0.070983
 828	4.1350e-01	6.9656	58.375069	0.000707	7.072399	2.396194	-0.056463
 829	4.1400e-01	6.9175	58.080653	0.000738	7.375502	2.498888	-0.058883
 830	4.1450e-01	6.8725	57.838667	0.000606	6.062056	2.053880	-0.048397
 831	4.1500e-01	6.8388	57.435357	0.001010	10.103427	3.423134	-0.080662
 832	4.1550e-01	6.8084	57.213537	0.000556	5.556885	1.882724	-0.044364
 833	4.1600e-01	6.7554	56.951385	0.000657	6.567228	2.225037	-0.052430
 834	4.1650e-01	6.7201	56.745697	0.000515	5.152748	1.745798	-0.041138
 835	4.1700e-01	6.6688	56.394818	0.000879	8.789982	2.978126	-0.070176
 836	4.1750e-01	6.6415	55.979409	0.001041	10.406530	3.525828	-0.083082
 837	4.1800e-01	6.5966	55.656761	0.000808	8.082742	2.738507	-0.064530
 838	4.1850e-01	6.5565	55.374444	0.000707	7.072399	2.396194	-0.056463
 839	4.1900e-01	6.5180	55.088094	0.000717	7.173433	2.430425	-0.057270
 840	4.1950e-01	6.4795	54.725115	0.000909	9.093084	3.080820	-0.072596
 841	4.2000e-01	6.4378	54.503295	0.000556	5.556885	1.882724	-0.044364
 842	4.2050e-01	6.4025	54.390368	0.000283	2.828960	0.958477	-0.022585
 843	4.2100e-01	6.3576	54.120150	0.000677	6.769296	2.293500	-0.054044
 844	4.2150e-01	6.3207	53.724906	0.000990	9.901359	3.354671	-0.079049
 845	4.2200e-01	6.2822	53.458722	0.000667	6.668262	2.259268	-0.053237
 846	4.2250e-01	6.2469	53.099776	0.000899	8.992050	3.046589	-0.071789
 847	4.2300e-01	6.2100	52.849724	0.000626	6.264125	2.122343	-0.050010
 848	4.2350e-01	6.1635	52.575473	0.000687	6.870330	2.327731	-0.054850
 849	4.2400e-01	6.1234	52.208461	0.000919	9.194119	3.115052	-0.073402
 850	4.2450e-01	6.0833	51.893880	0.000788	7.880673	2.670044	-0.062916
 851	4.2500e-01	6.0351	51.454272	0.001101	11.012736	3.731216	-0.087922
 852	4.2550e-01	5.9982	51.240518	0.000535	5.354816	1.814261	-0.042751
 853	4.2600e-01	5.9549	51.022730	0.000546	5.455851	1.848492	-0.043557
 854	4.2650e-01	5.9260	50.813009	0.000525	5.253782	1.780030	-0.041944
 855	4.2700e-01	5.8795	50.454064	0.000899	8.992050	3.046589	-0.071789
 856	4.2750e-01	5.8426	50.151581	0.000758	7.577570	2.567350	-0.060496
 857	4.2800e-01	5.8025	49.857165	0.000738	7.375502	2.498888	-0.058883
 858	4.2850e-01	5.7688	49.546616	0.000778	7.779639	2.635813	-0.062110
 859	4.2900e-01	5.7159	49.284465	0.000657	6.567228	2.225037	-0.052430
 860	4.2950e-01	5.6806	48.998115	0.000717	7.173433	2.430425	-0.057270
 861	4.3000e-01	5.6453	48.461713	0.001344	13.437558	4.552768	-0.107280
 862	4.3050e-01	5.6068	48.264091	0.000495	4.950679	1.677336	-0.039524
 863	4.3100e-01	5.5522	47.993873	0.000677	6.769296	2.293500	-0.054044
 864	4.3150e-01	5.5218	47.618795	0.000940	9.396187	3.183514	-0.075016
 865	4.3200e-01	5.4833	47.344544	0.000687	6.870330	2.327731	-0.054850
 866	4.3250e-01	5.4400	47.094492	0.000626	6.264125	2.122343	-0.050010
 867	4.3300e-01	5.4095	46.828308	0.000667	6.668262	2.259268	-0.053237
 868	4.3350e-01	5.3678	46.545991	0.000707	7.072399	2.396194	-0.056463
 869	4.3400e-01	5.3164	46.235442	0.000778	7.779639	2.635813	-0.062110
 870	4.3450e-01	5.2827	45.977324	0.000647	6.466193	2.190806	-0.051624
 871	4.3500e-01	5.2410	45.614345	0.000909	9.093084	3.080820	-0.072596
 872	4.3550e-01	5.2025	45.384459	0.000576	5.758953	1.951186	-0.045977
 873	4.3600e-01	5.1640	45.094075	0.000727	7.274468	2.464656	-0.058077
 874	4.3650e-01	5.1255	44.819825	0.000687	6.870330	2.327731	-0.054850
 875	4.3700e-01	5.0838	44.485078	0.000839	8.385844	2.841201	-0.066949
 876	4.3750e-01	5.0389	44.134198	0.000879	8.789982	2.978126	-0.070176
 877	4.3800e-01	5.0052	43.819616	0.000788	7.880673	2.670044	-0.062916
 878	4.3850e-01	4.9571	43.496968	0.000808	8.082742	2.738507	-0.064530
 879	4.3900e-01	4.9250	43.234817	0.000657	6.567228	2.225037	-0.052430
 880	4.3950e-01	4.8833	42.972666	0.000657	6.567228	2.225037	-0.052430
 881	4.4000e-01	4.8400	42.706481	0.000667	6.668262	2.259268	-0.053237
 882	4.4050e-01	4.7967	42.307204	0.001000	10.002393	3.388902	-0.079855
 883	4.4100e-01	4.7614	42.057152	0.000626	6.264125	2.122343	-0.050010
 884	4.4150e-01	4.7261	41.690140	0.000919	9.194119	3.115052	-0.073402
 885	4.4200e-01	4.6892	41.347327	0.000859	8.587913	2.909664	-0.068563
 886	4.4250e-01	4.6362	41.137606	0.000525	5.253782	1.780030	-0.041944
 887	4.4300e-01	4.6025	40.758494	0.000950	9.497221	3.217746	-0.075822
 888	4.4350e-01	4.5624	40.568939	0.000475	4.748611	1.608873	-0.037911
 889	4.4400e-01	4.5239	40.226125	0.000859	8.587913	2.909664	-0.068563
 890	4.4450e-01	4.4790	39.863147	0.000909	9.093084	3.080820	-0.072596
 891	4.4500e-01	4.4405	39.709889	0.000384	3.839302	1.300791	-0.030652
 892	4.4550e-01	4.3972	39.221884	0.001223	12.225147	4.141992	-0.097601
 893	4.4600e-01	4.3603	38.879071	0.000859	8.587913	2.909664	-0.068563
 894	4.4650e-01	4.3170	38.693548	0.000465	4.647576	1.574642	-0.037105
 895	4.4700e-01	4.2801	38.387032	0.000768	7.678605	2.601582	-0.061303
 896	4.4750e-01	4.2368	38.028087	0.000899	8.992050	3.046589	-0.071789
 897	4.4800e-01	4.2015	37.721571	0.000768	7.678605	2.601582	-0.061303
 898	4.4850e-01	4.1646	37.475552	0.000616	6.163091	2.088112	-0.049204
 899	4.4900e-01	4.1149	36.999647	0.001192	11.922044	4.039298	-0.095181
 900	4.4950e-01	4.0812	36.842356	0.000394	3.940337	1.335022	-0.031458
 901	4.5000e-01	4.0427	36.604403	0.000596	5.961022	2.019649	-0.047591
 902	4.5050e-01	4.0010	36.269656	0.000839	8.385844	2.841201	-0.066949
 903	4.5100e-01	3.9528	35.930875	0.000849	8.486879	2.875432	-0.067756
 904	4.5150e-01	3.9240	35.575963	0.000889	8.891016	3.012358	-0.070983
 905	4.5200e-01	3.8806	35.285580	0.000727	7.274468	2.464656	-0.058077
 906	4.5250e-01	3.8341	35.091991	0.000485	4.849645	1.643104	-0.038718
 907	4.5300e-01	3.8052	34.821773	0.000677	6.769296	2.293500	-0.054044
 908	4.5350e-01	3.7619	34.482993	0.000849	8.486879	2.875432	-0.067756
 909	4.5400e-01	3.7218	34.111948	0.000930	9.295153	3.149283	-0.074209
 910	4.5450e-01	3.6897	33.797366	0.000788	7.880673	2.670044	-0.062916
 911	4.5500e-01	3.6464	33.353725	0.001111	11.113770	3.765447	-0.088728
 912	4.5550e-01	3.5967	33.067375	0.000717	7.173433	2.430425	-0.057270
 913	4.5600e-01	3.5582	33.002846	0.000162	1.616548	0.547701	-0.012906
 914	4.5650e-01	3.5197	32.530973	0.001182	11.821010	4.005067	-0.094375
 915	4.5700e-01	3.4780	32.172028	0.000899	8.992050	3.046589	-0.071789
 916	4.5750e-01	3.4443	31.905843	0.000667	6.668262	2.259268	-0.053237
 917	4.5800e-01	3.4042	31.655791	0.000626	6.264125	2.122343	-0.050010
 918	4.5850e-01	3.3561	31.442037	0.000535	5.354816	1.814261	-0.042751
 919	4.5900e-01	3.3159	31.066959	0.000940	9.396187	3.183514	-0.075016
 920	4.5950e-01	3.2758	30.744311	0.000808	8.082742	2.738507	-0.064530
 921	4.6000e-01	3.2389	30.397464	0.000869	8.688947	2.943895	-0.069369
 922	4.6050e-01	3.2020	30.135313	0.000657	6.567228	2.225037	-0.052430
 923	4.6100e-01	3.1587	29.707804	0.001071	10.709633	3.628522	-0.085502
 924	4.6150e-01	3.1218	29.449686	0.000647	6.466193	2.190806	-0.051624
 925	4.6200e-01	3.0737	29.243998	0.000515	5.152748	1.745798	-0.041138
 926	4.6250e-01	3.0513	28.917317	0.000818	8.183776	2.772738	-0.065336
 927	4.6300e-01	3.0047	28.514007	0.001010	10.103427	3.423134	-0.080662
 928	4.6350e-01	2.9662	28.251856	0.000657	6.567228	2.225037	-0.052430
 929	4.6400e-01	2.9277	27.900976	0.000879	8.789982	2.978126	-0.070176
 930	4.6450e-01	2.8924	27.699321	0.000505	5.051714	1.711567	-0.040331
 931	4.6500e-01	2.8395	27.332309	0.000919	9.194119	3.115052	-0.073402
 932	4.6550e-01	2.8026	26.981430	0.000879	8.789982	2.978126	-0.070176
 933	4.6600e-01	2.7577	26.739444	0.000606	6.062056	2.053880	-0.048397
 934	4.6650e-01	2.7224	26.408730	0.000828	8.284810	2.806970	-0.066143
 935	4.6700e-01	2.6823	26.057850	0.000879	8.789982	2.978126	-0.070176
 936	4.6750e-01	2.6325	25.823930	0.000586	5.859988	1.985418	-0.046784
 937	4.6800e-01	2.6085	25.408521	0.001041	10.406530	3.525828	-0.083082
 938	4.6850e-01	2.5636	25.130237	0.000697	6.971365	2.361962	-0.055657
 939	4.6900e-01	2.5170	24.900351	0.000576	5.758953	1.951186	-0.045977
 940	4.6950e-01	2.4801	24.682563	0.000546	5.455851	1.848492	-0.043557
 941	4.7000e-01	2.4481	24.206658	0.001192	11.922044	4.039298	-0.095181
 942	4.7050e-01	2.3951	23.855778	0.000879	8.789982	2.978126	-0.070176
 943	4.7100e-01	2.3566	23.783182	0.000182	1.818617	0.616164	-0.014519
 944	4.7150e-01	2.3149	23.387939	0.000990	9.901359	3.354671	-0.079049
 945	4.7200e-01	2.2716	23.033026	0.000889	8.891016	3.012358	-0.070983
 946	4.7250e-01	2.2411	22.690213	0.000859	8.587913	2.909664	-0.068563
 947	4.7300e-01	2.1994	22.436128	0.000637	6.365159	2.156574	-0.050817
 948	4.7350e-01	2.1545	22.117513	0.000798	7.981707	2.704276	-0.063723
 949	4.7400e-01	2.1272	21.710170	0.001020	10.204461	3.457365	-0.081469
 950	4.7450e-01	2.0855	21.544813	0.000414	4.142405	1.403485	-0.033071
 951	4.7500e-01	2.0438	21.310893	0.000586	5.859988	1.985418	-0.046784
 952	4.7550e-01	1.9989	20.939848	0.000930	9.295153	3.149283	-0.074209
 953	4.7600e-01	1.9684	20.597035	0.000859	8.587913	2.909664	-0.068563
 954	4.7650e-01	1.9235	20.169526	0.001071	10.709633	3.628522	-0.085502
 955	4.7700e-01	1.8753	19.915441	0.000637	6.365159	2.156574	-0.050817
 956	4.7750e-01	1.8433	19.725885	0.000475	4.748611	1.608873	-0.037911
 957	4.7800e-01	1.7999	19.225781	0.001253	12.528250	4.244686	-0.100021
 958	4.7850e-01	1.7663	18.955563	0.000677	6.769296	2.293500	-0.054044
 959	4.7900e-01	1.7246	18.600651	0.000889	8.891016	3.012358	-0.070983
 960	4.7950e-01	1.6748	18.370764	0.000576	5.758953	1.951186	-0.045977
 961	4.8000e-01	1.6443	17.923090	0.001121	11.214804	3.799678	-0.089535
 962	4.8050e-01	1.6090	17.729501	0.000485	4.849645	1.643104	-0.038718
 963	4.8100e-01	1.5529	17.370556	0.000899	8.992050	3.046589	-0.071789
 964	4.8150e-01	1.5192	17.060007	0.000778	7.779639	2.635813	-0.062110
 965	4.8200e-01	1.4743	16.939014	0.000303	3.031028	1.026940	-0.024199
 966	4.8250e-01	1.4358	16.467142	0.001182	11.821010	4.005067	-0.094375
 967	4.8300e-01	1.3941	16.160626	0.000768	7.678605	2.601582	-0.061303
 968	4.8350e-01	1.3572	15.850078	0.000778	7.779639	2.635813	-0.062110
 969	4.8400e-01	1.3251	15.462900	0.000970	9.699290	3.286208	-0.077435
 970	4.8450e-01	1.2786	15.200749	0.000657	6.567228	2.225037	-0.052430
 971	4.8500e-01	1.2449	14.970862	0.000576	5.758953	1.951186	-0.045977
 972	4.8550e-01	1.1984	14.708711	0.000657	6.567228	2.225037	-0.052430
 973	4.8600e-01	1.1663	14.244904	0.001162	11.618941	3.936604	-0.092761
 974	4.8650e-01	1.1246	13.978720	0.000667	6.668262	2.259268	-0.053237
 975	4.8700e-01	1.0861	13.543145	0.001091	10.911701	3.696984	-0.087115
 976	4.8750e-01	1.0508	13.337457	0.000515	5.152748	1.745798	-0.041138
 977	4.8800e-01	0.9978	12.966412	0.000930	9.295153	3.149283	-0.074209
 978	4.8850e-01	0.9690	12.671996	0.000738	7.375502	2.498888	-0.058883
 979	4.8900e-01	0.9208	12.381613	0.000727	7.274468	2.464656	-0.058077
 980	4.8950e-01	0.8727	12.183991	0.000495	4.950679	1.677336	-0.039524
 981	4.9000e-01	0.8390	11.716151	0.001172	11.719975	3.970835	-0.093568
 982	4.9050e-01	0.8005	11.470132	0.000616	6.163091	2.088112	-0.049204
 983	4.9100e-01	0.7556	11.167650	0.000758	7.577570	2.567350	-0.060496
 984	4.9150e-01	0.7123	10.788539	0.000950	9.497221	3.217746	-0.075822
 985	4.9200e-01	0.6786	10.542520	0.000616	6.163091	2.088112	-0.049204
 986	4.9250e-01	0.6321	10.227938	0.000788	7.880673	2.670044	-0.062916
 987	4.9300e-01	0.5968	9.994018	0.000586	5.859988	1.985418	-0.046784
 988	4.9350e-01	0.5631	9.578609	0.001041	10.406530	3.525828	-0.083082
 989	4.9400e-01	0.5166	9.300325	0.000697	6.971365	2.361962	-0.055657
 990	4.9450e-01	0.4765	9.130935	0.000424	4.243439	1.437716	-0.033878
 991	4.9500e-01	0.4347	8.614699	0.001293	12.932387	4.381611	-0.103247
 992	4.9550e-01	0.4011	8.271885	0.000859	8.587913	2.909664	-0.068563
 993	4.9600e-01	0.3561	8.058131	0.000535	5.354816	1.814261	-0.042751
 994	4.9650e-01	0.3208	7.719351	0.000849	8.486879	2.875432	-0.067756
 995	4.9700e-01	0.2856	7.344273	0.000940	9.396187	3.183514	-0.075016
 996	4.9750e-01	0.2374	6.997426	0.000869	8.688947	2.943895	-0.069369
 997	4.9800e-01	0.2021	6.775606	0.000556	5.556885	1.882724	-0.044364
 998	4.9850e-01	0.1556	6.440858	0.000839	8.385844	2.841201	-0.066949
 999	4.9900e-01	0.1251	6.089979	0.000879	8.789982	2.978126	-0.070176
1000	4.9950e-01	0.0834	5.739099	0.000879	8.789982	2.978126	-0.070176
1001	5.0000e-01	0.0385	5.347889	0.000980	9.800324	3.320440	-0.078242
1002	5.0050e-01	-0.0016	5.166399	0.000455	4.546542	1.540410	-0.036298
1003	5.0100e-01	-0.0353	4.972811	0.000485	4.849645	1.643104	-0.038718
1004	5.0150e-01	-0.0834	4.706626	0.000667	6.668262	2.259268	-0.053237
1005	5.0200e-01	-0.1171	4.283151	0.001061	10.608598	3.594290	-0.084695
1006	5.0250e-01	-0.1412	3.940337	0.000859	8.587913	2.909664	-0.068563
1007	5.0300e-01	-0.1909	3.674153	0.000667	6.668262	2.259268	-0.053237
1008	5.0350e-01	-0.2246	3.407968	0.000667	6.668262	2.259268	-0.053237
1009	5.0400e-01	-0.2823	3.004658	0.001010	10.103427	3.423134	-0.080662
1010	5.0450e-01	-0.3080	2.694110	0.000778	7.779639	2.635813	-0.062110
1011	5.0500e-01	-0.3529	2.444058	0.000626	6.264125	2.122343	-0.050010
1012	5.0550e-01	-0.3882	1.968152	0.001192	11.922044	4.039298	-0.095181
1013	5.0600e-01	-0.4331	1.742299	0.000566	5.657919	1.916955	-0.045171
1014	5.0650e-01	-0.4700	1.439816	0.000758	7.577570	2.567350	-0.060496
1015	5.0700e-01	-0.5150	1.193797	0.000616	6.163091	2.088112	-0.049204
1016	5.0750e-01	-0.5567	0.810653	0.000960	9.598256	3.251977	-0.076629
1017	5.0800e-01	-0.5984	0.633196	0.000445	4.445508	1.506179	-0.035491
1018	5.0850e-01	-0.6353	0.350880	0.000707	7.072399	2.396194	-0.056463
1019	5.0900e-01	-0.6690	-0.040331	0.000980	9.800324	3.320440	-0.078242
1020	5.0950e-01	-0.7171	-0.423475	0.000960	9.598256	3.251977	-0.076629
1021	5.1000e-01	-0.7604	-0.665461	0.000606	6.062056	2.053880	-0.048397
1022	5.1050e-01	-0.7957	-0.931646	0.000667	6.668262	2.259268	-0.053237
1023	5.1100e-01	-0.8326	-1.153466	0.000556	5.556885	1.882724	-0.044364
1024	5.1150e-01	-0.8807	-1.496280	0.000859	8.587913	2.909664	-0.068563
1025	5.1200e-01	-0.9128	-1.911689	0.001041	10.406530	3.525828	-0.083082
1026	5.1250e-01	-0.9545	-2.258535	0.000869	8.688947	2.943895	-0.069369
1027	5.1300e-01	-0.9962	-2.548918	0.000727	7.274468	2.464656	-0.058077
1028	5.1350e-01	-1.0283	-2.923996	0.000940	9.396187	3.183514	-0.075016
1029	5.1400e-01	-1.0716	-3.170016	0.000616	6.163091	2.088112	-0.049204
1030	5.1450e-01	-1.1085	-3.464432	0.000738	7.375502	2.498888	-0.058883
1031	5.1500e-01	-1.1518	-3.714484	0.000626	6.264125	2.122343	-0.050010
1032	5.1550e-01	-1.2112	-4.105694	0.000980	9.800324	3.320440	-0.078242
1033	5.1600e-01	-1.2288	-4.444475	0.000849	8.486879	2.875432	-0.067756
1034	5.1650e-01	-1.2722	-4.674361	0.000576	5.758953	1.951186	-0.045977
1035	5.1700e-01	-1.3091	-5.170432	0.001243	12.427215	4.210455	-0.099214
1036	5.1750e-01	-1.3540	-5.585842	0.001041	10.406530	3.525828	-0.083082
1037	5.1800e-01	-1.3845	-5.819761	0.000586	5.859988	1.985418	-0.046784
1038	5.1850e-01	-1.4310	-6.065780	0.000616	6.163091	2.088112	-0.049204
1039	5.1900e-01	-1.4791	-6.279535	0.000535	5.354816	1.814261	-0.042751
1040	5.1950e-01	-1.5080	-6.698977	0.001051	10.507564	3.560059	-0.083888
1041	5.2000e-01	-1.5465	-7.041790	0.000859	8.587913	2.909664	-0.068563
1042	5.2050e-01	-1.5994	-7.441067	0.001000	10.002393	3.388902	-0.079855
1043	5.2100e-01	-1.6411	-7.602391	0.000404	4.041371	1.369254	-0.032265
1044	5.2150e-01	-1.6764	-7.804046	0.000505	5.051714	1.711567	-0.040331
1045	5.2200e-01	-1.7181	-8.082330	0.000697	6.971365	2.361962	-0.055657
1046	5.2250e-01	-1.7502	-8.497739	0.001041	10.406530	3.525828	-0.083082
1047	5.2300e-01	-1.7951	-8.840552	0.000859	8.587913	2.909664	-0.068563
1048	5.2350e-01	-1.8336	-9.159167	0.000798	7.981707	2.704276	-0.063723
1049	5.2400e-01	-1.8737	-9.376954	0.000546	5.455851	1.848492	-0.043557
1050	5.2450e-01	-1.9138	-9.812529	0.001091	10.911701	3.696984	-0.087115
1051	5.2500e-01	-1.9507	-10.167442	0.000889	8.891016	3.012358	-0.070983
1052	5.2550e-01	-1.9941	-10.570751	0.001010	10.103427	3.423134	-0.080662
1053	5.2600e-01	-2.0294	-10.804671	0.000586	5.859988	1.985418	-0.046784
1054	5.2650e-01	-2.0711	-11.034558	0.000576	5.758953	1.951186	-0.045977
1055	5.2700e-01	-2.1144	-11.328974	0.000738	7.375502	2.498888	-0.058883
1056	5.2750e-01	-2.1609	-11.724218	0.000990	9.901359	3.354671	-0.079049
1057	5.2800e-01	-2.1962	-11.861343	0.000344	3.435165	1.163865	-0.027425
1058	5.2850e-01	-2.2331	-12.349348	0.001223	12.225147	4.141992	-0.097601
1059	5.2900e-01	-2.2732	-12.619566	0.000677	6.769296	2.293500	-0.054044
1060	5.2950e-01	-2.3149	-12.805088	0.000465	4.647576	1.574642	-0.037105
1061	5.3000e-01	-2.3550	-13.067239	0.000657	6.567228	2.225037	-0.052430
1062	5.3050e-01	-2.3839	-13.587509	0.001303	13.033421	4.415843	-0.104054
1063	5.3100e-01	-2.4384	-13.906124	0.000798	7.981707	2.704276	-0.063723
1064	5.3150e-01	-2.4785	-14.144077	0.000596	5.961022	2.019649	-0.047591
1065	5.3200e-01	-2.5235	-14.551420	0.001020	10.204461	3.457365	-0.081469
1066	5.3250e-01	-2.5620	-14.777273	0.000566	5.657919	1.916955	-0.045171
1067	5.3300e-01	-2.5908	-15.156385	0.000950	9.497221	3.217746	-0.075822
1068	5.3350e-01	-2.6245	-15.454834	0.000748	7.476536	2.533119	-0.059690
1069	5.3400e-01	-2.6775	-15.729085	0.000687	6.870330	2.327731	-0.054850
1070	5.3450e-01	-2.7095	-16.160626	0.001081	10.810667	3.662753	-0.086308
1071	5.3500e-01	-2.7593	-16.386480	0.000566	5.657919	1.916955	-0.045171
1072	5.3550e-01	-2.7962	-16.692995	0.000768	7.678605	2.601582	-0.061303
1073	5.3600e-01	-2.8283	-16.971279	0.000697	6.971365	2.361962	-0.055657
1074	5.3650e-01	-2.8684	-17.330225	0.000899	8.992050	3.046589	-0.071789
1075	5.3700e-01	-2.9133	-17.669005	0.000849	8.486879	2.875432	-0.067756
1076	5.3750e-01	-2.9550	-17.963421	0.000738	7.375502	2.498888	-0.058883
1077	5.3800e-01	-2.9887	-18.197341	0.000586	5.859988	1.985418	-0.046784
1078	5.3850e-01	-3.0352	-18.511923	0.000788	7.880673	2.670044	-0.062916
1079	5.3900e-01	-3.0785	-18.866835	0.000889	8.891016	3.012358	-0.070983
1080	5.3950e-01	-3.1186	-19.205616	0.000849	8.486879	2.875432	-0.067756
1081	5.4000e-01	-3.1507	-19.451635	0.000616	6.163091	2.088112	-0.049204
1082	5.4050e-01	-3.2020	-19.971904	0.001303	13.033421	4.415843	-0.104054
1083	5.4100e-01	-3.2325	-20.201791	0.000576	5.758953	1.951186	-0.045977
1084	5.4150e-01	-3.2742	-20.391347	0.000475	4.748611	1.608873	-0.037911
1085	5.4200e-01	-3.3224	-20.750292	0.000899	8.992050	3.046589	-0.071789
1086	5.4250e-01	-3.3528	-20.927749	0.000445	4.445508	1.506179	-0.035491
1087	5.4300e-01	-3.3978	-21.355257	0.001071	10.709633	3.628522	-0.085502
1088	5.4350e-01	-3.4298	-21.730335	0.000940	9.396187	3.183514	-0.075016
1089	5.4400e-01	-3.4700	-21.960222	0.000576	5.758953	1.951186	-0.045977
1090	5.4450e-01	-3.5181	-22.186075	0.000566	5.657919	1.916955	-0.045171
1091	5.4500e-01	-3.5598	-22.577286	0.000980	9.800324	3.320440	-0.078242
1092	5.4550e-01	-3.5951	-22.871702	0.000738	7.375502	2.498888	-0.058883
1093	5.4600e-01	-3.6320	-23.202416	0.000828	8.284810	2.806970	-0.066143
1094	5.4650e-01	-3.6673	-23.492799	0.000727	7.274468	2.464656	-0.058077
1095	5.4700e-01	-3.7106	-23.863844	0.000930	9.295153	3.149283	-0.074209
1096	5.4750e-01	-3.7555	-24.186492	0.000808	8.082742	2.738507	-0.064530
1097	5.4800e-01	-3.7940	-24.400247	0.000535	5.354816	1.814261	-0.042751
1098	5.4850e-01	-3.8309	-24.775325	0.000940	9.396187	3.183514	-0.075016
1099	5.4900e-01	-3.8822	-25.021344	0.000616	6.163091	2.088112	-0.049204
1100	5.4950e-01	-3.9207	-25.243164	0.000556	5.556885	1.882724	-0.044364
1101	5.5000e-01	-3.9528	-25.670673	0.001071	10.709633	3.628522	-0.085502
1102	5.5050e-01	-3.9977	-26.094148	0.001061	10.608598	3.594290	-0.084695
1103	5.5100e-01	-4.0379	-26.235306	0.000354	3.536199	1.198097	-0.028232
1104	5.5150e-01	-4.0715	-26.582153	0.000869	8.688947	2.943895	-0.069369
1105	5.5200e-01	-4.1052	-26.868503	0.000717	7.173433	2.430425	-0.057270
1106	5.5250e-01	-4.1534	-27.199217	0.000828	8.284810	2.806970	-0.066143
1107	5.5300e-01	-4.2015	-27.477501	0.000697	6.971365	2.361962	-0.055657
1108	5.5350e-01	-4.2352	-27.788049	0.000778	7.779639	2.635813	-0.062110
1109	5.5400e-01	-4.2769	-28.134896	0.000869	8.688947	2.943895	-0.069369
1110	5.5450e-01	-4.3138	-28.534173	0.001000	10.002393	3.388902	-0.079855
1111	5.5500e-01	-4.3587	-28.820523	0.000717	7.173433	2.430425	-0.057270
1112	5.5550e-01	-4.3828	-29.135104	0.000788	7.880673	2.670044	-0.062916
1113	5.5600e-01	-4.4341	-29.502116	0.000919	9.194119	3.115052	-0.073402
1114	5.5650e-01	-4.4742	-29.796532	0.000738	7.375502	2.498888	-0.058883
1115	5.5700e-01	-4.5127	-30.058684	0.000657	6.567228	2.225037	-0.052430
1116	5.5750e-01	-4.5576	-30.272438	0.000535	5.354816	1.814261	-0.042751
1117	5.5800e-01	-4.5913	-30.671715	0.001000	10.002393	3.388902	-0.079855
1118	5.5850e-01	-4.6234	-31.062925	0.000980	9.800324	3.320440	-0.078242
1119	5.5900e-01	-4.6731	-31.304911	0.000606	6.062056	2.053880	-0.048397
1120	5.5950e-01	-4.7100	-31.603361	0.000748	7.476536	2.533119	-0.059690
1121	5.6000e-01	-4.7549	-32.087332	0.001212	12.124113	4.107761	-0.096794
1122	5.6050e-01	-4.7967	-32.305120	0.000546	5.455851	1.848492	-0.043557
1123	5.6100e-01	-4.8448	-32.631801	0.000818	8.183776	2.772738	-0.065336
1124	5.6150e-01	-4.8737	-32.893952	0.000657	6.567228	2.225037	-0.052430
1125	5.6200e-01	-4.9234	-33.067375	0.000434	4.344474	1.471948	-0.034685
1126	5.6250e-01	-4.9587	-33.256931	0.000475	4.748611	1.608873	-0.037911
1127	5.6300e-01	-4.9956	-33.728804	0.001182	11.821010	4.005067	-0.094375
1128	5.6350e-01	-5.0389	-33.990955	0.000657	6.567228	2.225037	-0.052430
1129	5.6400e-01	-5.0678	-34.309570	0.000798	7.981707	2.704276	-0.063723
1130	5.6450e-01	-5.1127	-34.704813	0.000990	9.901359	3.354671	-0.079049
1131	5.6500e-01	-5.1544	-35.031494	0.000818	8.183776	2.772738	-0.065336
1132	5.6550e-01	-5.1881	-35.321878	0.000727	7.274468	2.464656	-0.058077
1133	5.6600e-01	-5.2314	-35.644525	0.000808	8.082742	2.738507	-0.064530
1134	5.6650e-01	-5.2779	-35.926842	0.000707	7.072399	2.396194	-0.056463
1135	5.6700e-01	-5.3164	-36.318053	0.000980	9.800324	3.320440	-0.078242
1136	5.6750e-01	-5.3501	-36.543906	0.000566	5.657919	1.916955	-0.045171
1137	5.6800e-01	-5.3886	-36.850422	0.000768	7.678605	2.601582	-0.061303
1138	5.6850e-01	-5.4335	-37.100474	0.000626	6.264125	2.122343	-0.050010
1139	5.6900e-01	-5.4736	-37.390857	0.000727	7.274468	2.464656	-0.058077
1140	5.6950e-01	-5.5137	-37.661075	0.000677	6.769296	2.293500	-0.054044
1141	5.7000e-01	-5.5571	-38.084550	0.001061	10.608598	3.594290	-0.084695
1142	5.7050e-01	-5.5956	-38.431397	0.000869	8.688947	2.943895	-0.069369
1143	5.7100e-01	-5.6357	-38.620952	0.000475	4.748611	1.608873	-0.037911
1144	5.7150e-01	-5.6742	-39.000063	0.000950	9.497221	3.217746	-0.075822
1145	5.7200e-01	-5.7175	-39.310612	0.000778	7.779639	2.635813	-0.062110
1146	5.7250e-01	-5.7576	-39.588896	0.000697	6.971365	2.361962	-0.055657
1147	5.7300e-01	-5.7897	-39.972040	0.000960	9.598256	3.251977	-0.076629
1148	5.7350e-01	-5.8330	-40.347118	0.000940	9.396187	3.183514	-0.075016
1149	5.7400e-01	-5.8795	-40.508442	0.000404	4.041371	1.369254	-0.032265
1150	5.7450e-01	-5.9164	-40.730263	0.000556	5.556885	1.882724	-0.044364
1151	5.7500e-01	-5.9533	-41.081142	0.000879	8.789982	2.978126	-0.070176
1152	5.7550e-01	-5.9886	-41.504618	0.001061	10.608598	3.594290	-0.084695
1153	5.7600e-01	-6.0351	-41.762736	0.000647	6.466193	2.190806	-0.051624
1154	5.7650e-01	-6.0736	-41.940192	0.000445	4.445508	1.506179	-0.035491
1155	5.7700e-01	-6.1105	-42.383833	0.001111	11.113770	3.765447	-0.088728
1156	5.7750e-01	-6.1554	-42.666150	0.000707	7.072399	2.396194	-0.056463
1157	5.7800e-01	-6.1923	-42.988798	0.000808	8.082742	2.738507	-0.064530
1158	5.7850e-01	-6.2357	-43.186420	0.000495	4.950679	1.677336	-0.039524
1159	5.7900e-01	-6.2742	-43.549399	0.000909	9.093084	3.080820	-0.072596
1160	5.7950e-01	-6.3143	-43.779285	0.000576	5.758953	1.951186	-0.045977
1161	5.8000e-01	-6.3544	-44.101933	0.000808	8.082742	2.738507	-0.064530
1162	5.8050e-01	-6.4025	-44.485078	0.000960	9.598256	3.251977	-0.076629
1163	5.8100e-01	-6.4410	-44.868222	0.000960	9.598256	3.251977	-0.076629
1164	5.8150e-01	-6.4779	-45.102142	0.000586	5.859988	1.985418	-0.046784
1165	5.8200e-01	-6.5196	-45.291697	0.000475	4.748611	1.608873	-0.037911
1166	5.8250e-01	-6.5533	-45.565948	0.000687	6.870330	2.327731	-0.054850
1167	5.8300e-01	-6.5950	-45.969258	0.001010	10.103427	3.423134	-0.080662
1168	5.8350e-01	-6.6383	-46.279806	0.000778	7.779639	2.635813	-0.062110
1169	5.8400e-01	-6.6720	-46.453230	0.000434	4.344474	1.471948	-0.034685
1170	5.8450e-01	-6.7137	-46.828308	0.000940	9.396187	3.183514	-0.075016
1171	5.8500e-01	-6.7586	-47.255816	0.001071	10.709633	3.628522	-0.085502
1172	5.8550e-01	-6.7875	-47.449405	0.000485	4.849645	1.643104	-0.038718
1173	5.8600e-01	-6.8308	-47.820450	0.000930	9.295153	3.149283	-0.074209
1174	5.8650e-01	-6.8790	-48.098734	0.000697	6.971365	2.361962	-0.055657
1175	5.8700e-01	-6.9046	-48.328621	0.000576	5.758953	1.951186	-0.045977
1176	5.8750e-01	-6.9495	-48.691599	0.000909	9.093084	3.080820	-0.072596
1177	5.8800e-01	-6.9993	-49.022314	0.000828	8.284810	2.806970	-0.066143
1178	5.8850e-01	-7.0265	-49.304630	0.000707	7.072399	2.396194	-0.056463
1179	5.8900e-01	-7.0763	-49.518385	0.000535	5.354816	1.814261	-0.042751
1180	5.8950e-01	-7.1084	-49.804735	0.000717	7.173433	2.430425	-0.057270
1181	5.9000e-01	-7.1501	-50.070919	0.000667	6.668262	2.259268	-0.053237
1182	5.9050e-01	-7.2014	-50.385501	0.000788	7.880673	2.670044	-0.062916
1183	5.9100e-01	-7.2319	-50.841241	0.001142	11.416873	3.868141	-0.091148
1184	5.9150e-01	-7.2672	-51.192121	0.000879	8.789982	2.978126	-0.070176
1185	5.9200e-01	-7.3153	-51.426040	0.000586	5.859988	1.985418	-0.046784
1186	5.9250e-01	-7.3474	-51.764821	0.000849	8.486879	2.875432	-0.067756
1187	5.9300e-01	-7.3939	-52.059237	0.000738	7.375502	2.498888	-0.058883
1188	5.9350e-01	-7.4324	-52.204428	0.000364	3.637234	1.232328	-0.029038
1189	5.9400e-01	-7.4805	-52.555308	0.000879	8.789982	2.978126	-0.070176
1190	5.9450e-01	-7.5158	-52.902154	0.000869	8.688947	2.943895	-0.069369
1191	5.9500e-01	-7.5575	-53.132041	0.000576	5.758953	1.951186	-0.045977
1192	5.9550e-01	-7.5864	-53.442590	0.000778	7.779639	2.635813	-0.062110
1193	5.9600e-01	-7.6297	-53.757171	0.000788	7.880673	2.670044	-0.062916
1194	5.9650e-01	-7.6618	-54.112084	0.000889	8.891016	3.012358	-0.070983
1195	5.9700e-01	-7.7164	-54.410533	0.000748	7.476536	2.533119	-0.059690
1196	5.9750e-01	-7.7533	-54.765446	0.000889	8.891016	3.012358	-0.070983
1197	5.9800e-01	-7.7934	-54.987266	0.000556	5.556885	1.882724	-0.044364
1198	5.9850e-01	-7.8431	-55.241352	0.000637	6.365159	2.156574	-0.050817
1199	5.9900e-01	-7.8800	-55.568033	0.000818	8.183776	2.772738	-0.065336
1200	5.9950e-01	-7.9073	-55.898747	0.000828	8.284810	2.806970	-0.066143
1201	6.0000e-01	-7.9506	-56.197196	0.000748	7.476536	2.533119	-0.059690
1202	6.0050e-01	-7.9875	-56.495645	0.000748	7.476536	2.533119	-0.059690
1203	6.0100e-01	-8.0356	-56.878790	0.000960	9.598256	3.251977	-0.076629
1204	6.0150e-01	-8.0741	-57.108676	0.000576	5.758953	1.951186	-0.045977
1205	6.0200e-01	-8.1142	-57.455523	0.000869	8.688947	2.943895	-0.069369
1206	6.0250e-01	-8.1559	-57.709608	0.000637	6.365159	2.156574	-0.050817
1207	6.0300e-01	-8.1976	-57.995958	0.000717	7.173433	2.430425	-0.057270
1208	6.0350e-01	-8.2281	-58.185514	0.000475	4.748611	1.608873	-0.037911
1209	6.0400e-01	-8.2762	-58.540426	0.000889	8.891016	3.012358	-0.070983
1210	6.0450e-01	-8.3131	-58.846942	0.000768	7.678605	2.601582	-0.061303
1211	6.0500e-01	-8.3613	-59.201854	0.000889	8.891016	3.012358	-0.070983
1212	6.0550e-01	-8.3805	-59.504337	0.000758	7.577570	2.567350	-0.060496
1213	6.0600e-01	-8.4367	-59.786654	0.000707	7.072399	2.396194	-0.056463
1214	6.0650e-01	-8.4720	-59.915713	0.000323	3.233097	1.095403	-0.025812
1215	6.0700e-01	-8.5072	-60.343221	0.001071	10.709633	3.628522	-0.085502
1216	6.0750e-01	-8.5522	-60.698134	0.000889	8.891016	3.012358	-0.070983
1217	6.0800e-01	-8.5875	-60.915921	0.000546	5.455851	1.848492	-0.043557
1218	6.0850e-01	-8.6324	-61.307132	0.000980	9.800324	3.320440	-0.078242
1219	6.0900e-01	-8.6725	-61.601548	0.000738	7.375502	2.498888	-0.058883
1220	6.0950e-01	-8.7126	-61.875799	0.000687	6.870330	2.327731	-0.054850
1221	6.1000e-01	-8.7559	-62.101652	0.000566	5.657919	1.916955	-0.045171
1222	6.1050e-01	-8.7944	-62.492863	0.000980	9.800324	3.320440	-0.078242
1223	6.1100e-01	-8.8313	-62.779213	0.000717	7.173433	2.430425	-0.057270
1224	6.1150e-01	-8.8682	-63.017166	0.000596	5.961022	2.019649	-0.047591
1225	6.1200e-01	-8.9179	-63.331747	0.000788	7.880673	2.670044	-0.062916
1226	6.1250e-01	-8.9548	-63.710859	0.000950	9.497221	3.217746	-0.075822
1227	6.1300e-01	-8.9837	-63.989142	0.000697	6.971365	2.361962	-0.055657
1228	6.1350e-01	-9.0415	-64.102069	0.000283	2.828960	0.958477	-0.022585
1229	6.1400e-01	-9.0767	-64.440849	0.000849	8.486879	2.875432	-0.067756
1230	6.1450e-01	-9.1104	-64.823994	0.000960	9.598256	3.251977	-0.076629
1231	6.1500e-01	-9.1538	-64.997417	0.000434	4.344474	1.471948	-0.034685
1232	6.1550e-01	-9.1890	-65.388628	0.000980	9.800324	3.320440	-0.078242
1233	6.1600e-01	-9.2324	-65.795971	0.001020	10.204461	3.457365	-0.081469
1234	6.1650e-01	-9.2677	-65.977460	0.000455	4.546542	1.540410	-0.036298
1235	6.1700e-01	-9.3110	-66.215413	0.000596	5.961022	2.019649	-0.047591
1236	6.1750e-01	-9.3591	-66.566292	0.000879	8.789982	2.978126	-0.070176
1237	6.1800e-01	-9.3960	-66.796179	0.000576	5.758953	1.951186	-0.045977
1238	6.1850e-01	-9.4329	-67.268052	0.001182	11.821010	4.005067	-0.094375
1239	6.1900e-01	-9.4794	-67.465673	0.000495	4.950679	1.677336	-0.039524
1240	6.1950e-01	-9.5131	-67.695560	0.000576	5.758953	1.951186	-0.045977
1241	6.2000e-01	-9.5644	-67.941579	0.000616	6.163091	2.088112	-0.049204
1242	6.2050e-01	-9.5885	-68.272293	0.000828	8.284810	2.806970	-0.066143
1243	6.2100e-01	-9.6350	-68.711901	0.001101	11.012736	3.731216	-0.087922
1244	6.2150e-01	-9.6735	-68.889357	0.000445	4.445508	1.506179	-0.035491
1245	6.2200e-01	-9.7104	-69.159575	0.000677	6.769296	2.293500	-0.054044
1246	6.2250e-01	-9.7569	-69.425759	0.000667	6.668262	2.259268	-0.053237
1247	6.2300e-01	-9.7858	-69.712109	0.000717	7.173433	2.430425	-0.057270
1248	6.2350e-01	-9.8259	-70.188015	0.001192	11.922044	4.039298	-0.095181
1249	6.2400e-01	-9.8676	-70.401769	0.000535	5.354816	1.814261	-0.042751
1250	6.2450e-01	-9.9126	-70.563093	0.000404	4.041371	1.369254	-0.032265
1251	6.2500e-01	-9.9607	-70.905907	0.000859	8.587913	2.909664	-0.068563
1252	6.2550e-01	-9.9863	-71.212422	0.000768	7.678605	2.601582	-0.061303
1253	6.2600e-01	-10.0409	-71.518938	0.000768	7.678605	2.601582	-0.061303
1254	6.2650e-01	-10.0746	-71.696394	0.000445	4.445508	1.506179	-0.035491
1255	6.2700e-01	-10.1067	-72.059373	0.000909	9.093084	3.080820	-0.072596
1256	6.2750e-01	-10.1564	-72.256995	0.000495	4.950679	1.677336	-0.039524
1257	6.2800e-01	-10.1981	-72.716768	0.001152	11.517907	3.902372	-0.091955
1258	6.2850e-01	-10.2414	-72.991019	0.000687	6.870330	2.327731	-0.054850
1259	6.2900e-01	-10.2767	-73.297534	0.000768	7.678605	2.601582	-0.061303
1260	6.2950e-01	-10.3104	-73.511288	0.000535	5.354816	1.814261	-0.042751
1261	6.3000e-01	-10.3537	-73.712943	0.000505	5.051714	1.711567	-0.040331
1262	6.3050e-01	-10.3970	-74.092054	0.000950	9.497221	3.217746	-0.075822
1263	6.3100e-01	-10.4323	-74.543761	0.001132	11.315838	3.833910	-0.090341
1264	6.3150e-01	-10.4708	-74.688953	0.000364	3.637234	1.232328	-0.029038
1265	6.3200e-01	-10.5093	-74.971270	0.000707	7.072399	2.396194	-0.056463
1266	6.3250e-01	-10.5542	-75.273752	0.000758	7.577570	2.567350	-0.060496
1267	6.3300e-01	-10.6024	-75.463308	0.000475	4.748611	1.608873	-0.037911
1268	6.3350e-01	-10.6329	-75.781923	0.000798	7.981707	2.704276	-0.063723
1269	6.3400e-01	-10.6714	-76.088438	0.000768	7.678605	2.601582	-0.061303
1270	6.3450e-01	-10.7163	-76.338490	0.000626	6.264125	2.122343	-0.050010
1271	6.3500e-01	-10.7500	-76.713569	0.000940	9.396187	3.183514	-0.075016
1272	6.3550e-01	-10.8013	-77.012018	0.000748	7.476536	2.533119	-0.059690
1273	6.3600e-01	-10.8366	-77.120911	0.000273	2.727925	0.924246	-0.021779
1274	6.3650e-01	-10.8735	-77.399195	0.000697	6.971365	2.361962	-0.055657
1275	6.3700e-01	-10.9072	-77.814604	0.001041	10.406530	3.525828	-0.083082
1276	6.3750e-01	-10.9617	-78.230014	0.001041	10.406530	3.525828	-0.083082
1277	6.3800e-01	-10.9922	-78.359073	0.000323	3.233097	1.095403	-0.025812
1278	6.3850e-01	-11.0307	-78.705919	0.000869	8.688947	2.943895	-0.069369
1279	6.3900e-01	-11.0676	-78.996302	0.000727	7.274468	2.464656	-0.058077
1280	6.3950e-01	-11.1109	-79.201990	0.000515	5.152748	1.745798	-0.041138
1281	6.4000e-01	-11.1574	-79.419778	0.000546	5.455851	1.848492	-0.043557
1282	6.4050e-01	-11.1879	-79.903750	0.001212	12.124113	4.107761	-0.096794
1283	6.4100e-01	-11.2312	-80.117504	0.000535	5.354816	1.814261	-0.042751
1284	6.4150e-01	-11.2697	-80.303026	0.000465	4.647576	1.574642	-0.037105
1285	6.4200e-01	-11.3147	-80.706336	0.001010	10.103427	3.423134	-0.080662
1286	6.4250e-01	-11.3596	-80.932190	0.000566	5.657919	1.916955	-0.045171
1287	6.4300e-01	-11.3868	-81.371797	0.001101	11.012736	3.731216	-0.087922
1288	6.4350e-01	-11.4398	-81.597651	0.000566	5.657919	1.916955	-0.045171
1289	6.4400e-01	-11.4735	-81.771074	0.000434	4.344474	1.471948	-0.034685
1290	6.4450e-01	-11.5136	-81.984828	0.000535	5.354816	1.814261	-0.042751
1291	6.4500e-01	-11.5601	-82.367973	0.000960	9.598256	3.251977	-0.076629
1292	6.4550e-01	-11.5826	-82.698687	0.000828	8.284810	2.806970	-0.066143
1293	6.4600e-01	-11.6355	-83.013269	0.000788	7.880673	2.670044	-0.062916
1294	6.4650e-01	-11.6724	-83.335916	0.000808	8.082742	2.738507	-0.064530
1295	6.4700e-01	-11.7173	-83.541604	0.000515	5.152748	1.745798	-0.041138
1296	6.4750e-01	-11.7558	-83.799723	0.000647	6.466193	2.190806	-0.051624
1297	6.4800e-01	-11.7927	-84.013477	0.000535	5.354816	1.814261	-0.042751
1298	6.4850e-01	-11.8441	-84.348224	0.000839	8.385844	2.841201	-0.066949
1299	6.4900e-01	-11.8713	-84.687004	0.000849	8.486879	2.875432	-0.067756
1300	6.4950e-01	-11.9146	-84.945123	0.000647	6.466193	2.190806	-0.051624
1301	6.5000e-01	-11.9467	-85.259704	0.000788	7.880673	2.670044	-0.062916
1302	6.5050e-01	-11.9965	-85.433128	0.000434	4.344474	1.471948	-0.034685
1303	6.5100e-01	-12.0301	-85.755776	0.000808	8.082742	2.738507	-0.064530
1304	6.5150e-01	-12.0735	-86.062291	0.000768	7.678605	2.601582	-0.061303
1305	6.5200e-01	-12.1152	-86.485766	0.001061	10.608598	3.594290	-0.084695
1306	6.5250e-01	-12.1537	-86.743885	0.000647	6.466193	2.190806	-0.051624
1307	6.5300e-01	-12.2002	-86.937473	0.000485	4.849645	1.643104	-0.038718
1308	6.5350e-01	-12.2355	-87.227857	0.000727	7.274468	2.464656	-0.058077
1309	6.5400e-01	-12.2708	-87.477909	0.000626	6.264125	2.122343	-0.050010
1310	6.5450e-01	-12.3173	-87.707795	0.000576	5.758953	1.951186	-0.045977
1311	6.5500e-01	-12.3590	-88.022377	0.000788	7.880673	2.670044	-0.062916
1312	6.5550e-01	-12.3959	-88.260330	0.000596	5.961022	2.019649	-0.047591
1313	6.5600e-01	-12.4328	-88.558779	0.000748	7.476536	2.533119	-0.059690
1314	6.5650e-01	-12.4745	-88.808831	0.000626	6.264125	2.122343	-0.050010
1315	6.5700e-01	-12.5162	-89.167777	0.000899	8.992050	3.046589	-0.071789
1316	6.5750e-01	-12.5563	-89.429928	0.000657	6.567228	2.225037	-0.052430
1317	6.5800e-01	-12.5916	-89.744510	0.000788	7.880673	2.670044	-0.062916
1318	6.5850e-01	-12.6317	-89.982463	0.000596	5.961022	2.019649	-0.047591
1319	6.5900e-01	-12.6815	-90.397872	0.001041	10.406530	3.525828	-0.083082
1320	6.5950e-01	-12.7039	-90.595494	0.000495	4.950679	1.677336	-0.039524
1321	6.6000e-01	-12.7649	-90.797149	0.000505	5.051714	1.711567	-0.040331
1322	6.6050e-01	-12.8002	-91.010903	0.000535	5.354816	1.814261	-0.042751
1323	6.6100e-01	-12.8290	-91.325485	0.000788	7.880673	2.670044	-0.062916
1324	6.6150e-01	-12.8804	-91.898185	0.001435	14.346866	4.860850	-0.114540
1325	6.6200e-01	-12.9141	-91.898185	-0.000000	-0.000000	-0.000000	0.000000
1326	6.6250e-01	-12.9542	-92.047409	0.000374	3.738268	1.266559	-0.029845
1327	6.6300e-01	-12.9943	-92.418454	0.000930	9.295153	3.149283	-0.074209
1328	6.6350e-01	-13.0328	-92.785466	0.000919	9.194119	3.115052	-0.073402
1329	6.6400e-01	-13.0681	-93.100048	0.000788	7.880673	2.670044	-0.062916
1330	6.6450e-01	-13.1130	-93.342034	0.000606	6.062056	2.053880	-0.048397
1331	6.6500e-01	-13.1547	-93.507391	0.000414	4.142405	1.403485	-0.033071
1332	6.6550e-01	-13.1964	-93.870370	0.000909	9.093084	3.080820	-0.072596
1333	6.6600e-01	-13.2301	-94.136554	0.000667	6.668262	2.259268	-0.053237
1334	6.6650e-01	-13.2670	-94.471302	0.000839	8.385844	2.841201	-0.066949
1335	6.6700e-01	-13.3135	-94.656824	0.000465	4.647576	1.574642	-0.037105
1336	6.6750e-01	-13.3520	-94.959307	0.000758	7.577570	2.567350	-0.060496
1337	6.6800e-01	-13.3857	-95.269855	0.000778	7.779639	2.635813	-0.062110
1338	6.6850e-01	-13.4338	-95.657033	0.000970	9.699290	3.286208	-0.077435
1339	6.6900e-01	-13.4675	-95.995813	0.000849	8.486879	2.875432	-0.067756
1340	6.6950e-01	-13.5108	-96.084541	0.000222	2.222754	0.753089	-0.017746
1341	6.7000e-01	-13.5558	-96.338626	0.000637	6.365159	2.156574	-0.050817
1342	6.7050e-01	-13.5895	-96.653208	0.000788	7.880673	2.670044	-0.062916
1343	6.7100e-01	-13.6328	-96.915359	0.000657	6.567228	2.225037	-0.052430
1344	6.7150e-01	-13.6761	-97.137180	0.000556	5.556885	1.882724	-0.044364
1345	6.7200e-01	-13.7130	-97.447728	0.000778	7.779639	2.635813	-0.062110
1346	6.7250e-01	-13.7531	-97.669549	0.000556	5.556885	1.882724	-0.044364
1347	6.7300e-01	-13.7916	-97.996230	0.000818	8.183776	2.772738	-0.065336
1348	6.7350e-01	-13.8317	-98.250315	0.000637	6.365159	2.156574	-0.050817
1349	6.7400e-01	-13.8718	-98.540698	0.000727	7.274468	2.464656	-0.058077
1350	6.7450e-01	-13.9215	-98.726221	0.000465	4.647576	1.574642	-0.037105
1351	6.7500e-01	-13.9520	-98.952074	0.000566	5.657919	1.916955	-0.045171
1352	6.7550e-01	-13.9937	-99.274722	0.000808	8.082742	2.738507	-0.064530
1353	6.7600e-01	-14.0338	-99.569138	0.000738	7.375502	2.498888	-0.058883
1354	6.7650e-01	-14.0787	-99.843389	0.000687	6.870330	2.327731	-0.054850
1355	6.7700e-01	-14.1221	-100.141838	0.000748	7.476536	2.533119	-0.059690
1356	6.7750e-01	-14.1525	-100.476585	0.000839	8.385844	2.841201	-0.066949
1357	6.7800e-01	-14.1926	-100.839564	0.000909	9.093084	3.080820	-0.072596
1358	6.7850e-01	-14.2328	-101.004921	0.000414	4.142405	1.403485	-0.033071
1359	6.7900e-01	-14.2729	-101.190444	0.000465	4.647576	1.574642	-0.037105
1360	6.7950e-01	-14.3082	-101.557456	0.000919	9.194119	3.115052	-0.073402
1361	6.8000e-01	-14.3531	-101.855905	0.000748	7.476536	2.533119	-0.059690
1362	6.8050e-01	-14.3932	-102.057560	0.000505	5.051714	1.711567	-0.040331
1363	6.8100e-01	-14.4365	-102.388274	0.000828	8.284810	2.806970	-0.066143
1364	6.8150e-01	-14.4718	-102.678657	0.000727	7.274468	2.464656	-0.058077
1365	6.8200e-01	-14.5135	-102.839981	0.000404	4.041371	1.369254	-0.032265
1366	6.8250e-01	-14.5424	-103.037603	0.000495	4.950679	1.677336	-0.039524
1367	6.8300e-01	-14.5889	-103.380416	0.000859	8.587913	2.909664	-0.068563
1368	6.8350e-01	-14.6322	-103.703064	0.000808	8.082742	2.738507	-0.064530
1369	6.8400e-01	-14.6691	-103.904719	0.000505	5.051714	1.711567	-0.040331
1370	6.8450e-01	-14.7092	-104.251566	0.000869	8.688947	2.943895	-0.069369
1371	6.8500e-01	-14.7477	-104.545982	0.000738	7.375502	2.498888	-0.058883
1372	6.8550e-01	-14.7990	-104.800067	0.000637	6.365159	2.156574	-0.050817
1373	6.8600e-01	-14.8392	-105.066252	0.000667	6.668262	2.259268	-0.053237
1374	6.8650e-01	-14.8648	-105.368734	0.000758	7.577570	2.567350	-0.060496
1375	6.8700e-01	-14.9146	-105.606687	0.000596	5.961022	2.019649	-0.047591
1376	6.8750e-01	-14.9466	-105.909169	0.000758	7.577570	2.567350	-0.060496
1377	6.8800e-01	-14.9916	-106.215685	0.000768	7.678605	2.601582	-0.061303
1378	6.8850e-01	-15.0285	-106.397174	0.000455	4.546542	1.540410	-0.036298
1379	6.8900e-01	-15.0910	-106.659326	0.000657	6.567228	2.225037	-0.052430
1380	6.8950e-01	-15.1119	-107.034404	0.000940	9.396187	3.183514	-0.075016
1381	6.9000e-01	-15.1536	-107.183628	0.000374	3.738268	1.266559	-0.029845
1382	6.9050e-01	-15.1889	-107.389316	0.000515	5.152748	1.745798	-0.041138
1383	6.9100e-01	-15.2322	-107.663567	0.000687	6.870330	2.327731	-0.054850
1384	6.9150e-01	-15.2755	-107.925719	0.000657	6.567228	2.225037	-0.052430
1385	6.9200e-01	-15.3140	-108.159638	0.000586	5.859988	1.985418	-0.046784
1386	6.9250e-01	-15.3445	-108.554882	0.000990	9.901359	3.354671	-0.079049
1387	6.9300e-01	-15.4022	-108.696040	0.000354	3.536199	1.198097	-0.028232
1388	6.9350e-01	-15.4423	-109.063052	0.000919	9.194119	3.115052	-0.073402
1389	6.9400e-01	-15.4728	-109.292939	0.000576	5.758953	1.951186	-0.045977
1390	6.9450e-01	-15.5113	-109.538958	0.000616	6.163091	2.088112	-0.049204
1391	6.9500e-01	-15.5514	-109.857573	0.000798	7.981707	2.704276	-0.063723
1392	6.9550e-01	-15.5931	-110.164088	0.000768	7.678605	2.601582	-0.061303
1393	6.9600e-01	-15.6316	-110.446405	0.000707	7.072399	2.396194	-0.056463
1394	6.9650e-01	-15.6701	-110.631928	0.000465	4.647576	1.574642	-0.037105
1395	6.9700e-01	-15.7199	-110.890046	0.000647	6.466193	2.190806	-0.051624
1396	6.9750e-01	-15.7520	-111.136065	0.000616	6.163091	2.088112	-0.049204
1397	6.9800e-01	-15.8001	-111.499044	0.000909	9.093084	3.080820	-0.072596
1398	6.9850e-01	-15.8338	-111.765228	0.000667	6.668262	2.259268	-0.053237
1399	6.9900e-01	-15.8723	-112.168538	0.001010	10.103427	3.423134	-0.080662
1400	6.9950e-01	-15.9156	-112.378259	0.000525	5.253782	1.780030	-0.041944
1401	7.0000e-01	-15.9541	-112.583947	0.000515	5.152748	1.745798	-0.041138
1402	7.0050e-01	-15.9926	-112.781569	0.000495	4.950679	1.677336	-0.039524
1403	7.0100e-01	-16.0295	-113.156647	0.000940	9.396187	3.183514	-0.075016
1404	7.0150e-01	-16.0744	-113.334104	0.000445	4.445508	1.506179	-0.035491
1405	7.0200e-01	-16.1097	-113.693050	0.000899	8.992050	3.046589	-0.071789
1406	7.0250e-01	-16.1562	-113.830175	0.000344	3.435165	1.163865	-0.027425
1407	7.0300e-01	-16.1963	-114.136690	0.000768	7.678605	2.601582	-0.061303
1408	7.0350e-01	-16.2268	-114.358511	0.000556	5.556885	1.882724	-0.044364
1409	7.0400e-01	-16.2653	-114.568232	0.000525	5.253782	1.780030	-0.041944
1410	7.0450e-01	-16.3102	-114.935244	0.000919	9.194119	3.115052	-0.073402
1411	7.0500e-01	-16.3455	-115.241759	0.000768	7.678605	2.601582	-0.061303
1412	7.0550e-01	-16.3985	-115.415183	0.000434	4.344474	1.471948	-0.034685
1413	7.0600e-01	-16.4338	-115.810426	0.000990	9.901359	3.354671	-0.079049
1414	7.0650e-01	-16.4739	-115.979817	0.000424	4.243439	1.437716	-0.033878
1415	7.0700e-01	-16.5172	-116.278266	0.000748	7.476536	2.533119	-0.059690
1416	7.0750e-01	-16.5621	-116.451689	0.000434	4.344474	1.471948	-0.034685
1417	7.0800e-01	-16.5942	-116.742072	0.000727	7.274468	2.464656	-0.058077
1418	7.0850e-01	-16.6455	-117.044555	0.000758	7.577570	2.567350	-0.060496
1419	7.0900e-01	-16.6760	-117.371236	0.000818	8.183776	2.772738	-0.065336
1420	7.0950e-01	-16.7209	-117.492228	0.000303	3.031028	1.026940	-0.024199
1421	7.1000e-01	-16.7578	-117.895538	0.001010	10.103427	3.423134	-0.080662
1422	7.1050e-01	-16.7979	-118.077028	0.000455	4.546542	1.540410	-0.036298
1423	7.1100e-01	-16.8316	-118.371444	0.000738	7.375502	2.498888	-0.058883
1424	7.1150e-01	-16.8701	-118.681993	0.000778	7.779639	2.635813	-0.062110
1425	7.1200e-01	-16.9134	-118.911879	0.000576	5.758953	1.951186	-0.045977
1426	7.1250e-01	-16.9616	-119.137733	0.000566	5.657919	1.916955	-0.045171
1427	7.1300e-01	-16.9936	-119.456348	0.000798	7.981707	2.704276	-0.063723
1428	7.1350e-01	-17.0337	-119.702367	0.000616	6.163091	2.088112	-0.049204
1429	7.1400e-01	-17.0706	-119.960485	0.000647	6.466193	2.190806	-0.051624
1430	7.1450e-01	-17.1011	-120.206504	0.000616	6.163091	2.088112	-0.049204
1431	7.1500e-01	-17.1525	-120.416225	0.000525	5.253782	1.780030	-0.041944
1432	7.1550e-01	-17.1942	-120.750972	0.000839	8.385844	2.841201	-0.066949
1433	7.1600e-01	-17.2423	-120.892131	0.000354	3.536199	1.198097	-0.028232
1434	7.1650e-01	-17.2696	-121.234944	0.000859	8.587913	2.909664	-0.068563
1435	7.1700e-01	-17.3129	-121.484996	0.000626	6.264125	2.122343	-0.050010
1436	7.1750e-01	-17.3434	-121.839909	0.000889	8.891016	3.012358	-0.070983
1437	7.1800e-01	-17.3947	-121.908471	0.000172	1.717583	0.581933	-0.013713
1438	7.1850e-01	-17.4412	-122.219020	0.000778	7.779639	2.635813	-0.062110
1439	7.1900e-01	-17.4781	-122.634429	0.001041	10.406530	3.525828	-0.083082
1440	7.1950e-01	-17.5262	-122.836084	0.000505	5.051714	1.711567	-0.040331
1441	7.2000e-01	-17.5519	-123.134533	0.000748	7.476536	2.533119	-0.059690
1442	7.2050e-01	-17.5968	-123.372486	0.000596	5.961022	2.019649	-0.047591
1443	7.2100e-01	-17.6321	-123.598340	0.000566	5.657919	1.916955	-0.045171
1444	7.2150e-01	-17.6722	-123.856458	0.000647	6.466193	2.190806	-0.051624
1445	7.2200e-01	-17.7075	-124.275900	0.001051	10.507564	3.560059	-0.083888
1446	7.2250e-01	-17.7605	-124.457390	0.000455	4.546542	1.540410	-0.036298
1447	7.2300e-01	-17.7925	-124.784071	0.000818	8.183776	2.772738	-0.065336
1448	7.2350e-01	-17.8343	-124.884898	0.000253	2.525857	0.855783	-0.020165
1449	7.2400e-01	-17.8744	-125.147050	0.000657	6.567228	2.225037	-0.052430
1450	7.2450e-01	-17.9145	-125.453565	0.000768	7.678605	2.601582	-0.061303
1451	7.2500e-01	-17.9562	-125.659253	0.000515	5.152748	1.745798	-0.041138
1452	7.2550e-01	-17.9963	-126.058530	0.001000	10.002393	3.388902	-0.079855
1453	7.2600e-01	-18.0332	-126.272284	0.000535	5.354816	1.814261	-0.042751
1454	7.2650e-01	-18.0717	-126.546535	0.000687	6.870330	2.327731	-0.054850
1455	7.2700e-01	-18.1086	-126.744157	0.000495	4.950679	1.677336	-0.039524
1456	7.2750e-01	-18.1519	-127.034540	0.000727	7.274468	2.464656	-0.058077
1457	7.2800e-01	-18.1936	-127.353155	0.000798	7.981707	2.704276	-0.063723
1458	7.2850e-01	-18.2289	-127.554809	0.000505	5.051714	1.711567	-0.040331
1459	7.2900e-01	-18.2674	-127.820994	0.000667	6.668262	2.259268	-0.053237
1460	7.2950e-01	-18.3075	-128.054914	0.000586	5.859988	1.985418	-0.046784
1461	7.3000e-01	-18.3572	-128.357396	0.000758	7.577570	2.567350	-0.060496
1462	7.3050e-01	-18.3941	-128.667945	0.000778	7.779639	2.635813	-0.062110
1463	7.3100e-01	-18.4294	-128.978493	0.000778	7.779639	2.635813	-0.062110
1464	7.3150e-01	-18.4759	-129.159983	0.000455	4.546542	1.540410	-0.036298
1465	7.3200e-01	-18.5161	-129.454399	0.000738	7.375502	2.498888	-0.058883
1466	7.3250e-01	-18.5530	-129.672186	0.000546	5.455851	1.848492	-0.043557
1467	7.3300e-01	-18.5947	-129.974669	0.000758	7.577570	2.567350	-0.060496
1468	7.3350e-01	-18.6380	-130.140026	0.000414	4.142405	1.403485	-0.033071
1469	7.3400e-01	-18.6685	-130.402177	0.000657	6.567228	2.225037	-0.052430
1470	7.3450e-01	-18.7134	-130.704660	0.000758	7.577570	2.567350	-0.060496
1471	7.3500e-01	-18.7471	-131.019241	0.000788	7.880673	2.670044	-0.062916
1472	7.3550e-01	-18.7968	-131.228962	0.000525	5.253782	1.780030	-0.041944
1473	7.3600e-01	-18.8401	-131.503213	0.000687	6.870330	2.327731	-0.054850
1474	7.3650e-01	-18.8770	-131.837960	0.000839	8.385844	2.841201	-0.066949
1475	7.3700e-01	-18.9155	-132.096079	0.000647	6.466193	2.190806	-0.051624
1476	7.3750e-01	-18.9652	-132.297733	0.000505	5.051714	1.711567	-0.040331
1477	7.3800e-01	-18.9941	-132.491322	0.000485	4.849645	1.643104	-0.038718
1478	7.3850e-01	-19.0374	-132.886566	0.000990	9.901359	3.354671	-0.079049
1479	7.3900e-01	-19.0775	-133.072088	0.000465	4.647576	1.574642	-0.037105
1480	7.3950e-01	-19.1160	-133.322140	0.000626	6.264125	2.122343	-0.050010
1481	7.4000e-01	-19.1529	-133.491531	0.000424	4.243439	1.437716	-0.033878
1482	7.4050e-01	-19.1962	-133.806112	0.000788	7.880673	2.670044	-0.062916
1483	7.4100e-01	-19.2412	-134.132793	0.000818	8.183776	2.772738	-0.065336
1484	7.4150e-01	-19.2749	-134.443342	0.000778	7.779639	2.635813	-0.062110
1485	7.4200e-01	-19.3102	-134.778089	0.000839	8.385844	2.841201	-0.066949
1486	7.4250e-01	-19.3583	-134.959579	0.000455	4.546542	1.540410	-0.036298
1487	7.4300e-01	-19.3952	-135.141068	0.000455	4.546542	1.540410	-0.036298
1488	7.4350e-01	-19.4305	-135.439517	0.000748	7.476536	2.533119	-0.059690
1489	7.4400e-01	-19.4690	-135.625040	0.000465	4.647576	1.574642	-0.037105
1490	7.4450e-01	-19.5155	-135.955754	0.000828	8.284810	2.806970	-0.066143
1491	7.4500e-01	-19.5540	-136.242104	0.000717	7.173433	2.430425	-0.057270
1492	7.4550e-01	-19.5989	-136.548619	0.000768	7.678605	2.601582	-0.061303
1493	7.4600e-01	-19.6294	-136.693811	0.000364	3.637234	1.232328	-0.029038
1494	7.4650e-01	-19.6743	-137.020492	0.000818	8.183776	2.772738	-0.065336
1495	7.4700e-01	-19.7144	-137.250379	0.000576	5.758953	1.951186	-0.045977
1496	7.4750e-01	-19.7529	-137.500431	0.000626	6.264125	2.122343	-0.050010
1497	7.4800e-01	-19.7930	-137.782748	0.000707	7.072399	2.396194	-0.056463
1498	7.4850e-01	-19.8331	-138.157826	0.000940	9.396187	3.183514	-0.075016
1499	7.4900e-01	-19.8861	-138.311083	0.000384	3.839302	1.300791	-0.030652
1500	7.4950e-01	-19.9166	-138.633731	0.000808	8.082742	2.738507	-0.064530
1501	7.5000e-01	-19.9534	-138.883783	0.000626	6.264125	2.122343	-0.050010
1502	7.5050e-01	-19.9551	-138.968479	0.000212	2.121720	0.718858	-0.016939
1503	7.5100e-01	-19.9374	-139.049141	-0.000202	-2.020685	-0.684627	-0.016132
1504	7.5150e-01	-19.8941	-138.952346	0.000242	2.424823	0.821552	0.019359
1505	7.5200e-01	-19.8588	-138.936214	0.000040	0.404137	0.136925	0.003226
1506	7.5250e-01	-19.8203	-138.738592	0.000495	4.950679	1.677336	0.039524
1507	7.5300e-01	-19.7818	-138.706327	0.000081	0.808274	0.273851	0.006453
1508	7.5350e-01	-19.7353	-138.718426	-0.000030	-0.303103	-0.102694	-0.002420
1509	7.5400e-01	-19.6984	-138.532904	0.000465	4.647576	1.574642	0.037105
1510	7.5450e-01	-19.6615	-138.419977	0.000283	2.828960	0.958477	0.022585
1511	7.5500e-01	-19.6134	-138.226388	0.000485	4.849645	1.643104	0.038718
1512	7.5550e-01	-19.5813	-138.190091	0.000091	0.909308	0.308082	0.007260
1513	7.5600e-01	-19.5412	-138.032800	0.000394	3.940337	1.335022	0.031458
1514	7.5650e-01	-19.4994	-137.851310	0.000455	4.546542	1.540410	0.036298
1515	7.5700e-01	-19.4497	-137.867443	-0.000040	-0.404137	-0.136925	-0.003226
1516	7.5750e-01	-19.4096	-137.661755	0.000515	5.152748	1.745798	0.041138
1517	7.5800e-01	-19.3807	-137.536729	0.000313	3.132062	1.061171	0.025005
1518	7.5850e-01	-19.3438	-137.347173	0.000475	4.748611	1.608873	0.037911
1519	7.5900e-01	-19.3005	-137.339107	0.000020	0.202069	0.068463	0.001613
1520	7.5950e-01	-19.2540	-137.270544	0.000172	1.717583	0.581933	0.013713
1521	7.6000e-01	-19.2171	-137.093088	0.000445	4.445508	1.506179	0.035491
1522	7.6050e-01	-19.1802	-136.964029	0.000323	3.233097	1.095403	0.025812
1523	7.6100e-01	-19.1385	-136.762374	0.000505	5.051714	1.711567	0.040331
1524	7.6150e-01	-19.1032	-136.621215	0.000354	3.536199	1.198097	0.028232
1525	7.6200e-01	-19.0679	-136.597017	0.000061	0.606206	0.205388	0.004840
1526	7.6250e-01	-19.0278	-136.330832	0.000667	6.668262	2.259268	0.053237
1527	7.6300e-01	-18.9829	-136.149343	0.000455	4.546542	1.540410	0.036298
1528	7.6350e-01	-18.9380	-136.004151	0.000364	3.637234	1.232328	0.029038
1529	7.6400e-01	-18.8995	-135.927522	0.000192	1.919651	0.650395	0.015326
1530	7.6450e-01	-18.8610	-135.875092	0.000131	1.313446	0.445007	0.010486
1531	7.6500e-01	-18.8193	-135.661338	0.000535	5.354816	1.814261	0.042751
1532	7.6550e-01	-18.7824	-135.495981	0.000414	4.142405	1.403485	0.033071
1533	7.6600e-01	-18.7374	-135.362888	0.000333	3.334131	1.129634	0.026618
1534	7.6650e-01	-18.7102	-135.177366	0.000465	4.647576	1.574642	0.037105
1535	7.6700e-01	-18.6636	-135.007976	0.000424	4.243439	1.437716	0.033878
1536	7.6750e-01	-18.6139	-134.862784	0.000364	3.637234	1.232328	0.029038
1537	7.6800e-01	-18.5706	-134.854718	0.000020	0.202069	0.068463	0.001613
1538	7.6850e-01	-18.5401	-134.640964	0.000535	5.354816	1.814261	0.042751
1539	7.6900e-01	-18.4984	-134.415110	0.000566	5.657919	1.916955	0.045171
1540	7.6950e-01	-18.4631	-134.302183	0.000283	2.828960	0.958477	0.022585
1541	7.7000e-01	-18.4246	-134.225555	0.000192	1.919651	0.650395	0.015326
1542	7.7050e-01	-18.3861	-133.983569	0.000606	6.062056	2.053880	0.048397
1543	7.7100e-01	-18.3476	-133.814179	0.000424	4.243439	1.437716	0.033878
1544	7.7150e-01	-18.2963	-133.543961	0.000677	6.769296	2.293500	0.054044
1545	7.7200e-01	-18.2530	-133.439100	0.000263	2.626891	0.890015	0.020972
1546	7.7250e-01	-18.2193	-133.346339	0.000232	2.323788	0.787321	0.018552
1547	7.7300e-01	-18.1856	-133.116452	0.000576	5.758953	1.951186	0.045977
1548	7.7350e-01	-18.1423	-132.959162	0.000394	3.940337	1.335022	0.031458
1549	7.7400e-01	-18.1102	-132.797838	0.000404	4.041371	1.369254	0.032265
1550	7.7450e-01	-18.0637	-132.705076	0.000232	2.323788	0.787321	0.018552
1551	7.7500e-01	-18.0187	-132.446958	0.000647	6.466193	2.190806	0.051624
1552	7.7550e-01	-17.9915	-132.277568	0.000424	4.243439	1.437716	0.033878
1553	7.7600e-01	-17.9401	-132.225138	0.000131	1.313446	0.445007	0.010486
1554	7.7650e-01	-17.9016	-131.930721	0.000738	7.375502	2.498888	0.058883
1555	7.7700e-01	-17.8599	-131.846026	0.000212	2.121720	0.718858	0.016939
1556	7.7750e-01	-17.8198	-131.604040	0.000606	6.062056	2.053880	0.048397
1557	7.7800e-01	-17.7813	-131.378187	0.000566	5.657919	1.916955	0.045171
1558	7.7850e-01	-17.7460	-131.180565	0.000495	4.950679	1.677336	0.039524
1559	7.7900e-01	-17.6995	-131.120069	0.000152	1.515514	0.513470	0.012099
1560	7.7950e-01	-17.6546	-131.067638	0.000131	1.313446	0.445007	0.010486
1561	7.8000e-01	-17.6241	-130.817586	0.000626	6.264125	2.122343	0.050010
1562	7.8050e-01	-17.5728	-130.660295	0.000394	3.940337	1.335022	0.031458
1563	7.8100e-01	-17.5407	-130.507038	0.000384	3.839302	1.300791	0.030652
1564	7.8150e-01	-17.5006	-130.261019	0.000616	6.163091	2.088112	0.049204
1565	7.8200e-01	-17.4653	-130.212621	0.000121	1.212411	0.410776	0.009679
1566	7.8250e-01	-17.4204	-129.998867	0.000535	5.354816	1.814261	0.042751
1567	7.8300e-01	-17.3754	-129.764948	0.000586	5.859988	1.985418	0.046784
1568	7.8350e-01	-17.3385	-129.478598	0.000717	7.173433	2.430425	0.057270
1569	7.8400e-01	-17.3065	-129.389869	0.000222	2.222754	0.753089	0.017746
1570	7.8450e-01	-17.2567	-129.147883	0.000606	6.062056	2.053880	0.048397
1571	7.8500e-01	-17.2230	-129.063188	0.000212	2.121720	0.718858	0.016939
1572	7.8550e-01	-17.1749	-129.030924	0.000081	0.808274	0.273851	0.006453
1573	7.8600e-01	-17.1412	-128.772805	0.000647	6.466193	2.190806	0.051624
1574	7.8650e-01	-17.0995	-128.478389	0.000738	7.375502	2.498888	0.058883
1575	7.8700e-01	-17.0450	-128.381595	0.000242	2.424823	0.821552	0.019359
1576	7.8750e-01	-17.0097	-128.192039	0.000475	4.748611	1.608873	0.037911
1577	7.8800e-01	-16.9824	-128.006517	0.000465	4.647576	1.574642	0.037105
1578	7.8850e-01	-16.9407	-127.800829	0.000515	5.152748	1.745798	0.041138
1579	7.8900e-01	-16.8926	-127.631438	0.000424	4.243439	1.437716	0.033878
1580	7.8950e-01	-16.8525	-127.449949	0.000455	4.546542	1.540410	0.036298
1581	7.9000e-01	-16.8075	-127.292658	0.000394	3.940337	1.335022	0.031458
1582	7.9050e-01	-16.7835	-127.155533	0.000344	3.435165	1.163865	0.027425
1583	7.9100e-01	-16.7434	-126.844984	0.000778	7.779639	2.635813	0.062110
1584	7.9150e-01	-16.6985	-126.719958	0.000313	3.132062	1.061171	0.025005
1585	7.9200e-01	-16.6600	-126.586866	0.000333	3.334131	1.129634	0.026618
1586	7.9250e-01	-16.6231	-126.361012	0.000566	5.657919	1.916955	0.045171
1587	7.9300e-01	-16.5830	-126.054497	0.000768	7.678605	2.601582	0.061303
1588	7.9350e-01	-16.5396	-125.885107	0.000424	4.243439	1.437716	0.033878
1589	7.9400e-01	-16.4995	-125.772180	0.000283	2.828960	0.958477	0.022585
1590	7.9450e-01	-16.4626	-125.566492	0.000515	5.152748	1.745798	0.041138
1591	7.9500e-01	-16.4225	-125.453565	0.000283	2.828960	0.958477	0.022585
1592	7.9550e-01	-16.3840	-125.167215	0.000717	7.173433	2.430425	0.057270
1593	7.9600e-01	-16.3327	-124.969593	0.000495	4.950679	1.677336	0.039524
1594	7.9650e-01	-16.2942	-124.824402	0.000364	3.637234	1.232328	0.029038
1595	7.9700e-01	-16.2605	-124.638879	0.000465	4.647576	1.574642	0.037105
1596	7.9750e-01	-16.2236	-124.453357	0.000465	4.647576	1.574642	0.037105
1597	7.9800e-01	-16.1787	-124.271867	0.000455	4.546542	1.540410	0.036298
1598	7.9850e-01	-16.1418	-124.013749	0.000647	6.466193	2.190806	0.051624
1599	7.9900e-01	-16.1081	-123.961319	0.000131	1.313446	0.445007	0.010486
1600	7.9950e-01	-16.0568	-123.711267	0.000626	6.264125	2.122343	0.050010
1601	8.0000e-01	-16.0247	-123.590274	0.000303	3.031028	1.026940	0.024199
1602	8.0050e-01	-15.9830	-123.316023	0.000687	6.870330	2.327731	0.054850
1603	8.0100e-01	-15.9509	-123.013540	0.000758	7.577570	2.567350	0.060496
1604	8.0150e-01	-15.9012	-122.977243	0.000091	0.909308	0.308082	0.007260
1605	8.0200e-01	-15.8514	-122.694926	0.000707	7.072399	2.396194	0.056463
1606	8.0250e-01	-15.8209	-122.505370	0.000475	4.748611	1.608873	0.037911
1607	8.0300e-01	-15.7808	-122.243219	0.000657	6.567228	2.225037	0.052430
1608	8.0350e-01	-15.7343	-122.239186	0.000010	0.101034	0.034231	0.000807
1609	8.0400e-01	-15.6990	-121.940736	0.000748	7.476536	2.533119	0.059690
1610	8.0450e-01	-15.6573	-121.759247	0.000455	4.546542	1.540410	0.036298
1611	8.0500e-01	-15.6188	-121.630188	0.000323	3.233097	1.095403	0.025812
1612	8.0550e-01	-15.5915	-121.372069	0.000647	6.466193	2.190806	0.051624
1613	8.0600e-01	-15.5434	-121.113951	0.000647	6.466193	2.190806	0.051624
1614	8.0650e-01	-15.5001	-120.944561	0.000424	4.243439	1.437716	0.033878
1615	8.0700e-01	-15.4552	-120.815502	0.000323	3.233097	1.095403	0.025812
1616	8.0750e-01	-15.4215	-120.605781	0.000525	5.253782	1.780030	0.041944
1617	8.0800e-01	-15.3830	-120.355728	0.000626	6.264125	2.122343	0.050010
1618	8.0850e-01	-15.3349	-120.174239	0.000455	4.546542	1.540410	0.036298
1619	8.0900e-01	-15.3028	-119.964518	0.000525	5.253782	1.780030	0.041944
1620	8.0950e-01	-15.2482	-119.819326	0.000364	3.637234	1.232328	0.029038
1621	8.1000e-01	-15.2145	-119.589440	0.000576	5.758953	1.951186	0.045977
1622	8.1050e-01	-15.1728	-119.295024	0.000738	7.375502	2.498888	0.058883
1623	8.1100e-01	-15.1391	-119.214362	0.000202	2.020685	0.684627	0.016132
1624	8.1150e-01	-15.1006	-118.992541	0.000556	5.556885	1.882724	0.044364
1625	8.1200e-01	-15.0621	-118.766688	0.000566	5.657919	1.916955	0.045171
1626	8.1250e-01	-15.0172	-118.387576	0.000950	9.497221	3.217746	0.075822
1627	8.1300e-01	-14.9819	-118.339179	0.000121	1.212411	0.410776	0.009679
1628	8.1350e-01	-14.9338	-118.189955	0.000374	3.738268	1.266559	0.029845
1629	8.1400e-01	-14.8953	-117.895538	0.000738	7.375502	2.498888	0.058883
1630	8.1450e-01	-14.8600	-117.738247	0.000394	3.940337	1.335022	0.031458
1631	8.1500e-01	-14.8247	-117.629354	0.000273	2.727925	0.924246	0.021779
1632	8.1550e-01	-14.7798	-117.294607	0.000839	8.385844	2.841201	0.066949
1633	8.1600e-01	-14.7413	-117.177647	0.000293	2.929994	0.992709	0.023392
1634	8.1650e-01	-14.6964	-116.951793	0.000566	5.657919	1.916955	0.045171
1635	8.1700e-01	-14.6611	-116.826767	0.000313	3.132062	1.061171	0.025005
1636	8.1750e-01	-14.6178	-116.604947	0.000556	5.556885	1.882724	0.044364
1637	8.1800e-01	-14.5761	-116.387159	0.000546	5.455851	1.848492	0.043557
1638	8.1850e-01	-14.5360	-116.225836	0.000404	4.041371	1.369254	0.032265
1639	8.1900e-01	-14.4926	-115.911254	0.000788	7.880673	2.670044	0.062916
1640	8.1950e-01	-14.4590	-115.624904	0.000717	7.173433	2.430425	0.057270
1641	8.2000e-01	-14.4188	-115.322421	0.000758	7.577570	2.567350	0.060496
1642	8.2050e-01	-14.3739	-115.358719	-0.000091	-0.909308	-0.308082	-0.007260
1643	8.2100e-01	-14.3338	-115.048171	0.000778	7.779639	2.635813	0.062110
1644	8.2150e-01	-14.3033	-114.854582	0.000485	4.849645	1.643104	0.038718
1645	8.2200e-01	-14.2568	-114.673093	0.000455	4.546542	1.540410	0.036298
1646	8.2250e-01	-14.2119	-114.386743	0.000717	7.173433	2.430425	0.057270
1647	8.2300e-01	-14.1750	-114.237518	0.000374	3.738268	1.266559	0.029845
1648	8.2350e-01	-14.1317	-114.076194	0.000404	4.041371	1.369254	0.032265
1649	8.2400e-01	-14.0932	-113.810009	0.000667	6.668262	2.259268	0.053237
1650	8.2450e-01	-14.0467	-113.616421	0.000485	4.849645	1.643104	0.038718
1651	8.2500e-01	-14.0194	-113.317971	0.000748	7.476536	2.533119	0.059690
1652	8.2550e-01	-13.9793	-113.225210	0.000232	2.323788	0.787321	0.018552
1653	8.2600e-01	-13.9392	-113.023555	0.000505	5.051714	1.711567	0.040331
1654	8.2650e-01	-13.8975	-112.781569	0.000606	6.062056	2.053880	0.048397
1655	8.2700e-01	-13.8542	-112.531517	0.000626	6.264125	2.122343	0.050010
1656	8.2750e-01	-13.8173	-112.366160	0.000414	4.142405	1.403485	0.033071
1657	8.2800e-01	-13.7836	-112.043512	0.000808	8.082742	2.738507	0.064530
1658	8.2850e-01	-13.7338	-111.978983	0.000162	1.616548	0.547701	0.012906
1659	8.2900e-01	-13.6969	-111.632136	0.000869	8.688947	2.943895	0.069369
1660	8.2950e-01	-13.6456	-111.547441	0.000212	2.121720	0.718858	0.016939
1661	8.3000e-01	-13.6119	-111.349819	0.000495	4.950679	1.677336	0.039524
1662	8.3050e-01	-13.5766	-111.083635	0.000667	6.668262	2.259268	0.053237
1663	8.3100e-01	-13.5413	-110.777119	0.000768	7.678605	2.601582	0.061303
1664	8.3150e-01	-13.5044	-110.611762	0.000414	4.142405	1.403485	0.033071
1665	8.3200e-01	-13.4563	-110.377843	0.000586	5.859988	1.985418	0.046784
1666	8.3250e-01	-13.4066	-110.277015	0.000253	2.525857	0.855783	0.020165
1667	8.3300e-01	-13.3761	-109.918069	0.000899	8.992050	3.046589	0.071789
1668	8.3350e-01	-13.3328	-109.672050	0.000616	6.163091	2.088112	0.049204
1669	8.3400e-01	-13.3055	-109.470395	0.000505	5.051714	1.711567	0.040331
1670	8.3450e-01	-13.2558	-109.280840	0.000475	4.748611	1.608873	0.037911
1671	8.3500e-01	-13.2125	-109.083218	0.000495	4.950679	1.677336	0.039524
1672	8.3550e-01	-13.1820	-108.788802	0.000738	7.375502	2.498888	0.058883
1673	8.3600e-01	-13.1419	-108.619412	0.000424	4.243439	1.437716	0.033878
1674	8.3650e-01	-13.1050	-108.494386	0.000313	3.132062	1.061171	0.025005
1675	8.3700e-01	-13.0585	-108.224168	0.000677	6.769296	2.293500	0.054044
1676	8.3750e-01	-13.0216	-108.046712	0.000445	4.445508	1.506179	0.035491
1677	8.3800e-01	-12.9798	-107.836990	0.000525	5.253782	1.780030	0.041944
1678	8.3850e-01	-12.9413	-107.502243	0.000839	8.385844	2.841201	0.066949
1679	8.3900e-01	-12.9028	-107.159430	0.000859	8.587913	2.909664	0.068563
1680	8.3950e-01	-12.8643	-107.111033	0.000121	1.212411	0.410776	0.009679
1681	8.4000e-01	-12.8258	-106.881146	0.000576	5.758953	1.951186	0.045977
1682	8.4050e-01	-12.7745	-106.562531	0.000798	7.981707	2.704276	0.063723
1683	8.4100e-01	-12.7440	-106.421373	0.000354	3.536199	1.198097	0.028232
1684	8.4150e-01	-12.6959	-106.231817	0.000475	4.748611	1.608873	0.037911
1685	8.4200e-01	-12.6622	-105.997897	0.000586	5.859988	1.985418	0.046784
1686	8.4250e-01	-12.6189	-105.836574	0.000404	4.041371	1.369254	0.032265
1687	8.4300e-01	-12.5884	-105.647018	0.000475	4.748611	1.608873	0.037911
1688	8.4350e-01	-12.5419	-105.328403	0.000798	7.981707	2.704276	0.063723
1689	8.4400e-01	-12.4906	-105.154980	0.000434	4.344474	1.471948	0.034685
1690	8.4450e-01	-12.4633	-104.900895	0.000637	6.365159	2.156574	0.050817
1691	8.4500e-01	-12.4184	-104.731505	0.000424	4.243439	1.437716	0.033878
1692	8.4550e-01	-12.3702	-104.449188	0.000707	7.072399	2.396194	0.056463
1693	8.4600e-01	-12.3398	-104.247533	0.000505	5.051714	1.711567	0.040331
1694	8.4650e-01	-12.2980	-103.949083	0.000748	7.476536	2.533119	0.059690
1695	8.4700e-01	-12.2595	-103.755495	0.000485	4.849645	1.643104	0.038718
1696	8.4750e-01	-12.2146	-103.586105	0.000424	4.243439	1.437716	0.033878
1697	8.4800e-01	-12.1777	-103.384450	0.000505	5.051714	1.711567	0.040331
1698	8.4850e-01	-12.1360	-103.150530	0.000586	5.859988	1.985418	0.046784
1699	8.4900e-01	-12.0927	-103.001305	0.000374	3.738268	1.266559	0.029845
1700	8.4950e-01	-12.0558	-102.585896	0.001041	10.406530	3.525828	0.083082
1701	8.5000e-01	-12.0205	-102.351976	0.000586	5.859988	1.985418	0.046784
1702	8.5050e-01	-11.9724	-102.122090	0.000576	5.758953	1.951186	0.045977
1703	8.5100e-01	-11.9339	-101.928501	0.000485	4.849645	1.643104	0.038718
1704	8.5150e-01	-11.8970	-101.706681	0.000556	5.556885	1.882724	0.044364
1705	8.5200e-01	-11.8633	-101.541324	0.000414	4.142405	1.403485	0.033071
1706	8.5250e-01	-11.8152	-101.230775	0.000778	7.779639	2.635813	0.062110
1707	8.5300e-01	-11.7799	-101.049285	0.000455	4.546542	1.540410	0.036298
1708	8.5350e-01	-11.7302	-100.762935	0.000717	7.173433	2.430425	0.057270
1709	8.5400e-01	-11.7077	-100.529016	0.000586	5.859988	1.985418	0.046784
1710	8.5450e-01	-11.6499	-100.383824	0.000364	3.637234	1.232328	0.029038
1711	8.5500e-01	-11.6195	-100.036978	0.000869	8.688947	2.943895	0.069369
1712	8.5550e-01	-11.5777	-99.920018	0.000293	2.929994	0.992709	0.023392
1713	8.5600e-01	-11.5392	-99.686098	0.000586	5.859988	1.985418	0.046784
1714	8.5650e-01	-11.4975	-99.371516	0.000788	7.880673	2.670044	0.062916
1715	8.5700e-01	-11.4574	-99.210193	0.000404	4.041371	1.369254	0.032265
1716	8.5750e-01	-11.4173	-99.000471	0.000525	5.253782	1.780030	0.041944
1717	8.5800e-01	-11.3804	-98.782684	0.000546	5.455851	1.848492	0.043557
1718	8.5850e-01	-11.3339	-98.540698	0.000606	6.062056	2.053880	0.048397
1719	8.5900e-01	-11.3002	-98.355176	0.000465	4.647576	1.574642	0.037105
1720	8.5950e-01	-11.2617	-98.101090	0.000637	6.365159	2.156574	0.050817
1721	8.6000e-01	-11.2184	-97.790542	0.000778	7.779639	2.635813	0.062110
1722	8.6050e-01	-11.1815	-97.524357	0.000667	6.668262	2.259268	0.053237
1723	8.6100e-01	-11.1414	-97.334802	0.000475	4.748611	1.608873	0.037911
1724	8.6150e-01	-11.0997	-97.133147	0.000505	5.051714	1.711567	0.040331
1725	8.6200e-01	-11.0564	-96.862929	0.000677	6.769296	2.293500	0.054044
1726	8.6250e-01	-11.0227	-96.673373	0.000475	4.748611	1.608873	0.037911
1727	8.6300e-01	-10.9762	-96.387023	0.000717	7.173433	2.430425	0.057270
1728	8.6350e-01	-10.9489	-96.153104	0.000586	5.859988	1.985418	0.046784
1729	8.6400e-01	-10.9024	-95.899019	0.000637	6.365159	2.156574	0.050817
1730	8.6450e-01	-10.8558	-95.648966	0.000626	6.264125	2.122343	0.050010
1731	8.6500e-01	-10.8254	-95.487643	0.000404	4.041371	1.369254	0.032265
1732	8.6550e-01	-10.7756	-95.136763	0.000879	8.789982	2.978126	0.070176
1733	8.6600e-01	-10.7403	-94.910909	0.000566	5.657919	1.916955	0.045171
1734	8.6650e-01	-10.7018	-94.757652	0.000384	3.839302	1.300791	0.030652
1735	8.6700e-01	-10.6730	-94.503566	0.000637	6.365159	2.156574	0.050817
1736	8.6750e-01	-10.6168	-94.362408	0.000354	3.536199	1.198097	0.028232
1737	8.6800e-01	-10.5847	-94.031694	0.000828	8.284810	2.806970	0.066143
1738	8.6850e-01	-10.5382	-93.781642	0.000626	6.264125	2.122343	0.050010
1739	8.6900e-01	-10.5093	-93.446895	0.000839	8.385844	2.841201	0.066949
1740	8.6950e-01	-10.4548	-93.225074	0.000556	5.556885	1.882724	0.044364
1741	8.7000e-01	-10.4211	-92.934691	0.000727	7.274468	2.464656	0.058077
1742	8.7050e-01	-10.3842	-92.914526	0.000051	0.505171	0.171157	0.004033
1743	8.7100e-01	-10.3457	-92.688672	0.000566	5.657919	1.916955	0.045171
1744	8.7150e-01	-10.2992	-92.341826	0.000869	8.688947	2.943895	0.069369
1745	8.7200e-01	-10.2575	-92.063542	0.000697	6.971365	2.361962	0.055657
1746	8.7250e-01	-10.2302	-91.821556	0.000606	6.062056	2.053880	0.048397
1747	8.7300e-01	-10.1805	-91.652166	0.000424	4.243439	1.437716	0.033878
1748	8.7350e-01	-10.1404	-91.506974	0.000364	3.637234	1.232328	0.029038
1749	8.7400e-01	-10.1019	-91.176260	0.000828	8.284810	2.806970	0.066143
1750	8.7450e-01	-10.0666	-90.934274	0.000606	6.062056	2.053880	0.048397
1751	8.7500e-01	-10.0152	-90.595494	0.000849	8.486879	2.875432	0.067756
1752	8.7550e-01	-9.9735	-90.522898	0.000182	1.818617	0.616164	0.014519
1753	8.7600e-01	-9.9334	-90.224449	0.000748	7.476536	2.533119	0.059690
1754	8.7650e-01	-9.9093	-89.958264	0.000667	6.668262	2.259268	0.053237
1755	8.7700e-01	-9.8564	-89.837271	0.000303	3.031028	1.026940	0.024199
1756	8.7750e-01	-9.8115	-89.534789	0.000758	7.577570	2.567350	0.060496
1757	8.7800e-01	-9.7826	-89.175843	0.000899	8.992050	3.046589	0.071789
1758	8.7850e-01	-9.7345	-88.845129	0.000828	8.284810	2.806970	0.066143
1759	8.7900e-01	-9.7056	-88.603143	0.000606	6.062056	2.053880	0.048397
1760	8.7950e-01	-9.6623	-88.276462	0.000818	8.183776	2.772738	0.065336
1761	8.8000e-01	-9.6190	-88.219999	0.000141	1.414480	0.479239	0.011293
1762	8.8050e-01	-9.5741	-88.086907	0.000333	3.334131	1.129634	0.026618
1763	8.8100e-01	-9.5388	-87.631166	0.001142	11.416873	3.868141	0.091148
1764	8.8150e-01	-9.4987	-87.393214	0.000596	5.961022	2.019649	0.047591
1765	8.8200e-01	-9.4650	-87.288353	0.000263	2.626891	0.890015	0.020972
1766	8.8250e-01	-9.4201	-86.985871	0.000758	7.577570	2.567350	0.060496
1767	8.8300e-01	-9.3848	-86.776150	0.000525	5.253782	1.780030	0.041944
1768	8.8350e-01	-9.3414	-86.497866	0.000697	6.971365	2.361962	0.055657
1769	8.8400e-01	-9.3142	-86.243781	0.000637	6.365159	2.156574	0.050817
1770	8.8450e-01	-9.2564	-85.933232	0.000778	7.779639	2.635813	0.062110
1771	8.8500e-01	-9.2083	-85.622683	0.000778	7.779639	2.635813	0.062110
1772	8.8550e-01	-9.1842	-85.546054	0.000192	1.919651	0.650395	0.015326
1773	8.8600e-01	-9.1473	-85.251638	0.000738	7.375502	2.498888	0.058883
1774	8.8650e-01	-9.1008	-85.070149	0.000455	4.546542	1.540410	0.036298
1775	8.8700e-01	-9.0559	-84.747501	0.000808	8.082742	2.738507	0.064530
1776	8.8750e-01	-9.0318	-84.501482	0.000616	6.163091	2.088112	0.049204
1777	8.8800e-01	-8.9805	-84.271595	0.000576	5.758953	1.951186	0.045977
1778	8.8850e-01	-8.9372	-83.969113	0.000758	7.577570	2.567350	0.060496
1779	8.8900e-01	-8.9035	-83.763425	0.000515	5.152748	1.745798	0.041138
1780	8.8950e-01	-8.8473	-83.557737	0.000515	5.152748	1.745798	0.041138
1781	8.9000e-01	-8.8169	-83.255254	0.000758	7.577570	2.567350	0.060496
1782	8.9050e-01	-8.7735	-83.045533	0.000525	5.253782	1.780030	0.041944
1783	8.9100e-01	-8.7463	-82.743051	0.000758	7.577570	2.567350	0.060496
1784	8.9150e-01	-8.7062	-82.492999	0.000626	6.264125	2.122343	0.050010
1785	8.9200e-01	-8.6580	-82.218748	0.000687	6.870330	2.327731	0.054850
1786	8.9250e-01	-8.6228	-82.077590	0.000354	3.536199	1.198097	0.028232
1787	8.9300e-01	-8.5730	-81.706545	0.000930	9.295153	3.149283	0.074209
1788	8.9350e-01	-8.5441	-81.492790	0.000535	5.354816	1.814261	0.042751
1789	8.9400e-01	-8.5040	-81.218540	0.000687	6.870330	2.327731	0.054850
1790	8.9450e-01	-8.4559	-81.069315	0.000374	3.738268	1.266559	0.029845
1791	8.9500e-01	-8.4190	-80.674071	0.000990	9.901359	3.354671	0.079049
1792	8.9550e-01	-8.3709	-80.464350	0.000525	5.253782	1.780030	0.041944
1793	8.9600e-01	-8.3404	-80.238497	0.000566	5.657919	1.916955	0.045171
1794	8.9650e-01	-8.2987	-80.024742	0.000535	5.354816	1.814261	0.042751
1795	8.9700e-01	-8.2522	-79.653697	0.000930	9.295153	3.149283	0.074209
1796	8.9750e-01	-8.2169	-79.310884	0.000859	8.587913	2.909664	0.068563
1797	8.9800e-01	-8.1832	-79.113262	0.000495	4.950679	1.677336	0.039524
1798	8.9850e-01	-8.1303	-78.818846	0.000738	7.375502	2.498888	0.058883
1799	8.9900e-01	-8.0998	-78.802714	0.000040	0.404137	0.136925	0.003226
1800	8.9950e-01	-8.0613	-78.379238	0.001061	10.608598	3.594290	0.084695
1801	9.0000e-01	-8.0180	-78.185650	0.000485	4.849645	1.643104	0.038718
1802	9.0050e-01	-7.9762	-77.923498	0.000657	6.567228	2.225037	0.052430
1803	9.0100e-01	-7.9345	-77.693611	0.000576	5.758953	1.951186	0.045977
1804	9.0150e-01	-7.9057	-77.399195	0.000738	7.375502	2.498888	0.058883
1805	9.0200e-01	-7.8656	-77.165276	0.000586	5.859988	1.985418	0.046784
1806	9.0250e-01	-7.8190	-76.862793	0.000758	7.577570	2.567350	0.060496
1807	9.0300e-01	-7.7837	-76.741800	0.000303	3.031028	1.026940	0.024199
1808	9.0350e-01	-7.7388	-76.358656	0.000960	9.598256	3.251977	0.076629
1809	9.0400e-01	-7.6939	-76.108604	0.000626	6.264125	2.122343	0.050010
1810	9.0450e-01	-7.6602	-75.830320	0.000697	6.971365	2.361962	0.055657
1811	9.0500e-01	-7.6313	-75.495573	0.000839	8.385844	2.841201	0.066949
1812	9.0550e-01	-7.5832	-75.346348	0.000374	3.738268	1.266559	0.029845
1813	9.0600e-01	-7.5319	-75.092263	0.000637	6.365159	2.156574	0.050817
1814	9.0650e-01	-7.4902	-74.773648	0.000798	7.981707	2.704276	0.063723
1815	9.0700e-01	-7.4549	-74.507464	0.000667	6.668262	2.259268	0.053237
1816	9.0750e-01	-7.4260	-74.406636	0.000253	2.525857	0.855783	0.020165
1817	9.0800e-01	-7.3795	-74.059790	0.000869	8.688947	2.943895	0.069369
1818	9.0850e-01	-7.3329	-73.741175	0.000798	7.981707	2.704276	0.063723
1819	9.0900e-01	-7.3025	-73.519354	0.000556	5.556885	1.882724	0.044364
1820	9.0950e-01	-7.2575	-73.269302	0.000626	6.264125	2.122343	0.050010
1821	9.1000e-01	-7.2126	-73.035383	0.000586	5.859988	1.985418	0.046784
1822	9.1050e-01	-7.1822	-72.696602	0.000849	8.486879	2.875432	0.067756
1823	9.1100e-01	-7.1356	-72.426385	0.000677	6.769296	2.293500	0.054044
1824	9.1150e-01	-7.0875	-72.240862	0.000465	4.647576	1.574642	0.037105
1825	9.1200e-01	-7.0522	-72.103737	0.000344	3.435165	1.163865	0.027425
1826	9.1250e-01	-7.0153	-71.631864	0.001182	11.821010	4.005067	0.094375
1827	9.1300e-01	-6.9848	-71.325349	0.000768	7.678605	2.601582	0.061303
1828	9.1350e-01	-6.9335	-71.006734	0.000798	7.981707	2.704276	0.063723
1829	9.1400e-01	-6.8998	-70.801046	0.000515	5.152748	1.745798	0.041138
1830	9.1450e-01	-6.8693	-70.663921	0.000344	3.435165	1.163865	0.027425
1831	9.1500e-01	-6.8052	-70.268677	0.000990	9.901359	3.354671	0.079049
1832	9.1550e-01	-6.7811	-70.119452	0.000374	3.738268	1.266559	0.029845
1833	9.1600e-01	-6.7362	-69.861334	0.000647	6.466193	2.190806	0.051624
1834	9.1650e-01	-6.6993	-69.736308	0.000313	3.132062	1.061171	0.025005
1835	9.1700e-01	-6.6592	-69.373329	0.000909	9.093084	3.080820	0.072596
1836	9.1750e-01	-6.6191	-68.953887	0.001051	10.507564	3.560059	0.083888
1837	9.1800e-01	-6.5822	-68.651404	0.000758	7.577570	2.567350	0.060496
1838	9.1850e-01	-6.5372	-68.461849	0.000475	4.748611	1.608873	0.037911
1839	9.1900e-01	-6.5020	-68.231962	0.000576	5.758953	1.951186	0.045977
1840	9.1950e-01	-6.4554	-67.848818	0.000960	9.598256	3.251977	0.076629
1841	9.2000e-01	-6.4201	-67.715726	0.000333	3.334131	1.129634	0.026618
1842	9.2050e-01	-6.3784	-67.405177	0.000778	7.779639	2.635813	0.062110
1843	9.2100e-01	-6.3463	-67.231754	0.000434	4.344474	1.471948	0.034685
1844	9.2150e-01	-6.2982	-66.969602	0.000657	6.567228	2.225037	0.052430
1845	9.2200e-01	-6.2645	-66.735683	0.000586	5.859988	1.985418	0.046784
1846	9.2250e-01	-6.2180	-66.356571	0.000950	9.497221	3.217746	0.075822
1847	9.2300e-01	-6.1731	-66.154916	0.000505	5.051714	1.711567	0.040331
1848	9.2350e-01	-6.1346	-65.925030	0.000576	5.758953	1.951186	0.045977
1849	9.2400e-01	-6.1041	-65.683044	0.000606	6.062056	2.053880	0.048397
1850	9.2450e-01	-6.0560	-65.364429	0.000798	7.981707	2.704276	0.063723
1851	9.2500e-01	-6.0223	-65.078079	0.000717	7.173433	2.430425	0.057270
1852	9.2550e-01	-5.9774	-64.844159	0.000586	5.859988	1.985418	0.046784
1853	9.2600e-01	-5.9357	-64.501346	0.000859	8.587913	2.909664	0.068563
1854	9.2650e-01	-5.9052	-64.154499	0.000869	8.688947	2.943895	0.069369
1855	9.2700e-01	-5.8587	-63.912514	0.000606	6.062056	2.053880	0.048397
1856	9.2750e-01	-5.8250	-63.702792	0.000525	5.253782	1.780030	0.041944
1857	9.2800e-01	-5.7752	-63.380145	0.000808	8.082742	2.738507	0.064530
1858	9.2850e-01	-5.7432	-63.033298	0.000869	8.688947	2.943895	0.069369
1859	9.2900e-01	-5.7030	-62.839709	0.000485	4.849645	1.643104	0.038718
1860	9.2950e-01	-5.6549	-62.617889	0.000556	5.556885	1.882724	0.044364
1861	9.3000e-01	-5.6164	-62.299274	0.000798	7.981707	2.704276	0.063723
1862	9.3050e-01	-5.5715	-62.190380	0.000273	2.727925	0.924246	0.021779
1863	9.3100e-01	-5.5362	-61.867733	0.000808	8.082742	2.738507	0.064530
1864	9.3150e-01	-5.5073	-61.581383	0.000717	7.173433	2.430425	0.057270
1865	9.3200e-01	-5.4624	-61.307132	0.000687	6.870330	2.327731	0.054850
1866	9.3250e-01	-5.4191	-60.988517	0.000798	7.981707	2.704276	0.063723
1867	9.3300e-01	-5.3886	-60.669902	0.000798	7.981707	2.704276	0.063723
1868	9.3350e-01	-5.3357	-60.395652	0.000687	6.870330	2.327731	0.054850
1869	9.3400e-01	-5.3084	-60.149633	0.000616	6.163091	2.088112	0.049204
1870	9.3450e-01	-5.2635	-59.871349	0.000697	6.971365	2.361962	0.055657
1871	9.3500e-01	-5.2202	-59.568866	0.000758	7.577570	2.567350	0.060496
1872	9.3550e-01	-5.1833	-59.326880	0.000606	6.062056	2.053880	0.048397
1873	9.3600e-01	-5.1384	-59.060696	0.000667	6.668262	2.259268	0.053237
1874	9.3650e-01	-5.0966	-58.794511	0.000667	6.668262	2.259268	0.053237
1875	9.3700e-01	-5.0598	-58.524294	0.000677	6.769296	2.293500	0.054044
1876	9.3750e-01	-5.0084	-58.294407	0.000576	5.758953	1.951186	0.045977
1877	9.3800e-01	-4.9811	-57.947561	0.000869	8.688947	2.943895	0.069369
1878	9.3850e-01	-4.9410	-57.624913	0.000808	8.082742	2.738507	0.064530
1879	9.3900e-01	-4.9025	-57.423258	0.000505	5.051714	1.711567	0.040331
1880	9.3950e-01	-4.8528	-57.173206	0.000626	6.264125	2.122343	0.050010
1881	9.4000e-01	-4.8239	-56.781995	0.000980	9.800324	3.320440	0.078242
1882	9.4050e-01	-4.7726	-56.596473	0.000465	4.647576	1.574642	0.037105
1883	9.4100e-01	-4.7469	-56.189130	0.001020	10.204461	3.457365	0.081469
1884	9.4150e-01	-4.7020	-55.902780	0.000717	7.173433	2.430425	0.057270
1885	9.4200e-01	-4.6667	-55.781787	0.000303	3.031028	1.026940	0.024199
1886	9.4250e-01	-4.6202	-55.463172	0.000798	7.981707	2.704276	0.063723
1887	9.4300e-01	-4.5673	-55.184888	0.000697	6.971365	2.361962	0.055657
1888	9.4350e-01	-4.5287	-54.870306	0.000788	7.880673	2.670044	0.062916
1889	9.4400e-01	-4.5015	-54.644453	0.000566	5.657919	1.916955	0.045171
1890	9.4450e-01	-4.4598	-54.426666	0.000546	5.455851	1.848492	0.043557
1891	9.4500e-01	-4.4213	-54.035455	0.000980	9.800324	3.320440	0.078242
1892	9.4550e-01	-4.3844	-53.749105	0.000717	7.173433	2.430425	0.057270
1893	9.4600e-01	-4.3314	-53.551483	0.000495	4.950679	1.677336	0.039524
1894	9.4650e-01	-4.3042	-53.184471	0.000919	9.194119	3.115052	0.073402
1895	9.4700e-01	-4.2624	-52.934419	0.000626	6.264125	2.122343	0.050010
1896	9.4750e-01	-4.2191	-52.716632	0.000546	5.455851	1.848492	0.043557
1897	9.4800e-01	-4.1806	-52.446414	0.000677	6.769296	2.293500	0.054044
1898	9.4850e-01	-4.1293	-52.160064	0.000717	7.173433	2.430425	0.057270
1899	9.4900e-01	-4.1068	-51.821284	0.000849	8.486879	2.875432	0.067756
1900	9.4950e-01	-4.0571	-51.478471	0.000859	8.587913	2.909664	0.068563
1901	9.5000e-01	-4.0186	-51.329246	0.000374	3.738268	1.266559	0.029845
1902	9.5050e-01	-3.9785	-50.929969	0.001000	10.002393	3.388902	0.079855
1903	9.5100e-01	-3.9448	-50.704116	0.000566	5.657919	1.916955	0.045171
1904	9.5150e-01	-3.8999	-50.325004	0.000950	9.497221	3.217746	0.075822
1905	9.5200e-01	-3.8486	-50.139482	0.000465	4.647576	1.574642	0.037105
1906	9.5250e-01	-3.8213	-49.756337	0.000960	9.598256	3.251977	0.076629
1907	9.5300e-01	-3.7748	-49.538550	0.000546	5.455851	1.848492	0.043557
1908	9.5350e-01	-3.7363	-49.316730	0.000556	5.556885	1.882724	0.044364
1909	9.5400e-01	-3.6962	-49.006181	0.000778	7.779639	2.635813	0.062110
1910	9.5450e-01	-3.6593	-48.703699	0.000758	7.577570	2.567350	0.060496
1911	9.5500e-01	-3.6143	-48.489944	0.000535	5.354816	1.814261	0.042751
1912	9.5550e-01	-3.5790	-48.211661	0.000697	6.971365	2.361962	0.055657
1913	9.5600e-01	-3.5373	-47.848682	0.000909	9.093084	3.080820	0.072596
1914	9.5650e-01	-3.5069	-47.570398	0.000697	6.971365	2.361962	0.055657
1915	9.5700e-01	-3.4635	-47.223552	0.000869	8.688947	2.943895	0.069369
1916	9.5750e-01	-3.4202	-46.997698	0.000566	5.657919	1.916955	0.045171
1917	9.5800e-01	-3.3721	-46.751679	0.000616	6.163091	2.088112	0.049204
1918	9.5850e-01	-3.3368	-46.461296	0.000727	7.274468	2.464656	0.058077
1919	9.5900e-01	-3.2967	-46.174946	0.000717	7.173433	2.430425	0.057270
1920	9.5950e-01	-3.2550	-45.941026	0.000586	5.859988	1.985418	0.046784
1921	9.6000e-01	-3.2261	-45.618378	0.000808	8.082742	2.738507	0.064530
1922	9.6050e-01	-3.1812	-45.287664	0.000828	8.284810	2.806970	0.066143
1923	9.6100e-01	-3.1347	-44.985182	0.000758	7.577570	2.567350	0.060496
1924	9.6150e-01	-3.1010	-44.674633	0.000778	7.779639	2.635813	0.062110
1925	9.6200e-01	-3.0545	-44.376184	0.000748	7.476536	2.533119	0.059690
1926	9.6250e-01	-3.0240	-44.230992	0.000364	3.637234	1.232328	0.029038
1927	9.6300e-01	-2.9855	-43.839782	0.000980	9.800324	3.320440	0.078242
1928	9.6350e-01	-2.9309	-43.529233	0.000778	7.779639	2.635813	0.062110
1929	9.6400e-01	-2.9037	-43.287247	0.000606	6.062056	2.053880	0.048397
1930	9.6450e-01	-2.8620	-43.008963	0.000697	6.971365	2.361962	0.055657
1931	9.6500e-01	-2.8218	-42.633885	0.000940	9.396187	3.183514	0.075016
1932	9.6550e-01	-2.7769	-42.214443	0.001051	10.507564	3.560059	0.083888
1933	9.6600e-01	-2.7368	-42.097483	0.000293	2.929994	0.992709	0.023392
1934	9.6650e-01	-2.6999	-41.819199	0.000697	6.971365	2.361962	0.055657
1935	9.6700e-01	-2.6566	-41.407823	0.001031	10.305496	3.491596	0.082275
1936	9.6750e-01	-2.6261	-41.226334	0.000455	4.546542	1.540410	0.036298
1937	9.6800e-01	-2.5732	-40.919818	0.000768	7.678605	2.601582	0.061303
1938	9.6850e-01	-2.5411	-40.681866	0.000596	5.961022	2.019649	0.047591
1939	9.6900e-01	-2.4994	-40.431813	0.000626	6.264125	2.122343	0.050010
1940	9.6950e-01	-2.4609	-40.012371	0.001051	10.507564	3.560059	0.083888
1941	9.7000e-01	-2.4176	-39.746187	0.000667	6.668262	2.259268	0.053237
1942	9.7050e-01	-2.3839	-39.443704	0.000758	7.577570	2.567350	0.060496
1943	9.7100e-01	-2.3502	-39.141222	0.000758	7.577570	2.567350	0.060496
1944	9.7150e-01	-2.2957	-38.858905	0.000707	7.072399	2.396194	0.056463
1945	9.7200e-01	-2.2588	-38.612886	0.000616	6.163091	2.088112	0.049204
1946	9.7250e-01	-2.2203	-38.302337	0.000778	7.779639	2.635813	0.062110
1947	9.7300e-01	-2.1818	-38.003888	0.000748	7.476536	2.533119	0.059690
1948	9.7350e-01	-2.1400	-37.632843	0.000930	9.295153	3.149283	0.074209
1949	9.7400e-01	-2.0951	-37.346493	0.000717	7.173433	2.430425	0.057270
1950	9.7450e-01	-2.0502	-37.056110	0.000727	7.274468	2.464656	0.058077
1951	9.7500e-01	-2.0117	-36.918985	0.000344	3.435165	1.163865	0.027425
1952	9.7550e-01	-1.9796	-36.592304	0.000818	8.183776	2.772738	0.065336
1953	9.7600e-01	-1.9395	-36.213192	0.000950	9.497221	3.217746	0.075822
1954	9.7650e-01	-1.9010	-35.902644	0.000778	7.779639	2.635813	0.062110
1955	9.7700e-01	-1.8561	-35.709055	0.000485	4.849645	1.643104	0.038718
1956	9.7750e-01	-1.8192	-35.422705	0.000717	7.173433	2.430425	0.057270
1957	9.7800e-01	-1.7823	-35.100057	0.000808	8.082742	2.738507	0.064530
1958	9.7850e-01	-1.7406	-34.733045	0.000919	9.194119	3.115052	0.073402
1959	9.7900e-01	-1.6941	-34.519291	0.000535	5.354816	1.814261	0.042751
1960	9.7950e-01	-1.6652	-34.172444	0.000869	8.688947	2.943895	0.069369
1961	9.8000e-01	-1.6187	-33.781234	0.000980	9.800324	3.320440	0.078242
1962	9.8050e-01	-1.5738	-33.615877	0.000414	4.142405	1.403485	0.033071
1963	9.8100e-01	-1.5417	-33.321461	0.000738	7.375502	2.498888	0.058883
1964	9.8150e-01	-1.5016	-33.002846	0.000798	7.981707	2.704276	0.063723
1965	9.8200e-01	-1.4663	-32.776992	0.000566	5.657919	1.916955	0.045171
1966	9.8250e-01	-1.4133	-32.325285	0.001132	11.315838	3.833910	0.090341
1967	9.8300e-01	-1.3780	-32.167994	0.000394	3.940337	1.335022	0.031458
1968	9.8350e-01	-1.3283	-31.905843	0.000657	6.567228	2.225037	0.052430
1969	9.8400e-01	-1.3074	-31.595294	0.000778	7.779639	2.635813	0.062110
1970	9.8450e-01	-1.2561	-31.171819	0.001061	10.608598	3.594290	0.084695
1971	9.8500e-01	-1.2128	-30.857237	0.000788	7.880673	2.670044	0.062916
1972	9.8550e-01	-1.1839	-30.623318	0.000586	5.859988	1.985418	0.046784
1973	9.8600e-01	-1.1406	-30.292604	0.000828	8.284810	2.806970	0.066143
1974	9.8650e-01	-1.1037	-29.998187	0.000738	7.375502	2.498888	0.058883
1975	9.8700e-01	-1.0652	-29.667473	0.000828	8.284810	2.806970	0.066143
1976	9.8750e-01	-1.0091	-29.469851	0.000495	4.950679	1.677336	0.039524
1977	9.8800e-01	-0.9786	-29.179468	0.000727	7.274468	2.464656	0.058077
1978	9.8850e-01	-0.9433	-28.872953	0.000768	7.678605	2.601582	0.061303
1979	9.8900e-01	-0.8920	-28.461577	0.001031	10.305496	3.491596	0.082275
1980	9.8950e-01	-0.8679	-28.215558	0.000616	6.163091	2.088112	0.049204
1981	9.9000e-01	-0.8262	-27.864678	0.000879	8.789982	2.978126	0.070176
1982	9.9050e-01	-0.7716	-27.634792	0.000576	5.758953	1.951186	0.045977
1983	9.9100e-01	-0.7412	-27.328276	0.000768	7.678605	2.601582	0.061303
1984	9.9150e-01	-0.7027	-27.130654	0.000495	4.950679	1.677336	0.039524
1985	9.9200e-01	-0.6690	-26.703146	0.001071	10.709633	3.628522	0.085502
1986	9.9250e-01	-0.6112	-26.461160	0.000606	6.062056	2.053880	0.048397
1987	9.9300e-01	-0.5855	-26.199009	0.000657	6.567228	2.225037	0.052430
1988	9.9350e-01	-0.5535	-25.864261	0.000839	8.385844	2.841201	0.066949
1989	9.9400e-01	-0.5037	-25.549680	0.000788	7.880673	2.670044	0.062916
1990	9.9450e-01	-0.4604	-25.271396	0.000697	6.971365	2.361962	0.055657
1991	9.9500e-01	-0.4123	-24.956814	0.000788	7.880673	2.670044	0.062916
1992	9.9550e-01	-0.3802	-24.626100	0.000828	8.284810	2.806970	0.066143
1993	9.9600e-01	-0.3433	-24.255055	0.000930	9.295153	3.149283	0.074209
1994	9.9650e-01	-0.2968	-23.932407	0.000808	8.082742	2.738507	0.064530
1995	9.9700e-01	-0.2599	-23.726719	0.000515	5.152748	1.745798	0.041138
1996	9.9750e-01	-0.2198	-23.440369	0.000717	7.173433	2.430425	0.057270
1997	9.9800e-01	-0.1781	-23.133854	0.000768	7.678605	2.601582	0.061303
1998	9.9850e-01	-0.1380	-22.831371	0.000758	7.577570	2.567350	0.060496
1999	9.9900e-01	-0.0963	-22.661981	0.000424	4.243439	1.437716	0.033878
2000	9.9950e-01	-0.0561	-22.169943	0.001233	12.326181	4.176223	0.098408
2001	1.0000e+00	-0.0176	-21.956189	0.001233	12.326181	4.176223	0.042751

PMax (uC/cm2):	1.48e+02
Pr (uC/cm2):	1.42e+01
-Pr (uC/cm2):	-1.29e+01
PLoss (uC/cm2):	-1.29e+01
-Vc:	-1.82e+00
C (Max-Eff) (nF):	7.41e-01
K (Eff):	2.51e+03
Vert. (+/-Pr) Shift (uC/cm2):	6.27e-01
Offset (uC/cm2):	9.02e+00

A (Loop Area - uC/cm2·Volts):	-1.29e-01



Hysteresis Version: 5.48.1 - Radiant Technologies, Inc., 1999 - 9/12/24

