»»»»»»»»»»»»»»»»»»»»»»»»»»»»»»»»»»»» Hysteresis ««««««««««««««««««««««««««««««««««««
»»»  Executed Version:	5.48.1
»»»  Vision Version:	5.48.4 (R)
»»»  Vision Compiled:	9/18/24
»»»  Driver Version:	5.47.0
»»»  Windows Version:	Windows 8 or 8.1
»»»  Processor Information:	x86 (AMD or Intel) - 32 Processors
»»»  Tester Name:	PMF21124-494 (100V)
»»»  Tester S/N:	PMF21124-494
»»»  Internal Amp Type:	100V RevK 270k
»»»  Internal Amp S/N:	iAB2-596/K     
»»»  Execution Count:	1
»»»»»»»»»»»»»»»»»»»»»»»»»»»»»»»»»»»»»»»»»»««««««««««««««««««««««««««««««««««««««««««

Stored:	6/18/2025 - 16:49:54
Configured:	06/18/25 09:47:30 AM
Executed:	06/18/25 04:49:20 PM

»»»»»»»»»»»»»»»»»»»»»»»»»»»»»»»»»»» Sample Info ««««««««««««««««««««««««««««««««««««
Sample Name:	
Lot Name:	
Wafer Name:	
Die Row/Column:	0/0
Capacitor Number:	0
Sample Area (cm2):	1.00e-04
Sample Thickness (microns):	3.00e-01

Amplifier:	Internal

»»»»»»»»»»»»»»»»»»»»»»»»»»»»»»»»»»» Tester Info «««««««««««««««««««««««««««««««««««
Tester Name:	PMF21124-494 (100V)
Tester Serial Number:	PMF21124-494
Return Signal Amp. Level:	0.19 [Index: 3]

»»»»»»»»»»»»»»»»»»»»»»»»»»»»»»»» Hysteresis Info ««««««««««««««««««««««««««««««««««
Task Name:	Hyst-554
Volts:	20.00
Field:	666.67 (kV/cm)
DCBias:	0.00
DCField:	0.00 (kV/cm)
Hysteresis Period (ms):	2.00e+02
Preset:	Enabled
Preset Delay (ms):	1.00e+03
Profile:	Standard Bipolar

»»»»»»»»»»»»»»»»»»»»»»»»»»»»»»»»»»»»»» Data «««««««««««««««««««««««««««««««««««««««
Points:	2009

Valid Data

Point	Time (ms)	Drive Voltage	Measured Polarization (uC/cm2)	Capacitance (uF)	Normalized Capacitance (uF/cm2)	Dielectric Constant	Instantaneous Current (mA)
   1	0.0000e+00	0.0064	-12.139667	0.000466	4.663715	1.580110	0.000187
   2	9.9500e-02	0.0353	-11.953959	0.000466	4.663715	1.580110	0.000187
   3	1.9900e-01	0.0706	-11.675397	0.000700	6.995573	2.370164	0.000280
   4	2.9850e-01	0.1171	-11.388760	0.000720	7.198343	2.438865	0.000288
   5	3.9800e-01	0.1540	-11.130383	0.000649	6.488648	2.198413	0.000260
   6	4.9750e-01	0.1989	-10.855858	0.000689	6.894188	2.335814	0.000276
   7	5.9700e-01	0.2326	-10.532887	0.000811	8.110809	2.748017	0.000325
   8	6.9650e-01	0.2775	-10.222028	0.000781	7.806654	2.644966	0.000312
   9	7.9600e-01	0.3096	-9.959614	0.000659	6.590033	2.232764	0.000264
  10	8.9550e-01	0.3642	-9.644717	0.000791	7.908039	2.679316	0.000316
  11	9.9500e-01	0.3914	-9.398452	0.000618	6.184492	2.095363	0.000248
  12	1.0945e+00	0.4428	-9.067407	0.000831	8.313580	2.816717	0.000333
  13	1.1940e+00	0.4732	-8.728287	0.000852	8.516350	2.885417	0.000341
  14	1.2935e+00	0.5085	-8.465874	0.000659	6.590033	2.232764	0.000264
  15	1.3930e+00	0.5519	-8.130791	0.000841	8.414965	2.851067	0.000337
  16	1.4925e+00	0.5936	-7.848192	0.000710	7.096958	2.404515	0.000284
  17	1.5920e+00	0.6353	-7.525221	0.000811	8.110809	2.748017	0.000325
  18	1.6915e+00	0.6722	-7.198213	0.000821	8.212195	2.782367	0.000329
  19	1.7910e+00	0.7139	-6.943873	0.000639	6.387262	2.164063	0.000256
  20	1.8905e+00	0.7524	-6.637051	0.000771	7.705269	2.610616	0.000308
  21	1.9900e+00	0.8005	-6.310043	0.000821	8.212195	2.782367	0.000329
  22	2.0895e+00	0.8310	-6.011295	0.000750	7.502499	2.541915	0.000300
  23	2.1890e+00	0.8759	-5.704473	0.000771	7.705269	2.610616	0.000308
  24	2.2885e+00	0.9096	-5.377465	0.000821	8.212195	2.782367	0.000329
  25	2.3880e+00	0.9465	-5.066605	0.000781	7.806654	2.644966	0.000312
  26	2.4875e+00	0.9994	-4.751709	0.000791	7.908039	2.679316	0.000316
  27	2.5870e+00	1.0315	-4.440849	0.000781	7.806654	2.644966	0.000312
  28	2.6865e+00	1.0716	-4.134027	0.000771	7.705269	2.610616	0.000308
  29	2.7860e+00	1.1101	-3.778759	0.000892	8.921890	3.022818	0.000357
  30	2.8855e+00	1.1567	-3.484048	0.000740	7.401114	2.507565	0.000296
  31	2.9850e+00	1.1935	-3.173189	0.000781	7.806654	2.644966	0.000312
  32	3.0845e+00	1.2353	-2.850218	0.000811	8.110809	2.748017	0.000325
  33	3.1840e+00	1.2657	-2.503024	0.000872	8.719120	2.954118	0.000349
  34	3.2835e+00	1.3091	-2.176016	0.000821	8.212195	2.782367	0.000329
  35	3.3830e+00	1.3524	-1.844971	0.000831	8.313580	2.816717	0.000333
  36	3.4825e+00	1.3925	-1.538149	0.000771	7.705269	2.610616	0.000308
  37	3.5820e+00	1.4358	-1.231326	0.000771	7.705269	2.610616	0.000308
  38	3.6815e+00	1.4647	-0.924504	0.000771	7.705269	2.610616	0.000308
  39	3.7810e+00	1.5176	-0.577310	0.000872	8.719120	2.954118	0.000349
  40	3.8805e+00	1.5657	-0.234154	0.000862	8.617735	2.919768	0.000345
  41	3.9800e+00	1.5946	0.044408	0.000700	6.995573	2.370164	0.000280
  42	4.0795e+00	1.6315	0.395639	0.000882	8.820505	2.988468	0.000353
  43	4.1790e+00	1.6668	0.758982	0.000912	9.124661	3.091519	0.000365
  44	4.2785e+00	1.7069	1.073878	0.000791	7.908039	2.679316	0.000316
  45	4.3780e+00	1.7550	1.417035	0.000862	8.617735	2.919768	0.000345
  46	4.4775e+00	1.7855	1.703671	0.000720	7.198343	2.438865	0.000288
  47	4.5770e+00	1.8368	2.067013	0.000912	9.124661	3.091519	0.000365
  48	4.6765e+00	1.8705	2.389984	0.000811	8.110809	2.748017	0.000325
  49	4.7760e+00	1.9106	2.716992	0.000821	8.212195	2.782367	0.000329
  50	4.8755e+00	1.9507	3.027852	0.000781	7.806654	2.644966	0.000312
  51	4.9750e+00	1.9828	3.379083	0.000882	8.820505	2.988468	0.000353
  52	5.0745e+00	2.0358	3.754536	0.000943	9.428816	3.194569	0.000377
  53	5.1740e+00	2.0743	4.077507	0.000811	8.110809	2.748017	0.000325
  54	5.2735e+00	2.1176	4.376255	0.000750	7.502499	2.541915	0.000300
  55	5.3730e+00	2.1561	4.691152	0.000791	7.908039	2.679316	0.000316
  56	5.4725e+00	2.1769	5.022197	0.000831	8.313580	2.816717	0.000333
  57	5.5720e+00	2.2251	5.377465	0.000892	8.921890	3.022818	0.000357
  58	5.6715e+00	2.2732	5.728696	0.000882	8.820505	2.988468	0.000353
  59	5.7710e+00	2.3005	6.031481	0.000760	7.603884	2.576266	0.000304
  60	5.8705e+00	2.3454	6.346377	0.000791	7.908039	2.679316	0.000316
  61	5.9700e+00	2.3871	6.733942	0.000973	9.732971	3.297620	0.000390
  62	6.0695e+00	2.4272	7.101322	0.000923	9.226046	3.125869	0.000369
  63	6.1690e+00	2.4657	7.412181	0.000781	7.806654	2.644966	0.000312
  64	6.2685e+00	2.5090	7.735152	0.000811	8.110809	2.748017	0.000325
  65	6.3680e+00	2.5475	8.106569	0.000933	9.327431	3.160219	0.000373
  66	6.4675e+00	2.5860	8.437614	0.000831	8.313580	2.816717	0.000333
  67	6.5670e+00	2.6245	8.776733	0.000852	8.516350	2.885417	0.000341
  68	6.6665e+00	2.6678	9.127964	0.000882	8.820505	2.988468	0.000353
  69	6.7660e+00	2.7079	9.507455	0.000953	9.530201	3.228920	0.000381
  70	6.8655e+00	2.7432	9.862723	0.000892	8.921890	3.022818	0.000357
  71	6.9650e+00	2.7914	10.197805	0.000841	8.414965	2.851067	0.000337
  72	7.0645e+00	2.8170	10.488479	0.000730	7.299728	2.473215	0.000292
  73	7.1640e+00	2.8571	10.851821	0.000912	9.124661	3.091519	0.000365
  74	7.2635e+00	2.9133	11.194977	0.000862	8.617735	2.919768	0.000345
  75	7.3630e+00	2.9438	11.517948	0.000811	8.110809	2.748017	0.000325
  76	7.4625e+00	2.9903	11.897439	0.000953	9.530201	3.228920	0.000381
  77	7.5620e+00	3.0160	12.240596	0.000862	8.617735	2.919768	0.000345
  78	7.6615e+00	3.0673	12.616049	0.000943	9.428816	3.194569	0.000377
  79	7.7610e+00	3.1058	12.955169	0.000852	8.516350	2.885417	0.000341
  80	7.8605e+00	3.1475	13.318511	0.000912	9.124661	3.091519	0.000365
  81	7.9600e+00	3.1844	13.657630	0.000852	8.516350	2.885417	0.000341
  82	8.0595e+00	3.2229	14.041158	0.000963	9.631586	3.263270	0.000385
  83	8.1590e+00	3.2598	14.356055	0.000791	7.908039	2.679316	0.000316
  84	8.2585e+00	3.2935	14.719397	0.000912	9.124661	3.091519	0.000365
  85	8.3580e+00	3.3416	15.070628	0.000882	8.820505	2.988468	0.000353
  86	8.4575e+00	3.3849	15.442044	0.000933	9.327431	3.160219	0.000373
  87	8.5570e+00	3.4266	15.833646	0.000983	9.834356	3.331970	0.000394
  88	8.6565e+00	3.4571	16.164691	0.000831	8.313580	2.816717	0.000333
  89	8.7560e+00	3.5052	16.519959	0.000892	8.921890	3.022818	0.000357
  90	8.8555e+00	3.5502	16.846967	0.000821	8.212195	2.782367	0.000329
  91	8.9550e+00	3.5839	17.246644	0.001004	10.037127	3.400671	0.000402
  92	9.0545e+00	3.6240	17.553466	0.000771	7.705269	2.610616	0.000308
  93	9.1540e+00	3.6625	17.928920	0.000943	9.428816	3.194569	0.000377
  94	9.2535e+00	3.7010	18.259965	0.000831	8.313580	2.816717	0.000333
  95	9.3530e+00	3.7314	18.639456	0.000953	9.530201	3.228920	0.000381
  96	9.4525e+00	3.7812	19.002798	0.000912	9.124661	3.091519	0.000365
  97	9.5520e+00	3.8213	19.390363	0.000973	9.732971	3.297620	0.000390
  98	9.6515e+00	3.8630	19.709297	0.000801	8.009424	2.713666	0.000321
  99	9.7510e+00	3.9015	20.100899	0.000983	9.834356	3.331970	0.000394
 100	9.8505e+00	3.9416	20.468278	0.000923	9.226046	3.125869	0.000369
 101	9.9500e+00	3.9753	20.819509	0.000882	8.820505	2.988468	0.000353
 102	1.0050e+01	4.0154	21.199000	0.000953	9.530201	3.228920	0.000381
 103	1.0149e+01	4.0539	21.554268	0.000892	8.921890	3.022818	0.000357
 104	1.0248e+01	4.0956	21.957981	0.001014	10.138512	3.435021	0.000406
 105	1.0348e+01	4.1485	22.301138	0.000862	8.617735	2.919768	0.000345
 106	1.0447e+01	4.1774	22.664480	0.000912	9.124661	3.091519	0.000365
 107	1.0547e+01	4.2143	22.983414	0.000801	8.009424	2.713666	0.000321
 108	1.0646e+01	4.2657	23.379053	0.000994	9.935742	3.366320	0.000398
 109	1.0746e+01	4.3009	23.766618	0.000973	9.732971	3.297620	0.000390
 110	1.0845e+01	4.3378	24.105737	0.000852	8.516350	2.885417	0.000341
 111	1.0945e+01	4.3812	24.497340	0.000983	9.834356	3.331970	0.000394
 112	1.1044e+01	4.4213	24.836459	0.000852	8.516350	2.885417	0.000341
 113	1.1144e+01	4.4630	25.228061	0.000983	9.834356	3.331970	0.000394
 114	1.1243e+01	4.4983	25.583329	0.000892	8.921890	3.022818	0.000357
 115	1.1343e+01	4.5464	25.954746	0.000933	9.327431	3.160219	0.000373
 116	1.1443e+01	4.5865	26.338274	0.000963	9.631586	3.263270	0.000385
 117	1.1542e+01	4.6106	26.689504	0.000882	8.820505	2.988468	0.000353
 118	1.1642e+01	4.6571	27.056884	0.000923	9.226046	3.125869	0.000369
 119	1.1741e+01	4.6956	27.396003	0.000852	8.516350	2.885417	0.000341
 120	1.1841e+01	4.7389	27.767420	0.000933	9.327431	3.160219	0.000373
 121	1.1940e+01	4.7774	28.187282	0.001054	10.544052	3.572422	0.000422
 122	1.2040e+01	4.8207	28.595032	0.001024	10.239897	3.469371	0.000410
 123	1.2139e+01	4.8624	28.909929	0.000791	7.908039	2.679316	0.000316
 124	1.2239e+01	4.9009	29.265197	0.000892	8.921890	3.022818	0.000357
 125	1.2338e+01	4.9330	29.608354	0.000862	8.617735	2.919768	0.000345
 126	1.2438e+01	4.9811	29.995919	0.000973	9.732971	3.297620	0.000390
 127	1.2537e+01	5.0116	30.351186	0.000892	8.921890	3.022818	0.000357
 128	1.2636e+01	5.0678	30.738752	0.000973	9.732971	3.297620	0.000390
 129	1.2736e+01	5.0918	31.138428	0.001004	10.037127	3.400671	0.000402
 130	1.2835e+01	5.1400	31.465436	0.000821	8.212195	2.782367	0.000329
 131	1.2935e+01	5.1753	31.861075	0.000994	9.935742	3.366320	0.000398
 132	1.3034e+01	5.2234	32.220380	0.000902	9.023276	3.057168	0.000361
 133	1.3134e+01	5.2683	32.603908	0.000963	9.631586	3.263270	0.000385
 134	1.3233e+01	5.2972	32.934953	0.000831	8.313580	2.816717	0.000333
 135	1.3333e+01	5.3309	33.379038	0.001115	11.152363	3.778523	0.000446
 136	1.3432e+01	5.3774	33.726232	0.000872	8.719120	2.954118	0.000349
 137	1.3532e+01	5.4079	34.138020	0.001034	10.341282	3.503721	0.000414
 138	1.3632e+01	5.4624	34.501362	0.000912	9.124661	3.091519	0.000365
 139	1.3731e+01	5.4993	34.897001	0.000994	9.935742	3.366320	0.000398
 140	1.3831e+01	5.5298	35.228046	0.000831	8.313580	2.816717	0.000333
 141	1.3930e+01	5.5731	35.635797	0.001024	10.239897	3.469371	0.000410
 142	1.4030e+01	5.6036	36.003177	0.000923	9.226046	3.125869	0.000369
 143	1.4129e+01	5.6597	36.346333	0.000862	8.617735	2.919768	0.000345
 144	1.4229e+01	5.6934	36.741972	0.000994	9.935742	3.366320	0.000398
 145	1.4328e+01	5.7335	37.133575	0.000983	9.834356	3.331970	0.000394
 146	1.4428e+01	5.7784	37.521140	0.000973	9.732971	3.297620	0.000390
 147	1.4527e+01	5.8186	37.852185	0.000831	8.313580	2.816717	0.000333
 148	1.4627e+01	5.8522	38.243787	0.000983	9.834356	3.331970	0.000394
 149	1.4726e+01	5.8956	38.659612	0.001044	10.442667	3.538071	0.000418
 150	1.4825e+01	5.9405	39.014880	0.000892	8.921890	3.022818	0.000357
 151	1.4925e+01	5.9710	39.370148	0.000892	8.921890	3.022818	0.000357
 152	1.5024e+01	6.0175	39.753676	0.000963	9.631586	3.263270	0.000385
 153	1.5124e+01	6.0592	40.104906	0.000882	8.820505	2.988468	0.000353
 154	1.5223e+01	6.0913	40.516694	0.001034	10.341282	3.503721	0.000414
 155	1.5323e+01	6.1282	40.908296	0.000983	9.834356	3.331970	0.000394
 156	1.5422e+01	6.1763	41.271639	0.000912	9.124661	3.091519	0.000365
 157	1.5522e+01	6.2148	41.655167	0.000963	9.631586	3.263270	0.000385
 158	1.5621e+01	6.2565	42.038694	0.000963	9.631586	3.263270	0.000385
 159	1.5721e+01	6.3030	42.377814	0.000852	8.516350	2.885417	0.000341
 160	1.5820e+01	6.3319	42.733082	0.000892	8.921890	3.022818	0.000357
 161	1.5920e+01	6.3656	43.165055	0.001085	10.848208	3.675472	0.000434
 162	1.6020e+01	6.4169	43.492063	0.000821	8.212195	2.782367	0.000329
 163	1.6119e+01	6.4506	43.907888	0.001044	10.442667	3.538071	0.000418
 164	1.6218e+01	6.4747	44.198562	0.000730	7.299728	2.473215	0.000292
 165	1.6318e+01	6.5340	44.634573	0.001095	10.949593	3.709822	0.000438
 166	1.6418e+01	6.5693	45.005989	0.000933	9.327431	3.160219	0.000373
 167	1.6517e+01	6.6014	45.413740	0.001024	10.239897	3.469371	0.000410
 168	1.6616e+01	6.6479	45.712488	0.000750	7.502499	2.541915	0.000300
 169	1.6716e+01	6.6832	46.132350	0.001054	10.544052	3.572422	0.000422
 170	1.6816e+01	6.7314	46.491655	0.000902	9.023276	3.057168	0.000361
 171	1.6915e+01	6.7699	46.818663	0.000821	8.212195	2.782367	0.000329
 172	1.7015e+01	6.8132	47.254674	0.001095	10.949593	3.709822	0.000438
 173	1.7114e+01	6.8404	47.646276	0.000983	9.834356	3.331970	0.000394
 174	1.7213e+01	6.8950	48.005581	0.000902	9.023276	3.057168	0.000361
 175	1.7313e+01	6.9287	48.425443	0.001054	10.544052	3.572422	0.000422
 176	1.7413e+01	6.9640	48.728228	0.000760	7.603884	2.576266	0.000304
 177	1.7512e+01	7.0089	49.135979	0.001024	10.239897	3.469371	0.000410
 178	1.7611e+01	7.0490	49.491247	0.000892	8.921890	3.022818	0.000357
 179	1.7711e+01	7.0811	49.850552	0.000902	9.023276	3.057168	0.000361
 180	1.7811e+01	7.1356	50.250229	0.001004	10.037127	3.400671	0.000402
 181	1.7910e+01	7.1597	50.637794	0.000973	9.732971	3.297620	0.000390
 182	1.8009e+01	7.2062	50.972876	0.000841	8.414965	2.851067	0.000337
 183	1.8109e+01	7.2511	51.376589	0.001014	10.138512	3.435021	0.000406
 184	1.8209e+01	7.2928	51.748006	0.000933	9.327431	3.160219	0.000373
 185	1.8308e+01	7.3265	52.123460	0.000943	9.428816	3.194569	0.000377
 186	1.8407e+01	7.3618	52.458542	0.000841	8.414965	2.851067	0.000337
 187	1.8507e+01	7.4019	52.874367	0.001044	10.442667	3.538071	0.000418
 188	1.8607e+01	7.4501	53.249820	0.000943	9.428816	3.194569	0.000377
 189	1.8706e+01	7.4837	53.613163	0.000912	9.124661	3.091519	0.000365
 190	1.8805e+01	7.5335	54.024950	0.001034	10.341282	3.503721	0.000414
 191	1.8905e+01	7.5688	54.343884	0.000801	8.009424	2.713666	0.000321
 192	1.9005e+01	7.6057	54.787969	0.001115	11.152363	3.778523	0.000446
 193	1.9104e+01	7.6426	55.187646	0.001004	10.037127	3.400671	0.000402
 194	1.9203e+01	7.6923	55.522728	0.000841	8.414965	2.851067	0.000337
 195	1.9303e+01	7.7196	55.894144	0.000933	9.327431	3.160219	0.000373
 196	1.9402e+01	7.7709	56.261524	0.000923	9.226046	3.125869	0.000369
 197	1.9502e+01	7.7966	56.632940	0.000933	9.327431	3.160219	0.000373
 198	1.9602e+01	7.8495	57.024542	0.000983	9.834356	3.331970	0.000394
 199	1.9701e+01	7.8944	57.359625	0.000841	8.414965	2.851067	0.000337
 200	1.9800e+01	7.9185	57.731041	0.000933	9.327431	3.160219	0.000373
 201	1.9900e+01	7.9602	58.154940	0.001065	10.645437	3.606772	0.000426
 202	2.0000e+01	8.0035	58.502134	0.000872	8.719120	2.954118	0.000349
 203	2.0099e+01	8.0532	58.873550	0.000933	9.327431	3.160219	0.000373
 204	2.0198e+01	8.0789	59.224781	0.000882	8.820505	2.988468	0.000353
 205	2.0298e+01	8.1238	59.632532	0.001024	10.239897	3.469371	0.000410
 206	2.0398e+01	8.1607	59.999911	0.000923	9.226046	3.125869	0.000369
 207	2.0497e+01	8.2008	60.391514	0.000983	9.834356	3.331970	0.000394
 208	2.0596e+01	8.2522	60.734670	0.000862	8.617735	2.919768	0.000345
 209	2.0696e+01	8.2698	61.162606	0.001075	10.746823	3.641122	0.000430
 210	2.0796e+01	8.3292	61.566320	0.001014	10.138512	3.435021	0.000406
 211	2.0895e+01	8.3661	61.937736	0.000933	9.327431	3.160219	0.000373
 212	2.0994e+01	8.4126	62.284930	0.000872	8.719120	2.954118	0.000349
 213	2.1094e+01	8.4415	62.648272	0.000912	9.124661	3.091519	0.000365
 214	2.1194e+01	8.4800	63.019689	0.000933	9.327431	3.160219	0.000373
 215	2.1293e+01	8.5169	63.399180	0.000953	9.530201	3.228920	0.000381
 216	2.1392e+01	8.5682	63.782708	0.000963	9.631586	3.263270	0.000385
 217	2.1492e+01	8.6003	64.154124	0.000933	9.327431	3.160219	0.000373
 218	2.1591e+01	8.6404	64.505355	0.000882	8.820505	2.988468	0.000353
 219	2.1691e+01	8.6789	64.876771	0.000933	9.327431	3.160219	0.000373
 220	2.1791e+01	8.7222	65.236076	0.000902	9.023276	3.057168	0.000361
 221	2.1890e+01	8.7575	65.643827	0.001024	10.239897	3.469371	0.000410
 222	2.1989e+01	8.7960	65.978909	0.000841	8.414965	2.851067	0.000337
 223	2.2089e+01	8.8393	66.366474	0.000973	9.732971	3.297620	0.000390
 224	2.2189e+01	8.8826	66.766151	0.001004	10.037127	3.400671	0.000402
 225	2.2288e+01	8.9147	67.121419	0.000892	8.921890	3.022818	0.000357
 226	2.2387e+01	8.9596	67.513021	0.000983	9.834356	3.331970	0.000394
 227	2.2487e+01	9.0030	67.896549	0.000963	9.631586	3.263270	0.000385
 228	2.2587e+01	9.0382	68.296225	0.001004	10.037127	3.400671	0.000402
 229	2.2686e+01	9.0784	68.619196	0.000811	8.110809	2.748017	0.000325
 230	2.2785e+01	9.1217	68.982538	0.000912	9.124661	3.091519	0.000365
 231	2.2885e+01	9.1618	69.349918	0.000923	9.226046	3.125869	0.000369
 232	2.2985e+01	9.2083	69.725371	0.000943	9.428816	3.194569	0.000377
 233	2.3084e+01	9.2420	70.133122	0.001024	10.239897	3.469371	0.000410
 234	2.3183e+01	9.2773	70.460130	0.000821	8.212195	2.782367	0.000329
 235	2.3283e+01	9.3238	70.847695	0.000973	9.732971	3.297620	0.000390
 236	2.3383e+01	9.3495	71.186814	0.000852	8.516350	2.885417	0.000341
 237	2.3482e+01	9.4040	71.602639	0.001044	10.442667	3.538071	0.000418
 238	2.3581e+01	9.4489	71.961945	0.000902	9.023276	3.057168	0.000361
 239	2.3681e+01	9.5003	72.361621	0.001004	10.037127	3.400671	0.000402
 240	2.3780e+01	9.5243	72.765335	0.001014	10.138512	3.435021	0.000406
 241	2.3880e+01	9.5660	73.132714	0.000923	9.226046	3.125869	0.000369
 242	2.3980e+01	9.5917	73.479908	0.000872	8.719120	2.954118	0.000349
 243	2.4079e+01	9.6414	73.855361	0.000943	9.428816	3.194569	0.000377
 244	2.4178e+01	9.6864	74.226778	0.000933	9.327431	3.160219	0.000373
 245	2.4278e+01	9.7217	74.638566	0.001034	10.341282	3.503721	0.000414
 246	2.4378e+01	9.7553	75.014019	0.000943	9.428816	3.194569	0.000377
 247	2.4477e+01	9.7970	75.341027	0.000821	8.212195	2.782367	0.000329
 248	2.4576e+01	9.8388	75.740704	0.001004	10.037127	3.400671	0.000402
 249	2.4676e+01	9.8692	76.095972	0.000892	8.921890	3.022818	0.000357
 250	2.4776e+01	9.9126	76.475462	0.000953	9.530201	3.228920	0.000381
 251	2.4875e+01	9.9591	76.838805	0.000912	9.124661	3.091519	0.000365
 252	2.4974e+01	9.9896	77.222332	0.000963	9.631586	3.263270	0.000385
 253	2.5074e+01	10.0377	77.597786	0.000943	9.428816	3.194569	0.000377
 254	2.5174e+01	10.0778	77.949017	0.000882	8.820505	2.988468	0.000353
 255	2.5273e+01	10.1131	78.360805	0.001034	10.341282	3.503721	0.000414
 256	2.5372e+01	10.1516	78.728184	0.000923	9.226046	3.125869	0.000369
 257	2.5472e+01	10.1901	79.111712	0.000963	9.631586	3.263270	0.000385
 258	2.5572e+01	10.2334	79.499277	0.000973	9.732971	3.297620	0.000390
 259	2.5671e+01	10.2751	79.866656	0.000923	9.226046	3.125869	0.000369
 260	2.5770e+01	10.3152	80.294593	0.001075	10.746823	3.641122	0.000430
 261	2.5870e+01	10.3505	80.597378	0.000760	7.603884	2.576266	0.000304
 262	2.5970e+01	10.3922	81.073760	0.001196	11.963444	4.053325	0.000479
 263	2.6069e+01	10.4371	81.400768	0.000821	8.212195	2.782367	0.000329
 264	2.6169e+01	10.4853	81.772184	0.000933	9.327431	3.160219	0.000373
 265	2.6268e+01	10.5077	82.167824	0.000994	9.935742	3.366320	0.000398
 266	2.6367e+01	10.5591	82.523092	0.000892	8.921890	3.022818	0.000357
 267	2.6467e+01	10.5911	82.894508	0.000933	9.327431	3.160219	0.000373
 268	2.6567e+01	10.6264	83.253813	0.000902	9.023276	3.057168	0.000361
 269	2.6666e+01	10.6778	83.605044	0.000882	8.820505	2.988468	0.000353
 270	2.6765e+01	10.7131	83.976460	0.000933	9.327431	3.160219	0.000373
 271	2.6865e+01	10.7548	84.343840	0.000923	9.226046	3.125869	0.000369
 272	2.6965e+01	10.7917	84.763702	0.001054	10.544052	3.572422	0.000422
 273	2.7064e+01	10.8366	85.114933	0.000882	8.820505	2.988468	0.000353
 274	2.7163e+01	10.8751	85.514609	0.001004	10.037127	3.400671	0.000402
 275	2.7263e+01	10.9168	85.890063	0.000943	9.428816	3.194569	0.000377
 276	2.7363e+01	10.9521	86.285702	0.000994	9.935742	3.366320	0.000398
 277	2.7462e+01	11.0018	86.649044	0.000912	9.124661	3.091519	0.000365
 278	2.7561e+01	11.0355	87.060832	0.001034	10.341282	3.503721	0.000414
 279	2.7661e+01	11.0660	87.403989	0.000862	8.617735	2.919768	0.000345
 280	2.7761e+01	11.1238	87.856148	0.001136	11.355133	3.847223	0.000454
 281	2.7860e+01	11.1574	88.187193	0.000831	8.313580	2.816717	0.000333
 282	2.7959e+01	11.2040	88.502090	0.000791	7.908039	2.679316	0.000316
 283	2.8059e+01	11.2328	88.893692	0.000983	9.834356	3.331970	0.000394
 284	2.8159e+01	11.2681	89.277220	0.000963	9.631586	3.263270	0.000385
 285	2.8258e+01	11.3163	89.648636	0.000933	9.327431	3.160219	0.000373
 286	2.8358e+01	11.3580	89.999867	0.000882	8.820505	2.988468	0.000353
 287	2.8457e+01	11.3917	90.399543	0.001004	10.037127	3.400671	0.000402
 288	2.8556e+01	11.4414	90.770960	0.000933	9.327431	3.160219	0.000373
 289	2.8656e+01	11.4671	91.130265	0.000902	9.023276	3.057168	0.000361
 290	2.8756e+01	11.5152	91.529941	0.001004	10.037127	3.400671	0.000402
 291	2.8855e+01	11.5505	91.917506	0.000973	9.732971	3.297620	0.000390
 292	2.8954e+01	11.5874	92.280849	0.000912	9.124661	3.091519	0.000365
 293	2.9054e+01	11.6339	92.672451	0.000983	9.834356	3.331970	0.000394
 294	2.9154e+01	11.6692	93.035793	0.000912	9.124661	3.091519	0.000365
 295	2.9253e+01	11.7125	93.423358	0.000973	9.732971	3.297620	0.000390
 296	2.9352e+01	11.7414	93.782663	0.000902	9.023276	3.057168	0.000361
 297	2.9452e+01	11.7895	94.109671	0.000821	8.212195	2.782367	0.000329
 298	2.9552e+01	11.8344	94.545682	0.001095	10.949593	3.709822	0.000438
 299	2.9651e+01	11.8665	94.913061	0.000923	9.226046	3.125869	0.000369
 300	2.9750e+01	11.9114	95.284478	0.000933	9.327431	3.160219	0.000373
 301	2.9850e+01	11.9515	95.680117	0.000994	9.935742	3.366320	0.000398
 302	2.9950e+01	11.9916	96.039422	0.000902	9.023276	3.057168	0.000361
 303	3.0049e+01	12.0317	96.431024	0.000983	9.834356	3.331970	0.000394
 304	3.0148e+01	12.0702	96.806478	0.000943	9.428816	3.194569	0.000377
 305	3.0248e+01	12.1023	97.177894	0.000933	9.327431	3.160219	0.000373
 306	3.0348e+01	12.1489	97.545274	0.000923	9.226046	3.125869	0.000369
 307	3.0447e+01	12.1906	97.936876	0.000983	9.834356	3.331970	0.000394
 308	3.0547e+01	12.2243	98.304255	0.000923	9.226046	3.125869	0.000369
 309	3.0646e+01	12.2676	98.732192	0.001075	10.746823	3.641122	0.000430
 310	3.0745e+01	12.3077	99.030940	0.000750	7.502499	2.541915	0.000300
 311	3.0845e+01	12.3478	99.462913	0.001085	10.848208	3.675472	0.000434
 312	3.0945e+01	12.3863	99.846441	0.000963	9.631586	3.263270	0.000385
 313	3.1044e+01	12.4280	100.189598	0.000862	8.617735	2.919768	0.000345
 314	3.1143e+01	12.4681	100.565051	0.000943	9.428816	3.194569	0.000377
 315	3.1243e+01	12.5082	100.924356	0.000902	9.023276	3.057168	0.000361
 316	3.1343e+01	12.5483	101.352293	0.001075	10.746823	3.641122	0.000430
 317	3.1442e+01	12.5884	101.691412	0.000852	8.516350	2.885417	0.000341
 318	3.1541e+01	12.6285	102.083014	0.000983	9.834356	3.331970	0.000394
 319	3.1641e+01	12.6638	102.434245	0.000882	8.820505	2.988468	0.000353
 320	3.1741e+01	12.6991	102.841996	0.001024	10.239897	3.469371	0.000410
 321	3.1840e+01	12.7360	103.205338	0.000912	9.124661	3.091519	0.000365
 322	3.1939e+01	12.7905	103.592903	0.000973	9.732971	3.297620	0.000390
 323	3.2039e+01	12.8226	103.927985	0.000841	8.414965	2.851067	0.000337
 324	3.2139e+01	12.8724	104.331699	0.001014	10.138512	3.435021	0.000406
 325	3.2238e+01	12.9028	104.686967	0.000892	8.921890	3.022818	0.000357
 326	3.2337e+01	12.9478	105.042235	0.000892	8.921890	3.022818	0.000357
 327	3.2437e+01	12.9782	105.417688	0.000943	9.428816	3.194569	0.000377
 328	3.2536e+01	13.0248	105.752771	0.000841	8.414965	2.851067	0.000337
 329	3.2636e+01	13.0552	106.136299	0.000963	9.631586	3.263270	0.000385
 330	3.2736e+01	13.1018	106.535975	0.001004	10.037127	3.400671	0.000402
 331	3.2835e+01	13.1419	106.883169	0.000872	8.719120	2.954118	0.000349
 332	3.2934e+01	13.1804	107.230362	0.000872	8.719120	2.954118	0.000349
 333	3.3034e+01	13.2221	107.601779	0.000933	9.327431	3.160219	0.000373
 334	3.3133e+01	13.2654	108.001455	0.001004	10.037127	3.400671	0.000402
 335	3.3233e+01	13.3071	108.393057	0.000983	9.834356	3.331970	0.000394
 336	3.3333e+01	13.3504	108.728140	0.000841	8.414965	2.851067	0.000337
 337	3.3432e+01	13.3793	109.123779	0.000994	9.935742	3.366320	0.000398
 338	3.3532e+01	13.4306	109.462898	0.000852	8.516350	2.885417	0.000341
 339	3.3631e+01	13.4659	109.846426	0.000963	9.631586	3.263270	0.000385
 340	3.3730e+01	13.5044	110.193620	0.000872	8.719120	2.954118	0.000349
 341	3.3830e+01	13.5381	110.589259	0.000994	9.935742	3.366320	0.000398
 342	3.3929e+01	13.5766	110.968750	0.000953	9.530201	3.228920	0.000381
 343	3.4029e+01	13.6183	111.356315	0.000973	9.732971	3.297620	0.000390
 344	3.4129e+01	13.6600	111.695434	0.000852	8.516350	2.885417	0.000341
 345	3.4228e+01	13.6921	112.099148	0.001014	10.138512	3.435021	0.000406
 346	3.4328e+01	13.7419	112.446342	0.000872	8.719120	2.954118	0.000349
 347	3.4427e+01	13.7804	112.817758	0.000933	9.327431	3.160219	0.000373
 348	3.4526e+01	13.8205	113.205323	0.000973	9.732971	3.297620	0.000390
 349	3.4626e+01	13.8574	113.536368	0.000831	8.313580	2.816717	0.000333
 350	3.4725e+01	13.8959	113.887599	0.000882	8.820505	2.988468	0.000353
 351	3.4825e+01	13.9456	114.291313	0.001014	10.138512	3.435021	0.000406
 352	3.4925e+01	13.9745	114.638506	0.000872	8.719120	2.954118	0.000349
 353	3.5024e+01	14.0194	115.022034	0.000963	9.631586	3.263270	0.000385
 354	3.5123e+01	14.0659	115.349042	0.000821	8.212195	2.782367	0.000329
 355	3.5223e+01	14.0948	115.744682	0.000994	9.935742	3.366320	0.000398
 356	3.5322e+01	14.1413	116.116098	0.000933	9.327431	3.160219	0.000373
 357	3.5422e+01	14.1750	116.479440	0.000912	9.124661	3.091519	0.000365
 358	3.5522e+01	14.2135	116.842783	0.000912	9.124661	3.091519	0.000365
 359	3.5621e+01	14.2536	117.218236	0.000943	9.428816	3.194569	0.000377
 360	3.5721e+01	14.2937	117.597727	0.000953	9.530201	3.228920	0.000381
 361	3.5820e+01	14.3386	117.977218	0.000953	9.530201	3.228920	0.000381
 362	3.5919e+01	14.3852	118.332486	0.000892	8.921890	3.022818	0.000357
 363	3.6019e+01	14.4156	118.679679	0.000872	8.719120	2.954118	0.000349
 364	3.6118e+01	14.4557	119.063207	0.000963	9.631586	3.263270	0.000385
 365	3.6218e+01	14.4926	119.410401	0.000872	8.719120	2.954118	0.000349
 366	3.6318e+01	14.5424	119.769706	0.000902	9.023276	3.057168	0.000361
 367	3.6417e+01	14.5841	120.133048	0.000912	9.124661	3.091519	0.000365
 368	3.6517e+01	14.6210	120.468130	0.000841	8.414965	2.851067	0.000337
 369	3.6616e+01	14.6515	120.871844	0.001014	10.138512	3.435021	0.000406
 370	3.6715e+01	14.6916	121.247298	0.000943	9.428816	3.194569	0.000377
 371	3.6815e+01	14.7365	121.598528	0.000882	8.820505	2.988468	0.000353
 372	3.6914e+01	14.7766	121.969945	0.000933	9.327431	3.160219	0.000373
 373	3.7014e+01	14.8167	122.337324	0.000923	9.226046	3.125869	0.000369
 374	3.7114e+01	14.8552	122.692592	0.000892	8.921890	3.022818	0.000357
 375	3.7213e+01	14.8921	123.072083	0.000953	9.530201	3.228920	0.000381
 376	3.7313e+01	14.9370	123.455611	0.000963	9.631586	3.263270	0.000385
 377	3.7412e+01	14.9739	123.822990	0.000923	9.226046	3.125869	0.000369
 378	3.7511e+01	15.0140	124.166147	0.000862	8.617735	2.919768	0.000345
 379	3.7611e+01	15.0525	124.577935	0.001034	10.341282	3.503721	0.000414
 380	3.7711e+01	15.0878	124.921091	0.000862	8.617735	2.919768	0.000345
 381	3.7810e+01	15.1279	125.268285	0.000872	8.719120	2.954118	0.000349
 382	3.7910e+01	15.1696	125.639701	0.000933	9.327431	3.160219	0.000373
 383	3.8009e+01	15.2065	126.011118	0.000933	9.327431	3.160219	0.000373
 384	3.8108e+01	15.2498	126.374460	0.000912	9.124661	3.091519	0.000365
 385	3.8208e+01	15.3044	126.705505	0.000831	8.313580	2.816717	0.000333
 386	3.8307e+01	15.3349	127.060773	0.000892	8.921890	3.022818	0.000357
 387	3.8407e+01	15.3798	127.464487	0.001014	10.138512	3.435021	0.000406
 388	3.8507e+01	15.4231	127.823792	0.000902	9.023276	3.057168	0.000361
 389	3.8606e+01	15.4504	128.166948	0.000862	8.617735	2.919768	0.000345
 390	3.8706e+01	15.4905	128.542402	0.000943	9.428816	3.194569	0.000377
 391	3.8805e+01	15.5370	128.929967	0.000973	9.732971	3.297620	0.000390
 392	3.8904e+01	15.5755	129.265049	0.000841	8.414965	2.851067	0.000337
 393	3.9004e+01	15.6108	129.640503	0.000943	9.428816	3.194569	0.000377
 394	3.9103e+01	15.6573	130.028068	0.000973	9.732971	3.297620	0.000390
 395	3.9203e+01	15.6942	130.391410	0.000912	9.124661	3.091519	0.000365
 396	3.9303e+01	15.7343	130.742641	0.000882	8.820505	2.988468	0.000353
 397	3.9402e+01	15.7792	131.097909	0.000892	8.921890	3.022818	0.000357
 398	3.9502e+01	15.8113	131.445102	0.000872	8.719120	2.954118	0.000349
 399	3.9601e+01	15.8498	131.848816	0.001014	10.138512	3.435021	0.000406
 400	3.9700e+01	15.8963	132.187935	0.000852	8.516350	2.885417	0.000341
 401	3.9800e+01	15.9268	132.571463	0.000963	9.631586	3.263270	0.000385
 402	3.9900e+01	15.9766	132.922694	0.000882	8.820505	2.988468	0.000353
 403	3.9999e+01	16.0183	133.225479	0.000760	7.603884	2.576266	0.000304
 404	4.0099e+01	16.0487	133.580747	0.000892	8.921890	3.022818	0.000357
 405	4.0198e+01	16.0969	133.992535	0.001034	10.341282	3.503721	0.000414
 406	4.0297e+01	16.1274	134.351840	0.000902	9.023276	3.057168	0.000361
 407	4.0397e+01	16.1707	134.711145	0.000902	9.023276	3.057168	0.000361
 408	4.0496e+01	16.2204	135.082562	0.000933	9.327431	3.160219	0.000373
 409	4.0596e+01	16.2493	135.466090	0.000963	9.631586	3.263270	0.000385
 410	4.0696e+01	16.2814	135.829432	0.000912	9.124661	3.091519	0.000365
 411	4.0795e+01	16.3247	136.184700	0.000892	8.921890	3.022818	0.000357
 412	4.0895e+01	16.3664	136.548042	0.000912	9.124661	3.091519	0.000365
 413	4.0994e+01	16.4209	136.943681	0.000994	9.935742	3.366320	0.000398
 414	4.1093e+01	16.4546	137.319135	0.000943	9.428816	3.194569	0.000377
 415	4.1193e+01	16.4867	137.662292	0.000862	8.617735	2.919768	0.000345
 416	4.1292e+01	16.5284	138.025634	0.000912	9.124661	3.091519	0.000365
 417	4.1392e+01	16.5605	138.388976	0.000912	9.124661	3.091519	0.000365
 418	4.1492e+01	16.6134	138.760392	0.000933	9.327431	3.160219	0.000373
 419	4.1591e+01	16.6471	139.107586	0.000872	8.719120	2.954118	0.000349
 420	4.1691e+01	16.6936	139.491114	0.000963	9.631586	3.263270	0.000385
 421	4.1790e+01	16.7289	139.818122	0.000821	8.212195	2.782367	0.000329
 422	4.1889e+01	16.7610	140.165316	0.000872	8.719120	2.954118	0.000349
 423	4.1989e+01	16.8092	140.548844	0.000963	9.631586	3.263270	0.000385
 424	4.2089e+01	16.8493	140.952557	0.001014	10.138512	3.435021	0.000406
 425	4.2188e+01	16.8846	141.291677	0.000852	8.516350	2.885417	0.000341
 426	4.2288e+01	16.9263	141.695390	0.001014	10.138512	3.435021	0.000406
 427	4.2387e+01	16.9632	142.066807	0.000933	9.327431	3.160219	0.000373
 428	4.2486e+01	17.0081	142.426112	0.000902	9.023276	3.057168	0.000361
 429	4.2586e+01	17.0482	142.773305	0.000872	8.719120	2.954118	0.000349
 430	4.2685e+01	17.0803	143.160870	0.000973	9.732971	3.297620	0.000390
 431	4.2785e+01	17.1316	143.487878	0.000821	8.212195	2.782367	0.000329
 432	4.2885e+01	17.1701	143.903703	0.001044	10.442667	3.538071	0.000418
 433	4.2984e+01	17.2054	144.263008	0.000902	9.023276	3.057168	0.000361
 434	4.3084e+01	17.2551	144.626351	0.000912	9.124661	3.091519	0.000365
 435	4.3183e+01	17.2920	144.969507	0.000862	8.617735	2.919768	0.000345
 436	4.3282e+01	17.3305	145.328812	0.000902	9.023276	3.057168	0.000361
 437	4.3382e+01	17.3658	145.724452	0.000994	9.935742	3.366320	0.000398
 438	4.3481e+01	17.4123	146.071645	0.000872	8.719120	2.954118	0.000349
 439	4.3581e+01	17.4476	146.430950	0.000902	9.023276	3.057168	0.000361
 440	4.3681e+01	17.4877	146.782181	0.000882	8.820505	2.988468	0.000353
 441	4.3780e+01	17.5230	147.161672	0.000953	9.530201	3.228920	0.000381
 442	4.3880e+01	17.5663	147.541163	0.000953	9.530201	3.228920	0.000381
 443	4.3979e+01	17.6065	147.916616	0.000943	9.428816	3.194569	0.000377
 444	4.4078e+01	17.6530	148.263810	0.000872	8.719120	2.954118	0.000349
 445	4.4178e+01	17.6899	148.659449	0.000994	9.935742	3.366320	0.000398
 446	4.4278e+01	17.7204	148.978383	0.000801	8.009424	2.713666	0.000321
 447	4.4377e+01	17.7589	149.357874	0.000953	9.530201	3.228920	0.000381
 448	4.4477e+01	17.7942	149.765624	0.001024	10.239897	3.469371	0.000410
 449	4.4576e+01	17.8439	150.112818	0.000872	8.719120	2.954118	0.000349
 450	4.4675e+01	17.8776	150.488272	0.000943	9.428816	3.194569	0.000377
 451	4.4775e+01	17.9193	150.855651	0.000923	9.226046	3.125869	0.000369
 452	4.4874e+01	17.9642	151.202845	0.000872	8.719120	2.954118	0.000349
 453	4.4974e+01	18.0139	151.550038	0.000872	8.719120	2.954118	0.000349
 454	4.5074e+01	18.0380	151.933566	0.000963	9.631586	3.263270	0.000385
 455	4.5173e+01	18.0861	152.296909	0.000912	9.124661	3.091519	0.000365
 456	4.5273e+01	18.1278	152.644102	0.000872	8.719120	2.954118	0.000349
 457	4.5372e+01	18.1679	152.999370	0.000892	8.921890	3.022818	0.000357
 458	4.5471e+01	18.2000	153.390972	0.000983	9.834356	3.331970	0.000394
 459	4.5571e+01	18.2433	153.734129	0.000862	8.617735	2.919768	0.000345
 460	4.5670e+01	18.2883	154.109583	0.000943	9.428816	3.194569	0.000377
 461	4.5770e+01	18.3171	154.452739	0.000862	8.617735	2.919768	0.000345
 462	4.5870e+01	18.3653	154.824156	0.000933	9.327431	3.160219	0.000373
 463	4.5969e+01	18.4134	155.199609	0.000943	9.428816	3.194569	0.000377
 464	4.6069e+01	18.4455	155.562951	0.000912	9.124661	3.091519	0.000365
 465	4.6168e+01	18.4840	155.946479	0.000963	9.631586	3.263270	0.000385
 466	4.6267e+01	18.5177	156.301747	0.000892	8.921890	3.022818	0.000357
 467	4.6367e+01	18.5562	156.669127	0.000923	9.226046	3.125869	0.000369
 468	4.6467e+01	18.6075	157.024395	0.000892	8.921890	3.022818	0.000357
 469	4.6566e+01	18.6396	157.367551	0.000862	8.617735	2.919768	0.000345
 470	4.6666e+01	18.6861	157.771265	0.001014	10.138512	3.435021	0.000406
 471	4.6765e+01	18.7118	158.130570	0.000902	9.023276	3.057168	0.000361
 472	4.6864e+01	18.7599	158.465652	0.000841	8.414965	2.851067	0.000337
 473	4.6964e+01	18.7968	158.828994	0.000912	9.124661	3.091519	0.000365
 474	4.7063e+01	18.8465	159.240782	0.001034	10.341282	3.503721	0.000414
 475	4.7163e+01	18.8818	159.608161	0.000923	9.226046	3.125869	0.000369
 476	4.7263e+01	18.9187	159.931132	0.000811	8.110809	2.748017	0.000325
 477	4.7362e+01	18.9540	160.294474	0.000912	9.124661	3.091519	0.000365
 478	4.7462e+01	18.9941	160.673965	0.000953	9.530201	3.228920	0.000381
 479	4.7561e+01	19.0422	161.029233	0.000892	8.921890	3.022818	0.000357
 480	4.7660e+01	19.0823	161.392575	0.000912	9.124661	3.091519	0.000365
 481	4.7760e+01	19.1144	161.747843	0.000892	8.921890	3.022818	0.000357
 482	4.7859e+01	19.1529	162.135408	0.000973	9.732971	3.297620	0.000390
 483	4.7959e+01	19.1995	162.514899	0.000953	9.530201	3.228920	0.000381
 484	4.8059e+01	19.2444	162.870167	0.000892	8.921890	3.022818	0.000357
 485	4.8158e+01	19.2781	163.201212	0.000831	8.313580	2.816717	0.000333
 486	4.8258e+01	19.3214	163.604926	0.001014	10.138512	3.435021	0.000406
 487	4.8357e+01	19.3615	163.960194	0.000892	8.921890	3.022818	0.000357
 488	4.8456e+01	19.3920	164.303350	0.000862	8.617735	2.919768	0.000345
 489	4.8556e+01	19.4417	164.678804	0.000943	9.428816	3.194569	0.000377
 490	4.8656e+01	19.4738	165.017923	0.000852	8.516350	2.885417	0.000341
 491	4.8755e+01	19.5187	165.445860	0.001075	10.746823	3.641122	0.000430
 492	4.8855e+01	19.5620	165.780942	0.000841	8.414965	2.851067	0.000337
 493	4.8954e+01	19.5941	166.164470	0.000963	9.631586	3.263270	0.000385
 494	4.9053e+01	19.6390	166.451106	0.000720	7.198343	2.438865	0.000288
 495	4.9153e+01	19.6743	166.782152	0.000831	8.313580	2.816717	0.000333
 496	4.9252e+01	19.7160	167.169717	0.000973	9.732971	3.297620	0.000390
 497	4.9352e+01	19.7658	167.484613	0.000791	7.908039	2.679316	0.000316
 498	4.9452e+01	19.7978	167.856030	0.000933	9.327431	3.160219	0.000373
 499	4.9551e+01	19.8363	168.231483	0.000943	9.428816	3.194569	0.000377
 500	4.9651e+01	19.8829	168.586751	0.000892	8.921890	3.022818	0.000357
 501	4.9750e+01	19.9198	168.970279	0.000963	9.631586	3.263270	0.000385
 502	4.9849e+01	19.9486	169.317473	0.000872	8.719120	2.954118	0.000349
 503	4.9949e+01	19.9952	169.672741	0.000892	8.921890	3.022818	0.000357
 504	5.0048e+01	19.9631	169.523367	0.000375	3.751249	1.270958	-0.000150
 505	5.0148e+01	19.9230	169.418401	0.000264	2.636013	0.893105	-0.000105
 506	5.0248e+01	19.8813	169.236730	0.000456	4.562330	1.545759	-0.000183
 507	5.0347e+01	19.8331	169.055059	0.000456	4.562330	1.545759	-0.000183
 508	5.0447e+01	19.7946	168.889536	0.000416	4.156790	1.408359	-0.000166
 509	5.0546e+01	19.7609	168.707865	0.000456	4.562330	1.545759	-0.000183
 510	5.0645e+01	19.7096	168.574640	0.000335	3.345709	1.133557	-0.000134
 511	5.0745e+01	19.6743	168.372783	0.000507	5.069256	1.717510	-0.000203
 512	5.0844e+01	19.6406	168.146703	0.000568	5.677567	1.923612	-0.000227
 513	5.0944e+01	19.6085	167.908512	0.000598	5.981722	2.026662	-0.000239
 514	5.1044e+01	19.5588	167.694544	0.000537	5.373411	1.820561	-0.000215
 515	5.1143e+01	19.5203	167.504799	0.000477	4.765101	1.614460	-0.000191
 516	5.1242e+01	19.4770	167.278719	0.000568	5.677567	1.923612	-0.000227
 517	5.1342e+01	19.4433	167.109160	0.000426	4.258175	1.442709	-0.000170
 518	5.1441e+01	19.4016	166.879043	0.000578	5.778952	1.957962	-0.000231
 519	5.1541e+01	19.3599	166.616629	0.000659	6.590033	2.232764	-0.000264
 520	5.1641e+01	19.3150	166.418809	0.000497	4.967871	1.683160	-0.000199
 521	5.1740e+01	19.2813	166.196767	0.000558	5.576181	1.889261	-0.000223
 522	5.1840e+01	19.2412	165.970687	0.000568	5.677567	1.923612	-0.000227
 523	5.1939e+01	19.1914	165.760756	0.000527	5.272026	1.786211	-0.000211
 524	5.2038e+01	19.1610	165.526602	0.000588	5.880337	1.992312	-0.000235
 525	5.2138e+01	19.1064	165.260151	0.000669	6.691418	2.267114	-0.000268
 526	5.2237e+01	19.0840	165.066369	0.000487	4.866486	1.648810	-0.000195
 527	5.2337e+01	19.0406	164.836252	0.000578	5.778952	1.957962	-0.000231
 528	5.2437e+01	18.9973	164.634395	0.000507	5.069256	1.717510	-0.000203
 529	5.2536e+01	18.9476	164.335647	0.000750	7.502499	2.541915	-0.000300
 530	5.2636e+01	18.9203	164.065159	0.000679	6.792803	2.301464	-0.000272
 531	5.2735e+01	18.8818	163.806783	0.000649	6.488648	2.198413	-0.000260
 532	5.2834e+01	18.8513	163.592814	0.000537	5.373411	1.820561	-0.000215
 533	5.2934e+01	18.7952	163.310215	0.000710	7.096958	2.404515	-0.000284
 534	5.3033e+01	18.7599	163.059912	0.000629	6.285877	2.129713	-0.000252
 535	5.3133e+01	18.7230	162.849981	0.000527	5.272026	1.786211	-0.000211
 536	5.3233e+01	18.6781	162.579493	0.000679	6.792803	2.301464	-0.000272
 537	5.3332e+01	18.6460	162.317079	0.000659	6.590033	2.232764	-0.000264
 538	5.3431e+01	18.6027	162.103111	0.000537	5.373411	1.820561	-0.000215
 539	5.3531e+01	18.5658	161.828586	0.000689	6.894188	2.335814	-0.000276
 540	5.3630e+01	18.5193	161.582321	0.000618	6.184492	2.095363	-0.000248
 541	5.3730e+01	18.4808	161.315870	0.000669	6.691418	2.267114	-0.000268
 542	5.3830e+01	18.4358	161.085753	0.000578	5.778952	1.957962	-0.000231
 543	5.3929e+01	18.4038	160.811228	0.000689	6.894188	2.335814	-0.000276
 544	5.4029e+01	18.3588	160.564963	0.000618	6.184492	2.095363	-0.000248
 545	5.4128e+01	18.3187	160.338883	0.000568	5.677567	1.923612	-0.000227
 546	5.4227e+01	18.2915	160.040135	0.000750	7.502499	2.541915	-0.000300
 547	5.4327e+01	18.2514	159.834241	0.000517	5.170641	1.751861	-0.000207
 548	5.4426e+01	18.2080	159.539530	0.000740	7.401114	2.507565	-0.000296
 549	5.4526e+01	18.1631	159.260968	0.000700	6.995573	2.370164	-0.000280
 550	5.4626e+01	18.1230	158.994517	0.000669	6.691418	2.267114	-0.000268
 551	5.4725e+01	18.0861	158.707880	0.000720	7.198343	2.438865	-0.000288
 552	5.4825e+01	18.0428	158.409132	0.000750	7.502499	2.541915	-0.000300
 553	5.4924e+01	17.9995	158.211312	0.000497	4.967871	1.683160	-0.000199
 554	5.5023e+01	17.9642	157.916602	0.000740	7.401114	2.507565	-0.000296
 555	5.5123e+01	17.9225	157.642076	0.000689	6.894188	2.335814	-0.000276
 556	5.5222e+01	17.8856	157.347365	0.000740	7.401114	2.507565	-0.000296
 557	5.5322e+01	17.8455	157.093026	0.000639	6.387262	2.164063	-0.000256
 558	5.5422e+01	17.8054	156.818501	0.000689	6.894188	2.335814	-0.000276
 559	5.5521e+01	17.7605	156.548013	0.000679	6.792803	2.301464	-0.000272
 560	5.5620e+01	17.7300	156.293673	0.000639	6.387262	2.164063	-0.000256
 561	5.5720e+01	17.6883	156.039333	0.000639	6.387262	2.164063	-0.000256
 562	5.5819e+01	17.6530	155.776920	0.000659	6.590033	2.232764	-0.000264
 563	5.5919e+01	17.6145	155.530654	0.000618	6.184492	2.095363	-0.000248
 564	5.6019e+01	17.5647	155.235943	0.000740	7.401114	2.507565	-0.000296
 565	5.6118e+01	17.5198	154.912973	0.000811	8.110809	2.748017	-0.000325
 566	5.6218e+01	17.4926	154.626336	0.000720	7.198343	2.438865	-0.000288
 567	5.6317e+01	17.4541	154.331625	0.000740	7.401114	2.507565	-0.000296
 568	5.6416e+01	17.4091	154.093434	0.000598	5.981722	2.026662	-0.000239
 569	5.6516e+01	17.3642	153.746240	0.000872	8.719120	2.954118	-0.000349
 570	5.6615e+01	17.3337	153.451529	0.000740	7.401114	2.507565	-0.000296
 571	5.6715e+01	17.2888	153.185078	0.000669	6.691418	2.267114	-0.000268
 572	5.6815e+01	17.2551	152.954962	0.000578	5.778952	1.957962	-0.000231
 573	5.6914e+01	17.2022	152.656214	0.000750	7.502499	2.541915	-0.000300
 574	5.7014e+01	17.1605	152.365540	0.000730	7.299728	2.473215	-0.000292
 575	5.7113e+01	17.1300	152.135423	0.000578	5.778952	1.957962	-0.000231
 576	5.7212e+01	17.0883	151.812452	0.000811	8.110809	2.748017	-0.000325
 577	5.7312e+01	17.0402	151.517741	0.000740	7.401114	2.507565	-0.000296
 578	5.7411e+01	17.0001	151.263402	0.000639	6.387262	2.164063	-0.000256
 579	5.7511e+01	16.9648	150.992914	0.000679	6.792803	2.301464	-0.000272
 580	5.7611e+01	16.9295	150.762797	0.000578	5.778952	1.957962	-0.000231
 581	5.7710e+01	16.8894	150.472123	0.000730	7.299728	2.473215	-0.000292
 582	5.7809e+01	16.8557	150.173375	0.000750	7.502499	2.541915	-0.000300
 583	5.7909e+01	16.8092	149.854441	0.000801	8.009424	2.713666	-0.000321
 584	5.8008e+01	16.7658	149.539545	0.000791	7.908039	2.679316	-0.000316
 585	5.8108e+01	16.7225	149.248871	0.000730	7.299728	2.473215	-0.000292
 586	5.8208e+01	16.6824	148.962234	0.000720	7.198343	2.438865	-0.000288
 587	5.8307e+01	16.6423	148.659449	0.000760	7.603884	2.576266	-0.000304
 588	5.8407e+01	16.6166	148.421258	0.000598	5.981722	2.026662	-0.000239
 589	5.8506e+01	16.5749	148.134622	0.000720	7.198343	2.438865	-0.000288
 590	5.8605e+01	16.5396	147.803577	0.000831	8.313580	2.816717	-0.000333
 591	5.8705e+01	16.4947	147.533088	0.000679	6.792803	2.301464	-0.000272
 592	5.8804e+01	16.4482	147.262600	0.000679	6.792803	2.301464	-0.000272
 593	5.8904e+01	16.4081	146.992112	0.000679	6.792803	2.301464	-0.000272
 594	5.9004e+01	16.3664	146.681253	0.000781	7.806654	2.644966	-0.000312
 595	5.9103e+01	16.3311	146.378468	0.000760	7.603884	2.576266	-0.000304
 596	5.9203e+01	16.2862	146.107979	0.000679	6.792803	2.301464	-0.000272
 597	5.9302e+01	16.2605	145.841529	0.000669	6.691418	2.267114	-0.000268
 598	5.9401e+01	16.2140	145.514521	0.000821	8.212195	2.782367	-0.000329
 599	5.9501e+01	16.1642	145.296515	0.000547	5.474796	1.854911	-0.000219
 600	5.9600e+01	16.1322	145.009879	0.000720	7.198343	2.438865	-0.000288
 601	5.9700e+01	16.0985	144.703056	0.000771	7.705269	2.610616	-0.000308
 602	5.9800e+01	16.0487	144.376048	0.000821	8.212195	2.782367	-0.000329
 603	5.9899e+01	16.0135	144.036929	0.000852	8.516350	2.885417	-0.000341
 604	5.9998e+01	15.9733	143.774515	0.000659	6.590033	2.232764	-0.000264
 605	6.0098e+01	15.9364	143.435396	0.000852	8.516350	2.885417	-0.000341
 606	6.0197e+01	15.8915	143.164908	0.000679	6.792803	2.301464	-0.000272
 607	6.0297e+01	15.8514	142.874234	0.000730	7.299728	2.473215	-0.000292
 608	6.0397e+01	15.8065	142.583560	0.000730	7.299728	2.473215	-0.000292
 609	6.0496e+01	15.7792	142.288849	0.000740	7.401114	2.507565	-0.000296
 610	6.0596e+01	15.7199	141.982027	0.000771	7.705269	2.610616	-0.000308
 611	6.0695e+01	15.6926	141.699427	0.000710	7.096958	2.404515	-0.000284
 612	6.0794e+01	15.6525	141.437013	0.000659	6.590033	2.232764	-0.000264
 613	6.0894e+01	15.6188	141.105968	0.000831	8.313580	2.816717	-0.000333
 614	6.0993e+01	15.5707	140.803183	0.000760	7.603884	2.576266	-0.000304
 615	6.1093e+01	15.5354	140.564992	0.000598	5.981722	2.026662	-0.000239
 616	6.1193e+01	15.4873	140.270281	0.000740	7.401114	2.507565	-0.000296
 617	6.1292e+01	15.4648	139.975570	0.000740	7.401114	2.507565	-0.000296
 618	6.1392e+01	15.4183	139.636451	0.000852	8.516350	2.885417	-0.000341
 619	6.1491e+01	15.3814	139.365963	0.000679	6.792803	2.301464	-0.000272
 620	6.1590e+01	15.3397	139.002621	0.000912	9.124661	3.091519	-0.000365
 621	6.1690e+01	15.2996	138.711947	0.000730	7.299728	2.473215	-0.000292
 622	6.1789e+01	15.2498	138.393013	0.000801	8.009424	2.713666	-0.000321
 623	6.1889e+01	15.2113	138.066005	0.000821	8.212195	2.782367	-0.000329
 624	6.1989e+01	15.1744	137.795517	0.000679	6.792803	2.301464	-0.000272
 625	6.2088e+01	15.1391	137.512918	0.000710	7.096958	2.404515	-0.000284
 626	6.2188e+01	15.0942	137.214169	0.000750	7.502499	2.541915	-0.000300
 627	6.2287e+01	15.0429	136.911384	0.000760	7.603884	2.576266	-0.000304
 628	6.2386e+01	15.0188	136.616673	0.000740	7.401114	2.507565	-0.000296
 629	6.2486e+01	14.9739	136.293703	0.000811	8.110809	2.748017	-0.000325
 630	6.2586e+01	14.9418	135.994954	0.000750	7.502499	2.541915	-0.000300
 631	6.2685e+01	14.8969	135.724466	0.000679	6.792803	2.301464	-0.000272
 632	6.2785e+01	14.8552	135.413607	0.000781	7.806654	2.644966	-0.000312
 633	6.2884e+01	14.8055	135.167342	0.000618	6.184492	2.095363	-0.000248
 634	6.2983e+01	14.7798	134.832259	0.000841	8.414965	2.851067	-0.000337
 635	6.3083e+01	14.7365	134.517363	0.000791	7.908039	2.679316	-0.000316
 636	6.3182e+01	14.6996	134.210540	0.000771	7.705269	2.610616	-0.000308
 637	6.3282e+01	14.6627	133.875458	0.000841	8.414965	2.851067	-0.000337
 638	6.3382e+01	14.6146	133.556524	0.000801	8.009424	2.713666	-0.000321
 639	6.3481e+01	14.5777	133.245665	0.000781	7.806654	2.644966	-0.000312
 640	6.3581e+01	14.5360	132.954991	0.000730	7.299728	2.473215	-0.000292
 641	6.3680e+01	14.5007	132.668355	0.000720	7.198343	2.438865	-0.000288
 642	6.3779e+01	14.4557	132.365569	0.000760	7.603884	2.576266	-0.000304
 643	6.3879e+01	14.4156	132.034524	0.000831	8.313580	2.816717	-0.000333
 644	6.3978e+01	14.3723	131.743851	0.000730	7.299728	2.473215	-0.000292
 645	6.4078e+01	14.3402	131.412805	0.000831	8.313580	2.816717	-0.000333
 646	6.4177e+01	14.2953	131.118094	0.000740	7.401114	2.507565	-0.000296
 647	6.4277e+01	14.2600	130.827421	0.000730	7.299728	2.473215	-0.000292
 648	6.4376e+01	14.2199	130.516561	0.000781	7.806654	2.644966	-0.000312
 649	6.4476e+01	14.1798	130.246073	0.000679	6.792803	2.301464	-0.000272
 650	6.4576e+01	14.1365	129.979622	0.000669	6.691418	2.267114	-0.000268
 651	6.4675e+01	14.0980	129.684911	0.000740	7.401114	2.507565	-0.000296
 652	6.4775e+01	14.0595	129.325606	0.000902	9.023276	3.057168	-0.000361
 653	6.4874e+01	14.0114	129.030895	0.000740	7.401114	2.507565	-0.000296
 654	6.4974e+01	13.9793	128.736184	0.000740	7.401114	2.507565	-0.000296
 655	6.5073e+01	13.9456	128.380916	0.000892	8.921890	3.022818	-0.000357
 656	6.5172e+01	13.8943	128.041797	0.000852	8.516350	2.885417	-0.000341
 657	6.5272e+01	13.8638	127.706715	0.000841	8.414965	2.851067	-0.000337
 658	6.5371e+01	13.8269	127.444301	0.000659	6.590033	2.232764	-0.000264
 659	6.5471e+01	13.7755	127.089033	0.000892	8.921890	3.022818	-0.000357
 660	6.5570e+01	13.7467	126.749914	0.000852	8.516350	2.885417	-0.000341
 661	6.5670e+01	13.7034	126.463277	0.000720	7.198343	2.438865	-0.000288
 662	6.5769e+01	13.6584	126.140306	0.000811	8.110809	2.748017	-0.000325
 663	6.5869e+01	13.6231	125.861744	0.000700	6.995573	2.370164	-0.000280
 664	6.5969e+01	13.5830	125.502439	0.000902	9.023276	3.057168	-0.000361
 665	6.6068e+01	13.5477	125.203691	0.000750	7.502499	2.541915	-0.000300
 666	6.6168e+01	13.5044	124.864571	0.000852	8.516350	2.885417	-0.000341
 667	6.6267e+01	13.4611	124.577935	0.000720	7.198343	2.438865	-0.000288
 668	6.6367e+01	13.4146	124.323595	0.000639	6.387262	2.164063	-0.000256
 669	6.6466e+01	13.3809	124.008698	0.000791	7.908039	2.679316	-0.000316
 670	6.6566e+01	13.3392	123.637282	0.000933	9.327431	3.160219	-0.000373
 671	6.6665e+01	13.3087	123.342571	0.000740	7.401114	2.507565	-0.000296
 672	6.6764e+01	13.2686	122.963080	0.000953	9.530201	3.228920	-0.000381
 673	6.6864e+01	13.2253	122.676444	0.000720	7.198343	2.438865	-0.000288
 674	6.6963e+01	13.1804	122.377696	0.000750	7.502499	2.541915	-0.000300
 675	6.7063e+01	13.1563	122.030502	0.000872	8.719120	2.954118	-0.000349
 676	6.7162e+01	13.1066	121.691383	0.000852	8.516350	2.885417	-0.000341
 677	6.7262e+01	13.0536	121.360337	0.000831	8.313580	2.816717	-0.000333
 678	6.7362e+01	13.0280	121.061589	0.000750	7.502499	2.541915	-0.000300
 679	6.7461e+01	12.9927	120.730544	0.000831	8.313580	2.816717	-0.000333
 680	6.7561e+01	12.9413	120.427759	0.000760	7.603884	2.576266	-0.000304
 681	6.7660e+01	12.9061	120.108825	0.000801	8.009424	2.713666	-0.000321
 682	6.7760e+01	12.8724	119.785854	0.000811	8.110809	2.748017	-0.000325
 683	6.7859e+01	12.8226	119.450772	0.000841	8.414965	2.851067	-0.000337
 684	6.7959e+01	12.7825	119.180284	0.000679	6.792803	2.301464	-0.000272
 685	6.8058e+01	12.7408	118.849239	0.000831	8.313580	2.816717	-0.000333
 686	6.8157e+01	12.7087	118.522231	0.000821	8.212195	2.782367	-0.000329
 687	6.8257e+01	12.6606	118.211372	0.000781	7.806654	2.644966	-0.000312
 688	6.8356e+01	12.6349	117.896475	0.000791	7.908039	2.679316	-0.000316
 689	6.8456e+01	12.5884	117.521021	0.000943	9.428816	3.194569	-0.000377
 690	6.8555e+01	12.5467	117.202088	0.000801	8.009424	2.713666	-0.000321
 691	6.8655e+01	12.5002	116.858931	0.000862	8.617735	2.919768	-0.000345
 692	6.8754e+01	12.4649	116.556146	0.000760	7.603884	2.576266	-0.000304
 693	6.8854e+01	12.4360	116.212989	0.000862	8.617735	2.919768	-0.000345
 694	6.8954e+01	12.3863	115.894056	0.000801	8.009424	2.713666	-0.000321
 695	6.9053e+01	12.3462	115.567048	0.000821	8.212195	2.782367	-0.000329
 696	6.9153e+01	12.3045	115.223891	0.000862	8.617735	2.919768	-0.000345
 697	6.9252e+01	12.2740	114.896883	0.000821	8.212195	2.782367	-0.000329
 698	6.9352e+01	12.2178	114.553727	0.000862	8.617735	2.919768	-0.000345
 699	6.9451e+01	12.1874	114.242867	0.000781	7.806654	2.644966	-0.000312
 700	6.9550e+01	12.1440	113.927971	0.000791	7.908039	2.679316	-0.000316
 701	6.9650e+01	12.1136	113.613074	0.000791	7.908039	2.679316	-0.000316
 702	6.9749e+01	12.0702	113.269917	0.000862	8.617735	2.919768	-0.000345
 703	6.9849e+01	12.0334	112.987318	0.000710	7.096958	2.404515	-0.000284
 704	6.9948e+01	11.9868	112.648198	0.000852	8.516350	2.885417	-0.000341
 705	7.0048e+01	11.9612	112.260633	0.000973	9.732971	3.297620	-0.000390
 706	7.0147e+01	11.9194	111.937663	0.000811	8.110809	2.748017	-0.000325
 707	7.0247e+01	11.8777	111.582395	0.000892	8.921890	3.022818	-0.000357
 708	7.0347e+01	11.8280	111.275572	0.000771	7.705269	2.610616	-0.000308
 709	7.0446e+01	11.7863	110.900119	0.000943	9.428816	3.194569	-0.000377
 710	7.0546e+01	11.7494	110.589259	0.000781	7.806654	2.644966	-0.000312
 711	7.0645e+01	11.7109	110.258214	0.000831	8.313580	2.816717	-0.000333
 712	7.0745e+01	11.6692	109.955429	0.000760	7.603884	2.576266	-0.000304
 713	7.0844e+01	11.6355	109.563827	0.000983	9.834356	3.331970	-0.000394
 714	7.0944e+01	11.5890	109.273153	0.000730	7.299728	2.473215	-0.000292
 715	7.1043e+01	11.5489	108.921922	0.000882	8.820505	2.988468	-0.000353
 716	7.1142e+01	11.5104	108.578766	0.000862	8.617735	2.919768	-0.000345
 717	7.1242e+01	11.4687	108.239646	0.000852	8.516350	2.885417	-0.000341
 718	7.1341e+01	11.4318	107.900527	0.000852	8.516350	2.885417	-0.000341
 719	7.1441e+01	11.3965	107.617927	0.000710	7.096958	2.404515	-0.000284
 720	7.1540e+01	11.3467	107.307068	0.000781	7.806654	2.644966	-0.000312
 721	7.1640e+01	11.3098	106.996208	0.000781	7.806654	2.644966	-0.000312
 722	7.1740e+01	11.2745	106.640941	0.000892	8.921890	3.022818	-0.000357
 723	7.1839e+01	11.2248	106.253375	0.000973	9.732971	3.297620	-0.000390
 724	7.1939e+01	11.1847	105.890033	0.000912	9.124661	3.091519	-0.000365
 725	7.2038e+01	11.1542	105.542840	0.000872	8.719120	2.954118	-0.000349
 726	7.2138e+01	11.1157	105.211794	0.000831	8.313580	2.816717	-0.000333
 727	7.2237e+01	11.0676	104.860564	0.000882	8.820505	2.988468	-0.000353
 728	7.2337e+01	11.0323	104.529519	0.000831	8.313580	2.816717	-0.000333
 729	7.2436e+01	10.9842	104.182325	0.000872	8.719120	2.954118	-0.000349
 730	7.2535e+01	10.9537	103.839168	0.000862	8.617735	2.919768	-0.000345
 731	7.2635e+01	10.9104	103.483900	0.000892	8.921890	3.022818	-0.000357
 732	7.2734e+01	10.8671	103.164967	0.000801	8.009424	2.713666	-0.000321
 733	7.2834e+01	10.8350	102.825847	0.000852	8.516350	2.885417	-0.000341
 734	7.2933e+01	10.7965	102.482691	0.000862	8.617735	2.919768	-0.000345
 735	7.3033e+01	10.7564	102.115311	0.000923	9.226046	3.125869	-0.000369
 736	7.3132e+01	10.7179	101.820600	0.000740	7.401114	2.507565	-0.000296
 737	7.3232e+01	10.6617	101.517815	0.000760	7.603884	2.576266	-0.000304
 738	7.3332e+01	10.6280	101.186770	0.000831	8.313580	2.816717	-0.000333
 739	7.3431e+01	10.5944	100.855725	0.000831	8.313580	2.816717	-0.000333
 740	7.3531e+01	10.5478	100.520643	0.000841	8.414965	2.851067	-0.000337
 741	7.3630e+01	10.5157	100.141152	0.000953	9.530201	3.228920	-0.000381
 742	7.3730e+01	10.4837	99.781847	0.000902	9.023276	3.057168	-0.000361
 743	7.3829e+01	10.4371	99.442727	0.000852	8.516350	2.885417	-0.000341
 744	7.3928e+01	10.3858	99.087460	0.000892	8.921890	3.022818	-0.000357
 745	7.4028e+01	10.3537	98.732192	0.000892	8.921890	3.022818	-0.000357
 746	7.4127e+01	10.3168	98.417295	0.000791	7.908039	2.679316	-0.000316
 747	7.4227e+01	10.2703	98.049916	0.000923	9.226046	3.125869	-0.000369
 748	7.4326e+01	10.2382	97.722908	0.000821	8.212195	2.782367	-0.000329
 749	7.4426e+01	10.1837	97.363603	0.000902	9.023276	3.057168	-0.000361
 750	7.4525e+01	10.1516	97.052743	0.000781	7.806654	2.644966	-0.000312
 751	7.4625e+01	10.1195	96.701512	0.000882	8.820505	2.988468	-0.000353
 752	7.4725e+01	10.0682	96.374504	0.000821	8.212195	2.782367	-0.000329
 753	7.4824e+01	10.0377	96.007125	0.000923	9.226046	3.125869	-0.000369
 754	7.4924e+01	9.9928	95.663968	0.000862	8.617735	2.919768	-0.000345
 755	7.5023e+01	9.9607	95.401555	0.000659	6.590033	2.232764	-0.000264
 756	7.5123e+01	9.9206	95.009952	0.000983	9.834356	3.331970	-0.000394
 757	7.5222e+01	9.8837	94.691019	0.000801	8.009424	2.713666	-0.000321
 758	7.5322e+01	9.8436	94.339788	0.000882	8.820505	2.988468	-0.000353
 759	7.5421e+01	9.8035	93.976446	0.000912	9.124661	3.091519	-0.000365
 760	7.5520e+01	9.7634	93.605029	0.000933	9.327431	3.160219	-0.000373
 761	7.5620e+01	9.7168	93.306281	0.000750	7.502499	2.541915	-0.000300
 762	7.5719e+01	9.6751	92.906605	0.001004	10.037127	3.400671	-0.000402
 763	7.5819e+01	9.6414	92.632080	0.000689	6.894188	2.335814	-0.000276
 764	7.5918e+01	9.5997	92.244514	0.000973	9.732971	3.297620	-0.000390
 765	7.6018e+01	9.5596	91.897321	0.000872	8.719120	2.954118	-0.000349
 766	7.6118e+01	9.5163	91.574350	0.000811	8.110809	2.748017	-0.000325
 767	7.6217e+01	9.4698	91.194859	0.000953	9.530201	3.228920	-0.000381
 768	7.6317e+01	9.4281	90.875925	0.000801	8.009424	2.713666	-0.000321
 769	7.6416e+01	9.3960	90.508546	0.000923	9.226046	3.125869	-0.000369
 770	7.6516e+01	9.3623	90.181538	0.000821	8.212195	2.782367	-0.000329
 771	7.6615e+01	9.3158	89.842419	0.000852	8.516350	2.885417	-0.000341
 772	7.6715e+01	9.2805	89.483114	0.000902	9.023276	3.057168	-0.000361
 773	7.6814e+01	9.2404	89.152069	0.000831	8.313580	2.816717	-0.000333
 774	7.6913e+01	9.2019	88.829098	0.000811	8.110809	2.748017	-0.000325
 775	7.7013e+01	9.1650	88.481904	0.000872	8.719120	2.954118	-0.000349
 776	7.7112e+01	9.1233	88.118562	0.000912	9.124661	3.091519	-0.000365
 777	7.7212e+01	9.0816	87.739071	0.000953	9.530201	3.228920	-0.000381
 778	7.7311e+01	9.0399	87.399952	0.000852	8.516350	2.885417	-0.000341
 779	7.7411e+01	9.0046	87.060832	0.000852	8.516350	2.885417	-0.000341
 780	7.7510e+01	8.9612	86.725750	0.000841	8.414965	2.851067	-0.000337
 781	7.7610e+01	8.9179	86.362408	0.000912	9.124661	3.091519	-0.000365
 782	7.7710e+01	8.8794	86.035400	0.000821	8.212195	2.782367	-0.000329
 783	7.7809e+01	8.8489	85.639760	0.000994	9.935742	3.366320	-0.000398
 784	7.7909e+01	8.8040	85.341012	0.000750	7.502499	2.541915	-0.000300
 785	7.8008e+01	8.7655	84.961522	0.000953	9.530201	3.228920	-0.000381
 786	7.8108e+01	8.7190	84.610291	0.000882	8.820505	2.988468	-0.000353
 787	7.8207e+01	8.6789	84.275209	0.000841	8.414965	2.851067	-0.000337
 788	7.8306e+01	8.6436	83.923978	0.000882	8.820505	2.988468	-0.000353
 789	7.8406e+01	8.5923	83.560636	0.000912	9.124661	3.091519	-0.000365
 790	7.8505e+01	8.5586	83.261887	0.000750	7.502499	2.541915	-0.000300
 791	7.8605e+01	8.5281	82.930842	0.000831	8.313580	2.816717	-0.000333
 792	7.8704e+01	8.4896	82.591723	0.000852	8.516350	2.885417	-0.000341
 793	7.8804e+01	8.4495	82.188009	0.001014	10.138512	3.435021	-0.000406
 794	7.8903e+01	8.4030	81.848890	0.000852	8.516350	2.885417	-0.000341
 795	7.9003e+01	8.3597	81.465362	0.000963	9.631586	3.263270	-0.000385
 796	7.9103e+01	8.3244	81.150465	0.000791	7.908039	2.679316	-0.000316
 797	7.9202e+01	8.2730	80.766938	0.000963	9.631586	3.263270	-0.000385
 798	7.9302e+01	8.2490	80.391484	0.000943	9.428816	3.194569	-0.000377
 799	7.9401e+01	8.2040	80.060439	0.000831	8.313580	2.816717	-0.000333
 800	7.9501e+01	8.1671	79.709208	0.000882	8.820505	2.988468	-0.000353
 801	7.9600e+01	8.1222	79.357977	0.000882	8.820505	2.988468	-0.000353
 802	7.9700e+01	8.0853	78.994635	0.000912	9.124661	3.091519	-0.000365
 803	7.9799e+01	8.0404	78.659553	0.000841	8.414965	2.851067	-0.000337
 804	7.9898e+01	8.0003	78.296211	0.000912	9.124661	3.091519	-0.000365
 805	7.9998e+01	7.9570	77.957091	0.000852	8.516350	2.885417	-0.000341
 806	8.0097e+01	7.9185	77.581637	0.000943	9.428816	3.194569	-0.000377
 807	8.0197e+01	7.8896	77.315187	0.000669	6.691418	2.267114	-0.000268
 808	8.0296e+01	7.8463	76.972030	0.000862	8.617735	2.919768	-0.000345
 809	8.0396e+01	7.8030	76.640985	0.000831	8.313580	2.816717	-0.000333
 810	8.0496e+01	7.7565	76.229197	0.001034	10.341282	3.503721	-0.000414
 811	8.0595e+01	7.7356	75.886040	0.000862	8.617735	2.919768	-0.000345
 812	8.0695e+01	7.6907	75.502513	0.000963	9.631586	3.263270	-0.000385
 813	8.0794e+01	7.6522	75.223950	0.000700	6.995573	2.370164	-0.000280
 814	8.0894e+01	7.6041	74.787940	0.001095	10.949593	3.709822	-0.000438
 815	8.0993e+01	7.5640	74.444783	0.000862	8.617735	2.919768	-0.000345
 816	8.1093e+01	7.5206	74.105664	0.000852	8.516350	2.885417	-0.000341
 817	8.1192e+01	7.4886	73.762507	0.000862	8.617735	2.919768	-0.000345
 818	8.1291e+01	7.4436	73.387053	0.000943	9.428816	3.194569	-0.000377
 819	8.1391e+01	7.4100	73.031786	0.000892	8.921890	3.022818	-0.000357
 820	8.1490e+01	7.3682	72.672480	0.000902	9.023276	3.057168	-0.000361
 821	8.1590e+01	7.3346	72.365658	0.000771	7.705269	2.610616	-0.000308
 822	8.1689e+01	7.2832	71.970019	0.000994	9.935742	3.366320	-0.000398
 823	8.1789e+01	7.2495	71.643011	0.000821	8.212195	2.782367	-0.000329
 824	8.1888e+01	7.2014	71.279669	0.000912	9.124661	3.091519	-0.000365
 825	8.1988e+01	7.1629	70.956698	0.000811	8.110809	2.748017	-0.000325
 826	8.2088e+01	7.1292	70.605467	0.000882	8.820505	2.988468	-0.000353
 827	8.2187e+01	7.0891	70.213865	0.000983	9.834356	3.331970	-0.000394
 828	8.2287e+01	7.0410	69.866671	0.000872	8.719120	2.954118	-0.000349
 829	8.2386e+01	7.0121	69.462958	0.001014	10.138512	3.435021	-0.000406
 830	8.2486e+01	6.9784	69.123838	0.000852	8.516350	2.885417	-0.000341
 831	8.2585e+01	6.9271	68.756459	0.000923	9.226046	3.125869	-0.000369
 832	8.2684e+01	6.8934	68.360819	0.000994	9.935742	3.366320	-0.000398
 833	8.2784e+01	6.8469	67.969217	0.000983	9.834356	3.331970	-0.000394
 834	8.2883e+01	6.8084	67.662395	0.000771	7.705269	2.610616	-0.000308
 835	8.2983e+01	6.7795	67.303090	0.000902	9.023276	3.057168	-0.000361
 836	8.3082e+01	6.7233	66.943785	0.000902	9.023276	3.057168	-0.000361
 837	8.3182e+01	6.6816	66.552183	0.000983	9.834356	3.331970	-0.000394
 838	8.3281e+01	6.6479	66.245360	0.000771	7.705269	2.610616	-0.000308
 839	8.3381e+01	6.6126	65.845684	0.001004	10.037127	3.400671	-0.000402
 840	8.3481e+01	6.5758	65.542899	0.000760	7.603884	2.576266	-0.000304
 841	8.3580e+01	6.5324	65.118999	0.001065	10.645437	3.606772	-0.000426
 842	8.3680e+01	6.4811	64.763732	0.000892	8.921890	3.022818	-0.000357
 843	8.3779e+01	6.4490	64.509392	0.000639	6.387262	2.164063	-0.000256
 844	8.3879e+01	6.4153	64.109716	0.001004	10.037127	3.400671	-0.000402
 845	8.3978e+01	6.3800	63.726188	0.000963	9.631586	3.263270	-0.000385
 846	8.4078e+01	6.3383	63.358808	0.000923	9.226046	3.125869	-0.000369
 847	8.4177e+01	6.2918	62.959132	0.001004	10.037127	3.400671	-0.000402
 848	8.4276e+01	6.2629	62.628087	0.000831	8.313580	2.816717	-0.000333
 849	8.4376e+01	6.2132	62.244559	0.000963	9.631586	3.263270	-0.000385
 850	8.4475e+01	6.1779	61.865068	0.000953	9.530201	3.228920	-0.000381
 851	8.4575e+01	6.1362	61.501726	0.000912	9.124661	3.091519	-0.000365
 852	8.4674e+01	6.0929	61.126272	0.000943	9.428816	3.194569	-0.000377
 853	8.4774e+01	6.0528	60.787153	0.000852	8.516350	2.885417	-0.000341
 854	8.4874e+01	6.0079	60.391514	0.000994	9.935742	3.366320	-0.000398
 855	8.4973e+01	5.9694	60.036246	0.000892	8.921890	3.022818	-0.000357
 856	8.5073e+01	5.9292	59.701163	0.000841	8.414965	2.851067	-0.000337
 857	8.5172e+01	5.8988	59.305524	0.000994	9.935742	3.366320	-0.000398
 858	8.5272e+01	5.8458	58.962367	0.000862	8.617735	2.919768	-0.000345
 859	8.5371e+01	5.8089	58.590951	0.000933	9.327431	3.160219	-0.000373
 860	8.5471e+01	5.7736	58.219534	0.000933	9.327431	3.160219	-0.000373
 861	8.5570e+01	5.7383	57.912712	0.000771	7.705269	2.610616	-0.000308
 862	8.5669e+01	5.7014	57.513036	0.001004	10.037127	3.400671	-0.000402
 863	8.5769e+01	5.6565	57.121434	0.000983	9.834356	3.331970	-0.000394
 864	8.5868e+01	5.6132	56.725794	0.000994	9.935742	3.366320	-0.000398
 865	8.5968e+01	5.5811	56.358415	0.000923	9.226046	3.125869	-0.000369
 866	8.6067e+01	5.5410	56.023333	0.000841	8.414965	2.851067	-0.000337
 867	8.6167e+01	5.4913	55.639805	0.000963	9.631586	3.263270	-0.000385
 868	8.6266e+01	5.4560	55.260314	0.000953	9.530201	3.228920	-0.000381
 869	8.6366e+01	5.4191	54.884860	0.000943	9.428816	3.194569	-0.000377
 870	8.6466e+01	5.3694	54.529592	0.000892	8.921890	3.022818	-0.000357
 871	8.6565e+01	5.3293	54.182399	0.000872	8.719120	2.954118	-0.000349
 872	8.6665e+01	5.2956	53.790797	0.000983	9.834356	3.331970	-0.000394
 873	8.6764e+01	5.2619	53.439566	0.000882	8.820505	2.988468	-0.000353
 874	8.6864e+01	5.2073	53.072186	0.000923	9.226046	3.125869	-0.000369
 875	8.6963e+01	5.1704	52.680584	0.000983	9.834356	3.331970	-0.000394
 876	8.7063e+01	5.1303	52.293019	0.000973	9.732971	3.297620	-0.000390
 877	8.7162e+01	5.0950	51.941788	0.000882	8.820505	2.988468	-0.000353
 878	8.7261e+01	5.0549	51.566335	0.000943	9.428816	3.194569	-0.000377
 879	8.7361e+01	5.0164	51.202993	0.000912	9.124661	3.091519	-0.000365
 880	8.7460e+01	4.9860	50.851762	0.000882	8.820505	2.988468	-0.000353
 881	8.7560e+01	4.9426	50.423825	0.001075	10.746823	3.641122	-0.000430
 882	8.7659e+01	4.8977	50.096817	0.000821	8.212195	2.782367	-0.000329
 883	8.7759e+01	4.8592	49.721364	0.000943	9.428816	3.194569	-0.000377
 884	8.7859e+01	4.8255	49.358022	0.000912	9.124661	3.091519	-0.000365
 885	8.7958e+01	4.7870	48.926048	0.001085	10.848208	3.675472	-0.000434
 886	8.8058e+01	4.7373	48.627300	0.000750	7.502499	2.541915	-0.000300
 887	8.8157e+01	4.6940	48.231661	0.000994	9.935742	3.366320	-0.000398
 888	8.8257e+01	4.6603	47.880430	0.000882	8.820505	2.988468	-0.000353
 889	8.8356e+01	4.6154	47.456531	0.001065	10.645437	3.606772	-0.000426
 890	8.8456e+01	4.5817	47.085114	0.000933	9.327431	3.160219	-0.000373
 891	8.8555e+01	4.5416	46.733883	0.000882	8.820505	2.988468	-0.000353
 892	8.8654e+01	4.5047	46.338244	0.000994	9.935742	3.366320	-0.000398
 893	8.8754e+01	4.4534	45.982976	0.000892	8.921890	3.022818	-0.000357
 894	8.8853e+01	4.4245	45.595411	0.000973	9.732971	3.297620	-0.000390
 895	8.8953e+01	4.3747	45.228032	0.000923	9.226046	3.125869	-0.000369
 896	8.9052e+01	4.3411	44.816244	0.001034	10.341282	3.503721	-0.000414
 897	8.9152e+01	4.2961	44.541719	0.000689	6.894188	2.335814	-0.000276
 898	8.9251e+01	4.2705	44.101671	0.001105	11.050978	3.744173	-0.000442
 899	8.9351e+01	4.2239	43.689883	0.001034	10.341282	3.503721	-0.000414
 900	8.9451e+01	4.1838	43.334615	0.000892	8.921890	3.022818	-0.000357
 901	8.9550e+01	4.1405	42.926864	0.001024	10.239897	3.469371	-0.000410
 902	8.9650e+01	4.0908	42.535262	0.000983	9.834356	3.331970	-0.000394
 903	8.9749e+01	4.0587	42.200180	0.000841	8.414965	2.851067	-0.000337
 904	8.9849e+01	4.0218	41.804541	0.000994	9.935742	3.366320	-0.000398
 905	8.9948e+01	3.9753	41.437161	0.000923	9.226046	3.125869	-0.000369
 906	9.0047e+01	3.9464	41.017299	0.001054	10.544052	3.572422	-0.000422
 907	9.0147e+01	3.8983	40.666068	0.000882	8.820505	2.988468	-0.000353
 908	9.0246e+01	3.8598	40.278503	0.000973	9.732971	3.297620	-0.000390
 909	9.0346e+01	3.8245	39.907087	0.000933	9.327431	3.160219	-0.000373
 910	9.0445e+01	3.7764	39.539707	0.000923	9.226046	3.125869	-0.000369
 911	9.0545e+01	3.7427	39.135994	0.001014	10.138512	3.435021	-0.000406
 912	9.0644e+01	3.6865	38.788800	0.000872	8.719120	2.954118	-0.000349
 913	9.0744e+01	3.6609	38.417384	0.000933	9.327431	3.160219	-0.000373
 914	9.0844e+01	3.6288	38.082301	0.000841	8.414965	2.851067	-0.000337
 915	9.0943e+01	3.5823	37.718959	0.000912	9.124661	3.091519	-0.000365
 916	9.1043e+01	3.5454	37.347543	0.000933	9.327431	3.160219	-0.000373
 917	9.1142e+01	3.5036	36.931718	0.001044	10.442667	3.538071	-0.000418
 918	9.1242e+01	3.4716	36.544153	0.000973	9.732971	3.297620	-0.000390
 919	9.1341e+01	3.4250	36.148513	0.000994	9.935742	3.366320	-0.000398
 920	9.1441e+01	3.3849	35.809394	0.000852	8.516350	2.885417	-0.000341
 921	9.1540e+01	3.3464	35.385495	0.001065	10.645437	3.606772	-0.000426
 922	9.1639e+01	3.3176	34.997930	0.000973	9.732971	3.297620	-0.000390
 923	9.1739e+01	3.2694	34.646699	0.000882	8.820505	2.988468	-0.000353
 924	9.1838e+01	3.2245	34.283357	0.000912	9.124661	3.091519	-0.000365
 925	9.1938e+01	3.1828	33.899829	0.000963	9.631586	3.263270	-0.000385
 926	9.2037e+01	3.1459	33.532449	0.000923	9.226046	3.125869	-0.000369
 927	9.2137e+01	3.1074	33.173144	0.000902	9.023276	3.057168	-0.000361
 928	9.2237e+01	3.0641	32.753282	0.001054	10.544052	3.572422	-0.000422
 929	9.2336e+01	3.0272	32.406089	0.000872	8.719120	2.954118	-0.000349
 930	9.2436e+01	2.9919	32.038709	0.000923	9.226046	3.125869	-0.000369
 931	9.2535e+01	2.9470	31.707664	0.000831	8.313580	2.816717	-0.000333
 932	9.2635e+01	2.8988	31.356433	0.000882	8.820505	2.988468	-0.000353
 933	9.2734e+01	2.8620	30.924460	0.001085	10.848208	3.675472	-0.000434
 934	9.2834e+01	2.8299	30.565155	0.000902	9.023276	3.057168	-0.000361
 935	9.2933e+01	2.7849	30.108958	0.001146	11.456518	3.881573	-0.000458
 936	9.3032e+01	2.7400	29.790025	0.000801	8.009424	2.713666	-0.000321
 937	9.3132e+01	2.7112	29.394385	0.000994	9.935742	3.366320	-0.000398
 938	9.3231e+01	2.6727	28.974523	0.001054	10.544052	3.572422	-0.000422
 939	9.3331e+01	2.6229	28.651552	0.000811	8.110809	2.748017	-0.000325
 940	9.3430e+01	2.5844	28.223616	0.001075	10.746823	3.641122	-0.000430
 941	9.3530e+01	2.5395	27.852199	0.000933	9.327431	3.160219	-0.000373
 942	9.3629e+01	2.5042	27.500969	0.000882	8.820505	2.988468	-0.000353
 943	9.3729e+01	2.4641	27.117441	0.000963	9.631586	3.263270	-0.000385
 944	9.3829e+01	2.4272	26.713727	0.001014	10.138512	3.435021	-0.000406
 945	9.3928e+01	2.3855	26.378645	0.000841	8.414965	2.851067	-0.000337
 946	9.4028e+01	2.3470	25.966857	0.001034	10.341282	3.503721	-0.000414
 947	9.4127e+01	2.3069	25.599478	0.000923	9.226046	3.125869	-0.000369
 948	9.4227e+01	2.2700	25.260358	0.000852	8.516350	2.885417	-0.000341
 949	9.4326e+01	2.2331	24.876830	0.000963	9.631586	3.263270	-0.000385
 950	9.4425e+01	2.1802	24.485228	0.000983	9.834356	3.331970	-0.000394
 951	9.4525e+01	2.1481	24.093626	0.000983	9.834356	3.331970	-0.000394
 952	9.4624e+01	2.1128	23.742395	0.000882	8.820505	2.988468	-0.000353
 953	9.4724e+01	2.0695	23.350793	0.000983	9.834356	3.331970	-0.000394
 954	9.4823e+01	2.0294	22.983414	0.000923	9.226046	3.125869	-0.000369
 955	9.4923e+01	1.9828	22.571626	0.001034	10.341282	3.503721	-0.000414
 956	9.5022e+01	1.9427	22.188098	0.000963	9.631586	3.263270	-0.000385
 957	9.5122e+01	1.9042	21.824756	0.000912	9.124661	3.091519	-0.000365
 958	9.5222e+01	1.8625	21.421042	0.001014	10.138512	3.435021	-0.000406
 959	9.5321e+01	1.8336	21.037514	0.000963	9.631586	3.263270	-0.000385
 960	9.5421e+01	1.7919	20.670135	0.000923	9.226046	3.125869	-0.000369
 961	9.5520e+01	1.7518	20.290644	0.000953	9.530201	3.228920	-0.000381
 962	9.5620e+01	1.7085	19.939413	0.000882	8.820505	2.988468	-0.000353
 963	9.5719e+01	1.6684	19.527626	0.001034	10.341282	3.503721	-0.000414
 964	9.5819e+01	1.6347	19.148135	0.000953	9.530201	3.228920	-0.000381
 965	9.5918e+01	1.5866	18.780755	0.000923	9.226046	3.125869	-0.000369
 966	9.6017e+01	1.5481	18.457785	0.000811	8.110809	2.748017	-0.000325
 967	9.6117e+01	1.5144	18.082331	0.000943	9.428816	3.194569	-0.000377
 968	9.6216e+01	1.4647	17.678617	0.001014	10.138512	3.435021	-0.000406
 969	9.6316e+01	1.4438	17.311238	0.000923	9.226046	3.125869	-0.000369
 970	9.6415e+01	1.3989	16.891376	0.001054	10.544052	3.572422	-0.000422
 971	9.6515e+01	1.3508	16.495737	0.000994	9.935742	3.366320	-0.000398
 972	9.6615e+01	1.3091	16.140469	0.000892	8.921890	3.022818	-0.000357
 973	9.6714e+01	1.2738	15.748867	0.000983	9.834356	3.331970	-0.000394
 974	9.6814e+01	1.2224	15.377450	0.000933	9.327431	3.160219	-0.000373
 975	9.6913e+01	1.1855	15.001996	0.000943	9.428816	3.194569	-0.000377
 976	9.7013e+01	1.1534	14.622506	0.000953	9.530201	3.228920	-0.000381
 977	9.7112e+01	1.1069	14.210718	0.001034	10.341282	3.503721	-0.000414
 978	9.7212e+01	1.0780	13.847376	0.000912	9.124661	3.091519	-0.000365
 979	9.7311e+01	1.0379	13.504219	0.000862	8.617735	2.919768	-0.000345
 980	9.7410e+01	0.9866	13.112617	0.000983	9.834356	3.331970	-0.000394
 981	9.7510e+01	0.9513	12.725052	0.000973	9.732971	3.297620	-0.000390
 982	9.7609e+01	0.9080	12.365747	0.000902	9.023276	3.057168	-0.000361
 983	9.7709e+01	0.8791	12.030664	0.000841	8.414965	2.851067	-0.000337
 984	9.7808e+01	0.8342	11.659248	0.000933	9.327431	3.160219	-0.000373
 985	9.7908e+01	0.7813	11.259572	0.001004	10.037127	3.400671	-0.000402
 986	9.8007e+01	0.7508	10.916415	0.000862	8.617735	2.919768	-0.000345
 987	9.8107e+01	0.7155	10.476367	0.001105	11.050978	3.744173	-0.000442
 988	9.8207e+01	0.6690	10.117062	0.000902	9.023276	3.057168	-0.000361
 989	9.8306e+01	0.6369	9.709311	0.001024	10.239897	3.469371	-0.000410
 990	9.8406e+01	0.5920	9.354044	0.000892	8.921890	3.022818	-0.000357
 991	9.8505e+01	0.5519	8.918033	0.001095	10.949593	3.709822	-0.000438
 992	9.8605e+01	0.5069	8.542579	0.000943	9.428816	3.194569	-0.000377
 993	9.8704e+01	0.4716	8.195386	0.000872	8.719120	2.954118	-0.000349
 994	9.8803e+01	0.4283	7.799746	0.000994	9.935742	3.366320	-0.000398
 995	9.8903e+01	0.3914	7.412181	0.000973	9.732971	3.297620	-0.000390
 996	9.9002e+01	0.3497	7.036728	0.000943	9.428816	3.194569	-0.000377
 997	9.9102e+01	0.3096	6.653200	0.000963	9.631586	3.263270	-0.000385
 998	9.9201e+01	0.2823	6.257560	0.000994	9.935742	3.366320	-0.000398
 999	9.9301e+01	0.2422	5.902292	0.000892	8.921890	3.022818	-0.000357
1000	9.9400e+01	0.2005	5.542987	0.000902	9.023276	3.057168	-0.000361
1001	9.9500e+01	0.1524	5.195794	0.000872	8.719120	2.954118	-0.000349
1002	9.9600e+01	0.1155	4.767857	0.001075	10.746823	3.641122	-0.000430
1003	9.9699e+01	0.0738	4.396441	0.000933	9.327431	3.160219	-0.000373
1004	9.9799e+01	0.0417	3.992727	0.001014	10.138512	3.435021	-0.000406
1005	9.9898e+01	0.0032	3.665719	0.000821	8.212195	2.782367	-0.000329
1006	9.9998e+01	-0.0337	3.266043	0.001004	10.037127	3.400671	-0.000402
1007	1.0010e+02	-0.0754	2.870404	0.000994	9.935742	3.366320	-0.000398
1008	1.0020e+02	-0.1187	2.494950	0.000943	9.428816	3.194569	-0.000377
1009	1.0030e+02	-0.1492	2.123533	0.000933	9.327431	3.160219	-0.000373
1010	1.0040e+02	-0.1973	1.727894	0.000994	9.935742	3.366320	-0.000398
1011	1.0050e+02	-0.2406	1.336292	0.000983	9.834356	3.331970	-0.000394
1012	1.0059e+02	-0.2695	0.948727	0.000973	9.732971	3.297620	-0.000390
1013	1.0069e+02	-0.3176	0.613645	0.000841	8.414965	2.851067	-0.000337
1014	1.0079e+02	-0.3545	0.193783	0.001054	10.544052	3.572422	-0.000422
1015	1.0089e+02	-0.3978	-0.145337	0.000852	8.516350	2.885417	-0.000341
1016	1.0099e+02	-0.4380	-0.545013	0.001004	10.037127	3.400671	-0.000402
1017	1.0109e+02	-0.4749	-0.892207	0.000872	8.719120	2.954118	-0.000349
1018	1.0119e+02	-0.5150	-1.227289	0.000841	8.414965	2.851067	-0.000337
1019	1.0129e+02	-0.5535	-1.655226	0.001075	10.746823	3.641122	-0.000430
1020	1.0139e+02	-0.5936	-2.062976	0.001024	10.239897	3.469371	-0.000410
1021	1.0149e+02	-0.6321	-2.458616	0.000994	9.935742	3.366320	-0.000398
1022	1.0159e+02	-0.6706	-2.846181	0.000973	9.732971	3.297620	-0.000390
1023	1.0169e+02	-0.7075	-3.237783	0.000983	9.834356	3.331970	-0.000394
1024	1.0179e+02	-0.7556	-3.625348	0.000973	9.732971	3.297620	-0.000390
1025	1.0189e+02	-0.7973	-4.008876	0.000963	9.631586	3.263270	-0.000385
1026	1.0199e+02	-0.8342	-4.432775	0.001065	10.645437	3.606772	-0.000426
1027	1.0209e+02	-0.8775	-4.800154	0.000923	9.226046	3.125869	-0.000369
1028	1.0219e+02	-0.9016	-5.175608	0.000943	9.428816	3.194569	-0.000377
1029	1.0229e+02	-0.9577	-5.530876	0.000892	8.921890	3.022818	-0.000357
1030	1.0239e+02	-0.9914	-5.946701	0.001044	10.442667	3.538071	-0.000418
1031	1.0248e+02	-1.0331	-6.301969	0.000892	8.921890	3.022818	-0.000357
1032	1.0258e+02	-1.0764	-6.709720	0.001024	10.239897	3.469371	-0.000410
1033	1.0268e+02	-1.1133	-7.121507	0.001034	10.341282	3.503721	-0.000414
1034	1.0278e+02	-1.1550	-7.444478	0.000811	8.110809	2.748017	-0.000325
1035	1.0288e+02	-1.1968	-7.823969	0.000953	9.530201	3.228920	-0.000381
1036	1.0298e+02	-1.2256	-8.179237	0.000892	8.921890	3.022818	-0.000357
1037	1.0308e+02	-1.2706	-8.578913	0.001004	10.037127	3.400671	-0.000402
1038	1.0318e+02	-1.2994	-8.974553	0.000994	9.935742	3.366320	-0.000398
1039	1.0328e+02	-1.3572	-9.390378	0.001044	10.442667	3.538071	-0.000418
1040	1.0338e+02	-1.3893	-9.761794	0.000933	9.327431	3.160219	-0.000373
1041	1.0348e+02	-1.4230	-10.145322	0.000963	9.631586	3.263270	-0.000385
1042	1.0358e+02	-1.4711	-10.569221	0.001065	10.645437	3.606772	-0.000426
1043	1.0368e+02	-1.5176	-10.916415	0.000872	8.719120	2.954118	-0.000349
1044	1.0378e+02	-1.5497	-11.295906	0.000953	9.530201	3.228920	-0.000381
1045	1.0388e+02	-1.5882	-11.667322	0.000933	9.327431	3.160219	-0.000373
1046	1.0398e+02	-1.6283	-12.058924	0.000983	9.834356	3.331970	-0.000394
1047	1.0408e+02	-1.6748	-12.466675	0.001024	10.239897	3.469371	-0.000410
1048	1.0418e+02	-1.7101	-12.821943	0.000892	8.921890	3.022818	-0.000357
1049	1.0428e+02	-1.7550	-13.197397	0.000943	9.428816	3.194569	-0.000377
1050	1.0438e+02	-1.7951	-13.605147	0.001024	10.239897	3.469371	-0.000410
1051	1.0447e+02	-1.8304	-13.960415	0.000892	8.921890	3.022818	-0.000357
1052	1.0457e+02	-1.8770	-14.315683	0.000892	8.921890	3.022818	-0.000357
1053	1.0467e+02	-1.9203	-14.727471	0.001034	10.341282	3.503721	-0.000414
1054	1.0477e+02	-1.9556	-15.078702	0.000882	8.820505	2.988468	-0.000353
1055	1.0487e+02	-1.9892	-15.450118	0.000933	9.327431	3.160219	-0.000373
1056	1.0497e+02	-2.0326	-15.869981	0.001054	10.544052	3.572422	-0.000422
1057	1.0507e+02	-2.0679	-16.289843	0.001054	10.544052	3.572422	-0.000422
1058	1.0517e+02	-2.1064	-16.657222	0.000923	9.226046	3.125869	-0.000369
1059	1.0527e+02	-2.1400	-17.048824	0.000983	9.834356	3.331970	-0.000394
1060	1.0537e+02	-2.1818	-17.476761	0.001075	10.746823	3.641122	-0.000430
1061	1.0547e+02	-2.2331	-17.823954	0.000872	8.719120	2.954118	-0.000349
1062	1.0557e+02	-2.2684	-18.215556	0.000983	9.834356	3.331970	-0.000394
1063	1.0567e+02	-2.3101	-18.586973	0.000933	9.327431	3.160219	-0.000373
1064	1.0577e+02	-2.3518	-18.970501	0.000963	9.631586	3.263270	-0.000385
1065	1.0587e+02	-2.3823	-19.374214	0.001014	10.138512	3.435021	-0.000406
1066	1.0597e+02	-2.4320	-19.745631	0.000933	9.327431	3.160219	-0.000373
1067	1.0607e+02	-2.4593	-20.113010	0.000923	9.226046	3.125869	-0.000369
1068	1.0617e+02	-2.4994	-20.553058	0.001105	11.050978	3.744173	-0.000442
1069	1.0627e+02	-2.5459	-20.884103	0.000831	8.313580	2.816717	-0.000333
1070	1.0637e+02	-2.5828	-21.259557	0.000943	9.428816	3.194569	-0.000377
1071	1.0647e+02	-2.6342	-21.626936	0.000923	9.226046	3.125869	-0.000369
1072	1.0656e+02	-2.6759	-22.030650	0.001014	10.138512	3.435021	-0.000406
1073	1.0666e+02	-2.7015	-22.418215	0.000973	9.732971	3.297620	-0.000390
1074	1.0676e+02	-2.7448	-22.850188	0.001085	10.848208	3.675472	-0.000434
1075	1.0686e+02	-2.7866	-23.209493	0.000902	9.023276	3.057168	-0.000361
1076	1.0696e+02	-2.8170	-23.564761	0.000892	8.921890	3.022818	-0.000357
1077	1.0706e+02	-2.8603	-23.972512	0.001024	10.239897	3.469371	-0.000410
1078	1.0716e+02	-2.9021	-24.360077	0.000973	9.732971	3.297620	-0.000390
1079	1.0726e+02	-2.9454	-24.771865	0.001034	10.341282	3.503721	-0.000414
1080	1.0736e+02	-2.9791	-25.131170	0.000902	9.023276	3.057168	-0.000361
1081	1.0746e+02	-3.0240	-25.498549	0.000923	9.226046	3.125869	-0.000369
1082	1.0756e+02	-3.0721	-25.861892	0.000912	9.124661	3.091519	-0.000365
1083	1.0766e+02	-3.1090	-26.285791	0.001065	10.645437	3.606772	-0.000426
1084	1.0776e+02	-3.1523	-26.632984	0.000872	8.719120	2.954118	-0.000349
1085	1.0786e+02	-3.1844	-26.984215	0.000882	8.820505	2.988468	-0.000353
1086	1.0796e+02	-3.2261	-27.335446	0.000882	8.820505	2.988468	-0.000353
1087	1.0806e+02	-3.2582	-27.710900	0.000943	9.428816	3.194569	-0.000377
1088	1.0816e+02	-3.3031	-28.070205	0.000902	9.023276	3.057168	-0.000361
1089	1.0826e+02	-3.3384	-28.481993	0.001034	10.341282	3.503721	-0.000414
1090	1.0836e+02	-3.3865	-28.901855	0.001054	10.544052	3.572422	-0.000422
1091	1.0845e+02	-3.4282	-29.253086	0.000882	8.820505	2.988468	-0.000353
1092	1.0855e+02	-3.4651	-29.660836	0.001024	10.239897	3.469371	-0.000410
1093	1.0865e+02	-3.5020	-30.028216	0.000923	9.226046	3.125869	-0.000369
1094	1.0875e+02	-3.5470	-30.387521	0.000902	9.023276	3.057168	-0.000361
1095	1.0885e+02	-3.5839	-30.775086	0.000973	9.732971	3.297620	-0.000390
1096	1.0895e+02	-3.6191	-31.186874	0.001034	10.341282	3.503721	-0.000414
1097	1.0905e+02	-3.6560	-31.566364	0.000953	9.530201	3.228920	-0.000381
1098	1.0915e+02	-3.7026	-31.901447	0.000841	8.414965	2.851067	-0.000337
1099	1.0925e+02	-3.7491	-32.276900	0.000943	9.428816	3.194569	-0.000377
1100	1.0935e+02	-3.7844	-32.660428	0.000963	9.631586	3.263270	-0.000385
1101	1.0945e+02	-3.8213	-33.076253	0.001044	10.442667	3.538071	-0.000418
1102	1.0955e+02	-3.8630	-33.379038	0.000760	7.603884	2.576266	-0.000304
1103	1.0965e+02	-3.9047	-33.726232	0.000872	8.719120	2.954118	-0.000349
1104	1.0975e+02	-3.9432	-34.121871	0.000994	9.935742	3.366320	-0.000398
1105	1.0985e+02	-3.9721	-34.489251	0.000923	9.226046	3.125869	-0.000369
1106	1.0995e+02	-4.0170	-34.876816	0.000973	9.732971	3.297620	-0.000390
1107	1.1005e+02	-4.0587	-35.276492	0.001004	10.037127	3.400671	-0.000402
1108	1.1015e+02	-4.1004	-35.660020	0.000963	9.631586	3.263270	-0.000385
1109	1.1025e+02	-4.1325	-36.023362	0.000912	9.124661	3.091519	-0.000365
1110	1.1035e+02	-4.1758	-36.419001	0.000994	9.935742	3.366320	-0.000398
1111	1.1044e+02	-4.2223	-36.786381	0.000923	9.226046	3.125869	-0.000369
1112	1.1054e+02	-4.2560	-37.165872	0.000953	9.530201	3.228920	-0.000381
1113	1.1064e+02	-4.3058	-37.545362	0.000953	9.530201	3.228920	-0.000381
1114	1.1074e+02	-4.3443	-37.904667	0.000902	9.023276	3.057168	-0.000361
1115	1.1084e+02	-4.3763	-38.280121	0.000943	9.428816	3.194569	-0.000377
1116	1.1094e+02	-4.4261	-38.627315	0.000872	8.719120	2.954118	-0.000349
1117	1.1104e+02	-4.4566	-39.051214	0.001065	10.645437	3.606772	-0.000426
1118	1.1114e+02	-4.5031	-39.438779	0.000973	9.732971	3.297620	-0.000390
1119	1.1124e+02	-4.5416	-39.761750	0.000811	8.110809	2.748017	-0.000325
1120	1.1134e+02	-4.5817	-40.137204	0.000943	9.428816	3.194569	-0.000377
1121	1.1144e+02	-4.6170	-40.496509	0.000902	9.023276	3.057168	-0.000361
1122	1.1154e+02	-4.6571	-40.831591	0.000841	8.414965	2.851067	-0.000337
1123	1.1164e+02	-4.6908	-41.211082	0.000953	9.530201	3.228920	-0.000381
1124	1.1174e+02	-4.7389	-41.618832	0.001024	10.239897	3.469371	-0.000410
1125	1.1184e+02	-4.7854	-41.974100	0.000892	8.921890	3.022818	-0.000357
1126	1.1194e+02	-4.8095	-42.406074	0.001085	10.848208	3.675472	-0.000434
1127	1.1204e+02	-4.8496	-42.720970	0.000791	7.908039	2.679316	-0.000316
1128	1.1214e+02	-4.9041	-43.112573	0.000983	9.834356	3.331970	-0.000394
1129	1.1224e+02	-4.9491	-43.500138	0.000973	9.732971	3.297620	-0.000390
1130	1.1234e+02	-4.9827	-43.891740	0.000983	9.834356	3.331970	-0.000394
1131	1.1244e+02	-5.0084	-44.251045	0.000902	9.023276	3.057168	-0.000361
1132	1.1253e+02	-5.0517	-44.569979	0.000801	8.009424	2.713666	-0.000321
1133	1.1263e+02	-5.0999	-45.001952	0.001085	10.848208	3.675472	-0.000434
1134	1.1273e+02	-5.1368	-45.349146	0.000872	8.719120	2.954118	-0.000349
1135	1.1283e+02	-5.1688	-45.676154	0.000821	8.212195	2.782367	-0.000329
1136	1.1293e+02	-5.2186	-46.075830	0.001004	10.037127	3.400671	-0.000402
1137	1.1303e+02	-5.2603	-46.451284	0.000943	9.428816	3.194569	-0.000377
1138	1.1313e+02	-5.2876	-46.810589	0.000902	9.023276	3.057168	-0.000361
1139	1.1323e+02	-5.3517	-47.109337	0.000750	7.502499	2.541915	-0.000300
1140	1.1333e+02	-5.3838	-47.480753	0.000933	9.327431	3.160219	-0.000373
1141	1.1343e+02	-5.4223	-47.868318	0.000973	9.732971	3.297620	-0.000390
1142	1.1353e+02	-5.4528	-48.199364	0.000831	8.313580	2.816717	-0.000333
1143	1.1363e+02	-5.5025	-48.574817	0.000943	9.428816	3.194569	-0.000377
1144	1.1373e+02	-5.5330	-48.978531	0.001014	10.138512	3.435021	-0.000406
1145	1.1383e+02	-5.5795	-49.345910	0.000923	9.226046	3.125869	-0.000369
1146	1.1393e+02	-5.6196	-49.729438	0.000963	9.631586	3.263270	-0.000385
1147	1.1403e+02	-5.6565	-50.112966	0.000963	9.631586	3.263270	-0.000385
1148	1.1413e+02	-5.7063	-50.444011	0.000831	8.313580	2.816717	-0.000333
1149	1.1423e+02	-5.7415	-50.855799	0.001034	10.341282	3.503721	-0.000414
1150	1.1433e+02	-5.7656	-51.190881	0.000841	8.414965	2.851067	-0.000337
1151	1.1442e+02	-5.8202	-51.562298	0.000933	9.327431	3.160219	-0.000373
1152	1.1452e+02	-5.8538	-51.929677	0.000923	9.226046	3.125869	-0.000369
1153	1.1462e+02	-5.8988	-52.280908	0.000882	8.820505	2.988468	-0.000353
1154	1.1472e+02	-5.9469	-52.624064	0.000862	8.617735	2.919768	-0.000345
1155	1.1482e+02	-5.9742	-53.023741	0.001004	10.037127	3.400671	-0.000402
1156	1.1492e+02	-6.0223	-53.314415	0.000730	7.299728	2.473215	-0.000292
1157	1.1502e+02	-6.0512	-53.701980	0.000973	9.732971	3.297620	-0.000390
1158	1.1512e+02	-6.0881	-54.053210	0.000882	8.820505	2.988468	-0.000353
1159	1.1522e+02	-6.1234	-54.416553	0.000912	9.124661	3.091519	-0.000365
1160	1.1532e+02	-6.1635	-54.779895	0.000912	9.124661	3.091519	-0.000365
1161	1.1542e+02	-6.2164	-55.167460	0.000973	9.732971	3.297620	-0.000390
1162	1.1552e+02	-6.2565	-55.591359	0.001065	10.645437	3.606772	-0.000426
1163	1.1562e+02	-6.2902	-55.890107	0.000750	7.502499	2.541915	-0.000300
1164	1.1572e+02	-6.3287	-56.293821	0.001014	10.138512	3.435021	-0.000406
1165	1.1582e+02	-6.3672	-56.669274	0.000943	9.428816	3.194569	-0.000377
1166	1.1592e+02	-6.4121	-57.060877	0.000983	9.834356	3.331970	-0.000394
1167	1.1602e+02	-6.4506	-57.363662	0.000760	7.603884	2.576266	-0.000304
1168	1.1612e+02	-6.4907	-57.722967	0.000902	9.023276	3.057168	-0.000361
1169	1.1622e+02	-6.5308	-58.098420	0.000943	9.428816	3.194569	-0.000377
1170	1.1632e+02	-6.5645	-58.437540	0.000852	8.516350	2.885417	-0.000341
1171	1.1642e+02	-6.6062	-58.780696	0.000862	8.617735	2.919768	-0.000345
1172	1.1651e+02	-6.6528	-59.184410	0.001014	10.138512	3.435021	-0.000406
1173	1.1661e+02	-6.6929	-59.495269	0.000781	7.806654	2.644966	-0.000312
1174	1.1671e+02	-6.7362	-59.890909	0.000994	9.935742	3.366320	-0.000398
1175	1.1681e+02	-6.7715	-60.234065	0.000862	8.617735	2.919768	-0.000345
1176	1.1691e+02	-6.8019	-60.597407	0.000912	9.124661	3.091519	-0.000365
1177	1.1701e+02	-6.8404	-60.968824	0.000933	9.327431	3.160219	-0.000373
1178	1.1711e+02	-6.8790	-61.316018	0.000872	8.719120	2.954118	-0.000349
1179	1.1721e+02	-6.9223	-61.683397	0.000923	9.226046	3.125869	-0.000369
1180	1.1731e+02	-6.9624	-62.091148	0.001024	10.239897	3.469371	-0.000410
1181	1.1741e+02	-7.0041	-62.450453	0.000902	9.023276	3.057168	-0.000361
1182	1.1751e+02	-7.0410	-62.838018	0.000973	9.732971	3.297620	-0.000390
1183	1.1761e+02	-7.0843	-63.144840	0.000771	7.705269	2.610616	-0.000308
1184	1.1771e+02	-7.1308	-63.520294	0.000943	9.428816	3.194569	-0.000377
1185	1.1781e+02	-7.1693	-63.895747	0.000943	9.428816	3.194569	-0.000377
1186	1.1791e+02	-7.2078	-64.251015	0.000892	8.921890	3.022818	-0.000357
1187	1.1801e+02	-7.2527	-64.614357	0.000912	9.124661	3.091519	-0.000365
1188	1.1811e+02	-7.2864	-65.014034	0.001004	10.037127	3.400671	-0.000402
1189	1.1821e+02	-7.3265	-65.353153	0.000852	8.516350	2.885417	-0.000341
1190	1.1831e+02	-7.3634	-65.676124	0.000811	8.110809	2.748017	-0.000325
1191	1.1841e+02	-7.4035	-66.095986	0.001054	10.544052	3.572422	-0.000422
1192	1.1850e+02	-7.4452	-66.394734	0.000750	7.502499	2.541915	-0.000300
1193	1.1860e+02	-7.4870	-66.737891	0.000862	8.617735	2.919768	-0.000345
1194	1.1870e+02	-7.5351	-67.129493	0.000983	9.834356	3.331970	-0.000394
1195	1.1880e+02	-7.5543	-67.525132	0.000994	9.935742	3.366320	-0.000398
1196	1.1890e+02	-7.6025	-67.872326	0.000872	8.719120	2.954118	-0.000349
1197	1.1900e+02	-7.6490	-68.247780	0.000943	9.428816	3.194569	-0.000377
1198	1.1910e+02	-7.6827	-68.590936	0.000862	8.617735	2.919768	-0.000345
1199	1.1920e+02	-7.7180	-68.938130	0.000872	8.719120	2.954118	-0.000349
1200	1.1930e+02	-7.7613	-69.277249	0.000852	8.516350	2.885417	-0.000341
1201	1.1940e+02	-7.8030	-69.680963	0.001014	10.138512	3.435021	-0.000406
1202	1.1950e+02	-7.8527	-70.032194	0.000882	8.820505	2.988468	-0.000353
1203	1.1960e+02	-7.8832	-70.375350	0.000862	8.617735	2.919768	-0.000345
1204	1.1970e+02	-7.9281	-70.746767	0.000933	9.327431	3.160219	-0.000373
1205	1.1980e+02	-7.9666	-71.118183	0.000933	9.327431	3.160219	-0.000373
1206	1.1990e+02	-8.0164	-71.473451	0.000892	8.921890	3.022818	-0.000357
1207	1.2000e+02	-8.0484	-71.808533	0.000841	8.414965	2.851067	-0.000337
1208	1.2010e+02	-8.0725	-72.183987	0.000943	9.428816	3.194569	-0.000377
1209	1.2020e+02	-8.1319	-72.523106	0.000852	8.516350	2.885417	-0.000341
1210	1.2030e+02	-8.1575	-72.858189	0.000841	8.414965	2.851067	-0.000337
1211	1.2039e+02	-8.2057	-73.213457	0.000892	8.921890	3.022818	-0.000357
1212	1.2049e+02	-8.2329	-73.588910	0.000943	9.428816	3.194569	-0.000377
1213	1.2059e+02	-8.2827	-73.980512	0.000983	9.834356	3.331970	-0.000394
1214	1.2069e+02	-8.3244	-74.291372	0.000781	7.806654	2.644966	-0.000312
1215	1.2079e+02	-8.3661	-74.703160	0.001034	10.341282	3.503721	-0.000414
1216	1.2089e+02	-8.4014	-75.050353	0.000872	8.719120	2.954118	-0.000349
1217	1.2099e+02	-8.4415	-75.397547	0.000872	8.719120	2.954118	-0.000349
1218	1.2109e+02	-8.4768	-75.720518	0.000811	8.110809	2.748017	-0.000325
1219	1.2119e+02	-8.5265	-76.108083	0.000973	9.732971	3.297620	-0.000390
1220	1.2129e+02	-8.5506	-76.479499	0.000933	9.327431	3.160219	-0.000373
1221	1.2139e+02	-8.5987	-76.778247	0.000750	7.502499	2.541915	-0.000300
1222	1.2149e+02	-8.6468	-77.149664	0.000933	9.327431	3.160219	-0.000373
1223	1.2159e+02	-8.6709	-77.537229	0.000973	9.732971	3.297620	-0.000390
1224	1.2169e+02	-8.7238	-77.876348	0.000852	8.516350	2.885417	-0.000341
1225	1.2179e+02	-8.7655	-78.219505	0.000862	8.617735	2.919768	-0.000345
1226	1.2189e+02	-8.7912	-78.550550	0.000831	8.313580	2.816717	-0.000333
1227	1.2199e+02	-8.8361	-78.921967	0.000933	9.327431	3.160219	-0.000373
1228	1.2209e+02	-8.8874	-79.329717	0.001024	10.239897	3.469371	-0.000410
1229	1.2219e+02	-8.9195	-79.656725	0.000821	8.212195	2.782367	-0.000329
1230	1.2229e+02	-8.9564	-79.987770	0.000831	8.313580	2.816717	-0.000333
1231	1.2239e+02	-9.0110	-80.359187	0.000933	9.327431	3.160219	-0.000373
1232	1.2248e+02	-9.0382	-80.746752	0.000973	9.732971	3.297620	-0.000390
1233	1.2258e+02	-9.0784	-81.134317	0.000973	9.732971	3.297620	-0.000390
1234	1.2268e+02	-9.1201	-81.449214	0.000791	7.908039	2.679316	-0.000316
1235	1.2278e+02	-9.1682	-81.808519	0.000902	9.023276	3.057168	-0.000361
1236	1.2288e+02	-9.2035	-82.159749	0.000882	8.820505	2.988468	-0.000353
1237	1.2298e+02	-9.2404	-82.531166	0.000933	9.327431	3.160219	-0.000373
1238	1.2308e+02	-9.2773	-82.914694	0.000963	9.631586	3.263270	-0.000385
1239	1.2318e+02	-9.3222	-83.249776	0.000841	8.414965	2.851067	-0.000337
1240	1.2328e+02	-9.3607	-83.601007	0.000882	8.820505	2.988468	-0.000353
1241	1.2338e+02	-9.3976	-83.940126	0.000852	8.516350	2.885417	-0.000341
1242	1.2348e+02	-9.4409	-84.283283	0.000862	8.617735	2.919768	-0.000345
1243	1.2358e+02	-9.4794	-84.598179	0.000791	7.908039	2.679316	-0.000316
1244	1.2368e+02	-9.5163	-84.973633	0.000943	9.428816	3.194569	-0.000377
1245	1.2378e+02	-9.5612	-85.365235	0.000983	9.834356	3.331970	-0.000394
1246	1.2388e+02	-9.5949	-85.688206	0.000811	8.110809	2.748017	-0.000325
1247	1.2398e+02	-9.6463	-86.007140	0.000801	8.009424	2.713666	-0.000321
1248	1.2408e+02	-9.6719	-86.354333	0.000872	8.719120	2.954118	-0.000349
1249	1.2418e+02	-9.7200	-86.762084	0.001024	10.239897	3.469371	-0.000410
1250	1.2428e+02	-9.7553	-87.076981	0.000791	7.908039	2.679316	-0.000316
1251	1.2438e+02	-9.7970	-87.444360	0.000923	9.226046	3.125869	-0.000369
1252	1.2447e+02	-9.8404	-87.803665	0.000902	9.023276	3.057168	-0.000361
1253	1.2457e+02	-9.8724	-88.122599	0.000801	8.009424	2.713666	-0.000321
1254	1.2467e+02	-9.9126	-88.429421	0.000771	7.705269	2.610616	-0.000308
1255	1.2477e+02	-9.9575	-88.792763	0.000912	9.124661	3.091519	-0.000365
1256	1.2487e+02	-10.0024	-89.160143	0.000923	9.226046	3.125869	-0.000369
1257	1.2497e+02	-10.0281	-89.475039	0.000791	7.908039	2.679316	-0.000316
1258	1.2507e+02	-10.0810	-89.850493	0.000943	9.428816	3.194569	-0.000377
1259	1.2517e+02	-10.1211	-90.173464	0.000811	8.110809	2.748017	-0.000325
1260	1.2527e+02	-10.1660	-90.516620	0.000862	8.617735	2.919768	-0.000345
1261	1.2537e+02	-10.1901	-90.839591	0.000811	8.110809	2.748017	-0.000325
1262	1.2547e+02	-10.2382	-91.255416	0.001044	10.442667	3.538071	-0.000418
1263	1.2557e+02	-10.2767	-91.582424	0.000821	8.212195	2.782367	-0.000329
1264	1.2567e+02	-10.3200	-91.929618	0.000872	8.719120	2.954118	-0.000349
1265	1.2577e+02	-10.3553	-92.260663	0.000831	8.313580	2.816717	-0.000333
1266	1.2587e+02	-10.4002	-92.579597	0.000801	8.009424	2.713666	-0.000321
1267	1.2597e+02	-10.4355	-92.942939	0.000912	9.124661	3.091519	-0.000365
1268	1.2607e+02	-10.4821	-93.286095	0.000862	8.617735	2.919768	-0.000345
1269	1.2617e+02	-10.5125	-93.584844	0.000750	7.502499	2.541915	-0.000300
1270	1.2627e+02	-10.5510	-93.968371	0.000963	9.631586	3.263270	-0.000385
1271	1.2636e+02	-10.5911	-94.339788	0.000933	9.327431	3.160219	-0.000373
1272	1.2646e+02	-10.6329	-94.654685	0.000791	7.908039	2.679316	-0.000316
1273	1.2656e+02	-10.6698	-95.022064	0.000923	9.226046	3.125869	-0.000369
1274	1.2666e+02	-10.7099	-95.357146	0.000841	8.414965	2.851067	-0.000337
1275	1.2676e+02	-10.7612	-95.663968	0.000771	7.705269	2.610616	-0.000308
1276	1.2686e+02	-10.7917	-95.999051	0.000841	8.414965	2.851067	-0.000337
1277	1.2696e+02	-10.8366	-96.338170	0.000852	8.516350	2.885417	-0.000341
1278	1.2706e+02	-10.8655	-96.653067	0.000791	7.908039	2.679316	-0.000316
1279	1.2716e+02	-10.9168	-97.032557	0.000953	9.530201	3.228920	-0.000381
1280	1.2726e+02	-10.9521	-97.408011	0.000943	9.428816	3.194569	-0.000377
1281	1.2736e+02	-10.9890	-97.698685	0.000730	7.299728	2.473215	-0.000292
1282	1.2746e+02	-11.0259	-98.070101	0.000933	9.327431	3.160219	-0.000373
1283	1.2756e+02	-11.0724	-98.409221	0.000852	8.516350	2.885417	-0.000341
1284	1.2766e+02	-11.1141	-98.716043	0.000771	7.705269	2.610616	-0.000308
1285	1.2776e+02	-11.1462	-99.095534	0.000953	9.530201	3.228920	-0.000381
1286	1.2786e+02	-11.1831	-99.390245	0.000740	7.401114	2.507565	-0.000296
1287	1.2796e+02	-11.2360	-99.769735	0.000953	9.530201	3.228920	-0.000381
1288	1.2806e+02	-11.2681	-100.088669	0.000801	8.009424	2.713666	-0.000321
1289	1.2816e+02	-11.3163	-100.435863	0.000872	8.719120	2.954118	-0.000349
1290	1.2826e+02	-11.3580	-100.774982	0.000852	8.516350	2.885417	-0.000341
1291	1.2835e+02	-11.3884	-101.097953	0.000811	8.110809	2.748017	-0.000325
1292	1.2845e+02	-11.4270	-101.424961	0.000821	8.212195	2.782367	-0.000329
1293	1.2855e+02	-11.4671	-101.743895	0.000801	8.009424	2.713666	-0.000321
1294	1.2865e+02	-11.5072	-102.074940	0.000831	8.313580	2.816717	-0.000333
1295	1.2875e+02	-11.5569	-102.450394	0.000943	9.428816	3.194569	-0.000377
1296	1.2885e+02	-11.5842	-102.737030	0.000720	7.198343	2.438865	-0.000288
1297	1.2895e+02	-11.6243	-103.088261	0.000882	8.820505	2.988468	-0.000353
1298	1.2905e+02	-11.6644	-103.395083	0.000771	7.705269	2.610616	-0.000308
1299	1.2915e+02	-11.6981	-103.746314	0.000882	8.820505	2.988468	-0.000353
1300	1.2925e+02	-11.7462	-104.105619	0.000902	9.023276	3.057168	-0.000361
1301	1.2935e+02	-11.7959	-104.485110	0.000953	9.530201	3.228920	-0.000381
1302	1.2945e+02	-11.8248	-104.779821	0.000740	7.401114	2.507565	-0.000296
1303	1.2955e+02	-11.8729	-105.135089	0.000892	8.921890	3.022818	-0.000357
1304	1.2965e+02	-11.9162	-105.441911	0.000771	7.705269	2.610616	-0.000308
1305	1.2975e+02	-11.9435	-105.776993	0.000841	8.414965	2.851067	-0.000337
1306	1.2985e+02	-11.9868	-106.104001	0.000821	8.212195	2.782367	-0.000329
1307	1.2995e+02	-12.0301	-106.487529	0.000963	9.631586	3.263270	-0.000385
1308	1.3005e+02	-12.0751	-106.786277	0.000750	7.502499	2.541915	-0.000300
1309	1.3015e+02	-12.1039	-107.113285	0.000821	8.212195	2.782367	-0.000329
1310	1.3025e+02	-12.1440	-107.424145	0.000781	7.806654	2.644966	-0.000312
1311	1.3034e+02	-12.1938	-107.783450	0.000902	9.023276	3.057168	-0.000361
1312	1.3044e+02	-12.2307	-108.066049	0.000710	7.096958	2.404515	-0.000284
1313	1.3054e+02	-12.2692	-108.425355	0.000902	9.023276	3.057168	-0.000361
1314	1.3064e+02	-12.3173	-108.736214	0.000781	7.806654	2.644966	-0.000312
1315	1.3074e+02	-12.3478	-109.107630	0.000933	9.327431	3.160219	-0.000373
1316	1.3084e+02	-12.3879	-109.418490	0.000781	7.806654	2.644966	-0.000312
1317	1.3094e+02	-12.4280	-109.757609	0.000852	8.516350	2.885417	-0.000341
1318	1.3104e+02	-12.4585	-110.048283	0.000730	7.299728	2.473215	-0.000292
1319	1.3114e+02	-12.4954	-110.383365	0.000841	8.414965	2.851067	-0.000337
1320	1.3124e+02	-12.5515	-110.774968	0.000983	9.834356	3.331970	-0.000394
1321	1.3134e+02	-12.5900	-111.106013	0.000831	8.313580	2.816717	-0.000333
1322	1.3144e+02	-12.6301	-111.376501	0.000679	6.792803	2.301464	-0.000272
1323	1.3154e+02	-12.6654	-111.739843	0.000912	9.124661	3.091519	-0.000365
1324	1.3164e+02	-12.7007	-112.054740	0.000791	7.908039	2.679316	-0.000316
1325	1.3174e+02	-12.7504	-112.377710	0.000811	8.110809	2.748017	-0.000325
1326	1.3184e+02	-12.7809	-112.724904	0.000872	8.719120	2.954118	-0.000349
1327	1.3194e+02	-12.8178	-113.039801	0.000791	7.908039	2.679316	-0.000316
1328	1.3204e+02	-12.8579	-113.362772	0.000811	8.110809	2.748017	-0.000325
1329	1.3214e+02	-12.9109	-113.653445	0.000730	7.299728	2.473215	-0.000292
1330	1.3224e+02	-12.9446	-113.984490	0.000831	8.313580	2.816717	-0.000333
1331	1.3234e+02	-12.9798	-114.327647	0.000862	8.617735	2.919768	-0.000345
1332	1.3243e+02	-13.0183	-114.670804	0.000862	8.617735	2.919768	-0.000345
1333	1.3253e+02	-13.0633	-114.973589	0.000760	7.603884	2.576266	-0.000304
1334	1.3263e+02	-13.1082	-115.353079	0.000953	9.530201	3.228920	-0.000381
1335	1.3273e+02	-13.1403	-115.635679	0.000710	7.096958	2.404515	-0.000284
1336	1.3283e+02	-13.1820	-116.019207	0.000963	9.631586	3.263270	-0.000385
1337	1.3293e+02	-13.2285	-116.350252	0.000831	8.313580	2.816717	-0.000333
1338	1.3303e+02	-13.2590	-116.653037	0.000760	7.603884	2.576266	-0.000304
1339	1.3313e+02	-13.3055	-116.976008	0.000811	8.110809	2.748017	-0.000325
1340	1.3323e+02	-13.3424	-117.307053	0.000831	8.313580	2.816717	-0.000333
1341	1.3333e+02	-13.3873	-117.625987	0.000801	8.009424	2.713666	-0.000321
1342	1.3343e+02	-13.4194	-117.981255	0.000892	8.921890	3.022818	-0.000357
1343	1.3353e+02	-13.4595	-118.344597	0.000912	9.124661	3.091519	-0.000365
1344	1.3363e+02	-13.4948	-118.582788	0.000598	5.981722	2.026662	-0.000239
1345	1.3373e+02	-13.5413	-118.966316	0.000963	9.631586	3.263270	-0.000385
1346	1.3383e+02	-13.5798	-119.297361	0.000831	8.313580	2.816717	-0.000333
1347	1.3393e+02	-13.6167	-119.612258	0.000791	7.908039	2.679316	-0.000316
1348	1.3403e+02	-13.6633	-119.955414	0.000862	8.617735	2.919768	-0.000345
1349	1.3413e+02	-13.6921	-120.290496	0.000841	8.414965	2.851067	-0.000337
1350	1.3423e+02	-13.7403	-120.605393	0.000791	7.908039	2.679316	-0.000316
1351	1.3432e+02	-13.7804	-120.940475	0.000841	8.414965	2.851067	-0.000337
1352	1.3442e+02	-13.8157	-121.251335	0.000781	7.806654	2.644966	-0.000312
1353	1.3452e+02	-13.8590	-121.562194	0.000781	7.806654	2.644966	-0.000312
1354	1.3462e+02	-13.8975	-121.905351	0.000862	8.617735	2.919768	-0.000345
1355	1.3472e+02	-13.9456	-122.220247	0.000791	7.908039	2.679316	-0.000316
1356	1.3482e+02	-13.9761	-122.555330	0.000841	8.414965	2.851067	-0.000337
1357	1.3492e+02	-14.0242	-122.910598	0.000892	8.921890	3.022818	-0.000357
1358	1.3502e+02	-14.0627	-123.221457	0.000781	7.806654	2.644966	-0.000312
1359	1.3512e+02	-14.1012	-123.512131	0.000730	7.299728	2.473215	-0.000292
1360	1.3522e+02	-14.1381	-123.863362	0.000882	8.820505	2.988468	-0.000353
1361	1.3532e+02	-14.1830	-124.178258	0.000791	7.908039	2.679316	-0.000316
1362	1.3542e+02	-14.2135	-124.485080	0.000771	7.705269	2.610616	-0.000308
1363	1.3552e+02	-14.2584	-124.852460	0.000923	9.226046	3.125869	-0.000369
1364	1.3562e+02	-14.2937	-125.167356	0.000791	7.908039	2.679316	-0.000316
1365	1.3572e+02	-14.3322	-125.490327	0.000811	8.110809	2.748017	-0.000325
1366	1.3582e+02	-14.3836	-125.845595	0.000892	8.921890	3.022818	-0.000357
1367	1.3592e+02	-14.4188	-126.095898	0.000629	6.285877	2.129713	-0.000252
1368	1.3602e+02	-14.4590	-126.402720	0.000771	7.705269	2.610616	-0.000308
1369	1.3612e+02	-14.4975	-126.786248	0.000963	9.631586	3.263270	-0.000385
1370	1.3622e+02	-14.5327	-127.133442	0.000872	8.719120	2.954118	-0.000349
1371	1.3631e+02	-14.5777	-127.420078	0.000720	7.198343	2.438865	-0.000288
1372	1.3641e+02	-14.6226	-127.747086	0.000821	8.212195	2.782367	-0.000329
1373	1.3651e+02	-14.6675	-128.070057	0.000811	8.110809	2.748017	-0.000325
1374	1.3661e+02	-14.6996	-128.409176	0.000852	8.516350	2.885417	-0.000341
1375	1.3671e+02	-14.7397	-128.679665	0.000679	6.792803	2.301464	-0.000272
1376	1.3681e+02	-14.7766	-129.022821	0.000862	8.617735	2.919768	-0.000345
1377	1.3691e+02	-14.8119	-129.353866	0.000831	8.313580	2.816717	-0.000333
1378	1.3701e+02	-14.8600	-129.713171	0.000902	9.023276	3.057168	-0.000361
1379	1.3711e+02	-14.8953	-130.032105	0.000801	8.009424	2.713666	-0.000321
1380	1.3721e+02	-14.9402	-130.338927	0.000771	7.705269	2.610616	-0.000308
1381	1.3731e+02	-14.9787	-130.657861	0.000801	8.009424	2.713666	-0.000321
1382	1.3741e+02	-15.0156	-130.964683	0.000771	7.705269	2.610616	-0.000308
1383	1.3751e+02	-15.0525	-131.307840	0.000862	8.617735	2.919768	-0.000345
1384	1.3761e+02	-15.0910	-131.622736	0.000791	7.908039	2.679316	-0.000316
1385	1.3771e+02	-15.1391	-131.889187	0.000669	6.691418	2.267114	-0.000268
1386	1.3781e+02	-15.1744	-132.248493	0.000902	9.023276	3.057168	-0.000361
1387	1.3791e+02	-15.2097	-132.563389	0.000791	7.908039	2.679316	-0.000316
1388	1.3801e+02	-15.2563	-132.906546	0.000862	8.617735	2.919768	-0.000345
1389	1.3811e+02	-15.2915	-133.221442	0.000791	7.908039	2.679316	-0.000316
1390	1.3821e+02	-15.3284	-133.540376	0.000801	8.009424	2.713666	-0.000321
1391	1.3831e+02	-15.3830	-133.847198	0.000771	7.705269	2.610616	-0.000308
1392	1.3840e+02	-15.4038	-134.226689	0.000953	9.530201	3.228920	-0.000381
1393	1.3850e+02	-15.4536	-134.517363	0.000730	7.299728	2.473215	-0.000292
1394	1.3860e+02	-15.4937	-134.880705	0.000912	9.124661	3.091519	-0.000365
1395	1.3870e+02	-15.5402	-135.219824	0.000852	8.516350	2.885417	-0.000341
1396	1.3880e+02	-15.5723	-135.526647	0.000771	7.705269	2.610616	-0.000308
1397	1.3890e+02	-15.6092	-135.809246	0.000710	7.096958	2.404515	-0.000284
1398	1.3900e+02	-15.6477	-136.120106	0.000781	7.806654	2.644966	-0.000312
1399	1.3910e+02	-15.6894	-136.467299	0.000872	8.719120	2.954118	-0.000349
1400	1.3920e+02	-15.7311	-136.757973	0.000730	7.299728	2.473215	-0.000292
1401	1.3930e+02	-15.7760	-137.076907	0.000801	8.009424	2.713666	-0.000321
1402	1.3940e+02	-15.8033	-137.379692	0.000760	7.603884	2.576266	-0.000304
1403	1.3950e+02	-15.8514	-137.730923	0.000882	8.820505	2.988468	-0.000353
1404	1.3960e+02	-15.8883	-138.049857	0.000801	8.009424	2.713666	-0.000321
1405	1.3970e+02	-15.9332	-138.372827	0.000811	8.110809	2.748017	-0.000325
1406	1.3980e+02	-15.9685	-138.679650	0.000771	7.705269	2.610616	-0.000308
1407	1.3990e+02	-16.0118	-139.018769	0.000852	8.516350	2.885417	-0.000341
1408	1.4000e+02	-16.0536	-139.321554	0.000760	7.603884	2.576266	-0.000304
1409	1.4010e+02	-16.0840	-139.672785	0.000882	8.820505	2.988468	-0.000353
1410	1.4020e+02	-16.1322	-140.003830	0.000831	8.313580	2.816717	-0.000333
1411	1.4029e+02	-16.1739	-140.310653	0.000771	7.705269	2.610616	-0.000308
1412	1.4039e+02	-16.2108	-140.613438	0.000760	7.603884	2.576266	-0.000304
1413	1.4049e+02	-16.2621	-140.948520	0.000841	8.414965	2.851067	-0.000337
1414	1.4059e+02	-16.2894	-141.259379	0.000781	7.806654	2.644966	-0.000312
1415	1.4069e+02	-16.3327	-141.517756	0.000649	6.488648	2.198413	-0.000260
1416	1.4079e+02	-16.3728	-141.864950	0.000872	8.719120	2.954118	-0.000349
1417	1.4089e+02	-16.4113	-142.139475	0.000689	6.894188	2.335814	-0.000276
1418	1.4099e+02	-16.4482	-142.527040	0.000973	9.732971	3.297620	-0.000390
1419	1.4109e+02	-16.5011	-142.761194	0.000588	5.880337	1.992312	-0.000235
1420	1.4119e+02	-16.5268	-143.104351	0.000862	8.617735	2.919768	-0.000345
1421	1.4129e+02	-16.5781	-143.395024	0.000730	7.299728	2.473215	-0.000292
1422	1.4139e+02	-16.6038	-143.697809	0.000760	7.603884	2.576266	-0.000304
1423	1.4149e+02	-16.6439	-144.008669	0.000781	7.806654	2.644966	-0.000312
1424	1.4159e+02	-16.6969	-144.347788	0.000852	8.516350	2.885417	-0.000341
1425	1.4169e+02	-16.7257	-144.678833	0.000831	8.313580	2.816717	-0.000333
1426	1.4179e+02	-16.7594	-145.005841	0.000821	8.212195	2.782367	-0.000329
1427	1.4189e+02	-16.8059	-145.340924	0.000841	8.414965	2.851067	-0.000337
1428	1.4199e+02	-16.8493	-145.639672	0.000750	7.502499	2.541915	-0.000300
1429	1.4209e+02	-16.8862	-145.938420	0.000750	7.502499	2.541915	-0.000300
1430	1.4219e+02	-16.9311	-146.281576	0.000862	8.617735	2.919768	-0.000345
1431	1.4228e+02	-16.9680	-146.556102	0.000689	6.894188	2.335814	-0.000276
1432	1.4238e+02	-17.0049	-146.834664	0.000700	6.995573	2.370164	-0.000280
1433	1.4248e+02	-17.0418	-147.161672	0.000821	8.212195	2.782367	-0.000329
1434	1.4258e+02	-17.0899	-147.488680	0.000821	8.212195	2.782367	-0.000329
1435	1.4268e+02	-17.1348	-147.783391	0.000740	7.401114	2.507565	-0.000296
1436	1.4278e+02	-17.1653	-148.110399	0.000821	8.212195	2.782367	-0.000329
1437	1.4288e+02	-17.2134	-148.421258	0.000781	7.806654	2.644966	-0.000312
1438	1.4298e+02	-17.2503	-148.720006	0.000750	7.502499	2.541915	-0.000300
1439	1.4308e+02	-17.2920	-149.026829	0.000771	7.705269	2.610616	-0.000308
1440	1.4318e+02	-17.3273	-149.333651	0.000771	7.705269	2.610616	-0.000308
1441	1.4328e+02	-17.3690	-149.648548	0.000791	7.908039	2.679316	-0.000316
1442	1.4338e+02	-17.4075	-149.955370	0.000771	7.705269	2.610616	-0.000308
1443	1.4348e+02	-17.4444	-150.225858	0.000679	6.792803	2.301464	-0.000272
1444	1.4358e+02	-17.4829	-150.589200	0.000912	9.124661	3.091519	-0.000365
1445	1.4368e+02	-17.5295	-150.924282	0.000841	8.414965	2.851067	-0.000337
1446	1.4378e+02	-17.5663	-151.190733	0.000669	6.691418	2.267114	-0.000268
1447	1.4388e+02	-17.6097	-151.521779	0.000831	8.313580	2.816717	-0.000333
1448	1.4398e+02	-17.6434	-151.897232	0.000943	9.428816	3.194569	-0.000377
1449	1.4408e+02	-17.6802	-152.159646	0.000659	6.590033	2.232764	-0.000264
1450	1.4418e+02	-17.7252	-152.381688	0.000558	5.576181	1.889261	-0.000223
1451	1.4428e+02	-17.7717	-152.740994	0.000902	9.023276	3.057168	-0.000361
1452	1.4437e+02	-17.7974	-153.051853	0.000781	7.806654	2.644966	-0.000312
1453	1.4447e+02	-17.8567	-153.354638	0.000760	7.603884	2.576266	-0.000304
1454	1.4457e+02	-17.8808	-153.588792	0.000588	5.880337	1.992312	-0.000235
1455	1.4467e+02	-17.9321	-153.968283	0.000953	9.530201	3.228920	-0.000381
1456	1.4477e+02	-17.9642	-154.283179	0.000791	7.908039	2.679316	-0.000316
1457	1.4487e+02	-18.0027	-154.569816	0.000720	7.198343	2.438865	-0.000288
1458	1.4497e+02	-18.0460	-154.884713	0.000791	7.908039	2.679316	-0.000316
1459	1.4507e+02	-18.0813	-155.179423	0.000740	7.401114	2.507565	-0.000296
1460	1.4517e+02	-18.1166	-155.530654	0.000882	8.820505	2.988468	-0.000353
1461	1.4527e+02	-18.1647	-155.813254	0.000710	7.096958	2.404515	-0.000284
1462	1.4537e+02	-18.2096	-156.095853	0.000710	7.096958	2.404515	-0.000284
1463	1.4547e+02	-18.2417	-156.451121	0.000892	8.921890	3.022818	-0.000357
1464	1.4557e+02	-18.2850	-156.733721	0.000710	7.096958	2.404515	-0.000284
1465	1.4567e+02	-18.3203	-157.036506	0.000760	7.603884	2.576266	-0.000304
1466	1.4577e+02	-18.3685	-157.359477	0.000811	8.110809	2.748017	-0.000325
1467	1.4587e+02	-18.4038	-157.605742	0.000618	6.184492	2.095363	-0.000248
1468	1.4597e+02	-18.4439	-157.936787	0.000831	8.313580	2.816717	-0.000333
1469	1.4607e+02	-18.4824	-158.259758	0.000811	8.110809	2.748017	-0.000325
1470	1.4617e+02	-18.5241	-158.566580	0.000771	7.705269	2.610616	-0.000308
1471	1.4626e+02	-18.5738	-158.804771	0.000598	5.981722	2.026662	-0.000239
1472	1.4636e+02	-18.6059	-159.135817	0.000831	8.313580	2.816717	-0.000333
1473	1.4646e+02	-18.6364	-159.426490	0.000730	7.299728	2.473215	-0.000292
1474	1.4656e+02	-18.6909	-159.749461	0.000811	8.110809	2.748017	-0.000325
1475	1.4666e+02	-18.7246	-160.048209	0.000750	7.502499	2.541915	-0.000300
1476	1.4676e+02	-18.7599	-160.379254	0.000831	8.313580	2.816717	-0.000333
1477	1.4686e+02	-18.8064	-160.657817	0.000700	6.995573	2.370164	-0.000280
1478	1.4696e+02	-18.8337	-160.960602	0.000760	7.603884	2.576266	-0.000304
1479	1.4706e+02	-18.8642	-161.295684	0.000841	8.414965	2.851067	-0.000337
1480	1.4716e+02	-18.9219	-161.570209	0.000689	6.894188	2.335814	-0.000276
1481	1.4726e+02	-18.9604	-161.868957	0.000750	7.502499	2.541915	-0.000300
1482	1.4736e+02	-18.9925	-162.224225	0.000892	8.921890	3.022818	-0.000357
1483	1.4746e+02	-19.0390	-162.494713	0.000679	6.792803	2.301464	-0.000272
1484	1.4756e+02	-19.0823	-162.801536	0.000771	7.705269	2.610616	-0.000308
1485	1.4766e+02	-19.1176	-163.108358	0.000771	7.705269	2.610616	-0.000308
1486	1.4776e+02	-19.1690	-163.346549	0.000598	5.981722	2.026662	-0.000239
1487	1.4786e+02	-19.1995	-163.645297	0.000750	7.502499	2.541915	-0.000300
1488	1.4796e+02	-19.2460	-163.919822	0.000689	6.894188	2.335814	-0.000276
1489	1.4806e+02	-19.2813	-164.250868	0.000831	8.313580	2.816717	-0.000333
1490	1.4816e+02	-19.3166	-164.545578	0.000740	7.401114	2.507565	-0.000296
1491	1.4825e+02	-19.3599	-164.840289	0.000740	7.401114	2.507565	-0.000296
1492	1.4835e+02	-19.4000	-165.135000	0.000740	7.401114	2.507565	-0.000296
1493	1.4845e+02	-19.4353	-165.445860	0.000781	7.806654	2.644966	-0.000312
1494	1.4855e+02	-19.4754	-165.772868	0.000821	8.212195	2.782367	-0.000329
1495	1.4865e+02	-19.5155	-166.063541	0.000730	7.299728	2.473215	-0.000292
1496	1.4875e+02	-19.5508	-166.370364	0.000771	7.705269	2.610616	-0.000308
1497	1.4885e+02	-19.5957	-166.737743	0.000923	9.226046	3.125869	-0.000369
1498	1.4895e+02	-19.6326	-167.016305	0.000700	6.995573	2.370164	-0.000280
1499	1.4905e+02	-19.6743	-167.286794	0.000679	6.792803	2.301464	-0.000272
1500	1.4915e+02	-19.7128	-167.609764	0.000811	8.110809	2.748017	-0.000325
1501	1.4925e+02	-19.7577	-167.916587	0.000771	7.705269	2.610616	-0.000308
1502	1.4935e+02	-19.7930	-168.239558	0.000811	8.110809	2.748017	-0.000325
1503	1.4945e+02	-19.8412	-168.526194	0.000720	7.198343	2.438865	-0.000288
1504	1.4955e+02	-19.8764	-168.800719	0.000689	6.894188	2.335814	-0.000276
1505	1.4965e+02	-19.9149	-169.087356	0.000720	7.198343	2.438865	-0.000288
1506	1.4975e+02	-19.9615	-169.422438	0.000841	8.414965	2.851067	-0.000337
1507	1.4985e+02	-19.9887	-169.672741	0.000629	6.285877	2.129713	-0.000252
1508	1.4995e+02	-19.9615	-169.579887	0.000233	2.331858	0.790055	0.000093
1509	1.5005e+02	-19.9198	-169.470884	0.000274	2.737398	0.927456	0.000110
1510	1.5015e+02	-19.8668	-169.313436	0.000395	3.954020	1.339658	0.000158
1511	1.5025e+02	-19.8299	-169.277101	0.000091	0.912466	0.309152	0.000037
1512	1.5034e+02	-19.7914	-169.131765	0.000365	3.649864	1.236607	0.000146
1513	1.5044e+02	-19.7577	-168.998539	0.000335	3.345709	1.133557	0.000134
1514	1.5054e+02	-19.7144	-168.812831	0.000466	4.663715	1.580110	0.000187
1515	1.5064e+02	-19.6711	-168.683643	0.000324	3.244324	1.099207	0.000130
1516	1.5074e+02	-19.6342	-168.506009	0.000446	4.460945	1.511409	0.000179
1517	1.5084e+02	-19.5909	-168.421229	0.000213	2.129087	0.721354	0.000085
1518	1.5094e+02	-19.5556	-168.162852	0.000649	6.488648	2.198413	0.000260
1519	1.5104e+02	-19.5203	-168.045775	0.000294	2.940168	0.996156	0.000118
1520	1.5114e+02	-19.4738	-167.860067	0.000466	4.663715	1.580110	0.000187
1521	1.5124e+02	-19.4561	-167.678396	0.000456	4.562330	1.545759	0.000183
1522	1.5134e+02	-19.3984	-167.480576	0.000497	4.967871	1.683160	0.000199
1523	1.5144e+02	-19.3615	-167.286794	0.000487	4.866486	1.648810	0.000195
1524	1.5154e+02	-19.3134	-167.145494	0.000355	3.548479	1.202257	0.000142
1525	1.5164e+02	-19.2845	-166.955748	0.000477	4.765101	1.614460	0.000191
1526	1.5174e+02	-19.2476	-166.798300	0.000395	3.954020	1.339658	0.000158
1527	1.5184e+02	-19.1962	-166.608555	0.000477	4.765101	1.614460	0.000191
1528	1.5194e+02	-19.1674	-166.463218	0.000365	3.649864	1.236607	0.000146
1529	1.5204e+02	-19.1353	-166.277510	0.000466	4.663715	1.580110	0.000187
1530	1.5214e+02	-19.0711	-166.091801	0.000466	4.663715	1.580110	0.000187
1531	1.5224e+02	-19.0471	-165.914167	0.000446	4.460945	1.511409	0.000179
1532	1.5233e+02	-19.0005	-165.724422	0.000477	4.765101	1.614460	0.000191
1533	1.5243e+02	-18.9604	-165.550825	0.000436	4.359560	1.477059	0.000174
1534	1.5253e+02	-18.9123	-165.348968	0.000507	5.069256	1.717510	0.000203
1535	1.5263e+02	-18.8802	-165.143074	0.000517	5.170641	1.751861	0.000207
1536	1.5273e+02	-18.8481	-164.989663	0.000385	3.852634	1.305308	0.000154
1537	1.5283e+02	-18.7936	-164.751472	0.000598	5.981722	2.026662	0.000239
1538	1.5293e+02	-18.7663	-164.529430	0.000558	5.576181	1.889261	0.000223
1539	1.5303e+02	-18.7294	-164.335647	0.000487	4.866486	1.648810	0.000195
1540	1.5313e+02	-18.6877	-164.129753	0.000517	5.170641	1.751861	0.000207
1541	1.5323e+02	-18.6460	-163.964231	0.000416	4.156790	1.408359	0.000166
1542	1.5333e+02	-18.5979	-163.774485	0.000477	4.765101	1.614460	0.000191
1543	1.5343e+02	-18.5578	-163.572629	0.000507	5.069256	1.717510	0.000203
1544	1.5353e+02	-18.5193	-163.374809	0.000497	4.967871	1.683160	0.000199
1545	1.5363e+02	-18.4872	-163.148729	0.000568	5.677567	1.923612	0.000227
1546	1.5373e+02	-18.4391	-162.999355	0.000375	3.751249	1.270958	0.000150
1547	1.5383e+02	-18.4006	-162.761164	0.000598	5.981722	2.026662	0.000239
1548	1.5393e+02	-18.3701	-162.563345	0.000497	4.967871	1.683160	0.000199
1549	1.5403e+02	-18.3268	-162.357451	0.000517	5.170641	1.751861	0.000207
1550	1.5413e+02	-18.2802	-162.147520	0.000527	5.272026	1.786211	0.000211
1551	1.5422e+02	-18.2449	-161.941626	0.000517	5.170641	1.751861	0.000207
1552	1.5432e+02	-18.2080	-161.711509	0.000578	5.778952	1.957962	0.000231
1553	1.5442e+02	-18.1615	-161.525801	0.000466	4.663715	1.580110	0.000187
1554	1.5452e+02	-18.1278	-161.251276	0.000689	6.894188	2.335814	0.000276
1555	1.5462e+02	-18.0829	-161.041345	0.000527	5.272026	1.786211	0.000211
1556	1.5472e+02	-18.0460	-160.803154	0.000598	5.981722	2.026662	0.000239
1557	1.5482e+02	-18.0043	-160.665891	0.000345	3.447094	1.167907	0.000138
1558	1.5492e+02	-17.9690	-160.492294	0.000436	4.359560	1.477059	0.000174
1559	1.5502e+02	-17.9289	-160.237955	0.000639	6.387262	2.164063	0.000256
1560	1.5512e+02	-17.8792	-160.044172	0.000487	4.866486	1.648810	0.000195
1561	1.5522e+02	-17.8455	-159.793870	0.000629	6.285877	2.129713	0.000252
1562	1.5532e+02	-17.8038	-159.620273	0.000436	4.359560	1.477059	0.000174
1563	1.5542e+02	-17.7605	-159.378045	0.000608	6.083107	2.061012	0.000243
1564	1.5552e+02	-17.7380	-159.180225	0.000497	4.967871	1.683160	0.000199
1565	1.5562e+02	-17.6915	-158.966257	0.000537	5.373411	1.820561	0.000215
1566	1.5572e+02	-17.6514	-158.768437	0.000497	4.967871	1.683160	0.000199
1567	1.5582e+02	-17.6016	-158.534283	0.000588	5.880337	1.992312	0.000235
1568	1.5592e+02	-17.5712	-158.312241	0.000558	5.576181	1.889261	0.000223
1569	1.5602e+02	-17.5246	-158.086161	0.000568	5.677567	1.923612	0.000227
1570	1.5612e+02	-17.4926	-157.852007	0.000588	5.880337	1.992312	0.000235
1571	1.5622e+02	-17.4492	-157.650151	0.000507	5.069256	1.717510	0.000203
1572	1.5631e+02	-17.4091	-157.399848	0.000629	6.285877	2.129713	0.000252
1573	1.5641e+02	-17.3626	-157.133397	0.000669	6.691418	2.267114	0.000268
1574	1.5651e+02	-17.3289	-157.012283	0.000304	3.041554	1.030506	0.000122
1575	1.5661e+02	-17.2968	-156.749869	0.000659	6.590033	2.232764	0.000264
1576	1.5671e+02	-17.2455	-156.511678	0.000598	5.981722	2.026662	0.000239
1577	1.5681e+02	-17.2038	-156.305784	0.000517	5.170641	1.751861	0.000207
1578	1.5691e+02	-17.1669	-156.063556	0.000608	6.083107	2.061012	0.000243
1579	1.5701e+02	-17.1204	-155.902071	0.000406	4.055405	1.374008	0.000162
1580	1.5711e+02	-17.0899	-155.639657	0.000659	6.590033	2.232764	0.000264
1581	1.5721e+02	-17.0482	-155.357057	0.000710	7.096958	2.404515	0.000284
1582	1.5731e+02	-17.0145	-155.199609	0.000395	3.954020	1.339658	0.000158
1583	1.5741e+02	-16.9744	-154.921047	0.000700	6.995573	2.370164	0.000280
1584	1.5751e+02	-16.9279	-154.707079	0.000537	5.373411	1.820561	0.000215
1585	1.5761e+02	-16.8846	-154.489073	0.000547	5.474796	1.854911	0.000219
1586	1.5771e+02	-16.8428	-154.226659	0.000659	6.590033	2.232764	0.000264
1587	1.5781e+02	-16.8027	-154.004617	0.000558	5.576181	1.889261	0.000223
1588	1.5791e+02	-16.7690	-153.758352	0.000618	6.184492	2.095363	0.000248
1589	1.5801e+02	-16.7209	-153.524198	0.000588	5.880337	1.992312	0.000235
1590	1.5811e+02	-16.6760	-153.298118	0.000568	5.677567	1.923612	0.000227
1591	1.5821e+02	-16.6503	-153.068002	0.000578	5.778952	1.957962	0.000231
1592	1.5830e+02	-16.6150	-152.805588	0.000659	6.590033	2.232764	0.000264
1593	1.5840e+02	-16.5749	-152.579508	0.000568	5.677567	1.923612	0.000227
1594	1.5850e+02	-16.5300	-152.353428	0.000568	5.677567	1.923612	0.000227
1595	1.5860e+02	-16.4851	-152.099089	0.000639	6.387262	2.164063	0.000256
1596	1.5870e+02	-16.4514	-151.881084	0.000547	5.474796	1.854911	0.000219
1597	1.5880e+02	-16.4049	-151.586373	0.000740	7.401114	2.507565	0.000296
1598	1.5890e+02	-16.3888	-151.380479	0.000517	5.170641	1.751861	0.000207
1599	1.5900e+02	-16.3311	-151.122102	0.000649	6.488648	2.198413	0.000260
1600	1.5910e+02	-16.2942	-150.936394	0.000466	4.663715	1.580110	0.000187
1601	1.5920e+02	-16.2429	-150.669943	0.000669	6.691418	2.267114	0.000268
1602	1.5930e+02	-16.2204	-150.391381	0.000700	6.995573	2.370164	0.000280
1603	1.5940e+02	-16.1675	-150.177412	0.000537	5.373411	1.820561	0.000215
1604	1.5950e+02	-16.1290	-149.914998	0.000659	6.590033	2.232764	0.000264
1605	1.5960e+02	-16.0905	-149.688919	0.000568	5.677567	1.923612	0.000227
1606	1.5970e+02	-16.0568	-149.406319	0.000710	7.096958	2.404515	0.000284
1607	1.5980e+02	-16.0054	-149.192351	0.000537	5.373411	1.820561	0.000215
1608	1.5990e+02	-15.9685	-148.921863	0.000679	6.792803	2.301464	0.000272
1609	1.6000e+02	-15.9268	-148.703858	0.000547	5.474796	1.854911	0.000219
1610	1.6010e+02	-15.8867	-148.457592	0.000618	6.184492	2.095363	0.000248
1611	1.6019e+02	-15.8434	-148.219401	0.000598	5.981722	2.026662	0.000239
1612	1.6029e+02	-15.8161	-147.973136	0.000618	6.184492	2.095363	0.000248
1613	1.6039e+02	-15.7712	-147.722834	0.000629	6.285877	2.129713	0.000252
1614	1.6049e+02	-15.7295	-147.516940	0.000517	5.170641	1.751861	0.000207
1615	1.6059e+02	-15.6942	-147.206080	0.000781	7.806654	2.644966	0.000312
1616	1.6069e+02	-15.6477	-146.980001	0.000568	5.677567	1.923612	0.000227
1617	1.6079e+02	-15.6124	-146.741810	0.000598	5.981722	2.026662	0.000239
1618	1.6089e+02	-15.5659	-146.459210	0.000710	7.096958	2.404515	0.000284
1619	1.6099e+02	-15.5226	-146.208908	0.000629	6.285877	2.129713	0.000252
1620	1.6109e+02	-15.4937	-145.978791	0.000578	5.778952	1.957962	0.000231
1621	1.6119e+02	-15.4520	-145.712340	0.000669	6.691418	2.267114	0.000268
1622	1.6129e+02	-15.4151	-145.506446	0.000517	5.170641	1.751861	0.000207
1623	1.6139e+02	-15.3750	-145.219810	0.000720	7.198343	2.438865	0.000288
1624	1.6149e+02	-15.3300	-144.945284	0.000689	6.894188	2.335814	0.000276
1625	1.6159e+02	-15.2915	-144.682871	0.000659	6.590033	2.232764	0.000264
1626	1.6169e+02	-15.2563	-144.440642	0.000608	6.083107	2.061012	0.000243
1627	1.6179e+02	-15.2129	-144.218600	0.000558	5.576181	1.889261	0.000223
1628	1.6189e+02	-15.1728	-143.976372	0.000608	6.083107	2.061012	0.000243
1629	1.6199e+02	-15.1375	-143.689735	0.000720	7.198343	2.438865	0.000288
1630	1.6209e+02	-15.0942	-143.382913	0.000771	7.705269	2.610616	0.000308
1631	1.6219e+02	-15.0477	-143.152796	0.000578	5.778952	1.957962	0.000231
1632	1.6228e+02	-15.0156	-142.914605	0.000598	5.981722	2.026662	0.000239
1633	1.6238e+02	-14.9723	-142.668340	0.000618	6.184492	2.095363	0.000248
1634	1.6248e+02	-14.9338	-142.418037	0.000629	6.285877	2.129713	0.000252
1635	1.6258e+02	-14.9001	-142.159661	0.000649	6.488648	2.198413	0.000260
1636	1.6268e+02	-14.8584	-141.921470	0.000598	5.981722	2.026662	0.000239
1637	1.6278e+02	-14.8215	-141.570239	0.000882	8.820505	2.988468	0.000353
1638	1.6288e+02	-14.7750	-141.352234	0.000547	5.474796	1.854911	0.000219
1639	1.6298e+02	-14.7413	-141.105968	0.000618	6.184492	2.095363	0.000248
1640	1.6308e+02	-14.6964	-140.859703	0.000618	6.184492	2.095363	0.000248
1641	1.6318e+02	-14.6515	-140.629586	0.000578	5.778952	1.957962	0.000231
1642	1.6328e+02	-14.6130	-140.338913	0.000730	7.299728	2.473215	0.000292
1643	1.6338e+02	-14.5745	-140.072462	0.000669	6.691418	2.267114	0.000268
1644	1.6348e+02	-14.5360	-139.769676	0.000760	7.603884	2.576266	0.000304
1645	1.6358e+02	-14.4926	-139.507263	0.000659	6.590033	2.232764	0.000264
1646	1.6368e+02	-14.4541	-139.216589	0.000730	7.299728	2.473215	0.000292
1647	1.6378e+02	-14.4172	-138.994546	0.000558	5.576181	1.889261	0.000223
1648	1.6388e+02	-14.3787	-138.695798	0.000750	7.502499	2.541915	0.000300
1649	1.6398e+02	-14.3338	-138.473756	0.000558	5.576181	1.889261	0.000223
1650	1.6408e+02	-14.2953	-138.215379	0.000649	6.488648	2.198413	0.000260
1651	1.6418e+02	-14.2536	-137.936817	0.000700	6.995573	2.370164	0.000280
1652	1.6427e+02	-14.2119	-137.634032	0.000760	7.603884	2.576266	0.000304
1653	1.6437e+02	-14.1734	-137.395841	0.000598	5.981722	2.026662	0.000239
1654	1.6447e+02	-14.1413	-137.093055	0.000760	7.603884	2.576266	0.000304
1655	1.6457e+02	-14.0964	-136.842753	0.000629	6.285877	2.129713	0.000252
1656	1.6467e+02	-14.0579	-136.568228	0.000689	6.894188	2.335814	0.000276
1657	1.6477e+02	-14.0146	-136.309851	0.000649	6.488648	2.198413	0.000260
1658	1.6487e+02	-13.9761	-136.015140	0.000740	7.401114	2.507565	0.000296
1659	1.6497e+02	-13.9376	-135.756763	0.000649	6.488648	2.198413	0.000260
1660	1.6507e+02	-13.9023	-135.458015	0.000750	7.502499	2.541915	0.000300
1661	1.6517e+02	-13.8622	-135.219824	0.000598	5.981722	2.026662	0.000239
1662	1.6527e+02	-13.8157	-134.933188	0.000720	7.198343	2.438865	0.000288
1663	1.6537e+02	-13.7707	-134.711145	0.000558	5.576181	1.889261	0.000223
1664	1.6547e+02	-13.7370	-134.408360	0.000760	7.603884	2.576266	0.000304
1665	1.6557e+02	-13.7146	-134.154021	0.000639	6.387262	2.164063	0.000256
1666	1.6567e+02	-13.6584	-133.923904	0.000578	5.778952	1.957962	0.000231
1667	1.6577e+02	-13.6264	-133.613044	0.000781	7.806654	2.644966	0.000312
1668	1.6587e+02	-13.5798	-133.366779	0.000618	6.184492	2.095363	0.000248
1669	1.6597e+02	-13.5477	-133.092254	0.000689	6.894188	2.335814	0.000276
1670	1.6607e+02	-13.5044	-132.769283	0.000811	8.110809	2.748017	0.000325
1671	1.6616e+02	-13.4659	-132.490721	0.000700	6.995573	2.370164	0.000280
1672	1.6626e+02	-13.4338	-132.272715	0.000547	5.474796	1.854911	0.000219
1673	1.6636e+02	-13.3825	-131.961856	0.000781	7.806654	2.644966	0.000312
1674	1.6646e+02	-13.3440	-131.715591	0.000618	6.184492	2.095363	0.000248
1675	1.6656e+02	-13.2927	-131.420880	0.000740	7.401114	2.507565	0.000296
1676	1.6666e+02	-13.2606	-131.158466	0.000659	6.590033	2.232764	0.000264
1677	1.6676e+02	-13.2205	-130.887978	0.000679	6.792803	2.301464	0.000272
1678	1.6686e+02	-13.1836	-130.605378	0.000710	7.096958	2.404515	0.000284
1679	1.6696e+02	-13.1339	-130.351039	0.000639	6.387262	2.164063	0.000256
1680	1.6706e+02	-13.1002	-130.036142	0.000791	7.908039	2.679316	0.000316
1681	1.6716e+02	-13.0633	-129.761617	0.000689	6.894188	2.335814	0.000276
1682	1.6726e+02	-13.0119	-129.531500	0.000578	5.778952	1.957962	0.000231
1683	1.6736e+02	-12.9847	-129.208529	0.000811	8.110809	2.748017	0.000325
1684	1.6746e+02	-12.9462	-128.982450	0.000568	5.677567	1.923612	0.000227
1685	1.6756e+02	-12.9028	-128.695813	0.000720	7.198343	2.438865	0.000288
1686	1.6766e+02	-12.8643	-128.441474	0.000639	6.387262	2.164063	0.000256
1687	1.6776e+02	-12.8274	-128.106391	0.000841	8.414965	2.851067	0.000337
1688	1.6786e+02	-12.7889	-127.904534	0.000507	5.069256	1.717510	0.000203
1689	1.6796e+02	-12.7472	-127.577526	0.000821	8.212195	2.782367	0.000329
1690	1.6806e+02	-12.7039	-127.339335	0.000598	5.981722	2.026662	0.000239
1691	1.6816e+02	-12.6590	-127.052699	0.000720	7.198343	2.438865	0.000288
1692	1.6825e+02	-12.6253	-126.802396	0.000629	6.285877	2.129713	0.000252
1693	1.6835e+02	-12.5788	-126.503648	0.000750	7.502499	2.541915	0.000300
1694	1.6845e+02	-12.5499	-126.192789	0.000781	7.806654	2.644966	0.000312
1695	1.6855e+02	-12.4922	-125.906152	0.000720	7.198343	2.438865	0.000288
1696	1.6865e+02	-12.4729	-125.595293	0.000781	7.806654	2.644966	0.000312
1697	1.6875e+02	-12.4152	-125.365176	0.000578	5.778952	1.957962	0.000231
1698	1.6885e+02	-12.3815	-125.110837	0.000639	6.387262	2.164063	0.000256
1699	1.6895e+02	-12.3430	-124.787866	0.000811	8.110809	2.748017	0.000325
1700	1.6905e+02	-12.3173	-124.549675	0.000598	5.981722	2.026662	0.000239
1701	1.6915e+02	-12.2660	-124.246889	0.000760	7.603884	2.576266	0.000304
1702	1.6925e+02	-12.2275	-123.940067	0.000771	7.705269	2.610616	0.000308
1703	1.6935e+02	-12.1922	-123.705913	0.000588	5.880337	1.992312	0.000235
1704	1.6945e+02	-12.1553	-123.419277	0.000720	7.198343	2.438865	0.000288
1705	1.6955e+02	-12.1055	-123.132640	0.000720	7.198343	2.438865	0.000288
1706	1.6965e+02	-12.0702	-122.841966	0.000730	7.299728	2.473215	0.000292
1707	1.6975e+02	-12.0301	-122.547255	0.000740	7.401114	2.507565	0.000296
1708	1.6985e+02	-11.9836	-122.272730	0.000689	6.894188	2.335814	0.000276
1709	1.6995e+02	-11.9515	-122.030502	0.000608	6.083107	2.061012	0.000243
1710	1.7005e+02	-11.9082	-121.760014	0.000679	6.792803	2.301464	0.000272
1711	1.7015e+02	-11.8649	-121.384560	0.000943	9.428816	3.194569	0.000377
1712	1.7024e+02	-11.8248	-121.118109	0.000669	6.691418	2.267114	0.000268
1713	1.7034e+02	-11.7895	-120.831473	0.000720	7.198343	2.438865	0.000288
1714	1.7044e+02	-11.7478	-120.565022	0.000669	6.691418	2.267114	0.000268
1715	1.7054e+02	-11.7045	-120.266274	0.000750	7.502499	2.541915	0.000300
1716	1.7064e+02	-11.6660	-119.943303	0.000811	8.110809	2.748017	0.000325
1717	1.7074e+02	-11.6259	-119.705112	0.000598	5.981722	2.026662	0.000239
1718	1.7084e+02	-11.5826	-119.418475	0.000720	7.198343	2.438865	0.000288
1719	1.7094e+02	-11.5505	-119.143950	0.000689	6.894188	2.335814	0.000276
1720	1.7104e+02	-11.5088	-118.849239	0.000740	7.401114	2.507565	0.000296
1721	1.7114e+02	-11.4783	-118.530305	0.000801	8.009424	2.713666	0.000321
1722	1.7124e+02	-11.4334	-118.239631	0.000730	7.299728	2.473215	0.000292
1723	1.7134e+02	-11.4061	-117.981255	0.000649	6.488648	2.198413	0.000260
1724	1.7144e+02	-11.3387	-117.682507	0.000750	7.502499	2.541915	0.000300
1725	1.7154e+02	-11.3163	-117.424130	0.000649	6.488648	2.198413	0.000260
1726	1.7164e+02	-11.2697	-117.185939	0.000598	5.981722	2.026662	0.000239
1727	1.7174e+02	-11.2216	-116.858931	0.000821	8.212195	2.782367	0.000329
1728	1.7184e+02	-11.1911	-116.588443	0.000679	6.792803	2.301464	0.000272
1729	1.7194e+02	-11.1526	-116.281621	0.000771	7.705269	2.610616	0.000308
1730	1.7204e+02	-11.1029	-115.970761	0.000781	7.806654	2.644966	0.000312
1731	1.7213e+02	-11.0644	-115.688162	0.000710	7.096958	2.404515	0.000284
1732	1.7223e+02	-11.0371	-115.357117	0.000831	8.313580	2.816717	0.000333
1733	1.7233e+02	-10.9954	-115.106814	0.000629	6.285877	2.129713	0.000252
1734	1.7243e+02	-10.9505	-114.795955	0.000781	7.806654	2.644966	0.000312
1735	1.7253e+02	-10.9120	-114.513355	0.000710	7.096958	2.404515	0.000284
1736	1.7263e+02	-10.8719	-114.186347	0.000821	8.212195	2.782367	0.000329
1737	1.7273e+02	-10.8254	-113.948156	0.000598	5.981722	2.026662	0.000239
1738	1.7283e+02	-10.7981	-113.645371	0.000760	7.603884	2.576266	0.000304
1739	1.7293e+02	-10.7500	-113.366809	0.000700	6.995573	2.370164	0.000280
1740	1.7303e+02	-10.7179	-113.072098	0.000740	7.401114	2.507565	0.000296
1741	1.7313e+02	-10.6730	-112.841981	0.000578	5.778952	1.957962	0.000231
1742	1.7323e+02	-10.6313	-112.498824	0.000862	8.617735	2.919768	0.000345
1743	1.7333e+02	-10.5927	-112.256596	0.000608	6.083107	2.061012	0.000243
1744	1.7343e+02	-10.5462	-111.885180	0.000933	9.327431	3.160219	0.000373
1745	1.7353e+02	-10.5061	-111.582395	0.000760	7.603884	2.576266	0.000304
1746	1.7363e+02	-10.4724	-111.303832	0.000700	6.995573	2.370164	0.000280
1747	1.7373e+02	-10.4307	-111.029307	0.000689	6.894188	2.335814	0.000276
1748	1.7383e+02	-10.4018	-110.706336	0.000811	8.110809	2.748017	0.000325
1749	1.7393e+02	-10.3553	-110.387402	0.000801	8.009424	2.713666	0.000321
1750	1.7403e+02	-10.3168	-110.120952	0.000669	6.691418	2.267114	0.000268
1751	1.7413e+02	-10.2799	-109.777795	0.000862	8.617735	2.919768	0.000345
1752	1.7422e+02	-10.2430	-109.479047	0.000750	7.502499	2.541915	0.000300
1753	1.7432e+02	-10.1965	-109.228745	0.000629	6.285877	2.129713	0.000252
1754	1.7442e+02	-10.1516	-108.917885	0.000781	7.806654	2.644966	0.000312
1755	1.7452e+02	-10.1211	-108.598951	0.000801	8.009424	2.713666	0.000321
1756	1.7462e+02	-10.0682	-108.336538	0.000659	6.590033	2.232764	0.000264
1757	1.7472e+02	-10.0409	-108.017604	0.000801	8.009424	2.713666	0.000321
1758	1.7482e+02	-9.9944	-107.706744	0.000781	7.806654	2.644966	0.000312
1759	1.7492e+02	-9.9543	-107.416071	0.000730	7.299728	2.473215	0.000292
1760	1.7502e+02	-9.9110	-107.121360	0.000740	7.401114	2.507565	0.000296
1761	1.7512e+02	-9.8724	-106.850872	0.000679	6.792803	2.301464	0.000272
1762	1.7522e+02	-9.8307	-106.511752	0.000852	8.516350	2.885417	0.000341
1763	1.7532e+02	-9.8019	-106.176670	0.000841	8.414965	2.851067	0.000337
1764	1.7542e+02	-9.7537	-105.865810	0.000781	7.806654	2.644966	0.000312
1765	1.7552e+02	-9.7265	-105.567062	0.000750	7.502499	2.541915	0.000300
1766	1.7562e+02	-9.6815	-105.268314	0.000750	7.502499	2.541915	0.000300
1767	1.7572e+02	-9.6366	-104.949381	0.000801	8.009424	2.713666	0.000321
1768	1.7582e+02	-9.5949	-104.626410	0.000811	8.110809	2.748017	0.000325
1769	1.7592e+02	-9.5612	-104.380145	0.000618	6.184492	2.095363	0.000248
1770	1.7602e+02	-9.5147	-104.016802	0.000912	9.124661	3.091519	0.000365
1771	1.7612e+02	-9.4794	-103.718054	0.000750	7.502499	2.541915	0.000300
1772	1.7621e+02	-9.4377	-103.415269	0.000760	7.603884	2.576266	0.000304
1773	1.7631e+02	-9.4040	-103.164967	0.000629	6.285877	2.129713	0.000252
1774	1.7641e+02	-9.3607	-102.858144	0.000771	7.705269	2.610616	0.000308
1775	1.7651e+02	-9.3126	-102.531136	0.000821	8.212195	2.782367	0.000329
1776	1.7661e+02	-9.2805	-102.236425	0.000740	7.401114	2.507565	0.000296
1777	1.7671e+02	-9.2420	-101.953826	0.000710	7.096958	2.404515	0.000284
1778	1.7681e+02	-9.2003	-101.634892	0.000801	8.009424	2.713666	0.000321
1779	1.7691e+02	-9.1650	-101.332107	0.000760	7.603884	2.576266	0.000304
1780	1.7701e+02	-9.1233	-100.997025	0.000841	8.414965	2.851067	0.000337
1781	1.7711e+02	-9.0880	-100.665980	0.000831	8.313580	2.816717	0.000333
1782	1.7721e+02	-9.0286	-100.347046	0.000801	8.009424	2.713666	0.000321
1783	1.7731e+02	-9.0046	-100.007927	0.000852	8.516350	2.885417	0.000341
1784	1.7741e+02	-8.9564	-99.705141	0.000760	7.603884	2.576266	0.000304
1785	1.7751e+02	-8.9227	-99.398319	0.000771	7.705269	2.610616	0.000308
1786	1.7761e+02	-8.8794	-99.079385	0.000801	8.009424	2.713666	0.000321
1787	1.7771e+02	-8.8409	-98.764489	0.000791	7.908039	2.679316	0.000316
1788	1.7781e+02	-8.8008	-98.437481	0.000821	8.212195	2.782367	0.000329
1789	1.7791e+02	-8.7671	-98.166993	0.000679	6.792803	2.301464	0.000272
1790	1.7801e+02	-8.7383	-97.823836	0.000862	8.617735	2.919768	0.000345
1791	1.7810e+02	-8.6773	-97.521051	0.000760	7.603884	2.576266	0.000304
1792	1.7820e+02	-8.6420	-97.214229	0.000771	7.705269	2.610616	0.000308
1793	1.7830e+02	-8.5842	-96.883183	0.000831	8.313580	2.816717	0.000333
1794	1.7840e+02	-8.5554	-96.608658	0.000689	6.894188	2.335814	0.000276
1795	1.7850e+02	-8.5121	-96.334133	0.000689	6.894188	2.335814	0.000276
1796	1.7860e+02	-8.4768	-96.003088	0.000831	8.313580	2.816717	0.000333
1797	1.7870e+02	-8.4318	-95.659931	0.000862	8.617735	2.919768	0.000345
1798	1.7880e+02	-8.3966	-95.345035	0.000791	7.908039	2.679316	0.000316
1799	1.7890e+02	-8.3613	-94.965544	0.000953	9.530201	3.228920	0.000381
1800	1.7900e+02	-8.3260	-94.654685	0.000781	7.806654	2.644966	0.000312
1801	1.7910e+02	-8.2794	-94.343825	0.000781	7.806654	2.644966	0.000312
1802	1.7920e+02	-8.2458	-94.020854	0.000811	8.110809	2.748017	0.000325
1803	1.7930e+02	-8.2073	-93.718069	0.000760	7.603884	2.576266	0.000304
1804	1.7940e+02	-8.1543	-93.403172	0.000791	7.908039	2.679316	0.000316
1805	1.7950e+02	-8.1190	-93.051942	0.000882	8.820505	2.988468	0.000353
1806	1.7960e+02	-8.0934	-92.753194	0.000750	7.502499	2.541915	0.000300
1807	1.7970e+02	-8.0468	-92.410037	0.000862	8.617735	2.919768	0.000345
1808	1.7980e+02	-8.0196	-92.115326	0.000740	7.401114	2.507565	0.000296
1809	1.7990e+02	-7.9650	-91.764095	0.000882	8.820505	2.988468	0.000353
1810	1.8000e+02	-7.9137	-91.449199	0.000791	7.908039	2.679316	0.000316
1811	1.8009e+02	-7.8768	-91.118154	0.000831	8.313580	2.816717	0.000333
1812	1.8019e+02	-7.8415	-90.863814	0.000639	6.387262	2.164063	0.000256
1813	1.8029e+02	-7.7966	-90.577177	0.000720	7.198343	2.438865	0.000288
1814	1.8039e+02	-7.7661	-90.189612	0.000973	9.732971	3.297620	0.000390
1815	1.8049e+02	-7.7164	-89.874716	0.000791	7.908039	2.679316	0.000316
1816	1.8059e+02	-7.6811	-89.503299	0.000933	9.327431	3.160219	0.000373
1817	1.8069e+02	-7.6426	-89.176291	0.000821	8.212195	2.782367	0.000329
1818	1.8079e+02	-7.5976	-88.861395	0.000791	7.908039	2.679316	0.000316
1819	1.8089e+02	-7.5688	-88.518238	0.000862	8.617735	2.919768	0.000345
1820	1.8099e+02	-7.5335	-88.207379	0.000781	7.806654	2.644966	0.000312
1821	1.8109e+02	-7.4918	-87.868259	0.000852	8.516350	2.885417	0.000341
1822	1.8119e+02	-7.4404	-87.557400	0.000781	7.806654	2.644966	0.000312
1823	1.8129e+02	-7.4180	-87.202132	0.000892	8.921890	3.022818	0.000357
1824	1.8139e+02	-7.3698	-86.867050	0.000841	8.414965	2.851067	0.000337
1825	1.8149e+02	-7.3346	-86.536005	0.000831	8.313580	2.816717	0.000333
1826	1.8159e+02	-7.2848	-86.213034	0.000811	8.110809	2.748017	0.000325
1827	1.8169e+02	-7.2511	-85.918323	0.000740	7.401114	2.507565	0.000296
1828	1.8179e+02	-7.2078	-85.591315	0.000821	8.212195	2.782367	0.000329
1829	1.8189e+02	-7.1661	-85.280455	0.000781	7.806654	2.644966	0.000312
1830	1.8199e+02	-7.1212	-84.941336	0.000852	8.516350	2.885417	0.000341
1831	1.8209e+02	-7.0843	-84.610291	0.000831	8.313580	2.816717	0.000333
1832	1.8218e+02	-7.0490	-84.303468	0.000771	7.705269	2.610616	0.000308
1833	1.8228e+02	-7.0009	-83.948201	0.000892	8.921890	3.022818	0.000357
1834	1.8238e+02	-6.9672	-83.576784	0.000933	9.327431	3.160219	0.000373
1835	1.8248e+02	-6.9287	-83.229590	0.000872	8.719120	2.954118	0.000349
1836	1.8258e+02	-6.8886	-82.938917	0.000730	7.299728	2.473215	0.000292
1837	1.8268e+02	-6.8469	-82.603834	0.000841	8.414965	2.851067	0.000337
1838	1.8278e+02	-6.8132	-82.272789	0.000831	8.313580	2.816717	0.000333
1839	1.8288e+02	-6.7667	-81.957893	0.000791	7.908039	2.679316	0.000316
1840	1.8298e+02	-6.7330	-81.671256	0.000720	7.198343	2.438865	0.000288
1841	1.8308e+02	-6.6816	-81.303877	0.000923	9.226046	3.125869	0.000369
1842	1.8318e+02	-6.6479	-80.980906	0.000811	8.110809	2.748017	0.000325
1843	1.8328e+02	-6.6094	-80.629675	0.000882	8.820505	2.988468	0.000353
1844	1.8338e+02	-6.5677	-80.322853	0.000771	7.705269	2.610616	0.000308
1845	1.8348e+02	-6.5356	-80.024105	0.000750	7.502499	2.541915	0.000300
1846	1.8358e+02	-6.4827	-79.652688	0.000933	9.327431	3.160219	0.000373
1847	1.8368e+02	-6.4490	-79.321643	0.000831	8.313580	2.816717	0.000333
1848	1.8378e+02	-6.4137	-79.055192	0.000669	6.691418	2.267114	0.000268
1849	1.8388e+02	-6.3720	-78.679738	0.000943	9.428816	3.194569	0.000377
1850	1.8398e+02	-6.3383	-78.336582	0.000862	8.617735	2.919768	0.000345
1851	1.8407e+02	-6.3014	-78.017648	0.000801	8.009424	2.713666	0.000321
1852	1.8417e+02	-6.2549	-77.662380	0.000892	8.921890	3.022818	0.000357
1853	1.8427e+02	-6.2164	-77.327298	0.000841	8.414965	2.851067	0.000337
1854	1.8437e+02	-6.1731	-76.980104	0.000872	8.719120	2.954118	0.000349
1855	1.8447e+02	-6.1330	-76.673282	0.000771	7.705269	2.610616	0.000308
1856	1.8457e+02	-6.0929	-76.338200	0.000841	8.414965	2.851067	0.000337
1857	1.8467e+02	-6.0592	-76.007155	0.000831	8.313580	2.816717	0.000333
1858	1.8477e+02	-6.0111	-75.676109	0.000831	8.313580	2.816717	0.000333
1859	1.8487e+02	-5.9758	-75.324879	0.000882	8.820505	2.988468	0.000353
1860	1.8497e+02	-5.9341	-74.985759	0.000852	8.516350	2.885417	0.000341
1861	1.8507e+02	-5.8972	-74.654714	0.000831	8.313580	2.816717	0.000333
1862	1.8517e+02	-5.8667	-74.355966	0.000750	7.502499	2.541915	0.000300
1863	1.8527e+02	-5.8234	-74.012809	0.000862	8.617735	2.919768	0.000345
1864	1.8537e+02	-5.7672	-73.718099	0.000740	7.401114	2.507565	0.000296
1865	1.8547e+02	-5.7319	-73.383016	0.000841	8.414965	2.851067	0.000337
1866	1.8557e+02	-5.6934	-72.971228	0.001034	10.341282	3.503721	0.000414
1867	1.8567e+02	-5.6533	-72.704778	0.000669	6.691418	2.267114	0.000268
1868	1.8577e+02	-5.6164	-72.349510	0.000892	8.921890	3.022818	0.000357
1869	1.8587e+02	-5.5763	-71.957907	0.000983	9.834356	3.331970	0.000394
1870	1.8597e+02	-5.5394	-71.610714	0.000872	8.719120	2.954118	0.000349
1871	1.8606e+02	-5.4961	-71.303891	0.000771	7.705269	2.610616	0.000308
1872	1.8616e+02	-5.4512	-70.912289	0.000983	9.834356	3.331970	0.000394
1873	1.8626e+02	-5.4111	-70.657950	0.000639	6.387262	2.164063	0.000256
1874	1.8636e+02	-5.3726	-70.286533	0.000933	9.327431	3.160219	0.000373
1875	1.8646e+02	-5.3421	-69.963562	0.000811	8.110809	2.748017	0.000325
1876	1.8656e+02	-5.2924	-69.648666	0.000791	7.908039	2.679316	0.000316
1877	1.8666e+02	-5.2651	-69.273212	0.000943	9.428816	3.194569	0.000377
1878	1.8676e+02	-5.2105	-68.921981	0.000882	8.820505	2.988468	0.000353
1879	1.8686e+02	-5.1849	-68.562676	0.000902	9.023276	3.057168	0.000361
1880	1.8696e+02	-5.1432	-68.215483	0.000872	8.719120	2.954118	0.000349
1881	1.8706e+02	-5.0966	-67.912697	0.000760	7.603884	2.576266	0.000304
1882	1.8716e+02	-5.0549	-67.605875	0.000771	7.705269	2.610616	0.000308
1883	1.8726e+02	-5.0084	-67.238496	0.000923	9.226046	3.125869	0.000369
1884	1.8736e+02	-4.9763	-66.863042	0.000943	9.428816	3.194569	0.000377
1885	1.8746e+02	-4.9346	-66.540071	0.000811	8.110809	2.748017	0.000325
1886	1.8756e+02	-4.8977	-66.168655	0.000933	9.327431	3.160219	0.000373
1887	1.8766e+02	-4.8592	-65.861832	0.000771	7.705269	2.610616	0.000308
1888	1.8776e+02	-4.8095	-65.546936	0.000791	7.908039	2.679316	0.000316
1889	1.8786e+02	-4.7774	-65.155334	0.000983	9.834356	3.331970	0.000394
1890	1.8796e+02	-4.7341	-64.820251	0.000841	8.414965	2.851067	0.000337
1891	1.8806e+02	-4.7004	-64.440761	0.000953	9.530201	3.228920	0.000381
1892	1.8815e+02	-4.6715	-64.125864	0.000791	7.908039	2.679316	0.000316
1893	1.8825e+02	-4.6186	-63.790782	0.000841	8.414965	2.851067	0.000337
1894	1.8835e+02	-4.5785	-63.463774	0.000821	8.212195	2.782367	0.000329
1895	1.8845e+02	-4.5480	-63.056023	0.001024	10.239897	3.469371	0.000410
1896	1.8855e+02	-4.5047	-62.785535	0.000679	6.792803	2.301464	0.000272
1897	1.8865e+02	-4.4582	-62.438341	0.000872	8.719120	2.954118	0.000349
1898	1.8875e+02	-4.4213	-62.099222	0.000852	8.516350	2.885417	0.000341
1899	1.8885e+02	-4.3715	-61.764140	0.000841	8.414965	2.851067	0.000337
1900	1.8895e+02	-4.3394	-61.396760	0.000923	9.226046	3.125869	0.000369
1901	1.8905e+02	-4.2929	-61.049567	0.000872	8.719120	2.954118	0.000349
1902	1.8915e+02	-4.2560	-60.706410	0.000862	8.617735	2.919768	0.000345
1903	1.8925e+02	-4.2239	-60.351142	0.000892	8.921890	3.022818	0.000357
1904	1.8935e+02	-4.1870	-60.048357	0.000760	7.603884	2.576266	0.000304
1905	1.8945e+02	-4.1357	-59.644643	0.001014	10.138512	3.435021	0.000406
1906	1.8955e+02	-4.1052	-59.321673	0.000811	8.110809	2.748017	0.000325
1907	1.8965e+02	-4.0571	-58.966405	0.000892	8.921890	3.022818	0.000357
1908	1.8975e+02	-4.0298	-58.651508	0.000791	7.908039	2.679316	0.000316
1909	1.8985e+02	-3.9753	-58.255869	0.000994	9.935742	3.366320	0.000398
1910	1.8995e+02	-3.9416	-57.936935	0.000801	8.009424	2.713666	0.000321
1911	1.9004e+02	-3.8983	-57.618001	0.000801	8.009424	2.713666	0.000321
1912	1.9014e+02	-3.8614	-57.218325	0.001004	10.037127	3.400671	0.000402
1913	1.9024e+02	-3.8229	-56.895354	0.000811	8.110809	2.748017	0.000325
1914	1.9034e+02	-3.7764	-56.515863	0.000953	9.530201	3.228920	0.000381
1915	1.9044e+02	-3.7363	-56.172707	0.000862	8.617735	2.919768	0.000345
1916	1.9054e+02	-3.7106	-55.857810	0.000791	7.908039	2.679316	0.000316
1917	1.9064e+02	-3.6625	-55.486394	0.000933	9.327431	3.160219	0.000373
1918	1.9074e+02	-3.6175	-55.127089	0.000902	9.023276	3.057168	0.000361
1919	1.9084e+02	-3.5790	-54.767783	0.000902	9.023276	3.057168	0.000361
1920	1.9094e+02	-3.5405	-54.416553	0.000882	8.820505	2.988468	0.000353
1921	1.9104e+02	-3.5004	-54.065322	0.000882	8.820505	2.988468	0.000353
1922	1.9114e+02	-3.4603	-53.718128	0.000872	8.719120	2.954118	0.000349
1923	1.9124e+02	-3.4234	-53.366897	0.000882	8.820505	2.988468	0.000353
1924	1.9134e+02	-3.3801	-52.991444	0.000943	9.428816	3.194569	0.000377
1925	1.9144e+02	-3.3464	-52.652324	0.000852	8.516350	2.885417	0.000341
1926	1.9154e+02	-3.3047	-52.256685	0.000994	9.935742	3.366320	0.000398
1927	1.9164e+02	-3.2726	-51.909491	0.000872	8.719120	2.954118	0.000349
1928	1.9174e+02	-3.2197	-51.538075	0.000933	9.327431	3.160219	0.000373
1929	1.9184e+02	-3.1892	-51.190881	0.000872	8.719120	2.954118	0.000349
1930	1.9194e+02	-3.1539	-50.855799	0.000841	8.414965	2.851067	0.000337
1931	1.9203e+02	-3.1074	-50.512642	0.000862	8.617735	2.919768	0.000345
1932	1.9213e+02	-3.0737	-50.149300	0.000912	9.124661	3.091519	0.000365
1933	1.9223e+02	-3.0272	-49.810181	0.000852	8.516350	2.885417	0.000341
1934	1.9233e+02	-2.9710	-49.471061	0.000852	8.516350	2.885417	0.000341
1935	1.9243e+02	-2.9486	-49.083496	0.000973	9.732971	3.297620	0.000390
1936	1.9253e+02	-2.9005	-48.667671	0.001044	10.442667	3.538071	0.000418
1937	1.9263e+02	-2.8636	-48.360849	0.000771	7.705269	2.610616	0.000308
1938	1.9273e+02	-2.8218	-47.989433	0.000933	9.327431	3.160219	0.000373
1939	1.9283e+02	-2.7946	-47.613979	0.000943	9.428816	3.194569	0.000377
1940	1.9293e+02	-2.7464	-47.246600	0.000923	9.226046	3.125869	0.000369
1941	1.9303e+02	-2.7063	-46.859035	0.000973	9.732971	3.297620	0.000390
1942	1.9313e+02	-2.6678	-46.548175	0.000781	7.806654	2.644966	0.000312
1943	1.9323e+02	-2.6213	-46.160610	0.000973	9.732971	3.297620	0.000390
1944	1.9333e+02	-2.5876	-45.805342	0.000892	8.921890	3.022818	0.000357
1945	1.9343e+02	-2.5539	-45.437963	0.000923	9.226046	3.125869	0.000369
1946	1.9353e+02	-2.5138	-45.074621	0.000912	9.124661	3.091519	0.000365
1947	1.9363e+02	-2.4737	-44.723390	0.000882	8.820505	2.988468	0.000353
1948	1.9373e+02	-2.4240	-44.372159	0.000882	8.820505	2.988468	0.000353
1949	1.9383e+02	-2.3887	-44.008817	0.000912	9.124661	3.091519	0.000365
1950	1.9393e+02	-2.3470	-43.641437	0.000923	9.226046	3.125869	0.000369
1951	1.9403e+02	-2.3069	-43.274058	0.000923	9.226046	3.125869	0.000369
1952	1.9412e+02	-2.2780	-42.943013	0.000831	8.313580	2.816717	0.000333
1953	1.9422e+02	-2.2315	-42.527188	0.001044	10.442667	3.538071	0.000418
1954	1.9432e+02	-2.1962	-42.147697	0.000953	9.530201	3.228920	0.000381
1955	1.9442e+02	-2.1465	-41.792429	0.000892	8.921890	3.022818	0.000357
1956	1.9452e+02	-2.1096	-41.388716	0.001014	10.138512	3.435021	0.000406
1957	1.9462e+02	-2.0759	-41.049596	0.000852	8.516350	2.885417	0.000341
1958	1.9472e+02	-2.0310	-40.690291	0.000902	9.023276	3.057168	0.000361
1959	1.9482e+02	-1.9973	-40.335023	0.000892	8.921890	3.022818	0.000357
1960	1.9492e+02	-1.9491	-39.999941	0.000841	8.414965	2.851067	0.000337
1961	1.9502e+02	-1.9122	-39.596227	0.001014	10.138512	3.435021	0.000406
1962	1.9512e+02	-1.8689	-39.192514	0.001014	10.138512	3.435021	0.000406
1963	1.9522e+02	-1.8224	-38.833209	0.000902	9.023276	3.057168	0.000361
1964	1.9532e+02	-1.7919	-38.457755	0.000943	9.428816	3.194569	0.000377
1965	1.9542e+02	-1.7518	-38.118636	0.000852	8.516350	2.885417	0.000341
1966	1.9552e+02	-1.7117	-37.710885	0.001024	10.239897	3.469371	0.000410
1967	1.9562e+02	-1.6620	-37.371766	0.000852	8.516350	2.885417	0.000341
1968	1.9572e+02	-1.6251	-37.077055	0.000740	7.401114	2.507565	0.000296
1969	1.9582e+02	-1.5930	-36.697564	0.000953	9.530201	3.228920	0.000381
1970	1.9592e+02	-1.5465	-36.314036	0.000963	9.631586	3.263270	0.000385
1971	1.9601e+02	-1.5048	-35.902248	0.001034	10.341282	3.503721	0.000414
1972	1.9611e+02	-1.4663	-35.534869	0.000923	9.226046	3.125869	0.000369
1973	1.9621e+02	-1.4310	-35.139229	0.000994	9.935742	3.366320	0.000398
1974	1.9631e+02	-1.3989	-34.808184	0.000831	8.313580	2.816717	0.000333
1975	1.9641e+02	-1.3508	-34.440805	0.000923	9.226046	3.125869	0.000369
1976	1.9651e+02	-1.2914	-34.045166	0.000994	9.935742	3.366320	0.000398
1977	1.9661e+02	-1.2689	-33.677786	0.000923	9.226046	3.125869	0.000369
1978	1.9671e+02	-1.2272	-33.282147	0.000994	9.935742	3.366320	0.000398
1979	1.9681e+02	-1.1919	-32.918805	0.000912	9.124661	3.091519	0.000365
1980	1.9691e+02	-1.1486	-32.567574	0.000882	8.820505	2.988468	0.000353
1981	1.9701e+02	-1.1053	-32.180009	0.000973	9.732971	3.297620	0.000390
1982	1.9711e+02	-1.0796	-31.792444	0.000973	9.732971	3.297620	0.000390
1983	1.9721e+02	-1.0331	-31.441213	0.000882	8.820505	2.988468	0.000353
1984	1.9731e+02	-0.9930	-31.065760	0.000943	9.428816	3.194569	0.000377
1985	1.9741e+02	-0.9369	-30.718566	0.000872	8.719120	2.954118	0.000349
1986	1.9751e+02	-0.9016	-30.379446	0.000852	8.516350	2.885417	0.000341
1987	1.9761e+02	-0.8695	-29.987844	0.000983	9.834356	3.331970	0.000394
1988	1.9771e+02	-0.8246	-29.596242	0.000983	9.834356	3.331970	0.000394
1989	1.9781e+02	-0.7941	-29.140046	0.001146	11.456518	3.881573	0.000458
1990	1.9791e+02	-0.7508	-28.804963	0.000841	8.414965	2.851067	0.000337
1991	1.9800e+02	-0.7155	-28.449696	0.000892	8.921890	3.022818	0.000357
1992	1.9810e+02	-0.6722	-28.054056	0.000994	9.935742	3.366320	0.000398
1993	1.9820e+02	-0.6417	-27.690714	0.000912	9.124661	3.091519	0.000365
1994	1.9830e+02	-0.5968	-27.287000	0.001014	10.138512	3.435021	0.000406
1995	1.9840e+02	-0.5535	-26.911547	0.000943	9.428816	3.194569	0.000377
1996	1.9850e+02	-0.5069	-26.572427	0.000852	8.516350	2.885417	0.000341
1997	1.9860e+02	-0.4652	-26.168714	0.001014	10.138512	3.435021	0.000406
1998	1.9870e+02	-0.4299	-25.801335	0.000923	9.226046	3.125869	0.000369
1999	1.9880e+02	-0.3962	-25.437992	0.000912	9.124661	3.091519	0.000365
2000	1.9890e+02	-0.3561	-25.030242	0.001024	10.239897	3.469371	0.000410
2001	1.9900e+02	-0.3144	-24.638639	0.000983	9.834356	3.331970	0.000394
2002	1.9910e+02	-0.2727	-24.311631	0.000821	8.212195	2.782367	0.000329
2003	1.9920e+02	-0.2310	-23.924066	0.000973	9.732971	3.297620	0.000390
2004	1.9930e+02	-0.1925	-23.580910	0.000862	8.617735	2.919768	0.000345
2005	1.9940e+02	-0.1492	-23.241790	0.000852	8.516350	2.885417	0.000341
2006	1.9950e+02	-0.1139	-22.850188	0.000983	9.834356	3.331970	0.000394
2007	1.9960e+02	-0.0722	-22.422252	0.001075	10.746823	3.641122	0.000430
2008	1.9970e+02	-0.0385	-22.058910	0.000912	9.124661	3.091519	0.000365
2009	1.9980e+02	-0.0032	-21.667308	0.000912	9.124661	3.091519	0.000394

PMax (uC/cm2):	1.82e+02
Pr (uC/cm2):	1.58e+01
-Pr (uC/cm2):	-9.51e+00
PLoss (uC/cm2):	-9.53e+00
-Vc:	-1.64e+00
C (Max-Eff) (nF):	9.09e-01
K (Eff):	3.08e+03
Vert. (+/-Pr) Shift (uC/cm2):	3.14e+00
Offset (uC/cm2):	1.22e+01

A (Loop Area - uC/cm2·Volts):	1.15e-02



Hysteresis Version: 5.48.1 - Radiant Technologies, Inc., 1999 - 9/12/24

