»»»»»»»»»»»»»»»»»»»»»»»»»»»»»»»»»»»» Hysteresis ««««««««««««««««««««««««««««««««««««
»»»  Executed Version:	5.48.1
»»»  Vision Version:	5.48.4 (R)
»»»  Vision Compiled:	9/18/24
»»»  Driver Version:	5.47.0
»»»  Windows Version:	Windows 8 or 8.1
»»»  Processor Information:	x86 (AMD or Intel) - 32 Processors
»»»  Tester Name:	PMF21124-494 (100V)
»»»  Tester S/N:	PMF21124-494
»»»  Internal Amp Type:	100V RevK 270k
»»»  Internal Amp S/N:	iAB2-596/K     
»»»  Execution Count:	1
»»»»»»»»»»»»»»»»»»»»»»»»»»»»»»»»»»»»»»»»»»««««««««««««««««««««««««««««««««««««««««««

Stored:	6/18/2025 - 17:5:3
Configured:	06/18/25 09:47:30 AM
Executed:	06/18/25 05:04:37 PM

»»»»»»»»»»»»»»»»»»»»»»»»»»»»»»»»»»» Sample Info ««««««««««««««««««««««««««««««««««««
Sample Name:	
Lot Name:	
Wafer Name:	
Die Row/Column:	0/0
Capacitor Number:	0
Sample Area (cm2):	1.00e-04
Sample Thickness (microns):	3.00e-01

Amplifier:	Internal

»»»»»»»»»»»»»»»»»»»»»»»»»»»»»»»»»»» Tester Info «««««««««««««««««««««««««««««««««««
Tester Name:	PMF21124-494 (100V)
Tester Serial Number:	PMF21124-494
Return Signal Amp. Level:	0.19 [Index: 3]

»»»»»»»»»»»»»»»»»»»»»»»»»»»»»»»» Hysteresis Info ««««««««««««««««««««««««««««««««««
Task Name:	Hyst-554
Volts:	20.00
Field:	666.67 (kV/cm)
DCBias:	0.00
DCField:	0.00 (kV/cm)
Hysteresis Period (ms):	1.00e+00
Preset:	Enabled
Preset Delay (ms):	1.00e+03
Profile:	Standard Bipolar

»»»»»»»»»»»»»»»»»»»»»»»»»»»»»»»»»»»»»» Data «««««««««««««««««««««««««««««««««««««««
Points:	2001

Valid Data

Point	Time (ms)	Drive Voltage	Measured Polarization (uC/cm2)	Capacitance (uF)	Normalized Capacitance (uF/cm2)	Dielectric Constant	Instantaneous Current (mA)
   1	0.0000e+00	0.0193	-16.005352	0.000061	0.606279	0.205413	0.004840
   2	5.0000e-04	0.0385	-15.981153	0.000061	0.606279	0.205413	0.004840
   3	1.0000e-03	0.0594	-15.892425	0.000222	2.223022	0.753180	0.017746
   4	1.5000e-03	0.0898	-15.666572	0.000566	5.658601	1.917186	0.045171
   5	2.0000e-03	0.1267	-15.255195	0.001031	10.306738	3.492017	0.082275
   6	2.5000e-03	0.1749	-14.896250	0.000899	8.993134	3.046956	0.071789
   7	3.0000e-03	0.2021	-14.734926	0.000404	4.041858	1.369419	0.032265
   8	3.5000e-03	0.2487	-14.299351	0.001091	10.913017	3.697430	0.087115
   9	4.0000e-03	0.2888	-14.013001	0.000717	7.174298	2.430718	0.057270
  10	4.5000e-03	0.3417	-13.875876	0.000344	3.435579	1.164006	0.027425
  11	5.0000e-03	0.3786	-13.605658	0.000677	6.770112	2.293776	0.054044
  12	5.5000e-03	0.4171	-13.218481	0.000970	9.700460	3.286605	0.077435
  13	6.0000e-03	0.4492	-12.843402	0.000940	9.397320	3.183898	0.075016
  14	6.5000e-03	0.4877	-12.561086	0.000707	7.073252	2.396483	0.056463
  15	7.0000e-03	0.5294	-12.266669	0.000738	7.376391	2.499189	0.058883
  16	7.5000e-03	0.5647	-11.839161	0.001071	10.710924	3.628959	0.085502
  17	8.0000e-03	0.6208	-11.560877	0.000697	6.972205	2.362247	0.055657
  18	8.5000e-03	0.6449	-11.302759	0.000647	6.466973	2.191070	0.051624
  19	9.0000e-03	0.6898	-11.052707	0.000626	6.264880	2.122599	0.050010
  20	9.5000e-03	0.7219	-10.685695	0.000920	9.195227	3.115427	0.073402
  21	1.0000e-02	0.7620	-10.238021	0.001122	11.216156	3.800137	0.089535
  22	1.0500e-02	0.8133	-9.907307	0.000829	8.285809	2.807308	0.066143
  23	1.1000e-02	0.8551	-9.657255	0.000626	6.264880	2.122599	0.050010
  24	1.1500e-02	0.8855	-9.157150	0.001253	12.529760	4.245198	0.100021
  25	1.2000e-02	0.9224	-8.911131	0.000616	6.163834	2.088363	0.049204
  26	1.2500e-02	0.9657	-8.588483	0.000808	8.083716	2.738837	0.064530
  27	1.3000e-02	1.0107	-8.273902	0.000788	7.881623	2.670366	0.062916
  28	1.3500e-02	1.0363	-7.967386	0.000768	7.679530	2.601895	0.061303
  29	1.4000e-02	1.0941	-7.677003	0.000728	7.275345	2.464953	0.058077
  30	1.4500e-02	1.1278	-7.346289	0.000829	8.285809	2.807308	0.066143
  31	1.5000e-02	1.1791	-7.047840	0.000748	7.477438	2.533424	0.059690
  32	1.5500e-02	1.2176	-6.660662	0.000970	9.700460	3.286605	0.077435
  33	1.6000e-02	1.2465	-6.261386	0.001000	10.003599	3.389311	0.079855
  34	1.6500e-02	1.2882	-5.910506	0.000879	8.791041	2.978485	0.070176
  35	1.7000e-02	1.3299	-5.664487	0.000616	6.163834	2.088363	0.049204
  36	1.7500e-02	1.3764	-5.273276	0.000980	9.801506	3.320840	0.078242
  37	1.8000e-02	1.4133	-4.890132	0.000960	9.599413	3.252369	0.076629
  38	1.8500e-02	1.4486	-4.664279	0.000566	5.658601	1.917186	0.045171
  39	1.9000e-02	1.4903	-4.301300	0.000909	9.094181	3.081192	0.072596
  40	1.9500e-02	1.5288	-3.954453	0.000869	8.689995	2.944250	0.069369
  41	2.0000e-02	1.5738	-3.623739	0.000829	8.285809	2.807308	0.066143
  42	2.0500e-02	1.6123	-3.321257	0.000758	7.578484	2.567660	0.060496
  43	2.1000e-02	1.6459	-3.010708	0.000778	7.780577	2.636131	0.062110
  44	2.1500e-02	1.6925	-2.643696	0.000920	9.195227	3.115427	0.073402
  45	2.2000e-02	1.7342	-2.220221	0.001061	10.609878	3.594724	0.084695
  46	2.2500e-02	1.7679	-1.945970	0.000687	6.871159	2.328012	0.054850
  47	2.3000e-02	1.8160	-1.522495	0.001061	10.609878	3.594724	0.084695
  48	2.3500e-02	1.8497	-1.236145	0.000717	7.174298	2.430718	0.057270
  49	2.4000e-02	1.8946	-0.885265	0.000879	8.791041	2.978485	0.070176
  50	2.4500e-02	1.9251	-0.627147	0.000647	6.466973	2.191070	0.051624
  51	2.5000e-02	1.9732	-0.312565	0.000788	7.881623	2.670366	0.062916
  52	2.5500e-02	2.0101	0.219804	0.001334	13.338132	4.519081	0.106474
  53	2.6000e-02	2.0486	0.546485	0.000818	8.184763	2.773073	0.065336
  54	2.6500e-02	2.0839	0.909464	0.000909	9.094181	3.081192	0.072596
  55	2.7000e-02	2.1240	1.171615	0.000657	6.568019	2.225305	0.052430
  56	2.7500e-02	2.1689	1.574925	0.001010	10.104645	3.423547	0.080662
  57	2.8000e-02	2.2106	1.857242	0.000707	7.073252	2.396483	0.056463
  58	2.8500e-02	2.2507	2.179890	0.000808	8.083716	2.738837	0.064530
  59	2.9000e-02	2.2892	2.559001	0.000950	9.498367	3.218134	0.075822
  60	2.9500e-02	2.3277	3.115569	0.001394	13.944411	4.724494	0.111314
  61	3.0000e-02	2.3598	3.353521	0.000596	5.961741	2.019892	0.047591
  62	3.0500e-02	2.4112	3.611640	0.000647	6.466973	2.191070	0.051624
  63	3.1000e-02	2.4497	3.990751	0.000950	9.498367	3.218134	0.075822
  64	3.1500e-02	2.4978	4.410193	0.001051	10.508831	3.560488	0.083888
  65	3.2000e-02	2.5267	4.652179	0.000606	6.062787	2.054128	0.048397
  66	3.2500e-02	2.5636	4.999026	0.000869	8.689995	2.944250	0.069369
  67	3.3000e-02	2.6037	5.470898	0.001182	11.822435	4.005549	0.094375
  68	3.3500e-02	2.6486	5.652388	0.000455	4.547090	1.540596	0.036298
  69	3.4000e-02	2.6903	6.192823	0.001354	13.540225	4.587552	0.108087
  70	3.4500e-02	2.7320	6.511438	0.000798	7.982670	2.704602	0.063723
  71	3.5000e-02	2.7673	6.910714	0.001000	10.003599	3.389311	0.079855
  72	3.5500e-02	2.8138	7.241429	0.000829	8.285809	2.807308	0.066143
  73	3.6000e-02	2.8507	7.435017	0.000485	4.850230	1.643302	0.038718
  74	3.6500e-02	2.8844	7.749599	0.000788	7.881623	2.670366	0.062916
  75	3.7000e-02	2.9341	8.160975	0.001031	10.306738	3.492017	0.082275
  76	3.7500e-02	2.9662	8.584450	0.001061	10.609878	3.594724	0.084695
  77	3.8000e-02	3.0063	8.987760	0.001010	10.104645	3.423547	0.080662
  78	3.8500e-02	3.0529	9.270077	0.000707	7.073252	2.396483	0.056463
  79	3.9000e-02	3.0898	9.661288	0.000980	9.801506	3.320840	0.078242
  80	3.9500e-02	3.1315	10.068631	0.001021	10.205692	3.457782	0.081469
  81	4.0000e-02	3.1732	10.375146	0.000768	7.679530	2.601895	0.061303
  82	4.0500e-02	3.2117	10.774423	0.001000	10.003599	3.389311	0.079855
  83	4.1000e-02	3.2518	11.121269	0.000869	8.689995	2.944250	0.069369
  84	4.1500e-02	3.2935	11.581043	0.001152	11.519296	3.902843	0.091955
  85	4.2000e-02	3.3272	11.944022	0.000909	9.094181	3.081192	0.072596
  86	4.2500e-02	3.3657	12.238438	0.000738	7.376391	2.499189	0.058883
  87	4.3000e-02	3.4154	12.577218	0.000849	8.487902	2.875779	0.067756
  88	4.3500e-02	3.4459	13.077322	0.001253	12.529760	4.245198	0.100021
  89	4.4000e-02	3.4972	13.234613	0.000394	3.940812	1.335183	0.031458
  90	4.4500e-02	3.5357	13.629857	0.000990	9.902552	3.355076	0.079049
  91	4.5000e-02	3.5662	14.065431	0.001091	10.913017	3.697430	0.087115
  92	4.5500e-02	3.6127	14.307417	0.000606	6.062787	2.054128	0.048397
  93	4.6000e-02	3.6544	14.674429	0.000920	9.195227	3.115427	0.073402
  94	4.6500e-02	3.6929	15.138236	0.001162	11.620342	3.937079	0.092761
  95	4.7000e-02	3.7314	15.444751	0.000768	7.679530	2.601895	0.061303
  96	4.7500e-02	3.7683	15.747233	0.000758	7.578484	2.567660	0.060496
  97	4.8000e-02	3.8133	16.202974	0.001142	11.418249	3.868608	0.091148
  98	4.8500e-02	3.8502	16.505456	0.000758	7.578484	2.567660	0.060496
  99	4.9000e-02	3.8951	16.965229	0.001152	11.519296	3.902843	0.091955
 100	4.9500e-02	3.9320	17.304010	0.000849	8.487902	2.875779	0.067756
 101	5.0000e-02	3.9721	17.743617	0.001101	11.014063	3.731666	0.087922
 102	5.0500e-02	4.0090	18.207424	0.001162	11.620342	3.937079	0.092761
 103	5.1000e-02	4.0475	18.530072	0.000808	8.083716	2.738837	0.064530
 104	5.1500e-02	4.0892	18.828521	0.000748	7.477438	2.533424	0.059690
 105	5.2000e-02	4.1389	19.243930	0.001041	10.407785	3.526253	0.083082
 106	5.2500e-02	4.1694	19.619008	0.000940	9.397320	3.183898	0.075016
 107	5.3000e-02	4.2111	20.014252	0.000990	9.902552	3.355076	0.079049
 108	5.3500e-02	4.2480	20.328834	0.000788	7.881623	2.670366	0.062916
 109	5.4000e-02	4.2849	20.703912	0.000940	9.397320	3.183898	0.075016
 110	5.4500e-02	4.3298	21.010427	0.000768	7.679530	2.601895	0.061303
 111	5.5000e-02	4.3651	21.579094	0.001425	14.247550	4.827201	0.113733
 112	5.5500e-02	4.4004	21.881576	0.000758	7.578484	2.567660	0.060496
 113	5.6000e-02	4.4501	22.212291	0.000829	8.285809	2.807308	0.066143
 114	5.6500e-02	4.4854	22.559137	0.000869	8.689995	2.944250	0.069369
 115	5.7000e-02	4.5271	22.901950	0.000859	8.588949	2.910015	0.068563
 116	5.7500e-02	4.5769	23.232664	0.000829	8.285809	2.807308	0.066143
 117	5.8000e-02	4.6170	23.668239	0.001091	10.913017	3.697430	0.087115
 118	5.8500e-02	4.6475	24.063483	0.000990	9.902552	3.355076	0.079049
 119	5.9000e-02	4.6860	24.466793	0.001010	10.104645	3.423547	0.080662
 120	5.9500e-02	4.7309	24.922533	0.001142	11.418249	3.868608	0.091148
 121	6.0000e-02	4.7646	25.225015	0.000758	7.578484	2.567660	0.060496
 122	6.0500e-02	4.8047	25.471034	0.000616	6.163834	2.088363	0.049204
 123	6.1000e-02	4.8544	26.011469	0.001354	13.540225	4.587552	0.108087
 124	6.1500e-02	4.8881	26.257488	0.000616	6.163834	2.088363	0.049204
 125	6.2000e-02	4.9234	26.705162	0.001122	11.216156	3.800137	0.089535
 126	6.2500e-02	4.9715	27.088307	0.000960	9.599413	3.252369	0.076629
 127	6.3000e-02	5.0068	27.463385	0.000940	9.397320	3.183898	0.075016
 128	6.3500e-02	5.0549	27.814265	0.000879	8.791041	2.978485	0.070176
 129	6.4000e-02	5.0934	28.399064	0.001465	14.651736	4.964142	0.116960
 130	6.4500e-02	5.1351	28.584586	0.000465	4.648137	1.574831	0.037105
 131	6.5000e-02	5.1817	29.036293	0.001132	11.317203	3.834372	0.090341
 132	6.5500e-02	5.2138	29.306511	0.000677	6.770112	2.293776	0.054044
 133	6.6000e-02	5.2571	29.838880	0.001334	13.338132	4.519081	0.106474
 134	6.6500e-02	5.2908	30.169594	0.000829	8.285809	2.807308	0.066143
 135	6.7000e-02	5.3373	30.580970	0.001031	10.306738	3.492017	0.082275
 136	6.7500e-02	5.3742	30.927817	0.000869	8.689995	2.944250	0.069369
 137	6.8000e-02	5.4111	31.375491	0.001122	11.216156	3.800137	0.089535
 138	6.8500e-02	5.4544	31.593278	0.000546	5.456508	1.848715	0.043557
 139	6.9000e-02	5.4865	32.049018	0.001142	11.418249	3.868608	0.091148
 140	6.9500e-02	5.5282	32.508791	0.001152	11.519296	3.902843	0.091955
 141	7.0000e-02	5.5683	32.766910	0.000647	6.466973	2.191070	0.051624
 142	7.0500e-02	5.6068	33.250881	0.001213	12.125574	4.108256	0.096794
 143	7.1000e-02	5.6501	33.795350	0.001364	13.641271	4.621788	0.108894
 144	7.1500e-02	5.6918	34.113965	0.000798	7.982670	2.704602	0.063723
 145	7.2000e-02	5.7271	34.380149	0.000667	6.669066	2.259541	0.053237
 146	7.2500e-02	5.7672	34.831856	0.001132	11.317203	3.834372	0.090341
 147	7.3000e-02	5.8105	35.134338	0.000758	7.578484	2.567660	0.060496
 148	7.3500e-02	5.8522	35.582012	0.001122	11.216156	3.800137	0.089535
 149	7.4000e-02	5.8859	35.997422	0.001041	10.407785	3.526253	0.083082
 150	7.4500e-02	5.9357	36.477360	0.001202	12.024528	4.074020	0.095988
 151	7.5000e-02	5.9694	36.747578	0.000677	6.770112	2.293776	0.054044
 152	7.5500e-02	6.0079	37.037961	0.000728	7.275345	2.464953	0.058077
 153	7.6000e-02	6.0496	37.493701	0.001142	11.418249	3.868608	0.091148
 154	7.6500e-02	6.0897	37.872812	0.000950	9.498367	3.218134	0.075822
 155	7.7000e-02	6.1378	38.114798	0.000606	6.062787	2.054128	0.048397
 156	7.7500e-02	6.1683	38.550373	0.001091	10.913017	3.697430	0.087115
 157	7.8000e-02	6.2036	39.022246	0.001182	11.822435	4.005549	0.094375
 158	7.8500e-02	6.2437	39.538482	0.001293	12.933946	4.382140	0.103247
 159	7.9000e-02	6.2934	39.824832	0.000717	7.174298	2.430718	0.057270
 160	7.9500e-02	6.3223	40.212010	0.000970	9.700460	3.286605	0.077435
 161	8.0000e-02	6.3768	40.579022	0.000920	9.195227	3.115427	0.073402
 162	8.0500e-02	6.4105	40.942000	0.000909	9.094181	3.081192	0.072596
 163	8.1000e-02	6.4442	41.623594	0.001708	17.076851	5.785794	0.136319
 164	8.1500e-02	6.4859	41.853481	0.000576	5.759648	1.951422	0.045977
 165	8.2000e-02	6.5356	42.135798	0.000707	7.073252	2.396483	0.056463
 166	8.2500e-02	6.5725	42.518942	0.000960	9.599413	3.252369	0.076629
 167	8.3000e-02	6.6094	42.845623	0.000818	8.184763	2.773073	0.065336
 168	8.3500e-02	6.6544	43.369926	0.001314	13.136039	4.450610	0.104861
 169	8.4000e-02	6.6832	43.801467	0.001081	10.811971	3.663195	0.086308
 170	8.4500e-02	6.7346	44.160413	0.000899	8.993134	3.046956	0.071789
 171	8.5000e-02	6.7618	44.515326	0.000889	8.892088	3.012721	0.070983
 172	8.5500e-02	6.8068	44.894437	0.000950	9.498367	3.218134	0.075822
 173	8.6000e-02	6.8533	45.196919	0.000758	7.578484	2.567660	0.060496
 174	8.6500e-02	6.8886	45.600229	0.001010	10.104645	3.423547	0.080662
 175	8.7000e-02	6.9287	46.047903	0.001122	11.216156	3.800137	0.089535
 176	8.7500e-02	6.9688	46.358452	0.000778	7.780577	2.636131	0.062110
 177	8.8000e-02	7.0153	46.846457	0.001223	12.226621	4.142491	0.097601
 178	8.8500e-02	7.0458	47.294131	0.001122	11.216156	3.800137	0.089535
 179	8.9000e-02	7.0891	47.721639	0.001071	10.710924	3.628959	0.085502
 180	8.9500e-02	7.1404	48.052353	0.000829	8.285809	2.807308	0.066143
 181	9.0000e-02	7.1661	48.455663	0.001010	10.104645	3.423547	0.080662
 182	9.0500e-02	7.2174	48.907370	0.001132	11.317203	3.834372	0.090341
 183	9.1000e-02	7.2479	49.367143	0.001152	11.519296	3.902843	0.091955
 184	9.1500e-02	7.2977	49.560732	0.000485	4.850230	1.643302	0.038718
 185	9.2000e-02	7.3297	49.968075	0.001021	10.205692	3.457782	0.081469
 186	9.2500e-02	7.3634	50.395584	0.001071	10.710924	3.628959	0.085502
 187	9.3000e-02	7.4035	50.819059	0.001061	10.609878	3.594724	0.084695
 188	9.3500e-02	7.4485	51.157839	0.000849	8.487902	2.875779	0.067756
 189	9.4000e-02	7.4918	51.565182	0.001021	10.205692	3.457782	0.081469
 190	9.4500e-02	7.5239	51.916062	0.000879	8.791041	2.978485	0.070176
 191	9.5000e-02	7.5624	52.436331	0.001303	13.034993	4.416375	0.104054
 192	9.5500e-02	7.6121	52.884005	0.001122	11.216156	3.800137	0.089535
 193	9.6000e-02	7.6538	53.125991	0.000606	6.062787	2.054128	0.048397
 194	9.6500e-02	7.6891	53.484937	0.000899	8.993134	3.046956	0.071789
 195	9.7000e-02	7.7324	53.932611	0.001122	11.216156	3.800137	0.089535
 196	9.7500e-02	7.7645	54.440781	0.001273	12.731853	4.313669	0.101634
 197	9.8000e-02	7.8046	54.755363	0.000788	7.881623	2.670366	0.062916
 198	9.8500e-02	7.8527	54.969117	0.000536	5.355462	1.814480	0.042751
 199	9.9000e-02	7.8928	55.489387	0.001303	13.034993	4.416375	0.104054
 200	9.9500e-02	7.9297	55.928995	0.001101	11.014063	3.731666	0.087922
 201	1.0000e-01	7.9682	56.255676	0.000818	8.184763	2.773073	0.065336
 202	1.0050e-01	8.0051	56.743681	0.001223	12.226621	4.142491	0.097601
 203	1.0100e-01	8.0532	57.199421	0.001142	11.418249	3.868608	0.091148
 204	1.0150e-01	8.0998	57.489804	0.000728	7.275345	2.464953	0.058077
 205	1.0200e-01	8.1351	57.840684	0.000879	8.791041	2.978485	0.070176
 206	1.0250e-01	8.1720	58.300457	0.001152	11.519296	3.902843	0.091955
 207	1.0300e-01	8.2105	58.502112	0.000505	5.052323	1.711773	0.040331
 208	1.0350e-01	8.2490	59.090944	0.001475	14.752782	4.998378	0.117766
 209	1.0400e-01	8.2891	59.453923	0.000909	9.094181	3.081192	0.072596
 210	1.0450e-01	8.3340	59.873365	0.001051	10.508831	3.560488	0.083888
 211	1.0500e-01	8.3629	60.353304	0.001202	12.024528	4.074020	0.095988
 212	1.0550e-01	8.4158	60.639654	0.000717	7.174298	2.430718	0.057270
 213	1.0600e-01	8.4591	61.147824	0.001273	12.731853	4.313669	0.101634
 214	1.0650e-01	8.4880	61.337380	0.000475	4.749183	1.609067	0.037911
 215	1.0700e-01	8.5313	61.704392	0.000920	9.195227	3.115427	0.073402
 216	1.0750e-01	8.5714	62.127867	0.001061	10.609878	3.594724	0.084695
 217	1.0800e-01	8.6244	62.579574	0.001132	11.317203	3.834372	0.090341
 218	1.0850e-01	8.6484	62.873991	0.000738	7.376391	2.499189	0.058883
 219	1.0900e-01	8.6837	63.269234	0.000990	9.902552	3.355076	0.079049
 220	1.0950e-01	8.7318	63.720941	0.001132	11.317203	3.834372	0.090341
 221	1.1000e-01	8.7687	64.136351	0.001041	10.407785	3.526253	0.083082
 222	1.1050e-01	8.8040	64.640488	0.001263	12.630807	4.279433	0.100827
 223	1.1100e-01	8.8538	64.979268	0.000849	8.487902	2.875779	0.067756
 224	1.1150e-01	8.8955	65.354346	0.000940	9.397320	3.183898	0.075016
 225	1.1200e-01	8.9356	65.668928	0.000788	7.881623	2.670366	0.062916
 226	1.1250e-01	8.9677	66.160966	0.001233	12.327667	4.176727	0.098408
 227	1.1300e-01	9.0158	66.394886	0.000586	5.860694	1.985657	0.046784
 228	1.1350e-01	9.0463	66.749798	0.000889	8.892088	3.012721	0.070983
 229	1.1400e-01	9.0960	67.128910	0.000950	9.498367	3.218134	0.075822
 230	1.1450e-01	9.1265	67.709676	0.001455	14.550689	4.929907	0.116153
 231	1.1500e-01	9.1666	68.141217	0.001081	10.811971	3.663195	0.086308
 232	1.1550e-01	9.2163	68.439667	0.000748	7.477438	2.533424	0.059690
 233	1.1600e-01	9.2452	68.919605	0.001202	12.024528	4.074020	0.095988
 234	1.1650e-01	9.2853	69.250320	0.000829	8.285809	2.807308	0.066143
 235	1.1700e-01	9.3318	69.685894	0.001091	10.913017	3.697430	0.087115
 236	1.1750e-01	9.3719	70.016608	0.000829	8.285809	2.807308	0.066143
 237	1.1800e-01	9.4104	70.387653	0.000930	9.296274	3.149663	0.074209
 238	1.1850e-01	9.4570	70.790963	0.001010	10.104645	3.423547	0.080662
 239	1.1900e-01	9.4890	71.222505	0.001081	10.811971	3.663195	0.086308
 240	1.1950e-01	9.5275	71.585484	0.000909	9.094181	3.081192	0.072596
 241	1.2000e-01	9.5709	71.992827	0.001021	10.205692	3.457782	0.081469
 242	1.2050e-01	9.6158	72.464699	0.001182	11.822435	4.005549	0.094375
 243	1.2100e-01	9.6559	72.799446	0.000839	8.386856	2.841544	0.066949
 244	1.2150e-01	9.6880	73.263253	0.001162	11.620342	3.937079	0.092761
 245	1.2200e-01	9.7361	73.718993	0.001142	11.418249	3.868608	0.091148
 246	1.2250e-01	9.7666	74.073905	0.000889	8.892088	3.012721	0.070983
 247	1.2300e-01	9.8179	74.287660	0.000536	5.355462	1.814480	0.042751
 248	1.2350e-01	9.8484	74.836161	0.001374	13.742318	4.656023	0.109700
 249	1.2400e-01	9.8965	75.312067	0.001192	11.923482	4.039785	0.095181
 250	1.2450e-01	9.9318	75.642781	0.000829	8.285809	2.807308	0.066143
 251	1.2500e-01	9.9783	75.888800	0.000616	6.163834	2.088363	0.049204
 252	1.2550e-01	10.0120	76.243713	0.000889	8.892088	3.012721	0.070983
 253	1.2600e-01	10.0489	76.715585	0.001182	11.822435	4.005549	0.094375
 254	1.2650e-01	10.0874	77.211656	0.001243	12.428714	4.210962	0.099214
 255	1.2700e-01	10.1211	77.574635	0.000909	9.094181	3.081192	0.072596
 256	1.2750e-01	10.1692	77.760158	0.000465	4.648137	1.574831	0.037105
 257	1.2800e-01	10.2125	78.143302	0.000960	9.599413	3.252369	0.076629
 258	1.2850e-01	10.2462	78.764399	0.001556	15.561154	5.272262	0.124219
 259	1.2900e-01	10.2879	79.042683	0.000697	6.972205	2.362247	0.055657
 260	1.2950e-01	10.3361	79.429860	0.000970	9.700460	3.286605	0.077435
 261	1.3000e-01	10.3649	79.748475	0.000798	7.982670	2.704602	0.063723
 262	1.3050e-01	10.4051	80.236480	0.001223	12.226621	4.142491	0.097601
 263	1.3100e-01	10.4516	80.547029	0.000778	7.780577	2.636131	0.062110
 264	1.3150e-01	10.4965	81.091497	0.001364	13.641271	4.621788	0.108894
 265	1.3200e-01	10.5366	81.438344	0.000869	8.689995	2.944250	0.069369
 266	1.3250e-01	10.5655	81.805355	0.000920	9.195227	3.115427	0.073402
 267	1.3300e-01	10.6104	82.176401	0.000930	9.296274	3.149663	0.074209
 268	1.3350e-01	10.6601	82.369989	0.000485	4.850230	1.643302	0.038718
 269	1.3400e-01	10.6954	82.938656	0.001425	14.247550	4.827201	0.113733
 270	1.3450e-01	10.7339	83.370198	0.001081	10.811971	3.663195	0.086308
 271	1.3500e-01	10.7724	83.656548	0.000717	7.174298	2.430718	0.057270
 272	1.3550e-01	10.8125	84.023560	0.000920	9.195227	3.115427	0.073402
 273	1.3600e-01	10.8494	84.559962	0.001344	13.439178	4.553317	0.107280
 274	1.3650e-01	10.8927	85.023768	0.001162	11.620342	3.937079	0.092761
 275	1.3700e-01	10.9345	85.382714	0.000899	8.993134	3.046956	0.071789
 276	1.3750e-01	10.9730	85.652932	0.000677	6.770112	2.293776	0.054044
 277	1.3800e-01	11.0195	86.072374	0.001051	10.508831	3.560488	0.083888
 278	1.3850e-01	11.0564	86.451485	0.000950	9.498367	3.218134	0.075822
 279	1.3900e-01	11.0949	86.870927	0.001051	10.508831	3.560488	0.083888
 280	1.3950e-01	11.1286	87.246006	0.000940	9.397320	3.183898	0.075016
 281	1.4000e-01	11.1655	87.685613	0.001101	11.014063	3.731666	0.087922
 282	1.4050e-01	11.2088	88.004228	0.000798	7.982670	2.704602	0.063723
 283	1.4100e-01	11.2521	88.427703	0.001061	10.609878	3.594724	0.084695
 284	1.4150e-01	11.2986	88.867311	0.001101	11.014063	3.731666	0.087922
 285	1.4200e-01	11.3275	89.335151	0.001172	11.721389	3.971314	0.093568
 286	1.4250e-01	11.3692	89.613434	0.000697	6.972205	2.362247	0.055657
 287	1.4300e-01	11.4093	89.940115	0.000818	8.184763	2.773073	0.065336
 288	1.4350e-01	11.4462	90.290995	0.000879	8.791041	2.978485	0.070176
 289	1.4400e-01	11.4879	90.750768	0.001152	11.519296	3.902843	0.091955
 290	1.4450e-01	11.5344	91.133913	0.000960	9.599413	3.252369	0.076629
 291	1.4500e-01	11.5729	91.440428	0.000768	7.679530	2.601895	0.061303
 292	1.4550e-01	11.6098	91.871970	0.001081	10.811971	3.663195	0.086308
 293	1.4600e-01	11.6467	92.243015	0.000930	9.296274	3.149663	0.074209
 294	1.4650e-01	11.6836	92.694722	0.001132	11.317203	3.834372	0.090341
 295	1.4700e-01	11.7334	93.118197	0.001061	10.609878	3.594724	0.084695
 296	1.4750e-01	11.7703	93.364216	0.000616	6.163834	2.088363	0.049204
 297	1.4800e-01	11.8023	93.779625	0.001041	10.407785	3.526253	0.083082
 298	1.4850e-01	11.8521	94.134538	0.000889	8.892088	3.012721	0.070983
 299	1.4900e-01	11.8970	94.485418	0.000879	8.791041	2.978485	0.070176
 300	1.4950e-01	11.9275	95.025853	0.001354	13.540225	4.587552	0.108087
 301	1.5000e-01	11.9804	95.392865	0.000920	9.195227	3.115427	0.073402
 302	1.5050e-01	12.0093	95.844572	0.001132	11.317203	3.834372	0.090341
 303	1.5100e-01	12.0622	96.034127	0.000475	4.749183	1.609067	0.037911
 304	1.5150e-01	12.0943	96.429371	0.000990	9.902552	3.355076	0.079049
 305	1.5200e-01	12.1248	96.816548	0.000970	9.700460	3.286605	0.077435
 306	1.5250e-01	12.1681	97.328752	0.001283	12.832900	4.347904	0.102441
 307	1.5300e-01	12.2098	97.711896	0.000960	9.599413	3.252369	0.076629
 308	1.5350e-01	12.2563	98.034544	0.000808	8.083716	2.738837	0.064530
 309	1.5400e-01	12.2884	98.389457	0.000889	8.892088	3.012721	0.070983
 310	1.5450e-01	12.3317	98.752436	0.000909	9.094181	3.081192	0.072596
 311	1.5500e-01	12.3734	99.131547	0.000950	9.498367	3.218134	0.075822
 312	1.5550e-01	12.4071	99.599387	0.001172	11.721389	3.971314	0.093568
 313	1.5600e-01	12.4537	99.962365	0.000909	9.094181	3.081192	0.072596
 314	1.5650e-01	12.4890	100.268881	0.000768	7.679530	2.601895	0.061303
 315	1.5700e-01	12.5339	100.567330	0.000748	7.477438	2.533424	0.059690
 316	1.5750e-01	12.5756	101.019037	0.001132	11.317203	3.834372	0.090341
 317	1.5800e-01	12.6221	101.426380	0.001021	10.205692	3.457782	0.081469
 318	1.5850e-01	12.6558	101.817591	0.000980	9.801506	3.320840	0.078242
 319	1.5900e-01	12.6879	102.083775	0.000667	6.669066	2.259541	0.053237
 320	1.5950e-01	12.7424	102.587913	0.001263	12.630807	4.279433	0.100827
 321	1.6000e-01	12.7713	102.979123	0.000980	9.801506	3.320840	0.078242
 322	1.6050e-01	12.8066	103.378400	0.001000	10.003599	3.389311	0.079855
 323	1.6100e-01	12.8451	103.781710	0.001010	10.104645	3.423547	0.080662
 324	1.6150e-01	12.8836	104.185020	0.001010	10.104645	3.423547	0.080662
 325	1.6200e-01	12.9381	104.656892	0.001182	11.822435	4.005549	0.094375
 326	1.6250e-01	12.9686	104.890812	0.000586	5.860694	1.985657	0.046784
 327	1.6300e-01	13.0167	105.233625	0.000859	8.588949	2.910015	0.068563
 328	1.6350e-01	13.0585	105.713564	0.001202	12.024528	4.074020	0.095988
 329	1.6400e-01	13.0970	106.145106	0.001081	10.811971	3.663195	0.086308
 330	1.6450e-01	13.1242	106.395158	0.000626	6.264880	2.122599	0.050010
 331	1.6500e-01	13.1788	106.677475	0.000707	7.073252	2.396483	0.056463
 332	1.6550e-01	13.2109	107.153380	0.001192	11.923482	4.039785	0.095181
 333	1.6600e-01	13.2429	107.560723	0.001021	10.205692	3.457782	0.081469
 334	1.6650e-01	13.2830	107.903537	0.000859	8.588949	2.910015	0.068563
 335	1.6700e-01	13.3248	108.282648	0.000950	9.498367	3.218134	0.075822
 336	1.6750e-01	13.3713	108.649660	0.000920	9.195227	3.115427	0.073402
 337	1.6800e-01	13.4002	108.988440	0.000849	8.487902	2.875779	0.067756
 338	1.6850e-01	13.4403	109.492577	0.001263	12.630807	4.279433	0.100827
 339	1.6900e-01	13.4868	109.807159	0.000788	7.881623	2.670366	0.062916
 340	1.6950e-01	13.5317	110.234668	0.001071	10.710924	3.628959	0.085502
 341	1.7000e-01	13.5766	110.597646	0.000909	9.094181	3.081192	0.072596
 342	1.7050e-01	13.6215	110.948526	0.000879	8.791041	2.978485	0.070176
 343	1.7100e-01	13.6600	111.130015	0.000455	4.547090	1.540596	0.036298
 344	1.7150e-01	13.6841	111.682550	0.001384	13.843364	4.690259	0.110507
 345	1.7200e-01	13.7322	112.130224	0.001122	11.216156	3.800137	0.089535
 346	1.7250e-01	13.7691	112.557732	0.001071	10.710924	3.628959	0.085502
 347	1.7300e-01	13.8060	112.908612	0.000879	8.791041	2.978485	0.070176
 348	1.7350e-01	13.8526	113.259491	0.000879	8.791041	2.978485	0.070176
 349	1.7400e-01	13.8846	113.630537	0.000930	9.296274	3.149663	0.074209
 350	1.7450e-01	13.9344	113.961251	0.000829	8.285809	2.807308	0.066143
 351	1.7500e-01	13.9681	114.340362	0.000950	9.498367	3.218134	0.075822
 352	1.7550e-01	14.0017	114.658977	0.000798	7.982670	2.704602	0.063723
 353	1.7600e-01	14.0467	115.034055	0.000940	9.397320	3.183898	0.075016
 354	1.7650e-01	14.0932	115.413166	0.000950	9.498367	3.218134	0.075822
 355	1.7700e-01	14.1349	115.885039	0.001182	11.822435	4.005549	0.094375
 356	1.7750e-01	14.1670	116.284315	0.001000	10.003599	3.389311	0.079855
 357	1.7800e-01	14.2007	116.691658	0.001021	10.205692	3.457782	0.081469
 358	1.7850e-01	14.2552	116.925578	0.000586	5.860694	1.985657	0.046784
 359	1.7900e-01	14.2937	117.381318	0.001142	11.418249	3.868608	0.091148
 360	1.7950e-01	14.3306	117.792694	0.001031	10.306738	3.492017	0.082275
 361	1.8000e-01	14.3723	118.216170	0.001061	10.609878	3.594724	0.084695
 362	1.8050e-01	14.4108	118.437990	0.000556	5.557555	1.882951	0.044364
 363	1.8100e-01	14.4493	118.845333	0.001021	10.205692	3.457782	0.081469
 364	1.8150e-01	14.4894	119.264775	0.001051	10.508831	3.560488	0.083888
 365	1.8200e-01	14.5151	119.704383	0.001101	11.014063	3.731666	0.087922
 366	1.8250e-01	14.5696	120.127858	0.001061	10.609878	3.594724	0.084695
 367	1.8300e-01	14.6097	120.365811	0.000596	5.961741	2.019892	0.047591
 368	1.8350e-01	14.6418	120.720724	0.000889	8.892088	3.012721	0.070983
 369	1.8400e-01	14.6964	121.115968	0.000990	9.902552	3.355076	0.079049
 370	1.8450e-01	14.7397	121.519277	0.001010	10.104645	3.423547	0.080662
 371	1.8500e-01	14.7702	121.983084	0.001162	11.620342	3.937079	0.092761
 372	1.8550e-01	14.8055	122.289599	0.000768	7.679530	2.601895	0.061303
 373	1.8600e-01	14.8520	122.761472	0.001182	11.822435	4.005549	0.094375
 374	1.8650e-01	14.8969	122.894564	0.000333	3.334533	1.129770	0.026618
 375	1.8700e-01	14.9226	123.398701	0.001263	12.630807	4.279433	0.100827
 376	1.8750e-01	14.9739	123.636654	0.000596	5.961741	2.019892	0.047591
 377	1.8800e-01	15.0092	124.056096	0.001051	10.508831	3.560488	0.083888
 378	1.8850e-01	15.0509	124.475539	0.001051	10.508831	3.560488	0.083888
 379	1.8900e-01	15.0814	124.717525	0.000606	6.062787	2.054128	0.048397
 380	1.8950e-01	15.1359	125.141000	0.001061	10.609878	3.594724	0.084695
 381	1.9000e-01	15.1680	125.616906	0.001192	11.923482	4.039785	0.095181
 382	1.9050e-01	15.2081	125.971818	0.000889	8.892088	3.012721	0.070983
 383	1.9100e-01	15.2498	126.387227	0.001041	10.407785	3.526253	0.083082
 384	1.9150e-01	15.2915	126.685677	0.000748	7.477438	2.533424	0.059690
 385	1.9200e-01	15.3284	127.044623	0.000899	8.993134	3.046956	0.071789
 386	1.9250e-01	15.3702	127.488263	0.001112	11.115110	3.765901	0.088728
 387	1.9300e-01	15.4103	127.891573	0.001010	10.104645	3.423547	0.080662
 388	1.9350e-01	15.4488	128.153725	0.000657	6.568019	2.225305	0.052430
 389	1.9400e-01	15.4905	128.528803	0.000940	9.397320	3.183898	0.075016
 390	1.9450e-01	15.5274	128.887749	0.000899	8.993134	3.046956	0.071789
 391	1.9500e-01	15.5691	129.121668	0.000586	5.860694	1.985657	0.046784
 392	1.9550e-01	15.6108	129.629839	0.001273	12.731853	4.313669	0.101634
 393	1.9600e-01	15.6429	130.089612	0.001152	11.519296	3.902843	0.091955
 394	1.9650e-01	15.6862	130.500988	0.001031	10.306738	3.492017	0.082275
 395	1.9700e-01	15.7295	130.884132	0.000960	9.599413	3.252369	0.076629
 396	1.9750e-01	15.7744	131.230979	0.000869	8.689995	2.944250	0.069369
 397	1.9800e-01	15.8001	131.444733	0.000536	5.355462	1.814480	0.042751
 398	1.9850e-01	15.8450	131.860142	0.001041	10.407785	3.526253	0.083082
 399	1.9900e-01	15.8899	132.348147	0.001223	12.226621	4.142491	0.097601
 400	1.9950e-01	15.9300	132.682894	0.000839	8.386856	2.841544	0.066949
 401	2.0000e-01	15.9750	133.041840	0.000899	8.993134	3.046956	0.071789
 402	2.0050e-01	16.0102	133.356422	0.000788	7.881623	2.670366	0.062916
 403	2.0100e-01	16.0439	133.666970	0.000778	7.780577	2.636131	0.062110
 404	2.0150e-01	16.0937	134.130777	0.001162	11.620342	3.937079	0.092761
 405	2.0200e-01	16.1225	134.441325	0.000778	7.780577	2.636131	0.062110
 406	2.0250e-01	16.1739	134.868834	0.001071	10.710924	3.628959	0.085502
 407	2.0300e-01	16.2076	135.143085	0.000687	6.871159	2.328012	0.054850
 408	2.0350e-01	16.2429	135.578659	0.001091	10.913017	3.697430	0.087115
 409	2.0400e-01	16.2846	136.006168	0.001071	10.710924	3.628959	0.085502
 410	2.0450e-01	16.3199	136.300584	0.000738	7.376391	2.499189	0.058883
 411	2.0500e-01	16.3760	136.687761	0.000970	9.700460	3.286605	0.077435
 412	2.0550e-01	16.4049	137.058806	0.000930	9.296274	3.149663	0.074209
 413	2.0600e-01	16.4562	137.466149	0.001021	10.205692	3.457782	0.081469
 414	2.0650e-01	16.4851	137.740400	0.000687	6.871159	2.328012	0.054850
 415	2.0700e-01	16.5236	138.151776	0.001031	10.306738	3.492017	0.082275
 416	2.0750e-01	16.5701	138.534920	0.000960	9.599413	3.252369	0.076629
 417	2.0800e-01	16.6054	138.857568	0.000808	8.083716	2.738837	0.064530
 418	2.0850e-01	16.6471	139.321375	0.001162	11.620342	3.937079	0.092761
 419	2.0900e-01	16.6856	139.704519	0.000960	9.599413	3.252369	0.076629
 420	2.0950e-01	16.7289	140.059432	0.000889	8.892088	3.012721	0.070983
 421	2.1000e-01	16.7819	140.293351	0.000586	5.860694	1.985657	0.046784
 422	2.1050e-01	16.8172	140.773290	0.001202	12.024528	4.074020	0.095988
 423	2.1100e-01	16.8541	141.091905	0.000798	7.982670	2.704602	0.063723
 424	2.1150e-01	16.8878	141.422619	0.000829	8.285809	2.807308	0.066143
 425	2.1200e-01	16.9247	141.842061	0.001051	10.508831	3.560488	0.083888
 426	2.1250e-01	16.9712	142.112279	0.000677	6.770112	2.293776	0.054044
 427	2.1300e-01	17.0097	142.580118	0.001172	11.721389	3.971314	0.093568
 428	2.1350e-01	17.0434	142.939064	0.000899	8.993134	3.046956	0.071789
 429	2.1400e-01	17.0995	143.269778	0.000829	8.285809	2.807308	0.066143
 430	2.1450e-01	17.1364	143.624691	0.000889	8.892088	3.012721	0.070983
 431	2.1500e-01	17.1717	143.979604	0.000889	8.892088	3.012721	0.070983
 432	2.1550e-01	17.2086	144.318384	0.000849	8.487902	2.875779	0.067756
 433	2.1600e-01	17.2519	144.729760	0.001031	10.306738	3.492017	0.082275
 434	2.1650e-01	17.2872	145.169368	0.001101	11.014063	3.731666	0.087922
 435	2.1700e-01	17.3241	145.548479	0.000950	9.498367	3.218134	0.075822
 436	2.1750e-01	17.3787	145.810630	0.000657	6.568019	2.225305	0.052430
 437	2.1800e-01	17.4107	146.254271	0.001112	11.115110	3.765901	0.088728
 438	2.1850e-01	17.4508	146.681780	0.001071	10.710924	3.628959	0.085502
 439	2.1900e-01	17.4910	146.927799	0.000616	6.163834	2.088363	0.049204
 440	2.1950e-01	17.5327	147.347241	0.001051	10.508831	3.560488	0.083888
 441	2.2000e-01	17.5680	147.565028	0.000546	5.456508	1.848715	0.043557
 442	2.2050e-01	17.6145	147.928007	0.000909	9.094181	3.081192	0.072596
 443	2.2100e-01	17.6498	148.286953	0.000899	8.993134	3.046956	0.071789
 444	2.2150e-01	17.6770	148.787057	0.001253	12.529760	4.245198	0.100021
 445	2.2200e-01	17.7364	149.162135	0.000940	9.397320	3.183898	0.075016
 446	2.2250e-01	17.7621	149.504949	0.000859	8.588949	2.910015	0.068563
 447	2.2300e-01	17.8150	149.835663	0.000829	8.285809	2.807308	0.066143
 448	2.2350e-01	17.8471	150.230906	0.000990	9.902552	3.355076	0.079049
 449	2.2400e-01	17.8824	150.549521	0.000798	7.982670	2.704602	0.063723
 450	2.2450e-01	17.9321	150.985096	0.001091	10.913017	3.697430	0.087115
 451	2.2500e-01	17.9722	151.287578	0.000758	7.578484	2.567660	0.060496
 452	2.2550e-01	18.0203	151.686855	0.001000	10.003599	3.389311	0.079855
 453	2.2600e-01	18.0540	152.017569	0.000829	8.285809	2.807308	0.066143
 454	2.2650e-01	18.0925	152.392647	0.000940	9.397320	3.183898	0.075016
 455	2.2700e-01	18.1246	152.759659	0.000920	9.195227	3.115427	0.073402
 456	2.2750e-01	18.1727	153.033910	0.000687	6.871159	2.328012	0.054850
 457	2.2800e-01	18.2064	153.433187	0.001000	10.003599	3.389311	0.079855
 458	2.2850e-01	18.2498	153.884894	0.001132	11.317203	3.834372	0.090341
 459	2.2900e-01	18.2883	154.151078	0.000667	6.669066	2.259541	0.053237
 460	2.2950e-01	18.3316	154.409197	0.000647	6.466973	2.191070	0.051624
 461	2.3000e-01	18.3733	154.820573	0.001031	10.306738	3.492017	0.082275
 462	2.3050e-01	18.4118	155.183551	0.000909	9.094181	3.081192	0.072596
 463	2.3100e-01	18.4551	155.534431	0.000879	8.791041	2.978485	0.070176
 464	2.3150e-01	18.4920	156.030502	0.001243	12.428714	4.210962	0.099214
 465	2.3200e-01	18.5321	156.470110	0.001101	11.014063	3.731666	0.087922
 466	2.3250e-01	18.5706	156.655632	0.000465	4.648137	1.574831	0.037105
 467	2.3300e-01	18.6123	157.071042	0.001041	10.407785	3.526253	0.083082
 468	2.3350e-01	18.6524	157.401756	0.000829	8.285809	2.807308	0.066143
 469	2.3400e-01	18.6845	157.704238	0.000758	7.578484	2.567660	0.060496
 470	2.3450e-01	18.7294	158.139813	0.001091	10.913017	3.697430	0.087115
 471	2.3500e-01	18.7647	158.752844	0.001536	15.359061	5.203791	0.122606
 472	2.3550e-01	18.8112	159.014995	0.000657	6.568019	2.225305	0.052430
 473	2.3600e-01	18.8497	159.148087	0.000333	3.334533	1.129770	0.026618
 474	2.3650e-01	18.8963	159.547364	0.001000	10.003599	3.389311	0.079855
 475	2.3700e-01	18.9267	159.874045	0.000818	8.184763	2.773073	0.065336
 476	2.3750e-01	18.9684	160.293487	0.001051	10.508831	3.560488	0.083888
 477	2.3800e-01	19.0166	160.745194	0.001132	11.317203	3.834372	0.090341
 478	2.3850e-01	19.0487	161.067842	0.000808	8.083716	2.738837	0.064530
 479	2.3900e-01	19.0840	161.402590	0.000839	8.386856	2.841544	0.066949
 480	2.3950e-01	19.1385	161.983356	0.001455	14.550689	4.929907	0.116153
 481	2.4000e-01	19.1658	162.205176	0.000556	5.557555	1.882951	0.044364
 482	2.4050e-01	19.2107	162.604453	0.001000	10.003599	3.389311	0.079855
 483	2.4100e-01	19.2540	162.915001	0.000778	7.780577	2.636131	0.062110
 484	2.4150e-01	19.2957	163.213451	0.000748	7.477438	2.533424	0.059690
 485	2.4200e-01	19.3374	163.624827	0.001031	10.306738	3.492017	0.082275
 486	2.4250e-01	19.3743	164.088633	0.001162	11.620342	3.937079	0.092761
 487	2.4300e-01	19.4208	164.415314	0.000818	8.184763	2.773073	0.065336
 488	2.4350e-01	19.4465	164.653267	0.000596	5.961741	2.019892	0.047591
 489	2.4400e-01	19.4882	164.923485	0.000677	6.770112	2.293776	0.054044
 490	2.4450e-01	19.5267	165.310662	0.000970	9.700460	3.286605	0.077435
 491	2.4500e-01	19.5748	165.657509	0.000869	8.689995	2.944250	0.069369
 492	2.4550e-01	19.6198	166.076951	0.001051	10.508831	3.560488	0.083888
 493	2.4600e-01	19.6535	166.468161	0.000980	9.801506	3.320840	0.078242
 494	2.4650e-01	19.6855	166.657717	0.000475	4.749183	1.609067	0.037911
 495	2.4700e-01	19.7369	167.012630	0.000889	8.892088	3.012721	0.070983
 496	2.4750e-01	19.7641	167.492568	0.001202	12.024528	4.074020	0.095988
 497	2.4800e-01	19.8010	167.839415	0.000869	8.689995	2.944250	0.069369
 498	2.4850e-01	19.8556	168.153997	0.000788	7.881623	2.670366	0.062916
 499	2.4900e-01	19.8941	168.432280	0.000697	6.972205	2.362247	0.055657
 500	2.4950e-01	19.9358	168.734763	0.000758	7.578484	2.567660	0.060496
 501	2.5000e-01	19.9711	169.186470	0.001132	11.317203	3.834372	0.090341
 502	2.5050e-01	19.9775	169.488952	0.000758	7.578484	2.567660	0.060496
 503	2.5100e-01	19.9583	169.501052	-0.000030	-0.303139	-0.102706	0.002420
 504	2.5150e-01	19.9149	169.263099	0.000596	5.961741	2.019892	-0.047591
 505	2.5200e-01	19.8700	169.146139	0.000293	2.930347	0.992828	-0.023392
 506	2.5250e-01	19.8444	169.049344	0.000243	2.425115	0.821651	-0.019359
 507	2.5300e-01	19.7962	169.021113	0.000071	0.707325	0.239648	-0.005646
 508	2.5350e-01	19.7577	168.726697	0.000738	7.376391	2.499189	-0.058883
 509	2.5400e-01	19.7160	168.537141	0.000475	4.749183	1.609067	-0.037911
 510	2.5450e-01	19.6791	168.347585	0.000475	4.749183	1.609067	-0.037911
 511	2.5500e-01	19.6390	168.162063	0.000465	4.648137	1.574831	-0.037105
 512	2.5550e-01	19.5973	167.920077	0.000606	6.062787	2.054128	-0.048397
 513	2.5600e-01	19.5588	167.694223	0.000566	5.658601	1.917186	-0.045171
 514	2.5650e-01	19.5203	167.500635	0.000485	4.850230	1.643302	-0.038718
 515	2.5700e-01	19.4770	167.355443	0.000364	3.637672	1.232477	-0.029038
 516	2.5750e-01	19.4273	167.028762	0.000818	8.184763	2.773073	-0.065336
 517	2.5800e-01	19.4016	166.835173	0.000485	4.850230	1.643302	-0.038718
 518	2.5850e-01	19.3615	166.657717	0.000445	4.446044	1.506360	-0.035491
 519	2.5900e-01	19.3214	166.532691	0.000313	3.132440	1.061299	-0.025005
 520	2.5950e-01	19.2765	166.282639	0.000626	6.264880	2.122599	-0.050010
 521	2.6000e-01	19.2364	166.056785	0.000566	5.658601	1.917186	-0.045171
 522	2.6050e-01	19.2059	165.834965	0.000556	5.557555	1.882951	-0.044364
 523	2.6100e-01	19.1577	165.637343	0.000495	4.951276	1.677538	-0.039524
 524	2.6150e-01	19.1176	165.306629	0.000829	8.285809	2.807308	-0.066143
 525	2.6200e-01	19.0791	165.040444	0.000667	6.669066	2.259541	-0.053237
 526	2.6250e-01	19.0438	164.758128	0.000707	7.073252	2.396483	-0.056463
 527	2.6300e-01	19.0037	164.604870	0.000384	3.839765	1.300948	-0.030652
 528	2.6350e-01	18.9524	164.302387	0.000758	7.578484	2.567660	-0.060496
 529	2.6400e-01	18.9251	164.076534	0.000566	5.658601	1.917186	-0.045171
 530	2.6450e-01	18.8738	163.842614	0.000586	5.860694	1.985657	-0.046784
 531	2.6500e-01	18.8385	163.628860	0.000536	5.355462	1.814480	-0.042751
 532	2.6550e-01	18.7984	163.334444	0.000738	7.376391	2.499189	-0.058883
 533	2.6600e-01	18.7519	163.201351	0.000333	3.334533	1.129770	-0.026618
 534	2.6650e-01	18.7230	162.951299	0.000626	6.264880	2.122599	-0.050010
 535	2.6700e-01	18.6765	162.677049	0.000687	6.871159	2.328012	-0.054850
 536	2.6750e-01	18.6460	162.426997	0.000626	6.264880	2.122599	-0.050010
 537	2.6800e-01	18.6027	162.039819	0.000970	9.700460	3.286605	-0.077435
 538	2.6850e-01	18.5497	161.922859	0.000293	2.930347	0.992828	-0.023392
 539	2.6900e-01	18.5161	161.773635	0.000374	3.738719	1.266712	-0.029845
 540	2.6950e-01	18.4759	161.483251	0.000728	7.275345	2.464953	-0.058077
 541	2.7000e-01	18.4294	161.136405	0.000869	8.689995	2.944250	-0.069369
 542	2.7050e-01	18.4022	160.938783	0.000495	4.951276	1.677538	-0.039524
 543	2.7100e-01	18.3604	160.817790	0.000303	3.031394	1.027064	-0.024199
 544	2.7150e-01	18.3203	160.563705	0.000637	6.365927	2.156834	-0.050817
 545	2.7200e-01	18.2834	160.140230	0.001061	10.609878	3.594724	-0.084695
 546	2.7250e-01	18.2369	159.902277	0.000596	5.961741	2.019892	-0.047591
 547	2.7300e-01	18.2032	159.664324	0.000596	5.961741	2.019892	-0.047591
 548	2.7350e-01	18.1519	159.390073	0.000687	6.871159	2.328012	-0.054850
 549	2.7400e-01	18.1134	159.224716	0.000414	4.142905	1.403654	-0.033071
 550	2.7450e-01	18.0717	158.910135	0.000788	7.881623	2.670366	-0.062916
 551	2.7500e-01	18.0380	158.635884	0.000687	6.871159	2.328012	-0.054850
 552	2.7550e-01	17.9947	158.510858	0.000313	3.132440	1.061299	-0.025005
 553	2.7600e-01	17.9546	157.917992	0.001485	14.853829	5.032613	-0.118573
 554	2.7650e-01	17.9209	157.889761	0.000071	0.707325	0.239648	-0.005646
 555	2.7700e-01	17.8776	157.542914	0.000869	8.689995	2.944250	-0.069369
 556	2.7750e-01	17.8359	157.284796	0.000647	6.466973	2.191070	-0.051624
 557	2.7800e-01	17.7958	157.079108	0.000515	5.153369	1.746009	-0.041138
 558	2.7850e-01	17.7556	156.764526	0.000788	7.881623	2.670366	-0.062916
 559	2.7900e-01	17.7155	156.449944	0.000788	7.881623	2.670366	-0.062916
 560	2.7950e-01	17.6851	156.191826	0.000647	6.466973	2.191070	-0.051624
 561	2.8000e-01	17.6450	155.909509	0.000707	7.073252	2.396483	-0.056463
 562	2.8050e-01	17.5984	155.695755	0.000536	5.355462	1.814480	-0.042751
 563	2.8100e-01	17.5567	155.526365	0.000424	4.243951	1.437890	-0.033878
 564	2.8150e-01	17.5230	155.106923	0.001051	10.508831	3.560488	-0.083888
 565	2.8200e-01	17.4781	154.816539	0.000728	7.275345	2.464953	-0.058077
 566	2.8250e-01	17.4348	154.461627	0.000889	8.892088	3.012721	-0.070983
 567	2.8300e-01	17.3947	154.312402	0.000374	3.738719	1.266712	-0.029845
 568	2.8350e-01	17.3610	154.054284	0.000647	6.466973	2.191070	-0.051624
 569	2.8400e-01	17.3145	153.856662	0.000495	4.951276	1.677538	-0.039524
 570	2.8450e-01	17.2824	153.542080	0.000788	7.881623	2.670366	-0.062916
 571	2.8500e-01	17.2455	153.292028	0.000626	6.264880	2.122599	-0.050010
 572	2.8550e-01	17.2022	153.017778	0.000687	6.871159	2.328012	-0.054850
 573	2.8600e-01	17.1557	152.691097	0.000818	8.184763	2.773073	-0.065336
 574	2.8650e-01	17.1107	152.457177	0.000586	5.860694	1.985657	-0.046784
 575	2.8700e-01	17.0787	152.231323	0.000566	5.658601	1.917186	-0.045171
 576	2.8750e-01	17.0353	151.969172	0.000657	6.568019	2.225305	-0.052430
 577	2.8800e-01	17.0001	151.670723	0.000748	7.477438	2.533424	-0.059690
 578	2.8850e-01	16.9503	151.323876	0.000869	8.689995	2.944250	-0.069369
 579	2.8900e-01	16.9150	151.017361	0.000768	7.679530	2.601895	-0.061303
 580	2.8950e-01	16.8685	150.722944	0.000738	7.376391	2.499189	-0.058883
 581	2.9000e-01	16.8300	150.464826	0.000647	6.466973	2.191070	-0.051624
 582	2.9050e-01	16.7915	150.287370	0.000445	4.446044	1.506360	-0.035491
 583	2.9100e-01	16.7546	150.109913	0.000445	4.446044	1.506360	-0.035491
 584	2.9150e-01	16.7177	149.702570	0.001021	10.205692	3.457782	-0.081469
 585	2.9200e-01	16.6840	149.307327	0.000990	9.902552	3.355076	-0.079049
 586	2.9250e-01	16.6343	149.117771	0.000475	4.749183	1.609067	-0.037911
 587	2.9300e-01	16.5990	148.758825	0.000899	8.993134	3.046956	-0.071789
 588	2.9350e-01	16.5605	148.460376	0.000748	7.477438	2.533424	-0.059690
 589	2.9400e-01	16.5220	148.250655	0.000525	5.254416	1.780244	-0.041944
 590	2.9450e-01	16.4755	147.863478	0.000970	9.700460	3.286605	-0.077435
 591	2.9500e-01	16.4273	147.609392	0.000637	6.365927	2.156834	-0.050817
 592	2.9550e-01	16.3969	147.476300	0.000333	3.334533	1.129770	-0.026618
 593	2.9600e-01	16.3584	147.109288	0.000920	9.195227	3.115427	-0.073402
 594	2.9650e-01	16.3134	146.839070	0.000677	6.770112	2.293776	-0.054044
 595	2.9700e-01	16.2717	146.593051	0.000616	6.163834	2.088363	-0.049204
 596	2.9750e-01	16.2429	146.226039	0.000920	9.195227	3.115427	-0.073402
 597	2.9800e-01	16.1979	145.963888	0.000657	6.568019	2.225305	-0.052430
 598	2.9850e-01	16.1562	145.661406	0.000758	7.578484	2.567660	-0.060496
 599	2.9900e-01	16.1049	145.443618	0.000546	5.456508	1.848715	-0.043557
 600	2.9950e-01	16.0872	145.056441	0.000970	9.700460	3.286605	-0.077435
 601	3.0000e-01	16.0375	144.749925	0.000768	7.679530	2.601895	-0.061303
 602	3.0050e-01	15.9974	144.503906	0.000616	6.163834	2.088363	-0.049204
 603	3.0100e-01	15.9541	144.108663	0.000990	9.902552	3.355076	-0.079049
 604	3.0150e-01	15.9204	143.959438	0.000374	3.738719	1.266712	-0.029845
 605	3.0200e-01	15.8707	143.773916	0.000465	4.648137	1.574831	-0.037105
 606	3.0250e-01	15.8450	143.483532	0.000728	7.275345	2.464953	-0.058077
 607	3.0300e-01	15.7937	143.064090	0.001051	10.508831	3.560488	-0.083888
 608	3.0350e-01	15.7568	142.745475	0.000798	7.982670	2.704602	-0.063723
 609	3.0400e-01	15.7151	142.406695	0.000849	8.487902	2.875779	-0.067756
 610	3.0450e-01	15.6782	142.241338	0.000414	4.142905	1.403654	-0.033071
 611	3.0500e-01	15.6365	141.954988	0.000717	7.174298	2.430718	-0.057270
 612	3.0550e-01	15.5947	141.624274	0.000829	8.285809	2.807308	-0.066143
 613	3.0600e-01	15.5627	141.293560	0.000829	8.285809	2.807308	-0.066143
 614	3.0650e-01	15.5145	141.108037	0.000465	4.648137	1.574831	-0.037105
 615	3.0700e-01	15.4760	140.724893	0.000960	9.599413	3.252369	-0.076629
 616	3.0750e-01	15.4279	140.462742	0.000657	6.568019	2.225305	-0.052430
 617	3.0800e-01	15.3958	140.063465	0.001000	10.003599	3.389311	-0.079855
 618	3.0850e-01	15.3541	139.805346	0.000647	6.466973	2.191070	-0.051624
 619	3.0900e-01	15.3124	139.490765	0.000788	7.881623	2.670366	-0.062916
 620	3.0950e-01	15.2803	139.272977	0.000546	5.456508	1.848715	-0.043557
 621	3.1000e-01	15.2434	138.966462	0.000768	7.679530	2.601895	-0.061303
 622	3.1050e-01	15.1953	138.623649	0.000859	8.588949	2.910015	-0.068563
 623	3.1100e-01	15.1552	138.284868	0.000849	8.487902	2.875779	-0.067756
 624	3.1150e-01	15.1183	138.014651	0.000677	6.770112	2.293776	-0.054044
 625	3.1200e-01	15.0734	137.607308	0.001021	10.205692	3.457782	-0.081469
 626	3.1250e-01	15.0365	137.389520	0.000546	5.456508	1.848715	-0.043557
 627	3.1300e-01	14.9948	137.034608	0.000889	8.892088	3.012721	-0.070983
 628	3.1350e-01	14.9595	136.812787	0.000556	5.557555	1.882951	-0.044364
 629	3.1400e-01	14.9146	136.728092	0.000212	2.121976	0.718945	-0.016939
 630	3.1450e-01	14.8825	136.320749	0.001021	10.205692	3.457782	-0.081469
 631	3.1500e-01	14.8327	135.945671	0.000940	9.397320	3.183898	-0.075016
 632	3.1550e-01	14.7926	135.655288	0.000728	7.275345	2.464953	-0.058077
 633	3.1600e-01	14.7638	135.449600	0.000515	5.153369	1.746009	-0.041138
 634	3.1650e-01	14.7220	135.110820	0.000849	8.487902	2.875779	-0.067756
 635	3.1700e-01	14.6771	134.618782	0.001233	12.327667	4.176727	-0.098408
 636	3.1750e-01	14.6306	134.538120	0.000202	2.020929	0.684709	-0.016132
 637	3.1800e-01	14.5969	134.138843	0.001000	10.003599	3.389311	-0.079855
 638	3.1850e-01	14.5616	133.771831	0.000920	9.195227	3.115427	-0.073402
 639	3.1900e-01	14.5247	133.473382	0.000748	7.477438	2.533424	-0.059690
 640	3.1950e-01	14.4750	133.215263	0.000647	6.466973	2.191070	-0.051624
 641	3.2000e-01	14.4349	132.928913	0.000717	7.174298	2.430718	-0.057270
 642	3.2050e-01	14.4060	132.509471	0.001051	10.508831	3.560488	-0.083888
 643	3.2100e-01	14.3643	132.283618	0.000566	5.658601	1.917186	-0.045171
 644	3.2150e-01	14.3210	131.932738	0.000879	8.791041	2.978485	-0.070176
 645	3.2200e-01	14.2809	131.710918	0.000556	5.557555	1.882951	-0.044364
 646	3.2250e-01	14.2344	131.436667	0.000687	6.871159	2.328012	-0.054850
 647	3.2300e-01	14.2007	131.061589	0.000940	9.397320	3.183898	-0.075016
 648	3.2350e-01	14.1541	130.868000	0.000485	4.850230	1.643302	-0.038718
 649	3.2400e-01	14.1221	130.488889	0.000950	9.498367	3.218134	-0.075822
 650	3.2450e-01	14.0868	130.117844	0.000930	9.296274	3.149663	-0.074209
 651	3.2500e-01	14.0354	129.770997	0.000869	8.689995	2.944250	-0.069369
 652	3.2550e-01	13.9921	129.379787	0.000980	9.801506	3.320840	-0.078242
 653	3.2600e-01	13.9520	129.157966	0.000556	5.557555	1.882951	-0.044364
 654	3.2650e-01	13.9199	128.920013	0.000596	5.961741	2.019892	-0.047591
 655	3.2700e-01	13.8718	128.561068	0.000899	8.993134	3.046956	-0.071789
 656	3.2750e-01	13.8429	128.202122	0.000899	8.993134	3.046956	-0.071789
 657	3.2800e-01	13.7884	127.895606	0.000768	7.679530	2.601895	-0.061303
 658	3.2850e-01	13.7595	127.581025	0.000788	7.881623	2.670366	-0.062916
 659	3.2900e-01	13.7146	127.274509	0.000768	7.679530	2.601895	-0.061303
 660	3.2950e-01	13.6793	127.008325	0.000667	6.669066	2.259541	-0.053237
 661	3.3000e-01	13.6360	126.709875	0.000748	7.477438	2.533424	-0.059690
 662	3.3050e-01	13.5959	126.266234	0.001112	11.115110	3.765901	-0.088728
 663	3.3100e-01	13.5654	125.967785	0.000748	7.477438	2.533424	-0.059690
 664	3.3150e-01	13.5253	125.762097	0.000515	5.153369	1.746009	-0.041138
 665	3.3200e-01	13.4836	125.495913	0.000667	6.669066	2.259541	-0.053237
 666	3.3250e-01	13.4387	125.036139	0.001152	11.519296	3.902843	-0.091955
 667	3.3300e-01	13.4114	124.729624	0.000768	7.679530	2.601895	-0.061303
 668	3.3350e-01	13.3617	124.406976	0.000808	8.083716	2.738837	-0.064530
 669	3.3400e-01	13.3183	124.173056	0.000586	5.860694	1.985657	-0.046784
 670	3.3450e-01	13.2782	123.822177	0.000879	8.791041	2.978485	-0.070176
 671	3.3500e-01	13.2381	123.547926	0.000687	6.871159	2.328012	-0.054850
 672	3.3550e-01	13.1980	123.201080	0.000869	8.689995	2.944250	-0.069369
 673	3.3600e-01	13.1595	122.830034	0.000930	9.296274	3.149663	-0.074209
 674	3.3650e-01	13.1114	122.636446	0.000485	4.850230	1.643302	-0.038718
 675	3.3700e-01	13.0681	122.212970	0.001061	10.609878	3.594724	-0.084695
 676	3.3750e-01	13.0360	121.837892	0.000940	9.397320	3.183898	-0.075016
 677	3.3800e-01	12.9959	121.495079	0.000859	8.588949	2.910015	-0.068563
 678	3.3850e-01	12.9622	121.249060	0.000616	6.163834	2.088363	-0.049204
 679	3.3900e-01	12.9173	120.692492	0.001394	13.944411	4.724494	-0.111314
 680	3.3950e-01	12.8772	120.607797	0.000212	2.121976	0.718945	-0.016939
 681	3.4000e-01	12.8435	120.260951	0.000869	8.689995	2.944250	-0.069369
 682	3.4050e-01	12.8002	119.942336	0.000798	7.982670	2.704602	-0.063723
 683	3.4100e-01	12.7633	119.708416	0.000586	5.860694	1.985657	-0.046784
 684	3.4150e-01	12.7216	119.377702	0.000829	8.285809	2.807308	-0.066143
 685	3.4200e-01	12.6783	119.192180	0.000465	4.648137	1.574831	-0.037105
 686	3.4250e-01	12.6398	118.829201	0.000909	9.094181	3.081192	-0.072596
 687	3.4300e-01	12.5932	118.321030	0.001273	12.731853	4.313669	-0.101634
 688	3.4350e-01	12.5611	118.095177	0.000566	5.658601	1.917186	-0.045171
 689	3.4400e-01	12.5130	117.760430	0.000839	8.386856	2.841544	-0.066949
 690	3.4450e-01	12.4809	117.433749	0.000818	8.184763	2.773073	-0.065336
 691	3.4500e-01	12.4456	117.070770	0.000909	9.094181	3.081192	-0.072596
 692	3.4550e-01	12.4071	116.760221	0.000778	7.780577	2.636131	-0.062110
 693	3.4600e-01	12.3606	116.332713	0.001071	10.710924	3.628959	-0.085502
 694	3.4650e-01	12.3269	116.026197	0.000768	7.679530	2.601895	-0.061303
 695	3.4700e-01	12.2852	115.784211	0.000606	6.062787	2.054128	-0.048397
 696	3.4750e-01	12.2371	115.445431	0.000849	8.487902	2.875779	-0.067756
 697	3.4800e-01	12.1922	115.118750	0.000818	8.184763	2.773073	-0.065336
 698	3.4850e-01	12.1617	114.812234	0.000768	7.679530	2.601895	-0.061303
 699	3.4900e-01	12.1168	114.485553	0.000818	8.184763	2.773073	-0.065336
 700	3.4950e-01	12.0863	114.207270	0.000697	6.972205	2.362247	-0.055657
 701	3.5000e-01	12.0398	113.799927	0.001021	10.205692	3.457782	-0.081469
 702	3.5050e-01	11.9932	113.513577	0.000717	7.174298	2.430718	-0.057270
 703	3.5100e-01	11.9628	113.267558	0.000616	6.163834	2.088363	-0.049204
 704	3.5150e-01	11.9178	112.936844	0.000829	8.285809	2.807308	-0.066143
 705	3.5200e-01	11.8761	112.557732	0.000950	9.498367	3.218134	-0.075822
 706	3.5250e-01	11.8408	112.251217	0.000768	7.679530	2.601895	-0.061303
 707	3.5300e-01	11.8023	111.868072	0.000960	9.599413	3.252369	-0.076629
 708	3.5350e-01	11.7670	111.505094	0.000909	9.094181	3.081192	-0.072596
 709	3.5400e-01	11.7173	111.089684	0.001041	10.407785	3.526253	-0.083082
 710	3.5450e-01	11.6884	110.787202	0.000758	7.578484	2.567660	-0.060496
 711	3.5500e-01	11.6307	110.516984	0.000677	6.770112	2.293776	-0.054044
 712	3.5550e-01	11.6002	110.222568	0.000738	7.376391	2.499189	-0.058883
 713	3.5600e-01	11.5649	109.928152	0.000738	7.376391	2.499189	-0.058883
 714	3.5650e-01	11.5184	109.565173	0.000909	9.094181	3.081192	-0.072596
 715	3.5700e-01	11.4831	109.137665	0.001071	10.710924	3.628959	-0.085502
 716	3.5750e-01	11.4446	108.706123	0.001081	10.811971	3.663195	-0.086308
 717	3.5800e-01	11.4013	108.504468	0.000505	5.052323	1.711773	-0.040331
 718	3.5850e-01	11.3612	108.185853	0.000798	7.982670	2.704602	-0.063723
 719	3.5900e-01	11.3195	107.810775	0.000940	9.397320	3.183898	-0.075016
 720	3.5950e-01	11.2826	107.451830	0.000899	8.993134	3.046956	-0.071789
 721	3.6000e-01	11.2377	107.100950	0.000879	8.791041	2.978485	-0.070176
 722	3.6050e-01	11.2056	106.758137	0.000859	8.588949	2.910015	-0.068563
 723	3.6100e-01	11.1639	106.463720	0.000738	7.376391	2.499189	-0.058883
 724	3.6150e-01	11.1125	106.197536	0.000667	6.669066	2.259541	-0.053237
 725	3.6200e-01	11.0820	105.870855	0.000818	8.184763	2.773073	-0.065336
 726	3.6250e-01	11.0484	105.479644	0.000980	9.801506	3.320840	-0.078242
 727	3.6300e-01	10.9922	105.112632	0.000920	9.195227	3.115427	-0.073402
 728	3.6350e-01	10.9553	104.842415	0.000677	6.770112	2.293776	-0.054044
 729	3.6400e-01	10.9216	104.459270	0.000960	9.599413	3.252369	-0.076629
 730	3.6450e-01	10.8815	104.096291	0.000909	9.094181	3.081192	-0.072596
 731	3.6500e-01	10.8430	103.830107	0.000667	6.669066	2.259541	-0.053237
 732	3.6550e-01	10.7917	103.491327	0.000849	8.487902	2.875779	-0.067756
 733	3.6600e-01	10.7612	103.144480	0.000869	8.689995	2.944250	-0.069369
 734	3.6650e-01	10.7195	102.773435	0.000930	9.296274	3.149663	-0.074209
 735	3.6700e-01	10.6858	102.446754	0.000818	8.184763	2.773073	-0.065336
 736	3.6750e-01	10.6377	102.099908	0.000869	8.689995	2.944250	-0.069369
 737	3.6800e-01	10.6056	101.749028	0.000879	8.791041	2.978485	-0.070176
 738	3.6850e-01	10.5639	101.454612	0.000738	7.376391	2.499189	-0.058883
 739	3.6900e-01	10.5238	101.148096	0.000768	7.679530	2.601895	-0.061303
 740	3.6950e-01	10.4821	100.680257	0.001172	11.721389	3.971314	-0.093568
 741	3.7000e-01	10.4339	100.478602	0.000505	5.052323	1.711773	-0.040331
 742	3.7050e-01	10.3970	100.159987	0.000798	7.982670	2.704602	-0.063723
 743	3.7100e-01	10.3585	99.768777	0.000980	9.801506	3.320840	-0.078242
 744	3.7150e-01	10.3136	99.349334	0.001051	10.508831	3.560488	-0.083888
 745	3.7200e-01	10.2735	99.071051	0.000697	6.972205	2.362247	-0.055657
 746	3.7250e-01	10.2334	98.671774	0.001000	10.003599	3.389311	-0.079855
 747	3.7300e-01	10.2029	98.248299	0.001061	10.609878	3.594724	-0.084695
 748	3.7350e-01	10.1564	98.058743	0.000475	4.749183	1.609067	-0.037911
 749	3.7400e-01	10.1243	97.603003	0.001142	11.418249	3.868608	-0.091148
 750	3.7450e-01	10.0746	97.276322	0.000818	8.184763	2.773073	-0.065336
 751	3.7500e-01	10.0409	97.034336	0.000606	6.062787	2.054128	-0.048397
 752	3.7550e-01	9.9960	96.574563	0.001152	11.519296	3.902843	-0.091955
 753	3.7600e-01	9.9607	96.130922	0.001112	11.115110	3.765901	-0.088728
 754	3.7650e-01	9.9142	96.030094	0.000253	2.526161	0.855887	-0.020165
 755	3.7700e-01	9.8821	95.646950	0.000960	9.599413	3.252369	-0.076629
 756	3.7750e-01	9.8436	95.308170	0.000849	8.487902	2.875779	-0.067756
 757	3.7800e-01	9.8067	94.828231	0.001202	12.024528	4.074020	-0.095988
 758	3.7850e-01	9.7553	94.380557	0.001122	11.216156	3.800137	-0.089535
 759	3.7900e-01	9.7168	94.025644	0.000889	8.892088	3.012721	-0.070983
 760	3.7950e-01	9.6751	93.783658	0.000606	6.062787	2.054128	-0.048397
 761	3.8000e-01	9.6398	93.448911	0.000839	8.386856	2.841544	-0.066949
 762	3.8050e-01	9.5949	93.166594	0.000707	7.073252	2.396483	-0.056463
 763	3.8100e-01	9.5548	92.743119	0.001061	10.609878	3.594724	-0.084695
 764	3.8150e-01	9.5195	92.626159	0.000293	2.930347	0.992828	-0.023392
 765	3.8200e-01	9.4762	92.218816	0.001021	10.205692	3.457782	-0.081469
 766	3.8250e-01	9.4377	91.690480	0.001324	13.237085	4.484846	-0.105667
 767	3.8300e-01	9.3976	91.367832	0.000808	8.083716	2.738837	-0.064530
 768	3.8350e-01	9.3607	91.065350	0.000758	7.578484	2.567660	-0.060496
 769	3.8400e-01	9.3254	90.774967	0.000728	7.275345	2.464953	-0.058077
 770	3.8450e-01	9.2773	90.339392	0.001091	10.913017	3.697430	-0.087115
 771	3.8500e-01	9.2420	89.996579	0.000859	8.588949	2.910015	-0.068563
 772	3.8550e-01	9.2019	89.649732	0.000869	8.689995	2.944250	-0.069369
 773	3.8600e-01	9.1570	89.246422	0.001010	10.104645	3.423547	-0.080662
 774	3.8650e-01	9.1233	88.931841	0.000788	7.881623	2.670366	-0.062916
 775	3.8700e-01	9.0832	88.593060	0.000849	8.487902	2.875779	-0.067756
 776	3.8750e-01	9.0415	88.238148	0.000889	8.892088	3.012721	-0.070983
 777	3.8800e-01	8.9853	87.967930	0.000677	6.770112	2.293776	-0.054044
 778	3.8850e-01	8.9564	87.552521	0.001041	10.407785	3.526253	-0.083082
 779	3.8900e-01	8.9115	87.338767	0.000536	5.355462	1.814480	-0.042751
 780	3.8950e-01	8.8858	86.959656	0.000950	9.498367	3.218134	-0.075822
 781	3.9000e-01	8.8345	86.552313	0.001021	10.205692	3.457782	-0.081469
 782	3.9050e-01	8.7976	86.116738	0.001091	10.913017	3.697430	-0.087115
 783	3.9100e-01	8.7479	85.749726	0.000920	9.195227	3.115427	-0.073402
 784	3.9150e-01	8.7222	85.439177	0.000778	7.780577	2.636131	-0.062110
 785	3.9200e-01	8.6805	84.971338	0.001172	11.721389	3.971314	-0.093568
 786	3.9250e-01	8.6436	84.620458	0.000879	8.791041	2.978485	-0.070176
 787	3.9300e-01	8.5971	84.362340	0.000647	6.466973	2.191070	-0.051624
 788	3.9350e-01	8.5618	84.023560	0.000849	8.487902	2.875779	-0.067756
 789	3.9400e-01	8.5137	83.604117	0.001051	10.508831	3.560488	-0.083888
 790	3.9450e-01	8.4784	83.220973	0.000960	9.599413	3.252369	-0.076629
 791	3.9500e-01	8.4447	83.035451	0.000465	4.648137	1.574831	-0.037105
 792	3.9550e-01	8.3966	82.599876	0.001091	10.913017	3.697430	-0.087115
 793	3.9600e-01	8.3613	82.244963	0.000889	8.892088	3.012721	-0.070983
 794	3.9650e-01	8.3131	81.833587	0.001031	10.306738	3.492017	-0.082275
 795	3.9700e-01	8.2859	81.474641	0.000899	8.993134	3.046956	-0.071789
 796	3.9750e-01	8.2393	81.047133	0.001071	10.710924	3.628959	-0.085502
 797	3.9800e-01	8.2008	80.813213	0.000586	5.860694	1.985657	-0.046784
 798	3.9850e-01	8.1543	80.442168	0.000930	9.296274	3.149663	-0.074209
 799	3.9900e-01	8.1142	80.026759	0.001041	10.407785	3.526253	-0.083082
 800	3.9950e-01	8.0821	79.587151	0.001101	11.014063	3.731666	-0.087922
 801	4.0000e-01	8.0436	79.329033	0.000647	6.466973	2.191070	-0.051624
 802	4.0050e-01	8.0003	78.917657	0.001031	10.306738	3.492017	-0.082275
 803	4.0100e-01	7.9554	78.631307	0.000717	7.174298	2.430718	-0.057270
 804	4.0150e-01	7.9121	78.292527	0.000849	8.487902	2.875779	-0.067756
 805	4.0200e-01	7.8752	77.953746	0.000849	8.487902	2.875779	-0.067756
 806	4.0250e-01	7.8447	77.614966	0.000849	8.487902	2.875779	-0.067756
 807	4.0300e-01	7.8062	77.110829	0.001263	12.630807	4.279433	-0.100827
 808	4.0350e-01	7.7565	76.884975	0.000566	5.658601	1.917186	-0.045171
 809	4.0400e-01	7.7148	76.489732	0.000990	9.902552	3.355076	-0.079049
 810	4.0450e-01	7.6859	76.066256	0.001061	10.609878	3.594724	-0.084695
 811	4.0500e-01	7.6378	75.675046	0.000980	9.801506	3.320840	-0.078242
 812	4.0550e-01	7.6057	75.332232	0.000859	8.588949	2.910015	-0.068563
 813	4.0600e-01	7.5591	74.936989	0.000990	9.902552	3.355076	-0.079049
 814	4.0650e-01	7.5110	74.682903	0.000637	6.365927	2.156834	-0.050817
 815	4.0700e-01	7.4789	74.263461	0.001051	10.508831	3.560488	-0.083888
 816	4.0750e-01	7.4308	73.916615	0.000869	8.689995	2.944250	-0.069369
 817	4.0800e-01	7.4035	73.585901	0.000829	8.285809	2.807308	-0.066143
 818	4.0850e-01	7.3570	73.150326	0.001091	10.913017	3.697430	-0.087115
 819	4.0900e-01	7.3153	72.690553	0.001152	11.519296	3.902843	-0.091955
 820	4.0950e-01	7.2768	72.476798	0.000536	5.355462	1.814480	-0.042751
 821	4.1000e-01	7.2415	72.154151	0.000808	8.083716	2.738837	-0.064530
 822	4.1050e-01	7.1998	71.722609	0.001081	10.811971	3.663195	-0.086308
 823	4.1100e-01	7.1549	71.246703	0.001192	11.923482	4.039785	-0.095181
 824	4.1150e-01	7.1148	70.911956	0.000839	8.386856	2.841544	-0.066949
 825	4.1200e-01	7.0779	70.504613	0.001021	10.205692	3.457782	-0.081469
 826	4.1250e-01	7.0394	70.206164	0.000748	7.477438	2.533424	-0.059690
 827	4.1300e-01	6.9993	69.939979	0.000667	6.669066	2.259541	-0.053237
 828	4.1350e-01	6.9608	69.391478	0.001374	13.742318	4.656023	-0.109700
 829	4.1400e-01	6.9175	69.117227	0.000687	6.871159	2.328012	-0.054850
 830	4.1450e-01	6.8854	68.633255	0.001213	12.125574	4.108256	-0.096794
 831	4.1500e-01	6.8356	68.233979	0.001000	10.003599	3.389311	-0.079855
 832	4.1550e-01	6.8003	67.955695	0.000697	6.972205	2.362247	-0.055657
 833	4.1600e-01	6.7490	67.713709	0.000606	6.062787	2.054128	-0.048397
 834	4.1650e-01	6.7169	67.403160	0.000778	7.780577	2.636131	-0.062110
 835	4.1700e-01	6.6704	67.003884	0.001000	10.003599	3.389311	-0.079855
 836	4.1750e-01	6.6383	66.342455	0.001657	16.571618	5.614616	-0.132286
 837	4.1800e-01	6.5998	66.120635	0.000556	5.557555	1.882951	-0.044364
 838	4.1850e-01	6.5549	65.785888	0.000839	8.386856	2.841544	-0.066949
 839	4.1900e-01	6.5260	65.475339	0.000778	7.780577	2.636131	-0.062110
 840	4.1950e-01	6.4779	64.991367	0.001213	12.125574	4.108256	-0.096794
 841	4.2000e-01	6.4330	64.668720	0.000808	8.083716	2.738837	-0.064530
 842	4.2050e-01	6.4025	64.305741	0.000909	9.094181	3.081192	-0.072596
 843	4.2100e-01	6.3608	64.063755	0.000606	6.062787	2.054128	-0.048397
 844	4.2150e-01	6.3159	63.608015	0.001142	11.418249	3.868608	-0.091148
 845	4.2200e-01	6.2742	63.192605	0.001041	10.407785	3.526253	-0.083082
 846	4.2250e-01	6.2389	62.773163	0.001051	10.508831	3.560488	-0.083888
 847	4.2300e-01	6.1923	62.361787	0.001031	10.306738	3.492017	-0.082275
 848	4.2350e-01	6.1458	62.103669	0.000647	6.466973	2.191070	-0.051624
 849	4.2400e-01	6.1169	61.712458	0.000980	9.801506	3.320840	-0.078242
 850	4.2450e-01	6.0816	61.321248	0.000980	9.801506	3.320840	-0.078242
 851	4.2500e-01	6.0319	61.046997	0.000687	6.871159	2.328012	-0.054850
 852	4.2550e-01	5.9982	60.655786	0.000980	9.801506	3.320840	-0.078242
 853	4.2600e-01	5.9517	60.252477	0.001010	10.104645	3.423547	-0.080662
 854	4.2650e-01	5.9196	60.018557	0.000586	5.860694	1.985657	-0.046784
 855	4.2700e-01	5.8795	59.518453	0.001253	12.529760	4.245198	-0.100021
 856	4.2750e-01	5.8394	58.953819	0.001415	14.146503	4.792965	-0.112927
 857	4.2800e-01	5.7993	58.780396	0.000434	4.344998	1.472125	-0.034685
 858	4.2850e-01	5.7512	58.417417	0.000909	9.094181	3.081192	-0.072596
 859	4.2900e-01	5.7191	57.989908	0.001071	10.710924	3.628959	-0.085502
 860	4.2950e-01	5.6710	57.639029	0.000879	8.791041	2.978485	-0.070176
 861	4.3000e-01	5.6405	57.179255	0.001152	11.519296	3.902843	-0.091955
 862	4.3050e-01	5.6052	56.723515	0.001142	11.418249	3.868608	-0.091148
 863	4.3100e-01	5.5635	56.433132	0.000728	7.275345	2.464953	-0.058077
 864	4.3150e-01	5.5234	56.098385	0.000839	8.386856	2.841544	-0.066949
 865	4.3200e-01	5.4720	55.739439	0.000899	8.993134	3.046956	-0.071789
 866	4.3250e-01	5.4335	55.328063	0.001031	10.306738	3.492017	-0.082275
 867	4.3300e-01	5.4015	54.952985	0.000940	9.397320	3.183898	-0.075016
 868	4.3350e-01	5.3597	54.594039	0.000899	8.993134	3.046956	-0.071789
 869	4.3400e-01	5.3180	54.166531	0.001071	10.710924	3.628959	-0.085502
 870	4.3450e-01	5.2699	53.904379	0.000657	6.568019	2.225305	-0.052430
 871	4.3500e-01	5.2458	53.412341	0.001233	12.327667	4.176727	-0.098408
 872	4.3550e-01	5.2025	53.061462	0.000879	8.791041	2.978485	-0.070176
 873	4.3600e-01	5.1608	52.601689	0.001152	11.519296	3.902843	-0.091955
 874	4.3650e-01	5.1191	52.258875	0.000859	8.588949	2.910015	-0.068563
 875	4.3700e-01	5.0758	52.028989	0.000576	5.759648	1.951422	-0.045977
 876	4.3750e-01	5.0421	51.557116	0.001182	11.822435	4.005549	-0.094375
 877	4.3800e-01	4.9956	51.165905	0.000980	9.801506	3.320840	-0.078242
 878	4.3850e-01	4.9603	50.645636	0.001303	13.034993	4.416375	-0.104054
 879	4.3900e-01	4.9186	50.331054	0.000788	7.881623	2.670366	-0.062916
 880	4.3950e-01	4.8833	49.968075	0.000909	9.094181	3.081192	-0.072596
 881	4.4000e-01	4.8336	49.552666	0.001041	10.407785	3.526253	-0.083082
 882	4.4050e-01	4.7999	49.346978	0.000515	5.153369	1.746009	-0.041138
 883	4.4100e-01	4.7582	48.947701	0.001000	10.003599	3.389311	-0.079855
 884	4.4150e-01	4.7293	48.455663	0.001233	12.327667	4.176727	-0.098408
 885	4.4200e-01	4.6812	48.137048	0.000798	7.982670	2.704602	-0.063723
 886	4.4250e-01	4.6362	47.761970	0.000940	9.397320	3.183898	-0.075016
 887	4.4300e-01	4.5897	47.310263	0.001132	11.317203	3.834372	-0.090341
 888	4.4350e-01	4.5560	47.056178	0.000637	6.365927	2.156834	-0.050817
 889	4.4400e-01	4.5287	46.669000	0.000970	9.700460	3.286605	-0.077435
 890	4.4450e-01	4.4790	46.132598	0.001344	13.439178	4.553317	-0.107280
 891	4.4500e-01	4.4373	45.781719	0.000879	8.791041	2.978485	-0.070176
 892	4.4550e-01	4.3988	45.426806	0.000889	8.892088	3.012721	-0.070983
 893	4.4600e-01	4.3651	45.120291	0.000768	7.679530	2.601895	-0.061303
 894	4.4650e-01	4.3138	44.672617	0.001122	11.216156	3.800137	-0.089535
 895	4.4700e-01	4.2865	44.212843	0.001152	11.519296	3.902843	-0.091955
 896	4.4750e-01	4.2368	43.878096	0.000839	8.386856	2.841544	-0.066949
 897	4.4800e-01	4.1935	43.458654	0.001051	10.508831	3.560488	-0.083888
 898	4.4850e-01	4.1582	43.148105	0.000778	7.780577	2.636131	-0.062110
 899	4.4900e-01	4.1036	42.845623	0.000758	7.578484	2.567660	-0.060496
 900	4.4950e-01	4.0699	42.397949	0.001122	11.216156	3.800137	-0.089535
 901	4.5000e-01	4.0379	42.043036	0.000889	8.892088	3.012721	-0.070983
 902	4.5050e-01	3.9945	41.583263	0.001152	11.519296	3.902843	-0.091955
 903	4.5100e-01	3.9512	41.220284	0.000909	9.094181	3.081192	-0.072596
 904	4.5150e-01	3.9223	40.881504	0.000849	8.487902	2.875779	-0.067756
 905	4.5200e-01	3.8806	40.377367	0.001263	12.630807	4.279433	-0.100827
 906	4.5250e-01	3.8389	40.062785	0.000788	7.881623	2.670366	-0.062916
 907	4.5300e-01	3.7908	39.808700	0.000637	6.365927	2.156834	-0.050817
 908	4.5350e-01	3.7523	39.272298	0.001344	13.439178	4.553317	-0.107280
 909	4.5400e-01	3.7186	38.877054	0.000990	9.902552	3.355076	-0.079049
 910	4.5450e-01	3.6785	38.554406	0.000808	8.083716	2.738837	-0.064530
 911	4.5500e-01	3.6336	38.195460	0.000899	8.993134	3.046956	-0.071789
 912	4.5550e-01	3.6063	37.800217	0.000990	9.902552	3.355076	-0.079049
 913	4.5600e-01	3.5550	37.275914	0.001314	13.136039	4.450610	-0.104861
 914	4.5650e-01	3.5197	36.969398	0.000768	7.679530	2.601895	-0.061303
 915	4.5700e-01	3.4828	36.570122	0.001000	10.003599	3.389311	-0.079855
 916	4.5750e-01	3.4379	36.166812	0.001010	10.104645	3.423547	-0.080662
 917	4.5800e-01	3.4010	35.751403	0.001041	10.407785	3.526253	-0.083082
 918	4.5850e-01	3.3577	35.392457	0.000899	8.993134	3.046956	-0.071789
 919	4.5900e-01	3.3192	34.916551	0.001192	11.923482	4.039785	-0.095181
 920	4.5950e-01	3.2855	34.432579	0.001213	12.125574	4.108256	-0.096794
 921	4.6000e-01	3.2245	34.053468	0.000950	9.498367	3.218134	-0.075822
 922	4.6050e-01	3.1972	33.767118	0.000717	7.174298	2.430718	-0.057270
 923	4.6100e-01	3.1587	33.355742	0.001031	10.306738	3.492017	-0.082275
 924	4.6150e-01	3.1186	33.069392	0.000717	7.174298	2.430718	-0.057270
 925	4.6200e-01	3.0849	32.722546	0.000869	8.689995	2.944250	-0.069369
 926	4.6250e-01	3.0336	32.250673	0.001182	11.822435	4.005549	-0.094375
 927	4.6300e-01	2.9951	31.891727	0.000899	8.993134	3.046956	-0.071789
 928	4.6350e-01	2.9582	31.488417	0.001010	10.104645	3.423547	-0.080662
 929	4.6400e-01	2.9229	31.105273	0.000960	9.599413	3.252369	-0.076629
 930	4.6450e-01	2.8828	30.576937	0.001324	13.237085	4.484846	-0.105667
 931	4.6500e-01	2.8315	30.282521	0.000738	7.376391	2.499189	-0.058883
 932	4.6550e-01	2.8010	29.911476	0.000930	9.296274	3.149663	-0.074209
 933	4.6600e-01	2.7673	29.427504	0.001213	12.125574	4.108256	-0.096794
 934	4.6650e-01	2.7272	29.064525	0.000909	9.094181	3.081192	-0.072596
 935	4.6700e-01	2.6775	28.733811	0.000829	8.285809	2.807308	-0.066143
 936	4.6750e-01	2.6325	28.386965	0.000869	8.689995	2.944250	-0.069369
 937	4.6800e-01	2.6021	28.015919	0.000930	9.296274	3.149663	-0.074209
 938	4.6850e-01	2.5588	27.471451	0.001364	13.641271	4.621788	-0.108894
 939	4.6900e-01	2.5170	27.177035	0.000738	7.376391	2.499189	-0.058883
 940	4.6950e-01	2.4753	26.652732	0.001314	13.136039	4.450610	-0.104861
 941	4.7000e-01	2.4368	26.297819	0.000889	8.892088	3.012721	-0.070983
 942	4.7050e-01	2.3983	25.975172	0.000808	8.083716	2.738837	-0.064530
 943	4.7100e-01	2.3630	25.503299	0.001182	11.822435	4.005549	-0.094375
 944	4.7150e-01	2.3181	25.152419	0.000879	8.791041	2.978485	-0.070176
 945	4.7200e-01	2.2828	24.825738	0.000818	8.184763	2.773073	-0.065336
 946	4.7250e-01	2.2395	24.426462	0.001000	10.003599	3.389311	-0.079855
 947	4.7300e-01	2.1978	24.083648	0.000859	8.588949	2.910015	-0.068563
 948	4.7350e-01	2.1497	23.640007	0.001112	11.115110	3.765901	-0.088728
 949	4.7400e-01	2.1224	23.208466	0.001081	10.811971	3.663195	-0.086308
 950	4.7450e-01	2.0711	22.861619	0.000869	8.689995	2.944250	-0.069369
 951	4.7500e-01	2.0374	22.385714	0.001192	11.923482	4.039785	-0.095181
 952	4.7550e-01	1.9941	22.018702	0.000920	9.195227	3.115427	-0.073402
 953	4.7600e-01	1.9556	21.700087	0.000798	7.982670	2.704602	-0.063723
 954	4.7650e-01	1.9138	21.320976	0.000950	9.498367	3.218134	-0.075822
 955	4.7700e-01	1.8689	20.925732	0.000990	9.902552	3.355076	-0.079049
 956	4.7750e-01	1.8481	20.506290	0.001051	10.508831	3.560488	-0.083888
 957	4.7800e-01	1.7999	20.119112	0.000970	9.700460	3.286605	-0.077435
 958	4.7850e-01	1.7582	19.643207	0.001192	11.923482	4.039785	-0.095181
 959	4.7900e-01	1.7213	19.223764	0.001051	10.508831	3.560488	-0.083888
 960	4.7950e-01	1.6700	18.889017	0.000839	8.386856	2.841544	-0.066949
 961	4.8000e-01	1.6267	18.501840	0.000970	9.700460	3.286605	-0.077435
 962	4.8050e-01	1.5978	17.981570	0.001303	13.034993	4.416375	-0.104054
 963	4.8100e-01	1.5609	17.602459	0.000950	9.498367	3.218134	-0.075822
 964	4.8150e-01	1.5128	17.211248	0.000980	9.801506	3.320840	-0.078242
 965	4.8200e-01	1.4775	16.864402	0.000869	8.689995	2.944250	-0.069369
 966	4.8250e-01	1.4438	16.537721	0.000818	8.184763	2.773073	-0.065336
 967	4.8300e-01	1.4053	16.174742	0.000909	9.094181	3.081192	-0.072596
 968	4.8350e-01	1.3588	15.852094	0.000808	8.083716	2.738837	-0.064530
 969	4.8400e-01	1.3251	15.303593	0.001374	13.742318	4.656023	-0.109700
 970	4.8450e-01	1.2754	14.839786	0.001162	11.620342	3.937079	-0.092761
 971	4.8500e-01	1.2417	14.517138	0.000808	8.083716	2.738837	-0.064530
 972	4.8550e-01	1.1968	14.194491	0.000808	8.083716	2.738837	-0.064530
 973	4.8600e-01	1.1518	13.807313	0.000970	9.700460	3.286605	-0.077435
 974	4.8650e-01	1.1182	13.355606	0.001132	11.317203	3.834372	-0.090341
 975	4.8700e-01	1.0796	12.948263	0.001021	10.205692	3.457782	-0.081469
 976	4.8750e-01	1.0395	12.674012	0.000687	6.871159	2.328012	-0.054850
 977	4.8800e-01	1.0042	12.113412	0.001405	14.045457	4.758730	-0.112120
 978	4.8850e-01	0.9561	11.738333	0.000940	9.397320	3.183898	-0.075016
 979	4.8900e-01	0.9160	11.351156	0.000970	9.700460	3.286605	-0.077435
 980	4.8950e-01	0.8775	10.980111	0.000930	9.296274	3.149663	-0.074209
 981	4.9000e-01	0.8422	10.568735	0.001031	10.306738	3.492017	-0.082275
 982	4.9050e-01	0.7925	10.121061	0.001122	11.216156	3.800137	-0.089535
 983	4.9100e-01	0.7588	9.721784	0.001000	10.003599	3.389311	-0.079855
 984	4.9150e-01	0.7091	9.403169	0.000798	7.982670	2.704602	-0.063723
 985	4.9200e-01	0.6770	9.044224	0.000899	8.993134	3.046956	-0.071789
 986	4.9250e-01	0.6337	8.673179	0.000930	9.296274	3.149663	-0.074209
 987	4.9300e-01	0.6000	8.269869	0.001010	10.104645	3.423547	-0.080662
 988	4.9350e-01	0.5615	7.761698	0.001273	12.731853	4.313669	-0.101634
 989	4.9400e-01	0.5085	7.346289	0.001041	10.407785	3.526253	-0.083082
 990	4.9450e-01	0.4781	7.144634	0.000505	5.052323	1.711773	-0.040331
 991	4.9500e-01	0.4347	6.632431	0.001283	12.832900	4.347904	-0.102441
 992	4.9550e-01	0.3978	6.285584	0.000869	8.689995	2.944250	-0.069369
 993	4.9600e-01	0.3513	5.870175	0.001041	10.407785	3.526253	-0.083082
 994	4.9650e-01	0.3192	5.462832	0.001021	10.205692	3.457782	-0.081469
 995	4.9700e-01	0.2791	4.970794	0.001233	12.327667	4.176727	-0.098408
 996	4.9750e-01	0.2390	4.519087	0.001132	11.317203	3.834372	-0.090341
 997	4.9800e-01	0.1989	4.164174	0.000889	8.892088	3.012721	-0.070983
 998	4.9850e-01	0.1556	3.752798	0.001031	10.306738	3.492017	-0.082275
 999	4.9900e-01	0.1091	3.369654	0.000960	9.599413	3.252369	-0.076629
1000	4.9950e-01	0.0754	2.877616	0.001233	12.327667	4.176727	-0.098408
1001	5.0000e-01	0.0417	2.349280	0.001324	13.237085	4.484846	-0.105667
1002	5.0050e-01	0.0080	2.228287	0.000303	3.031394	1.027064	-0.024199
1003	5.0100e-01	-0.0449	1.901606	0.000818	8.184763	2.773073	-0.065336
1004	5.0150e-01	-0.0722	1.542660	0.000899	8.993134	3.046956	-0.071789
1005	5.0200e-01	-0.1203	1.115152	0.001071	10.710924	3.628959	-0.085502
1006	5.0250e-01	-0.1476	0.699743	0.001041	10.407785	3.526253	-0.083082
1007	5.0300e-01	-0.1909	0.280300	0.001051	10.508831	3.560488	-0.083888
1008	5.0350e-01	-0.2390	-0.002017	0.000707	7.073252	2.396483	-0.056463
1009	5.0400e-01	-0.2695	-0.570683	0.001425	14.247550	4.827201	-0.113733
1010	5.0450e-01	-0.3128	-0.929629	0.000899	8.993134	3.046956	-0.071789
1011	5.0500e-01	-0.3497	-1.433767	0.001263	12.630807	4.279433	-0.100827
1012	5.0550e-01	-0.3995	-1.756414	0.000808	8.083716	2.738837	-0.064530
1013	5.0600e-01	-0.4380	-2.087129	0.000829	8.285809	2.807308	-0.066143
1014	5.0650e-01	-0.4797	-2.502538	0.001041	10.407785	3.526253	-0.083082
1015	5.0700e-01	-0.5214	-2.913914	0.001031	10.306738	3.492017	-0.082275
1016	5.0750e-01	-0.5551	-3.301091	0.000970	9.700460	3.286605	-0.077435
1017	5.0800e-01	-0.5920	-3.797162	0.001243	12.428714	4.210962	-0.099214
1018	5.0850e-01	-0.6417	-4.127876	0.000829	8.285809	2.807308	-0.066143
1019	5.0900e-01	-0.6658	-4.567484	0.001101	11.014063	3.731666	-0.087922
1020	5.0950e-01	-0.7123	-4.966761	0.001000	10.003599	3.389311	-0.079855
1021	5.1000e-01	-0.7540	-5.269243	0.000758	7.578484	2.567660	-0.060496
1022	5.1050e-01	-0.7909	-5.716917	0.001122	11.216156	3.800137	-0.089535
1023	5.1100e-01	-0.8294	-6.200889	0.001213	12.125574	4.108256	-0.096794
1024	5.1150e-01	-0.8743	-6.563868	0.000909	9.094181	3.081192	-0.072596
1025	5.1200e-01	-0.9192	-6.967178	0.001010	10.104645	3.423547	-0.080662
1026	5.1250e-01	-0.9513	-7.370488	0.001010	10.104645	3.423547	-0.080662
1027	5.1300e-01	-0.9978	-7.765731	0.000990	9.902552	3.355076	-0.079049
1028	5.1350e-01	-1.0267	-8.148876	0.000960	9.599413	3.252369	-0.076629
1029	5.1400e-01	-1.0748	-8.584450	0.001091	10.913017	3.697430	-0.087115
1030	5.1450e-01	-1.1133	-8.927264	0.000859	8.588949	2.910015	-0.068563
1031	5.1500e-01	-1.1695	-9.266044	0.000849	8.487902	2.875779	-0.067756
1032	5.1550e-01	-1.2000	-9.737917	0.001182	11.822435	4.005549	-0.094375
1033	5.1600e-01	-1.2369	-10.092829	0.000889	8.892088	3.012721	-0.070983
1034	5.1650e-01	-1.2754	-10.447742	0.000889	8.892088	3.012721	-0.070983
1035	5.1700e-01	-1.3235	-10.847019	0.001000	10.003599	3.389311	-0.079855
1036	5.1750e-01	-1.3508	-11.318891	0.001182	11.822435	4.005549	-0.094375
1037	5.1800e-01	-1.3925	-11.609274	0.000728	7.275345	2.464953	-0.058077
1038	5.1850e-01	-1.4358	-11.992419	0.000960	9.599413	3.252369	-0.076629
1039	5.1900e-01	-1.4775	-12.468324	0.001192	11.923482	4.039785	-0.095181
1040	5.1950e-01	-1.5128	-12.839369	0.000930	9.296274	3.149663	-0.074209
1041	5.2000e-01	-1.5529	-13.198315	0.000899	8.993134	3.046956	-0.071789
1042	5.2050e-01	-1.6042	-13.557261	0.000899	8.993134	3.046956	-0.071789
1043	5.2100e-01	-1.6395	-13.940405	0.000960	9.599413	3.252369	-0.076629
1044	5.2150e-01	-1.6764	-14.384046	0.001112	11.115110	3.765901	-0.088728
1045	5.2200e-01	-1.7133	-14.827687	0.001112	11.115110	3.765901	-0.088728
1046	5.2250e-01	-1.7598	-15.255195	0.001071	10.710924	3.628959	-0.085502
1047	5.2300e-01	-1.7903	-15.698836	0.001112	11.115110	3.765901	-0.088728
1048	5.2350e-01	-1.8401	-15.956955	0.000647	6.466973	2.191070	-0.051624
1049	5.2400e-01	-1.8802	-16.299768	0.000859	8.588949	2.910015	-0.068563
1050	5.2450e-01	-1.9122	-16.924898	0.001566	15.662200	5.306497	-0.125026
1051	5.2500e-01	-1.9588	-17.178983	0.000637	6.365927	2.156834	-0.050817
1052	5.2550e-01	-2.0021	-17.618591	0.001101	11.014063	3.731666	-0.087922
1053	5.2600e-01	-2.0358	-17.977537	0.000899	8.993134	3.046956	-0.071789
1054	5.2650e-01	-2.0743	-18.485707	0.001273	12.731853	4.313669	-0.101634
1055	5.2700e-01	-2.1208	-18.820455	0.000839	8.386856	2.841544	-0.066949
1056	5.2750e-01	-2.1529	-19.247963	0.001071	10.710924	3.628959	-0.085502
1057	5.2800e-01	-2.1930	-19.610942	0.000909	9.094181	3.081192	-0.072596
1058	5.2850e-01	-2.2331	-20.022318	0.001031	10.306738	3.492017	-0.082275
1059	5.2900e-01	-2.2796	-20.369164	0.000869	8.689995	2.944250	-0.069369
1060	5.2950e-01	-2.3181	-20.627283	0.000647	6.466973	2.191070	-0.051624
1061	5.3000e-01	-2.3582	-21.026560	0.001000	10.003599	3.389311	-0.079855
1062	5.3050e-01	-2.3999	-21.558929	0.001334	13.338132	4.519081	-0.106474
1063	5.3100e-01	-2.4432	-21.917874	0.000899	8.993134	3.046956	-0.071789
1064	5.3150e-01	-2.4817	-22.264721	0.000869	8.689995	2.944250	-0.069369
1065	5.3200e-01	-2.5106	-22.680130	0.001041	10.407785	3.526253	-0.083082
1066	5.3250e-01	-2.5588	-23.123771	0.001112	11.115110	3.765901	-0.088728
1067	5.3300e-01	-2.5956	-23.486750	0.000909	9.094181	3.081192	-0.072596
1068	5.3350e-01	-2.6293	-23.809398	0.000808	8.083716	2.738837	-0.064530
1069	5.3400e-01	-2.6791	-24.289336	0.001202	12.024528	4.074020	-0.095988
1070	5.3450e-01	-2.7208	-24.668448	0.000950	9.498367	3.218134	-0.075822
1071	5.3500e-01	-2.7625	-25.108055	0.001101	11.014063	3.731666	-0.087922
1072	5.3550e-01	-2.7946	-25.551696	0.001112	11.115110	3.765901	-0.088728
1073	5.3600e-01	-2.8379	-25.922741	0.000930	9.296274	3.149663	-0.074209
1074	5.3650e-01	-2.8796	-26.277654	0.000889	8.892088	3.012721	-0.070983
1075	5.3700e-01	-2.9213	-26.729361	0.001132	11.317203	3.834372	-0.090341
1076	5.3750e-01	-2.9502	-27.245598	0.001293	12.933946	4.382140	-0.103247
1077	5.3800e-01	-2.9919	-27.540014	0.000738	7.376391	2.499189	-0.058883
1078	5.3850e-01	-3.0368	-27.878794	0.000849	8.487902	2.875779	-0.067756
1079	5.3900e-01	-3.0657	-28.265972	0.000970	9.700460	3.286605	-0.077435
1080	5.3950e-01	-3.1122	-28.665248	0.001000	10.003599	3.389311	-0.079855
1081	5.4000e-01	-3.1619	-28.907234	0.000606	6.062787	2.054128	-0.048397
1082	5.4050e-01	-3.1956	-29.532365	0.001566	15.662200	5.306497	-0.125026
1083	5.4100e-01	-3.2422	-29.923575	0.000980	9.801506	3.320840	-0.078242
1084	5.4150e-01	-3.2694	-30.262355	0.000849	8.487902	2.875779	-0.067756
1085	5.4200e-01	-3.3192	-30.613235	0.000879	8.791041	2.978485	-0.070176
1086	5.4250e-01	-3.3577	-31.008479	0.000990	9.902552	3.355076	-0.079049
1087	5.4300e-01	-3.3897	-31.484384	0.001192	11.923482	4.039785	-0.095181
1088	5.4350e-01	-3.4363	-31.778800	0.000738	7.376391	2.499189	-0.058883
1089	5.4400e-01	-3.4748	-32.278905	0.001253	12.529760	4.245198	-0.100021
1090	5.4450e-01	-3.5149	-32.674148	0.000990	9.902552	3.355076	-0.079049
1091	5.4500e-01	-3.5582	-33.000829	0.000818	8.184763	2.773073	-0.065336
1092	5.4550e-01	-3.6015	-33.307345	0.000768	7.679530	2.601895	-0.061303
1093	5.4600e-01	-3.6416	-33.710655	0.001010	10.104645	3.423547	-0.080662
1094	5.4650e-01	-3.6785	-34.206726	0.001243	12.428714	4.210962	-0.099214
1095	5.4700e-01	-3.7170	-34.525341	0.000798	7.982670	2.704602	-0.063723
1096	5.4750e-01	-3.7571	-34.835889	0.000778	7.780577	2.636131	-0.062110
1097	5.4800e-01	-3.8004	-35.380357	0.001364	13.641271	4.621788	-0.108894
1098	5.4850e-01	-3.8357	-35.743336	0.000909	9.094181	3.081192	-0.072596
1099	5.4900e-01	-3.8774	-36.025653	0.000707	7.073252	2.396483	-0.056463
1100	5.4950e-01	-3.9143	-36.469294	0.001112	11.115110	3.765901	-0.088728
1101	5.5000e-01	-3.9512	-36.945200	0.001192	11.923482	4.039785	-0.095181
1102	5.5050e-01	-3.9913	-37.288013	0.000859	8.588949	2.910015	-0.068563
1103	5.5100e-01	-4.0443	-37.566297	0.000697	6.972205	2.362247	-0.055657
1104	5.5150e-01	-4.0764	-37.812316	0.000616	6.163834	2.088363	-0.049204
1105	5.5200e-01	-4.1197	-38.320486	0.001273	12.731853	4.313669	-0.101634
1106	5.5250e-01	-4.1566	-38.792359	0.001182	11.822435	4.005549	-0.094375
1107	5.5300e-01	-4.1983	-39.171470	0.000950	9.498367	3.218134	-0.075822
1108	5.5350e-01	-4.2368	-39.477986	0.000768	7.679530	2.601895	-0.061303
1109	5.5400e-01	-4.2785	-39.941792	0.001162	11.620342	3.937079	-0.092761
1110	5.5450e-01	-4.3106	-40.361234	0.001051	10.508831	3.560488	-0.083888
1111	5.5500e-01	-4.3587	-40.695981	0.000839	8.386856	2.841544	-0.066949
1112	5.5550e-01	-4.4036	-41.131556	0.001091	10.913017	3.697430	-0.087115
1113	5.5600e-01	-4.4373	-41.563098	0.001081	10.811971	3.663195	-0.086308
1114	5.5650e-01	-4.4678	-41.909944	0.000869	8.689995	2.944250	-0.069369
1115	5.5700e-01	-4.5127	-42.293088	0.000960	9.599413	3.252369	-0.076629
1116	5.5750e-01	-4.5560	-42.680266	0.000970	9.700460	3.286605	-0.077435
1117	5.5800e-01	-4.6009	-42.926285	0.000616	6.163834	2.088363	-0.049204
1118	5.5850e-01	-4.6426	-43.301363	0.000940	9.397320	3.183898	-0.075016
1119	5.5900e-01	-4.6795	-43.793401	0.001233	12.327667	4.176727	-0.098408
1120	5.5950e-01	-4.7180	-44.079751	0.000717	7.174298	2.430718	-0.057270
1121	5.6000e-01	-4.7501	-44.531458	0.001132	11.317203	3.834372	-0.090341
1122	5.6050e-01	-4.7967	-44.946867	0.001041	10.407785	3.526253	-0.083082
1123	5.6100e-01	-4.8416	-45.309846	0.000909	9.094181	3.081192	-0.072596
1124	5.6150e-01	-4.8817	-45.713156	0.001010	10.104645	3.423547	-0.080662
1125	5.6200e-01	-4.9202	-46.120499	0.001021	10.205692	3.457782	-0.081469
1126	5.6250e-01	-4.9507	-46.443147	0.000808	8.083716	2.738837	-0.064530
1127	5.6300e-01	-4.9988	-46.842424	0.001000	10.003599	3.389311	-0.079855
1128	5.6350e-01	-5.0389	-47.193303	0.000879	8.791041	2.978485	-0.070176
1129	5.6400e-01	-5.0822	-47.709540	0.001293	12.933946	4.382140	-0.103247
1130	5.6450e-01	-5.1223	-48.068486	0.000899	8.993134	3.046956	-0.071789
1131	5.6500e-01	-5.1528	-48.403233	0.000839	8.386856	2.841544	-0.066949
1132	5.6550e-01	-5.1929	-48.875105	0.001182	11.822435	4.005549	-0.094375
1133	5.6600e-01	-5.2362	-49.121124	0.000616	6.163834	2.088363	-0.049204
1134	5.6650e-01	-5.2811	-49.443772	0.000808	8.083716	2.738837	-0.064530
1135	5.6700e-01	-5.3212	-49.746255	0.000758	7.578484	2.567660	-0.060496
1136	5.6750e-01	-5.3581	-50.331054	0.001465	14.651736	4.964142	-0.116960
1137	5.6800e-01	-5.3982	-50.573040	0.000606	6.062787	2.054128	-0.048397
1138	5.6850e-01	-5.4335	-51.004581	0.001081	10.811971	3.663195	-0.086308
1139	5.6900e-01	-5.4736	-51.468388	0.001162	11.620342	3.937079	-0.092761
1140	5.6950e-01	-5.5202	-51.899929	0.001081	10.811971	3.663195	-0.086308
1141	5.7000e-01	-5.5490	-52.254842	0.000889	8.892088	3.012721	-0.070983
1142	5.7050e-01	-5.5924	-52.621854	0.000920	9.195227	3.115427	-0.073402
1143	5.7100e-01	-5.6405	-52.859807	0.000596	5.961741	2.019892	-0.047591
1144	5.7150e-01	-5.6774	-53.299415	0.001101	11.014063	3.731666	-0.087922
1145	5.7200e-01	-5.7159	-53.678526	0.000950	9.498367	3.218134	-0.075822
1146	5.7250e-01	-5.7624	-54.093935	0.001041	10.407785	3.526253	-0.083082
1147	5.7300e-01	-5.8009	-54.428682	0.000839	8.386856	2.841544	-0.066949
1148	5.7350e-01	-5.8362	-54.876356	0.001122	11.216156	3.800137	-0.089535
1149	5.7400e-01	-5.8731	-55.142541	0.000667	6.669066	2.259541	-0.053237
1150	5.7450e-01	-5.9148	-55.561983	0.001051	10.508831	3.560488	-0.083888
1151	5.7500e-01	-5.9533	-55.920929	0.000899	8.993134	3.046956	-0.071789
1152	5.7550e-01	-5.9982	-56.243577	0.000808	8.083716	2.738837	-0.064530
1153	5.7600e-01	-6.0447	-56.602522	0.000899	8.993134	3.046956	-0.071789
1154	5.7650e-01	-6.0736	-57.058262	0.001142	11.418249	3.868608	-0.091148
1155	5.7700e-01	-6.1185	-57.433341	0.000940	9.397320	3.183898	-0.075016
1156	5.7750e-01	-6.1651	-57.687426	0.000637	6.365927	2.156834	-0.050817
1157	5.7800e-01	-6.1988	-58.082670	0.000990	9.902552	3.355076	-0.079049
1158	5.7850e-01	-6.2405	-58.473880	0.000980	9.801506	3.320840	-0.078242
1159	5.7900e-01	-6.2838	-58.844925	0.000930	9.296274	3.149663	-0.074209
1160	5.7950e-01	-6.3159	-59.203871	0.000899	8.993134	3.046956	-0.071789
1161	5.8000e-01	-6.3608	-59.679777	0.001192	11.923482	4.039785	-0.095181
1162	5.8050e-01	-6.4025	-60.155682	0.001192	11.923482	4.039785	-0.095181
1163	5.8100e-01	-6.4378	-60.643687	0.001223	12.226621	4.142491	-0.097601
1164	5.8150e-01	-6.4779	-60.768713	0.000313	3.132440	1.061299	-0.025005
1165	5.8200e-01	-6.5148	-60.962302	0.000485	4.850230	1.643302	-0.038718
1166	5.8250e-01	-6.5533	-61.591465	0.001576	15.763247	5.340733	-0.125833
1167	5.8300e-01	-6.5918	-61.934279	0.000859	8.588949	2.910015	-0.068563
1168	5.8350e-01	-6.6303	-62.248860	0.000788	7.881623	2.670366	-0.062916
1169	5.8400e-01	-6.6752	-62.652170	0.001010	10.104645	3.423547	-0.080662
1170	5.8450e-01	-6.7169	-63.047414	0.000990	9.902552	3.355076	-0.079049
1171	5.8500e-01	-6.7538	-63.261168	0.000536	5.355462	1.814480	-0.042751
1172	5.8550e-01	-6.8019	-63.680610	0.001051	10.508831	3.560488	-0.083888
1173	5.8600e-01	-6.8372	-64.023424	0.000859	8.588949	2.910015	-0.068563
1174	5.8650e-01	-6.8725	-64.503362	0.001202	12.024528	4.074020	-0.095988
1175	5.8700e-01	-6.9175	-64.862308	0.000899	8.993134	3.046956	-0.071789
1176	5.8750e-01	-6.9624	-65.128493	0.000667	6.669066	2.259541	-0.053237
1177	5.8800e-01	-6.9993	-65.479372	0.000879	8.791041	2.978485	-0.070176
1178	5.8850e-01	-7.0346	-65.959311	0.001202	12.024528	4.074020	-0.095988
1179	5.8900e-01	-7.0747	-66.314224	0.000889	8.892088	3.012721	-0.070983
1180	5.8950e-01	-7.1196	-66.616706	0.000758	7.578484	2.567660	-0.060496
1181	5.9000e-01	-7.1597	-66.927255	0.000778	7.780577	2.636131	-0.062110
1182	5.9050e-01	-7.2046	-67.415260	0.001223	12.226621	4.142491	-0.097601
1183	5.9100e-01	-7.2399	-67.762106	0.000869	8.689995	2.944250	-0.069369
1184	5.9150e-01	-7.2752	-68.108953	0.000869	8.689995	2.944250	-0.069369
1185	5.9200e-01	-7.3153	-68.544527	0.001091	10.913017	3.697430	-0.087115
1186	5.9250e-01	-7.3554	-68.855076	0.000778	7.780577	2.636131	-0.062110
1187	5.9300e-01	-7.3971	-69.294684	0.001101	11.014063	3.731666	-0.087922
1188	5.9350e-01	-7.4324	-69.564901	0.000677	6.770112	2.293776	-0.054044
1189	5.9400e-01	-7.4773	-69.935946	0.000930	9.296274	3.149663	-0.074209
1190	5.9450e-01	-7.5110	-70.335223	0.001000	10.003599	3.389311	-0.079855
1191	5.9500e-01	-7.5543	-70.569143	0.000586	5.860694	1.985657	-0.046784
1192	5.9550e-01	-7.6025	-70.924055	0.000889	8.892088	3.012721	-0.070983
1193	5.9600e-01	-7.6329	-71.331398	0.001021	10.205692	3.457782	-0.081469
1194	5.9650e-01	-7.6698	-71.678245	0.000869	8.689995	2.944250	-0.069369
1195	5.9700e-01	-7.7244	-72.101720	0.001061	10.609878	3.594724	-0.084695
1196	5.9750e-01	-7.7533	-72.464699	0.000909	9.094181	3.081192	-0.072596
1197	5.9800e-01	-7.7918	-72.863976	0.001000	10.003599	3.389311	-0.079855
1198	5.9850e-01	-7.8271	-73.186624	0.000808	8.083716	2.738837	-0.064530
1199	5.9900e-01	-7.8864	-73.525404	0.000849	8.487902	2.875779	-0.067756
1200	5.9950e-01	-7.9121	-73.944846	0.001051	10.508831	3.560488	-0.083888
1201	6.0000e-01	-7.9490	-74.251362	0.000768	7.679530	2.601895	-0.061303
1202	6.0050e-01	-7.9923	-74.658705	0.001021	10.205692	3.457782	-0.081469
1203	6.0100e-01	-8.0324	-75.102346	0.001112	11.115110	3.765901	-0.088728
1204	6.0150e-01	-8.0773	-75.473391	0.000930	9.296274	3.149663	-0.074209
1205	6.0200e-01	-8.1270	-75.642781	0.000424	4.243951	1.437890	-0.033878
1206	6.0250e-01	-8.1559	-76.159017	0.001293	12.933946	4.382140	-0.103247
1207	6.0300e-01	-8.1976	-76.513930	0.000889	8.892088	3.012721	-0.070983
1208	6.0350e-01	-8.2313	-76.824479	0.000778	7.780577	2.636131	-0.062110
1209	6.0400e-01	-8.2746	-77.147127	0.000808	8.083716	2.738837	-0.064530
1210	6.0450e-01	-8.3051	-77.506072	0.000899	8.993134	3.046956	-0.071789
1211	6.0500e-01	-8.3500	-77.917448	0.001031	10.306738	3.492017	-0.082275
1212	6.0550e-01	-8.3885	-78.340924	0.001061	10.609878	3.594724	-0.084695
1213	6.0600e-01	-8.4415	-78.502248	0.000404	4.041858	1.369419	-0.032265
1214	6.0650e-01	-8.4687	-78.901525	0.001000	10.003599	3.389311	-0.079855
1215	6.0700e-01	-8.5121	-79.308867	0.001021	10.205692	3.457782	-0.081469
1216	6.0750e-01	-8.5457	-79.804939	0.001243	12.428714	4.210962	-0.099214
1217	6.0800e-01	-8.5987	-79.994494	0.000475	4.749183	1.609067	-0.037911
1218	6.0850e-01	-8.6292	-80.571227	0.001445	14.449643	4.895672	-0.115347
1219	6.0900e-01	-8.6773	-80.825313	0.000637	6.365927	2.156834	-0.050817
1220	6.0950e-01	-8.7126	-81.111663	0.000717	7.174298	2.430718	-0.057270
1221	6.1000e-01	-8.7575	-81.462542	0.000879	8.791041	2.978485	-0.070176
1222	6.1050e-01	-8.7960	-81.906183	0.001112	11.115110	3.765901	-0.088728
1223	6.1100e-01	-8.8345	-82.204632	0.000748	7.477438	2.533424	-0.059690
1224	6.1150e-01	-8.8826	-82.567611	0.000909	9.094181	3.081192	-0.072596
1225	6.1200e-01	-8.9035	-82.938656	0.000930	9.296274	3.149663	-0.074209
1226	6.1250e-01	-8.9564	-83.184675	0.000616	6.163834	2.088363	-0.049204
1227	6.1300e-01	-9.0046	-83.495224	0.000778	7.780577	2.636131	-0.062110
1228	6.1350e-01	-9.0286	-83.954997	0.001152	11.519296	3.902843	-0.091955
1229	6.1400e-01	-9.0751	-84.326042	0.000930	9.296274	3.149663	-0.074209
1230	6.1450e-01	-9.1120	-84.596260	0.000677	6.770112	2.293776	-0.054044
1231	6.1500e-01	-9.1457	-84.922941	0.000818	8.184763	2.773073	-0.065336
1232	6.1550e-01	-9.1955	-85.431111	0.001273	12.731853	4.313669	-0.101634
1233	6.1600e-01	-9.2356	-85.709395	0.000697	6.972205	2.362247	-0.055657
1234	6.1650e-01	-9.2709	-86.019944	0.000778	7.780577	2.636131	-0.062110
1235	6.1700e-01	-9.3238	-86.399055	0.000950	9.498367	3.218134	-0.075822
1236	6.1750e-01	-9.3575	-86.677339	0.000697	6.972205	2.362247	-0.055657
1237	6.1800e-01	-9.4024	-87.004020	0.000818	8.184763	2.773073	-0.065336
1238	6.1850e-01	-9.4345	-87.439594	0.001091	10.913017	3.697430	-0.087115
1239	6.1900e-01	-9.4730	-87.826772	0.000970	9.700460	3.286605	-0.077435
1240	6.1950e-01	-9.5131	-88.092956	0.000667	6.669066	2.259541	-0.053237
1241	6.2000e-01	-9.5612	-88.451902	0.000899	8.993134	3.046956	-0.071789
1242	6.2050e-01	-9.5965	-88.673722	0.000556	5.557555	1.882951	-0.044364
1243	6.2100e-01	-9.6366	-89.157694	0.001213	12.125574	4.108256	-0.096794
1244	6.2150e-01	-9.6655	-89.456144	0.000748	7.477438	2.533424	-0.059690
1245	6.2200e-01	-9.7168	-89.819122	0.000909	9.094181	3.081192	-0.072596
1246	6.2250e-01	-9.7553	-90.161936	0.000859	8.588949	2.910015	-0.068563
1247	6.2300e-01	-9.7922	-90.516848	0.000889	8.892088	3.012721	-0.070983
1248	6.2350e-01	-9.8420	-90.811265	0.000738	7.376391	2.499189	-0.058883
1249	6.2400e-01	-9.8853	-91.250872	0.001101	11.014063	3.731666	-0.087922
1250	6.2450e-01	-9.9077	-91.585620	0.000839	8.386856	2.841544	-0.066949
1251	6.2500e-01	-9.9623	-91.884069	0.000748	7.477438	2.533424	-0.059690
1252	6.2550e-01	-9.9944	-92.255114	0.000930	9.296274	3.149663	-0.074209
1253	6.2600e-01	-10.0329	-92.678589	0.001061	10.609878	3.594724	-0.084695
1254	6.2650e-01	-10.0746	-92.839913	0.000404	4.041858	1.369419	-0.032265
1255	6.2700e-01	-10.1211	-93.340018	0.001253	12.529760	4.245198	-0.100021
1256	6.2750e-01	-10.1628	-93.682831	0.000859	8.588949	2.910015	-0.068563
1257	6.2800e-01	-10.1933	-94.013545	0.000829	8.285809	2.807308	-0.066143
1258	6.2850e-01	-10.2398	-94.380557	0.000920	9.195227	3.115427	-0.073402
1259	6.2900e-01	-10.2735	-94.666907	0.000717	7.174298	2.430718	-0.057270
1260	6.2950e-01	-10.3248	-94.945191	0.000697	6.972205	2.362247	-0.055657
1261	6.3000e-01	-10.3585	-95.304137	0.000899	8.993134	3.046956	-0.071789
1262	6.3050e-01	-10.3906	-95.622751	0.000798	7.982670	2.704602	-0.063723
1263	6.3100e-01	-10.4339	-96.058326	0.001091	10.913017	3.697430	-0.087115
1264	6.3150e-01	-10.4740	-96.405172	0.000869	8.689995	2.944250	-0.069369
1265	6.3200e-01	-10.5190	-96.610860	0.000515	5.153369	1.746009	-0.041138
1266	6.3250e-01	-10.5575	-97.026270	0.001041	10.407785	3.526253	-0.083082
1267	6.3300e-01	-10.6008	-97.352951	0.000818	8.184763	2.773073	-0.065336
1268	6.3350e-01	-10.6296	-97.780459	0.001071	10.710924	3.628959	-0.085502
1269	6.3400e-01	-10.6810	-98.167637	0.000970	9.700460	3.286605	-0.077435
1270	6.3450e-01	-10.7099	-98.506417	0.000849	8.487902	2.875779	-0.067756
1271	6.3500e-01	-10.7628	-98.744370	0.000596	5.961741	2.019892	-0.047591
1272	6.3550e-01	-10.7965	-99.014587	0.000677	6.770112	2.293776	-0.054044
1273	6.3600e-01	-10.8350	-99.365467	0.000879	8.791041	2.978485	-0.070176
1274	6.3650e-01	-10.8623	-99.760710	0.000990	9.902552	3.355076	-0.079049
1275	6.3700e-01	-10.9120	-99.909935	0.000374	3.738719	1.266712	-0.029845
1276	6.3750e-01	-10.9537	-100.369708	0.001152	11.519296	3.902843	-0.091955
1277	6.3800e-01	-10.9938	-100.829482	0.001152	11.519296	3.902843	-0.091955
1278	6.3850e-01	-11.0435	-101.107765	0.000697	6.972205	2.362247	-0.055657
1279	6.3900e-01	-11.0740	-101.515108	0.001021	10.205692	3.457782	-0.081469
1280	6.3950e-01	-11.1189	-101.857922	0.000859	8.588949	2.910015	-0.068563
1281	6.4000e-01	-11.1590	-102.095875	0.000596	5.961741	2.019892	-0.047591
1282	6.4050e-01	-11.2088	-102.434655	0.000849	8.487902	2.875779	-0.067756
1283	6.4100e-01	-11.2360	-102.757303	0.000808	8.083716	2.738837	-0.064530
1284	6.4150e-01	-11.2778	-103.043653	0.000717	7.174298	2.430718	-0.057270
1285	6.4200e-01	-11.3211	-103.358234	0.000788	7.881623	2.670366	-0.062916
1286	6.4250e-01	-11.3451	-103.729280	0.000930	9.296274	3.149663	-0.074209
1287	6.4300e-01	-11.3965	-103.963199	0.000586	5.860694	1.985657	-0.046784
1288	6.4350e-01	-11.4366	-104.439105	0.001192	11.923482	4.039785	-0.095181
1289	6.4400e-01	-11.4719	-104.794018	0.000889	8.892088	3.012721	-0.070983
1290	6.4450e-01	-11.5184	-105.092467	0.000748	7.477438	2.533424	-0.059690
1291	6.4500e-01	-11.5585	-105.374784	0.000707	7.073252	2.396483	-0.056463
1292	6.4550e-01	-11.6002	-105.741796	0.000920	9.195227	3.115427	-0.073402
1293	6.4600e-01	-11.6419	-106.173337	0.001081	10.811971	3.663195	-0.086308
1294	6.4650e-01	-11.6868	-106.463720	0.000728	7.275345	2.464953	-0.058077
1295	6.4700e-01	-11.7141	-106.766203	0.000758	7.578484	2.567660	-0.060496
1296	6.4750e-01	-11.7526	-107.125149	0.000899	8.993134	3.046956	-0.071789
1297	6.4800e-01	-11.7927	-107.492160	0.000920	9.195227	3.115427	-0.073402
1298	6.4850e-01	-11.8376	-107.847073	0.000889	8.892088	3.012721	-0.070983
1299	6.4900e-01	-11.8729	-108.157622	0.000778	7.780577	2.636131	-0.062110
1300	6.4950e-01	-11.9098	-108.516568	0.000899	8.993134	3.046956	-0.071789
1301	6.5000e-01	-11.9612	-108.677891	0.000404	4.041858	1.369419	-0.032265
1302	6.5050e-01	-11.9965	-109.040870	0.000909	9.094181	3.081192	-0.072596
1303	6.5100e-01	-12.0334	-109.294956	0.000637	6.365927	2.156834	-0.050817
1304	6.5150e-01	-12.0702	-109.750696	0.001142	11.418249	3.868608	-0.091148
1305	6.5200e-01	-12.1168	-110.053178	0.000758	7.578484	2.567660	-0.060496
1306	6.5250e-01	-12.1585	-110.480687	0.001071	10.710924	3.628959	-0.085502
1307	6.5300e-01	-12.1922	-110.863831	0.000960	9.599413	3.252369	-0.076629
1308	6.5350e-01	-12.2419	-110.960625	0.000243	2.425115	0.821651	-0.019359
1309	6.5400e-01	-12.2772	-111.307472	0.000869	8.689995	2.944250	-0.069369
1310	6.5450e-01	-12.3285	-111.630120	0.000808	8.083716	2.738837	-0.064530
1311	6.5500e-01	-12.3526	-112.093926	0.001162	11.620342	3.937079	-0.092761
1312	6.5550e-01	-12.4087	-112.372210	0.000697	6.972205	2.362247	-0.055657
1313	6.5600e-01	-12.4392	-112.674692	0.000758	7.578484	2.567660	-0.060496
1314	6.5650e-01	-12.4761	-113.009439	0.000839	8.386856	2.841544	-0.066949
1315	6.5700e-01	-12.5146	-113.396617	0.000970	9.700460	3.286605	-0.077435
1316	6.5750e-01	-12.5563	-113.767662	0.000930	9.296274	3.149663	-0.074209
1317	6.5800e-01	-12.5980	-113.945118	0.000445	4.446044	1.506360	-0.035491
1318	6.5850e-01	-12.6365	-114.316163	0.000930	9.296274	3.149663	-0.074209
1319	6.5900e-01	-12.6734	-114.546050	0.000576	5.759648	1.951422	-0.045977
1320	6.5950e-01	-12.7200	-114.892896	0.000869	8.689995	2.944250	-0.069369
1321	6.6000e-01	-12.7553	-115.344603	0.001132	11.317203	3.834372	-0.090341
1322	6.6050e-01	-12.7986	-115.578523	0.000586	5.860694	1.985657	-0.046784
1323	6.6100e-01	-12.8451	-115.909237	0.000829	8.285809	2.807308	-0.066143
1324	6.6150e-01	-12.8836	-116.397242	0.001223	12.226621	4.142491	-0.097601
1325	6.6200e-01	-12.9093	-116.578732	0.000455	4.547090	1.540596	-0.036298
1326	6.6250e-01	-12.9590	-116.933644	0.000889	8.892088	3.012721	-0.070983
1327	6.6300e-01	-13.0007	-117.070770	0.000344	3.435579	1.164006	-0.027425
1328	6.6350e-01	-13.0344	-117.538609	0.001172	11.721389	3.971314	-0.093568
1329	6.6400e-01	-13.0777	-117.804794	0.000667	6.669066	2.259541	-0.053237
1330	6.6450e-01	-13.1162	-118.131475	0.000818	8.184763	2.773073	-0.065336
1331	6.6500e-01	-13.1563	-118.510586	0.000950	9.498367	3.218134	-0.075822
1332	6.6550e-01	-13.1916	-118.813068	0.000758	7.578484	2.567660	-0.060496
1333	6.6600e-01	-13.2317	-119.208312	0.000990	9.902552	3.355076	-0.079049
1334	6.6650e-01	-13.2622	-119.434165	0.000566	5.658601	1.917186	-0.045171
1335	6.6700e-01	-13.3183	-119.696317	0.000657	6.568019	2.225305	-0.052430
1336	6.6750e-01	-13.3536	-120.099627	0.001010	10.104645	3.423547	-0.080662
1337	6.6800e-01	-13.3937	-120.442440	0.000859	8.588949	2.910015	-0.068563
1338	6.6850e-01	-13.4258	-120.930445	0.001223	12.226621	4.142491	-0.097601
1339	6.6900e-01	-13.4772	-120.999008	0.000172	1.717790	0.582003	-0.013713
1340	6.6950e-01	-13.5157	-121.345854	0.000869	8.689995	2.944250	-0.069369
1341	6.7000e-01	-13.5494	-121.616072	0.000677	6.770112	2.293776	-0.054044
1342	6.7050e-01	-13.5991	-122.031481	0.001041	10.407785	3.526253	-0.083082
1343	6.7100e-01	-13.6360	-122.233136	0.000505	5.052323	1.711773	-0.040331
1344	6.7150e-01	-13.6729	-122.499320	0.000667	6.669066	2.259541	-0.053237
1345	6.7200e-01	-13.7194	-122.805836	0.000768	7.679530	2.601895	-0.061303
1346	6.7250e-01	-13.7515	-123.297874	0.001233	12.327667	4.176727	-0.098408
1347	6.7300e-01	-13.7932	-123.592290	0.000738	7.376391	2.499189	-0.058883
1348	6.7350e-01	-13.8349	-123.826210	0.000586	5.860694	1.985657	-0.046784
1349	6.7400e-01	-13.8814	-124.148858	0.000808	8.083716	2.738837	-0.064530
1350	6.7450e-01	-13.9167	-124.532002	0.000960	9.599413	3.252369	-0.076629
1351	6.7500e-01	-13.9584	-124.842551	0.000778	7.780577	2.636131	-0.062110
1352	6.7550e-01	-13.9953	-125.068404	0.000566	5.658601	1.917186	-0.045171
1353	6.7600e-01	-14.0338	-125.358787	0.000728	7.275345	2.464953	-0.058077
1354	6.7650e-01	-14.0771	-125.762097	0.001010	10.104645	3.423547	-0.080662
1355	6.7700e-01	-14.1124	-125.987951	0.000566	5.658601	1.917186	-0.045171
1356	6.7750e-01	-14.1574	-126.387227	0.001000	10.003599	3.389311	-0.079855
1357	6.7800e-01	-14.1991	-126.701809	0.000788	7.881623	2.670366	-0.062916
1358	6.7850e-01	-14.2360	-126.959927	0.000647	6.466973	2.191070	-0.051624
1359	6.7900e-01	-14.2761	-127.306774	0.000869	8.689995	2.944250	-0.069369
1360	6.7950e-01	-14.3130	-127.677819	0.000930	9.296274	3.149663	-0.074209
1361	6.8000e-01	-14.3595	-127.952070	0.000687	6.871159	2.328012	-0.054850
1362	6.8050e-01	-14.3948	-128.254552	0.000758	7.578484	2.567660	-0.060496
1363	6.8100e-01	-14.4285	-128.569134	0.000788	7.881623	2.670366	-0.062916
1364	6.8150e-01	-14.4766	-128.952278	0.000960	9.599413	3.252369	-0.076629
1365	6.8200e-01	-14.5183	-129.153933	0.000505	5.052323	1.711773	-0.040331
1366	6.8250e-01	-14.5616	-129.464482	0.000778	7.780577	2.636131	-0.062110
1367	6.8300e-01	-14.6033	-129.799229	0.000839	8.386856	2.841544	-0.066949
1368	6.8350e-01	-14.6482	-130.065413	0.000667	6.669066	2.259541	-0.053237
1369	6.8400e-01	-14.6851	-130.388061	0.000808	8.083716	2.738837	-0.064530
1370	6.8450e-01	-14.7124	-130.706676	0.000798	7.982670	2.704602	-0.063723
1371	6.8500e-01	-14.7557	-131.021258	0.000788	7.881623	2.670366	-0.062916
1372	6.8550e-01	-14.7990	-131.271310	0.000626	6.264880	2.122599	-0.050010
1373	6.8600e-01	-14.8375	-131.654454	0.000960	9.599413	3.252369	-0.076629
1374	6.8650e-01	-14.8905	-132.025499	0.000930	9.296274	3.149663	-0.074209
1375	6.8700e-01	-14.9258	-132.307816	0.000707	7.073252	2.396483	-0.056463
1376	6.8750e-01	-14.9563	-132.602232	0.000738	7.376391	2.499189	-0.058883
1377	6.8800e-01	-14.9964	-132.949079	0.000869	8.689995	2.944250	-0.069369
1378	6.8850e-01	-15.0365	-133.195098	0.000616	6.163834	2.088363	-0.049204
1379	6.8900e-01	-15.0750	-133.537911	0.000859	8.588949	2.910015	-0.068563
1380	6.8950e-01	-15.1119	-133.832327	0.000738	7.376391	2.499189	-0.058883
1381	6.9000e-01	-15.1584	-134.134810	0.000758	7.578484	2.567660	-0.060496
1382	6.9050e-01	-15.1905	-134.348564	0.000536	5.355462	1.814480	-0.042751
1383	6.9100e-01	-15.2386	-134.626848	0.000697	6.972205	2.362247	-0.055657
1384	6.9150e-01	-15.2787	-135.054356	0.001071	10.710924	3.628959	-0.085502
1385	6.9200e-01	-15.3140	-135.465732	0.001031	10.306738	3.492017	-0.082275
1386	6.9250e-01	-15.3509	-135.707718	0.000606	6.062787	2.054128	-0.048397
1387	6.9300e-01	-15.3862	-135.913406	0.000515	5.153369	1.746009	-0.041138
1388	6.9350e-01	-15.4263	-136.344948	0.001081	10.811971	3.663195	-0.086308
1389	6.9400e-01	-15.4728	-136.623232	0.000697	6.972205	2.362247	-0.055657
1390	6.9450e-01	-15.5145	-136.873284	0.000626	6.264880	2.122599	-0.050010
1391	6.9500e-01	-15.5595	-137.139468	0.000667	6.669066	2.259541	-0.053237
1392	6.9550e-01	-15.5964	-137.506480	0.000920	9.195227	3.115427	-0.073402
1393	6.9600e-01	-15.6316	-137.804930	0.000748	7.477438	2.533424	-0.059690
1394	6.9650e-01	-15.6782	-138.063048	0.000647	6.466973	2.191070	-0.051624
1395	6.9700e-01	-15.7183	-138.244537	0.000455	4.547090	1.540596	-0.036298
1396	6.9750e-01	-15.7584	-138.756741	0.001283	12.832900	4.347904	-0.102441
1397	6.9800e-01	-15.8017	-138.994694	0.000596	5.961741	2.019892	-0.047591
1398	6.9850e-01	-15.8370	-139.192316	0.000495	4.951276	1.677538	-0.039524
1399	6.9900e-01	-15.8723	-139.599658	0.001021	10.205692	3.457782	-0.081469
1400	6.9950e-01	-15.9204	-139.926339	0.000818	8.184763	2.773073	-0.065336
1401	7.0000e-01	-15.9573	-140.240921	0.000788	7.881623	2.670366	-0.062916
1402	7.0050e-01	-16.0006	-140.535337	0.000738	7.376391	2.499189	-0.058883
1403	7.0100e-01	-16.0375	-140.862018	0.000818	8.184763	2.773073	-0.065336
1404	7.0150e-01	-16.0680	-141.124170	0.000657	6.568019	2.225305	-0.052430
1405	7.0200e-01	-16.1225	-141.511347	0.000970	9.700460	3.286605	-0.077435
1406	7.0250e-01	-16.1578	-141.753333	0.000606	6.062787	2.054128	-0.048397
1407	7.0300e-01	-16.2060	-141.922723	0.000424	4.243951	1.437890	-0.033878
1408	7.0350e-01	-16.2316	-142.285702	0.000909	9.094181	3.081192	-0.072596
1409	7.0400e-01	-16.2798	-142.672880	0.000970	9.700460	3.286605	-0.077435
1410	7.0450e-01	-16.3183	-142.955197	0.000707	7.073252	2.396483	-0.056463
1411	7.0500e-01	-16.3503	-143.273811	0.000798	7.982670	2.704602	-0.063723
1412	7.0550e-01	-16.3937	-143.531930	0.000647	6.466973	2.191070	-0.051624
1413	7.0600e-01	-16.4322	-143.842478	0.000778	7.780577	2.636131	-0.062110
1414	7.0650e-01	-16.4691	-144.124795	0.000707	7.073252	2.396483	-0.056463
1415	7.0700e-01	-16.5188	-144.403079	0.000697	6.972205	2.362247	-0.055657
1416	7.0750e-01	-16.5637	-144.749925	0.000869	8.689995	2.944250	-0.069369
1417	7.0800e-01	-16.5990	-145.100805	0.000879	8.791041	2.978485	-0.070176
1418	7.0850e-01	-16.6343	-145.403287	0.000758	7.578484	2.567660	-0.060496
1419	7.0900e-01	-16.6792	-145.649306	0.000616	6.163834	2.088363	-0.049204
1420	7.0950e-01	-16.7241	-145.939689	0.000728	7.275345	2.464953	-0.058077
1421	7.1000e-01	-16.7562	-146.185708	0.000616	6.163834	2.088363	-0.049204
1422	7.1050e-01	-16.7979	-146.459959	0.000687	6.871159	2.328012	-0.054850
1423	7.1100e-01	-16.8348	-146.593051	0.000333	3.334533	1.129770	-0.026618
1424	7.1150e-01	-16.8813	-147.024593	0.001081	10.811971	3.663195	-0.086308
1425	7.1200e-01	-16.9022	-147.367406	0.000859	8.588949	2.910015	-0.068563
1426	7.1250e-01	-16.9599	-147.617458	0.000626	6.264880	2.122599	-0.050010
1427	7.1300e-01	-16.9952	-147.879610	0.000657	6.568019	2.225305	-0.052430
1428	7.1350e-01	-17.0353	-148.335350	0.001142	11.418249	3.868608	-0.091148
1429	7.1400e-01	-17.0755	-148.702362	0.000920	9.195227	3.115427	-0.073402
1430	7.1450e-01	-17.1156	-148.912083	0.000525	5.254416	1.780244	-0.041944
1431	7.1500e-01	-17.1460	-149.158102	0.000616	6.163834	2.088363	-0.049204
1432	7.1550e-01	-17.1958	-149.383956	0.000566	5.658601	1.917186	-0.045171
1433	7.1600e-01	-17.2407	-149.843729	0.001152	11.519296	3.902843	-0.091955
1434	7.1650e-01	-17.2808	-150.017152	0.000434	4.344998	1.472125	-0.034685
1435	7.1700e-01	-17.3113	-150.303502	0.000717	7.174298	2.430718	-0.057270
1436	7.1750e-01	-17.3578	-150.593885	0.000728	7.275345	2.464953	-0.058077
1437	7.1800e-01	-17.3995	-150.964930	0.000930	9.296274	3.149663	-0.074209
1438	7.1850e-01	-17.4380	-151.142387	0.000445	4.446044	1.506360	-0.035491
1439	7.1900e-01	-17.4781	-151.553763	0.001031	10.306738	3.492017	-0.082275
1440	7.1950e-01	-17.5166	-151.880444	0.000818	8.184763	2.773073	-0.065336
1441	7.2000e-01	-17.5503	-152.090165	0.000525	5.254416	1.780244	-0.041944
1442	7.2050e-01	-17.6049	-152.412813	0.000808	8.083716	2.738837	-0.064530
1443	7.2100e-01	-17.6353	-152.711262	0.000748	7.477438	2.533424	-0.059690
1444	7.2150e-01	-17.6835	-153.098439	0.000970	9.700460	3.286605	-0.077435
1445	7.2200e-01	-17.7171	-153.332359	0.000586	5.860694	1.985657	-0.046784
1446	7.2250e-01	-17.7524	-153.618709	0.000717	7.174298	2.430718	-0.057270
1447	7.2300e-01	-17.7909	-153.880861	0.000657	6.568019	2.225305	-0.052430
1448	7.2350e-01	-17.8375	-154.106714	0.000566	5.658601	1.917186	-0.045171
1449	7.2400e-01	-17.8808	-154.425329	0.000798	7.982670	2.704602	-0.063723
1450	7.2450e-01	-17.9225	-154.719745	0.000738	7.376391	2.499189	-0.058883
1451	7.2500e-01	-17.9562	-155.042393	0.000808	8.083716	2.738837	-0.064530
1452	7.2550e-01	-18.0027	-155.320677	0.000697	6.972205	2.362247	-0.055657
1453	7.2600e-01	-18.0348	-155.639292	0.000798	7.982670	2.704602	-0.063723
1454	7.2650e-01	-18.0829	-155.937741	0.000748	7.477438	2.533424	-0.059690
1455	7.2700e-01	-18.1182	-156.187793	0.000626	6.264880	2.122599	-0.050010
1456	7.2750e-01	-18.1615	-156.361216	0.000434	4.344998	1.472125	-0.034685
1457	7.2800e-01	-18.1904	-156.792758	0.001081	10.811971	3.663195	-0.086308
1458	7.2850e-01	-18.2369	-157.014578	0.000556	5.557555	1.882951	-0.044364
1459	7.2900e-01	-18.2674	-157.337226	0.000808	8.083716	2.738837	-0.064530
1460	7.2950e-01	-18.3187	-157.591311	0.000637	6.365927	2.156834	-0.050817
1461	7.3000e-01	-18.3637	-157.849430	0.000647	6.466973	2.191070	-0.051624
1462	7.3050e-01	-18.3957	-158.268872	0.001051	10.508831	3.560488	-0.083888
1463	7.3100e-01	-18.4407	-158.522957	0.000637	6.365927	2.156834	-0.050817
1464	7.3150e-01	-18.4808	-158.777042	0.000637	6.365927	2.156834	-0.050817
1465	7.3200e-01	-18.5161	-159.131955	0.000889	8.892088	3.012721	-0.070983
1466	7.3250e-01	-18.5642	-159.353775	0.000556	5.557555	1.882951	-0.044364
1467	7.3300e-01	-18.5947	-159.640125	0.000717	7.174298	2.430718	-0.057270
1468	7.3350e-01	-18.6300	-159.918409	0.000697	6.972205	2.362247	-0.055657
1469	7.3400e-01	-18.6813	-160.116031	0.000495	4.951276	1.677538	-0.039524
1470	7.3450e-01	-18.7134	-160.479010	0.000909	9.094181	3.081192	-0.072596
1471	7.3500e-01	-18.7535	-160.745194	0.000667	6.669066	2.259541	-0.053237
1472	7.3550e-01	-18.7968	-161.043644	0.000748	7.477438	2.533424	-0.059690
1473	7.3600e-01	-18.8385	-161.346126	0.000758	7.578484	2.567660	-0.060496
1474	7.3650e-01	-18.8866	-161.567947	0.000556	5.557555	1.882951	-0.044364
1475	7.3700e-01	-18.9123	-161.858330	0.000728	7.275345	2.464953	-0.058077
1476	7.3750e-01	-18.9540	-162.289871	0.001081	10.811971	3.663195	-0.086308
1477	7.3800e-01	-18.9989	-162.535890	0.000616	6.163834	2.088363	-0.049204
1478	7.3850e-01	-19.0342	-162.894836	0.000899	8.993134	3.046956	-0.071789
1479	7.3900e-01	-19.0791	-163.104557	0.000525	5.254416	1.780244	-0.041944
1480	7.3950e-01	-19.1160	-163.415106	0.000778	7.780577	2.636131	-0.062110
1481	7.4000e-01	-19.1513	-163.681290	0.000667	6.669066	2.259541	-0.053237
1482	7.4050e-01	-19.2027	-163.995872	0.000788	7.881623	2.670366	-0.062916
1483	7.4100e-01	-19.2331	-164.108799	0.000283	2.829301	0.958593	-0.022585
1484	7.4150e-01	-19.2781	-164.451612	0.000859	8.588949	2.910015	-0.068563
1485	7.4200e-01	-19.3102	-165.076742	0.001566	15.662200	5.306497	-0.125026
1486	7.4250e-01	-19.3599	-165.145305	0.000172	1.717790	0.582003	-0.013713
1487	7.4300e-01	-19.3968	-165.455854	0.000778	7.780577	2.636131	-0.062110
1488	7.4350e-01	-19.4353	-165.597012	0.000354	3.536626	1.198241	-0.028232
1489	7.4400e-01	-19.4706	-165.923693	0.000818	8.184763	2.773073	-0.065336
1490	7.4450e-01	-19.5011	-166.185844	0.000657	6.568019	2.225305	-0.052430
1491	7.4500e-01	-19.5540	-166.544790	0.000899	8.993134	3.046956	-0.071789
1492	7.4550e-01	-19.5989	-166.923902	0.000950	9.498367	3.218134	-0.075822
1493	7.4600e-01	-19.6374	-167.040861	0.000293	2.930347	0.992828	-0.023392
1494	7.4650e-01	-19.6727	-167.424006	0.000960	9.599413	3.252369	-0.076629
1495	7.4700e-01	-19.7096	-167.653892	0.000576	5.759648	1.951422	-0.045977
1496	7.4750e-01	-19.7609	-168.008805	0.000889	8.892088	3.012721	-0.070983
1497	7.4800e-01	-19.8010	-168.166096	0.000394	3.940812	1.335183	-0.031458
1498	7.4850e-01	-19.8395	-168.508909	0.000859	8.588949	2.910015	-0.068563
1499	7.4900e-01	-19.8764	-168.714597	0.000515	5.153369	1.746009	-0.041138
1500	7.4950e-01	-19.9117	-169.037245	0.000808	8.083716	2.738837	-0.064530
1501	7.5000e-01	-19.9551	-169.255032	0.000546	5.456508	1.848715	-0.043557
1502	7.5050e-01	-19.9534	-169.456687	-0.000505	-5.052323	-1.711773	-0.040331
1503	7.5100e-01	-19.9342	-169.501052	-0.000111	-1.111511	-0.376590	-0.008873
1504	7.5150e-01	-19.8893	-169.388125	0.000283	2.829301	0.958593	0.022585
1505	7.5200e-01	-19.8556	-169.202602	0.000465	4.648137	1.574831	0.037105
1506	7.5250e-01	-19.8123	-169.202602	0.000000	0.000000	0.000000	0.000000
1507	7.5300e-01	-19.7850	-169.085642	0.000293	2.930347	0.992828	0.023392
1508	7.5350e-01	-19.7337	-168.996914	0.000222	2.223022	0.753180	0.017746
1509	7.5400e-01	-19.6984	-168.827524	0.000424	4.243951	1.437890	0.033878
1510	7.5450e-01	-19.6551	-168.581505	0.000616	6.163834	2.088363	0.049204
1511	7.5500e-01	-19.6246	-168.448413	0.000333	3.334533	1.129770	0.026618
1512	7.5550e-01	-19.5684	-168.254824	0.000485	4.850230	1.643302	0.038718
1513	7.5600e-01	-19.5396	-168.085434	0.000424	4.243951	1.437890	0.033878
1514	7.5650e-01	-19.5091	-167.920077	0.000414	4.142905	1.403654	0.033071
1515	7.5700e-01	-19.4529	-167.778918	0.000354	3.536626	1.198241	0.028232
1516	7.5750e-01	-19.4176	-167.653892	0.000313	3.132440	1.061299	0.025005
1517	7.5800e-01	-19.3839	-167.428039	0.000566	5.658601	1.917186	0.045171
1518	7.5850e-01	-19.3374	-167.133623	0.000738	7.376391	2.499189	0.058883
1519	7.5900e-01	-19.2989	-167.125556	0.000020	0.202093	0.068471	0.001613
1520	7.5950e-01	-19.2636	-166.915835	0.000525	5.254416	1.780244	0.041944
1521	7.6000e-01	-19.2251	-166.738379	0.000445	4.446044	1.506360	0.035491
1522	7.6050e-01	-19.1770	-166.621419	0.000293	2.930347	0.992828	0.023392
1523	7.6100e-01	-19.1385	-166.375400	0.000616	6.163834	2.088363	0.049204
1524	7.6150e-01	-19.1016	-166.210043	0.000414	4.142905	1.403654	0.033071
1525	7.6200e-01	-19.0583	-166.060818	0.000374	3.738719	1.266712	0.029845
1526	7.6250e-01	-19.0214	-165.951925	0.000273	2.728254	0.924358	0.021779
1527	7.6300e-01	-18.9749	-165.701873	0.000626	6.264880	2.122599	0.050010
1528	7.6350e-01	-18.9476	-165.463920	0.000596	5.961741	2.019892	0.047591
1529	7.6400e-01	-18.8995	-165.250166	0.000536	5.355462	1.814480	0.042751
1530	7.6450e-01	-18.8658	-165.109007	0.000354	3.536626	1.198241	0.028232
1531	7.6500e-01	-18.8305	-164.830723	0.000697	6.972205	2.362247	0.055657
1532	7.6550e-01	-18.7808	-164.673432	0.000394	3.940812	1.335183	0.031458
1533	7.6600e-01	-18.7326	-164.556473	0.000293	2.930347	0.992828	0.023392
1534	7.6650e-01	-18.6925	-164.338685	0.000546	5.456508	1.848715	0.043557
1535	7.6700e-01	-18.6604	-164.072501	0.000667	6.669066	2.259541	0.053237
1536	7.6750e-01	-18.6219	-163.955541	0.000293	2.930347	0.992828	0.023392
1537	7.6800e-01	-18.5818	-163.854713	0.000253	2.526161	0.855887	0.020165
1538	7.6850e-01	-18.5369	-163.564330	0.000728	7.275345	2.464953	0.058077
1539	7.6900e-01	-18.5080	-163.435271	0.000323	3.233487	1.095535	0.025812
1540	7.6950e-01	-18.4535	-163.358642	0.000192	1.919883	0.650474	0.015326
1541	7.7000e-01	-18.4198	-163.015829	0.000859	8.588949	2.910015	0.068563
1542	7.7050e-01	-18.3765	-162.745611	0.000677	6.770112	2.293776	0.054044
1543	7.7100e-01	-18.3332	-162.640751	0.000263	2.627208	0.890122	0.020972
1544	7.7150e-01	-18.2947	-162.491526	0.000374	3.738719	1.266712	0.029845
1545	7.7200e-01	-18.2690	-162.197110	0.000738	7.376391	2.499189	0.058883
1546	7.7250e-01	-18.2193	-162.003521	0.000485	4.850230	1.643302	0.038718
1547	7.7300e-01	-18.1872	-161.757502	0.000616	6.163834	2.088363	0.049204
1548	7.7350e-01	-18.1342	-161.535682	0.000556	5.557555	1.882951	0.044364
1549	7.7400e-01	-18.0893	-161.370325	0.000414	4.142905	1.403654	0.033071
1550	7.7450e-01	-18.0621	-161.273530	0.000243	2.425115	0.821651	0.019359
1551	7.7500e-01	-18.0139	-160.942816	0.000829	8.285809	2.807308	0.066143
1552	7.7550e-01	-17.9834	-160.809724	0.000333	3.334533	1.129770	0.026618
1553	7.7600e-01	-17.9417	-160.587904	0.000556	5.557555	1.882951	0.044364
1554	7.7650e-01	-17.9016	-160.317686	0.000677	6.770112	2.293776	0.054044
1555	7.7700e-01	-17.8567	-160.172494	0.000364	3.637672	1.232477	0.029038
1556	7.7750e-01	-17.8246	-160.059568	0.000283	2.829301	0.958593	0.022585
1557	7.7800e-01	-17.7861	-159.757085	0.000758	7.578484	2.567660	0.060496
1558	7.7850e-01	-17.7348	-159.640125	0.000293	2.930347	0.992828	0.023392
1559	7.7900e-01	-17.7043	-159.406206	0.000586	5.860694	1.985657	0.046784
1560	7.7950e-01	-17.6482	-159.200518	0.000515	5.153369	1.746009	0.041138
1561	7.8000e-01	-17.6193	-158.938366	0.000657	6.568019	2.225305	0.052430
1562	7.8050e-01	-17.5904	-158.805274	0.000333	3.334533	1.129770	0.026618
1563	7.8100e-01	-17.5359	-158.567321	0.000596	5.961741	2.019892	0.047591
1564	7.8150e-01	-17.4990	-158.301137	0.000667	6.669066	2.259541	0.053237
1565	7.8200e-01	-17.4589	-158.111581	0.000475	4.749183	1.609067	0.037911
1566	7.8250e-01	-17.4156	-157.978489	0.000333	3.334533	1.129770	0.026618
1567	7.8300e-01	-17.3803	-157.651808	0.000818	8.184763	2.773073	0.065336
1568	7.8350e-01	-17.3385	-157.288829	0.000909	9.094181	3.081192	0.072596
1569	7.8400e-01	-17.3081	-157.228332	0.000152	1.515697	0.513532	0.012099
1570	7.8450e-01	-17.2631	-157.071042	0.000394	3.940812	1.335183	0.031458
1571	7.8500e-01	-17.2182	-156.744361	0.000818	8.184763	2.773073	0.065336
1572	7.8550e-01	-17.1829	-156.570937	0.000434	4.344998	1.472125	0.034685
1573	7.8600e-01	-17.1460	-156.409613	0.000404	4.041858	1.369419	0.032265
1574	7.8650e-01	-17.1091	-156.155528	0.000637	6.365927	2.156834	0.050817
1575	7.8700e-01	-17.0690	-155.965973	0.000475	4.749183	1.609067	0.037911
1576	7.8750e-01	-17.0113	-155.627192	0.000849	8.487902	2.875779	0.067756
1577	7.8800e-01	-16.9840	-155.482001	0.000364	3.637672	1.232477	0.029038
1578	7.8850e-01	-16.9407	-155.179518	0.000758	7.578484	2.567660	0.060496
1579	7.8900e-01	-16.9006	-155.102889	0.000192	1.919883	0.650474	0.015326
1580	7.8950e-01	-16.8637	-154.860904	0.000606	6.062787	2.054128	0.048397
1581	7.9000e-01	-16.8172	-154.715712	0.000364	3.637672	1.232477	0.029038
1582	7.9050e-01	-16.7690	-154.465660	0.000626	6.264880	2.122599	0.050010
1583	7.9100e-01	-16.7514	-154.195442	0.000677	6.770112	2.293776	0.054044
1584	7.9150e-01	-16.7065	-153.965556	0.000576	5.759648	1.951422	0.045977
1585	7.9200e-01	-16.6519	-153.747768	0.000546	5.456508	1.848715	0.043557
1586	7.9250e-01	-16.6215	-153.517882	0.000576	5.759648	1.951422	0.045977
1587	7.9300e-01	-16.5781	-153.320260	0.000495	4.951276	1.677538	0.039524
1588	7.9350e-01	-16.5396	-153.017778	0.000758	7.578484	2.567660	0.060496
1589	7.9400e-01	-16.4995	-152.799990	0.000546	5.456508	1.848715	0.043557
1590	7.9450e-01	-16.4626	-152.606401	0.000485	4.850230	1.643302	0.038718
1591	7.9500e-01	-16.4113	-152.295853	0.000778	7.780577	2.636131	0.062110
1592	7.9550e-01	-16.3856	-152.199059	0.000243	2.425115	0.821651	0.019359
1593	7.9600e-01	-16.3391	-151.969172	0.000576	5.759648	1.951422	0.045977
1594	7.9650e-01	-16.3006	-151.775583	0.000485	4.850230	1.643302	0.038718
1595	7.9700e-01	-16.2589	-151.497299	0.000697	6.972205	2.362247	0.055657
1596	7.9750e-01	-16.2188	-151.247247	0.000626	6.264880	2.122599	0.050010
1597	7.9800e-01	-16.1851	-151.001228	0.000616	6.163834	2.088363	0.049204
1598	7.9850e-01	-16.1354	-150.585819	0.001041	10.407785	3.526253	0.083082
1599	7.9900e-01	-16.0985	-150.577753	0.000020	0.202093	0.068471	0.001613
1600	7.9950e-01	-16.0680	-150.404330	0.000434	4.344998	1.472125	0.034685
1601	8.0000e-01	-16.0167	-150.101847	0.000758	7.578484	2.567660	0.060496
1602	8.0050e-01	-15.9830	-149.863894	0.000596	5.961741	2.019892	0.047591
1603	8.0100e-01	-15.9348	-149.662239	0.000505	5.052323	1.711773	0.040331
1604	8.0150e-01	-15.9012	-149.404121	0.000647	6.466973	2.191070	0.051624
1605	8.0200e-01	-15.8707	-149.194400	0.000525	5.254416	1.780244	0.041944
1606	8.0250e-01	-15.8129	-148.992745	0.000505	5.052323	1.711773	0.040331
1607	8.0300e-01	-15.7776	-148.694296	0.000748	7.477438	2.533424	0.059690
1608	8.0350e-01	-15.7359	-148.476508	0.000546	5.456508	1.848715	0.043557
1609	8.0400e-01	-15.6926	-148.165960	0.000778	7.780577	2.636131	0.062110
1610	8.0450e-01	-15.6525	-147.972371	0.000485	4.850230	1.643302	0.038718
1611	8.0500e-01	-15.6268	-147.750551	0.000556	5.557555	1.882951	0.044364
1612	8.0550e-01	-15.5787	-147.480333	0.000677	6.770112	2.293776	0.054044
1613	8.0600e-01	-15.5434	-147.302877	0.000445	4.446044	1.506360	0.035491
1614	8.0650e-01	-15.4985	-147.020560	0.000707	7.073252	2.396483	0.056463
1615	8.0700e-01	-15.4648	-146.738243	0.000707	7.073252	2.396483	0.056463
1616	8.0750e-01	-15.4183	-146.593051	0.000364	3.637672	1.232477	0.029038
1617	8.0800e-01	-15.3782	-146.359132	0.000586	5.860694	1.985657	0.046784
1618	8.0850e-01	-15.3365	-146.084881	0.000687	6.871159	2.328012	0.054850
1619	8.0900e-01	-15.2980	-145.996153	0.000222	2.223022	0.753180	0.017746
1620	8.0950e-01	-15.2546	-145.613008	0.000960	9.599413	3.252369	0.076629
1621	8.1000e-01	-15.2065	-145.362956	0.000626	6.264880	2.122599	0.050010
1622	8.1050e-01	-15.1760	-145.120970	0.000606	6.062787	2.054128	0.048397
1623	8.1100e-01	-15.1440	-144.935448	0.000465	4.648137	1.574831	0.037105
1624	8.1150e-01	-15.1022	-144.524072	0.001031	10.306738	3.492017	0.082275
1625	8.1200e-01	-15.0605	-144.439377	0.000212	2.121976	0.718945	0.016939
1626	8.1250e-01	-15.0172	-144.197391	0.000606	6.062787	2.054128	0.048397
1627	8.1300e-01	-14.9707	-143.975570	0.000556	5.557555	1.882951	0.044364
1628	8.1350e-01	-14.9402	-143.656956	0.000798	7.982670	2.704602	0.063723
1629	8.1400e-01	-14.8953	-143.535963	0.000303	3.031394	1.027064	0.024199
1630	8.1450e-01	-14.8568	-143.205249	0.000829	8.285809	2.807308	0.066143
1631	8.1500e-01	-14.8183	-142.914866	0.000728	7.275345	2.464953	0.058077
1632	8.1550e-01	-14.7734	-142.721277	0.000485	4.850230	1.643302	0.038718
1633	8.1600e-01	-14.7365	-142.414761	0.000768	7.679530	2.601895	0.061303
1634	8.1650e-01	-14.6996	-142.084047	0.000829	8.285809	2.807308	0.066143
1635	8.1700e-01	-14.6595	-141.963054	0.000303	3.031394	1.027064	0.024199
1636	8.1750e-01	-14.6049	-141.813830	0.000374	3.738719	1.266712	0.029845
1637	8.1800e-01	-14.5761	-141.406487	0.001021	10.205692	3.457782	0.081469
1638	8.1850e-01	-14.5311	-141.265328	0.000354	3.536626	1.198241	0.028232
1639	8.1900e-01	-14.4975	-140.906382	0.000899	8.993134	3.046956	0.071789
1640	8.1950e-01	-14.4622	-140.652297	0.000637	6.365927	2.156834	0.050817
1641	8.2000e-01	-14.4156	-140.458708	0.000485	4.850230	1.643302	0.038718
1642	8.2050e-01	-14.3755	-140.248987	0.000525	5.254416	1.780244	0.041944
1643	8.2100e-01	-14.3370	-139.998935	0.000626	6.264880	2.122599	0.050010
1644	8.2150e-01	-14.3017	-139.760982	0.000596	5.961741	2.019892	0.047591
1645	8.2200e-01	-14.2600	-139.518996	0.000606	6.062787	2.054128	0.048397
1646	8.2250e-01	-14.2279	-139.272977	0.000616	6.163834	2.088363	0.049204
1647	8.2300e-01	-14.1798	-138.978561	0.000738	7.376391	2.499189	0.058883
1648	8.2350e-01	-14.1429	-138.732542	0.000616	6.163834	2.088363	0.049204
1649	8.2400e-01	-14.1012	-138.446192	0.000717	7.174298	2.430718	0.057270
1650	8.2450e-01	-14.0611	-138.103379	0.000859	8.588949	2.910015	0.068563
1651	8.2500e-01	-14.0194	-137.861393	0.000606	6.062787	2.054128	0.048397
1652	8.2550e-01	-13.9777	-137.764599	0.000243	2.425115	0.821651	0.019359
1653	8.2600e-01	-13.9408	-137.558911	0.000515	5.153369	1.746009	0.041138
1654	8.2650e-01	-13.8959	-137.260461	0.000748	7.477438	2.533424	0.059690
1655	8.2700e-01	-13.8493	-136.966045	0.000738	7.376391	2.499189	0.058883
1656	8.2750e-01	-13.8173	-136.744225	0.000556	5.557555	1.882951	0.044364
1657	8.2800e-01	-13.7755	-136.546603	0.000495	4.951276	1.677538	0.039524
1658	8.2850e-01	-13.7370	-136.195723	0.000879	8.791041	2.978485	0.070176
1659	8.2900e-01	-13.6921	-135.913406	0.000707	7.073252	2.396483	0.056463
1660	8.2950e-01	-13.6665	-135.598825	0.000788	7.881623	2.670366	0.062916
1661	8.3000e-01	-13.6119	-135.502030	0.000243	2.425115	0.821651	0.019359
1662	8.3050e-01	-13.5702	-135.078555	0.001061	10.609878	3.594724	0.084695
1663	8.3100e-01	-13.5365	-134.872867	0.000515	5.153369	1.746009	0.041138
1664	8.3150e-01	-13.4996	-134.610715	0.000657	6.568019	2.225305	0.052430
1665	8.3200e-01	-13.4563	-134.223538	0.000970	9.700460	3.286605	0.077435
1666	8.3250e-01	-13.4162	-134.171108	0.000131	1.313604	0.445061	0.010486
1667	8.3300e-01	-13.3793	-133.808129	0.000909	9.094181	3.081192	0.072596
1668	8.3350e-01	-13.3440	-133.683103	0.000313	3.132440	1.061299	0.025005
1669	8.3400e-01	-13.2927	-133.396753	0.000717	7.174298	2.430718	0.057270
1670	8.3450e-01	-13.2606	-133.142668	0.000637	6.365927	2.156834	0.050817
1671	8.3500e-01	-13.2205	-132.824053	0.000798	7.982670	2.704602	0.063723
1672	8.3550e-01	-13.1756	-132.485273	0.000849	8.487902	2.875779	0.067756
1673	8.3600e-01	-13.1355	-132.344114	0.000354	3.536626	1.198241	0.028232
1674	8.3650e-01	-13.1018	-132.025499	0.000798	7.982670	2.704602	0.063723
1675	8.3700e-01	-13.0601	-131.848043	0.000445	4.446044	1.506360	0.035491
1676	8.3750e-01	-13.0167	-131.533461	0.000788	7.881623	2.670366	0.062916
1677	8.3800e-01	-12.9766	-131.251144	0.000707	7.073252	2.396483	0.056463
1678	8.3850e-01	-12.9381	-131.001092	0.000626	6.264880	2.122599	0.050010
1679	8.3900e-01	-12.9044	-130.589716	0.001031	10.306738	3.492017	0.082275
1680	8.3950e-01	-12.8724	-130.367896	0.000556	5.557555	1.882951	0.044364
1681	8.4000e-01	-12.8162	-130.093645	0.000687	6.871159	2.328012	0.054850
1682	8.4050e-01	-12.7809	-129.904089	0.000475	4.749183	1.609067	0.037911
1683	8.4100e-01	-12.7312	-129.734699	0.000424	4.243951	1.437890	0.033878
1684	8.4150e-01	-12.6911	-129.347522	0.000970	9.700460	3.286605	0.077435
1685	8.4200e-01	-12.6558	-129.182165	0.000414	4.142905	1.403654	0.033071
1686	8.4250e-01	-12.6173	-128.948245	0.000586	5.860694	1.985657	0.046784
1687	8.4300e-01	-12.5804	-128.633663	0.000788	7.881623	2.670366	0.062916
1688	8.4350e-01	-12.5403	-128.234387	0.001000	10.003599	3.389311	0.079855
1689	8.4400e-01	-12.4906	-128.020632	0.000536	5.355462	1.814480	0.042751
1690	8.4450e-01	-12.4633	-127.859308	0.000404	4.041858	1.369419	0.032265
1691	8.4500e-01	-12.4216	-127.512462	0.000869	8.689995	2.944250	0.069369
1692	8.4550e-01	-12.3702	-127.318873	0.000485	4.850230	1.643302	0.038718
1693	8.4600e-01	-12.3478	-127.000258	0.000798	7.982670	2.704602	0.063723
1694	8.4650e-01	-12.3045	-126.721975	0.000697	6.972205	2.362247	0.055657
1695	8.4700e-01	-12.2595	-126.459823	0.000657	6.568019	2.225305	0.052430
1696	8.4750e-01	-12.2226	-126.181539	0.000697	6.972205	2.362247	0.055657
1697	8.4800e-01	-12.1825	-125.919388	0.000657	6.568019	2.225305	0.052430
1698	8.4850e-01	-12.1456	-125.580608	0.000849	8.487902	2.875779	0.067756
1699	8.4900e-01	-12.1007	-125.310390	0.000677	6.770112	2.293776	0.054044
1700	8.4950e-01	-12.0510	-125.080504	0.000576	5.759648	1.951422	0.045977
1701	8.5000e-01	-12.0125	-124.790120	0.000728	7.275345	2.464953	0.058077
1702	8.5050e-01	-11.9724	-124.608631	0.000455	4.547090	1.540596	0.036298
1703	8.5100e-01	-11.9323	-124.326314	0.000707	7.073252	2.396483	0.056463
1704	8.5150e-01	-11.8986	-123.890739	0.001091	10.913017	3.697430	0.087115
1705	8.5200e-01	-11.8585	-123.705217	0.000465	4.648137	1.574831	0.037105
1706	8.5250e-01	-11.8248	-123.487430	0.000546	5.456508	1.848715	0.043557
1707	8.5300e-01	-11.7847	-123.096219	0.000980	9.801506	3.320840	0.078242
1708	8.5350e-01	-11.7446	-122.882465	0.000536	5.355462	1.814480	0.042751
1709	8.5400e-01	-11.6981	-122.539651	0.000859	8.588949	2.910015	0.068563
1710	8.5450e-01	-11.6676	-122.269434	0.000677	6.770112	2.293776	0.054044
1711	8.5500e-01	-11.6243	-122.079878	0.000475	4.749183	1.609067	0.037911
1712	8.5550e-01	-11.5729	-121.704800	0.000940	9.397320	3.183898	0.075016
1713	8.5600e-01	-11.5360	-121.511211	0.000485	4.850230	1.643302	0.038718
1714	8.5650e-01	-11.5120	-121.196630	0.000788	7.881623	2.670366	0.062916
1715	8.5700e-01	-11.4655	-120.825584	0.000930	9.296274	3.149663	0.074209
1716	8.5750e-01	-11.4141	-120.527135	0.000748	7.477438	2.533424	0.059690
1717	8.5800e-01	-11.3868	-120.357745	0.000424	4.243951	1.437890	0.033878
1718	8.5850e-01	-11.3403	-120.188355	0.000424	4.243951	1.437890	0.033878
1719	8.5900e-01	-11.3002	-119.829409	0.000899	8.993134	3.046956	0.071789
1720	8.5950e-01	-11.2585	-119.587423	0.000606	6.062787	2.054128	0.048397
1721	8.6000e-01	-11.2152	-119.288974	0.000748	7.477438	2.533424	0.059690
1722	8.6050e-01	-11.1927	-118.897763	0.000980	9.801506	3.320840	0.078242
1723	8.6100e-01	-11.1462	-118.595281	0.000758	7.578484	2.567660	0.060496
1724	8.6150e-01	-11.1029	-118.470255	0.000313	3.132440	1.061299	0.025005
1725	8.6200e-01	-11.0660	-118.018548	0.001132	11.317203	3.834372	0.090341
1726	8.6250e-01	-11.0227	-117.828992	0.000475	4.749183	1.609067	0.037911
1727	8.6300e-01	-10.9778	-117.461980	0.000920	9.195227	3.115427	0.073402
1728	8.6350e-01	-10.9441	-117.236127	0.000566	5.658601	1.917186	0.045171
1729	8.6400e-01	-10.8992	-116.937677	0.000748	7.477438	2.533424	0.059690
1730	8.6450e-01	-10.8591	-116.639228	0.000748	7.477438	2.533424	0.059690
1731	8.6500e-01	-10.8222	-116.502103	0.000344	3.435579	1.164006	0.027425
1732	8.6550e-01	-10.7740	-116.235918	0.000667	6.669066	2.259541	0.053237
1733	8.6600e-01	-10.7307	-115.788244	0.001122	11.216156	3.800137	0.089535
1734	8.6650e-01	-10.7018	-115.489795	0.000748	7.477438	2.533424	0.059690
1735	8.6700e-01	-10.6585	-115.251842	0.000596	5.961741	2.019892	0.047591
1736	8.6750e-01	-10.6280	-115.050187	0.000505	5.052323	1.711773	0.040331
1737	8.6800e-01	-10.5863	-114.671076	0.000950	9.498367	3.218134	0.075822
1738	8.6850e-01	-10.5382	-114.360527	0.000778	7.780577	2.636131	0.062110
1739	8.6900e-01	-10.4965	-114.106442	0.000637	6.365927	2.156834	0.050817
1740	8.6950e-01	-10.4708	-113.670868	0.001091	10.913017	3.697430	0.087115
1741	8.7000e-01	-10.4147	-113.497444	0.000434	4.344998	1.472125	0.034685
1742	8.7050e-01	-10.3762	-113.211094	0.000717	7.174298	2.430718	0.057270
1743	8.7100e-01	-10.3393	-112.827950	0.000960	9.599413	3.252369	0.076629
1744	8.7150e-01	-10.2992	-112.614196	0.000536	5.355462	1.814480	0.042751
1745	8.7200e-01	-10.2639	-112.368177	0.000616	6.163834	2.088363	0.049204
1746	8.7250e-01	-10.2190	-112.089893	0.000697	6.972205	2.362247	0.055657
1747	8.7300e-01	-10.1789	-111.726914	0.000909	9.094181	3.081192	0.072596
1748	8.7350e-01	-10.1436	-111.549458	0.000445	4.446044	1.506360	0.035491
1749	8.7400e-01	-10.1083	-111.053387	0.001243	12.428714	4.210962	0.099214
1750	8.7450e-01	-10.0617	-110.851732	0.000505	5.052323	1.711773	0.040331
1751	8.7500e-01	-10.0216	-110.678308	0.000434	4.344998	1.472125	0.034685
1752	8.7550e-01	-9.9783	-110.222568	0.001142	11.418249	3.868608	0.091148
1753	8.7600e-01	-9.9334	-110.024946	0.000495	4.951276	1.677538	0.039524
1754	8.7650e-01	-9.9013	-109.819258	0.000515	5.153369	1.746009	0.041138
1755	8.7700e-01	-9.8596	-109.440147	0.000950	9.498367	3.218134	0.075822
1756	8.7750e-01	-9.8195	-109.319154	0.000303	3.031394	1.027064	0.024199
1757	8.7800e-01	-9.7810	-108.883580	0.001091	10.913017	3.697430	0.087115
1758	8.7850e-01	-9.7425	-108.480270	0.001010	10.104645	3.423547	0.080662
1759	8.7900e-01	-9.7072	-108.157622	0.000808	8.083716	2.738837	0.064530
1760	8.7950e-01	-9.6559	-107.895470	0.000657	6.568019	2.225305	0.052430
1761	8.8000e-01	-9.6158	-107.713981	0.000455	4.547090	1.540596	0.036298
1762	8.8050e-01	-9.5805	-107.391333	0.000808	8.083716	2.738837	0.064530
1763	8.8100e-01	-9.5372	-107.137248	0.000637	6.365927	2.156834	0.050817
1764	8.8150e-01	-9.4938	-106.838799	0.000748	7.477438	2.533424	0.059690
1765	8.8200e-01	-9.4666	-106.483886	0.000889	8.892088	3.012721	0.070983
1766	8.8250e-01	-9.4217	-106.124940	0.000899	8.993134	3.046956	0.071789
1767	8.8300e-01	-9.3783	-105.782127	0.000859	8.588949	2.910015	0.068563
1768	8.8350e-01	-9.3334	-105.536108	0.000616	6.163834	2.088363	0.049204
1769	8.8400e-01	-9.2997	-105.386883	0.000374	3.738719	1.266712	0.029845
1770	8.8450e-01	-9.2612	-104.870646	0.001293	12.933946	4.382140	0.103247
1771	8.8500e-01	-9.2147	-104.802084	0.000172	1.717790	0.582003	0.013713
1772	8.8550e-01	-9.1794	-104.354410	0.001122	11.216156	3.800137	0.089535
1773	8.8600e-01	-9.1345	-104.100325	0.000637	6.365927	2.156834	0.050817
1774	8.8650e-01	-9.1008	-103.826074	0.000687	6.871159	2.328012	0.054850
1775	8.8700e-01	-9.0591	-103.539724	0.000717	7.174298	2.430718	0.057270
1776	8.8750e-01	-9.0078	-103.237241	0.000758	7.578484	2.567660	0.060496
1777	8.8800e-01	-8.9853	-102.958958	0.000697	6.972205	2.362247	0.055657
1778	8.8850e-01	-8.9324	-102.547582	0.001031	10.306738	3.492017	0.082275
1779	8.8900e-01	-8.9003	-102.253165	0.000738	7.376391	2.499189	0.058883
1780	8.8950e-01	-8.8538	-102.067643	0.000465	4.648137	1.574831	0.037105
1781	8.9000e-01	-8.8233	-101.607870	0.001152	11.519296	3.902843	0.091955
1782	8.9050e-01	-8.7864	-101.277156	0.000829	8.285809	2.807308	0.066143
1783	8.9100e-01	-8.7383	-101.035170	0.000606	6.062787	2.054128	0.048397
1784	8.9150e-01	-8.7046	-100.664125	0.000930	9.296274	3.149663	0.074209
1785	8.9200e-01	-8.6596	-100.410039	0.000637	6.365927	2.156834	0.050817
1786	8.9250e-01	-8.6131	-100.034961	0.000940	9.397320	3.183898	0.075016
1787	8.9300e-01	-8.5794	-99.748611	0.000717	7.174298	2.430718	0.057270
1788	8.9350e-01	-8.5361	-99.482427	0.000667	6.669066	2.259541	0.053237
1789	8.9400e-01	-8.4992	-99.264639	0.000546	5.456508	1.848715	0.043557
1790	8.9450e-01	-8.4559	-98.845197	0.001051	10.508831	3.560488	0.083888
1791	8.9500e-01	-8.4174	-98.631443	0.000536	5.355462	1.814480	0.042751
1792	8.9550e-01	-8.3837	-98.276530	0.000889	8.892088	3.012721	0.070983
1793	8.9600e-01	-8.3372	-97.921618	0.000889	8.892088	3.012721	0.070983
1794	8.9650e-01	-8.2907	-97.695764	0.000566	5.658601	1.917186	0.045171
1795	8.9700e-01	-8.2666	-97.373116	0.000808	8.083716	2.738837	0.064530
1796	8.9750e-01	-8.2281	-96.998038	0.000940	9.397320	3.183898	0.075016
1797	8.9800e-01	-8.1832	-96.695556	0.000758	7.578484	2.567660	0.060496
1798	8.9850e-01	-8.1367	-96.368875	0.000818	8.184763	2.773073	0.065336
1799	8.9900e-01	-8.1014	-96.167220	0.000505	5.052323	1.711773	0.040331
1800	8.9950e-01	-8.0613	-95.675182	0.001233	12.327667	4.176727	0.098408
1801	9.0000e-01	-8.0212	-95.376732	0.000748	7.477438	2.533424	0.059690
1802	9.0050e-01	-7.9778	-95.058118	0.000798	7.982670	2.704602	0.063723
1803	9.0100e-01	-7.9329	-94.763701	0.000738	7.376391	2.499189	0.058883
1804	9.0150e-01	-7.8960	-94.574146	0.000475	4.749183	1.609067	0.037911
1805	9.0200e-01	-7.8543	-94.255531	0.000798	7.982670	2.704602	0.063723
1806	9.0250e-01	-7.8126	-93.828022	0.001071	10.710924	3.628959	0.085502
1807	9.0300e-01	-7.7709	-93.694930	0.000333	3.334533	1.129770	0.026618
1808	9.0350e-01	-7.7452	-93.214991	0.001202	12.024528	4.074020	0.095988
1809	9.0400e-01	-7.6987	-92.928641	0.000717	7.174298	2.430718	0.057270
1810	9.0450e-01	-7.6618	-92.569696	0.000899	8.993134	3.046956	0.071789
1811	9.0500e-01	-7.6121	-92.247048	0.000808	8.083716	2.738837	0.064530
1812	9.0550e-01	-7.5768	-91.956665	0.000728	7.275345	2.464953	0.058077
1813	9.0600e-01	-7.5415	-91.529156	0.001071	10.710924	3.628959	0.085502
1814	9.0650e-01	-7.4998	-91.238773	0.000728	7.275345	2.464953	0.058077
1815	9.0700e-01	-7.4404	-91.020986	0.000546	5.456508	1.848715	0.043557
1816	9.0750e-01	-7.4228	-90.734636	0.000717	7.174298	2.430718	0.057270
1817	9.0800e-01	-7.3682	-90.407955	0.000818	8.184763	2.773073	0.065336
1818	9.0850e-01	-7.3329	-90.057075	0.000879	8.791041	2.978485	0.070176
1819	9.0900e-01	-7.2977	-89.730394	0.000818	8.184763	2.773073	0.065336
1820	9.0950e-01	-7.2624	-89.476309	0.000637	6.365927	2.156834	0.050817
1821	9.1000e-01	-7.2190	-89.109297	0.000920	9.195227	3.115427	0.073402
1822	9.1050e-01	-7.1822	-88.794715	0.000788	7.881623	2.670366	0.062916
1823	9.1100e-01	-7.1372	-88.367207	0.001071	10.710924	3.628959	0.085502
1824	9.1150e-01	-7.0987	-88.084890	0.000707	7.073252	2.396483	0.056463
1825	9.1200e-01	-7.0538	-87.826772	0.000647	6.466973	2.191070	0.051624
1826	9.1250e-01	-7.0185	-87.560587	0.000667	6.669066	2.259541	0.053237
1827	9.1300e-01	-6.9784	-87.229873	0.000829	8.285809	2.807308	0.066143
1828	9.1350e-01	-6.9319	-86.955622	0.000687	6.871159	2.328012	0.054850
1829	9.1400e-01	-6.8982	-86.556346	0.001000	10.003599	3.389311	0.079855
1830	9.1450e-01	-6.8517	-86.157069	0.001000	10.003599	3.389311	0.079855
1831	9.1500e-01	-6.8244	-85.927182	0.000576	5.759648	1.951422	0.045977
1832	9.1550e-01	-6.7747	-85.568236	0.000899	8.993134	3.046956	0.071789
1833	9.1600e-01	-6.7442	-85.261721	0.000768	7.679530	2.601895	0.061303
1834	9.1650e-01	-6.6945	-84.870510	0.000980	9.801506	3.320840	0.078242
1835	9.1700e-01	-6.6511	-84.491399	0.000950	9.498367	3.218134	0.075822
1836	9.1750e-01	-6.6126	-84.217148	0.000687	6.871159	2.328012	0.054850
1837	9.1800e-01	-6.5854	-83.886434	0.000829	8.285809	2.807308	0.066143
1838	9.1850e-01	-6.5308	-83.612184	0.000687	6.871159	2.328012	0.054850
1839	9.1900e-01	-6.5036	-83.249205	0.000909	9.094181	3.081192	0.072596
1840	9.1950e-01	-6.4618	-82.753134	0.001243	12.428714	4.210962	0.099214
1841	9.2000e-01	-6.4250	-82.462751	0.000728	7.275345	2.464953	0.058077
1842	9.2050e-01	-6.3800	-82.357890	0.000263	2.627208	0.890122	0.020972
1843	9.2100e-01	-6.3415	-81.894084	0.001162	11.620342	3.937079	0.092761
1844	9.2150e-01	-6.3030	-81.631932	0.000657	6.568019	2.225305	0.052430
1845	9.2200e-01	-6.2661	-81.208457	0.001061	10.609878	3.594724	0.084695
1846	9.2250e-01	-6.2292	-81.022934	0.000465	4.648137	1.574831	0.037105
1847	9.2300e-01	-6.1811	-80.712386	0.000778	7.780577	2.636131	0.062110
1848	9.2350e-01	-6.1522	-80.345374	0.000920	9.195227	3.115427	0.073402
1849	9.2400e-01	-6.1073	-79.986428	0.000899	8.993134	3.046956	0.071789
1850	9.2450e-01	-6.0608	-79.615383	0.000930	9.296274	3.149663	0.074209
1851	9.2500e-01	-6.0239	-79.329033	0.000717	7.174298	2.430718	0.057270
1852	9.2550e-01	-5.9838	-78.909591	0.001051	10.508831	3.560488	0.083888
1853	9.2600e-01	-5.9437	-78.671638	0.000596	5.961741	2.019892	0.047591
1854	9.2650e-01	-5.9036	-78.207832	0.001162	11.620342	3.937079	0.092761
1855	9.2700e-01	-5.8571	-77.921482	0.000717	7.174298	2.430718	0.057270
1856	9.2750e-01	-5.8137	-77.586734	0.000839	8.386856	2.841544	0.066949
1857	9.2800e-01	-5.7801	-77.397179	0.000475	4.749183	1.609067	0.037911
1858	9.2850e-01	-5.7399	-76.993869	0.001010	10.104645	3.423547	0.080662
1859	9.2900e-01	-5.7014	-76.651055	0.000859	8.588949	2.910015	0.068563
1860	9.2950e-01	-5.6662	-76.179183	0.001182	11.822435	4.005549	0.094375
1861	9.3000e-01	-5.6196	-75.912998	0.000667	6.669066	2.259541	0.053237
1862	9.3050e-01	-5.5859	-75.642781	0.000677	6.770112	2.293776	0.054044
1863	9.3100e-01	-5.5410	-75.154776	0.001223	12.226621	4.142491	0.097601
1864	9.3150e-01	-5.4993	-74.965220	0.000475	4.749183	1.609067	0.037911
1865	9.3200e-01	-5.4608	-74.622407	0.000859	8.588949	2.910015	0.068563
1866	9.3250e-01	-5.4143	-74.215064	0.001021	10.205692	3.457782	0.081469
1867	9.3300e-01	-5.3806	-73.803688	0.001031	10.306738	3.492017	0.082275
1868	9.3350e-01	-5.3437	-73.509272	0.000738	7.376391	2.499189	0.058883
1869	9.3400e-01	-5.3052	-73.222922	0.000717	7.174298	2.430718	0.057270
1870	9.3450e-01	-5.2635	-73.021267	0.000505	5.052323	1.711773	0.040331
1871	9.3500e-01	-5.2234	-72.690553	0.000829	8.285809	2.807308	0.066143
1872	9.3550e-01	-5.1865	-72.186415	0.001263	12.630807	4.279433	0.100827
1873	9.3600e-01	-5.1400	-71.887966	0.000748	7.477438	2.533424	0.059690
1874	9.3650e-01	-5.0983	-71.537086	0.000879	8.791041	2.978485	0.070176
1875	9.3700e-01	-5.0630	-71.238637	0.000748	7.477438	2.533424	0.059690
1876	9.3750e-01	-5.0116	-70.815162	0.001061	10.609878	3.594724	0.084695
1877	9.3800e-01	-4.9811	-70.492514	0.000808	8.083716	2.738837	0.064530
1878	9.3850e-01	-4.9378	-70.157767	0.000839	8.386856	2.841544	0.066949
1879	9.3900e-01	-4.9025	-69.818986	0.000849	8.487902	2.875779	0.067756
1880	9.3950e-01	-4.8592	-69.431809	0.000970	9.700460	3.286605	0.077435
1881	9.4000e-01	-4.8255	-69.012367	0.001051	10.508831	3.560488	0.083888
1882	9.4050e-01	-4.7854	-68.677620	0.000839	8.386856	2.841544	0.066949
1883	9.4100e-01	-4.7389	-68.338839	0.000849	8.487902	2.875779	0.067756
1884	9.4150e-01	-4.6956	-68.040390	0.000748	7.477438	2.533424	0.059690
1885	9.4200e-01	-4.6635	-67.802437	0.000596	5.961741	2.019892	0.047591
1886	9.4250e-01	-4.6250	-67.370896	0.001081	10.811971	3.663195	0.086308
1887	9.4300e-01	-4.5833	-66.874824	0.001243	12.428714	4.210962	0.099214
1888	9.4350e-01	-4.5400	-66.600574	0.000687	6.871159	2.328012	0.054850
1889	9.4400e-01	-4.5015	-66.265827	0.000839	8.386856	2.841544	0.066949
1890	9.4450e-01	-4.4566	-65.955278	0.000778	7.780577	2.636131	0.062110
1891	9.4500e-01	-4.4245	-65.648762	0.000768	7.679530	2.601895	0.061303
1892	9.4550e-01	-4.3747	-65.237386	0.001031	10.306738	3.492017	0.082275
1893	9.4600e-01	-4.3330	-64.938937	0.000748	7.477438	2.533424	0.059690
1894	9.4650e-01	-4.3042	-64.559826	0.000950	9.498367	3.218134	0.075822
1895	9.4700e-01	-4.2560	-64.253310	0.000768	7.679530	2.601895	0.061303
1896	9.4750e-01	-4.2159	-63.825802	0.001071	10.710924	3.628959	0.085502
1897	9.4800e-01	-4.1854	-63.527353	0.000748	7.477438	2.533424	0.059690
1898	9.4850e-01	-4.1421	-63.099844	0.001071	10.710924	3.628959	0.085502
1899	9.4900e-01	-4.1004	-62.793329	0.000768	7.679530	2.601895	0.061303
1900	9.4950e-01	-4.0619	-62.422284	0.000930	9.296274	3.149663	0.074209
1901	9.5000e-01	-4.0202	-61.942345	0.001202	12.024528	4.074020	0.095988
1902	9.5050e-01	-3.9769	-61.660028	0.000707	7.073252	2.396483	0.056463
1903	9.5100e-01	-3.9384	-61.216387	0.001112	11.115110	3.765901	0.088728
1904	9.5150e-01	-3.8951	-61.051030	0.000414	4.142905	1.403654	0.033071
1905	9.5200e-01	-3.8630	-60.748548	0.000758	7.578484	2.567660	0.060496
1906	9.5250e-01	-3.8197	-60.349271	0.001000	10.003599	3.389311	0.079855
1907	9.5300e-01	-3.7828	-59.974193	0.000940	9.397320	3.183898	0.075016
1908	9.5350e-01	-3.7427	-59.587015	0.000970	9.700460	3.286605	0.077435
1909	9.5400e-01	-3.6929	-59.300665	0.000717	7.174298	2.430718	0.057270
1910	9.5450e-01	-3.6528	-58.965918	0.000839	8.386856	2.841544	0.066949
1911	9.5500e-01	-3.6175	-58.643270	0.000808	8.083716	2.738837	0.064530
1912	9.5550e-01	-3.5726	-58.239960	0.001010	10.104645	3.423547	0.080662
1913	9.5600e-01	-3.5454	-57.917312	0.000808	8.083716	2.738837	0.064530
1914	9.5650e-01	-3.5069	-57.534168	0.000960	9.599413	3.252369	0.076629
1915	9.5700e-01	-3.4587	-57.058262	0.001192	11.923482	4.039785	0.095181
1916	9.5750e-01	-3.4138	-56.767879	0.000728	7.275345	2.464953	0.058077
1917	9.5800e-01	-3.3833	-56.384735	0.000960	9.599413	3.252369	0.076629
1918	9.5850e-01	-3.3416	-56.078220	0.000768	7.679530	2.601895	0.061303
1919	9.5900e-01	-3.2999	-55.848333	0.000576	5.759648	1.951422	0.045977
1920	9.5950e-01	-3.2582	-55.271600	0.001445	14.449643	4.895672	0.115347
1921	9.6000e-01	-3.2309	-54.928786	0.000859	8.588949	2.910015	0.068563
1922	9.6050e-01	-3.1844	-54.634370	0.000738	7.376391	2.499189	0.058883
1923	9.6100e-01	-3.1411	-54.243160	0.000980	9.801506	3.320840	0.078242
1924	9.6150e-01	-3.1074	-53.759188	0.001213	12.125574	4.108256	0.096794
1925	9.6200e-01	-3.0625	-53.529301	0.000576	5.759648	1.951422	0.045977
1926	9.6250e-01	-3.0208	-53.226819	0.000758	7.578484	2.567660	0.060496
1927	9.6300e-01	-2.9855	-52.779145	0.001122	11.216156	3.800137	0.089535
1928	9.6350e-01	-2.9341	-52.472629	0.000768	7.679530	2.601895	0.061303
1929	9.6400e-01	-2.8924	-52.105617	0.000920	9.195227	3.115427	0.073402
1930	9.6450e-01	-2.8587	-51.774903	0.000829	8.285809	2.807308	0.066143
1931	9.6500e-01	-2.8170	-51.363527	0.001031	10.306738	3.492017	0.082275
1932	9.6550e-01	-2.7833	-50.984416	0.000950	9.498367	3.218134	0.075822
1933	9.6600e-01	-2.7464	-50.690000	0.000738	7.376391	2.499189	0.058883
1934	9.6650e-01	-2.7063	-50.210061	0.001202	12.024528	4.074020	0.095988
1935	9.6700e-01	-2.6662	-49.798685	0.001031	10.306738	3.492017	0.082275
1936	9.6750e-01	-2.6261	-49.459905	0.000849	8.487902	2.875779	0.067756
1937	9.6800e-01	-2.5876	-49.209853	0.000626	6.264880	2.122599	0.050010
1938	9.6850e-01	-2.5443	-48.919469	0.000728	7.275345	2.464953	0.058077
1939	9.6900e-01	-2.5090	-48.370968	0.001374	13.742318	4.656023	0.109700
1940	9.6950e-01	-2.4513	-47.975724	0.000990	9.902552	3.355076	0.079049
1941	9.7000e-01	-2.4224	-47.806334	0.000424	4.243951	1.437890	0.033878
1942	9.7050e-01	-2.3839	-47.358660	0.001122	11.216156	3.800137	0.089535
1943	9.7100e-01	-2.3342	-46.850490	0.001273	12.731853	4.313669	0.101634
1944	9.7150e-01	-2.3053	-46.519776	0.000829	8.285809	2.807308	0.066143
1945	9.7200e-01	-2.2620	-46.193095	0.000818	8.184763	2.773073	0.065336
1946	9.7250e-01	-2.2219	-45.753487	0.001101	11.014063	3.731666	0.087922
1947	9.7300e-01	-2.1818	-45.378409	0.000940	9.397320	3.183898	0.075016
1948	9.7350e-01	-2.1384	-45.043662	0.000839	8.386856	2.841544	0.066949
1949	9.7400e-01	-2.1015	-44.926702	0.000293	2.930347	0.992828	0.023392
1950	9.7450e-01	-2.0727	-44.438697	0.001223	12.226621	4.142491	0.097601
1951	9.7500e-01	-2.0165	-44.023288	0.001041	10.407785	3.526253	0.083082
1952	9.7550e-01	-1.9796	-43.551415	0.001182	11.822435	4.005549	0.094375
1953	9.7600e-01	-1.9331	-43.131973	0.001051	10.508831	3.560488	0.083888
1954	9.7650e-01	-1.8930	-42.809325	0.000808	8.083716	2.738837	0.064530
1955	9.7700e-01	-1.8625	-42.470545	0.000849	8.487902	2.875779	0.067756
1956	9.7750e-01	-1.8144	-42.091434	0.000950	9.498367	3.218134	0.075822
1957	9.7800e-01	-1.7775	-41.724422	0.000920	9.195227	3.115427	0.073402
1958	9.7850e-01	-1.7406	-41.369509	0.000889	8.892088	3.012721	0.070983
1959	9.7900e-01	-1.7021	-41.091225	0.000697	6.972205	2.362247	0.055657
1960	9.7950e-01	-1.6604	-40.627419	0.001162	11.620342	3.937079	0.092761
1961	9.8000e-01	-1.6171	-40.236208	0.000980	9.801506	3.320840	0.078242
1962	9.8050e-01	-1.5914	-39.861130	0.000940	9.397320	3.183898	0.075016
1963	9.8100e-01	-1.5401	-39.465886	0.000990	9.902552	3.355076	0.079049
1964	9.8150e-01	-1.4967	-39.062577	0.001010	10.104645	3.423547	0.080662
1965	9.8200e-01	-1.4615	-38.743962	0.000798	7.982670	2.704602	0.063723
1966	9.8250e-01	-1.4085	-38.324519	0.001051	10.508831	3.560488	0.083888
1967	9.8300e-01	-1.3796	-38.026070	0.000748	7.477438	2.533424	0.059690
1968	9.8350e-01	-1.3427	-37.642926	0.000960	9.599413	3.252369	0.076629
1969	9.8400e-01	-1.2978	-37.259781	0.000960	9.599413	3.252369	0.076629
1970	9.8450e-01	-1.2577	-36.933100	0.000818	8.184763	2.773073	0.065336
1971	9.8500e-01	-1.2288	-36.356367	0.001445	14.449643	4.895672	0.115347
1972	9.8550e-01	-1.1711	-36.102282	0.000637	6.365927	2.156834	0.050817
1973	9.8600e-01	-1.1454	-35.666707	0.001091	10.913017	3.697430	0.087115
1974	9.8650e-01	-1.1005	-35.323894	0.000859	8.588949	2.910015	0.068563
1975	9.8700e-01	-1.0652	-35.057710	0.000667	6.669066	2.259541	0.053237
1976	9.8750e-01	-1.0251	-34.537440	0.001303	13.034993	4.416375	0.104054
1977	9.8800e-01	-0.9834	-34.138163	0.001000	10.003599	3.389311	0.079855
1978	9.8850e-01	-0.9433	-33.932475	0.000515	5.153369	1.746009	0.041138
1979	9.8900e-01	-0.9032	-33.529165	0.001010	10.104645	3.423547	0.080662
1980	9.8950e-01	-0.8679	-33.125855	0.001010	10.104645	3.423547	0.080662
1981	9.9000e-01	-0.8230	-32.690281	0.001091	10.913017	3.697430	0.087115
1982	9.9050e-01	-0.7748	-32.311169	0.000950	9.498367	3.218134	0.075822
1983	9.9100e-01	-0.7396	-31.944157	0.000920	9.195227	3.115427	0.073402
1984	9.9150e-01	-0.6898	-31.552947	0.000980	9.801506	3.320840	0.078242
1985	9.9200e-01	-0.6577	-31.177869	0.000940	9.397320	3.183898	0.075016
1986	9.9250e-01	-0.6160	-30.831022	0.000869	8.689995	2.944250	0.069369
1987	9.9300e-01	-0.5839	-30.399481	0.001081	10.811971	3.663195	0.086308
1988	9.9350e-01	-0.5358	-29.992138	0.001021	10.205692	3.457782	0.081469
1989	9.9400e-01	-0.4973	-29.633192	0.000899	8.993134	3.046956	0.071789
1990	9.9450e-01	-0.4652	-29.177452	0.001142	11.418249	3.868608	0.091148
1991	9.9500e-01	-0.4251	-28.778175	0.001000	10.003599	3.389311	0.079855
1992	9.9550e-01	-0.3706	-28.511991	0.000667	6.669066	2.259541	0.053237
1993	9.9600e-01	-0.3353	-28.197409	0.000788	7.881623	2.670366	0.062916
1994	9.9650e-01	-0.3032	-27.838463	0.000899	8.993134	3.046956	0.071789
1995	9.9700e-01	-0.2615	-27.354491	0.001213	12.125574	4.108256	0.096794
1996	9.9750e-01	-0.2294	-26.914884	0.001101	11.014063	3.731666	0.087922
1997	9.9800e-01	-0.1733	-26.588203	0.000818	8.184763	2.773073	0.065336
1998	9.9850e-01	-0.1476	-26.188926	0.001000	10.003599	3.389311	0.079855
1999	9.9900e-01	-0.1043	-25.821914	0.000920	9.195227	3.115427	0.073402
2000	9.9950e-01	-0.0545	-25.519431	0.000758	7.578484	2.567660	0.060496
2001	1.0000e+00	-0.0193	-25.099989	0.000758	7.578484	2.567660	0.083888

PMax (uC/cm2):	1.86e+02
Pr (uC/cm2):	1.82e+01
-Pr (uC/cm2):	-9.06e+00
PLoss (uC/cm2):	-9.09e+00
-Vc:	-1.85e+00
C (Max-Eff) (nF):	9.29e-01
K (Eff):	3.15e+03
Vert. (+/-Pr) Shift (uC/cm2):	4.58e+00
Offset (uC/cm2):	1.60e+01

A (Loop Area - uC/cm2·Volts):	-1.92e-01



Hysteresis Version: 5.48.1 - Radiant Technologies, Inc., 1999 - 9/12/24

