»»»»»»»»»»»»»»»»»»»»»»»»»»»»»»»»»»»» Hysteresis ««««««««««««««««««««««««««««««««««««
»»»  Executed Version:	5.48.1
»»»  Vision Version:	5.48.4 (R)
»»»  Vision Compiled:	9/18/24
»»»  Driver Version:	5.47.0
»»»  Windows Version:	Windows 8 or 8.1
»»»  Processor Information:	x86 (AMD or Intel) - 32 Processors
»»»  Tester Name:	PMF21124-494 (100V)
»»»  Tester S/N:	PMF21124-494
»»»  Internal Amp Type:	100V RevK 270k
»»»  Internal Amp S/N:	iAB2-596/K     
»»»  Execution Count:	1
»»»»»»»»»»»»»»»»»»»»»»»»»»»»»»»»»»»»»»»»»»««««««««««««««««««««««««««««««««««««««««««

Stored:	6/18/2025 - 17:5:50
Configured:	06/18/25 09:47:30 AM
Executed:	06/18/25 05:05:14 PM

»»»»»»»»»»»»»»»»»»»»»»»»»»»»»»»»»»» Sample Info ««««««««««««««««««««««««««««««««««««
Sample Name:	
Lot Name:	
Wafer Name:	
Die Row/Column:	0/0
Capacitor Number:	0
Sample Area (cm2):	1.00e-04
Sample Thickness (microns):	3.00e-01

Amplifier:	Internal

»»»»»»»»»»»»»»»»»»»»»»»»»»»»»»»»»»» Tester Info «««««««««««««««««««««««««««««««««««
Tester Name:	PMF21124-494 (100V)
Tester Serial Number:	PMF21124-494
Return Signal Amp. Level:	0.19 [Index: 3]

»»»»»»»»»»»»»»»»»»»»»»»»»»»»»»»» Hysteresis Info ««««««««««««««««««««««««««««««««««
Task Name:	Hyst-554
Volts:	20.00
Field:	666.67 (kV/cm)
DCBias:	0.00
DCField:	0.00 (kV/cm)
Hysteresis Period (ms):	2.00e+02
Preset:	Enabled
Preset Delay (ms):	1.00e+03
Profile:	Standard Bipolar

»»»»»»»»»»»»»»»»»»»»»»»»»»»»»»»»»»»»»» Data «««««««««««««««««««««««««««««««««««««««
Points:	2009

Valid Data

Point	Time (ms)	Drive Voltage	Measured Polarization (uC/cm2)	Capacitance (uF)	Normalized Capacitance (uF/cm2)	Dielectric Constant	Instantaneous Current (mA)
   1	0.0000e+00	0.0032	-21.639048	0.000588	5.878214	1.991593	0.000235
   2	9.9500e-02	0.0401	-21.404894	0.000588	5.878214	1.991593	0.000235
   3	1.9900e-01	0.0770	-21.045589	0.000902	9.020018	3.056065	0.000361
   4	2.9850e-01	0.1107	-20.633801	0.001034	10.337549	3.502456	0.000414
   5	3.9800e-01	0.1604	-20.302756	0.000831	8.310578	2.815700	0.000333
   6	4.9750e-01	0.1973	-19.935376	0.000922	9.222715	3.124740	0.000369
   7	5.9700e-01	0.2326	-19.584145	0.000882	8.817321	2.987389	0.000353
   8	6.9650e-01	0.2759	-19.148135	0.001095	10.945640	3.708483	0.000438
   9	7.9600e-01	0.3000	-18.772681	0.000943	9.425412	3.193416	0.000377
  10	8.9550e-01	0.3497	-18.381079	0.000983	9.830806	3.330767	0.000394
  11	9.9500e-01	0.3930	-18.033885	0.000872	8.715972	2.953051	0.000349
  12	1.0945e+00	0.4331	-17.589800	0.001115	11.148337	3.777159	0.000446
  13	1.1940e+00	0.4749	-17.218384	0.000932	9.324064	3.159078	0.000373
  14	1.2935e+00	0.5118	-16.859079	0.000902	9.020018	3.056065	0.000361
  15	1.3930e+00	0.5567	-16.503811	0.000892	8.918669	3.021727	0.000357
  16	1.4925e+00	0.5984	-16.035503	0.001176	11.756428	3.983186	0.000471
  17	1.5920e+00	0.6321	-15.651975	0.000963	9.628109	3.262092	0.000385
  18	1.6915e+00	0.6818	-15.232113	0.001054	10.540246	3.571132	0.000422
  19	1.7910e+00	0.7139	-14.840511	0.000983	9.830806	3.330767	0.000394
  20	1.8905e+00	0.7524	-14.461020	0.000953	9.526761	3.227754	0.000381
  21	1.9900e+00	0.7941	-14.057307	0.001013	10.134852	3.433781	0.000406
  22	2.0895e+00	0.8390	-13.665704	0.000983	9.830806	3.330767	0.000394
  23	2.1890e+00	0.8647	-13.261991	0.001013	10.134852	3.433781	0.000406
  24	2.2885e+00	0.9096	-12.858277	0.001013	10.134852	3.433781	0.000406
  25	2.3880e+00	0.9529	-12.422267	0.001095	10.945640	3.708483	0.000438
  26	2.4875e+00	0.9882	-12.006442	0.001044	10.438897	3.536794	0.000418
  27	2.5870e+00	1.0411	-11.606765	0.001003	10.033503	3.399443	0.000402
  28	2.6865e+00	1.0764	-11.267646	0.000851	8.513275	2.884376	0.000341
  29	2.7860e+00	1.1069	-10.839709	0.001074	10.742943	3.639808	0.000430
  30	2.8855e+00	1.1583	-10.363327	0.001196	11.959125	4.051861	0.000479
  31	2.9850e+00	1.1984	-9.963651	0.001003	10.033503	3.399443	0.000402
  32	3.0845e+00	1.2304	-9.580123	0.000963	9.628109	3.262092	0.000385
  33	3.1840e+00	1.2738	-9.144112	0.001095	10.945640	3.708483	0.000438
  34	3.2835e+00	1.3058	-8.728287	0.001044	10.438897	3.536794	0.000418
  35	3.3830e+00	1.3492	-8.255943	0.001186	11.857776	4.017523	0.000475
  36	3.4825e+00	1.3941	-7.819932	0.001095	10.945640	3.708483	0.000438
  37	3.5820e+00	1.4406	-7.440441	0.000953	9.526761	3.227754	0.000381
  38	3.6815e+00	1.4679	-7.077099	0.000912	9.121367	3.090403	0.000365
  39	3.7810e+00	1.5128	-6.645125	0.001084	10.844291	3.674145	0.000434
  40	3.8805e+00	1.5545	-6.221226	0.001064	10.641594	3.605470	0.000426
  41	3.9800e+00	1.5898	-5.793290	0.001074	10.742943	3.639808	0.000430
  42	4.0795e+00	1.6331	-5.389576	0.001013	10.134852	3.433781	0.000406
  43	4.1790e+00	1.6700	-4.929343	0.001155	11.553731	3.914510	0.000463
  44	4.2785e+00	1.7085	-4.533703	0.000993	9.932155	3.365105	0.000398
  45	4.3780e+00	1.7502	-4.089619	0.001115	11.148337	3.777159	0.000446
  46	4.4775e+00	1.7791	-3.685905	0.001013	10.134852	3.433781	0.000406
  47	4.5770e+00	1.8304	-3.253931	0.001084	10.844291	3.674145	0.000434
  48	4.6765e+00	1.8673	-2.825995	0.001074	10.742943	3.639808	0.000430
  49	4.7760e+00	1.9122	-2.410170	0.001044	10.438897	3.536794	0.000418
  50	4.8755e+00	1.9459	-1.974159	0.001095	10.945640	3.708483	0.000438
  51	4.9750e+00	1.9844	-1.505852	0.001176	11.756428	3.983186	0.000471
  52	5.0745e+00	2.0310	-1.102138	0.001013	10.134852	3.433781	0.000406
  53	5.1740e+00	2.0743	-0.601533	0.001257	12.567216	4.257888	0.000503
  54	5.2735e+00	2.0935	-0.222042	0.000953	9.526761	3.227754	0.000381
  55	5.3730e+00	2.1545	0.157448	0.000953	9.526761	3.227754	0.000381
  56	5.4725e+00	2.1850	0.633830	0.001196	11.959125	4.051861	0.000479
  57	5.5720e+00	2.2283	1.041581	0.001024	10.236200	3.468119	0.000410
  58	5.6715e+00	2.2668	1.534112	0.001236	12.364519	4.189212	0.000495
  59	5.7710e+00	2.2957	1.913602	0.000953	9.526761	3.227754	0.000381
  60	5.8705e+00	2.3470	2.389984	0.001196	11.959125	4.051861	0.000479
  61	5.9700e+00	2.3823	2.830032	0.001105	11.046988	3.742821	0.000442
  62	6.0695e+00	2.4272	3.249894	0.001054	10.540246	3.571132	0.000422
  63	6.1690e+00	2.4705	3.681868	0.001084	10.844291	3.674145	0.000434
  64	6.2685e+00	2.5138	4.093656	0.001034	10.337549	3.502456	0.000414
  65	6.3680e+00	2.5459	4.541778	0.001125	11.249685	3.811497	0.000450
  66	6.4675e+00	2.5876	5.046420	0.001267	12.668565	4.292226	0.000507
  67	6.5670e+00	2.6261	5.486467	0.001105	11.046988	3.742821	0.000442
  68	6.6665e+00	2.6678	5.934590	0.001125	11.249685	3.811497	0.000450
  69	6.7660e+00	2.7015	6.382712	0.001125	11.249685	3.811497	0.000450
  70	6.8655e+00	2.7529	6.822759	0.001105	11.046988	3.742821	0.000442
  71	6.9650e+00	2.7866	7.238584	0.001044	10.438897	3.536794	0.000418
  72	7.0645e+00	2.8347	7.654409	0.001044	10.438897	3.536794	0.000418
  73	7.1640e+00	2.8684	8.074271	0.001054	10.540246	3.571132	0.000422
  74	7.2635e+00	2.9053	8.546616	0.001186	11.857776	4.017523	0.000475
  75	7.3630e+00	2.9438	8.994738	0.001125	11.249685	3.811497	0.000450
  76	7.4625e+00	2.9839	9.450935	0.001145	11.452382	3.880172	0.000458
  77	7.5620e+00	3.0288	9.858685	0.001024	10.236200	3.468119	0.000410
  78	7.6615e+00	3.0609	10.318919	0.001155	11.553731	3.914510	0.000463
  79	7.7610e+00	3.0946	10.754930	0.001095	10.945640	3.708483	0.000438
  80	7.8605e+00	3.1459	11.199015	0.001115	11.148337	3.777159	0.000446
  81	7.9600e+00	3.1812	11.679434	0.001206	12.060474	4.086199	0.000483
  82	8.0595e+00	3.2277	12.115444	0.001095	10.945640	3.708483	0.000438
  83	8.1590e+00	3.2598	12.567604	0.001135	11.351034	3.845834	0.000454
  84	8.2585e+00	3.3031	13.043986	0.001196	11.959125	4.051861	0.000479
  85	8.3580e+00	3.3432	13.512293	0.001176	11.756428	3.983186	0.000471
  86	8.4575e+00	3.3769	13.952341	0.001105	11.046988	3.742821	0.000442
  87	8.5570e+00	3.4250	14.440835	0.001226	12.263171	4.154875	0.000491
  88	8.6565e+00	3.4764	14.864734	0.001064	10.641594	3.605470	0.000426
  89	8.7560e+00	3.5085	15.353227	0.001226	12.263171	4.154875	0.000491
  90	8.8555e+00	3.5454	15.748867	0.000993	9.932155	3.365105	0.000398
  91	8.9550e+00	3.5790	16.233323	0.001216	12.161822	4.120537	0.000487
  92	9.0545e+00	3.6304	16.669333	0.001095	10.945640	3.708483	0.000438
  93	9.1540e+00	3.6625	17.161864	0.001236	12.364519	4.189212	0.000495
  94	9.2535e+00	3.7074	17.541355	0.000953	9.526761	3.227754	0.000381
  95	9.3530e+00	3.7427	18.054071	0.001287	12.871262	4.360901	0.000515
  96	9.4525e+00	3.7732	18.482007	0.001074	10.742943	3.639808	0.000430
  97	9.5520e+00	3.8213	18.954352	0.001186	11.857776	4.017523	0.000475
  98	9.6515e+00	3.8662	19.418623	0.001166	11.655079	3.948848	0.000467
  99	9.7510e+00	3.8999	19.858671	0.001105	11.046988	3.742821	0.000442
 100	9.8505e+00	3.9336	20.331016	0.001186	11.857776	4.017523	0.000475
 101	9.9500e+00	3.9849	20.767026	0.001095	10.945640	3.708483	0.000438
 102	1.0050e+01	4.0266	21.283780	0.001297	12.972610	4.395239	0.000519
 103	1.0149e+01	4.0555	21.764199	0.001206	12.060474	4.086199	0.000483
 104	1.0248e+01	4.1020	22.212321	0.001125	11.249685	3.811497	0.000450
 105	1.0348e+01	4.1437	22.672554	0.001155	11.553731	3.914510	0.000463
 106	1.0447e+01	4.1758	23.120676	0.001125	11.249685	3.811497	0.000450
 107	1.0547e+01	4.2239	23.568798	0.001125	11.249685	3.811497	0.000450
 108	1.0646e+01	4.2608	24.008846	0.001105	11.046988	3.742821	0.000442
 109	1.0746e+01	4.3009	24.497340	0.001226	12.263171	4.154875	0.000491
 110	1.0845e+01	4.3491	24.929313	0.001084	10.844291	3.674145	0.000434
 111	1.0945e+01	4.3796	25.377435	0.001125	11.249685	3.811497	0.000450
 112	1.1044e+01	4.4116	25.813446	0.001095	10.945640	3.708483	0.000438
 113	1.1144e+01	4.4662	26.314051	0.001257	12.567216	4.257888	0.000503
 114	1.1243e+01	4.4999	26.774284	0.001155	11.553731	3.914510	0.000463
 115	1.1343e+01	4.5352	27.222406	0.001125	11.249685	3.811497	0.000450
 116	1.1443e+01	4.5817	27.714937	0.001236	12.364519	4.189212	0.000495
 117	1.1542e+01	4.6138	28.154985	0.001105	11.046988	3.742821	0.000442
 118	1.1642e+01	4.6603	28.619255	0.001166	11.655079	3.948848	0.000467
 119	1.1741e+01	4.6940	29.087563	0.001176	11.756428	3.983186	0.000471
 120	1.1841e+01	4.7341	29.588168	0.001257	12.567216	4.257888	0.000503
 121	1.1940e+01	4.7870	30.028216	0.001105	11.046988	3.742821	0.000442
 122	1.2040e+01	4.8175	30.540932	0.001287	12.871262	4.360901	0.000515
 123	1.2139e+01	4.8624	31.045574	0.001267	12.668565	4.292226	0.000507
 124	1.2239e+01	4.8993	31.453325	0.001024	10.236200	3.468119	0.000410
 125	1.2338e+01	4.9410	31.877224	0.001064	10.641594	3.605470	0.000426
 126	1.2438e+01	4.9795	32.345532	0.001176	11.756428	3.983186	0.000471
 127	1.2537e+01	5.0132	32.821914	0.001196	11.959125	4.051861	0.000479
 128	1.2636e+01	5.0581	33.290221	0.001176	11.756428	3.983186	0.000471
 129	1.2736e+01	5.0950	33.734306	0.001115	11.148337	3.777159	0.000446
 130	1.2835e+01	5.1287	34.194540	0.001155	11.553731	3.914510	0.000463
 131	1.2935e+01	5.1704	34.687070	0.001236	12.364519	4.189212	0.000495
 132	1.3034e+01	5.2154	35.159415	0.001186	11.857776	4.017523	0.000475
 133	1.3134e+01	5.2635	35.651946	0.001236	12.364519	4.189212	0.000495
 134	1.3233e+01	5.2956	36.083919	0.001084	10.844291	3.674145	0.000434
 135	1.3333e+01	5.3405	36.548190	0.001166	11.655079	3.948848	0.000467
 136	1.3432e+01	5.3694	36.988238	0.001105	11.046988	3.742821	0.000442
 137	1.3532e+01	5.4175	37.472694	0.001216	12.161822	4.120537	0.000487
 138	1.3632e+01	5.4544	37.961187	0.001226	12.263171	4.154875	0.000491
 139	1.3731e+01	5.4945	38.457755	0.001247	12.465868	4.223550	0.000499
 140	1.3831e+01	5.5298	38.934137	0.001196	11.959125	4.051861	0.000479
 141	1.3930e+01	5.5699	39.398408	0.001166	11.655079	3.948848	0.000467
 142	1.4030e+01	5.6228	39.814233	0.001044	10.438897	3.536794	0.000418
 143	1.4129e+01	5.6613	40.278503	0.001166	11.655079	3.948848	0.000467
 144	1.4229e+01	5.7063	40.775071	0.001247	12.465868	4.223550	0.000499
 145	1.4328e+01	5.7351	41.207044	0.001084	10.844291	3.674145	0.000434
 146	1.4428e+01	5.7720	41.699575	0.001236	12.364519	4.189212	0.000495
 147	1.4527e+01	5.8137	42.155771	0.001145	11.452382	3.880172	0.000458
 148	1.4627e+01	5.8506	42.644265	0.001226	12.263171	4.154875	0.000491
 149	1.4726e+01	5.8972	43.100461	0.001145	11.452382	3.880172	0.000458
 150	1.4825e+01	5.9325	43.564732	0.001166	11.655079	3.948848	0.000467
 151	1.4925e+01	5.9774	44.020928	0.001145	11.452382	3.880172	0.000458
 152	1.5024e+01	6.0111	44.489236	0.001176	11.756428	3.983186	0.000471
 153	1.5124e+01	6.0544	44.993878	0.001267	12.668565	4.292226	0.000507
 154	1.5223e+01	6.0849	45.450074	0.001145	11.452382	3.880172	0.000458
 155	1.5323e+01	6.1218	45.938568	0.001226	12.263171	4.154875	0.000491
 156	1.5422e+01	6.1779	46.406875	0.001176	11.756428	3.983186	0.000471
 157	1.5522e+01	6.2100	46.895369	0.001226	12.263171	4.154875	0.000491
 158	1.5621e+01	6.2549	47.367714	0.001186	11.857776	4.017523	0.000475
 159	1.5721e+01	6.2934	47.811799	0.001115	11.148337	3.777159	0.000446
 160	1.5820e+01	6.3367	48.276069	0.001166	11.655079	3.948848	0.000467
 161	1.5920e+01	6.3720	48.740340	0.001166	11.655079	3.948848	0.000467
 162	1.6020e+01	6.4169	49.196536	0.001145	11.452382	3.880172	0.000458
 163	1.6119e+01	6.4538	49.660807	0.001166	11.655079	3.948848	0.000467
 164	1.6218e+01	6.4955	50.088743	0.001074	10.742943	3.639808	0.000430
 165	1.6318e+01	6.5308	50.540902	0.001135	11.351034	3.845834	0.000454
 166	1.6418e+01	6.5677	51.029396	0.001226	12.263171	4.154875	0.000491
 167	1.6517e+01	6.6143	51.509815	0.001206	12.060474	4.086199	0.000483
 168	1.6616e+01	6.6544	51.949863	0.001105	11.046988	3.742821	0.000442
 169	1.6716e+01	6.6800	52.430282	0.001206	12.060474	4.086199	0.000483
 170	1.6816e+01	6.7410	52.910701	0.001206	12.060474	4.086199	0.000483
 171	1.6915e+01	6.7667	53.366897	0.001145	11.452382	3.880172	0.000458
 172	1.7015e+01	6.8036	53.855391	0.001226	12.263171	4.154875	0.000491
 173	1.7114e+01	6.8501	54.343884	0.001226	12.263171	4.154875	0.000491
 174	1.7213e+01	6.8934	54.775858	0.001084	10.844291	3.674145	0.000434
 175	1.7313e+01	6.9223	55.308760	0.001338	13.378004	4.532591	0.000536
 176	1.7413e+01	6.9704	55.744770	0.001095	10.945640	3.708483	0.000438
 177	1.7512e+01	7.0153	56.148484	0.001013	10.134852	3.433781	0.000406
 178	1.7611e+01	7.0522	56.624866	0.001196	11.959125	4.051861	0.000479
 179	1.7711e+01	7.0939	57.093174	0.001176	11.756428	3.983186	0.000471
 180	1.7811e+01	7.1324	57.577630	0.001216	12.161822	4.120537	0.000487
 181	1.7910e+01	7.1661	58.029789	0.001135	11.351034	3.845834	0.000454
 182	1.8009e+01	7.2046	58.490023	0.001155	11.553731	3.914510	0.000463
 183	1.8109e+01	7.2383	58.982553	0.001236	12.364519	4.189212	0.000495
 184	1.8209e+01	7.2848	59.438749	0.001145	11.452382	3.880172	0.000458
 185	1.8308e+01	7.3265	59.907057	0.001176	11.756428	3.983186	0.000471
 186	1.8407e+01	7.3731	60.347105	0.001105	11.046988	3.742821	0.000442
 187	1.8507e+01	7.4019	60.847710	0.001257	12.567216	4.257888	0.000503
 188	1.8607e+01	7.4436	61.303906	0.001145	11.452382	3.880172	0.000458
 189	1.8706e+01	7.4837	61.824697	0.001307	13.073959	4.429577	0.000523
 190	1.8805e+01	7.5271	62.276856	0.001135	11.351034	3.845834	0.000454
 191	1.8905e+01	7.5656	62.773424	0.001247	12.465868	4.223550	0.000499
 192	1.9005e+01	7.6041	63.209434	0.001095	10.945640	3.708483	0.000438
 193	1.9104e+01	7.6458	63.710039	0.001257	12.567216	4.257888	0.000503
 194	1.9203e+01	7.6859	64.109716	0.001003	10.033503	3.399443	0.000402
 195	1.9303e+01	7.7292	64.549763	0.001105	11.046988	3.742821	0.000442
 196	1.9402e+01	7.7645	65.014034	0.001166	11.655079	3.948848	0.000467
 197	1.9502e+01	7.8030	65.510602	0.001247	12.465868	4.223550	0.000499
 198	1.9602e+01	7.8431	65.991021	0.001206	12.060474	4.086199	0.000483
 199	1.9701e+01	7.8864	66.422994	0.001084	10.844291	3.674145	0.000434
 200	1.9800e+01	7.9169	66.923599	0.001257	12.567216	4.257888	0.000503
 201	1.9900e+01	7.9698	67.371721	0.001125	11.249685	3.811497	0.000450
 202	2.0000e+01	8.0035	67.880400	0.001277	12.769913	4.326564	0.000511
 203	2.0099e+01	8.0532	68.304300	0.001064	10.641594	3.605470	0.000426
 204	2.0198e+01	8.0709	68.768570	0.001166	11.655079	3.948848	0.000467
 205	2.0298e+01	8.1238	69.236878	0.001176	11.756428	3.983186	0.000471
 206	2.0398e+01	8.1543	69.689037	0.001135	11.351034	3.845834	0.000454
 207	2.0497e+01	8.2089	70.177531	0.001226	12.263171	4.154875	0.000491
 208	2.0596e+01	8.2377	70.621615	0.001115	11.148337	3.777159	0.000446
 209	2.0696e+01	8.2907	71.130295	0.001277	12.769913	4.326564	0.000511
 210	2.0796e+01	8.3260	71.626862	0.001247	12.465868	4.223550	0.000499
 211	2.0895e+01	8.3677	72.062873	0.001095	10.945640	3.708483	0.000438
 212	2.0994e+01	8.3950	72.506958	0.001115	11.148337	3.777159	0.000446
 213	2.1094e+01	8.4415	72.955080	0.001125	11.249685	3.811497	0.000450
 214	2.1194e+01	8.4800	73.431462	0.001196	11.959125	4.051861	0.000479
 215	2.1293e+01	8.5233	73.867473	0.001095	10.945640	3.708483	0.000438
 216	2.1392e+01	8.5650	74.380189	0.001287	12.871262	4.360901	0.000515
 217	2.1492e+01	8.5971	74.796014	0.001044	10.438897	3.536794	0.000418
 218	2.1591e+01	8.6452	75.288544	0.001236	12.364519	4.189212	0.000495
 219	2.1691e+01	8.6805	75.764926	0.001196	11.959125	4.051861	0.000479
 220	2.1791e+01	8.7206	76.196900	0.001084	10.844291	3.674145	0.000434
 221	2.1890e+01	8.7559	76.697505	0.001257	12.567216	4.257888	0.000503
 222	2.1989e+01	8.8024	77.149664	0.001135	11.351034	3.845834	0.000454
 223	2.2089e+01	8.8393	77.601823	0.001135	11.351034	3.845834	0.000454
 224	2.2189e+01	8.8874	78.106465	0.001267	12.668565	4.292226	0.000507
 225	2.2288e+01	8.9179	78.522290	0.001044	10.438897	3.536794	0.000418
 226	2.2387e+01	8.9580	79.022895	0.001257	12.567216	4.257888	0.000503
 227	2.2487e+01	8.9997	79.535611	0.001287	12.871262	4.360901	0.000515
 228	2.2587e+01	9.0399	79.999882	0.001166	11.655079	3.948848	0.000467
 229	2.2686e+01	9.0912	80.387447	0.000973	9.729458	3.296429	0.000390
 230	2.2785e+01	9.1233	80.815383	0.001074	10.742943	3.639808	0.000430
 231	2.2885e+01	9.1602	81.299839	0.001216	12.161822	4.120537	0.000487
 232	2.2985e+01	9.2067	81.760073	0.001155	11.553731	3.914510	0.000463
 233	2.3084e+01	9.2356	82.236455	0.001196	11.959125	4.051861	0.000479
 234	2.3183e+01	9.2837	82.692651	0.001145	11.452382	3.880172	0.000458
 235	2.3283e+01	9.3206	83.136736	0.001115	11.148337	3.777159	0.000446
 236	2.3383e+01	9.3607	83.601007	0.001166	11.655079	3.948848	0.000467
 237	2.3482e+01	9.4056	84.085463	0.001216	12.161822	4.120537	0.000487
 238	2.3581e+01	9.4441	84.582031	0.001247	12.465868	4.223550	0.000499
 239	2.3681e+01	9.4698	85.001893	0.001054	10.540246	3.571132	0.000422
 240	2.3780e+01	9.5211	85.437904	0.001095	10.945640	3.708483	0.000438
 241	2.3880e+01	9.5580	85.942546	0.001267	12.668565	4.292226	0.000507
 242	2.3980e+01	9.5821	86.386631	0.001115	11.148337	3.777159	0.000446
 243	2.4079e+01	9.6398	86.838790	0.001135	11.351034	3.845834	0.000454
 244	2.4178e+01	9.6799	87.294986	0.001145	11.452382	3.880172	0.000458
 245	2.4278e+01	9.7088	87.807702	0.001287	12.871262	4.360901	0.000515
 246	2.4378e+01	9.7569	88.276010	0.001176	11.756428	3.983186	0.000471
 247	2.4477e+01	9.8083	88.707984	0.001084	10.844291	3.674145	0.000434
 248	2.4576e+01	9.8388	89.127846	0.001054	10.540246	3.571132	0.000422
 249	2.4676e+01	9.8853	89.628451	0.001257	12.567216	4.257888	0.000503
 250	2.4776e+01	9.9206	90.060424	0.001084	10.844291	3.674145	0.000434
 251	2.4875e+01	9.9623	90.536806	0.001196	11.959125	4.051861	0.000479
 252	2.4974e+01	9.9976	90.960705	0.001064	10.641594	3.605470	0.000426
 253	2.5074e+01	10.0393	91.424976	0.001166	11.655079	3.948848	0.000467
 254	2.5174e+01	10.0714	91.901358	0.001196	11.959125	4.051861	0.000479
 255	2.5273e+01	10.1227	92.369666	0.001176	11.756428	3.983186	0.000471
 256	2.5372e+01	10.1580	92.821825	0.001135	11.351034	3.845834	0.000454
 257	2.5472e+01	10.2029	93.265910	0.001115	11.148337	3.777159	0.000446
 258	2.5572e+01	10.2286	93.734218	0.001176	11.756428	3.983186	0.000471
 259	2.5671e+01	10.2783	94.214637	0.001206	12.060474	4.086199	0.000483
 260	2.5770e+01	10.3104	94.695056	0.001206	12.060474	4.086199	0.000483
 261	2.5870e+01	10.3585	95.090695	0.000993	9.932155	3.365105	0.000398
 262	2.5970e+01	10.3970	95.607449	0.001297	12.972610	4.395239	0.000519
 263	2.6069e+01	10.4275	96.059608	0.001135	11.351034	3.845834	0.000454
 264	2.6169e+01	10.4740	96.552138	0.001236	12.364519	4.189212	0.000495
 265	2.6268e+01	10.5238	96.967963	0.001044	10.438897	3.536794	0.000418
 266	2.6367e+01	10.5559	97.391863	0.001064	10.641594	3.605470	0.000426
 267	2.6467e+01	10.6024	97.884393	0.001236	12.364519	4.189212	0.000495
 268	2.6567e+01	10.6393	98.348664	0.001166	11.655079	3.948848	0.000467
 269	2.6666e+01	10.6826	98.796786	0.001125	11.249685	3.811497	0.000450
 270	2.6765e+01	10.7115	99.220685	0.001064	10.641594	3.605470	0.000426
 271	2.6865e+01	10.7484	99.721290	0.001257	12.567216	4.257888	0.000503
 272	2.6965e+01	10.7981	100.169412	0.001125	11.249685	3.811497	0.000450
 273	2.7064e+01	10.8398	100.605423	0.001095	10.945640	3.708483	0.000438
 274	2.7163e+01	10.8815	101.081805	0.001196	11.959125	4.051861	0.000479
 275	2.7263e+01	10.9184	101.574335	0.001236	12.364519	4.189212	0.000495
 276	2.7363e+01	10.9457	102.006309	0.001084	10.844291	3.674145	0.000434
 277	2.7462e+01	10.9954	102.466542	0.001155	11.553731	3.914510	0.000463
 278	2.7561e+01	11.0355	102.898516	0.001084	10.844291	3.674145	0.000434
 279	2.7661e+01	11.0724	103.342601	0.001115	11.148337	3.777159	0.000446
 280	2.7761e+01	11.1093	103.831094	0.001226	12.263171	4.154875	0.000491
 281	2.7860e+01	11.1590	104.287290	0.001145	11.452382	3.880172	0.000458
 282	2.7959e+01	11.1911	104.763672	0.001196	11.959125	4.051861	0.000479
 283	2.8059e+01	11.2344	105.179497	0.001044	10.438897	3.536794	0.000418
 284	2.8159e+01	11.2681	105.635694	0.001145	11.452382	3.880172	0.000458
 285	2.8258e+01	11.3163	106.116113	0.001206	12.060474	4.086199	0.000483
 286	2.8358e+01	11.3499	106.556161	0.001105	11.046988	3.742821	0.000442
 287	2.8457e+01	11.3901	107.012357	0.001145	11.452382	3.880172	0.000458
 288	2.8556e+01	11.4253	107.448368	0.001095	10.945640	3.708483	0.000438
 289	2.8656e+01	11.4735	107.920713	0.001186	11.857776	4.017523	0.000475
 290	2.8756e+01	11.5120	108.393057	0.001186	11.857776	4.017523	0.000475
 291	2.8855e+01	11.5521	108.837142	0.001115	11.148337	3.777159	0.000446
 292	2.8954e+01	11.5890	109.285264	0.001125	11.249685	3.811497	0.000450
 293	2.9054e+01	11.6307	109.745498	0.001155	11.553731	3.914510	0.000463
 294	2.9154e+01	11.6756	110.217843	0.001186	11.857776	4.017523	0.000475
 295	2.9253e+01	11.7141	110.653853	0.001095	10.945640	3.708483	0.000438
 296	2.9352e+01	11.7510	111.106013	0.001135	11.351034	3.845834	0.000454
 297	2.9452e+01	11.7927	111.558172	0.001135	11.351034	3.845834	0.000454
 298	2.9552e+01	11.8296	111.998220	0.001105	11.046988	3.742821	0.000442
 299	2.9651e+01	11.8793	112.510936	0.001287	12.871262	4.360901	0.000515
 300	2.9750e+01	11.9130	112.926761	0.001044	10.438897	3.536794	0.000418
 301	2.9850e+01	11.9467	113.362772	0.001095	10.945640	3.708483	0.000438
 302	2.9950e+01	11.9868	113.798782	0.001095	10.945640	3.708483	0.000438
 303	3.0049e+01	12.0285	114.275164	0.001196	11.959125	4.051861	0.000479
 304	3.0148e+01	12.0735	114.763658	0.001226	12.263171	4.154875	0.000491
 305	3.0248e+01	12.1039	115.187557	0.001064	10.641594	3.605470	0.000426
 306	3.0348e+01	12.1537	115.631642	0.001115	11.148337	3.777159	0.000446
 307	3.0447e+01	12.1858	116.087838	0.001145	11.452382	3.880172	0.000458
 308	3.0547e+01	12.2323	116.527886	0.001105	11.046988	3.742821	0.000442
 309	3.0646e+01	12.2660	116.992157	0.001166	11.655079	3.948848	0.000467
 310	3.0745e+01	12.3093	117.452390	0.001155	11.553731	3.914510	0.000463
 311	3.0845e+01	12.3558	117.936846	0.001216	12.161822	4.120537	0.000487
 312	3.0945e+01	12.3895	118.372857	0.001095	10.945640	3.708483	0.000438
 313	3.1044e+01	12.4248	118.804830	0.001084	10.844291	3.674145	0.000434
 314	3.1143e+01	12.4633	119.261027	0.001145	11.452382	3.880172	0.000458
 315	3.1243e+01	12.5066	119.753557	0.001236	12.364519	4.189212	0.000495
 316	3.1343e+01	12.5371	120.254162	0.001257	12.567216	4.257888	0.000503
 317	3.1442e+01	12.5900	120.694210	0.001105	11.046988	3.742821	0.000442
 318	3.1541e+01	12.6269	121.118109	0.001064	10.641594	3.605470	0.000426
 319	3.1641e+01	12.6638	121.570268	0.001135	11.351034	3.845834	0.000454
 320	3.1741e+01	12.7071	122.046650	0.001196	11.959125	4.051861	0.000479
 321	3.1840e+01	12.7537	122.474587	0.001074	10.742943	3.639808	0.000430
 322	3.1939e+01	12.7889	122.922709	0.001125	11.249685	3.811497	0.000450
 323	3.2039e+01	12.8355	123.338534	0.001044	10.438897	3.536794	0.000418
 324	3.2139e+01	12.8643	123.814916	0.001196	11.959125	4.051861	0.000479
 325	3.2238e+01	12.9044	124.271112	0.001145	11.452382	3.880172	0.000458
 326	3.2337e+01	12.9413	124.731346	0.001155	11.553731	3.914510	0.000463
 327	3.2437e+01	12.9766	125.155245	0.001064	10.641594	3.605470	0.000426
 328	3.2536e+01	13.0167	125.655850	0.001257	12.567216	4.257888	0.000503
 329	3.2636e+01	13.0649	126.079749	0.001064	10.641594	3.605470	0.000426
 330	3.2736e+01	13.1050	126.572280	0.001236	12.364519	4.189212	0.000495
 331	3.2835e+01	13.1387	127.000216	0.001074	10.742943	3.639808	0.000430
 332	3.2934e+01	13.1884	127.448338	0.001125	11.249685	3.811497	0.000450
 333	3.3034e+01	13.2269	127.912609	0.001166	11.655079	3.948848	0.000467
 334	3.3133e+01	13.2654	128.344582	0.001084	10.844291	3.674145	0.000434
 335	3.3233e+01	13.3023	128.812890	0.001176	11.756428	3.983186	0.000471
 336	3.3333e+01	13.3328	129.220641	0.001024	10.236200	3.468119	0.000410
 337	3.3432e+01	13.3825	129.684911	0.001166	11.655079	3.948848	0.000467
 338	3.3532e+01	13.4226	130.149182	0.001166	11.655079	3.948848	0.000467
 339	3.3631e+01	13.4643	130.613453	0.001166	11.655079	3.948848	0.000467
 340	3.3730e+01	13.4980	131.009092	0.000993	9.932155	3.365105	0.000398
 341	3.3830e+01	13.5349	131.493548	0.001216	12.161822	4.120537	0.000487
 342	3.3929e+01	13.5782	131.961856	0.001176	11.756428	3.983186	0.000471
 343	3.4029e+01	13.6199	132.405941	0.001115	11.148337	3.777159	0.000446
 344	3.4129e+01	13.6616	132.858100	0.001135	11.351034	3.845834	0.000454
 345	3.4228e+01	13.6937	133.286036	0.001074	10.742943	3.639808	0.000430
 346	3.4328e+01	13.7386	133.730121	0.001115	11.148337	3.777159	0.000446
 347	3.4427e+01	13.7772	134.258986	0.001328	13.276656	4.498253	0.000532
 348	3.4526e+01	13.8237	134.678848	0.001054	10.540246	3.571132	0.000422
 349	3.4626e+01	13.8638	135.135045	0.001145	11.452382	3.880172	0.000458
 350	3.4725e+01	13.8959	135.579129	0.001115	11.148337	3.777159	0.000446
 351	3.4825e+01	13.9424	136.055512	0.001196	11.959125	4.051861	0.000479
 352	3.4925e+01	13.9825	136.515745	0.001155	11.553731	3.914510	0.000463
 353	3.5024e+01	14.0178	136.947719	0.001084	10.844291	3.674145	0.000434
 354	3.5123e+01	14.0675	137.363543	0.001044	10.438897	3.536794	0.000418
 355	3.5223e+01	14.0964	137.827814	0.001166	11.655079	3.948848	0.000467
 356	3.5322e+01	14.1333	138.284010	0.001145	11.452382	3.880172	0.000458
 357	3.5422e+01	14.1750	138.744244	0.001155	11.553731	3.914510	0.000463
 358	3.5522e+01	14.2167	139.188329	0.001115	11.148337	3.777159	0.000446
 359	3.5621e+01	14.2632	139.636451	0.001125	11.249685	3.811497	0.000450
 360	3.5721e+01	14.2969	140.108796	0.001186	11.857776	4.017523	0.000475
 361	3.5820e+01	14.3418	140.540769	0.001084	10.844291	3.674145	0.000434
 362	3.5919e+01	14.3868	140.988891	0.001125	11.249685	3.811497	0.000450
 363	3.6019e+01	14.4156	141.432976	0.001115	11.148337	3.777159	0.000446
 364	3.6118e+01	14.4638	141.917433	0.001216	12.161822	4.120537	0.000487
 365	3.6218e+01	14.4991	142.381703	0.001166	11.655079	3.948848	0.000467
 366	3.6318e+01	14.5376	142.825788	0.001115	11.148337	3.777159	0.000446
 367	3.6417e+01	14.5648	143.249687	0.001064	10.641594	3.605470	0.000426
 368	3.6517e+01	14.6258	143.734144	0.001216	12.161822	4.120537	0.000487
 369	3.6616e+01	14.6563	144.117672	0.000963	9.628109	3.262092	0.000385
 370	3.6715e+01	14.7028	144.598091	0.001206	12.060474	4.086199	0.000483
 371	3.6815e+01	14.7269	145.009879	0.001034	10.337549	3.502456	0.000414
 372	3.6914e+01	14.7718	145.466075	0.001145	11.452382	3.880172	0.000458
 373	3.7014e+01	14.8103	145.926308	0.001155	11.553731	3.914510	0.000463
 374	3.7114e+01	14.8664	146.378468	0.001135	11.351034	3.845834	0.000454
 375	3.7213e+01	14.8969	146.842738	0.001166	11.655079	3.948848	0.000467
 376	3.7313e+01	14.9386	147.315083	0.001186	11.857776	4.017523	0.000475
 377	3.7412e+01	14.9723	147.763205	0.001125	11.249685	3.811497	0.000450
 378	3.7511e+01	15.0092	148.211327	0.001125	11.249685	3.811497	0.000450
 379	3.7611e+01	15.0509	148.611004	0.001003	10.033503	3.399443	0.000402
 380	3.7711e+01	15.0878	149.095460	0.001216	12.161822	4.120537	0.000487
 381	3.7810e+01	15.1343	149.559731	0.001166	11.655079	3.948848	0.000467
 382	3.7910e+01	15.1680	150.011890	0.001135	11.351034	3.845834	0.000454
 383	3.8009e+01	15.2097	150.431752	0.001054	10.540246	3.571132	0.000422
 384	3.8108e+01	15.2627	150.891985	0.001155	11.553731	3.914510	0.000463
 385	3.8208e+01	15.2883	151.299736	0.001024	10.236200	3.468119	0.000410
 386	3.8307e+01	15.3333	151.780155	0.001206	12.060474	4.086199	0.000483
 387	3.8407e+01	15.3669	152.252500	0.001186	11.857776	4.017523	0.000475
 388	3.8507e+01	15.4199	152.720808	0.001176	11.756428	3.983186	0.000471
 389	3.8606e+01	15.4536	153.112410	0.000983	9.830806	3.330767	0.000394
 390	3.8706e+01	15.4969	153.528235	0.001044	10.438897	3.536794	0.000418
 391	3.8805e+01	15.5386	154.024803	0.001247	12.465868	4.223550	0.000499
 392	3.8904e+01	15.5803	154.448702	0.001064	10.641594	3.605470	0.000426
 393	3.9004e+01	15.6076	154.912973	0.001166	11.655079	3.948848	0.000467
 394	3.9103e+01	15.6557	155.361095	0.001125	11.249685	3.811497	0.000450
 395	3.9203e+01	15.6990	155.789031	0.001074	10.742943	3.639808	0.000430
 396	3.9303e+01	15.7279	156.249264	0.001155	11.553731	3.914510	0.000463
 397	3.9402e+01	15.7792	156.685275	0.001095	10.945640	3.708483	0.000438
 398	3.9502e+01	15.8081	157.153583	0.001176	11.756428	3.983186	0.000471
 399	3.9601e+01	15.8498	157.601705	0.001125	11.249685	3.811497	0.000450
 400	3.9700e+01	15.8915	158.017530	0.001044	10.438897	3.536794	0.000418
 401	3.9800e+01	15.9461	158.465652	0.001125	11.249685	3.811497	0.000450
 402	3.9900e+01	15.9717	158.881477	0.001044	10.438897	3.536794	0.000418
 403	3.9999e+01	16.0151	159.297302	0.001044	10.438897	3.536794	0.000418
 404	4.0099e+01	16.0552	159.761573	0.001166	11.655079	3.948848	0.000467
 405	4.0198e+01	16.0985	160.250066	0.001226	12.263171	4.154875	0.000491
 406	4.0297e+01	16.1338	160.669928	0.001054	10.540246	3.571132	0.000422
 407	4.0397e+01	16.1723	161.130162	0.001155	11.553731	3.914510	0.000463
 408	4.0496e+01	16.2108	161.537912	0.001024	10.236200	3.468119	0.000410
 409	4.0596e+01	16.2509	161.965849	0.001074	10.742943	3.639808	0.000430
 410	4.0696e+01	16.2942	162.401859	0.001095	10.945640	3.708483	0.000438
 411	4.0795e+01	16.3295	162.882278	0.001206	12.060474	4.086199	0.000483
 412	4.0895e+01	16.3664	163.314252	0.001084	10.844291	3.674145	0.000434
 413	4.0994e+01	16.4065	163.778523	0.001166	11.655079	3.948848	0.000467
 414	4.1093e+01	16.4386	164.222608	0.001115	11.148337	3.777159	0.000446
 415	4.1193e+01	16.4819	164.662655	0.001105	11.046988	3.742821	0.000442
 416	4.1292e+01	16.5284	165.110777	0.001125	11.249685	3.811497	0.000450
 417	4.1392e+01	16.5733	165.526602	0.001044	10.438897	3.536794	0.000418
 418	4.1492e+01	16.6086	166.027207	0.001257	12.567216	4.257888	0.000503
 419	4.1591e+01	16.6519	166.414772	0.000973	9.729458	3.296429	0.000390
 420	4.1691e+01	16.6888	166.866931	0.001135	11.351034	3.845834	0.000454
 421	4.1790e+01	16.7257	167.238348	0.000932	9.324064	3.159078	0.000373
 422	4.1889e+01	16.7690	167.742990	0.001267	12.668565	4.292226	0.000507
 423	4.1989e+01	16.8027	168.158815	0.001044	10.438897	3.536794	0.000418
 424	4.2089e+01	16.8477	168.639234	0.001206	12.060474	4.086199	0.000483
 425	4.2188e+01	16.8846	169.095430	0.001145	11.452382	3.880172	0.000458
 426	4.2288e+01	16.9375	169.527404	0.001084	10.844291	3.674145	0.000434
 427	4.2387e+01	16.9664	169.967452	0.001105	11.046988	3.742821	0.000442
 428	4.2486e+01	17.0017	170.395388	0.001074	10.742943	3.639808	0.000430
 429	4.2586e+01	17.0466	170.867733	0.001186	11.857776	4.017523	0.000475
 430	4.2685e+01	17.0883	171.291632	0.001064	10.641594	3.605470	0.000426
 431	4.2785e+01	17.1284	171.723606	0.001084	10.844291	3.674145	0.000434
 432	4.2885e+01	17.1669	172.175765	0.001135	11.351034	3.845834	0.000454
 433	4.2984e+01	17.2054	172.583516	0.001024	10.236200	3.468119	0.000410
 434	4.3084e+01	17.2423	173.059898	0.001196	11.959125	4.051861	0.000479
 435	4.3183e+01	17.2904	173.479760	0.001054	10.540246	3.571132	0.000422
 436	4.3282e+01	17.3305	173.935956	0.001145	11.452382	3.880172	0.000458
 437	4.3382e+01	17.3594	174.359855	0.001064	10.641594	3.605470	0.000426
 438	4.3481e+01	17.4139	174.787792	0.001074	10.742943	3.639808	0.000430
 439	4.3581e+01	17.4444	175.231877	0.001115	11.148337	3.777159	0.000446
 440	4.3681e+01	17.4845	175.667887	0.001095	10.945640	3.708483	0.000438
 441	4.3780e+01	17.5214	176.107935	0.001105	11.046988	3.742821	0.000442
 442	4.3880e+01	17.5647	176.556057	0.001125	11.249685	3.811497	0.000450
 443	4.3979e+01	17.6081	176.988031	0.001084	10.844291	3.674145	0.000434
 444	4.4078e+01	17.6450	177.415967	0.001074	10.742943	3.639808	0.000430
 445	4.4178e+01	17.6931	177.856015	0.001105	11.046988	3.742821	0.000442
 446	4.4278e+01	17.7236	178.255691	0.001003	10.033503	3.399443	0.000402
 447	4.4377e+01	17.7669	178.687665	0.001084	10.844291	3.674145	0.000434
 448	4.4477e+01	17.8038	179.160010	0.001186	11.857776	4.017523	0.000475
 449	4.4576e+01	17.8503	179.583909	0.001064	10.641594	3.605470	0.000426
 450	4.4675e+01	17.8856	180.023957	0.001105	11.046988	3.742821	0.000442
 451	4.4775e+01	17.9225	180.496302	0.001186	11.857776	4.017523	0.000475
 452	4.4874e+01	17.9626	180.879830	0.000963	9.628109	3.262092	0.000385
 453	4.4974e+01	18.0155	181.356212	0.001196	11.959125	4.051861	0.000479
 454	4.5074e+01	18.0444	181.780111	0.001064	10.641594	3.605470	0.000426
 455	4.5173e+01	18.0813	182.236307	0.001145	11.452382	3.880172	0.000458
 456	4.5273e+01	18.1278	182.652132	0.001044	10.438897	3.536794	0.000418
 457	4.5372e+01	18.1727	183.108329	0.001145	11.452382	3.880172	0.000458
 458	4.5471e+01	18.2064	183.479745	0.000932	9.324064	3.159078	0.000373
 459	4.5571e+01	18.2337	183.944016	0.001166	11.655079	3.948848	0.000467
 460	4.5670e+01	18.2770	184.363878	0.001054	10.540246	3.571132	0.000422
 461	4.5770e+01	18.3284	184.836223	0.001186	11.857776	4.017523	0.000475
 462	4.5870e+01	18.3717	185.223788	0.000973	9.729458	3.296429	0.000390
 463	4.5969e+01	18.4022	185.696133	0.001186	11.857776	4.017523	0.000475
 464	4.6069e+01	18.4423	186.140217	0.001115	11.148337	3.777159	0.000446
 465	4.6168e+01	18.4904	186.572191	0.001084	10.844291	3.674145	0.000434
 466	4.6267e+01	18.5225	187.020313	0.001125	11.249685	3.811497	0.000450
 467	4.6367e+01	18.5513	187.415952	0.000993	9.932155	3.365105	0.000398
 468	4.6467e+01	18.5979	187.847926	0.001084	10.844291	3.674145	0.000434
 469	4.6566e+01	18.6412	188.279899	0.001084	10.844291	3.674145	0.000434
 470	4.6666e+01	18.6861	188.744170	0.001166	11.655079	3.948848	0.000467
 471	4.6765e+01	18.7182	189.188255	0.001115	11.148337	3.777159	0.000446
 472	4.6864e+01	18.7663	189.591969	0.001013	10.134852	3.433781	0.000406
 473	4.6964e+01	18.7984	190.092573	0.001257	12.567216	4.257888	0.000503
 474	4.7063e+01	18.8497	190.500324	0.001024	10.236200	3.468119	0.000410
 475	4.7163e+01	18.8818	190.920186	0.001054	10.540246	3.571132	0.000422
 476	4.7263e+01	18.9187	191.331974	0.001034	10.337549	3.502456	0.000414
 477	4.7362e+01	18.9524	191.751836	0.001054	10.540246	3.571132	0.000422
 478	4.7462e+01	19.0053	192.171698	0.001054	10.540246	3.571132	0.000422
 479	4.7561e+01	19.0390	192.631932	0.001155	11.553731	3.914510	0.000463
 480	4.7660e+01	19.0727	193.055831	0.001064	10.641594	3.605470	0.000426
 481	4.7760e+01	19.1160	193.487805	0.001084	10.844291	3.674145	0.000434
 482	4.7859e+01	19.1610	193.923815	0.001095	10.945640	3.708483	0.000438
 483	4.7959e+01	19.2059	194.380012	0.001145	11.452382	3.880172	0.000458
 484	4.8059e+01	19.2364	194.799874	0.001054	10.540246	3.571132	0.000422
 485	4.8158e+01	19.2797	195.264144	0.001166	11.655079	3.948848	0.000467
 486	4.8258e+01	19.3134	195.659784	0.000993	9.932155	3.365105	0.000398
 487	4.8357e+01	19.3663	196.111943	0.001135	11.351034	3.845834	0.000454
 488	4.8456e+01	19.4000	196.572176	0.001155	11.553731	3.914510	0.000463
 489	4.8556e+01	19.4353	197.008187	0.001095	10.945640	3.708483	0.000438
 490	4.8656e+01	19.4722	197.436123	0.001074	10.742943	3.639808	0.000430
 491	4.8755e+01	19.5267	197.928654	0.001236	12.364519	4.189212	0.000495
 492	4.8855e+01	19.5652	198.324293	0.000993	9.932155	3.365105	0.000398
 493	4.8954e+01	19.5941	198.760304	0.001095	10.945640	3.708483	0.000438
 494	4.9053e+01	19.6326	199.139795	0.000953	9.526761	3.227754	0.000381
 495	4.9153e+01	19.6775	199.579842	0.001105	11.046988	3.742821	0.000442
 496	4.9252e+01	19.7128	199.991630	0.001034	10.337549	3.502456	0.000414
 497	4.9352e+01	19.7593	200.427641	0.001095	10.945640	3.708483	0.000438
 498	4.9452e+01	19.7882	200.879800	0.001135	11.351034	3.845834	0.000454
 499	4.9551e+01	19.8395	201.319848	0.001105	11.046988	3.742821	0.000442
 500	4.9651e+01	19.8829	201.759896	0.001105	11.046988	3.742821	0.000442
 501	4.9750e+01	19.9182	202.155535	0.000993	9.932155	3.365105	0.000398
 502	4.9849e+01	19.9631	202.539063	0.000963	9.628109	3.262092	0.000385
 503	4.9949e+01	20.0000	203.055816	0.001297	12.972610	4.395239	0.000519
 504	5.0048e+01	19.9534	202.866071	0.000476	4.763380	1.613877	-0.000191
 505	5.0148e+01	19.9214	202.720734	0.000365	3.648547	1.236161	-0.000146
 506	5.0248e+01	19.8732	202.571360	0.000375	3.749895	1.270499	-0.000150
 507	5.0347e+01	19.8412	202.385652	0.000466	4.662032	1.579539	-0.000187
 508	5.0447e+01	19.7850	202.199943	0.000466	4.662032	1.579539	-0.000187
 509	5.0546e+01	19.7529	201.981938	0.000547	5.472820	1.854242	-0.000219
 510	5.0645e+01	19.7289	201.796230	0.000466	4.662032	1.579539	-0.000187
 511	5.0745e+01	19.6759	201.554002	0.000608	6.080911	2.060268	-0.000243
 512	5.0844e+01	19.6454	201.299662	0.000638	6.384957	2.163282	-0.000256
 513	5.0944e+01	19.5893	201.053397	0.000618	6.182260	2.094606	-0.000248
 514	5.1044e+01	19.5588	200.799057	0.000638	6.384957	2.163282	-0.000256
 515	5.1143e+01	19.5187	200.585089	0.000537	5.371471	1.819904	-0.000215
 516	5.1242e+01	19.4722	200.342861	0.000608	6.080911	2.060268	-0.000243
 517	5.1342e+01	19.4417	200.096596	0.000618	6.182260	2.094606	-0.000248
 518	5.1441e+01	19.4016	199.826108	0.000679	6.790351	2.300633	-0.000272
 519	5.1541e+01	19.3551	199.600028	0.000568	5.675517	1.922917	-0.000227
 520	5.1641e+01	19.3198	199.369911	0.000578	5.776865	1.957255	-0.000231
 521	5.1740e+01	19.2829	199.127683	0.000608	6.080911	2.060268	-0.000243
 522	5.1840e+01	19.2524	198.849121	0.000699	6.993048	2.369309	-0.000280
 523	5.1939e+01	19.2011	198.635153	0.000537	5.371471	1.819904	-0.000215
 524	5.2038e+01	19.1642	198.368702	0.000669	6.689002	2.266295	-0.000268
 525	5.2138e+01	19.1241	198.114362	0.000638	6.384957	2.163282	-0.000256
 526	5.2237e+01	19.0840	197.864060	0.000628	6.283608	2.128944	-0.000252
 527	5.2337e+01	19.0310	197.625869	0.000598	5.979562	2.025931	-0.000239
 528	5.2437e+01	19.0070	197.315009	0.000780	7.803836	2.644011	-0.000312
 529	5.2536e+01	18.9492	197.008187	0.000770	7.702487	2.609673	-0.000308
 530	5.2636e+01	18.9203	196.733662	0.000689	6.891699	2.334971	-0.000276
 531	5.2735e+01	18.8850	196.471248	0.000659	6.587654	2.231957	-0.000264
 532	5.2834e+01	18.8417	196.200760	0.000679	6.790351	2.300633	-0.000272
 533	5.2934e+01	18.7968	195.918160	0.000709	7.094396	2.403646	-0.000284
 534	5.3033e+01	18.7679	195.619412	0.000750	7.499790	2.540998	-0.000300
 535	5.3133e+01	18.7198	195.344887	0.000689	6.891699	2.334971	-0.000276
 536	5.3233e+01	18.6765	195.062287	0.000709	7.094396	2.403646	-0.000284
 537	5.3332e+01	18.6364	194.799874	0.000659	6.587654	2.231957	-0.000264
 538	5.3431e+01	18.6059	194.521311	0.000699	6.993048	2.369309	-0.000280
 539	5.3531e+01	18.5642	194.246786	0.000689	6.891699	2.334971	-0.000276
 540	5.3630e+01	18.5209	193.935927	0.000780	7.803836	2.644011	-0.000312
 541	5.3730e+01	18.4824	193.665438	0.000679	6.790351	2.300633	-0.000272
 542	5.3830e+01	18.4326	193.419173	0.000618	6.182260	2.094606	-0.000248
 543	5.3929e+01	18.3973	193.116388	0.000760	7.601139	2.575336	-0.000304
 544	5.4029e+01	18.3717	192.789380	0.000821	8.209230	2.781362	-0.000329
 545	5.4128e+01	18.3235	192.539078	0.000628	6.283608	2.128944	-0.000252
 546	5.4227e+01	18.2818	192.248404	0.000730	7.297093	2.472322	-0.000292
 547	5.4327e+01	18.2417	191.933507	0.000791	7.905184	2.678349	-0.000316
 548	5.4426e+01	18.2064	191.590351	0.000861	8.614624	2.918714	-0.000345
 549	5.4526e+01	18.1567	191.287566	0.000760	7.601139	2.575336	-0.000304
 550	5.4626e+01	18.1262	191.009003	0.000699	6.993048	2.369309	-0.000280
 551	5.4725e+01	18.0813	190.641624	0.000922	9.222715	3.124740	-0.000369
 552	5.4825e+01	18.0364	190.371136	0.000679	6.790351	2.300633	-0.000272
 553	5.4924e+01	18.0027	190.112759	0.000649	6.486305	2.197620	-0.000260
 554	5.5023e+01	17.9594	189.789788	0.000811	8.107881	2.747025	-0.000325
 555	5.5123e+01	17.9273	189.487003	0.000760	7.601139	2.575336	-0.000304
 556	5.5222e+01	17.8824	189.168069	0.000801	8.006533	2.712687	-0.000321
 557	5.5322e+01	17.8455	188.905655	0.000659	6.587654	2.231957	-0.000264
 558	5.5422e+01	17.8102	188.590759	0.000791	7.905184	2.678349	-0.000316
 559	5.5521e+01	17.7653	188.296048	0.000740	7.398442	2.506660	-0.000296
 560	5.5620e+01	17.7188	188.041708	0.000638	6.384957	2.163282	-0.000256
 561	5.5720e+01	17.6867	187.718738	0.000811	8.107881	2.747025	-0.000325
 562	5.5819e+01	17.6466	187.424027	0.000740	7.398442	2.506660	-0.000296
 563	5.5919e+01	17.5968	187.088944	0.000841	8.411927	2.850038	-0.000337
 564	5.6019e+01	17.5760	186.741751	0.000872	8.715972	2.953051	-0.000349
 565	5.6118e+01	17.5230	186.455114	0.000720	7.195745	2.437984	-0.000288
 566	5.6218e+01	17.4845	186.132143	0.000811	8.107881	2.747025	-0.000325
 567	5.6317e+01	17.4444	185.813209	0.000801	8.006533	2.712687	-0.000321
 568	5.6416e+01	17.4027	185.441793	0.000932	9.324064	3.159078	-0.000373
 569	5.6516e+01	17.3610	185.130934	0.000780	7.803836	2.644011	-0.000312
 570	5.6615e+01	17.3257	184.856408	0.000689	6.891699	2.334971	-0.000276
 571	5.6715e+01	17.2888	184.501140	0.000892	8.918669	3.021727	-0.000357
 572	5.6815e+01	17.2487	184.198355	0.000760	7.601139	2.575336	-0.000304
 573	5.6914e+01	17.2022	183.843087	0.000892	8.918669	3.021727	-0.000357
 574	5.7014e+01	17.1781	183.544339	0.000750	7.499790	2.540998	-0.000300
 575	5.7113e+01	17.1332	183.237517	0.000770	7.702487	2.609673	-0.000308
 576	5.7212e+01	17.0851	182.918583	0.000801	8.006533	2.712687	-0.000321
 577	5.7312e+01	17.0466	182.615798	0.000760	7.601139	2.575336	-0.000304
 578	5.7411e+01	17.0049	182.313013	0.000760	7.601139	2.575336	-0.000304
 579	5.7511e+01	16.9648	181.998116	0.000791	7.905184	2.678349	-0.000316
 580	5.7611e+01	16.9231	181.683220	0.000791	7.905184	2.678349	-0.000316
 581	5.7710e+01	16.8846	181.348137	0.000841	8.411927	2.850038	-0.000337
 582	5.7809e+01	16.8589	180.992869	0.000892	8.918669	3.021727	-0.000357
 583	5.7909e+01	16.8124	180.677973	0.000791	7.905184	2.678349	-0.000316
 584	5.8008e+01	16.7642	180.310593	0.000922	9.222715	3.124740	-0.000369
 585	5.8108e+01	16.7289	179.975511	0.000841	8.411927	2.850038	-0.000337
 586	5.8208e+01	16.6936	179.664652	0.000780	7.803836	2.644011	-0.000312
 587	5.8307e+01	16.6455	179.321495	0.000861	8.614624	2.918714	-0.000345
 588	5.8407e+01	16.6134	179.038896	0.000709	7.094396	2.403646	-0.000284
 589	5.8506e+01	16.5685	178.671516	0.000922	9.222715	3.124740	-0.000369
 590	5.8605e+01	16.5300	178.380843	0.000730	7.297093	2.472322	-0.000292
 591	5.8705e+01	16.4947	178.005389	0.000943	9.425412	3.193416	-0.000377
 592	5.8804e+01	16.4450	177.682418	0.000811	8.107881	2.747025	-0.000325
 593	5.8904e+01	16.4097	177.411930	0.000679	6.790351	2.300633	-0.000272
 594	5.9004e+01	16.3648	177.040514	0.000932	9.324064	3.159078	-0.000373
 595	5.9103e+01	16.3327	176.741765	0.000750	7.499790	2.540998	-0.000300
 596	5.9203e+01	16.2974	176.434943	0.000770	7.702487	2.609673	-0.000308
 597	5.9302e+01	16.2509	176.116009	0.000801	8.006533	2.712687	-0.000321
 598	5.9401e+01	16.2124	175.764779	0.000882	8.817321	2.987389	-0.000353
 599	5.9501e+01	16.1642	175.377214	0.000973	9.729458	3.296429	-0.000390
 600	5.9600e+01	16.1322	175.082503	0.000740	7.398442	2.506660	-0.000296
 601	5.9700e+01	16.0905	174.694938	0.000973	9.729458	3.296429	-0.000390
 602	5.9800e+01	16.0503	174.347744	0.000872	8.715972	2.953051	-0.000349
 603	5.9899e+01	16.0118	173.992476	0.000892	8.918669	3.021727	-0.000357
 604	5.9998e+01	15.9766	173.649320	0.000861	8.614624	2.918714	-0.000345
 605	6.0098e+01	15.9364	173.342497	0.000770	7.702487	2.609673	-0.000308
 606	6.0197e+01	15.8867	173.007415	0.000841	8.411927	2.850038	-0.000337
 607	6.0297e+01	15.8498	172.676370	0.000831	8.310578	2.815700	-0.000333
 608	6.0397e+01	15.8113	172.280730	0.000993	9.932155	3.365105	-0.000398
 609	6.0496e+01	15.7760	171.990057	0.000730	7.297093	2.472322	-0.000292
 610	6.0596e+01	15.7327	171.654974	0.000841	8.411927	2.850038	-0.000337
 611	6.0695e+01	15.6910	171.315855	0.000851	8.513275	2.884376	-0.000341
 612	6.0794e+01	15.6541	171.013070	0.000760	7.601139	2.575336	-0.000304
 613	6.0894e+01	15.6108	170.641653	0.000932	9.324064	3.159078	-0.000373
 614	6.0993e+01	15.5707	170.298497	0.000861	8.614624	2.918714	-0.000345
 615	6.1093e+01	15.5274	169.975526	0.000811	8.107881	2.747025	-0.000325
 616	6.1193e+01	15.4937	169.604109	0.000932	9.324064	3.159078	-0.000373
 617	6.1292e+01	15.4648	169.301324	0.000760	7.601139	2.575336	-0.000304
 618	6.1392e+01	15.4119	168.937982	0.000912	9.121367	3.090403	-0.000365
 619	6.1491e+01	15.3718	168.582714	0.000892	8.918669	3.021727	-0.000357
 620	6.1590e+01	15.3445	168.191112	0.000983	9.830806	3.330767	-0.000394
 621	6.1690e+01	15.2964	167.815658	0.000943	9.425412	3.193416	-0.000377
 622	6.1789e+01	15.2546	167.444242	0.000932	9.324064	3.159078	-0.000373
 623	6.1889e+01	15.2081	167.097048	0.000872	8.715972	2.953051	-0.000349
 624	6.1989e+01	15.1776	166.749855	0.000872	8.715972	2.953051	-0.000349
 625	6.2088e+01	15.1343	166.418809	0.000831	8.310578	2.815700	-0.000333
 626	6.2188e+01	15.0910	166.035281	0.000963	9.628109	3.262092	-0.000385
 627	6.2287e+01	15.0541	165.692125	0.000861	8.614624	2.918714	-0.000345
 628	6.2386e+01	15.0092	165.397414	0.000740	7.398442	2.506660	-0.000296
 629	6.2486e+01	14.9787	165.025998	0.000932	9.324064	3.159078	-0.000373
 630	6.2586e+01	14.9418	164.707064	0.000801	8.006533	2.712687	-0.000321
 631	6.2685e+01	14.8921	164.351796	0.000892	8.918669	3.021727	-0.000357
 632	6.2785e+01	14.8536	163.988454	0.000912	9.121367	3.090403	-0.000365
 633	6.2884e+01	14.8199	163.629149	0.000902	9.020018	3.056065	-0.000361
 634	6.2983e+01	14.7718	163.290029	0.000851	8.513275	2.884376	-0.000341
 635	6.3083e+01	14.7365	162.922650	0.000922	9.222715	3.124740	-0.000369
 636	6.3182e+01	14.7060	162.583530	0.000851	8.513275	2.884376	-0.000341
 637	6.3282e+01	14.6595	162.204040	0.000953	9.526761	3.227754	-0.000381
 638	6.3382e+01	14.6162	161.836660	0.000922	9.222715	3.124740	-0.000369
 639	6.3481e+01	14.5777	161.449095	0.000973	9.729458	3.296429	-0.000390
 640	6.3581e+01	14.5408	161.093827	0.000892	8.918669	3.021727	-0.000357
 641	6.3680e+01	14.5007	160.722411	0.000932	9.324064	3.159078	-0.000373
 642	6.3779e+01	14.4573	160.367143	0.000892	8.918669	3.021727	-0.000357
 643	6.3879e+01	14.4140	160.028024	0.000851	8.513275	2.884376	-0.000341
 644	6.3978e+01	14.3707	159.620273	0.001024	10.236200	3.468119	-0.000410
 645	6.4078e+01	14.3418	159.289228	0.000831	8.310578	2.815700	-0.000333
 646	6.4177e+01	14.2953	158.970294	0.000801	8.006533	2.712687	-0.000321
 647	6.4277e+01	14.2472	158.586766	0.000963	9.628109	3.262092	-0.000385
 648	6.4376e+01	14.2215	158.251684	0.000841	8.411927	2.850038	-0.000337
 649	6.4476e+01	14.1734	157.908527	0.000861	8.614624	2.918714	-0.000345
 650	6.4576e+01	14.1365	157.520962	0.000973	9.729458	3.296429	-0.000390
 651	6.4675e+01	14.1028	157.173769	0.000872	8.715972	2.953051	-0.000349
 652	6.4775e+01	14.0659	156.766018	0.001024	10.236200	3.468119	-0.000410
 653	6.4874e+01	14.0210	156.467270	0.000750	7.499790	2.540998	-0.000300
 654	6.4974e+01	13.9729	156.063556	0.001013	10.134852	3.433781	-0.000406
 655	6.5073e+01	13.9424	155.684065	0.000953	9.526761	3.227754	-0.000381
 656	6.5172e+01	13.9039	155.336872	0.000872	8.715972	2.953051	-0.000349
 657	6.5272e+01	13.8638	154.965455	0.000932	9.324064	3.159078	-0.000373
 658	6.5371e+01	13.8173	154.565779	0.001003	10.033503	3.399443	-0.000402
 659	6.5471e+01	13.7772	154.222622	0.000861	8.614624	2.918714	-0.000345
 660	6.5570e+01	13.7306	153.843132	0.000953	9.526761	3.227754	-0.000381
 661	6.5670e+01	13.7050	153.479789	0.000912	9.121367	3.090403	-0.000365
 662	6.5769e+01	13.6649	153.084150	0.000993	9.932155	3.365105	-0.000398
 663	6.5869e+01	13.6135	152.732919	0.000882	8.817321	2.987389	-0.000353
 664	6.5969e+01	13.5798	152.385726	0.000872	8.715972	2.953051	-0.000349
 665	6.6068e+01	13.5477	152.006235	0.000953	9.526761	3.227754	-0.000381
 666	6.6168e+01	13.5028	151.650967	0.000892	8.918669	3.021727	-0.000357
 667	6.6267e+01	13.4643	151.319922	0.000831	8.310578	2.815700	-0.000333
 668	6.6367e+01	13.4306	150.948505	0.000932	9.324064	3.159078	-0.000373
 669	6.6466e+01	13.3809	150.569014	0.000953	9.526761	3.227754	-0.000381
 670	6.6566e+01	13.3376	150.181449	0.000973	9.729458	3.296429	-0.000390
 671	6.6665e+01	13.3007	149.818107	0.000912	9.121367	3.090403	-0.000365
 672	6.6764e+01	13.2654	149.418431	0.001003	10.033503	3.399443	-0.000402
 673	6.6864e+01	13.2189	149.002606	0.001044	10.438897	3.536794	-0.000418
 674	6.6963e+01	13.1852	148.643301	0.000902	9.020018	3.056065	-0.000361
 675	6.7063e+01	13.1467	148.279959	0.000912	9.121367	3.090403	-0.000365
 676	6.7162e+01	13.1034	147.908542	0.000932	9.324064	3.159078	-0.000373
 677	6.7262e+01	13.0601	147.484643	0.001064	10.641594	3.605470	-0.000426
 678	6.7362e+01	13.0200	147.141486	0.000861	8.614624	2.918714	-0.000345
 679	6.7461e+01	12.9815	146.737773	0.001013	10.134852	3.433781	-0.000406
 680	6.7561e+01	12.9462	146.374430	0.000912	9.121367	3.090403	-0.000365
 681	6.7660e+01	12.9093	145.986865	0.000973	9.729458	3.296429	-0.000390
 682	6.7760e+01	12.8643	145.643709	0.000861	8.614624	2.918714	-0.000345
 683	6.7859e+01	12.8194	145.264218	0.000953	9.526761	3.227754	-0.000381
 684	6.7959e+01	12.7889	144.937210	0.000821	8.209230	2.781362	-0.000329
 685	6.8058e+01	12.7520	144.545608	0.000983	9.830806	3.330767	-0.000394
 686	6.8157e+01	12.7103	144.178229	0.000922	9.222715	3.124740	-0.000369
 687	6.8257e+01	12.6638	143.794701	0.000963	9.628109	3.262092	-0.000385
 688	6.8356e+01	12.6189	143.407136	0.000973	9.729458	3.296429	-0.000390
 689	6.8456e+01	12.5804	143.019571	0.000973	9.729458	3.296429	-0.000390
 690	6.8555e+01	12.5547	142.648154	0.000932	9.324064	3.159078	-0.000373
 691	6.8655e+01	12.5098	142.256552	0.000983	9.830806	3.330767	-0.000394
 692	6.8754e+01	12.4713	141.820541	0.001095	10.945640	3.708483	-0.000438
 693	6.8854e+01	12.4312	141.461236	0.000902	9.020018	3.056065	-0.000361
 694	6.8954e+01	12.3911	141.065597	0.000993	9.932155	3.365105	-0.000398
 695	6.9053e+01	12.3478	140.686106	0.000953	9.526761	3.227754	-0.000381
 696	6.9153e+01	12.3061	140.278355	0.001024	10.236200	3.468119	-0.000410
 697	6.9252e+01	12.2660	139.902902	0.000943	9.425412	3.193416	-0.000377
 698	6.9352e+01	12.2307	139.523411	0.000953	9.526761	3.227754	-0.000381
 699	6.9451e+01	12.2002	139.188329	0.000841	8.411927	2.850038	-0.000337
 700	6.9550e+01	12.1424	138.804801	0.000963	9.628109	3.262092	-0.000385
 701	6.9650e+01	12.1104	138.409162	0.000993	9.932155	3.365105	-0.000398
 702	6.9749e+01	12.0767	138.029671	0.000953	9.526761	3.227754	-0.000381
 703	6.9849e+01	12.0253	137.674403	0.000892	8.918669	3.021727	-0.000357
 704	6.9948e+01	11.9788	137.274727	0.001003	10.033503	3.399443	-0.000402
 705	7.0048e+01	11.9563	136.895236	0.000953	9.526761	3.227754	-0.000381
 706	7.0147e+01	11.9130	136.503634	0.000983	9.830806	3.330767	-0.000394
 707	7.0247e+01	11.8745	136.132217	0.000932	9.324064	3.159078	-0.000373
 708	7.0347e+01	11.8216	135.752726	0.000953	9.526761	3.227754	-0.000381
 709	7.0446e+01	11.7943	135.316716	0.001095	10.945640	3.708483	-0.000438
 710	7.0546e+01	11.7558	134.925114	0.000983	9.830806	3.330767	-0.000394
 711	7.0645e+01	11.7109	134.501214	0.001064	10.641594	3.605470	-0.000426
 712	7.0745e+01	11.6628	134.093464	0.001024	10.236200	3.468119	-0.000410
 713	7.0844e+01	11.6323	133.730121	0.000912	9.121367	3.090403	-0.000365
 714	7.0944e+01	11.5954	133.322371	0.001024	10.236200	3.468119	-0.000410
 715	7.1043e+01	11.5489	132.959028	0.000912	9.121367	3.090403	-0.000365
 716	7.1142e+01	11.5120	132.563389	0.000993	9.932155	3.365105	-0.000398
 717	7.1242e+01	11.4751	132.179861	0.000963	9.628109	3.262092	-0.000385
 718	7.1341e+01	11.4366	131.780185	0.001003	10.033503	3.399443	-0.000402
 719	7.1441e+01	11.3981	131.424917	0.000892	8.918669	3.021727	-0.000357
 720	7.1540e+01	11.3676	131.037352	0.000973	9.729458	3.296429	-0.000390
 721	7.1640e+01	11.3066	130.621527	0.001044	10.438897	3.536794	-0.000418
 722	7.1740e+01	11.2697	130.233962	0.000973	9.729458	3.296429	-0.000390
 723	7.1839e+01	11.2264	129.838322	0.000993	9.932155	3.365105	-0.000398
 724	7.1939e+01	11.1959	129.442683	0.000993	9.932155	3.365105	-0.000398
 725	7.2038e+01	11.1590	129.075304	0.000922	9.222715	3.124740	-0.000369
 726	7.2138e+01	11.1189	128.651405	0.001064	10.641594	3.605470	-0.000426
 727	7.2237e+01	11.0692	128.223468	0.001074	10.742943	3.639808	-0.000430
 728	7.2337e+01	11.0291	127.892423	0.000831	8.310578	2.815700	-0.000333
 729	7.2436e+01	11.0034	127.432190	0.001155	11.553731	3.914510	-0.000463
 730	7.2535e+01	10.9553	126.996179	0.001095	10.945640	3.708483	-0.000438
 731	7.2635e+01	10.9120	126.620725	0.000943	9.425412	3.193416	-0.000377
 732	7.2734e+01	10.8735	126.217012	0.001013	10.134852	3.433781	-0.000406
 733	7.2834e+01	10.8270	125.776964	0.001105	11.046988	3.742821	-0.000442
 734	7.2933e+01	10.7949	125.425733	0.000882	8.817321	2.987389	-0.000353
 735	7.3033e+01	10.7548	125.066428	0.000902	9.020018	3.056065	-0.000361
 736	7.3132e+01	10.7227	124.662714	0.001013	10.134852	3.433781	-0.000406
 737	7.3232e+01	10.6681	124.254964	0.001024	10.236200	3.468119	-0.000410
 738	7.3332e+01	10.6377	123.863362	0.000983	9.830806	3.330767	-0.000394
 739	7.3431e+01	10.5879	123.427351	0.001095	10.945640	3.708483	-0.000438
 740	7.3531e+01	10.5510	123.031712	0.000993	9.932155	3.365105	-0.000398
 741	7.3630e+01	10.5157	122.672407	0.000902	9.020018	3.056065	-0.000361
 742	7.3730e+01	10.4772	122.236396	0.001095	10.945640	3.708483	-0.000438
 743	7.3829e+01	10.4307	121.832682	0.001013	10.134852	3.433781	-0.000406
 744	7.3928e+01	10.3970	121.445117	0.000973	9.729458	3.296429	-0.000390
 745	7.4028e+01	10.3553	121.037367	0.001024	10.236200	3.468119	-0.000410
 746	7.4127e+01	10.3216	120.621542	0.001044	10.438897	3.536794	-0.000418
 747	7.4227e+01	10.2831	120.205717	0.001044	10.438897	3.536794	-0.000418
 748	7.4326e+01	10.2350	119.769706	0.001095	10.945640	3.708483	-0.000438
 749	7.4426e+01	10.1949	119.374067	0.000993	9.932155	3.365105	-0.000398
 750	7.4525e+01	10.1580	118.950167	0.001064	10.641594	3.605470	-0.000426
 751	7.4625e+01	10.1131	118.562602	0.000973	9.729458	3.296429	-0.000390
 752	7.4725e+01	10.0778	118.171000	0.000983	9.830806	3.330767	-0.000394
 753	7.4824e+01	10.0313	117.819769	0.000882	8.817321	2.987389	-0.000353
 754	7.4924e+01	10.0088	117.403944	0.001044	10.438897	3.536794	-0.000418
 755	7.5023e+01	9.9639	117.000231	0.001013	10.134852	3.433781	-0.000406
 756	7.5123e+01	9.9158	116.596517	0.001013	10.134852	3.433781	-0.000406
 757	7.5222e+01	9.8741	116.192804	0.001013	10.134852	3.433781	-0.000406
 758	7.5322e+01	9.8420	115.748719	0.001115	11.148337	3.777159	-0.000446
 759	7.5421e+01	9.7938	115.373265	0.000943	9.425412	3.193416	-0.000377
 760	7.5520e+01	9.7569	114.953403	0.001054	10.540246	3.571132	-0.000422
 761	7.5620e+01	9.7217	114.553727	0.001003	10.033503	3.399443	-0.000402
 762	7.5719e+01	9.6799	114.137902	0.001044	10.438897	3.536794	-0.000418
 763	7.5819e+01	9.6334	113.738225	0.001003	10.033503	3.399443	-0.000402
 764	7.5918e+01	9.5997	113.342586	0.000993	9.932155	3.365105	-0.000398
 765	7.6018e+01	9.5676	112.898501	0.001115	11.148337	3.777159	-0.000446
 766	7.6118e+01	9.5195	112.450379	0.001125	11.249685	3.811497	-0.000450
 767	7.6217e+01	9.4762	112.062814	0.000973	9.729458	3.296429	-0.000390
 768	7.6317e+01	9.4457	111.646989	0.001044	10.438897	3.536794	-0.000418
 769	7.6416e+01	9.3992	111.259424	0.000973	9.729458	3.296429	-0.000390
 770	7.6516e+01	9.3559	110.875896	0.000963	9.628109	3.262092	-0.000385
 771	7.6615e+01	9.3142	110.496405	0.000953	9.526761	3.227754	-0.000381
 772	7.6715e+01	9.2789	110.056357	0.001105	11.046988	3.742821	-0.000442
 773	7.6814e+01	9.2324	109.636495	0.001054	10.540246	3.571132	-0.000422
 774	7.6913e+01	9.1955	109.216633	0.001054	10.540246	3.571132	-0.000422
 775	7.7013e+01	9.1602	108.808882	0.001024	10.236200	3.468119	-0.000410
 776	7.7112e+01	9.1153	108.405169	0.001013	10.134852	3.433781	-0.000406
 777	7.7212e+01	9.0928	107.985307	0.001054	10.540246	3.571132	-0.000422
 778	7.7311e+01	9.0431	107.581593	0.001013	10.134852	3.433781	-0.000406
 779	7.7411e+01	9.0094	107.153657	0.001074	10.742943	3.639808	-0.000430
 780	7.7510e+01	8.9532	106.721683	0.001084	10.844291	3.674145	-0.000434
 781	7.7610e+01	8.9260	106.322007	0.001003	10.033503	3.399443	-0.000402
 782	7.7710e+01	8.8794	105.906182	0.001044	10.438897	3.536794	-0.000418
 783	7.7809e+01	8.8457	105.425763	0.001206	12.060474	4.086199	-0.000483
 784	7.7909e+01	8.8056	105.038198	0.000973	9.729458	3.296429	-0.000390
 785	7.8008e+01	8.7607	104.622373	0.001044	10.438897	3.536794	-0.000418
 786	7.8108e+01	8.7270	104.198473	0.001064	10.641594	3.605470	-0.000426
 787	7.8207e+01	8.6821	103.782648	0.001044	10.438897	3.536794	-0.000418
 788	7.8306e+01	8.6468	103.407195	0.000943	9.425412	3.193416	-0.000377
 789	7.8406e+01	8.6083	102.963110	0.001115	11.148337	3.777159	-0.000446
 790	7.8505e+01	8.5682	102.555359	0.001024	10.236200	3.468119	-0.000410
 791	7.8605e+01	8.5153	102.095126	0.001155	11.553731	3.914510	-0.000463
 792	7.8704e+01	8.4800	101.711598	0.000963	9.628109	3.262092	-0.000385
 793	7.8804e+01	8.4415	101.328070	0.000963	9.628109	3.262092	-0.000385
 794	7.8903e+01	8.4062	100.916282	0.001034	10.337549	3.502456	-0.000414
 795	7.9003e+01	8.3532	100.500457	0.001044	10.438897	3.536794	-0.000418
 796	7.9103e+01	8.3196	100.088669	0.001034	10.337549	3.502456	-0.000414
 797	7.9202e+01	8.2843	99.652659	0.001095	10.945640	3.708483	-0.000438
 798	7.9302e+01	8.2442	99.192425	0.001155	11.553731	3.914510	-0.000463
 799	7.9401e+01	8.2073	98.804860	0.000973	9.729458	3.296429	-0.000390
 800	7.9501e+01	8.1671	98.372887	0.001084	10.844291	3.674145	-0.000434
 801	7.9600e+01	8.1222	97.953024	0.001054	10.540246	3.571132	-0.000422
 802	7.9700e+01	8.0837	97.448382	0.001267	12.668565	4.292226	-0.000507
 803	7.9799e+01	8.0516	97.048706	0.001003	10.033503	3.399443	-0.000402
 804	7.9898e+01	8.0035	96.616732	0.001084	10.844291	3.674145	-0.000434
 805	7.9998e+01	7.9618	96.229167	0.000973	9.729458	3.296429	-0.000390
 806	8.0097e+01	7.9313	95.801231	0.001074	10.742943	3.639808	-0.000430
 807	8.0197e+01	7.8896	95.401555	0.001003	10.033503	3.399443	-0.000402
 808	8.0296e+01	7.8399	94.981693	0.001054	10.540246	3.571132	-0.000422
 809	8.0396e+01	7.8094	94.577979	0.001013	10.134852	3.433781	-0.000406
 810	8.0496e+01	7.7613	94.101597	0.001196	11.959125	4.051861	-0.000479
 811	8.0595e+01	7.7308	93.709995	0.000983	9.830806	3.330767	-0.000394
 812	8.0695e+01	7.6763	93.261873	0.001125	11.249685	3.811497	-0.000450
 813	8.0794e+01	7.6458	92.829899	0.001084	10.844291	3.674145	-0.000434
 814	8.0894e+01	7.5993	92.422148	0.001024	10.236200	3.468119	-0.000410
 815	8.0993e+01	7.5575	91.974026	0.001125	11.249685	3.811497	-0.000450
 816	8.1093e+01	7.5271	91.590498	0.000963	9.628109	3.262092	-0.000385
 817	8.1192e+01	7.4837	91.162562	0.001074	10.742943	3.639808	-0.000430
 818	8.1291e+01	7.4485	90.726551	0.001095	10.945640	3.708483	-0.000438
 819	8.1391e+01	7.4132	90.254207	0.001186	11.857776	4.017523	-0.000475
 820	8.1490e+01	7.3602	89.793973	0.001155	11.553731	3.914510	-0.000463
 821	8.1590e+01	7.3265	89.386222	0.001024	10.236200	3.468119	-0.000410
 822	8.1689e+01	7.2848	88.938100	0.001125	11.249685	3.811497	-0.000450
 823	8.1789e+01	7.2463	88.510164	0.001074	10.742943	3.639808	-0.000430
 824	8.1888e+01	7.2062	88.126636	0.000963	9.628109	3.262092	-0.000385
 825	8.1988e+01	7.1725	87.726960	0.001003	10.033503	3.399443	-0.000402
 826	8.2088e+01	7.1292	87.286912	0.001105	11.046988	3.742821	-0.000442
 827	8.2187e+01	7.0875	86.854938	0.001084	10.844291	3.674145	-0.000434
 828	8.2287e+01	7.0474	86.418928	0.001095	10.945640	3.708483	-0.000438
 829	8.2386e+01	7.0105	86.007140	0.001034	10.337549	3.502456	-0.000414
 830	8.2486e+01	6.9640	85.567092	0.001105	11.046988	3.742821	-0.000442
 831	8.2585e+01	6.9319	85.106858	0.001155	11.553731	3.914510	-0.000463
 832	8.2684e+01	6.8870	84.686996	0.001054	10.540246	3.571132	-0.000422
 833	8.2784e+01	6.8388	84.230800	0.001145	11.452382	3.880172	-0.000458
 834	8.2883e+01	6.8084	83.851309	0.000953	9.526761	3.227754	-0.000381
 835	8.2983e+01	6.7747	83.374927	0.001196	11.959125	4.051861	-0.000479
 836	8.3082e+01	6.7378	82.930842	0.001115	11.148337	3.777159	-0.000446
 837	8.3182e+01	6.6897	82.466572	0.001166	11.655079	3.948848	-0.000467
 838	8.3281e+01	6.6463	82.058821	0.001024	10.236200	3.468119	-0.000410
 839	8.3381e+01	6.6094	81.582439	0.001196	11.959125	4.051861	-0.000479
 840	8.3481e+01	6.5725	81.150465	0.001084	10.844291	3.674145	-0.000434
 841	8.3580e+01	6.5372	80.702343	0.001125	11.249685	3.811497	-0.000450
 842	8.3680e+01	6.4875	80.282481	0.001054	10.540246	3.571132	-0.000422
 843	8.3779e+01	6.4554	79.858582	0.001064	10.641594	3.605470	-0.000426
 844	8.3879e+01	6.4250	79.446794	0.001034	10.337549	3.502456	-0.000414
 845	8.3978e+01	6.3720	79.014821	0.001084	10.844291	3.674145	-0.000434
 846	8.4078e+01	6.3319	78.574773	0.001105	11.046988	3.742821	-0.000442
 847	8.4177e+01	6.2774	78.146836	0.001074	10.742943	3.639808	-0.000430
 848	8.4276e+01	6.2533	77.735049	0.001034	10.337549	3.502456	-0.000414
 849	8.4376e+01	6.2164	77.295001	0.001105	11.046988	3.742821	-0.000442
 850	8.4475e+01	6.1715	76.818619	0.001196	11.959125	4.051861	-0.000479
 851	8.4575e+01	6.1330	76.398757	0.001054	10.540246	3.571132	-0.000422
 852	8.4674e+01	6.0945	75.970820	0.001074	10.742943	3.639808	-0.000430
 853	8.4774e+01	6.0512	75.474253	0.001247	12.465868	4.223550	-0.000499
 854	8.4874e+01	6.0079	75.009982	0.001166	11.655079	3.948848	-0.000467
 855	8.4973e+01	5.9758	74.606268	0.001013	10.134852	3.433781	-0.000406
 856	8.5073e+01	5.9308	74.150072	0.001145	11.452382	3.880172	-0.000458
 857	8.5172e+01	5.8956	73.722136	0.001074	10.742943	3.639808	-0.000430
 858	8.5272e+01	5.8458	73.233642	0.001226	12.263171	4.154875	-0.000491
 859	8.5371e+01	5.8089	72.838003	0.000993	9.932155	3.365105	-0.000398
 860	8.5471e+01	5.7736	72.422178	0.001044	10.438897	3.536794	-0.000418
 861	8.5570e+01	5.7351	71.974056	0.001125	11.249685	3.811497	-0.000450
 862	8.5669e+01	5.6870	71.546120	0.001074	10.742943	3.639808	-0.000430
 863	8.5769e+01	5.6597	71.093960	0.001135	11.351034	3.845834	-0.000454
 864	8.5868e+01	5.6036	70.649875	0.001115	11.148337	3.777159	-0.000446
 865	8.5968e+01	5.5811	70.238088	0.001034	10.337549	3.502456	-0.000414
 866	8.6067e+01	5.5362	69.769780	0.001176	11.756428	3.983186	-0.000471
 867	8.6167e+01	5.4833	69.325695	0.001115	11.148337	3.777159	-0.000446
 868	8.6266e+01	5.4576	68.841239	0.001216	12.161822	4.120537	-0.000487
 869	8.6366e+01	5.4191	68.453674	0.000973	9.729458	3.296429	-0.000390
 870	8.6466e+01	5.3790	68.013626	0.001105	11.046988	3.742821	-0.000442
 871	8.6565e+01	5.3293	67.525132	0.001226	12.263171	4.154875	-0.000491
 872	8.6665e+01	5.2972	67.048750	0.001196	11.959125	4.051861	-0.000479
 873	8.6764e+01	5.2619	66.628888	0.001054	10.540246	3.571132	-0.000422
 874	8.6864e+01	5.2154	66.152506	0.001196	11.959125	4.051861	-0.000479
 875	8.6963e+01	5.1720	65.712458	0.001105	11.046988	3.742821	-0.000442
 876	8.7063e+01	5.1432	65.264336	0.001125	11.249685	3.811497	-0.000450
 877	8.7162e+01	5.0950	64.836400	0.001074	10.742943	3.639808	-0.000430
 878	8.7261e+01	5.0598	64.364055	0.001186	11.857776	4.017523	-0.000475
 879	8.7361e+01	5.0180	63.940156	0.001064	10.641594	3.605470	-0.000426
 880	8.7460e+01	4.9779	63.520294	0.001054	10.540246	3.571132	-0.000422
 881	8.7560e+01	4.9346	63.047949	0.001186	11.857776	4.017523	-0.000475
 882	8.7659e+01	4.9009	62.611938	0.001095	10.945640	3.708483	-0.000438
 883	8.7759e+01	4.8560	62.171890	0.001105	11.046988	3.742821	-0.000442
 884	8.7859e+01	4.8223	61.723768	0.001125	11.249685	3.811497	-0.000450
 885	8.7958e+01	4.7726	61.271609	0.001135	11.351034	3.845834	-0.000454
 886	8.8058e+01	4.7405	60.819450	0.001135	11.351034	3.845834	-0.000454
 887	8.8157e+01	4.7004	60.371328	0.001125	11.249685	3.811497	-0.000450
 888	8.8257e+01	4.6603	59.915131	0.001145	11.452382	3.880172	-0.000458
 889	8.8356e+01	4.6154	59.475084	0.001105	11.046988	3.742821	-0.000442
 890	8.8456e+01	4.5737	58.982553	0.001236	12.364519	4.189212	-0.000495
 891	8.8555e+01	4.5400	58.473874	0.001277	12.769913	4.326564	-0.000511
 892	8.8654e+01	4.5015	58.045938	0.001074	10.742943	3.639808	-0.000430
 893	8.8754e+01	4.4630	57.569556	0.001196	11.959125	4.051861	-0.000479
 894	8.8853e+01	4.4197	57.194102	0.000943	9.425412	3.193416	-0.000377
 895	8.8953e+01	4.3715	56.721757	0.001186	11.857776	4.017523	-0.000475
 896	8.9052e+01	4.3378	56.293821	0.001074	10.742943	3.639808	-0.000430
 897	8.9152e+01	4.3058	55.837624	0.001145	11.452382	3.880172	-0.000458
 898	8.9251e+01	4.2641	55.417762	0.001054	10.540246	3.571132	-0.000422
 899	8.9351e+01	4.2255	54.921195	0.001247	12.465868	4.223550	-0.000499
 900	8.9451e+01	4.1838	54.473073	0.001125	11.249685	3.811497	-0.000450
 901	8.9550e+01	4.1261	54.008802	0.001166	11.655079	3.948848	-0.000467
 902	8.9650e+01	4.0988	53.544531	0.001166	11.655079	3.948848	-0.000467
 903	8.9749e+01	4.0683	53.124669	0.001054	10.540246	3.571132	-0.000422
 904	8.9849e+01	4.0138	52.620027	0.001267	12.668565	4.292226	-0.000507
 905	8.9948e+01	3.9785	52.179979	0.001105	11.046988	3.742821	-0.000442
 906	9.0047e+01	3.9384	51.731857	0.001125	11.249685	3.811497	-0.000450
 907	9.0147e+01	3.9047	51.275661	0.001145	11.452382	3.880172	-0.000458
 908	9.0246e+01	3.8598	50.783130	0.001236	12.364519	4.189212	-0.000495
 909	9.0346e+01	3.8165	50.343083	0.001105	11.046988	3.742821	-0.000442
 910	9.0445e+01	3.7892	49.890923	0.001135	11.351034	3.845834	-0.000454
 911	9.0545e+01	3.7427	49.414541	0.001196	11.959125	4.051861	-0.000479
 912	9.0644e+01	3.7026	48.942197	0.001186	11.857776	4.017523	-0.000475
 913	9.0744e+01	3.6577	48.554632	0.000973	9.729458	3.296429	-0.000390
 914	9.0844e+01	3.6256	48.066138	0.001226	12.263171	4.154875	-0.000491
 915	9.0943e+01	3.5790	47.597830	0.001176	11.756428	3.983186	-0.000471
 916	9.1043e+01	3.5470	47.117411	0.001206	12.060474	4.086199	-0.000483
 917	9.1142e+01	3.5004	46.713698	0.001013	10.134852	3.433781	-0.000406
 918	9.1242e+01	3.4635	46.205019	0.001277	12.769913	4.326564	-0.000511
 919	9.1341e+01	3.4202	45.748822	0.001145	11.452382	3.880172	-0.000458
 920	9.1441e+01	3.3801	45.288589	0.001155	11.553731	3.914510	-0.000463
 921	9.1540e+01	3.3400	44.884875	0.001013	10.134852	3.433781	-0.000406
 922	9.1639e+01	3.3047	44.440790	0.001115	11.148337	3.777159	-0.000446
 923	9.1739e+01	3.2566	43.968445	0.001186	11.857776	4.017523	-0.000475
 924	9.1838e+01	3.2245	43.512249	0.001145	11.452382	3.880172	-0.000458
 925	9.1938e+01	3.1860	43.035867	0.001196	11.959125	4.051861	-0.000479
 926	9.2037e+01	3.1347	42.571596	0.001166	11.655079	3.948848	-0.000467
 927	9.2137e+01	3.1026	42.115400	0.001145	11.452382	3.880172	-0.000458
 928	9.2237e+01	3.0721	41.586535	0.001328	13.276656	4.498253	-0.000532
 929	9.2336e+01	3.0176	41.146487	0.001105	11.046988	3.742821	-0.000442
 930	9.2436e+01	2.9983	40.670105	0.001196	11.959125	4.051861	-0.000479
 931	9.2535e+01	2.9422	40.270429	0.001003	10.033503	3.399443	-0.000402
 932	9.2635e+01	2.9053	39.806158	0.001166	11.655079	3.948848	-0.000467
 933	9.2734e+01	2.8603	39.349962	0.001145	11.452382	3.880172	-0.000458
 934	9.2834e+01	2.8283	38.913951	0.001095	10.945640	3.708483	-0.000438
 935	9.2933e+01	2.7882	38.425458	0.001226	12.263171	4.154875	-0.000491
 936	9.3032e+01	2.7464	38.001559	0.001064	10.641594	3.605470	-0.000426
 937	9.3132e+01	2.7063	37.525177	0.001196	11.959125	4.051861	-0.000479
 938	9.3231e+01	2.6694	37.044758	0.001206	12.060474	4.086199	-0.000483
 939	9.3331e+01	2.6213	36.560301	0.001216	12.161822	4.120537	-0.000487
 940	9.3430e+01	2.5924	36.120253	0.001105	11.046988	3.742821	-0.000442
 941	9.3530e+01	2.5475	35.660020	0.001155	11.553731	3.914510	-0.000463
 942	9.3629e+01	2.5122	35.155378	0.001267	12.668565	4.292226	-0.000507
 943	9.3729e+01	2.4705	34.731479	0.001064	10.641594	3.605470	-0.000426
 944	9.3829e+01	2.4352	34.226837	0.001267	12.668565	4.292226	-0.000507
 945	9.3928e+01	2.3823	33.726232	0.001257	12.567216	4.257888	-0.000503
 946	9.4028e+01	2.3470	33.245813	0.001206	12.060474	4.086199	-0.000483
 947	9.4127e+01	2.3101	32.825951	0.001054	10.540246	3.571132	-0.000422
 948	9.4227e+01	2.2700	32.402051	0.001064	10.641594	3.605470	-0.000426
 949	9.4326e+01	2.2219	31.941818	0.001155	11.553731	3.914510	-0.000463
 950	9.4425e+01	2.1914	31.453325	0.001226	12.263171	4.154875	-0.000491
 951	9.4525e+01	2.1529	30.964831	0.001226	12.263171	4.154875	-0.000491
 952	9.4624e+01	2.1096	30.512672	0.001135	11.351034	3.845834	-0.000454
 953	9.4724e+01	2.0663	30.020141	0.001236	12.364519	4.189212	-0.000495
 954	9.4823e+01	2.0245	29.563945	0.001145	11.452382	3.880172	-0.000458
 955	9.4923e+01	1.9957	29.103712	0.001155	11.553731	3.914510	-0.000463
 956	9.5022e+01	1.9491	28.623292	0.001206	12.060474	4.086199	-0.000483
 957	9.5122e+01	1.9187	28.199393	0.001064	10.641594	3.605470	-0.000426
 958	9.5222e+01	1.8721	27.723011	0.001196	11.959125	4.051861	-0.000479
 959	9.5321e+01	1.8320	27.222406	0.001257	12.567216	4.257888	-0.000503
 960	9.5421e+01	1.7855	26.762173	0.001155	11.553731	3.914510	-0.000463
 961	9.5520e+01	1.7470	26.326162	0.001095	10.945640	3.708483	-0.000438
 962	9.5620e+01	1.7101	25.805372	0.001307	13.073959	4.429577	-0.000523
 963	9.5719e+01	1.6812	25.316878	0.001226	12.263171	4.154875	-0.000491
 964	9.5819e+01	1.6299	24.876830	0.001105	11.046988	3.742821	-0.000442
 965	9.5918e+01	1.5978	24.388337	0.001226	12.263171	4.154875	-0.000491
 966	9.6017e+01	1.5497	23.948289	0.001105	11.046988	3.742821	-0.000442
 967	9.6117e+01	1.5080	23.475944	0.001186	11.857776	4.017523	-0.000475
 968	9.6216e+01	1.4727	23.007637	0.001176	11.756428	3.983186	-0.000471
 969	9.6316e+01	1.4294	22.571626	0.001095	10.945640	3.708483	-0.000438
 970	9.6415e+01	1.3893	22.087170	0.001216	12.161822	4.120537	-0.000487
 971	9.6515e+01	1.3508	21.598676	0.001226	12.263171	4.154875	-0.000491
 972	9.6615e+01	1.3139	21.126331	0.001186	11.857776	4.017523	-0.000475
 973	9.6714e+01	1.2689	20.658024	0.001176	11.756428	3.983186	-0.000471
 974	9.6814e+01	1.2353	20.149344	0.001277	12.769913	4.326564	-0.000511
 975	9.6913e+01	1.1855	19.709297	0.001105	11.046988	3.742821	-0.000442
 976	9.7013e+01	1.1470	19.249063	0.001155	11.553731	3.914510	-0.000463
 977	9.7112e+01	1.1085	18.736347	0.001287	12.871262	4.360901	-0.000515
 978	9.7212e+01	1.0780	18.276113	0.001155	11.553731	3.914510	-0.000463
 979	9.7311e+01	1.0299	17.836066	0.001105	11.046988	3.742821	-0.000442
 980	9.7410e+01	0.9962	17.347572	0.001226	12.263171	4.154875	-0.000491
 981	9.7510e+01	0.9529	16.846967	0.001257	12.567216	4.257888	-0.000503
 982	9.7609e+01	0.9128	16.366548	0.001206	12.060474	4.086199	-0.000483
 983	9.7709e+01	0.8711	15.934575	0.001084	10.844291	3.674145	-0.000434
 984	9.7808e+01	0.8390	15.458193	0.001196	11.959125	4.051861	-0.000479
 985	9.7908e+01	0.7941	14.949514	0.001277	12.769913	4.326564	-0.000511
 986	9.8007e+01	0.7540	14.477169	0.001186	11.857776	4.017523	-0.000475
 987	9.8107e+01	0.7107	14.008861	0.001176	11.756428	3.983186	-0.000471
 988	9.8207e+01	0.6690	13.556702	0.001135	11.351034	3.845834	-0.000454
 989	9.8306e+01	0.6417	13.100505	0.001145	11.452382	3.880172	-0.000458
 990	9.8406e+01	0.5904	12.591826	0.001277	12.769913	4.326564	-0.000511
 991	9.8505e+01	0.5551	12.115444	0.001196	11.959125	4.051861	-0.000479
 992	9.8605e+01	0.5101	11.655211	0.001155	11.553731	3.914510	-0.000463
 993	9.8704e+01	0.4684	11.199015	0.001145	11.452382	3.880172	-0.000458
 994	9.8803e+01	0.4331	10.694373	0.001267	12.668565	4.292226	-0.000507
 995	9.8903e+01	0.3962	10.234139	0.001155	11.553731	3.914510	-0.000463
 996	9.9002e+01	0.3545	9.814277	0.001054	10.540246	3.571132	-0.000422
 997	9.9102e+01	0.3144	9.236967	0.001449	14.492838	4.910306	-0.000580
 998	9.9201e+01	0.2759	8.764622	0.001186	11.857776	4.017523	-0.000475
 999	9.9301e+01	0.2390	8.300351	0.001166	11.655079	3.948848	-0.000467
1000	9.9400e+01	0.1989	7.844155	0.001145	11.452382	3.880172	-0.000458
1001	9.9500e+01	0.1492	7.343550	0.001257	12.567216	4.257888	-0.000503
1002	9.9600e+01	0.1203	6.867168	0.001196	11.959125	4.051861	-0.000479
1003	9.9699e+01	0.0706	6.410972	0.001145	11.452382	3.880172	-0.000458
1004	9.9799e+01	0.0417	5.930552	0.001206	12.060474	4.086199	-0.000483
1005	9.9898e+01	0.0032	5.518765	0.001034	10.337549	3.502456	-0.000414
1006	9.9998e+01	-0.0353	5.058531	0.001155	11.553731	3.914510	-0.000463
1007	1.0010e+02	-0.0754	4.606372	0.001135	11.351034	3.845834	-0.000454
1008	1.0020e+02	-0.1235	4.101730	0.001267	12.668565	4.292226	-0.000507
1009	1.0030e+02	-0.1524	3.649571	0.001135	11.351034	3.845834	-0.000454
1010	1.0040e+02	-0.2037	3.165114	0.001216	12.161822	4.120537	-0.000487
1011	1.0050e+02	-0.2406	2.672584	0.001236	12.364519	4.189212	-0.000495
1012	1.0059e+02	-0.2743	2.204276	0.001176	11.756428	3.983186	-0.000471
1013	1.0069e+02	-0.3192	1.695597	0.001277	12.769913	4.326564	-0.000511
1014	1.0079e+02	-0.3545	1.263623	0.001084	10.844291	3.674145	-0.000434
1015	1.0089e+02	-0.3978	0.754944	0.001277	12.769913	4.326564	-0.000511
1016	1.0099e+02	-0.4315	0.262414	0.001236	12.364519	4.189212	-0.000495
1017	1.0109e+02	-0.4716	-0.173597	0.001095	10.945640	3.708483	-0.000438
1018	1.0119e+02	-0.5134	-0.670165	0.001247	12.465868	4.223550	-0.000499
1019	1.0129e+02	-0.5615	-1.170769	0.001257	12.567216	4.257888	-0.000503
1020	1.0139e+02	-0.5871	-1.631003	0.001155	11.553731	3.914510	-0.000463
1021	1.0149e+02	-0.6305	-2.135645	0.001267	12.668565	4.292226	-0.000507
1022	1.0159e+02	-0.6706	-2.591841	0.001145	11.452382	3.880172	-0.000458
1023	1.0169e+02	-0.7043	-3.044000	0.001135	11.351034	3.845834	-0.000454
1024	1.0179e+02	-0.7540	-3.516345	0.001186	11.857776	4.017523	-0.000475
1025	1.0189e+02	-0.7909	-4.025024	0.001277	12.769913	4.326564	-0.000511
1026	1.0199e+02	-0.8342	-4.489295	0.001166	11.655079	3.948848	-0.000467
1027	1.0209e+02	-0.8727	-4.969714	0.001206	12.060474	4.086199	-0.000483
1028	1.0219e+02	-0.9192	-5.442059	0.001186	11.857776	4.017523	-0.000475
1029	1.0229e+02	-0.9593	-5.950738	0.001277	12.769913	4.326564	-0.000511
1030	1.0239e+02	-1.0010	-6.427120	0.001196	11.959125	4.051861	-0.000479
1031	1.0248e+02	-1.0395	-6.903502	0.001196	11.959125	4.051861	-0.000479
1032	1.0258e+02	-1.0764	-7.359698	0.001145	11.452382	3.880172	-0.000458
1033	1.0268e+02	-1.1214	-7.852229	0.001236	12.364519	4.189212	-0.000495
1034	1.0278e+02	-1.1486	-8.348797	0.001247	12.465868	4.223550	-0.000499
1035	1.0288e+02	-1.1984	-8.837290	0.001226	12.263171	4.154875	-0.000491
1036	1.0298e+02	-1.2337	-9.277338	0.001105	11.046988	3.742821	-0.000442
1037	1.0308e+02	-1.2802	-9.769868	0.001236	12.364519	4.189212	-0.000495
1038	1.0318e+02	-1.3091	-10.226065	0.001145	11.452382	3.880172	-0.000458
1039	1.0328e+02	-1.3540	-10.722633	0.001247	12.465868	4.223550	-0.000499
1040	1.0338e+02	-1.3877	-11.215163	0.001236	12.364519	4.189212	-0.000495
1041	1.0348e+02	-1.4246	-11.731916	0.001297	12.972610	4.395239	-0.000519
1042	1.0358e+02	-1.4663	-12.159853	0.001074	10.742943	3.639808	-0.000430
1043	1.0368e+02	-1.5128	-12.652383	0.001236	12.364519	4.189212	-0.000495
1044	1.0378e+02	-1.5385	-13.104543	0.001135	11.351034	3.845834	-0.000454
1045	1.0388e+02	-1.5946	-13.580925	0.001196	11.959125	4.051861	-0.000479
1046	1.0398e+02	-1.6379	-14.053270	0.001186	11.857776	4.017523	-0.000475
1047	1.0408e+02	-1.6748	-14.586171	0.001338	13.378004	4.532591	-0.000536
1048	1.0418e+02	-1.7021	-15.030256	0.001115	11.148337	3.777159	-0.000446
1049	1.0428e+02	-1.7438	-15.526824	0.001247	12.465868	4.223550	-0.000499
1050	1.0438e+02	-1.7887	-15.966872	0.001105	11.046988	3.742821	-0.000442
1051	1.0447e+02	-1.8352	-16.447291	0.001206	12.060474	4.086199	-0.000483
1052	1.0457e+02	-1.8641	-16.919636	0.001186	11.857776	4.017523	-0.000475
1053	1.0467e+02	-1.9042	-17.416204	0.001247	12.465868	4.223550	-0.000499
1054	1.0477e+02	-1.9524	-17.904697	0.001226	12.263171	4.154875	-0.000491
1055	1.0487e+02	-1.9828	-18.368968	0.001166	11.655079	3.948848	-0.000467
1056	1.0497e+02	-2.0310	-18.873610	0.001267	12.668565	4.292226	-0.000507
1057	1.0507e+02	-2.0695	-19.329806	0.001145	11.452382	3.880172	-0.000458
1058	1.0517e+02	-2.1192	-19.822336	0.001236	12.364519	4.189212	-0.000495
1059	1.0527e+02	-2.1465	-20.286607	0.001166	11.655079	3.948848	-0.000467
1060	1.0537e+02	-2.1834	-20.775101	0.001226	12.263171	4.154875	-0.000491
1061	1.0547e+02	-2.2315	-21.247445	0.001186	11.857776	4.017523	-0.000475
1062	1.0557e+02	-2.2700	-21.703642	0.001145	11.452382	3.880172	-0.000458
1063	1.0567e+02	-2.2941	-22.167912	0.001166	11.655079	3.948848	-0.000467
1064	1.0577e+02	-2.3502	-22.664480	0.001247	12.465868	4.223550	-0.000499
1065	1.0587e+02	-2.3871	-23.084342	0.001054	10.540246	3.571132	-0.000422
1066	1.0597e+02	-2.4256	-23.629355	0.001368	13.682050	4.635604	-0.000548
1067	1.0607e+02	-2.4721	-24.045180	0.001044	10.438897	3.536794	-0.000418
1068	1.0617e+02	-2.5010	-24.561934	0.001297	12.972610	4.395239	-0.000519
1069	1.0627e+02	-2.5588	-25.046390	0.001216	12.161822	4.120537	-0.000487
1070	1.0637e+02	-2.5876	-25.530846	0.001216	12.161822	4.120537	-0.000487
1071	1.0647e+02	-2.6325	-25.974931	0.001115	11.148337	3.777159	-0.000446
1072	1.0656e+02	-2.6791	-26.491685	0.001297	12.972610	4.395239	-0.000519
1073	1.0666e+02	-2.7047	-26.947881	0.001145	11.452382	3.880172	-0.000458
1074	1.0676e+02	-2.7464	-27.460597	0.001287	12.871262	4.360901	-0.000515
1075	1.0686e+02	-2.7898	-27.932942	0.001186	11.857776	4.017523	-0.000475
1076	1.0696e+02	-2.8267	-28.356841	0.001064	10.641594	3.605470	-0.000426
1077	1.0706e+02	-2.8684	-28.837261	0.001206	12.060474	4.086199	-0.000483
1078	1.0716e+02	-2.9069	-29.374200	0.001348	13.479353	4.566928	-0.000540
1079	1.0726e+02	-2.9502	-29.826359	0.001135	11.351034	3.845834	-0.000454
1080	1.0736e+02	-2.9823	-30.278518	0.001135	11.351034	3.845834	-0.000454
1081	1.0746e+02	-3.0240	-30.758937	0.001206	12.060474	4.086199	-0.000483
1082	1.0756e+02	-3.0625	-31.271653	0.001287	12.871262	4.360901	-0.000515
1083	1.0766e+02	-3.1090	-31.707664	0.001095	10.945640	3.708483	-0.000438
1084	1.0776e+02	-3.1523	-32.167898	0.001155	11.553731	3.914510	-0.000463
1085	1.0786e+02	-3.1844	-32.620057	0.001135	11.351034	3.845834	-0.000454
1086	1.0796e+02	-3.2197	-33.056067	0.001095	10.945640	3.708483	-0.000438
1087	1.0806e+02	-3.2646	-33.576858	0.001307	13.073959	4.429577	-0.000523
1088	1.0816e+02	-3.3047	-34.073426	0.001247	12.465868	4.223550	-0.000499
1089	1.0826e+02	-3.3416	-34.529622	0.001145	11.452382	3.880172	-0.000458
1090	1.0836e+02	-3.3849	-34.981781	0.001135	11.351034	3.845834	-0.000454
1091	1.0845e+02	-3.4282	-35.462200	0.001206	12.060474	4.086199	-0.000483
1092	1.0855e+02	-3.4667	-35.991065	0.001328	13.276656	4.498253	-0.000532
1093	1.0865e+02	-3.5036	-36.390742	0.001003	10.033503	3.399443	-0.000402
1094	1.0875e+02	-3.5454	-36.871161	0.001206	12.060474	4.086199	-0.000483
1095	1.0885e+02	-3.5855	-37.363691	0.001236	12.364519	4.189212	-0.000495
1096	1.0895e+02	-3.6240	-37.803739	0.001105	11.046988	3.742821	-0.000442
1097	1.0905e+02	-3.6625	-38.296270	0.001236	12.364519	4.189212	-0.000495
1098	1.0915e+02	-3.6929	-38.760540	0.001166	11.655079	3.948848	-0.000467
1099	1.0925e+02	-3.7475	-39.224811	0.001166	11.655079	3.948848	-0.000467
1100	1.0935e+02	-3.7812	-39.729453	0.001267	12.668565	4.292226	-0.000507
1101	1.0945e+02	-3.8309	-40.137204	0.001024	10.236200	3.468119	-0.000410
1102	1.0955e+02	-3.8630	-40.585326	0.001125	11.249685	3.811497	-0.000450
1103	1.0965e+02	-3.8903	-41.077856	0.001236	12.364519	4.189212	-0.000495
1104	1.0975e+02	-3.9448	-41.546164	0.001176	11.756428	3.983186	-0.000471
1105	1.0985e+02	-3.9769	-42.026583	0.001206	12.060474	4.086199	-0.000483
1106	1.0995e+02	-4.0282	-42.535262	0.001277	12.769913	4.326564	-0.000511
1107	1.1005e+02	-4.0571	-42.947050	0.001034	10.337549	3.502456	-0.000414
1108	1.1015e+02	-4.1068	-43.447655	0.001257	12.567216	4.257888	-0.000503
1109	1.1025e+02	-4.1453	-43.915963	0.001176	11.756428	3.983186	-0.000471
1110	1.1035e+02	-4.1774	-44.392345	0.001196	11.959125	4.051861	-0.000479
1111	1.1044e+02	-4.2175	-44.836430	0.001115	11.148337	3.777159	-0.000446
1112	1.1054e+02	-4.2608	-45.320886	0.001216	12.161822	4.120537	-0.000487
1113	1.1064e+02	-4.3009	-45.785156	0.001166	11.655079	3.948848	-0.000467
1114	1.1074e+02	-4.3443	-46.241353	0.001145	11.452382	3.880172	-0.000458
1115	1.1084e+02	-4.3780	-46.697549	0.001145	11.452382	3.880172	-0.000458
1116	1.1094e+02	-4.4245	-47.141634	0.001115	11.148337	3.777159	-0.000446
1117	1.1104e+02	-4.4662	-47.642239	0.001257	12.567216	4.257888	-0.000503
1118	1.1114e+02	-4.4902	-48.098435	0.001145	11.452382	3.880172	-0.000458
1119	1.1124e+02	-4.5384	-48.570780	0.001186	11.857776	4.017523	-0.000475
1120	1.1134e+02	-4.5785	-48.986605	0.001044	10.438897	3.536794	-0.000418
1121	1.1144e+02	-4.6218	-49.503358	0.001297	12.972610	4.395239	-0.000519
1122	1.1154e+02	-4.6619	-49.983778	0.001206	12.060474	4.086199	-0.000483
1123	1.1164e+02	-4.6956	-50.431900	0.001125	11.249685	3.811497	-0.000450
1124	1.1174e+02	-4.7389	-50.924430	0.001236	12.364519	4.189212	-0.000495
1125	1.1184e+02	-4.7774	-51.396775	0.001186	11.857776	4.017523	-0.000475
1126	1.1194e+02	-4.8175	-51.800489	0.001013	10.134852	3.433781	-0.000406
1127	1.1204e+02	-4.8576	-52.244574	0.001115	11.148337	3.777159	-0.000446
1128	1.1214e+02	-4.9025	-52.757290	0.001287	12.871262	4.360901	-0.000515
1129	1.1224e+02	-4.9426	-53.205412	0.001125	11.249685	3.811497	-0.000450
1130	1.1234e+02	-4.9763	-53.665645	0.001155	11.553731	3.914510	-0.000463
1131	1.1244e+02	-5.0245	-54.129916	0.001166	11.655079	3.948848	-0.000467
1132	1.1253e+02	-5.0565	-54.622447	0.001236	12.364519	4.189212	-0.000495
1133	1.1263e+02	-5.0934	-55.074606	0.001135	11.351034	3.845834	-0.000454
1134	1.1273e+02	-5.1255	-55.518691	0.001115	11.148337	3.777159	-0.000446
1135	1.1283e+02	-5.1753	-56.015258	0.001247	12.465868	4.223550	-0.000499
1136	1.1293e+02	-5.2170	-56.451269	0.001095	10.945640	3.708483	-0.000438
1137	1.1303e+02	-5.2571	-56.879205	0.001074	10.742943	3.639808	-0.000430
1138	1.1313e+02	-5.2956	-57.286956	0.001024	10.236200	3.468119	-0.000410
1139	1.1323e+02	-5.3325	-57.783524	0.001247	12.465868	4.223550	-0.000499
1140	1.1333e+02	-5.3694	-58.259906	0.001196	11.959125	4.051861	-0.000479
1141	1.1343e+02	-5.4191	-58.736288	0.001196	11.959125	4.051861	-0.000479
1142	1.1353e+02	-5.4496	-59.164224	0.001074	10.742943	3.639808	-0.000430
1143	1.1363e+02	-5.4929	-59.648681	0.001216	12.161822	4.120537	-0.000487
1144	1.1373e+02	-5.5314	-60.121025	0.001186	11.857776	4.017523	-0.000475
1145	1.1383e+02	-5.5811	-60.573185	0.001135	11.351034	3.845834	-0.000454
1146	1.1393e+02	-5.6196	-61.013232	0.001105	11.046988	3.742821	-0.000442
1147	1.1403e+02	-5.6533	-61.485577	0.001186	11.857776	4.017523	-0.000475
1148	1.1413e+02	-5.6902	-61.925625	0.001105	11.046988	3.742821	-0.000442
1149	1.1423e+02	-5.7383	-62.389896	0.001166	11.655079	3.948848	-0.000467
1150	1.1433e+02	-5.7784	-62.874352	0.001216	12.161822	4.120537	-0.000487
1151	1.1442e+02	-5.8073	-63.302288	0.001074	10.742943	3.639808	-0.000430
1152	1.1452e+02	-5.8554	-63.762522	0.001155	11.553731	3.914510	-0.000463
1153	1.1462e+02	-5.9068	-64.242941	0.001206	12.060474	4.086199	-0.000483
1154	1.1472e+02	-5.9469	-64.670877	0.001074	10.742943	3.639808	-0.000430
1155	1.1482e+02	-5.9645	-65.046331	0.000943	9.425412	3.193416	-0.000377
1156	1.1492e+02	-6.0079	-65.542899	0.001247	12.465868	4.223550	-0.000499
1157	1.1502e+02	-6.0544	-66.039466	0.001247	12.465868	4.223550	-0.000499
1158	1.1512e+02	-6.0897	-66.475477	0.001095	10.945640	3.708483	-0.000438
1159	1.1522e+02	-6.1234	-66.923599	0.001125	11.249685	3.811497	-0.000450
1160	1.1532e+02	-6.1747	-67.383833	0.001155	11.553731	3.914510	-0.000463
1161	1.1542e+02	-6.2196	-67.803695	0.001054	10.540246	3.571132	-0.000422
1162	1.1552e+02	-6.2437	-68.280077	0.001196	11.959125	4.051861	-0.000479
1163	1.1562e+02	-6.2886	-68.772607	0.001236	12.364519	4.189212	-0.000495
1164	1.1572e+02	-6.3335	-69.172284	0.001003	10.033503	3.399443	-0.000402
1165	1.1582e+02	-6.3768	-69.575997	0.001013	10.134852	3.433781	-0.000406
1166	1.1592e+02	-6.4105	-70.072565	0.001247	12.465868	4.223550	-0.000499
1167	1.1602e+02	-6.4442	-70.528761	0.001145	11.452382	3.880172	-0.000458
1168	1.1612e+02	-6.4907	-70.944586	0.001044	10.438897	3.536794	-0.000418
1169	1.1622e+02	-6.5340	-71.392708	0.001125	11.249685	3.811497	-0.000450
1170	1.1632e+02	-6.5677	-71.881202	0.001226	12.263171	4.154875	-0.000491
1171	1.1642e+02	-6.6046	-72.325287	0.001115	11.148337	3.777159	-0.000446
1172	1.1651e+02	-6.6447	-72.757260	0.001084	10.844291	3.674145	-0.000434
1173	1.1661e+02	-6.6897	-73.169048	0.001034	10.337549	3.502456	-0.000414
1174	1.1671e+02	-6.7249	-73.617170	0.001125	11.249685	3.811497	-0.000450
1175	1.1681e+02	-6.7699	-74.061255	0.001115	11.148337	3.777159	-0.000446
1176	1.1691e+02	-6.7971	-74.565897	0.001267	12.668565	4.292226	-0.000507
1177	1.1701e+02	-6.8501	-74.985759	0.001054	10.540246	3.571132	-0.000422
1178	1.1711e+02	-6.8838	-75.441956	0.001145	11.452382	3.880172	-0.000458
1179	1.1721e+02	-6.9223	-75.890078	0.001125	11.249685	3.811497	-0.000450
1180	1.1731e+02	-6.9624	-76.378571	0.001226	12.263171	4.154875	-0.000491
1181	1.1741e+02	-7.0089	-76.802470	0.001064	10.641594	3.605470	-0.000426
1182	1.1751e+02	-7.0442	-77.254629	0.001135	11.351034	3.845834	-0.000454
1183	1.1761e+02	-7.0827	-77.706789	0.001135	11.351034	3.845834	-0.000454
1184	1.1771e+02	-7.1324	-78.098391	0.000983	9.830806	3.330767	-0.000394
1185	1.1781e+02	-7.1677	-78.603033	0.001267	12.668565	4.292226	-0.000507
1186	1.1791e+02	-7.2030	-79.010784	0.001024	10.236200	3.468119	-0.000410
1187	1.1801e+02	-7.2415	-79.519463	0.001277	12.769913	4.326564	-0.000511
1188	1.1811e+02	-7.2912	-79.898953	0.000953	9.526761	3.227754	-0.000381
1189	1.1821e+02	-7.3265	-80.399558	0.001257	12.567216	4.257888	-0.000503
1190	1.1831e+02	-7.3618	-80.795198	0.000993	9.932155	3.365105	-0.000398
1191	1.1841e+02	-7.4035	-81.219097	0.001064	10.641594	3.605470	-0.000426
1192	1.1850e+02	-7.4485	-81.647033	0.001074	10.742943	3.639808	-0.000430
1193	1.1860e+02	-7.4854	-82.119378	0.001186	11.857776	4.017523	-0.000475
1194	1.1870e+02	-7.5367	-82.567500	0.001125	11.249685	3.811497	-0.000450
1195	1.1880e+02	-7.5640	-83.015622	0.001125	11.249685	3.811497	-0.000450
1196	1.1890e+02	-7.6089	-83.463744	0.001125	11.249685	3.811497	-0.000450
1197	1.1900e+02	-7.6538	-83.923978	0.001155	11.553731	3.914510	-0.000463
1198	1.1910e+02	-7.6923	-84.291357	0.000922	9.222715	3.124740	-0.000369
1199	1.1920e+02	-7.7212	-84.715256	0.001064	10.641594	3.605470	-0.000426
1200	1.1930e+02	-7.7629	-85.191638	0.001196	11.959125	4.051861	-0.000479
1201	1.1940e+02	-7.7982	-85.639760	0.001125	11.249685	3.811497	-0.000450
1202	1.1950e+02	-7.8415	-86.087882	0.001125	11.249685	3.811497	-0.000450
1203	1.1960e+02	-7.8848	-86.544079	0.001145	11.452382	3.880172	-0.000458
1204	1.1970e+02	-7.9265	-86.963941	0.001054	10.540246	3.571132	-0.000422
1205	1.1980e+02	-7.9778	-87.408026	0.001115	11.148337	3.777159	-0.000446
1206	1.1990e+02	-8.0099	-87.811739	0.001013	10.134852	3.433781	-0.000406
1207	1.2000e+02	-8.0484	-88.263899	0.001135	11.351034	3.845834	-0.000454
1208	1.2010e+02	-8.0757	-88.699909	0.001095	10.945640	3.708483	-0.000438
1209	1.2020e+02	-8.1222	-89.083437	0.000963	9.628109	3.262092	-0.000385
1210	1.2030e+02	-8.1591	-89.531559	0.001125	11.249685	3.811497	-0.000450
1211	1.2039e+02	-8.2008	-89.935273	0.001013	10.134852	3.433781	-0.000406
1212	1.2049e+02	-8.2361	-90.431841	0.001247	12.465868	4.223550	-0.000499
1213	1.2059e+02	-8.2859	-90.859777	0.001074	10.742943	3.639808	-0.000430
1214	1.2069e+02	-8.3228	-91.324048	0.001166	11.655079	3.948848	-0.000467
1215	1.2079e+02	-8.3725	-91.707575	0.000963	9.628109	3.262092	-0.000385
1216	1.2089e+02	-8.3998	-92.187995	0.001206	12.060474	4.086199	-0.000483
1217	1.2099e+02	-8.4415	-92.615931	0.001074	10.742943	3.639808	-0.000430
1218	1.2109e+02	-8.4816	-93.011570	0.000993	9.932155	3.365105	-0.000398
1219	1.2119e+02	-8.5249	-93.447581	0.001095	10.945640	3.708483	-0.000438
1220	1.2129e+02	-8.5570	-93.903777	0.001145	11.452382	3.880172	-0.000458
1221	1.2139e+02	-8.5955	-94.327677	0.001064	10.641594	3.605470	-0.000426
1222	1.2149e+02	-8.6388	-94.711204	0.000963	9.628109	3.262092	-0.000385
1223	1.2159e+02	-8.6869	-95.191624	0.001206	12.060474	4.086199	-0.000483
1224	1.2169e+02	-8.7286	-95.579189	0.000973	9.729458	3.296429	-0.000390
1225	1.2179e+02	-8.7639	-96.051533	0.001186	11.857776	4.017523	-0.000475
1226	1.2189e+02	-8.8104	-96.455247	0.001013	10.134852	3.433781	-0.000406
1227	1.2199e+02	-8.8441	-96.875109	0.001054	10.540246	3.571132	-0.000422
1228	1.2209e+02	-8.8810	-97.315157	0.001105	11.046988	3.742821	-0.000442
1229	1.2219e+02	-8.9115	-97.747130	0.001084	10.844291	3.674145	-0.000434
1230	1.2229e+02	-8.9564	-98.154881	0.001024	10.236200	3.468119	-0.000410
1231	1.2239e+02	-9.0030	-98.582818	0.001074	10.742943	3.639808	-0.000430
1232	1.2248e+02	-9.0366	-99.039014	0.001145	11.452382	3.880172	-0.000458
1233	1.2258e+02	-9.0880	-99.479062	0.001105	11.046988	3.742821	-0.000442
1234	1.2268e+02	-9.1217	-99.923147	0.001115	11.148337	3.777159	-0.000446
1235	1.2278e+02	-9.1570	-100.330897	0.001024	10.236200	3.468119	-0.000410
1236	1.2288e+02	-9.2019	-100.774982	0.001115	11.148337	3.777159	-0.000446
1237	1.2298e+02	-9.2484	-101.150436	0.000943	9.425412	3.193416	-0.000377
1238	1.2308e+02	-9.2789	-101.574335	0.001064	10.641594	3.605470	-0.000426
1239	1.2318e+02	-9.3254	-102.022457	0.001125	11.249685	3.811497	-0.000450
1240	1.2328e+02	-9.3591	-102.466542	0.001115	11.148337	3.777159	-0.000446
1241	1.2338e+02	-9.3928	-102.858144	0.000983	9.830806	3.330767	-0.000394
1242	1.2348e+02	-9.4345	-103.306266	0.001125	11.249685	3.811497	-0.000450
1243	1.2358e+02	-9.4794	-103.738240	0.001084	10.844291	3.674145	-0.000434
1244	1.2368e+02	-9.5131	-104.129842	0.000983	9.830806	3.330767	-0.000394
1245	1.2378e+02	-9.5628	-104.557778	0.001074	10.742943	3.639808	-0.000430
1246	1.2388e+02	-9.5933	-104.945344	0.000973	9.729458	3.296429	-0.000390
1247	1.2398e+02	-9.6334	-105.401540	0.001145	11.452382	3.880172	-0.000458
1248	1.2408e+02	-9.6767	-105.857736	0.001145	11.452382	3.880172	-0.000458
1249	1.2418e+02	-9.7168	-106.249338	0.000983	9.830806	3.330767	-0.000394
1250	1.2428e+02	-9.7505	-106.649015	0.001003	10.033503	3.399443	-0.000402
1251	1.2438e+02	-9.7954	-107.117323	0.001176	11.756428	3.983186	-0.000471
1252	1.2447e+02	-9.8420	-107.492776	0.000943	9.425412	3.193416	-0.000377
1253	1.2457e+02	-9.8789	-107.908601	0.001044	10.438897	3.536794	-0.000418
1254	1.2467e+02	-9.9174	-108.348649	0.001105	11.046988	3.742821	-0.000442
1255	1.2477e+02	-9.9607	-108.772548	0.001064	10.641594	3.605470	-0.000426
1256	1.2487e+02	-9.9976	-109.148002	0.000943	9.425412	3.193416	-0.000377
1257	1.2497e+02	-10.0281	-109.584012	0.001095	10.945640	3.708483	-0.000438
1258	1.2507e+02	-10.0826	-109.995800	0.001034	10.337549	3.502456	-0.000414
1259	1.2517e+02	-10.1243	-110.399514	0.001013	10.134852	3.433781	-0.000406
1260	1.2527e+02	-10.1692	-110.815339	0.001044	10.438897	3.536794	-0.000418
1261	1.2537e+02	-10.1949	-111.243275	0.001074	10.742943	3.639808	-0.000430
1262	1.2547e+02	-10.2350	-111.578358	0.000841	8.411927	2.850038	-0.000337
1263	1.2557e+02	-10.2639	-112.022442	0.001115	11.148337	3.777159	-0.000446
1264	1.2567e+02	-10.3184	-112.466527	0.001115	11.148337	3.777159	-0.000446
1265	1.2577e+02	-10.3537	-112.846018	0.000953	9.526761	3.227754	-0.000381
1266	1.2587e+02	-10.3890	-113.282029	0.001095	10.945640	3.708483	-0.000438
1267	1.2597e+02	-10.4484	-113.697854	0.001044	10.438897	3.536794	-0.000418
1268	1.2607e+02	-10.4772	-114.101567	0.001013	10.134852	3.433781	-0.000406
1269	1.2617e+02	-10.5013	-114.517392	0.001044	10.438897	3.536794	-0.000418
1270	1.2627e+02	-10.5510	-114.949366	0.001084	10.844291	3.674145	-0.000434
1271	1.2636e+02	-10.5927	-115.369228	0.001054	10.540246	3.571132	-0.000422
1272	1.2646e+02	-10.6200	-115.785053	0.001044	10.438897	3.536794	-0.000418
1273	1.2656e+02	-10.6794	-116.184729	0.001003	10.033503	3.399443	-0.000402
1274	1.2666e+02	-10.7211	-116.592480	0.001024	10.236200	3.468119	-0.000410
1275	1.2676e+02	-10.7564	-117.024454	0.001084	10.844291	3.674145	-0.000434
1276	1.2686e+02	-10.7997	-117.399907	0.000943	9.425412	3.193416	-0.000377
1277	1.2696e+02	-10.8334	-117.843992	0.001115	11.148337	3.777159	-0.000446
1278	1.2706e+02	-10.8799	-118.223483	0.000953	9.526761	3.227754	-0.000381
1279	1.2716e+02	-10.9040	-118.615085	0.000983	9.830806	3.330767	-0.000394
1280	1.2726e+02	-10.9473	-118.994576	0.000953	9.526761	3.227754	-0.000381
1281	1.2736e+02	-10.9906	-119.434624	0.001105	11.046988	3.742821	-0.000442
1282	1.2746e+02	-11.0371	-119.838337	0.001013	10.134852	3.433781	-0.000406
1283	1.2756e+02	-11.0644	-120.258199	0.001054	10.540246	3.571132	-0.000422
1284	1.2766e+02	-11.0981	-120.678061	0.001054	10.540246	3.571132	-0.000422
1285	1.2776e+02	-11.1526	-121.069664	0.000983	9.830806	3.330767	-0.000394
1286	1.2786e+02	-11.1927	-121.489526	0.001054	10.540246	3.571132	-0.000422
1287	1.2796e+02	-11.2312	-121.873054	0.000963	9.628109	3.262092	-0.000385
1288	1.2806e+02	-11.2713	-122.268693	0.000993	9.932155	3.365105	-0.000398
1289	1.2816e+02	-11.3147	-122.753149	0.001216	12.161822	4.120537	-0.000487
1290	1.2826e+02	-11.3564	-123.120529	0.000922	9.222715	3.124740	-0.000369
1291	1.2835e+02	-11.3949	-123.500019	0.000953	9.526761	3.227754	-0.000381
1292	1.2845e+02	-11.4221	-123.879510	0.000953	9.526761	3.227754	-0.000381
1293	1.2855e+02	-11.4671	-124.339744	0.001155	11.553731	3.914510	-0.000463
1294	1.2865e+02	-11.5152	-124.719234	0.000953	9.526761	3.227754	-0.000381
1295	1.2875e+02	-11.5537	-125.114874	0.000993	9.932155	3.365105	-0.000398
1296	1.2885e+02	-11.5906	-125.510513	0.000993	9.932155	3.365105	-0.000398
1297	1.2895e+02	-11.6323	-125.918264	0.001024	10.236200	3.468119	-0.000410
1298	1.2905e+02	-11.6596	-126.281606	0.000912	9.121367	3.090403	-0.000365
1299	1.2915e+02	-11.7061	-126.737802	0.001145	11.452382	3.880172	-0.000458
1300	1.2925e+02	-11.7446	-127.101144	0.000912	9.121367	3.090403	-0.000365
1301	1.2935e+02	-11.7799	-127.500821	0.001003	10.033503	3.399443	-0.000402
1302	1.2945e+02	-11.8280	-127.932794	0.001084	10.844291	3.674145	-0.000434
1303	1.2955e+02	-11.8681	-128.336508	0.001013	10.134852	3.433781	-0.000406
1304	1.2965e+02	-11.9130	-128.736184	0.001003	10.033503	3.399443	-0.000402
1305	1.2975e+02	-11.9563	-129.135861	0.001003	10.033503	3.399443	-0.000402
1306	1.2985e+02	-11.9852	-129.483055	0.000872	8.715972	2.953051	-0.000349
1307	1.2995e+02	-12.0253	-129.906954	0.001064	10.641594	3.605470	-0.000426
1308	1.3005e+02	-12.0783	-130.310667	0.001013	10.134852	3.433781	-0.000406
1309	1.3015e+02	-12.1071	-130.706307	0.000993	9.932155	3.365105	-0.000398
1310	1.3025e+02	-12.1521	-131.134243	0.001074	10.742943	3.639808	-0.000430
1311	1.3034e+02	-12.1858	-131.537957	0.001013	10.134852	3.433781	-0.000406
1312	1.3044e+02	-12.2259	-131.937633	0.001003	10.033503	3.399443	-0.000402
1313	1.3054e+02	-12.2628	-132.256567	0.000801	8.006533	2.712687	-0.000321
1314	1.3064e+02	-12.2997	-132.724875	0.001176	11.756428	3.983186	-0.000471
1315	1.3074e+02	-12.3542	-133.100328	0.000943	9.425412	3.193416	-0.000377
1316	1.3084e+02	-12.3815	-133.483856	0.000963	9.628109	3.262092	-0.000385
1317	1.3094e+02	-12.4280	-133.863347	0.000953	9.526761	3.227754	-0.000381
1318	1.3104e+02	-12.4665	-134.238800	0.000943	9.425412	3.193416	-0.000377
1319	1.3114e+02	-12.5082	-134.638477	0.001003	10.033503	3.399443	-0.000402
1320	1.3124e+02	-12.5467	-135.066413	0.001074	10.742943	3.639808	-0.000430
1321	1.3134e+02	-12.5916	-135.453978	0.000973	9.729458	3.296429	-0.000390
1322	1.3144e+02	-12.6285	-135.793098	0.000851	8.513275	2.884376	-0.000341
1323	1.3154e+02	-12.6750	-136.216997	0.001064	10.641594	3.605470	-0.000426
1324	1.3164e+02	-12.7119	-136.632822	0.001044	10.438897	3.536794	-0.000418
1325	1.3174e+02	-12.7408	-136.996164	0.000912	9.121367	3.090403	-0.000365
1326	1.3184e+02	-12.7938	-137.387766	0.000983	9.830806	3.330767	-0.000394
1327	1.3194e+02	-12.8178	-137.755146	0.000922	9.222715	3.124740	-0.000369
1328	1.3204e+02	-12.8708	-138.211342	0.001145	11.452382	3.880172	-0.000458
1329	1.3214e+02	-12.9061	-138.570647	0.000902	9.020018	3.056065	-0.000361
1330	1.3224e+02	-12.9333	-138.946101	0.000943	9.425412	3.193416	-0.000377
1331	1.3234e+02	-12.9879	-139.325591	0.000953	9.526761	3.227754	-0.000381
1332	1.3243e+02	-13.0135	-139.733342	0.001024	10.236200	3.468119	-0.000410
1333	1.3253e+02	-13.0617	-140.108796	0.000943	9.425412	3.193416	-0.000377
1334	1.3263e+02	-13.0954	-140.480212	0.000932	9.324064	3.159078	-0.000373
1335	1.3273e+02	-13.1435	-140.879889	0.001003	10.033503	3.399443	-0.000402
1336	1.3283e+02	-13.1836	-141.271491	0.000983	9.830806	3.330767	-0.000394
1337	1.3293e+02	-13.2221	-141.687316	0.001044	10.438897	3.536794	-0.000418
1338	1.3303e+02	-13.2590	-142.046621	0.000902	9.020018	3.056065	-0.000361
1339	1.3313e+02	-13.3007	-142.458409	0.001034	10.337549	3.502456	-0.000414
1340	1.3323e+02	-13.3392	-142.829825	0.000932	9.324064	3.159078	-0.000373
1341	1.3333e+02	-13.3825	-143.245650	0.001044	10.438897	3.536794	-0.000418
1342	1.3343e+02	-13.4290	-143.633215	0.000973	9.729458	3.296429	-0.000390
1343	1.3353e+02	-13.4627	-143.988483	0.000892	8.918669	3.021727	-0.000357
1344	1.3363e+02	-13.4980	-144.367974	0.000953	9.526761	3.227754	-0.000381
1345	1.3373e+02	-13.5477	-144.787836	0.001054	10.540246	3.571132	-0.000422
1346	1.3383e+02	-13.5654	-145.151178	0.000912	9.121367	3.090403	-0.000365
1347	1.3393e+02	-13.6264	-145.554892	0.001013	10.134852	3.433781	-0.000406
1348	1.3403e+02	-13.6568	-145.865751	0.000780	7.803836	2.644011	-0.000312
1349	1.3413e+02	-13.7034	-146.338096	0.001186	11.857776	4.017523	-0.000475
1350	1.3423e+02	-13.7370	-146.713550	0.000943	9.425412	3.193416	-0.000377
1351	1.3432e+02	-13.7852	-147.101115	0.000973	9.729458	3.296429	-0.000390
1352	1.3442e+02	-13.8237	-147.476569	0.000943	9.425412	3.193416	-0.000377
1353	1.3452e+02	-13.8542	-147.860096	0.000963	9.628109	3.262092	-0.000385
1354	1.3462e+02	-13.8927	-148.243624	0.000963	9.628109	3.262092	-0.000385
1355	1.3472e+02	-13.9408	-148.615041	0.000932	9.324064	3.159078	-0.000373
1356	1.3482e+02	-13.9761	-149.002606	0.000973	9.729458	3.296429	-0.000390
1357	1.3492e+02	-14.0162	-149.406319	0.001013	10.134852	3.433781	-0.000406
1358	1.3502e+02	-14.0755	-149.749476	0.000861	8.614624	2.918714	-0.000345
1359	1.3512e+02	-14.0964	-150.137041	0.000973	9.729458	3.296429	-0.000390
1360	1.3522e+02	-14.1461	-150.528643	0.000983	9.830806	3.330767	-0.000394
1361	1.3532e+02	-14.1878	-150.924282	0.000993	9.932155	3.365105	-0.000398
1362	1.3542e+02	-14.2344	-151.319922	0.000993	9.932155	3.365105	-0.000398
1363	1.3552e+02	-14.2648	-151.626744	0.000770	7.702487	2.609673	-0.000308
1364	1.3562e+02	-14.2937	-152.022383	0.000993	9.932155	3.365105	-0.000398
1365	1.3572e+02	-14.3386	-152.389763	0.000922	9.222715	3.124740	-0.000369
1366	1.3582e+02	-14.3819	-152.769253	0.000953	9.526761	3.227754	-0.000381
1367	1.3592e+02	-14.4172	-153.152781	0.000963	9.628109	3.262092	-0.000385
1368	1.3602e+02	-14.4557	-153.540346	0.000973	9.729458	3.296429	-0.000390
1369	1.3612e+02	-14.4910	-153.935986	0.000993	9.932155	3.365105	-0.000398
1370	1.3622e+02	-14.5408	-154.335662	0.001003	10.033503	3.399443	-0.000402
1371	1.3631e+02	-14.5873	-154.699004	0.000912	9.121367	3.090403	-0.000365
1372	1.3641e+02	-14.6210	-155.046198	0.000872	8.715972	2.953051	-0.000349
1373	1.3651e+02	-14.6579	-155.449912	0.001013	10.134852	3.433781	-0.000406
1374	1.3661e+02	-14.6900	-155.829402	0.000953	9.526761	3.227754	-0.000381
1375	1.3671e+02	-14.7285	-156.160447	0.000831	8.310578	2.815700	-0.000333
1376	1.3681e+02	-14.7766	-156.608570	0.001125	11.249685	3.811497	-0.000450
1377	1.3691e+02	-14.8183	-156.971912	0.000912	9.121367	3.090403	-0.000365
1378	1.3701e+02	-14.8568	-157.335254	0.000912	9.121367	3.090403	-0.000365
1379	1.3711e+02	-14.9017	-157.690522	0.000892	8.918669	3.021727	-0.000357
1380	1.3721e+02	-14.9306	-158.057901	0.000922	9.222715	3.124740	-0.000369
1381	1.3731e+02	-14.9691	-158.433355	0.000943	9.425412	3.193416	-0.000377
1382	1.3741e+02	-15.0204	-158.780549	0.000872	8.715972	2.953051	-0.000349
1383	1.3751e+02	-15.0573	-159.156002	0.000943	9.425412	3.193416	-0.000377
1384	1.3761e+02	-15.0846	-159.523382	0.000922	9.222715	3.124740	-0.000369
1385	1.3771e+02	-15.1375	-159.902872	0.000953	9.526761	3.227754	-0.000381
1386	1.3781e+02	-15.1744	-160.278326	0.000943	9.425412	3.193416	-0.000377
1387	1.3791e+02	-15.2145	-160.661854	0.000963	9.628109	3.262092	-0.000385
1388	1.3801e+02	-15.2530	-161.025196	0.000912	9.121367	3.090403	-0.000365
1389	1.3811e+02	-15.2964	-161.445058	0.001054	10.540246	3.571132	-0.000422
1390	1.3821e+02	-15.3317	-161.784178	0.000851	8.513275	2.884376	-0.000341
1391	1.3831e+02	-15.3686	-162.155594	0.000932	9.324064	3.159078	-0.000373
1392	1.3840e+02	-15.4167	-162.494713	0.000851	8.513275	2.884376	-0.000341
1393	1.3850e+02	-15.4600	-162.833833	0.000851	8.513275	2.884376	-0.000341
1394	1.3860e+02	-15.4873	-163.225435	0.000983	9.830806	3.330767	-0.000394
1395	1.3870e+02	-15.5418	-163.604926	0.000953	9.526761	3.227754	-0.000381
1396	1.3880e+02	-15.5675	-163.972305	0.000922	9.222715	3.124740	-0.000369
1397	1.3890e+02	-15.6236	-164.331610	0.000902	9.020018	3.056065	-0.000361
1398	1.3900e+02	-15.6509	-164.727250	0.000993	9.932155	3.365105	-0.000398
1399	1.3910e+02	-15.7006	-165.054258	0.000821	8.209230	2.781362	-0.000329
1400	1.3920e+02	-15.7375	-165.437785	0.000963	9.628109	3.262092	-0.000385
1401	1.3930e+02	-15.7632	-165.793053	0.000892	8.918669	3.021727	-0.000357
1402	1.3940e+02	-15.8145	-166.160433	0.000922	9.222715	3.124740	-0.000369
1403	1.3950e+02	-15.8370	-166.552035	0.000983	9.830806	3.330767	-0.000394
1404	1.3960e+02	-15.8851	-166.907303	0.000892	8.918669	3.021727	-0.000357
1405	1.3970e+02	-15.9381	-167.290831	0.000963	9.628109	3.262092	-0.000385
1406	1.3980e+02	-15.9701	-167.638024	0.000872	8.715972	2.953051	-0.000349
1407	1.3990e+02	-16.0054	-168.025589	0.000973	9.729458	3.296429	-0.000390
1408	1.4000e+02	-16.0536	-168.352597	0.000821	8.209230	2.781362	-0.000329
1409	1.4010e+02	-16.0921	-168.740162	0.000973	9.729458	3.296429	-0.000390
1410	1.4020e+02	-16.1274	-169.147913	0.001024	10.236200	3.468119	-0.000410
1411	1.4029e+02	-16.1787	-169.438587	0.000730	7.297093	2.472322	-0.000292
1412	1.4039e+02	-16.2172	-169.870560	0.001084	10.844291	3.674145	-0.000434
1413	1.4049e+02	-16.2541	-170.173346	0.000760	7.601139	2.575336	-0.000304
1414	1.4059e+02	-16.2830	-170.560911	0.000973	9.729458	3.296429	-0.000390
1415	1.4069e+02	-16.3327	-170.944439	0.000963	9.628109	3.262092	-0.000385
1416	1.4079e+02	-16.3664	-171.279521	0.000841	8.411927	2.850038	-0.000337
1417	1.4089e+02	-16.4113	-171.622677	0.000861	8.614624	2.918714	-0.000345
1418	1.4099e+02	-16.4418	-172.006205	0.000963	9.628109	3.262092	-0.000385
1419	1.4109e+02	-16.4867	-172.313028	0.000770	7.702487	2.609673	-0.000308
1420	1.4119e+02	-16.5332	-172.712704	0.001003	10.033503	3.399443	-0.000402
1421	1.4129e+02	-16.5589	-173.072009	0.000902	9.020018	3.056065	-0.000361
1422	1.4139e+02	-16.6054	-173.471686	0.001003	10.033503	3.399443	-0.000402
1423	1.4149e+02	-16.6455	-173.802731	0.000831	8.310578	2.815700	-0.000333
1424	1.4159e+02	-16.6888	-174.190296	0.000973	9.729458	3.296429	-0.000390
1425	1.4169e+02	-16.7305	-174.521341	0.000831	8.310578	2.815700	-0.000333
1426	1.4179e+02	-16.7706	-174.900832	0.000953	9.526761	3.227754	-0.000381
1427	1.4189e+02	-16.8108	-175.248025	0.000872	8.715972	2.953051	-0.000349
1428	1.4199e+02	-16.8541	-175.595219	0.000872	8.715972	2.953051	-0.000349
1429	1.4209e+02	-16.8926	-175.946450	0.000882	8.817321	2.987389	-0.000353
1430	1.4219e+02	-16.9279	-176.305755	0.000902	9.020018	3.056065	-0.000361
1431	1.4228e+02	-16.9744	-176.640837	0.000841	8.411927	2.850038	-0.000337
1432	1.4238e+02	-16.9985	-176.967845	0.000821	8.209230	2.781362	-0.000329
1433	1.4248e+02	-17.0450	-177.363484	0.000993	9.932155	3.365105	-0.000398
1434	1.4258e+02	-17.0867	-177.738938	0.000943	9.425412	3.193416	-0.000377
1435	1.4268e+02	-17.1188	-178.102280	0.000912	9.121367	3.090403	-0.000365
1436	1.4278e+02	-17.1621	-178.465622	0.000912	9.121367	3.090403	-0.000365
1437	1.4288e+02	-17.2038	-178.796668	0.000831	8.310578	2.815700	-0.000333
1438	1.4298e+02	-17.2407	-179.135787	0.000851	8.513275	2.884376	-0.000341
1439	1.4308e+02	-17.2792	-179.531426	0.000993	9.932155	3.365105	-0.000398
1440	1.4318e+02	-17.3305	-179.882657	0.000882	8.817321	2.987389	-0.000353
1441	1.4328e+02	-17.3706	-180.229851	0.000872	8.715972	2.953051	-0.000349
1442	1.4338e+02	-17.4043	-180.585119	0.000892	8.918669	3.021727	-0.000357
1443	1.4348e+02	-17.4508	-180.928275	0.000861	8.614624	2.918714	-0.000345
1444	1.4358e+02	-17.4861	-181.283543	0.000892	8.918669	3.021727	-0.000357
1445	1.4368e+02	-17.5166	-181.634774	0.000882	8.817321	2.987389	-0.000353
1446	1.4378e+02	-17.5631	-181.986005	0.000882	8.817321	2.987389	-0.000353
1447	1.4388e+02	-17.6097	-182.345310	0.000902	9.020018	3.056065	-0.000361
1448	1.4398e+02	-17.6450	-182.753061	0.001024	10.236200	3.468119	-0.000410
1449	1.4408e+02	-17.6931	-182.991252	0.000598	5.979562	2.025931	-0.000239
1450	1.4418e+02	-17.7252	-183.334408	0.000861	8.614624	2.918714	-0.000345
1451	1.4428e+02	-17.7589	-183.754270	0.001054	10.540246	3.571132	-0.000422
1452	1.4437e+02	-17.8086	-184.061093	0.000770	7.702487	2.609673	-0.000308
1453	1.4447e+02	-17.8407	-184.464806	0.001013	10.134852	3.433781	-0.000406
1454	1.4457e+02	-17.8840	-184.795851	0.000831	8.310578	2.815700	-0.000333
1455	1.4467e+02	-17.9177	-185.159193	0.000912	9.121367	3.090403	-0.000365
1456	1.4477e+02	-17.9690	-185.478127	0.000801	8.006533	2.712687	-0.000321
1457	1.4487e+02	-18.0043	-185.893952	0.001044	10.438897	3.536794	-0.000418
1458	1.4497e+02	-18.0460	-186.192700	0.000750	7.499790	2.540998	-0.000300
1459	1.4507e+02	-18.0845	-186.543931	0.000882	8.817321	2.987389	-0.000353
1460	1.4517e+02	-18.1166	-186.891125	0.000872	8.715972	2.953051	-0.000349
1461	1.4527e+02	-18.1663	-187.282727	0.000983	9.830806	3.330767	-0.000394
1462	1.4537e+02	-18.2113	-187.629921	0.000872	8.715972	2.953051	-0.000349
1463	1.4547e+02	-18.2498	-187.948854	0.000801	8.006533	2.712687	-0.000321
1464	1.4557e+02	-18.2899	-188.275862	0.000821	8.209230	2.781362	-0.000329
1465	1.4567e+02	-18.3139	-188.655353	0.000953	9.526761	3.227754	-0.000381
1466	1.4577e+02	-18.3620	-189.034844	0.000953	9.526761	3.227754	-0.000381
1467	1.4587e+02	-18.4070	-189.325518	0.000730	7.297093	2.472322	-0.000292
1468	1.4597e+02	-18.4391	-189.660600	0.000841	8.411927	2.850038	-0.000337
1469	1.4607e+02	-18.4743	-189.991645	0.000831	8.310578	2.815700	-0.000333
1470	1.4617e+02	-18.5241	-190.387284	0.000993	9.932155	3.365105	-0.000398
1471	1.4626e+02	-18.5578	-190.758701	0.000932	9.324064	3.159078	-0.000373
1472	1.4636e+02	-18.6011	-191.089746	0.000831	8.310578	2.815700	-0.000333
1473	1.4646e+02	-18.6476	-191.453088	0.000912	9.121367	3.090403	-0.000365
1474	1.4656e+02	-18.6877	-191.804319	0.000882	8.817321	2.987389	-0.000353
1475	1.4666e+02	-18.7166	-192.123253	0.000801	8.006533	2.712687	-0.000321
1476	1.4676e+02	-18.7663	-192.490632	0.000922	9.222715	3.124740	-0.000369
1477	1.4686e+02	-18.8112	-192.809566	0.000801	8.006533	2.712687	-0.000321
1478	1.4696e+02	-18.8385	-193.172908	0.000912	9.121367	3.090403	-0.000365
1479	1.4706e+02	-18.8834	-193.540287	0.000922	9.222715	3.124740	-0.000369
1480	1.4716e+02	-18.9251	-193.907667	0.000922	9.222715	3.124740	-0.000369
1481	1.4726e+02	-18.9636	-194.214489	0.000770	7.702487	2.609673	-0.000308
1482	1.4736e+02	-19.0005	-194.549571	0.000841	8.411927	2.850038	-0.000337
1483	1.4746e+02	-19.0438	-194.864468	0.000791	7.905184	2.678349	-0.000316
1484	1.4756e+02	-19.0791	-195.223773	0.000902	9.020018	3.056065	-0.000361
1485	1.4766e+02	-19.1225	-195.546744	0.000811	8.107881	2.747025	-0.000325
1486	1.4776e+02	-19.1561	-195.881826	0.000841	8.411927	2.850038	-0.000337
1487	1.4786e+02	-19.1995	-196.249205	0.000922	9.222715	3.124740	-0.000369
1488	1.4796e+02	-19.2444	-196.596399	0.000872	8.715972	2.953051	-0.000349
1489	1.4806e+02	-19.2813	-196.951667	0.000892	8.918669	3.021727	-0.000357
1490	1.4816e+02	-19.3198	-197.294824	0.000861	8.614624	2.918714	-0.000345
1491	1.4825e+02	-19.3567	-197.617794	0.000811	8.107881	2.747025	-0.000325
1492	1.4835e+02	-19.4000	-197.973062	0.000892	8.918669	3.021727	-0.000357
1493	1.4845e+02	-19.4417	-198.316219	0.000861	8.614624	2.918714	-0.000345
1494	1.4855e+02	-19.4882	-198.659375	0.000861	8.614624	2.918714	-0.000345
1495	1.4865e+02	-19.5235	-198.998495	0.000851	8.513275	2.884376	-0.000341
1496	1.4875e+02	-19.5604	-199.345688	0.000872	8.715972	2.953051	-0.000349
1497	1.4885e+02	-19.6037	-199.644437	0.000750	7.499790	2.540998	-0.000300
1498	1.4895e+02	-19.6342	-200.048150	0.001013	10.134852	3.433781	-0.000406
1499	1.4905e+02	-19.6679	-200.342861	0.000740	7.398442	2.506660	-0.000296
1500	1.4915e+02	-19.7176	-200.661795	0.000801	8.006533	2.712687	-0.000321
1501	1.4925e+02	-19.7513	-201.041285	0.000953	9.526761	3.227754	-0.000381
1502	1.4935e+02	-19.7898	-201.372331	0.000831	8.310578	2.815700	-0.000333
1503	1.4945e+02	-19.8363	-201.707413	0.000841	8.411927	2.850038	-0.000337
1504	1.4955e+02	-19.8716	-202.062681	0.000892	8.918669	3.021727	-0.000357
1505	1.4965e+02	-19.9085	-202.417949	0.000892	8.918669	3.021727	-0.000357
1506	1.4975e+02	-19.9551	-202.753031	0.000841	8.411927	2.850038	-0.000337
1507	1.4985e+02	-19.9919	-203.055816	0.000760	7.601139	2.575336	-0.000304
1508	1.4995e+02	-19.9583	-202.934702	0.000304	3.040456	1.030134	0.000122
1509	1.5005e+02	-19.9166	-202.829737	0.000264	2.635061	0.892783	0.000105
1510	1.5015e+02	-19.8716	-202.648066	0.000456	4.560683	1.545201	0.000183
1511	1.5025e+02	-19.8283	-202.502729	0.000365	3.648547	1.236161	0.000146
1512	1.5034e+02	-19.8010	-202.325095	0.000446	4.459335	1.510864	0.000179
1513	1.5044e+02	-19.7593	-202.175721	0.000375	3.749895	1.270499	0.000150
1514	1.5054e+02	-19.7192	-202.006161	0.000426	4.256638	1.442188	0.000170
1515	1.5064e+02	-19.6727	-201.836601	0.000426	4.256638	1.442188	0.000170
1516	1.5074e+02	-19.6406	-201.622633	0.000537	5.371471	1.819904	0.000215
1517	1.5084e+02	-19.5781	-201.493445	0.000324	3.243153	1.098810	0.000130
1518	1.5094e+02	-19.5572	-201.247179	0.000618	6.182260	2.094606	0.000248
1519	1.5104e+02	-19.5203	-201.146251	0.000253	2.533713	0.858445	0.000101
1520	1.5114e+02	-19.4738	-200.899986	0.000618	6.182260	2.094606	0.000248
1521	1.5124e+02	-19.4417	-200.730426	0.000426	4.256638	1.442188	0.000170
1522	1.5134e+02	-19.4000	-200.524532	0.000517	5.168774	1.751228	0.000207
1523	1.5144e+02	-19.3567	-200.270193	0.000638	6.384957	2.163282	0.000256
1524	1.5154e+02	-19.3246	-200.104670	0.000416	4.155289	1.407850	0.000166
1525	1.5164e+02	-19.2829	-199.906850	0.000497	4.966077	1.682553	0.000199
1526	1.5174e+02	-19.2396	-199.717105	0.000476	4.763380	1.613877	0.000191
1527	1.5184e+02	-19.1930	-199.543508	0.000436	4.357986	1.476526	0.000174
1528	1.5194e+02	-19.1594	-199.293206	0.000628	6.283608	2.128944	0.000252
1529	1.5204e+02	-19.1144	-199.115572	0.000446	4.459335	1.510864	0.000179
1530	1.5214e+02	-19.0840	-198.889492	0.000568	5.675517	1.922917	0.000227
1531	1.5224e+02	-19.0390	-198.691672	0.000497	4.966077	1.682553	0.000199
1532	1.5233e+02	-18.9925	-198.453481	0.000598	5.979562	2.025931	0.000239
1533	1.5243e+02	-18.9652	-198.279885	0.000436	4.357986	1.476526	0.000174
1534	1.5253e+02	-18.9171	-198.090139	0.000476	4.763380	1.613877	0.000191
1535	1.5263e+02	-18.8722	-197.831763	0.000649	6.486305	2.197620	0.000260
1536	1.5273e+02	-18.8385	-197.593572	0.000598	5.979562	2.025931	0.000239
1537	1.5283e+02	-18.7936	-197.355381	0.000598	5.979562	2.025931	0.000239
1538	1.5293e+02	-18.7615	-197.121227	0.000588	5.878214	1.991593	0.000235
1539	1.5303e+02	-18.7182	-196.951667	0.000426	4.256638	1.442188	0.000170
1540	1.5313e+02	-18.6877	-196.713476	0.000598	5.979562	2.025931	0.000239
1541	1.5323e+02	-18.6412	-196.463174	0.000628	6.283608	2.128944	0.000252
1542	1.5333e+02	-18.6075	-196.257280	0.000517	5.168774	1.751228	0.000207
1543	1.5343e+02	-18.5674	-196.006977	0.000628	6.283608	2.128944	0.000252
1544	1.5353e+02	-18.5225	-195.797046	0.000527	5.270123	1.785566	0.000211
1545	1.5363e+02	-18.4888	-195.530595	0.000669	6.689002	2.266295	0.000268
1546	1.5373e+02	-18.4455	-195.328738	0.000507	5.067426	1.716890	0.000203
1547	1.5383e+02	-18.4070	-195.130919	0.000497	4.966077	1.682553	0.000199
1548	1.5393e+02	-18.3669	-194.884653	0.000618	6.182260	2.094606	0.000248
1549	1.5403e+02	-18.3268	-194.646462	0.000598	5.979562	2.025931	0.000239
1550	1.5413e+02	-18.2770	-194.432494	0.000537	5.371471	1.819904	0.000215
1551	1.5422e+02	-18.2385	-194.202378	0.000578	5.776865	1.957255	0.000231
1552	1.5432e+02	-18.2032	-193.915741	0.000720	7.195745	2.437984	0.000288
1553	1.5442e+02	-18.1583	-193.705810	0.000527	5.270123	1.785566	0.000211
1554	1.5452e+02	-18.1198	-193.427247	0.000699	6.993048	2.369309	0.000280
1555	1.5462e+02	-18.0845	-193.176945	0.000628	6.283608	2.128944	0.000252
1556	1.5472e+02	-18.0364	-192.995274	0.000456	4.560683	1.545201	0.000183
1557	1.5482e+02	-18.0043	-192.732860	0.000659	6.587654	2.231957	0.000264
1558	1.5492e+02	-17.9626	-192.498706	0.000588	5.878214	1.991593	0.000235
1559	1.5502e+02	-17.9145	-192.240330	0.000649	6.486305	2.197620	0.000260
1560	1.5512e+02	-17.8824	-191.977916	0.000659	6.587654	2.231957	0.000264
1561	1.5522e+02	-17.8471	-191.788170	0.000476	4.763380	1.613877	0.000191
1562	1.5532e+02	-17.8086	-191.525757	0.000659	6.587654	2.231957	0.000264
1563	1.5542e+02	-17.7733	-191.251231	0.000689	6.891699	2.334971	0.000276
1564	1.5552e+02	-17.7316	-191.033226	0.000547	5.472820	1.854242	0.000219
1565	1.5562e+02	-17.6883	-190.730441	0.000760	7.601139	2.575336	0.000304
1566	1.5572e+02	-17.6417	-190.540695	0.000476	4.763380	1.613877	0.000191
1567	1.5582e+02	-17.6016	-190.326727	0.000537	5.371471	1.819904	0.000215
1568	1.5592e+02	-17.5647	-190.064313	0.000659	6.587654	2.231957	0.000264
1569	1.5602e+02	-17.5198	-189.818048	0.000618	6.182260	2.094606	0.000248
1570	1.5612e+02	-17.4829	-189.551597	0.000669	6.689002	2.266295	0.000268
1571	1.5622e+02	-17.4492	-189.329555	0.000557	5.574168	1.888579	0.000223
1572	1.5631e+02	-17.4043	-189.034844	0.000740	7.398442	2.506660	0.000296
1573	1.5641e+02	-17.3658	-188.784541	0.000628	6.283608	2.128944	0.000252
1574	1.5651e+02	-17.3289	-188.493868	0.000730	7.297093	2.472322	0.000292
1575	1.5661e+02	-17.2824	-188.263751	0.000578	5.776865	1.957255	0.000231
1576	1.5671e+02	-17.2455	-188.009411	0.000638	6.384957	2.163282	0.000256
1577	1.5681e+02	-17.2102	-187.730849	0.000699	6.993048	2.369309	0.000280
1578	1.5691e+02	-17.1781	-187.472472	0.000649	6.486305	2.197620	0.000260
1579	1.5701e+02	-17.1300	-187.206021	0.000669	6.689002	2.266295	0.000268
1580	1.5711e+02	-17.0899	-187.000127	0.000517	5.168774	1.751228	0.000207
1581	1.5721e+02	-17.0562	-186.693305	0.000770	7.702487	2.609673	0.000308
1582	1.5731e+02	-17.0129	-186.479337	0.000537	5.371471	1.819904	0.000215
1583	1.5741e+02	-16.9616	-186.208849	0.000679	6.790351	2.300633	0.000272
1584	1.5751e+02	-16.9295	-185.986806	0.000557	5.574168	1.888579	0.000223
1585	1.5761e+02	-16.8829	-185.712281	0.000689	6.891699	2.334971	0.000276
1586	1.5771e+02	-16.8477	-185.421607	0.000730	7.297093	2.472322	0.000292
1587	1.5781e+02	-16.7995	-185.134971	0.000720	7.195745	2.437984	0.000288
1588	1.5791e+02	-16.7642	-184.868520	0.000669	6.689002	2.266295	0.000268
1589	1.5801e+02	-16.7273	-184.606106	0.000659	6.587654	2.231957	0.000264
1590	1.5811e+02	-16.6920	-184.343692	0.000659	6.587654	2.231957	0.000264
1591	1.5821e+02	-16.6471	-184.057055	0.000720	7.195745	2.437984	0.000288
1592	1.5830e+02	-16.6086	-183.806753	0.000628	6.283608	2.128944	0.000252
1593	1.5840e+02	-16.5669	-183.576636	0.000578	5.776865	1.957255	0.000231
1594	1.5850e+02	-16.5268	-183.273851	0.000760	7.601139	2.575336	0.000304
1595	1.5860e+02	-16.4947	-182.979140	0.000740	7.398442	2.506660	0.000296
1596	1.5870e+02	-16.4546	-182.712689	0.000669	6.689002	2.266295	0.000268
1597	1.5880e+02	-16.4001	-182.470461	0.000608	6.080911	2.060268	0.000243
1598	1.5890e+02	-16.3696	-182.179787	0.000730	7.297093	2.472322	0.000292
1599	1.5900e+02	-16.3343	-181.921411	0.000649	6.486305	2.197620	0.000260
1600	1.5910e+02	-16.2926	-181.646885	0.000689	6.891699	2.334971	0.000276
1601	1.5920e+02	-16.2509	-181.384472	0.000659	6.587654	2.231957	0.000264
1602	1.5930e+02	-16.2011	-181.089761	0.000740	7.398442	2.506660	0.000296
1603	1.5940e+02	-16.1755	-180.843495	0.000618	6.182260	2.094606	0.000248
1604	1.5950e+02	-16.1274	-180.516487	0.000821	8.209230	2.781362	0.000329
1605	1.5960e+02	-16.0824	-180.278296	0.000598	5.979562	2.025931	0.000239
1606	1.5970e+02	-16.0471	-179.983585	0.000740	7.398442	2.506660	0.000296
1607	1.5980e+02	-16.0151	-179.753469	0.000578	5.776865	1.957255	0.000231
1608	1.5990e+02	-15.9750	-179.410312	0.000861	8.614624	2.918714	0.000345
1609	1.6000e+02	-15.9284	-179.135787	0.000689	6.891699	2.334971	0.000276
1610	1.6010e+02	-15.8883	-178.845113	0.000730	7.297093	2.472322	0.000292
1611	1.6019e+02	-15.8530	-178.594811	0.000628	6.283608	2.128944	0.000252
1612	1.6029e+02	-15.8097	-178.332397	0.000659	6.587654	2.231957	0.000264
1613	1.6039e+02	-15.7840	-178.045760	0.000720	7.195745	2.437984	0.000288
1614	1.6049e+02	-15.7407	-177.767198	0.000699	6.993048	2.369309	0.000280
1615	1.6059e+02	-15.7038	-177.488636	0.000699	6.993048	2.369309	0.000280
1616	1.6069e+02	-15.6589	-177.206036	0.000709	7.094396	2.403646	0.000284
1617	1.6079e+02	-15.6156	-176.915362	0.000730	7.297093	2.472322	0.000292
1618	1.6089e+02	-15.5659	-176.661023	0.000638	6.384957	2.163282	0.000256
1619	1.6099e+02	-15.5370	-176.402646	0.000649	6.486305	2.197620	0.000260
1620	1.6109e+02	-15.4873	-176.120047	0.000709	7.094396	2.403646	0.000284
1621	1.6119e+02	-15.4488	-175.857633	0.000659	6.587654	2.231957	0.000264
1622	1.6129e+02	-15.4071	-175.494291	0.000912	9.121367	3.090403	0.000365
1623	1.6139e+02	-15.3718	-175.260137	0.000588	5.878214	1.991593	0.000235
1624	1.6149e+02	-15.3381	-174.904869	0.000892	8.918669	3.021727	0.000357
1625	1.6159e+02	-15.3012	-174.626306	0.000699	6.993048	2.369309	0.000280
1626	1.6169e+02	-15.2675	-174.311410	0.000791	7.905184	2.678349	0.000316
1627	1.6179e+02	-15.2242	-174.036885	0.000689	6.891699	2.334971	0.000276
1628	1.6189e+02	-15.1664	-173.766396	0.000679	6.790351	2.300633	0.000272
1629	1.6199e+02	-15.1391	-173.491871	0.000689	6.891699	2.334971	0.000276
1630	1.6209e+02	-15.0942	-173.201197	0.000730	7.297093	2.472322	0.000292
1631	1.6219e+02	-15.0573	-172.890338	0.000780	7.803836	2.644011	0.000312
1632	1.6228e+02	-15.0172	-172.607738	0.000709	7.094396	2.403646	0.000284
1633	1.6238e+02	-14.9755	-172.337250	0.000679	6.790351	2.300633	0.000272
1634	1.6248e+02	-14.9434	-172.054651	0.000709	7.094396	2.403646	0.000284
1635	1.6258e+02	-14.9001	-171.751866	0.000760	7.601139	2.575336	0.000304
1636	1.6268e+02	-14.8520	-171.432932	0.000801	8.006533	2.712687	0.000321
1637	1.6278e+02	-14.8087	-171.190704	0.000608	6.080911	2.060268	0.000243
1638	1.6288e+02	-14.7766	-170.912141	0.000699	6.993048	2.369309	0.000280
1639	1.6298e+02	-14.7333	-170.629542	0.000709	7.094396	2.403646	0.000284
1640	1.6308e+02	-14.6948	-170.322720	0.000770	7.702487	2.609673	0.000308
1641	1.6318e+02	-14.6563	-170.015897	0.000770	7.702487	2.609673	0.000308
1642	1.6328e+02	-14.6258	-169.721186	0.000740	7.398442	2.506660	0.000296
1643	1.6338e+02	-14.5696	-169.382067	0.000851	8.513275	2.884376	0.000341
1644	1.6348e+02	-14.5327	-169.075245	0.000770	7.702487	2.609673	0.000308
1645	1.6358e+02	-14.5007	-168.841091	0.000588	5.878214	1.991593	0.000235
1646	1.6368e+02	-14.4638	-168.514083	0.000821	8.209230	2.781362	0.000329
1647	1.6378e+02	-14.4172	-168.223409	0.000730	7.297093	2.472322	0.000292
1648	1.6388e+02	-14.3819	-167.900438	0.000811	8.107881	2.747025	0.000325
1649	1.6398e+02	-14.3322	-167.625913	0.000689	6.891699	2.334971	0.000276
1650	1.6408e+02	-14.2985	-167.315054	0.000780	7.803836	2.644011	0.000312
1651	1.6418e+02	-14.2600	-166.992083	0.000811	8.107881	2.747025	0.000325
1652	1.6427e+02	-14.2103	-166.685260	0.000770	7.702487	2.609673	0.000308
1653	1.6437e+02	-14.1814	-166.390549	0.000740	7.398442	2.506660	0.000296
1654	1.6447e+02	-14.1397	-166.111987	0.000699	6.993048	2.369309	0.000280
1655	1.6457e+02	-14.0964	-165.849573	0.000659	6.587654	2.231957	0.000264
1656	1.6467e+02	-14.0643	-165.518528	0.000831	8.310578	2.815700	0.000333
1657	1.6477e+02	-14.0130	-165.268226	0.000628	6.283608	2.128944	0.000252
1658	1.6487e+02	-13.9809	-164.933143	0.000841	8.411927	2.850038	0.000337
1659	1.6497e+02	-13.9408	-164.573838	0.000902	9.020018	3.056065	0.000361
1660	1.6507e+02	-13.9023	-164.250868	0.000811	8.107881	2.747025	0.000325
1661	1.6517e+02	-13.8606	-164.024788	0.000568	5.675517	1.922917	0.000227
1662	1.6527e+02	-13.8205	-163.653371	0.000932	9.324064	3.159078	0.000373
1663	1.6537e+02	-13.7884	-163.330401	0.000811	8.107881	2.747025	0.000325
1664	1.6547e+02	-13.7419	-163.051838	0.000699	6.993048	2.369309	0.000280
1665	1.6557e+02	-13.7001	-162.736942	0.000791	7.905184	2.678349	0.000316
1666	1.6567e+02	-13.6552	-162.466454	0.000679	6.790351	2.300633	0.000272
1667	1.6577e+02	-13.6264	-162.123297	0.000861	8.614624	2.918714	0.000345
1668	1.6587e+02	-13.5846	-161.788215	0.000841	8.411927	2.850038	0.000337
1669	1.6597e+02	-13.5381	-161.541949	0.000618	6.182260	2.094606	0.000248
1670	1.6607e+02	-13.5028	-161.214941	0.000821	8.209230	2.781362	0.000329
1671	1.6616e+02	-13.4563	-160.912156	0.000760	7.601139	2.575336	0.000304
1672	1.6626e+02	-13.4162	-160.609371	0.000760	7.601139	2.575336	0.000304
1673	1.6636e+02	-13.3745	-160.282363	0.000821	8.209230	2.781362	0.000329
1674	1.6646e+02	-13.3408	-159.959392	0.000811	8.107881	2.747025	0.000325
1675	1.6656e+02	-13.3039	-159.709090	0.000628	6.283608	2.128944	0.000252
1676	1.6666e+02	-13.2590	-159.390156	0.000801	8.006533	2.712687	0.000321
1677	1.6676e+02	-13.2221	-159.059111	0.000831	8.310578	2.815700	0.000333
1678	1.6686e+02	-13.1836	-158.728066	0.000831	8.310578	2.815700	0.000333
1679	1.6696e+02	-13.1387	-158.413169	0.000791	7.905184	2.678349	0.000316
1680	1.6706e+02	-13.0970	-158.086161	0.000821	8.209230	2.781362	0.000329
1681	1.6716e+02	-13.0552	-157.743005	0.000861	8.614624	2.918714	0.000345
1682	1.6726e+02	-13.0167	-157.415997	0.000821	8.209230	2.781362	0.000329
1683	1.6736e+02	-12.9847	-157.153583	0.000659	6.587654	2.231957	0.000264
1684	1.6746e+02	-12.9494	-156.826575	0.000821	8.209230	2.781362	0.000329
1685	1.6756e+02	-12.8964	-156.515715	0.000780	7.803836	2.644011	0.000312
1686	1.6766e+02	-12.8676	-156.204856	0.000780	7.803836	2.644011	0.000312
1687	1.6776e+02	-12.8307	-155.902071	0.000760	7.601139	2.575336	0.000304
1688	1.6786e+02	-12.7793	-155.619471	0.000709	7.094396	2.403646	0.000284
1689	1.6796e+02	-12.7408	-155.316686	0.000760	7.601139	2.575336	0.000304
1690	1.6806e+02	-12.7039	-154.965455	0.000882	8.817321	2.987389	0.000353
1691	1.6816e+02	-12.6622	-154.662670	0.000760	7.601139	2.575336	0.000304
1692	1.6825e+02	-12.6269	-154.384108	0.000699	6.993048	2.369309	0.000280
1693	1.6835e+02	-12.5868	-154.016728	0.000922	9.222715	3.124740	0.000369
1694	1.6845e+02	-12.5515	-153.717980	0.000750	7.499790	2.540998	0.000300
1695	1.6855e+02	-12.5082	-153.346564	0.000932	9.324064	3.159078	0.000373
1696	1.6865e+02	-12.4633	-153.039742	0.000770	7.702487	2.609673	0.000308
1697	1.6875e+02	-12.4216	-152.656214	0.000963	9.628109	3.262092	0.000385
1698	1.6885e+02	-12.3927	-152.377651	0.000699	6.993048	2.369309	0.000280
1699	1.6895e+02	-12.3606	-152.078903	0.000750	7.499790	2.540998	0.000300
1700	1.6905e+02	-12.3093	-151.715561	0.000912	9.121367	3.090403	0.000365
1701	1.6915e+02	-12.2676	-151.400664	0.000791	7.905184	2.678349	0.000316
1702	1.6925e+02	-12.2323	-151.077694	0.000811	8.107881	2.747025	0.000325
1703	1.6935e+02	-12.1890	-150.758760	0.000801	8.006533	2.712687	0.000321
1704	1.6945e+02	-12.1440	-150.443863	0.000791	7.905184	2.678349	0.000316
1705	1.6955e+02	-12.1120	-150.145115	0.000750	7.499790	2.540998	0.000300
1706	1.6965e+02	-12.0702	-149.769662	0.000943	9.425412	3.193416	0.000377
1707	1.6975e+02	-12.0269	-149.503211	0.000669	6.689002	2.266295	0.000268
1708	1.6985e+02	-11.9820	-149.160054	0.000861	8.614624	2.918714	0.000345
1709	1.6995e+02	-11.9467	-148.849195	0.000780	7.803836	2.644011	0.000312
1710	1.7005e+02	-11.9098	-148.542372	0.000770	7.702487	2.609673	0.000308
1711	1.7015e+02	-11.8697	-148.211327	0.000831	8.310578	2.815700	0.000333
1712	1.7024e+02	-11.8328	-147.811651	0.001003	10.033503	3.399443	0.000402
1713	1.7034e+02	-11.7879	-147.484643	0.000821	8.209230	2.781362	0.000329
1714	1.7044e+02	-11.7430	-147.153598	0.000831	8.310578	2.815700	0.000333
1715	1.7054e+02	-11.7061	-146.810441	0.000861	8.614624	2.918714	0.000345
1716	1.7064e+02	-11.6676	-146.439025	0.000932	9.324064	3.159078	0.000373
1717	1.7074e+02	-11.6323	-146.160462	0.000699	6.993048	2.369309	0.000280
1718	1.7084e+02	-11.5954	-145.853640	0.000770	7.702487	2.609673	0.000308
1719	1.7094e+02	-11.5569	-145.498372	0.000892	8.918669	3.021727	0.000357
1720	1.7104e+02	-11.5120	-145.187513	0.000780	7.803836	2.644011	0.000312
1721	1.7114e+02	-11.4638	-144.840319	0.000872	8.715972	2.953051	0.000349
1722	1.7124e+02	-11.4270	-144.493125	0.000872	8.715972	2.953051	0.000349
1723	1.7134e+02	-11.3820	-144.182266	0.000780	7.803836	2.644011	0.000312
1724	1.7144e+02	-11.3532	-143.843146	0.000851	8.513275	2.884376	0.000341
1725	1.7154e+02	-11.3163	-143.528250	0.000791	7.905184	2.678349	0.000316
1726	1.7164e+02	-11.2697	-143.164908	0.000912	9.121367	3.090403	0.000365
1727	1.7174e+02	-11.2328	-142.854048	0.000780	7.803836	2.644011	0.000312
1728	1.7184e+02	-11.1943	-142.506854	0.000872	8.715972	2.953051	0.000349
1729	1.7194e+02	-11.1510	-142.191958	0.000791	7.905184	2.678349	0.000316
1730	1.7204e+02	-11.1109	-141.788244	0.001013	10.134852	3.433781	0.000406
1731	1.7213e+02	-11.0772	-141.469311	0.000801	8.006533	2.712687	0.000321
1732	1.7223e+02	-11.0355	-141.110005	0.000902	9.020018	3.056065	0.000361
1733	1.7233e+02	-10.9938	-140.787035	0.000811	8.107881	2.747025	0.000325
1734	1.7243e+02	-10.9569	-140.484249	0.000760	7.601139	2.575336	0.000304
1735	1.7253e+02	-10.9104	-140.092647	0.000983	9.830806	3.330767	0.000394
1736	1.7263e+02	-10.8655	-139.749491	0.000861	8.614624	2.918714	0.000345
1737	1.7273e+02	-10.8286	-139.410371	0.000851	8.513275	2.884376	0.000341
1738	1.7283e+02	-10.7772	-139.087400	0.000811	8.107881	2.747025	0.000325
1739	1.7293e+02	-10.7484	-138.780578	0.000770	7.702487	2.609673	0.000308
1740	1.7303e+02	-10.7147	-138.449533	0.000831	8.310578	2.815700	0.000333
1741	1.7313e+02	-10.6794	-138.094265	0.000892	8.918669	3.021727	0.000357
1742	1.7323e+02	-10.6264	-137.763220	0.000831	8.310578	2.815700	0.000333
1743	1.7333e+02	-10.6008	-137.420063	0.000861	8.614624	2.918714	0.000345
1744	1.7343e+02	-10.5446	-137.097093	0.000811	8.107881	2.747025	0.000325
1745	1.7353e+02	-10.5174	-136.705490	0.000983	9.830806	3.330767	0.000394
1746	1.7363e+02	-10.4692	-136.366371	0.000851	8.513275	2.884376	0.000341
1747	1.7373e+02	-10.4339	-135.998992	0.000922	9.222715	3.124740	0.000369
1748	1.7383e+02	-10.3858	-135.667946	0.000831	8.310578	2.815700	0.000333
1749	1.7393e+02	-10.3569	-135.300567	0.000922	9.222715	3.124740	0.000369
1750	1.7403e+02	-10.3168	-134.961448	0.000851	8.513275	2.884376	0.000341
1751	1.7413e+02	-10.2735	-134.569846	0.000983	9.830806	3.330767	0.000394
1752	1.7422e+02	-10.2286	-134.242838	0.000821	8.209230	2.781362	0.000329
1753	1.7432e+02	-10.1933	-133.883532	0.000902	9.020018	3.056065	0.000361
1754	1.7442e+02	-10.1564	-133.572673	0.000780	7.803836	2.644011	0.000312
1755	1.7452e+02	-10.1195	-133.233554	0.000851	8.513275	2.884376	0.000341
1756	1.7462e+02	-10.0762	-132.906546	0.000821	8.209230	2.781362	0.000329
1757	1.7472e+02	-10.0345	-132.527055	0.000953	9.526761	3.227754	0.000381
1758	1.7482e+02	-9.9912	-132.175824	0.000882	8.817321	2.987389	0.000353
1759	1.7492e+02	-9.9543	-131.840742	0.000841	8.411927	2.850038	0.000337
1760	1.7502e+02	-9.9093	-131.465288	0.000943	9.425412	3.193416	0.000377
1761	1.7512e+02	-9.8741	-131.114057	0.000882	8.817321	2.987389	0.000353
1762	1.7522e+02	-9.8356	-130.714381	0.001003	10.033503	3.399443	0.000402
1763	1.7532e+02	-9.7970	-130.435819	0.000699	6.993048	2.369309	0.000280
1764	1.7542e+02	-9.7553	-130.019994	0.001044	10.438897	3.536794	0.000418
1765	1.7552e+02	-9.7104	-129.656651	0.000912	9.121367	3.090403	0.000365
1766	1.7562e+02	-9.6703	-129.285235	0.000932	9.324064	3.159078	0.000373
1767	1.7572e+02	-9.6430	-128.917856	0.000922	9.222715	3.124740	0.000369
1768	1.7582e+02	-9.5981	-128.586810	0.000831	8.310578	2.815700	0.000333
1769	1.7592e+02	-9.5628	-128.203282	0.000963	9.628109	3.262092	0.000385
1770	1.7602e+02	-9.5115	-127.880312	0.000811	8.107881	2.747025	0.000325
1771	1.7612e+02	-9.4698	-127.533118	0.000872	8.715972	2.953051	0.000349
1772	1.7621e+02	-9.4313	-127.173813	0.000902	9.020018	3.056065	0.000361
1773	1.7631e+02	-9.3992	-126.826619	0.000872	8.715972	2.953051	0.000349
1774	1.7641e+02	-9.3543	-126.439054	0.000973	9.729458	3.296429	0.000390
1775	1.7651e+02	-9.3174	-126.079749	0.000902	9.020018	3.056065	0.000361
1776	1.7661e+02	-9.2741	-125.720444	0.000902	9.020018	3.056065	0.000361
1777	1.7671e+02	-9.2420	-125.369213	0.000882	8.817321	2.987389	0.000353
1778	1.7681e+02	-9.2019	-125.017982	0.000882	8.817321	2.987389	0.000353
1779	1.7691e+02	-9.1554	-124.674826	0.000861	8.614624	2.918714	0.000345
1780	1.7701e+02	-9.1185	-124.279187	0.000993	9.932155	3.365105	0.000398
1781	1.7711e+02	-9.0880	-123.936030	0.000861	8.614624	2.918714	0.000345
1782	1.7721e+02	-9.0463	-123.556539	0.000953	9.526761	3.227754	0.000381
1783	1.7731e+02	-8.9981	-123.177049	0.000953	9.526761	3.227754	0.000381
1784	1.7741e+02	-8.9693	-122.821781	0.000892	8.918669	3.021727	0.000357
1785	1.7751e+02	-8.9243	-122.470550	0.000882	8.817321	2.987389	0.000353
1786	1.7761e+02	-8.8714	-122.070873	0.001003	10.033503	3.399443	0.000402
1787	1.7771e+02	-8.8361	-121.719643	0.000882	8.817321	2.987389	0.000353
1788	1.7781e+02	-8.7960	-121.352263	0.000922	9.222715	3.124740	0.000369
1789	1.7791e+02	-8.7591	-120.976810	0.000943	9.425412	3.193416	0.000377
1790	1.7801e+02	-8.7142	-120.645764	0.000831	8.310578	2.815700	0.000333
1791	1.7810e+02	-8.6789	-120.290496	0.000892	8.918669	3.021727	0.000357
1792	1.7820e+02	-8.6420	-119.874671	0.001044	10.438897	3.536794	0.000418
1793	1.7830e+02	-8.6003	-119.483069	0.000983	9.830806	3.330767	0.000394
1794	1.7840e+02	-8.5634	-119.156061	0.000821	8.209230	2.781362	0.000329
1795	1.7850e+02	-8.5265	-118.804830	0.000882	8.817321	2.987389	0.000353
1796	1.7860e+02	-8.4896	-118.413228	0.000983	9.830806	3.330767	0.000394
1797	1.7870e+02	-8.4367	-118.057960	0.000892	8.918669	3.021727	0.000357
1798	1.7880e+02	-8.4078	-117.678470	0.000953	9.526761	3.227754	0.000381
1799	1.7890e+02	-8.3677	-117.343387	0.000841	8.411927	2.850038	0.000337
1800	1.7900e+02	-8.3196	-116.871042	0.001186	11.857776	4.017523	0.000475
1801	1.7910e+02	-8.2955	-116.487515	0.000963	9.628109	3.262092	0.000385
1802	1.7920e+02	-8.2490	-116.124172	0.000912	9.121367	3.090403	0.000365
1803	1.7930e+02	-8.2089	-115.764867	0.000902	9.020018	3.056065	0.000361
1804	1.7940e+02	-8.1655	-115.413636	0.000882	8.817321	2.987389	0.000353
1805	1.7950e+02	-8.1222	-115.038183	0.000943	9.425412	3.193416	0.000377
1806	1.7960e+02	-8.0773	-114.642544	0.000993	9.932155	3.365105	0.000398
1807	1.7970e+02	-8.0404	-114.267090	0.000943	9.425412	3.193416	0.000377
1808	1.7980e+02	-8.0003	-113.919896	0.000872	8.715972	2.953051	0.000349
1809	1.7990e+02	-7.9618	-113.560591	0.000902	9.020018	3.056065	0.000361
1810	1.8000e+02	-7.9233	-113.205323	0.000892	8.918669	3.021727	0.000357
1811	1.8009e+02	-7.8832	-112.777387	0.001074	10.742943	3.639808	0.000430
1812	1.8019e+02	-7.8511	-112.422119	0.000892	8.918669	3.021727	0.000357
1813	1.8029e+02	-7.8046	-112.034554	0.000973	9.729458	3.296429	0.000390
1814	1.8039e+02	-7.7517	-111.663137	0.000932	9.324064	3.159078	0.000373
1815	1.8049e+02	-7.7244	-111.295758	0.000922	9.222715	3.124740	0.000369
1816	1.8059e+02	-7.6827	-110.916267	0.000953	9.526761	3.227754	0.000381
1817	1.8069e+02	-7.6474	-110.512554	0.001013	10.134852	3.433781	0.000406
1818	1.8079e+02	-7.5976	-110.120952	0.000983	9.830806	3.330767	0.000394
1819	1.8089e+02	-7.5640	-109.733386	0.000973	9.729458	3.296429	0.000390
1820	1.8099e+02	-7.5255	-109.337747	0.000993	9.932155	3.365105	0.000398
1821	1.8109e+02	-7.4966	-108.946145	0.000983	9.830806	3.330767	0.000394
1822	1.8119e+02	-7.4517	-108.566654	0.000953	9.526761	3.227754	0.000381
1823	1.8129e+02	-7.4035	-108.203312	0.000912	9.121367	3.090403	0.000365
1824	1.8139e+02	-7.3714	-107.835933	0.000922	9.222715	3.124740	0.000369
1825	1.8149e+02	-7.3169	-107.444331	0.000983	9.830806	3.330767	0.000394
1826	1.8159e+02	-7.2864	-107.060803	0.000963	9.628109	3.262092	0.000385
1827	1.8169e+02	-7.2495	-106.677275	0.000963	9.628109	3.262092	0.000385
1828	1.8179e+02	-7.1966	-106.261450	0.001044	10.438897	3.536794	0.000418
1829	1.8189e+02	-7.1677	-105.926367	0.000841	8.411927	2.850038	0.000337
1830	1.8199e+02	-7.1276	-105.522654	0.001013	10.134852	3.433781	0.000406
1831	1.8209e+02	-7.0891	-105.139126	0.000963	9.628109	3.262092	0.000385
1832	1.8218e+02	-7.0538	-104.759635	0.000953	9.526761	3.227754	0.000381
1833	1.8228e+02	-7.0137	-104.331699	0.001074	10.742943	3.639808	0.000430
1834	1.8238e+02	-6.9640	-103.944134	0.000973	9.729458	3.296429	0.000390
1835	1.8248e+02	-6.9319	-103.556569	0.000973	9.729458	3.296429	0.000390
1836	1.8258e+02	-6.8822	-103.132670	0.001064	10.641594	3.605470	0.000426
1837	1.8268e+02	-6.8501	-102.773364	0.000902	9.020018	3.056065	0.000361
1838	1.8278e+02	-6.8164	-102.337354	0.001095	10.945640	3.708483	0.000438
1839	1.8288e+02	-6.7731	-101.978049	0.000902	9.020018	3.056065	0.000361
1840	1.8298e+02	-6.7249	-101.574335	0.001013	10.134852	3.433781	0.000406
1841	1.8308e+02	-6.6816	-101.231179	0.000861	8.614624	2.918714	0.000345
1842	1.8318e+02	-6.6415	-100.803242	0.001074	10.742943	3.639808	0.000430
1843	1.8328e+02	-6.6062	-100.427789	0.000943	9.425412	3.193416	0.000377
1844	1.8338e+02	-6.5693	-100.028112	0.001003	10.033503	3.399443	0.000402
1845	1.8348e+02	-6.5180	-99.684956	0.000861	8.614624	2.918714	0.000345
1846	1.8358e+02	-6.4891	-99.265094	0.001054	10.540246	3.571132	0.000422
1847	1.8368e+02	-6.4490	-98.885603	0.000953	9.526761	3.227754	0.000381
1848	1.8378e+02	-6.4073	-98.489963	0.000993	9.932155	3.365105	0.000398
1849	1.8388e+02	-6.3752	-98.106436	0.000963	9.628109	3.262092	0.000385
1850	1.8398e+02	-6.3335	-97.714833	0.000983	9.830806	3.330767	0.000394
1851	1.8407e+02	-6.2982	-97.335343	0.000953	9.526761	3.227754	0.000381
1852	1.8417e+02	-6.2453	-96.939703	0.000993	9.932155	3.365105	0.000398
1853	1.8427e+02	-6.2196	-96.511767	0.001074	10.742943	3.639808	0.000430
1854	1.8437e+02	-6.1779	-96.075756	0.001095	10.945640	3.708483	0.000438
1855	1.8447e+02	-6.1346	-95.659931	0.001044	10.438897	3.536794	0.000418
1856	1.8457e+02	-6.1041	-95.296589	0.000912	9.121367	3.090403	0.000365
1857	1.8467e+02	-6.0576	-94.876727	0.001054	10.540246	3.571132	0.000422
1858	1.8477e+02	-6.0111	-94.468976	0.001024	10.236200	3.468119	0.000410
1859	1.8487e+02	-5.9694	-94.085448	0.000963	9.628109	3.262092	0.000385
1860	1.8497e+02	-5.9308	-93.701920	0.000963	9.628109	3.262092	0.000385
1861	1.8507e+02	-5.8956	-93.314355	0.000973	9.729458	3.296429	0.000390
1862	1.8517e+02	-5.8458	-92.902568	0.001034	10.337549	3.502456	0.000414
1863	1.8527e+02	-5.8186	-92.490780	0.001034	10.337549	3.502456	0.000414
1864	1.8537e+02	-5.7752	-92.115326	0.000943	9.425412	3.193416	0.000377
1865	1.8547e+02	-5.7303	-91.683353	0.001084	10.844291	3.674145	0.000434
1866	1.8557e+02	-5.6950	-91.283676	0.001003	10.033503	3.399443	0.000402
1867	1.8567e+02	-5.6565	-90.884000	0.001003	10.033503	3.399443	0.000402
1868	1.8577e+02	-5.6100	-90.452026	0.001084	10.844291	3.674145	0.000434
1869	1.8587e+02	-5.5843	-90.068498	0.000963	9.628109	3.262092	0.000385
1870	1.8597e+02	-5.5362	-89.664785	0.001013	10.134852	3.433781	0.000406
1871	1.8606e+02	-5.4945	-89.240885	0.001064	10.641594	3.605470	0.000426
1872	1.8616e+02	-5.4624	-88.800838	0.001105	11.046988	3.742821	0.000442
1873	1.8626e+02	-5.4191	-88.421347	0.000953	9.526761	3.227754	0.000381
1874	1.8636e+02	-5.3597	-87.961113	0.001155	11.553731	3.914510	0.000463
1875	1.8646e+02	-5.3309	-87.561437	0.001003	10.033503	3.399443	0.000402
1876	1.8656e+02	-5.2956	-87.149649	0.001034	10.337549	3.502456	0.000414
1877	1.8666e+02	-5.2587	-86.766121	0.000963	9.628109	3.262092	0.000385
1878	1.8676e+02	-5.2186	-86.398742	0.000922	9.222715	3.124740	0.000369
1879	1.8686e+02	-5.1801	-86.003103	0.000993	9.932155	3.365105	0.000398
1880	1.8696e+02	-5.1464	-85.550943	0.001135	11.351034	3.845834	0.000454
1881	1.8706e+02	-5.0950	-85.131081	0.001054	10.540246	3.571132	0.000422
1882	1.8716e+02	-5.0630	-84.723331	0.001024	10.236200	3.468119	0.000410
1883	1.8726e+02	-5.0245	-84.368063	0.000892	8.918669	3.021727	0.000357
1884	1.8736e+02	-4.9763	-83.915903	0.001135	11.351034	3.845834	0.000454
1885	1.8746e+02	-4.9346	-83.487967	0.001074	10.742943	3.639808	0.000430
1886	1.8756e+02	-4.8961	-83.072142	0.001044	10.438897	3.536794	0.000418
1887	1.8766e+02	-4.8560	-82.676503	0.000993	9.932155	3.365105	0.000398
1888	1.8776e+02	-4.8143	-82.240492	0.001095	10.945640	3.708483	0.000438
1889	1.8786e+02	-4.7742	-81.747962	0.001236	12.364519	4.189212	0.000495
1890	1.8796e+02	-4.7469	-81.364434	0.000963	9.628109	3.262092	0.000385
1891	1.8806e+02	-4.6940	-80.936497	0.001074	10.742943	3.639808	0.000430
1892	1.8815e+02	-4.6651	-80.504524	0.001084	10.844291	3.674145	0.000434
1893	1.8825e+02	-4.6202	-80.092736	0.001034	10.337549	3.502456	0.000414
1894	1.8835e+02	-4.5721	-79.697097	0.000993	9.932155	3.365105	0.000398
1895	1.8845e+02	-4.5352	-79.309532	0.000973	9.729458	3.296429	0.000390
1896	1.8855e+02	-4.4999	-78.889669	0.001054	10.540246	3.571132	0.000422
1897	1.8865e+02	-4.4598	-78.441547	0.001125	11.249685	3.811497	0.000450
1898	1.8875e+02	-4.4132	-78.037834	0.001013	10.134852	3.433781	0.000406
1899	1.8885e+02	-4.3812	-77.577600	0.001155	11.553731	3.914510	0.000463
1900	1.8895e+02	-4.3394	-77.190035	0.000973	9.729458	3.296429	0.000390
1901	1.8905e+02	-4.2977	-76.754025	0.001095	10.945640	3.708483	0.000438
1902	1.8915e+02	-4.2641	-76.334163	0.001054	10.540246	3.571132	0.000422
1903	1.8925e+02	-4.2111	-75.890078	0.001115	11.148337	3.777159	0.000446
1904	1.8935e+02	-4.1806	-75.530773	0.000902	9.020018	3.056065	0.000361
1905	1.8945e+02	-4.1485	-75.042279	0.001226	12.263171	4.154875	0.000491
1906	1.8955e+02	-4.1052	-74.650677	0.000983	9.830806	3.330767	0.000394
1907	1.8965e+02	-4.0651	-74.214666	0.001095	10.945640	3.708483	0.000438
1908	1.8975e+02	-4.0298	-73.770581	0.001115	11.148337	3.777159	0.000446
1909	1.8985e+02	-3.9801	-73.314385	0.001145	11.452382	3.880172	0.000458
1910	1.8995e+02	-3.9448	-72.890486	0.001064	10.641594	3.605470	0.000426
1911	1.9004e+02	-3.8999	-72.486772	0.001013	10.134852	3.433781	0.000406
1912	1.9014e+02	-3.8662	-72.083059	0.001013	10.134852	3.433781	0.000406
1913	1.9024e+02	-3.8213	-71.671271	0.001034	10.337549	3.502456	0.000414
1914	1.9034e+02	-3.7844	-71.219112	0.001135	11.351034	3.845834	0.000454
1915	1.9044e+02	-3.7427	-70.819435	0.001003	10.033503	3.399443	0.000402
1916	1.9054e+02	-3.7106	-70.355165	0.001166	11.655079	3.948848	0.000467
1917	1.9064e+02	-3.6705	-69.951451	0.001013	10.134852	3.433781	0.000406
1918	1.9074e+02	-3.6272	-69.487180	0.001166	11.655079	3.948848	0.000467
1919	1.9084e+02	-3.5774	-69.075392	0.001034	10.337549	3.502456	0.000414
1920	1.9094e+02	-3.5389	-68.631308	0.001115	11.148337	3.777159	0.000446
1921	1.9104e+02	-3.5085	-68.215483	0.001044	10.438897	3.536794	0.000418
1922	1.9114e+02	-3.4700	-67.735063	0.001206	12.060474	4.086199	0.000483
1923	1.9124e+02	-3.4234	-67.343461	0.000983	9.830806	3.330767	0.000394
1924	1.9134e+02	-3.3817	-66.891302	0.001135	11.351034	3.845834	0.000454
1925	1.9144e+02	-3.3512	-66.439143	0.001135	11.351034	3.845834	0.000454
1926	1.9154e+02	-3.3015	-65.938538	0.001257	12.567216	4.257888	0.000503
1927	1.9164e+02	-3.2582	-65.575196	0.000912	9.121367	3.090403	0.000365
1928	1.9174e+02	-3.2309	-65.131111	0.001115	11.148337	3.777159	0.000446
1929	1.9184e+02	-3.1796	-64.691063	0.001105	11.046988	3.742821	0.000442
1930	1.9194e+02	-3.1459	-64.271201	0.001054	10.540246	3.571132	0.000422
1931	1.9203e+02	-3.0978	-63.835190	0.001095	10.945640	3.708483	0.000438
1932	1.9213e+02	-3.0609	-63.387068	0.001125	11.249685	3.811497	0.000450
1933	1.9223e+02	-3.0224	-62.947020	0.001105	11.046988	3.742821	0.000442
1934	1.9233e+02	-2.9903	-62.474676	0.001186	11.857776	4.017523	0.000475
1935	1.9243e+02	-2.9390	-62.115370	0.000902	9.020018	3.056065	0.000361
1936	1.9253e+02	-2.8988	-61.610728	0.001267	12.668565	4.292226	0.000507
1937	1.9263e+02	-2.8603	-61.182792	0.001074	10.742943	3.639808	0.000430
1938	1.9273e+02	-2.8283	-60.734670	0.001125	11.249685	3.811497	0.000450
1939	1.9283e+02	-2.7946	-60.290585	0.001115	11.148337	3.777159	0.000446
1940	1.9293e+02	-2.7513	-59.842463	0.001125	11.249685	3.811497	0.000450
1941	1.9303e+02	-2.7095	-59.406452	0.001095	10.945640	3.708483	0.000438
1942	1.9313e+02	-2.6646	-58.974479	0.001084	10.844291	3.674145	0.000434
1943	1.9323e+02	-2.6181	-58.477911	0.001247	12.465868	4.223550	0.000499
1944	1.9333e+02	-2.5812	-58.033826	0.001115	11.148337	3.777159	0.000446
1945	1.9343e+02	-2.5459	-57.593778	0.001105	11.046988	3.742821	0.000442
1946	1.9353e+02	-2.5074	-57.181991	0.001034	10.337549	3.502456	0.000414
1947	1.9363e+02	-2.4657	-56.721757	0.001155	11.553731	3.914510	0.000463
1948	1.9373e+02	-2.4320	-56.293821	0.001074	10.742943	3.639808	0.000430
1949	1.9383e+02	-2.3871	-55.821476	0.001186	11.857776	4.017523	0.000475
1950	1.9393e+02	-2.3454	-55.409688	0.001034	10.337549	3.502456	0.000414
1951	1.9403e+02	-2.3005	-54.941380	0.001176	11.756428	3.983186	0.000471
1952	1.9412e+02	-2.2764	-54.497295	0.001115	11.148337	3.777159	0.000446
1953	1.9422e+02	-2.2347	-54.073396	0.001064	10.641594	3.605470	0.000426
1954	1.9432e+02	-2.1914	-53.625274	0.001125	11.249685	3.811497	0.000450
1955	1.9442e+02	-2.1545	-53.128706	0.001247	12.465868	4.223550	0.000499
1956	1.9452e+02	-2.1048	-52.696733	0.001084	10.844291	3.674145	0.000434
1957	1.9462e+02	-2.0807	-52.260722	0.001095	10.945640	3.708483	0.000438
1958	1.9472e+02	-2.0278	-51.836823	0.001064	10.641594	3.605470	0.000426
1959	1.9482e+02	-1.9941	-51.336218	0.001257	12.567216	4.257888	0.000503
1960	1.9492e+02	-1.9524	-50.871947	0.001166	11.655079	3.948848	0.000467
1961	1.9502e+02	-1.9203	-50.391528	0.001206	12.060474	4.086199	0.000483
1962	1.9512e+02	-1.8705	-49.975703	0.001044	10.438897	3.536794	0.000418
1963	1.9522e+02	-1.8368	-49.539693	0.001095	10.945640	3.708483	0.000438
1964	1.9532e+02	-1.7871	-49.111756	0.001074	10.742943	3.639808	0.000430
1965	1.9542e+02	-1.7534	-48.631337	0.001206	12.060474	4.086199	0.000483
1966	1.9552e+02	-1.7053	-48.175141	0.001145	11.452382	3.880172	0.000458
1967	1.9562e+02	-1.6684	-47.731056	0.001115	11.148337	3.777159	0.000446
1968	1.9572e+02	-1.6267	-47.282934	0.001125	11.249685	3.811497	0.000450
1969	1.9582e+02	-1.5802	-46.830775	0.001135	11.351034	3.845834	0.000454
1970	1.9592e+02	-1.5513	-46.354393	0.001196	11.959125	4.051861	0.000479
1971	1.9601e+02	-1.5160	-45.918382	0.001095	10.945640	3.708483	0.000438
1972	1.9611e+02	-1.4791	-45.425851	0.001236	12.364519	4.189212	0.000495
1973	1.9621e+02	-1.4326	-44.993878	0.001084	10.844291	3.674145	0.000434
1974	1.9631e+02	-1.3925	-44.553830	0.001105	11.046988	3.742821	0.000442
1975	1.9641e+02	-1.3508	-44.093597	0.001155	11.553731	3.914510	0.000463
1976	1.9651e+02	-1.3187	-43.633363	0.001155	11.553731	3.914510	0.000463
1977	1.9661e+02	-1.2641	-43.140832	0.001236	12.364519	4.189212	0.000495
1978	1.9671e+02	-1.2272	-42.680599	0.001155	11.553731	3.914510	0.000463
1979	1.9681e+02	-1.1903	-42.244588	0.001095	10.945640	3.708483	0.000438
1980	1.9691e+02	-1.1486	-41.784355	0.001155	11.553731	3.914510	0.000463
1981	1.9701e+02	-1.1133	-41.320084	0.001166	11.655079	3.948848	0.000467
1982	1.9711e+02	-1.0716	-40.847739	0.001186	11.857776	4.017523	0.000475
1983	1.9721e+02	-1.0347	-40.444026	0.001013	10.134852	3.433781	0.000406
1984	1.9731e+02	-1.0026	-39.955532	0.001226	12.263171	4.154875	0.000491
1985	1.9741e+02	-0.9513	-39.491262	0.001166	11.655079	3.948848	0.000467
1986	1.9751e+02	-0.9096	-39.031028	0.001155	11.553731	3.914510	0.000463
1987	1.9761e+02	-0.8679	-38.526386	0.001267	12.668565	4.292226	0.000507
1988	1.9771e+02	-0.8294	-38.142858	0.000963	9.628109	3.262092	0.000385
1989	1.9781e+02	-0.7941	-37.622068	0.001307	13.073959	4.429577	0.000523
1990	1.9791e+02	-0.7556	-37.133575	0.001226	12.263171	4.154875	0.000491
1991	1.9800e+02	-0.7171	-36.713712	0.001054	10.540246	3.571132	0.000422
1992	1.9810e+02	-0.6770	-36.261553	0.001135	11.351034	3.845834	0.000454
1993	1.9820e+02	-0.6321	-35.781134	0.001206	12.060474	4.086199	0.000483
1994	1.9830e+02	-0.5984	-35.284566	0.001247	12.465868	4.223550	0.000499
1995	1.9840e+02	-0.5519	-34.792036	0.001236	12.364519	4.189212	0.000495
1996	1.9850e+02	-0.5118	-34.380248	0.001034	10.337549	3.502456	0.000414
1997	1.9860e+02	-0.4749	-33.883680	0.001247	12.465868	4.223550	0.000499
1998	1.9870e+02	-0.4331	-33.399224	0.001216	12.161822	4.120537	0.000487
1999	1.9880e+02	-0.3978	-33.007622	0.000983	9.830806	3.330767	0.000394
2000	1.9890e+02	-0.3545	-32.519128	0.001226	12.263171	4.154875	0.000491
2001	1.9900e+02	-0.3192	-32.046783	0.001186	11.857776	4.017523	0.000475
2002	1.9910e+02	-0.2791	-31.602699	0.001115	11.148337	3.777159	0.000446
2003	1.9920e+02	-0.2230	-31.118242	0.001216	12.161822	4.120537	0.000487
2004	1.9930e+02	-0.2021	-30.637823	0.001206	12.060474	4.086199	0.000483
2005	1.9940e+02	-0.1620	-30.189701	0.001125	11.249685	3.811497	0.000450
2006	1.9950e+02	-0.1107	-29.693133	0.001247	12.465868	4.223550	0.000499
2007	1.9960e+02	-0.0786	-29.220788	0.001186	11.857776	4.017523	0.000475
2008	1.9970e+02	-0.0321	-28.776704	0.001115	11.148337	3.777159	0.000446
2009	1.9980e+02	0.0064	-28.292247	0.001115	11.148337	3.777159	0.000487

PMax (uC/cm2):	2.25e+02
Pr (uC/cm2):	2.71e+01
-Pr (uC/cm2):	-6.65e+00
PLoss (uC/cm2):	-6.65e+00
-Vc:	-2.26e+00
C (Max-Eff) (nF):	1.12e+00
K (Eff):	3.81e+03
Vert. (+/-Pr) Shift (uC/cm2):	1.02e+01
Offset (uC/cm2):	2.16e+01

A (Loop Area - uC/cm2·Volts):	4.20e-02



Hysteresis Version: 5.48.1 - Radiant Technologies, Inc., 1999 - 9/12/24

