»»»»»»»»»»»»»»»»»»»»»»»»»»»»»»»»»»»» Hysteresis ««««««««««««««««««««««««««««««««««««
»»»  Executed Version:	5.48.1
»»»  Vision Version:	5.48.4 (R)
»»»  Vision Compiled:	9/18/24
»»»  Driver Version:	5.47.0
»»»  Windows Version:	Windows 8 or 8.1
»»»  Processor Information:	x86 (AMD or Intel) - 32 Processors
»»»  Tester Name:	PMF21124-494 (100V)
»»»  Tester S/N:	PMF21124-494
»»»  Internal Amp Type:	100V RevK 270k
»»»  Internal Amp S/N:	iAB2-596/K     
»»»  Execution Count:	1
»»»»»»»»»»»»»»»»»»»»»»»»»»»»»»»»»»»»»»»»»»««««««««««««««««««««««««««««««««««««««««««

Stored:	6/18/2025 - 17:1:34
Configured:	06/18/25 09:47:30 AM
Executed:	06/18/25 05:00:58 PM

»»»»»»»»»»»»»»»»»»»»»»»»»»»»»»»»»»» Sample Info ««««««««««««««««««««««««««««««««««««
Sample Name:	
Lot Name:	
Wafer Name:	
Die Row/Column:	0/0
Capacitor Number:	0
Sample Area (cm2):	1.00e-04
Sample Thickness (microns):	3.00e-01

Amplifier:	Internal

»»»»»»»»»»»»»»»»»»»»»»»»»»»»»»»»»»» Tester Info «««««««««««««««««««««««««««««««««««
Tester Name:	PMF21124-494 (100V)
Tester Serial Number:	PMF21124-494
Return Signal Amp. Level:	0.19 [Index: 3]

»»»»»»»»»»»»»»»»»»»»»»»»»»»»»»»» Hysteresis Info ««««««««««««««««««««««««««««««««««
Task Name:	Hyst-554
Volts:	20.00
Field:	666.67 (kV/cm)
DCBias:	0.00
DCField:	0.00 (kV/cm)
Hysteresis Period (ms):	2.00e+02
Preset:	Enabled
Preset Delay (ms):	1.00e+03
Profile:	Standard Bipolar

»»»»»»»»»»»»»»»»»»»»»»»»»»»»»»»»»»»»»» Data «««««««««««««««««««««««««««««««««««««««
Points:	2009

Valid Data

Point	Time (ms)	Drive Voltage	Measured Polarization (uC/cm2)	Capacitance (uF)	Normalized Capacitance (uF/cm2)	Dielectric Constant	Instantaneous Current (mA)
   1	0.0000e+00	0.0096	-17.953143	0.000598	5.979682	2.025971	0.000239
   2	9.9500e-02	0.0401	-17.714952	0.000598	5.979682	2.025971	0.000239
   3	1.9900e-01	0.0722	-17.472723	0.000608	6.081033	2.060310	0.000243
   4	2.9850e-01	0.1075	-17.105344	0.000922	9.222900	3.124803	0.000369
   5	3.9800e-01	0.1652	-16.782373	0.000811	8.108044	2.747080	0.000325
   6	4.9750e-01	0.1893	-16.515922	0.000669	6.689136	2.266341	0.000268
   7	5.9700e-01	0.2358	-16.164691	0.000882	8.817498	2.987449	0.000353
   8	6.9650e-01	0.2759	-15.813461	0.000882	8.817498	2.987449	0.000353
   9	7.9600e-01	0.3144	-15.522787	0.000730	7.297240	2.472372	0.000292
  10	8.9550e-01	0.3610	-15.163482	0.000902	9.020199	3.056126	0.000361
  11	9.9500e-01	0.3898	-14.828400	0.000841	8.412096	2.850095	0.000337
  12	1.0945e+00	0.4331	-14.521577	0.000770	7.702642	2.609726	0.000308
  13	1.1940e+00	0.4797	-14.150161	0.000932	9.324251	3.159142	0.000373
  14	1.2935e+00	0.5166	-13.794893	0.000892	8.918848	3.021788	0.000357
  15	1.3930e+00	0.5535	-13.471922	0.000811	8.108044	2.747080	0.000325
  16	1.4925e+00	0.5904	-13.161063	0.000780	7.803992	2.644064	0.000312
  17	1.5920e+00	0.6337	-12.801757	0.000902	9.020199	3.056126	0.000361
  18	1.6915e+00	0.6706	-12.410155	0.000983	9.831003	3.330834	0.000394
  19	1.7910e+00	0.7107	-12.111407	0.000750	7.499941	2.541049	0.000300
  20	1.8905e+00	0.7476	-11.723842	0.000973	9.729653	3.296496	0.000390
  21	1.9900e+00	0.7957	-11.368574	0.000892	8.918848	3.021788	0.000357
  22	2.0895e+00	0.8326	-11.025418	0.000861	8.614797	2.918772	0.000345
  23	2.1890e+00	0.8727	-10.686298	0.000851	8.513446	2.884434	0.000341
  24	2.2885e+00	0.9112	-10.347179	0.000851	8.513446	2.884434	0.000341
  25	2.3880e+00	0.9561	-10.016134	0.000831	8.310745	2.815757	0.000333
  26	2.4875e+00	0.9978	-9.620494	0.000993	9.932354	3.365173	0.000398
  27	2.5870e+00	1.0331	-9.265227	0.000892	8.918848	3.021788	0.000357
  28	2.6865e+00	1.0684	-8.913996	0.000882	8.817498	2.987449	0.000353
  29	2.7860e+00	1.1101	-8.562765	0.000882	8.817498	2.987449	0.000353
  30	2.8855e+00	1.1486	-8.163088	0.001003	10.033704	3.399511	0.000402
  31	2.9850e+00	1.2000	-7.828006	0.000841	8.412096	2.850095	0.000337
  32	3.0845e+00	1.2288	-7.444478	0.000963	9.628302	3.262157	0.000385
  33	3.1840e+00	1.2657	-7.081136	0.000912	9.121549	3.090465	0.000365
  34	3.2835e+00	1.3042	-6.705682	0.000943	9.425601	3.193480	0.000377
  35	3.3830e+00	1.3508	-6.374637	0.000831	8.310745	2.815757	0.000333
  36	3.4825e+00	1.3893	-5.991109	0.000963	9.628302	3.262157	0.000385
  37	3.5820e+00	1.4326	-5.611619	0.000953	9.526952	3.227819	0.000381
  38	3.6815e+00	1.4743	-5.288648	0.000811	8.108044	2.747080	0.000325
  39	3.7810e+00	1.5080	-4.905120	0.000963	9.628302	3.262157	0.000385
  40	3.8805e+00	1.5449	-4.521592	0.000963	9.628302	3.262157	0.000385
  41	3.9800e+00	1.5930	-4.150176	0.000932	9.324251	3.159142	0.000373
  42	4.0795e+00	1.6347	-3.774722	0.000943	9.425601	3.193480	0.000377
  43	4.1790e+00	1.6684	-3.383120	0.000983	9.831003	3.330834	0.000394
  44	4.2785e+00	1.7053	-3.035926	0.000872	8.716147	2.953111	0.000349
  45	4.3780e+00	1.7518	-2.672584	0.000912	9.121549	3.090465	0.000365
  46	4.4775e+00	1.7935	-2.329427	0.000861	8.614797	2.918772	0.000345
  47	4.5770e+00	1.8256	-1.905528	0.001064	10.641808	3.605542	0.000426
  48	4.6765e+00	1.8625	-1.526037	0.000953	9.526952	3.227819	0.000381
  49	4.7760e+00	1.9187	-1.166732	0.000902	9.020199	3.056126	0.000361
  50	4.8755e+00	1.9395	-0.827613	0.000851	8.513446	2.884434	0.000341
  51	4.9750e+00	1.9909	-0.391602	0.001095	10.945859	3.708558	0.000438
  52	5.0745e+00	2.0294	-0.052483	0.000851	8.513446	2.884434	0.000341
  53	5.1740e+00	2.0598	0.298748	0.000882	8.817498	2.987449	0.000353
  54	5.2735e+00	2.1112	0.686313	0.000973	9.729653	3.296496	0.000390
  55	5.3730e+00	2.1513	1.081952	0.000993	9.932354	3.365173	0.000398
  56	5.4725e+00	2.1882	1.429146	0.000872	8.716147	2.953111	0.000349
  57	5.5720e+00	2.2267	1.840934	0.001034	10.337756	3.502527	0.000414
  58	5.6715e+00	2.2716	2.212350	0.000932	9.324251	3.159142	0.000373
  59	5.7710e+00	2.2989	2.595878	0.000963	9.628302	3.262157	0.000385
  60	5.8705e+00	2.3502	2.995555	0.001003	10.033704	3.399511	0.000402
  61	5.9700e+00	2.3855	3.322563	0.000821	8.209395	2.781418	0.000329
  62	6.0695e+00	2.4288	3.714165	0.000983	9.831003	3.330834	0.000394
  63	6.1690e+00	2.4673	4.121916	0.001024	10.236406	3.468188	0.000410
  64	6.2685e+00	2.5058	4.485258	0.000912	9.121549	3.090465	0.000365
  65	6.3680e+00	2.5395	4.888971	0.001014	10.135055	3.433850	0.000406
  66	6.4675e+00	2.5924	5.304796	0.001044	10.439107	3.536865	0.000418
  67	6.5670e+00	2.6293	5.651990	0.000872	8.716147	2.953111	0.000349
  68	6.6665e+00	2.6646	6.067815	0.001044	10.439107	3.536865	0.000418
  69	6.7660e+00	2.7031	6.431157	0.000912	9.121549	3.090465	0.000365
  70	6.8655e+00	2.7448	6.834871	0.001014	10.135055	3.433850	0.000406
  71	6.9650e+00	2.7801	7.214362	0.000953	9.526952	3.227819	0.000381
  72	7.0645e+00	2.8218	7.642298	0.001074	10.743158	3.639881	0.000430
  73	7.1640e+00	2.8571	8.001603	0.000902	9.020199	3.056126	0.000361
  74	7.2635e+00	2.9085	8.368982	0.000922	9.222900	3.124803	0.000369
  75	7.3630e+00	2.9406	8.768659	0.001003	10.033704	3.399511	0.000402
  76	7.4625e+00	2.9903	9.172372	0.001014	10.135055	3.433850	0.000406
  77	7.5620e+00	3.0320	9.519566	0.000872	8.716147	2.953111	0.000349
  78	7.6615e+00	3.0641	9.927317	0.001024	10.236406	3.468188	0.000410
  79	7.7610e+00	3.1106	10.367365	0.001105	11.047210	3.742896	0.000442
  80	7.8605e+00	3.1459	10.750892	0.000963	9.628302	3.262157	0.000385
  81	7.9600e+00	3.1780	11.122309	0.000932	9.324251	3.159142	0.000373
  82	8.0595e+00	3.2213	11.489688	0.000922	9.222900	3.124803	0.000369
  83	8.1590e+00	3.2614	11.905513	0.001044	10.439107	3.536865	0.000418
  84	8.2585e+00	3.2999	12.305190	0.001003	10.033704	3.399511	0.000402
  85	8.3580e+00	3.3496	12.696792	0.000983	9.831003	3.330834	0.000394
  86	8.4575e+00	3.3769	13.076283	0.000953	9.526952	3.227819	0.000381
  87	8.5570e+00	3.4266	13.443662	0.000922	9.222900	3.124803	0.000369
  88	8.6565e+00	3.4571	13.879673	0.001095	10.945859	3.708558	0.000438
  89	8.7560e+00	3.5101	14.287423	0.001024	10.236406	3.468188	0.000410
  90	8.8555e+00	3.5421	14.687100	0.001003	10.033704	3.399511	0.000402
  91	8.9550e+00	3.5823	15.034293	0.000872	8.716147	2.953111	0.000349
  92	9.0545e+00	3.6256	15.450118	0.001044	10.439107	3.536865	0.000418
  93	9.1540e+00	3.6593	15.886129	0.001095	10.945859	3.708558	0.000438
  94	9.2535e+00	3.7026	16.257546	0.000932	9.324251	3.159142	0.000373
  95	9.3530e+00	3.7427	16.669333	0.001034	10.337756	3.502527	0.000414
  96	9.4525e+00	3.7796	17.044787	0.000943	9.425601	3.193480	0.000377
  97	9.5520e+00	3.8197	17.468686	0.001064	10.641808	3.605542	0.000426
  98	9.6515e+00	3.8566	17.836066	0.000922	9.222900	3.124803	0.000369
  99	9.7510e+00	3.9127	18.231705	0.000993	9.932354	3.365173	0.000398
 100	9.8505e+00	3.9416	18.700013	0.001176	11.756664	3.983266	0.000471
 101	9.9500e+00	3.9849	19.083541	0.000963	9.628302	3.262157	0.000385
 102	1.0050e+01	4.0170	19.458994	0.000943	9.425601	3.193480	0.000377
 103	1.0149e+01	4.0683	19.903079	0.001115	11.148560	3.777235	0.000446
 104	1.0248e+01	4.0988	20.274496	0.000932	9.324251	3.159142	0.000373
 105	1.0348e+01	4.1405	20.653986	0.000953	9.526952	3.227819	0.000381
 106	1.0447e+01	4.1758	21.057700	0.001014	10.135055	3.433850	0.000406
 107	1.0547e+01	4.2207	21.481599	0.001064	10.641808	3.605542	0.000426
 108	1.0646e+01	4.2592	21.877239	0.000993	9.932354	3.365173	0.000398
 109	1.0746e+01	4.3009	22.317286	0.001105	11.047210	3.742896	0.000442
 110	1.0845e+01	4.3459	22.716963	0.001003	10.033704	3.399511	0.000402
 111	1.0945e+01	4.3812	23.088379	0.000932	9.324251	3.159142	0.000373
 112	1.1044e+01	4.4261	23.492093	0.001014	10.135055	3.433850	0.000406
 113	1.1144e+01	4.4485	23.895806	0.001014	10.135055	3.433850	0.000406
 114	1.1243e+01	4.5063	24.267223	0.000932	9.324251	3.159142	0.000373
 115	1.1343e+01	4.5432	24.674974	0.001024	10.236406	3.468188	0.000410
 116	1.1443e+01	4.5753	25.070613	0.000993	9.932354	3.365173	0.000398
 117	1.1542e+01	4.6154	25.450104	0.000953	9.526952	3.227819	0.000381
 118	1.1642e+01	4.6635	25.914374	0.001166	11.655313	3.948927	0.000467
 119	1.1741e+01	4.6988	26.281754	0.000922	9.222900	3.124803	0.000369
 120	1.1841e+01	4.7453	26.733913	0.001135	11.351262	3.845912	0.000454
 121	1.1940e+01	4.7774	27.109366	0.000943	9.425601	3.193480	0.000377
 122	1.2040e+01	4.8111	27.553451	0.001115	11.148560	3.777235	0.000446
 123	1.2139e+01	4.8592	27.953128	0.001003	10.033704	3.399511	0.000402
 124	1.2239e+01	4.8897	28.368953	0.001044	10.439107	3.536865	0.000418
 125	1.2338e+01	4.9346	28.752481	0.000963	9.628302	3.262157	0.000385
 126	1.2438e+01	4.9860	29.172343	0.001054	10.540457	3.571204	0.000422
 127	1.2537e+01	5.0196	29.628539	0.001145	11.452612	3.880250	0.000458
 128	1.2636e+01	5.0614	30.016104	0.000973	9.729653	3.296496	0.000390
 129	1.2736e+01	5.0870	30.387521	0.000932	9.324251	3.159142	0.000373
 130	1.2835e+01	5.1351	30.811420	0.001064	10.641808	3.605542	0.000426
 131	1.2935e+01	5.1849	31.251468	0.001105	11.047210	3.742896	0.000442
 132	1.3034e+01	5.2218	31.610773	0.000902	9.020199	3.056126	0.000361
 133	1.3134e+01	5.2555	32.075043	0.001166	11.655313	3.948927	0.000467
 134	1.3233e+01	5.3004	32.393977	0.000801	8.006693	2.712741	0.000321
 135	1.3333e+01	5.3261	32.850174	0.001145	11.452612	3.880250	0.000458
 136	1.3432e+01	5.3838	33.265998	0.001044	10.439107	3.536865	0.000418
 137	1.3532e+01	5.4143	33.710083	0.001115	11.148560	3.777235	0.000446
 138	1.3632e+01	5.4480	34.061314	0.000882	8.817498	2.987449	0.000353
 139	1.3731e+01	5.4977	34.517511	0.001145	11.452612	3.880250	0.000458
 140	1.3831e+01	5.5378	34.957558	0.001105	11.047210	3.742896	0.000442
 141	1.3930e+01	5.5619	35.357235	0.001003	10.033704	3.399511	0.000402
 142	1.4030e+01	5.6164	35.777097	0.001054	10.540457	3.571204	0.000422
 143	1.4129e+01	5.6613	36.196959	0.001054	10.540457	3.571204	0.000422
 144	1.4229e+01	5.6902	36.604710	0.001024	10.236406	3.468188	0.000410
 145	1.4328e+01	5.7448	36.996312	0.000983	9.831003	3.330834	0.000394
 146	1.4428e+01	5.7704	37.416174	0.001054	10.540457	3.571204	0.000422
 147	1.4527e+01	5.8186	37.836036	0.001054	10.540457	3.571204	0.000422
 148	1.4627e+01	5.8554	38.219564	0.000963	9.628302	3.262157	0.000385
 149	1.4726e+01	5.8940	38.675760	0.001145	11.452612	3.880250	0.000458
 150	1.4825e+01	5.9405	39.035065	0.000902	9.020199	3.056126	0.000361
 151	1.4925e+01	5.9726	39.475113	0.001105	11.047210	3.742896	0.000442
 152	1.5024e+01	6.0191	39.894975	0.001054	10.540457	3.571204	0.000422
 153	1.5124e+01	6.0512	40.322912	0.001074	10.743158	3.639881	0.000430
 154	1.5223e+01	6.0929	40.750848	0.001074	10.743158	3.639881	0.000430
 155	1.5323e+01	6.1314	41.126302	0.000943	9.425601	3.193480	0.000377
 156	1.5422e+01	6.1683	41.610758	0.001216	12.162066	4.120619	0.000487
 157	1.5522e+01	6.2148	41.994286	0.000963	9.628302	3.262157	0.000385
 158	1.5621e+01	6.2501	42.418185	0.001064	10.641808	3.605542	0.000426
 159	1.5721e+01	6.2886	42.813825	0.000993	9.932354	3.365173	0.000398
 160	1.5820e+01	6.3367	43.213501	0.001003	10.033704	3.399511	0.000402
 161	1.5920e+01	6.3656	43.669697	0.001145	11.452612	3.880250	0.000458
 162	1.6020e+01	6.4137	44.113782	0.001115	11.148560	3.777235	0.000446
 163	1.6119e+01	6.4586	44.477124	0.000912	9.121549	3.090465	0.000365
 164	1.6218e+01	6.4779	44.901024	0.001064	10.641808	3.605542	0.000426
 165	1.6318e+01	6.5244	45.316849	0.001044	10.439107	3.536865	0.000418
 166	1.6418e+01	6.5774	45.720562	0.001014	10.135055	3.433850	0.000406
 167	1.6517e+01	6.6062	46.136387	0.001044	10.439107	3.536865	0.000418
 168	1.6616e+01	6.6608	46.560286	0.001064	10.641808	3.605542	0.000426
 169	1.6716e+01	6.6832	46.964000	0.001014	10.135055	3.433850	0.000406
 170	1.6816e+01	6.7265	47.387899	0.001064	10.641808	3.605542	0.000426
 171	1.6915e+01	6.7634	47.819873	0.001084	10.844509	3.674219	0.000434
 172	1.7015e+01	6.8068	48.259921	0.001105	11.047210	3.742896	0.000442
 173	1.7114e+01	6.8533	48.647486	0.000973	9.729653	3.296496	0.000390
 174	1.7213e+01	6.8950	49.075422	0.001074	10.743158	3.639881	0.000430
 175	1.7313e+01	6.9207	49.479136	0.001014	10.135055	3.433850	0.000406
 176	1.7413e+01	6.9624	49.919183	0.001105	11.047210	3.742896	0.000442
 177	1.7512e+01	7.0057	50.278488	0.000902	9.020199	3.056126	0.000361
 178	1.7611e+01	7.0426	50.766982	0.001226	12.263416	4.154958	0.000491
 179	1.7711e+01	7.0891	51.178770	0.001034	10.337756	3.502527	0.000414
 180	1.7811e+01	7.1308	51.598632	0.001054	10.540457	3.571204	0.000422
 181	1.7910e+01	7.1629	51.990234	0.000983	9.831003	3.330834	0.000394
 182	1.8009e+01	7.2046	52.410096	0.001054	10.540457	3.571204	0.000422
 183	1.8109e+01	7.2399	52.854181	0.001115	11.148560	3.777235	0.000446
 184	1.8209e+01	7.2944	53.270006	0.001044	10.439107	3.536865	0.000418
 185	1.8308e+01	7.3346	53.673720	0.001014	10.135055	3.433850	0.000406
 186	1.8407e+01	7.3698	54.113767	0.001105	11.047210	3.742896	0.000442
 187	1.8507e+01	7.4083	54.549778	0.001095	10.945859	3.708558	0.000438
 188	1.8607e+01	7.4468	54.953492	0.001014	10.135055	3.433850	0.000406
 189	1.8706e+01	7.4757	55.365280	0.001034	10.337756	3.502527	0.000414
 190	1.8805e+01	7.5222	55.773030	0.001024	10.236406	3.468188	0.000410
 191	1.8905e+01	7.5640	56.221152	0.001125	11.249911	3.811573	0.000450
 192	1.9005e+01	7.6025	56.641014	0.001054	10.540457	3.571204	0.000422
 193	1.9104e+01	7.6426	57.056839	0.001044	10.439107	3.536865	0.000418
 194	1.9203e+01	7.6827	57.492850	0.001095	10.945859	3.708558	0.000438
 195	1.9303e+01	7.7212	57.940972	0.001125	11.249911	3.811573	0.000450
 196	1.9402e+01	7.7661	58.324500	0.000963	9.628302	3.262157	0.000385
 197	1.9502e+01	7.7998	58.736288	0.001034	10.337756	3.502527	0.000414
 198	1.9602e+01	7.8431	59.196521	0.001155	11.553963	3.914589	0.000463
 199	1.9701e+01	7.8800	59.620421	0.001064	10.641808	3.605542	0.000426
 200	1.9800e+01	7.9281	59.955503	0.000841	8.412096	2.850095	0.000337
 201	1.9900e+01	7.9634	60.439959	0.001216	12.162066	4.120619	0.000487
 202	2.0000e+01	8.0083	60.807338	0.000922	9.222900	3.124803	0.000369
 203	2.0099e+01	8.0532	61.271609	0.001166	11.655313	3.948927	0.000467
 204	2.0198e+01	8.0901	61.655137	0.000963	9.628302	3.262157	0.000385
 205	2.0298e+01	8.1222	62.091148	0.001095	10.945859	3.708558	0.000438
 206	2.0398e+01	8.1495	62.535233	0.001115	11.148560	3.777235	0.000446
 207	2.0497e+01	8.1944	62.922798	0.000973	9.729653	3.296496	0.000390
 208	2.0596e+01	8.2377	63.366883	0.001115	11.148560	3.777235	0.000446
 209	2.0696e+01	8.2907	63.738299	0.000932	9.324251	3.159142	0.000373
 210	2.0796e+01	8.3260	64.198533	0.001155	11.553963	3.914589	0.000463
 211	2.0895e+01	8.3581	64.622432	0.001064	10.641808	3.605542	0.000426
 212	2.0994e+01	8.4078	65.046331	0.001064	10.641808	3.605542	0.000426
 213	2.1094e+01	8.4527	65.454082	0.001024	10.236406	3.468188	0.000410
 214	2.1194e+01	8.4832	65.877981	0.001064	10.641808	3.605542	0.000426
 215	2.1293e+01	8.5217	66.249397	0.000932	9.324251	3.159142	0.000373
 216	2.1392e+01	8.5714	66.681371	0.001084	10.844509	3.674219	0.000434
 217	2.1492e+01	8.6051	67.125456	0.001115	11.148560	3.777235	0.000446
 218	2.1591e+01	8.6388	67.549355	0.001064	10.641808	3.605542	0.000426
 219	2.1691e+01	8.6693	67.969217	0.001054	10.540457	3.571204	0.000422
 220	2.1791e+01	8.7190	68.389079	0.001054	10.540457	3.571204	0.000422
 221	2.1890e+01	8.7607	68.776644	0.000973	9.729653	3.296496	0.000390
 222	2.1989e+01	8.8104	69.216692	0.001105	11.047210	3.742896	0.000442
 223	2.2089e+01	8.8441	69.612332	0.000993	9.932354	3.365173	0.000398
 224	2.2189e+01	8.8858	70.052379	0.001105	11.047210	3.742896	0.000442
 225	2.2288e+01	8.9147	70.427833	0.000943	9.425601	3.193480	0.000377
 226	2.2387e+01	8.9596	70.888066	0.001155	11.553963	3.914589	0.000463
 227	2.2487e+01	8.9965	71.263520	0.000943	9.425601	3.193480	0.000377
 228	2.2587e+01	9.0415	71.731828	0.001176	11.756664	3.983266	0.000471
 229	2.2686e+01	9.0767	72.131504	0.001003	10.033704	3.399511	0.000402
 230	2.2785e+01	9.1217	72.515032	0.000963	9.628302	3.262157	0.000385
 231	2.2885e+01	9.1441	72.959117	0.001115	11.148560	3.777235	0.000446
 232	2.2985e+01	9.1987	73.374942	0.001044	10.439107	3.536865	0.000418
 233	2.3084e+01	9.2420	73.742321	0.000922	9.222900	3.124803	0.000369
 234	2.3183e+01	9.2741	74.218703	0.001196	11.959365	4.051942	0.000479
 235	2.3283e+01	9.3222	74.626454	0.001024	10.236406	3.468188	0.000410
 236	2.3383e+01	9.3575	75.001908	0.000943	9.425601	3.193480	0.000377
 237	2.3482e+01	9.4104	75.450030	0.001125	11.249911	3.811573	0.000450
 238	2.3581e+01	9.4425	75.865855	0.001044	10.439107	3.536865	0.000418
 239	2.3681e+01	9.4794	76.301865	0.001095	10.945859	3.708558	0.000438
 240	2.3780e+01	9.5147	76.677319	0.000943	9.425601	3.193480	0.000377
 241	2.3880e+01	9.5580	77.081033	0.001014	10.135055	3.433850	0.000406
 242	2.3980e+01	9.6029	77.517043	0.001095	10.945859	3.708558	0.000438
 243	2.4079e+01	9.6302	77.936905	0.001054	10.540457	3.571204	0.000422
 244	2.4178e+01	9.6735	78.328508	0.000983	9.831003	3.330834	0.000394
 245	2.4278e+01	9.7233	78.772593	0.001115	11.148560	3.777235	0.000446
 246	2.4378e+01	9.7602	79.135935	0.000912	9.121549	3.090465	0.000365
 247	2.4477e+01	9.8051	79.592131	0.001145	11.452612	3.880250	0.000458
 248	2.4576e+01	9.8323	80.003919	0.001034	10.337756	3.502527	0.000414
 249	2.4676e+01	9.8708	80.407632	0.001014	10.135055	3.433850	0.000406
 250	2.4776e+01	9.9222	80.835569	0.001074	10.743158	3.639881	0.000430
 251	2.4875e+01	9.9559	81.206985	0.000932	9.324251	3.159142	0.000373
 252	2.4974e+01	9.9944	81.610699	0.001014	10.135055	3.433850	0.000406
 253	2.5074e+01	10.0441	82.074970	0.001166	11.655313	3.948927	0.000467
 254	2.5174e+01	10.0810	82.450423	0.000943	9.425601	3.193480	0.000377
 255	2.5273e+01	10.1179	82.890471	0.001105	11.047210	3.742896	0.000442
 256	2.5372e+01	10.1564	83.306296	0.001044	10.439107	3.536865	0.000418
 257	2.5472e+01	10.1981	83.689824	0.000963	9.628302	3.262157	0.000385
 258	2.5572e+01	10.2382	84.121797	0.001084	10.844509	3.674219	0.000434
 259	2.5671e+01	10.2719	84.525511	0.001014	10.135055	3.433850	0.000406
 260	2.5770e+01	10.3184	84.961522	0.001095	10.945859	3.708558	0.000438
 261	2.5870e+01	10.3489	85.345050	0.000963	9.628302	3.262157	0.000385
 262	2.5970e+01	10.3890	85.764912	0.001054	10.540457	3.571204	0.000422
 263	2.6069e+01	10.4307	86.192848	0.001074	10.743158	3.639881	0.000430
 264	2.6169e+01	10.4901	86.604636	0.001034	10.337756	3.502527	0.000414
 265	2.6268e+01	10.5141	87.012387	0.001024	10.236406	3.468188	0.000410
 266	2.6367e+01	10.5559	87.408026	0.000993	9.932354	3.365173	0.000398
 267	2.6467e+01	10.5879	87.856148	0.001125	11.249911	3.811573	0.000450
 268	2.6567e+01	10.6393	88.247750	0.000983	9.831003	3.330834	0.000394
 269	2.6666e+01	10.6778	88.623204	0.000943	9.425601	3.193480	0.000377
 270	2.6765e+01	10.7083	89.059214	0.001095	10.945859	3.708558	0.000438
 271	2.6865e+01	10.7548	89.466965	0.001024	10.236406	3.468188	0.000410
 272	2.6965e+01	10.7997	89.862604	0.000993	9.932354	3.365173	0.000398
 273	2.7064e+01	10.8286	90.270355	0.001024	10.236406	3.468188	0.000410
 274	2.7163e+01	10.8703	90.682143	0.001034	10.337756	3.502527	0.000414
 275	2.7263e+01	10.9136	91.077782	0.000993	9.932354	3.365173	0.000398
 276	2.7363e+01	10.9553	91.521867	0.001115	11.148560	3.777235	0.000446
 277	2.7462e+01	10.9922	91.901358	0.000953	9.526952	3.227819	0.000381
 278	2.7561e+01	11.0323	92.313146	0.001034	10.337756	3.502527	0.000414
 279	2.7661e+01	11.0724	92.712822	0.001003	10.033704	3.399511	0.000402
 280	2.7761e+01	11.1061	93.136721	0.001064	10.641808	3.605542	0.000426
 281	2.7860e+01	11.1446	93.540435	0.001014	10.135055	3.433850	0.000406
 282	2.7959e+01	11.1959	93.952223	0.001034	10.337756	3.502527	0.000414
 283	2.8059e+01	11.2216	94.359974	0.001024	10.236406	3.468188	0.000410
 284	2.8159e+01	11.2810	94.775799	0.001044	10.439107	3.536865	0.000418
 285	2.8258e+01	11.3130	95.151252	0.000943	9.425601	3.193480	0.000377
 286	2.8358e+01	11.3564	95.538817	0.000973	9.729653	3.296496	0.000390
 287	2.8457e+01	11.3917	95.990976	0.001135	11.351262	3.845912	0.000454
 288	2.8556e+01	11.4350	96.354319	0.000912	9.121549	3.090465	0.000365
 289	2.8656e+01	11.4735	96.778218	0.001064	10.641808	3.605542	0.000426
 290	2.8756e+01	11.5120	97.234414	0.001145	11.452612	3.880250	0.000458
 291	2.8855e+01	11.5489	97.621979	0.000973	9.729653	3.296496	0.000390
 292	2.8954e+01	11.5906	98.033767	0.001034	10.337756	3.502527	0.000414
 293	2.9054e+01	11.6387	98.461704	0.001074	10.743158	3.639881	0.000430
 294	2.9154e+01	11.6756	98.857343	0.000993	9.932354	3.365173	0.000398
 295	2.9253e+01	11.7109	99.273168	0.001044	10.439107	3.536865	0.000418
 296	2.9352e+01	11.7526	99.680919	0.001024	10.236406	3.468188	0.000410
 297	2.9452e+01	11.7879	100.064446	0.000963	9.628302	3.262157	0.000385
 298	2.9552e+01	11.8184	100.488346	0.001064	10.641808	3.605542	0.000426
 299	2.9651e+01	11.8777	100.888022	0.001003	10.033704	3.399511	0.000402
 300	2.9750e+01	11.9098	101.287699	0.001003	10.033704	3.399511	0.000402
 301	2.9850e+01	11.9531	101.699486	0.001034	10.337756	3.502527	0.000414
 302	2.9950e+01	11.9932	102.099163	0.001003	10.033704	3.399511	0.000402
 303	3.0049e+01	12.0350	102.482691	0.000963	9.628302	3.262157	0.000385
 304	3.0148e+01	12.0735	102.906590	0.001064	10.641808	3.605542	0.000426
 305	3.0248e+01	12.1120	103.310304	0.001014	10.135055	3.433850	0.000406
 306	3.0348e+01	12.1489	103.697869	0.000973	9.729653	3.296496	0.000390
 307	3.0447e+01	12.1922	104.178288	0.001206	12.060715	4.086281	0.000483
 308	3.0547e+01	12.2371	104.582001	0.001014	10.135055	3.433850	0.000406
 309	3.0646e+01	12.2724	105.022049	0.001105	11.047210	3.742896	0.000442
 310	3.0745e+01	12.3077	105.381354	0.000902	9.020199	3.056126	0.000361
 311	3.0845e+01	12.3478	105.772956	0.000983	9.831003	3.330834	0.000394
 312	3.0945e+01	12.3879	106.213004	0.001105	11.047210	3.742896	0.000442
 313	3.1044e+01	12.4184	106.620755	0.001024	10.236406	3.468188	0.000410
 314	3.1143e+01	12.4697	107.048691	0.001074	10.743158	3.639881	0.000430
 315	3.1243e+01	12.5114	107.460479	0.001034	10.337756	3.502527	0.000414
 316	3.1343e+01	12.5467	107.831896	0.000932	9.324251	3.159142	0.000373
 317	3.1442e+01	12.5900	108.288092	0.001145	11.452612	3.880250	0.000458
 318	3.1541e+01	12.6237	108.663546	0.000943	9.425601	3.193480	0.000377
 319	3.1641e+01	12.6654	109.075333	0.001034	10.337756	3.502527	0.000414
 320	3.1741e+01	12.7103	109.458861	0.000963	9.628302	3.262157	0.000385
 321	3.1840e+01	12.7456	109.866612	0.001024	10.236406	3.468188	0.000410
 322	3.1939e+01	12.7809	110.278400	0.001034	10.337756	3.502527	0.000414
 323	3.2039e+01	12.8274	110.710373	0.001084	10.844509	3.674219	0.000434
 324	3.2139e+01	12.8659	111.081790	0.000932	9.324251	3.159142	0.000373
 325	3.2238e+01	12.9028	111.505689	0.001064	10.641808	3.605542	0.000426
 326	3.2337e+01	12.9446	111.913440	0.001024	10.236406	3.468188	0.000410
 327	3.2437e+01	12.9959	112.296968	0.000963	9.628302	3.262157	0.000385
 328	3.2536e+01	13.0087	112.720867	0.001064	10.641808	3.605542	0.000426
 329	3.2636e+01	13.0665	113.096321	0.000943	9.425601	3.193480	0.000377
 330	3.2736e+01	13.1034	113.572703	0.001196	11.959365	4.051942	0.000479
 331	3.2835e+01	13.1483	113.919896	0.000872	8.716147	2.953111	0.000349
 332	3.2934e+01	13.1788	114.380130	0.001155	11.553963	3.914589	0.000463
 333	3.3034e+01	13.2237	114.763658	0.000963	9.628302	3.262157	0.000385
 334	3.3133e+01	13.2574	115.199668	0.001095	10.945859	3.708558	0.000438
 335	3.3233e+01	13.2991	115.558973	0.000902	9.020199	3.056126	0.000361
 336	3.3333e+01	13.3360	115.974798	0.001044	10.439107	3.536865	0.000418
 337	3.3432e+01	13.3745	116.398698	0.001064	10.641808	3.605542	0.000426
 338	3.3532e+01	13.4242	116.806448	0.001024	10.236406	3.468188	0.000410
 339	3.3631e+01	13.4659	117.165753	0.000902	9.020199	3.056126	0.000361
 340	3.3730e+01	13.5060	117.585616	0.001054	10.540457	3.571204	0.000422
 341	3.3830e+01	13.5381	117.981255	0.000993	9.932354	3.365173	0.000398
 342	3.3929e+01	13.5862	118.445525	0.001166	11.655313	3.948927	0.000467
 343	3.4029e+01	13.6167	118.877499	0.001084	10.844509	3.674219	0.000434
 344	3.4129e+01	13.6633	119.273138	0.000993	9.932354	3.365173	0.000398
 345	3.4228e+01	13.7001	119.664740	0.000983	9.831003	3.330834	0.000394
 346	3.4328e+01	13.7354	120.084603	0.001054	10.540457	3.571204	0.000422
 347	3.4427e+01	13.7804	120.460056	0.000943	9.425601	3.193480	0.000377
 348	3.4526e+01	13.8237	120.896067	0.001095	10.945859	3.708558	0.000438
 349	3.4626e+01	13.8542	121.315929	0.001054	10.540457	3.571204	0.000422
 350	3.4725e+01	13.8975	121.695420	0.000953	9.526952	3.227819	0.000381
 351	3.4825e+01	13.9344	122.135467	0.001105	11.047210	3.742896	0.000442
 352	3.4925e+01	13.9777	122.547255	0.001034	10.337756	3.502527	0.000414
 353	3.5024e+01	14.0242	122.946932	0.001003	10.033704	3.399511	0.000402
 354	3.5123e+01	14.0579	123.318348	0.000932	9.324251	3.159142	0.000373
 355	3.5223e+01	14.1044	123.786656	0.001176	11.756664	3.983266	0.000471
 356	3.5322e+01	14.1365	124.162110	0.000943	9.425601	3.193480	0.000377
 357	3.5422e+01	14.1830	124.586009	0.001064	10.641808	3.605542	0.000426
 358	3.5522e+01	14.2151	124.933203	0.000872	8.716147	2.953111	0.000349
 359	3.5621e+01	14.2568	125.377287	0.001115	11.148560	3.777235	0.000446
 360	3.5721e+01	14.2953	125.805224	0.001074	10.743158	3.639881	0.000430
 361	3.5820e+01	14.3354	126.229123	0.001064	10.641808	3.605542	0.000426
 362	3.5919e+01	14.3659	126.624762	0.000993	9.932354	3.365173	0.000398
 363	3.6019e+01	14.4156	127.048662	0.001064	10.641808	3.605542	0.000426
 364	3.6118e+01	14.4509	127.468524	0.001054	10.540457	3.571204	0.000422
 365	3.6218e+01	14.4991	127.884349	0.001044	10.439107	3.536865	0.000418
 366	3.6318e+01	14.5343	128.296137	0.001034	10.337756	3.502527	0.000414
 367	3.6417e+01	14.5664	128.691776	0.000993	9.932354	3.365173	0.000398
 368	3.6517e+01	14.6114	129.107601	0.001044	10.439107	3.536865	0.000418
 369	3.6616e+01	14.6563	129.539574	0.001084	10.844509	3.674219	0.000434
 370	3.6715e+01	14.6964	129.927139	0.000973	9.729653	3.296496	0.000390
 371	3.6815e+01	14.7445	130.338927	0.001034	10.337756	3.502527	0.000414
 372	3.6914e+01	14.7782	130.738604	0.001003	10.033704	3.399511	0.000402
 373	3.7014e+01	14.8039	131.158466	0.001054	10.540457	3.571204	0.000422
 374	3.7114e+01	14.8584	131.562179	0.001014	10.135055	3.433850	0.000406
 375	3.7213e+01	14.8953	131.913410	0.000882	8.817498	2.987449	0.000353
 376	3.7313e+01	14.9386	132.325198	0.001034	10.337756	3.502527	0.000414
 377	3.7412e+01	14.9787	132.757172	0.001084	10.844509	3.674219	0.000434
 378	3.7511e+01	15.0188	133.181071	0.001064	10.641808	3.605542	0.000426
 379	3.7611e+01	15.0557	133.592859	0.001034	10.337756	3.502527	0.000414
 380	3.7711e+01	15.0942	134.016758	0.001064	10.641808	3.605542	0.000426
 381	3.7810e+01	15.1343	134.456806	0.001105	11.047210	3.742896	0.000442
 382	3.7910e+01	15.1776	134.836297	0.000953	9.526952	3.227819	0.000381
 383	3.8009e+01	15.2161	135.244047	0.001024	10.236406	3.468188	0.000410
 384	3.8108e+01	15.2563	135.659872	0.001044	10.439107	3.536865	0.000418
 385	3.8208e+01	15.2835	136.087809	0.001074	10.743158	3.639881	0.000430
 386	3.8307e+01	15.3333	136.475374	0.000973	9.729653	3.296496	0.000390
 387	3.8407e+01	15.3750	136.891199	0.001044	10.439107	3.536865	0.000418
 388	3.8507e+01	15.4167	137.290875	0.001003	10.033704	3.399511	0.000402
 389	3.8606e+01	15.4552	137.706700	0.001044	10.439107	3.536865	0.000418
 390	3.8706e+01	15.5017	138.110414	0.001014	10.135055	3.433850	0.000406
 391	3.8805e+01	15.5338	138.538350	0.001074	10.743158	3.639881	0.000430
 392	3.8904e+01	15.5867	138.929952	0.000983	9.831003	3.330834	0.000394
 393	3.9004e+01	15.6188	139.289257	0.000902	9.020199	3.056126	0.000361
 394	3.9103e+01	15.6413	139.709119	0.001054	10.540457	3.571204	0.000422
 395	3.9203e+01	15.6926	140.133019	0.001064	10.641808	3.605542	0.000426
 396	3.9303e+01	15.7391	140.556918	0.001064	10.641808	3.605542	0.000426
 397	3.9402e+01	15.7744	140.972743	0.001044	10.439107	3.536865	0.000418
 398	3.9502e+01	15.8161	141.360308	0.000973	9.729653	3.296496	0.000390
 399	3.9601e+01	15.8562	141.751910	0.000983	9.831003	3.330834	0.000394
 400	3.9700e+01	15.8915	142.167735	0.001044	10.439107	3.536865	0.000418
 401	3.9800e+01	15.9188	142.599709	0.001084	10.844509	3.674219	0.000434
 402	3.9900e+01	15.9653	142.995348	0.000993	9.932354	3.365173	0.000398
 403	3.9999e+01	16.0022	143.395024	0.001003	10.033704	3.399511	0.000402
 404	4.0099e+01	16.0487	143.843146	0.001125	11.249911	3.811573	0.000450
 405	4.0198e+01	16.0953	144.210526	0.000922	9.222900	3.124803	0.000369
 406	4.0297e+01	16.1225	144.638462	0.001074	10.743158	3.639881	0.000430
 407	4.0397e+01	16.1787	145.054287	0.001044	10.439107	3.536865	0.000418
 408	4.0496e+01	16.2172	145.445889	0.000983	9.831003	3.330834	0.000394
 409	4.0596e+01	16.2461	145.841529	0.000993	9.932354	3.365173	0.000398
 410	4.0696e+01	16.2910	146.229094	0.000973	9.729653	3.296496	0.000390
 411	4.0795e+01	16.3311	146.612621	0.000963	9.628302	3.262157	0.000385
 412	4.0895e+01	16.3696	147.040558	0.001074	10.743158	3.639881	0.000430
 413	4.0994e+01	16.4113	147.460420	0.001054	10.540457	3.571204	0.000422
 414	4.1093e+01	16.4562	147.860096	0.001003	10.033704	3.399511	0.000402
 415	4.1193e+01	16.4915	148.275921	0.001044	10.439107	3.536865	0.000418
 416	4.1292e+01	16.5284	148.663486	0.000973	9.729653	3.296496	0.000390
 417	4.1392e+01	16.5669	149.095460	0.001084	10.844509	3.674219	0.000434
 418	4.1492e+01	16.6150	149.491099	0.000993	9.932354	3.365173	0.000398
 419	4.1591e+01	16.6503	149.919036	0.001074	10.743158	3.639881	0.000430
 420	4.1691e+01	16.7001	150.298526	0.000953	9.526952	3.227819	0.000381
 421	4.1790e+01	16.7289	150.722426	0.001064	10.641808	3.605542	0.000426
 422	4.1889e+01	16.7658	151.134213	0.001034	10.337756	3.502527	0.000414
 423	4.1989e+01	16.8027	151.521779	0.000973	9.729653	3.296496	0.000390
 424	4.2089e+01	16.8477	151.953752	0.001084	10.844509	3.674219	0.000434
 425	4.2188e+01	16.8813	152.357466	0.001014	10.135055	3.433850	0.000406
 426	4.2288e+01	16.9295	152.777328	0.001054	10.540457	3.571204	0.000422
 427	4.2387e+01	16.9583	153.185078	0.001024	10.236406	3.468188	0.000410
 428	4.2486e+01	17.0081	153.540346	0.000892	8.918848	3.021788	0.000357
 429	4.2586e+01	17.0434	153.996543	0.001145	11.452612	3.880250	0.000458
 430	4.2685e+01	17.0819	154.363922	0.000922	9.222900	3.124803	0.000369
 431	4.2785e+01	17.1332	154.775710	0.001034	10.337756	3.502527	0.000414
 432	4.2885e+01	17.1749	155.191535	0.001044	10.439107	3.536865	0.000418
 433	4.2984e+01	17.1990	155.583137	0.000983	9.831003	3.330834	0.000394
 434	4.3084e+01	17.2439	155.986851	0.001014	10.135055	3.433850	0.000406
 435	4.3183e+01	17.2808	156.374416	0.000973	9.729653	3.296496	0.000390
 436	4.3282e+01	17.3241	156.822538	0.001125	11.249911	3.811573	0.000450
 437	4.3382e+01	17.3690	157.202029	0.000953	9.526952	3.227819	0.000381
 438	4.3481e+01	17.4075	157.589594	0.000973	9.729653	3.296496	0.000390
 439	4.3581e+01	17.4524	158.041753	0.001135	11.351262	3.845912	0.000454
 440	4.3681e+01	17.4829	158.437392	0.000993	9.932354	3.365173	0.000398
 441	4.3780e+01	17.5327	158.845143	0.001024	10.236406	3.468188	0.000410
 442	4.3880e+01	17.5615	159.256931	0.001034	10.337756	3.502527	0.000414
 443	4.3979e+01	17.6032	159.672756	0.001044	10.439107	3.536865	0.000418
 444	4.4078e+01	17.6417	160.068395	0.000993	9.932354	3.365173	0.000398
 445	4.4178e+01	17.6786	160.480183	0.001034	10.337756	3.502527	0.000414
 446	4.4278e+01	17.7284	160.851599	0.000932	9.324251	3.159142	0.000373
 447	4.4377e+01	17.7637	161.287610	0.001095	10.945859	3.708558	0.000438
 448	4.4477e+01	17.8038	161.663063	0.000943	9.425601	3.193480	0.000377
 449	4.4576e+01	17.8407	162.074851	0.001034	10.337756	3.502527	0.000414
 450	4.4675e+01	17.8856	162.450305	0.000943	9.425601	3.193480	0.000377
 451	4.4775e+01	17.9241	162.858056	0.001024	10.236406	3.468188	0.000410
 452	4.4874e+01	17.9706	163.269844	0.001034	10.337756	3.502527	0.000414
 453	4.4974e+01	17.9995	163.657409	0.000973	9.729653	3.296496	0.000390
 454	4.5074e+01	18.0508	164.069196	0.001034	10.337756	3.502527	0.000414
 455	4.5173e+01	18.0845	164.489059	0.001054	10.540457	3.571204	0.000422
 456	4.5273e+01	18.1198	164.860475	0.000932	9.324251	3.159142	0.000373
 457	4.5372e+01	18.1583	165.300523	0.001105	11.047210	3.742896	0.000442
 458	4.5471e+01	18.2048	165.712311	0.001034	10.337756	3.502527	0.000414
 459	4.5571e+01	18.2417	166.083727	0.000932	9.324251	3.159142	0.000373
 460	4.5670e+01	18.2802	166.535886	0.001135	11.351262	3.845912	0.000454
 461	4.5770e+01	18.3123	166.899229	0.000912	9.121549	3.090465	0.000365
 462	4.5870e+01	18.3669	167.298905	0.001003	10.033704	3.399511	0.000402
 463	4.5969e+01	18.4038	167.742990	0.001115	11.148560	3.777235	0.000446
 464	4.6069e+01	18.4407	168.183038	0.001105	11.047210	3.742896	0.000442
 465	4.6168e+01	18.4808	168.554454	0.000932	9.324251	3.159142	0.000373
 466	4.6267e+01	18.5337	168.954131	0.001003	10.033704	3.399511	0.000402
 467	4.6367e+01	18.5658	169.329584	0.000943	9.425601	3.193480	0.000377
 468	4.6467e+01	18.6187	169.733298	0.001014	10.135055	3.433850	0.000406
 469	4.6566e+01	18.6348	170.141049	0.001024	10.236406	3.468188	0.000410
 470	4.6666e+01	18.6861	170.540725	0.001003	10.033704	3.399511	0.000402
 471	4.6765e+01	18.7198	170.960587	0.001054	10.540457	3.571204	0.000422
 472	4.6864e+01	18.7583	171.356226	0.000993	9.932354	3.365173	0.000398
 473	4.6964e+01	18.8016	171.751866	0.000993	9.932354	3.365173	0.000398
 474	4.7063e+01	18.8385	172.191913	0.001105	11.047210	3.742896	0.000442
 475	4.7163e+01	18.8834	172.579479	0.000973	9.729653	3.296496	0.000390
 476	4.7263e+01	18.9187	172.983192	0.001014	10.135055	3.433850	0.000406
 477	4.7362e+01	18.9540	173.427277	0.001115	11.148560	3.777235	0.000446
 478	4.7462e+01	19.0086	173.830991	0.001014	10.135055	3.433850	0.000406
 479	4.7561e+01	19.0390	174.206444	0.000943	9.425601	3.193480	0.000377
 480	4.7660e+01	19.0840	174.626306	0.001054	10.540457	3.571204	0.000422
 481	4.7760e+01	19.1225	175.038094	0.001034	10.337756	3.502527	0.000414
 482	4.7859e+01	19.1577	175.474105	0.001095	10.945859	3.708558	0.000438
 483	4.7959e+01	19.2011	175.898004	0.001064	10.641808	3.605542	0.000426
 484	4.8059e+01	19.2412	176.269421	0.000932	9.324251	3.159142	0.000373
 485	4.8158e+01	19.2749	176.640837	0.000932	9.324251	3.159142	0.000373
 486	4.8258e+01	19.3278	177.044551	0.001014	10.135055	3.433850	0.000406
 487	4.8357e+01	19.3583	177.464413	0.001054	10.540457	3.571204	0.000422
 488	4.8456e+01	19.3872	177.831792	0.000922	9.222900	3.124803	0.000369
 489	4.8556e+01	19.4321	178.263766	0.001084	10.844509	3.674219	0.000434
 490	4.8656e+01	19.4674	178.667479	0.001014	10.135055	3.433850	0.000406
 491	4.8755e+01	19.5251	179.079267	0.001034	10.337756	3.502527	0.000414
 492	4.8855e+01	19.5556	179.482981	0.001014	10.135055	3.433850	0.000406
 493	4.8954e+01	19.5909	179.882657	0.001003	10.033704	3.399511	0.000402
 494	4.9053e+01	19.6358	180.278296	0.000993	9.932354	3.365173	0.000398
 495	4.9153e+01	19.6727	180.710270	0.001084	10.844509	3.674219	0.000434
 496	4.9252e+01	19.7112	181.130132	0.001054	10.540457	3.571204	0.000422
 497	4.9352e+01	19.7577	181.554031	0.001064	10.641808	3.605542	0.000426
 498	4.9452e+01	19.7962	181.977931	0.001064	10.641808	3.605542	0.000426
 499	4.9551e+01	19.8363	182.365496	0.000973	9.729653	3.296496	0.000390
 500	4.9651e+01	19.8716	182.777283	0.001034	10.337756	3.502527	0.000414
 501	4.9750e+01	19.9085	183.185034	0.001024	10.236406	3.468188	0.000410
 502	4.9849e+01	19.9567	183.588748	0.001014	10.135055	3.433850	0.000406
 503	4.9949e+01	20.0000	183.980350	0.000983	9.831003	3.330834	0.000394
 504	5.0048e+01	19.9454	183.810790	0.000426	4.256723	1.442217	-0.000170
 505	5.0148e+01	19.9182	183.726010	0.000213	2.128362	0.721108	-0.000085
 506	5.0248e+01	19.8813	183.564525	0.000405	4.054022	1.373540	-0.000162
 507	5.0347e+01	19.8460	183.378817	0.000466	4.662125	1.579571	-0.000187
 508	5.0447e+01	19.7946	183.213294	0.000416	4.155373	1.407878	-0.000166
 509	5.0546e+01	19.7561	183.063920	0.000375	3.749970	1.270524	-0.000150
 510	5.0645e+01	19.7144	182.890323	0.000436	4.358074	1.476555	-0.000174
 511	5.0745e+01	19.6855	182.700578	0.000476	4.763476	1.613909	-0.000191
 512	5.0844e+01	19.6374	182.522944	0.000446	4.459424	1.510894	-0.000179
 513	5.0944e+01	19.5893	182.329161	0.000486	4.864826	1.648248	-0.000195
 514	5.1044e+01	19.5524	182.151527	0.000446	4.459424	1.510894	-0.000179
 515	5.1143e+01	19.5171	181.917373	0.000588	5.878332	1.991633	-0.000235
 516	5.1242e+01	19.4706	181.679182	0.000598	5.979682	2.025971	-0.000239
 517	5.1342e+01	19.4401	181.541920	0.000345	3.445919	1.167509	-0.000138
 518	5.1441e+01	19.3807	181.295655	0.000618	6.182384	2.094648	-0.000248
 519	5.1541e+01	19.3487	181.097835	0.000497	4.966177	1.682586	-0.000199
 520	5.1641e+01	19.3214	180.847533	0.000628	6.283734	2.128987	-0.000252
 521	5.1740e+01	19.2797	180.645676	0.000507	5.067527	1.716925	-0.000203
 522	5.1840e+01	19.2396	180.419596	0.000568	5.675631	1.922956	-0.000227
 523	5.1939e+01	19.1946	180.201591	0.000547	5.472930	1.854279	-0.000219
 524	5.2038e+01	19.1545	179.995697	0.000517	5.168878	1.751263	-0.000207
 525	5.2138e+01	19.1080	179.725209	0.000679	6.790487	2.300679	-0.000272
 526	5.2237e+01	19.0856	179.531426	0.000486	4.864826	1.648248	-0.000195
 527	5.2337e+01	19.0487	179.281124	0.000628	6.283734	2.128987	-0.000252
 528	5.2437e+01	19.0005	179.030821	0.000628	6.283734	2.128987	-0.000252
 529	5.2536e+01	18.9604	178.788593	0.000608	6.081033	2.060310	-0.000243
 530	5.2636e+01	18.9219	178.570588	0.000547	5.472930	1.854279	-0.000219
 531	5.2735e+01	18.8882	178.312211	0.000649	6.486435	2.197664	-0.000260
 532	5.2834e+01	18.8433	178.118429	0.000486	4.864826	1.648248	-0.000195
 533	5.2934e+01	18.7968	177.856015	0.000659	6.587786	2.232002	-0.000264
 534	5.3033e+01	18.7503	177.638010	0.000547	5.472930	1.854279	-0.000219
 535	5.3133e+01	18.7214	177.371559	0.000669	6.689136	2.266341	-0.000268
 536	5.3233e+01	18.6893	177.193925	0.000446	4.459424	1.510894	-0.000179
 537	5.3332e+01	18.6428	176.931511	0.000659	6.587786	2.232002	-0.000264
 538	5.3431e+01	18.5979	176.656986	0.000689	6.891837	2.335018	-0.000276
 539	5.3531e+01	18.5594	176.394572	0.000659	6.587786	2.232002	-0.000264
 540	5.3630e+01	18.5321	176.099861	0.000740	7.398590	2.506710	-0.000296
 541	5.3730e+01	18.4824	175.849558	0.000628	6.283734	2.128987	-0.000252
 542	5.3830e+01	18.4423	175.619442	0.000578	5.776981	1.957294	-0.000231
 543	5.3929e+01	18.4070	175.332805	0.000720	7.195889	2.438033	-0.000288
 544	5.4029e+01	18.3653	175.114800	0.000547	5.472930	1.854279	-0.000219
 545	5.4128e+01	18.3332	174.820089	0.000740	7.398590	2.506710	-0.000296
 546	5.4227e+01	18.2770	174.569786	0.000628	6.283734	2.128987	-0.000252
 547	5.4327e+01	18.2449	174.303335	0.000669	6.689136	2.266341	-0.000268
 548	5.4426e+01	18.2113	174.016699	0.000720	7.195889	2.438033	-0.000288
 549	5.4526e+01	18.1695	173.758322	0.000649	6.486435	2.197664	-0.000260
 550	5.4626e+01	18.1166	173.483797	0.000689	6.891837	2.335018	-0.000276
 551	5.4725e+01	18.0861	173.261754	0.000557	5.574280	1.888617	-0.000223
 552	5.4825e+01	18.0364	172.983192	0.000699	6.993188	2.369356	-0.000280
 553	5.4924e+01	18.0107	172.732890	0.000628	6.283734	2.128987	-0.000252
 554	5.5023e+01	17.9642	172.510847	0.000557	5.574280	1.888617	-0.000223
 555	5.5123e+01	17.9321	172.220173	0.000730	7.297240	2.472372	-0.000292
 556	5.5222e+01	17.8840	171.949685	0.000679	6.790487	2.300679	-0.000272
 557	5.5322e+01	17.8535	171.675160	0.000689	6.891837	2.335018	-0.000276
 558	5.5422e+01	17.8054	171.364301	0.000780	7.803992	2.644064	-0.000312
 559	5.5521e+01	17.7605	171.077664	0.000720	7.195889	2.438033	-0.000288
 560	5.5620e+01	17.7236	170.819287	0.000649	6.486435	2.197664	-0.000260
 561	5.5720e+01	17.6835	170.548799	0.000679	6.790487	2.300679	-0.000272
 562	5.5819e+01	17.6498	170.270237	0.000699	6.993188	2.369356	-0.000280
 563	5.5919e+01	17.6097	169.963415	0.000770	7.702642	2.609726	-0.000308
 564	5.6019e+01	17.5712	169.696964	0.000669	6.689136	2.266341	-0.000268
 565	5.6118e+01	17.5246	169.410327	0.000720	7.195889	2.438033	-0.000288
 566	5.6218e+01	17.4845	169.119653	0.000730	7.297240	2.472372	-0.000292
 567	5.6317e+01	17.4428	168.828979	0.000730	7.297240	2.472372	-0.000292
 568	5.6416e+01	17.4027	168.510046	0.000801	8.006693	2.712741	-0.000321
 569	5.6516e+01	17.3546	168.259743	0.000628	6.283734	2.128987	-0.000252
 570	5.6615e+01	17.3193	167.989255	0.000679	6.790487	2.300679	-0.000272
 571	5.6715e+01	17.2856	167.775287	0.000537	5.371579	1.819940	-0.000215
 572	5.6815e+01	17.2407	167.464428	0.000780	7.803992	2.644064	-0.000312
 573	5.6914e+01	17.2134	167.185865	0.000699	6.993188	2.369356	-0.000280
 574	5.7014e+01	17.1653	166.875006	0.000780	7.803992	2.644064	-0.000312
 575	5.7113e+01	17.1252	166.580295	0.000740	7.398590	2.506710	-0.000296
 576	5.7212e+01	17.0931	166.293658	0.000720	7.195889	2.438033	-0.000288
 577	5.7312e+01	17.0482	165.990873	0.000760	7.601291	2.575387	-0.000304
 578	5.7411e+01	17.0129	165.667902	0.000811	8.108044	2.747080	-0.000325
 579	5.7511e+01	16.9616	165.377228	0.000730	7.297240	2.472372	-0.000292
 580	5.7611e+01	16.9343	165.094629	0.000709	7.094538	2.403695	-0.000284
 581	5.7710e+01	16.8878	164.812029	0.000709	7.094538	2.403695	-0.000284
 582	5.7809e+01	16.8493	164.505207	0.000770	7.702642	2.609726	-0.000308
 583	5.7909e+01	16.8156	164.194348	0.000780	7.803992	2.644064	-0.000312
 584	5.8008e+01	16.7755	163.927897	0.000669	6.689136	2.266341	-0.000268
 585	5.8108e+01	16.7209	163.604926	0.000811	8.108044	2.747080	-0.000325
 586	5.8208e+01	16.7017	163.302141	0.000760	7.601291	2.575387	-0.000304
 587	5.8307e+01	16.6439	163.027615	0.000689	6.891837	2.335018	-0.000276
 588	5.8407e+01	16.6134	162.753090	0.000689	6.891837	2.335018	-0.000276
 589	5.8506e+01	16.5749	162.506825	0.000618	6.182384	2.094648	-0.000248
 590	5.8605e+01	16.5332	162.171743	0.000841	8.412096	2.850095	-0.000337
 591	5.8705e+01	16.4899	161.877032	0.000740	7.398590	2.506710	-0.000296
 592	5.8804e+01	16.4482	161.574247	0.000760	7.601291	2.575387	-0.000304
 593	5.8904e+01	16.4049	161.327981	0.000618	6.182384	2.094648	-0.000248
 594	5.9004e+01	16.3680	160.956565	0.000932	9.324251	3.159142	-0.000373
 595	5.9103e+01	16.3247	160.601297	0.000892	8.918848	3.021788	-0.000357
 596	5.9203e+01	16.2830	160.322734	0.000699	6.993188	2.369356	-0.000280
 597	5.9302e+01	16.2493	160.072432	0.000628	6.283734	2.128987	-0.000252
 598	5.9401e+01	16.2236	159.713127	0.000902	9.020199	3.056126	-0.000361
 599	5.9501e+01	16.1642	159.390156	0.000811	8.108044	2.747080	-0.000325
 600	5.9600e+01	16.1257	159.091408	0.000750	7.499941	2.541049	-0.000300
 601	5.9700e+01	16.0889	158.780549	0.000780	7.803992	2.644064	-0.000312
 602	5.9800e+01	16.0552	158.465652	0.000791	7.905343	2.678403	-0.000316
 603	5.9899e+01	16.0135	158.195164	0.000679	6.790487	2.300679	-0.000272
 604	5.9998e+01	15.9717	157.856044	0.000851	8.513446	2.884434	-0.000341
 605	6.0098e+01	15.9300	157.593631	0.000659	6.587786	2.232002	-0.000264
 606	6.0197e+01	15.8979	157.278734	0.000791	7.905343	2.678403	-0.000316
 607	6.0297e+01	15.8466	156.963837	0.000791	7.905343	2.678403	-0.000316
 608	6.0397e+01	15.8145	156.648941	0.000791	7.905343	2.678403	-0.000316
 609	6.0496e+01	15.7728	156.370379	0.000699	6.993188	2.369356	-0.000280
 610	6.0596e+01	15.7391	156.047408	0.000811	8.108044	2.747080	-0.000325
 611	6.0695e+01	15.6926	155.728474	0.000801	8.006693	2.712741	-0.000321
 612	6.0794e+01	15.6541	155.405503	0.000811	8.108044	2.747080	-0.000325
 613	6.0894e+01	15.6172	155.074458	0.000831	8.310745	2.815757	-0.000333
 614	6.0993e+01	15.5723	154.735339	0.000851	8.513446	2.884434	-0.000341
 615	6.1093e+01	15.5338	154.432553	0.000760	7.601291	2.575387	-0.000304
 616	6.1193e+01	15.4937	154.093434	0.000851	8.513446	2.884434	-0.000341
 617	6.1292e+01	15.4536	153.814872	0.000699	6.993188	2.369356	-0.000280
 618	6.1392e+01	15.4103	153.447492	0.000922	9.222900	3.124803	-0.000369
 619	6.1491e+01	15.3734	153.140670	0.000770	7.702642	2.609726	-0.000308
 620	6.1590e+01	15.3333	152.789439	0.000882	8.817498	2.987449	-0.000353
 621	6.1690e+01	15.2835	152.502803	0.000720	7.195889	2.438033	-0.000288
 622	6.1789e+01	15.2498	152.195980	0.000770	7.702642	2.609726	-0.000308
 623	6.1889e+01	15.2129	151.901269	0.000740	7.398590	2.506710	-0.000296
 624	6.1989e+01	15.1728	151.566187	0.000841	8.412096	2.850095	-0.000337
 625	6.2088e+01	15.1311	151.255328	0.000780	7.803992	2.644064	-0.000312
 626	6.2188e+01	15.0910	150.964654	0.000730	7.297240	2.472372	-0.000292
 627	6.2287e+01	15.0477	150.613423	0.000882	8.817498	2.987449	-0.000353
 628	6.2386e+01	15.0092	150.334861	0.000699	6.993188	2.369356	-0.000280
 629	6.2486e+01	14.9643	149.983630	0.000882	8.817498	2.987449	-0.000353
 630	6.2586e+01	14.9322	149.684882	0.000750	7.499941	2.541049	-0.000300
 631	6.2685e+01	14.8937	149.365948	0.000801	8.006693	2.712741	-0.000321
 632	6.2785e+01	14.8440	148.990494	0.000943	9.425601	3.193480	-0.000377
 633	6.2884e+01	14.8199	148.655412	0.000841	8.412096	2.850095	-0.000337
 634	6.2983e+01	14.7814	148.332441	0.000811	8.108044	2.747080	-0.000325
 635	6.3083e+01	14.7317	147.997359	0.000841	8.412096	2.850095	-0.000337
 636	6.3182e+01	14.7060	147.670351	0.000821	8.209395	2.781418	-0.000329
 637	6.3282e+01	14.6547	147.290860	0.000953	9.526952	3.227819	-0.000381
 638	6.3382e+01	14.6258	147.032484	0.000649	6.486435	2.197664	-0.000260
 639	6.3481e+01	14.5761	146.713550	0.000801	8.006693	2.712741	-0.000321
 640	6.3581e+01	14.5360	146.382505	0.000831	8.310745	2.815757	-0.000333
 641	6.3680e+01	14.4910	146.059534	0.000811	8.108044	2.747080	-0.000325
 642	6.3779e+01	14.4493	145.716377	0.000861	8.614797	2.918772	-0.000345
 643	6.3879e+01	14.4108	145.441852	0.000689	6.891837	2.335018	-0.000276
 644	6.3978e+01	14.3755	145.126956	0.000791	7.905343	2.678403	-0.000316
 645	6.4078e+01	14.3402	144.791873	0.000841	8.412096	2.850095	-0.000337
 646	6.4177e+01	14.3001	144.481014	0.000780	7.803992	2.644064	-0.000312
 647	6.4277e+01	14.2632	144.174191	0.000770	7.702642	2.609726	-0.000308
 648	6.4376e+01	14.2151	143.790664	0.000963	9.628302	3.262157	-0.000385
 649	6.4476e+01	14.1798	143.499990	0.000730	7.297240	2.472372	-0.000292
 650	6.4576e+01	14.1381	143.096276	0.001014	10.135055	3.433850	-0.000406
 651	6.4675e+01	14.1076	142.801565	0.000740	7.398590	2.506710	-0.000296
 652	6.4775e+01	14.0531	142.442260	0.000902	9.020199	3.056126	-0.000361
 653	6.4874e+01	14.0210	142.147549	0.000740	7.398590	2.506710	-0.000296
 654	6.4974e+01	13.9777	141.759984	0.000973	9.729653	3.296496	-0.000390
 655	6.5073e+01	13.9408	141.449125	0.000780	7.803992	2.644064	-0.000312
 656	6.5172e+01	13.9007	141.138265	0.000780	7.803992	2.644064	-0.000312
 657	6.5272e+01	13.8574	140.787035	0.000882	8.817498	2.987449	-0.000353
 658	6.5371e+01	13.8237	140.451952	0.000841	8.412096	2.850095	-0.000337
 659	6.5471e+01	13.7788	140.173390	0.000699	6.993188	2.369356	-0.000280
 660	6.5570e+01	13.7435	139.814085	0.000902	9.020199	3.056126	-0.000361
 661	6.5670e+01	13.7082	139.511300	0.000760	7.601291	2.575387	-0.000304
 662	6.5769e+01	13.6568	139.176217	0.000841	8.412096	2.850095	-0.000337
 663	6.5869e+01	13.6215	138.857284	0.000801	8.006693	2.712741	-0.000321
 664	6.5969e+01	13.5782	138.506053	0.000882	8.817498	2.987449	-0.000353
 665	6.6068e+01	13.5413	138.195193	0.000780	7.803992	2.644064	-0.000312
 666	6.6168e+01	13.4948	137.839926	0.000892	8.918848	3.021788	-0.000357
 667	6.6267e+01	13.4627	137.504843	0.000841	8.412096	2.850095	-0.000337
 668	6.6367e+01	13.4210	137.129390	0.000943	9.425601	3.193480	-0.000377
 669	6.6466e+01	13.3777	136.770085	0.000902	9.020199	3.056126	-0.000361
 670	6.6566e+01	13.3392	136.430965	0.000851	8.513446	2.884434	-0.000341
 671	6.6665e+01	13.3055	136.067623	0.000912	9.121549	3.090465	-0.000365
 672	6.6764e+01	13.2574	135.736578	0.000831	8.310745	2.815757	-0.000333
 673	6.6864e+01	13.2221	135.421681	0.000791	7.905343	2.678403	-0.000316
 674	6.6963e+01	13.1836	135.058339	0.000912	9.121549	3.090465	-0.000365
 675	6.7063e+01	13.1467	134.775739	0.000709	7.094538	2.403695	-0.000284
 676	6.7162e+01	13.1098	134.416434	0.000902	9.020199	3.056126	-0.000361
 677	6.7262e+01	13.0649	134.065204	0.000882	8.817498	2.987449	-0.000353
 678	6.7362e+01	13.0216	133.750307	0.000791	7.905343	2.678403	-0.000316
 679	6.7461e+01	12.9815	133.431373	0.000801	8.006693	2.712741	-0.000321
 680	6.7561e+01	12.9365	133.108402	0.000811	8.108044	2.747080	-0.000325
 681	6.7660e+01	12.9093	132.728912	0.000953	9.526952	3.227819	-0.000381
 682	6.7760e+01	12.8643	132.442275	0.000720	7.195889	2.438033	-0.000288
 683	6.7859e+01	12.8178	132.103156	0.000851	8.513446	2.884434	-0.000341
 684	6.7959e+01	12.7841	131.776148	0.000821	8.209395	2.781418	-0.000329
 685	6.8058e+01	12.7520	131.404731	0.000932	9.324251	3.159142	-0.000373
 686	6.8157e+01	12.7103	131.037352	0.000922	9.222900	3.124803	-0.000369
 687	6.8257e+01	12.6654	130.665935	0.000932	9.324251	3.159142	-0.000373
 688	6.8356e+01	12.6285	130.355076	0.000780	7.803992	2.644064	-0.000312
 689	6.8456e+01	12.5868	129.967511	0.000973	9.729653	3.296496	-0.000390
 690	6.8555e+01	12.5499	129.620317	0.000872	8.716147	2.953111	-0.000349
 691	6.8655e+01	12.5194	129.293309	0.000821	8.209395	2.781418	-0.000329
 692	6.8754e+01	12.4713	128.929967	0.000912	9.121549	3.090465	-0.000365
 693	6.8854e+01	12.4200	128.594885	0.000841	8.412096	2.850095	-0.000337
 694	6.8954e+01	12.3975	128.271914	0.000811	8.108044	2.747080	-0.000325
 695	6.9053e+01	12.3510	127.912609	0.000902	9.020199	3.056126	-0.000361
 696	6.9153e+01	12.3077	127.605786	0.000770	7.702642	2.609726	-0.000308
 697	6.9252e+01	12.2660	127.278778	0.000821	8.209395	2.781418	-0.000329
 698	6.9352e+01	12.2243	126.927548	0.000882	8.817498	2.987449	-0.000353
 699	6.9451e+01	12.1890	126.608614	0.000801	8.006693	2.712741	-0.000321
 700	6.9550e+01	12.1489	126.229123	0.000953	9.526952	3.227819	-0.000381
 701	6.9650e+01	12.1104	125.910189	0.000801	8.006693	2.712741	-0.000321
 702	6.9749e+01	12.0751	125.526662	0.000963	9.628302	3.262157	-0.000385
 703	6.9849e+01	12.0366	125.167356	0.000902	9.020199	3.056126	-0.000361
 704	6.9948e+01	11.9836	124.791903	0.000943	9.425601	3.193480	-0.000377
 705	7.0048e+01	11.9483	124.428561	0.000912	9.121549	3.090465	-0.000365
 706	7.0147e+01	11.9066	124.061181	0.000922	9.222900	3.124803	-0.000369
 707	7.0247e+01	11.8713	123.730136	0.000831	8.310745	2.815757	-0.000333
 708	7.0347e+01	11.8296	123.366794	0.000912	9.121549	3.090465	-0.000365
 709	7.0446e+01	11.7895	123.019600	0.000872	8.716147	2.953111	-0.000349
 710	7.0546e+01	11.7510	122.664332	0.000892	8.918848	3.021788	-0.000357
 711	7.0645e+01	11.7189	122.337324	0.000821	8.209395	2.781418	-0.000329
 712	7.0745e+01	11.6740	121.994168	0.000861	8.614797	2.918772	-0.000345
 713	7.0844e+01	11.6211	121.626788	0.000922	9.222900	3.124803	-0.000369
 714	7.0944e+01	11.5922	121.336115	0.000730	7.297240	2.472372	-0.000292
 715	7.1043e+01	11.5489	120.960661	0.000943	9.425601	3.193480	-0.000377
 716	7.1142e+01	11.5216	120.629616	0.000831	8.310745	2.815757	-0.000333
 717	7.1242e+01	11.4655	120.258199	0.000932	9.324251	3.159142	-0.000373
 718	7.1341e+01	11.4173	119.890820	0.000922	9.222900	3.124803	-0.000369
 719	7.1441e+01	11.3965	119.563812	0.000821	8.209395	2.781418	-0.000329
 720	7.1540e+01	11.3564	119.192396	0.000932	9.324251	3.159142	-0.000373
 721	7.1640e+01	11.3179	118.816942	0.000943	9.425601	3.193480	-0.000377
 722	7.1740e+01	11.2729	118.405154	0.001034	10.337756	3.502527	-0.000414
 723	7.1839e+01	11.2328	118.037775	0.000922	9.222900	3.124803	-0.000369
 724	7.1939e+01	11.1959	117.690581	0.000872	8.716147	2.953111	-0.000349
 725	7.2038e+01	11.1478	117.315127	0.000943	9.425601	3.193480	-0.000377
 726	7.2138e+01	11.1093	116.959859	0.000892	8.918848	3.021788	-0.000357
 727	7.2237e+01	11.0756	116.576332	0.000963	9.628302	3.262157	-0.000385
 728	7.2337e+01	11.0403	116.212989	0.000912	9.121549	3.090465	-0.000365
 729	7.2436e+01	10.9922	115.857721	0.000892	8.918848	3.021788	-0.000357
 730	7.2535e+01	10.9489	115.526676	0.000831	8.310745	2.815757	-0.000333
 731	7.2635e+01	10.9120	115.179483	0.000872	8.716147	2.953111	-0.000349
 732	7.2734e+01	10.8767	114.848437	0.000831	8.310745	2.815757	-0.000333
 733	7.2834e+01	10.8302	114.468947	0.000953	9.526952	3.227819	-0.000381
 734	7.2933e+01	10.7917	114.133864	0.000841	8.412096	2.850095	-0.000337
 735	7.3033e+01	10.7468	113.718039	0.001044	10.439107	3.536865	-0.000418
 736	7.3132e+01	10.7066	113.399106	0.000801	8.006693	2.712741	-0.000321
 737	7.3232e+01	10.6730	113.027689	0.000932	9.324251	3.159142	-0.000373
 738	7.3332e+01	10.6377	112.636087	0.000983	9.831003	3.330834	-0.000394
 739	7.3431e+01	10.5992	112.232374	0.001014	10.135055	3.433850	-0.000406
 740	7.3531e+01	10.5526	111.864994	0.000922	9.222900	3.124803	-0.000369
 741	7.3630e+01	10.5157	111.461281	0.001014	10.135055	3.433850	-0.000406
 742	7.3730e+01	10.4756	111.118124	0.000861	8.614797	2.918772	-0.000345
 743	7.3829e+01	10.4243	110.762856	0.000892	8.918848	3.021788	-0.000357
 744	7.3928e+01	10.3986	110.391440	0.000932	9.324251	3.159142	-0.000373
 745	7.4028e+01	10.3601	109.995800	0.000993	9.932354	3.365173	-0.000398
 746	7.4127e+01	10.3056	109.652644	0.000861	8.614797	2.918772	-0.000345
 747	7.4227e+01	10.2703	109.281227	0.000932	9.324251	3.159142	-0.000373
 748	7.4326e+01	10.2398	108.901737	0.000953	9.526952	3.227819	-0.000381
 749	7.4426e+01	10.1981	108.534357	0.000922	9.222900	3.124803	-0.000369
 750	7.4525e+01	10.1644	108.211386	0.000811	8.108044	2.747080	-0.000325
 751	7.4625e+01	10.1179	107.799598	0.001034	10.337756	3.502527	-0.000414
 752	7.4725e+01	10.0794	107.476628	0.000811	8.108044	2.747080	-0.000325
 753	7.4824e+01	10.0377	107.117323	0.000902	9.020199	3.056126	-0.000361
 754	7.4924e+01	9.9896	106.753980	0.000912	9.121549	3.090465	-0.000365
 755	7.5023e+01	9.9591	106.390638	0.000912	9.121549	3.090465	-0.000365
 756	7.5123e+01	9.9206	105.942516	0.001125	11.249911	3.811573	-0.000450
 757	7.5222e+01	9.8724	105.635694	0.000770	7.702642	2.609726	-0.000308
 758	7.5322e+01	9.8404	105.223906	0.001034	10.337756	3.502527	-0.000414
 759	7.5421e+01	9.7954	104.800007	0.001064	10.641808	3.605542	-0.000426
 760	7.5520e+01	9.7569	104.408404	0.000983	9.831003	3.330834	-0.000394
 761	7.5620e+01	9.7104	104.036988	0.000932	9.324251	3.159142	-0.000373
 762	7.5719e+01	9.6864	103.693831	0.000861	8.614797	2.918772	-0.000345
 763	7.5819e+01	9.6430	103.294155	0.001003	10.033704	3.399511	-0.000402
 764	7.5918e+01	9.5997	102.950998	0.000861	8.614797	2.918772	-0.000345
 765	7.6018e+01	9.5644	102.539211	0.001034	10.337756	3.502527	-0.000414
 766	7.6118e+01	9.5227	102.159720	0.000953	9.526952	3.227819	-0.000381
 767	7.6217e+01	9.4842	101.816563	0.000861	8.614797	2.918772	-0.000345
 768	7.6317e+01	9.4425	101.449184	0.000922	9.222900	3.124803	-0.000369
 769	7.6416e+01	9.3944	101.085842	0.000912	9.121549	3.090465	-0.000365
 770	7.6516e+01	9.3671	100.722500	0.000912	9.121549	3.090465	-0.000365
 771	7.6615e+01	9.3142	100.330897	0.000983	9.831003	3.330834	-0.000394
 772	7.6715e+01	9.2789	99.963518	0.000922	9.222900	3.124803	-0.000369
 773	7.6814e+01	9.2388	99.579990	0.000963	9.628302	3.262157	-0.000385
 774	7.6913e+01	9.1955	99.236834	0.000861	8.614797	2.918772	-0.000345
 775	7.7013e+01	9.1602	98.808897	0.001074	10.743158	3.639881	-0.000430
 776	7.7112e+01	9.1169	98.405184	0.001014	10.135055	3.433850	-0.000406
 777	7.7212e+01	9.0848	97.977247	0.001074	10.743158	3.639881	-0.000430
 778	7.7311e+01	9.0415	97.613905	0.000912	9.121549	3.090465	-0.000365
 779	7.7411e+01	8.9933	97.218266	0.000993	9.932354	3.365173	-0.000398
 780	7.7510e+01	8.9645	96.846849	0.000932	9.324251	3.159142	-0.000373
 781	7.7610e+01	8.9099	96.459284	0.000973	9.729653	3.296496	-0.000390
 782	7.7710e+01	8.8762	96.063645	0.000993	9.932354	3.365173	-0.000398
 783	7.7809e+01	8.8313	95.704340	0.000902	9.020199	3.056126	-0.000361
 784	7.7909e+01	8.8008	95.357146	0.000872	8.716147	2.953111	-0.000349
 785	7.8008e+01	8.7575	94.985730	0.000932	9.324251	3.159142	-0.000373
 786	7.8108e+01	8.7238	94.614313	0.000932	9.324251	3.159142	-0.000373
 787	7.8207e+01	8.6869	94.198488	0.001044	10.439107	3.536865	-0.000418
 788	7.8306e+01	8.6340	93.839183	0.000902	9.020199	3.056126	-0.000361
 789	7.8406e+01	8.6019	93.411247	0.001074	10.743158	3.639881	-0.000430
 790	7.8505e+01	8.5618	93.035793	0.000943	9.425601	3.193480	-0.000377
 791	7.8605e+01	8.5137	92.644191	0.000983	9.831003	3.330834	-0.000394
 792	7.8704e+01	8.4880	92.296997	0.000872	8.716147	2.953111	-0.000349
 793	7.8804e+01	8.4383	91.869061	0.001074	10.743158	3.639881	-0.000430
 794	7.8903e+01	8.4046	91.497644	0.000932	9.324251	3.159142	-0.000373
 795	7.9003e+01	8.3661	91.085857	0.001034	10.337756	3.502527	-0.000414
 796	7.9103e+01	8.3196	90.714440	0.000932	9.324251	3.159142	-0.000373
 797	7.9202e+01	8.2762	90.270355	0.001115	11.148560	3.777235	-0.000446
 798	7.9302e+01	8.2458	89.886827	0.000963	9.628302	3.262157	-0.000385
 799	7.9401e+01	8.2073	89.511374	0.000943	9.425601	3.193480	-0.000377
 800	7.9501e+01	8.1607	89.111697	0.001003	10.033704	3.399511	-0.000402
 801	7.9600e+01	8.1206	88.764503	0.000872	8.716147	2.953111	-0.000349
 802	7.9700e+01	8.0789	88.364827	0.001003	10.033704	3.399511	-0.000402
 803	7.9799e+01	8.0404	88.053968	0.000780	7.803992	2.644064	-0.000312
 804	7.9898e+01	8.0083	87.638143	0.001044	10.439107	3.536865	-0.000418
 805	7.9998e+01	7.9618	87.274800	0.000912	9.121549	3.090465	-0.000365
 806	8.0097e+01	7.9233	86.858975	0.001044	10.439107	3.536865	-0.000418
 807	8.0197e+01	7.8848	86.507745	0.000882	8.817498	2.987449	-0.000353
 808	8.0296e+01	7.8495	86.079808	0.001074	10.743158	3.639881	-0.000430
 809	8.0396e+01	7.8030	85.712429	0.000922	9.222900	3.124803	-0.000369
 810	8.0496e+01	7.7645	85.332938	0.000953	9.526952	3.227819	-0.000381
 811	8.0595e+01	7.7276	84.961522	0.000932	9.324251	3.159142	-0.000373
 812	8.0695e+01	7.6891	84.509362	0.001135	11.351262	3.845912	-0.000454
 813	8.0794e+01	7.6522	84.154094	0.000892	8.918848	3.021788	-0.000357
 814	8.0894e+01	7.6057	83.701935	0.001135	11.351262	3.845912	-0.000454
 815	8.0993e+01	7.5559	83.318407	0.000963	9.628302	3.262157	-0.000385
 816	8.1093e+01	7.5271	82.906620	0.001034	10.337756	3.502527	-0.000414
 817	8.1192e+01	7.4918	82.539240	0.000922	9.222900	3.124803	-0.000369
 818	8.1291e+01	7.4485	82.192046	0.000872	8.716147	2.953111	-0.000349
 819	8.1391e+01	7.4019	81.772184	0.001054	10.540457	3.571204	-0.000422
 820	8.1490e+01	7.3747	81.416916	0.000892	8.918848	3.021788	-0.000357
 821	8.1590e+01	7.3346	81.041463	0.000943	9.425601	3.193480	-0.000377
 822	8.1689e+01	7.2912	80.661972	0.000953	9.526952	3.227819	-0.000381
 823	8.1789e+01	7.2511	80.286518	0.000943	9.425601	3.193480	-0.000377
 824	8.1888e+01	7.2030	79.890879	0.000993	9.932354	3.365173	-0.000398
 825	8.1988e+01	7.1693	79.491203	0.001003	10.033704	3.399511	-0.000402
 826	8.2088e+01	7.1324	79.095563	0.000993	9.932354	3.365173	-0.000398
 827	8.2187e+01	7.0843	78.667627	0.001074	10.743158	3.639881	-0.000430
 828	8.2287e+01	7.0378	78.292173	0.000943	9.425601	3.193480	-0.000377
 829	8.2386e+01	7.0009	77.900571	0.000983	9.831003	3.330834	-0.000394
 830	8.2486e+01	6.9720	77.517043	0.000963	9.628302	3.262157	-0.000385
 831	8.2585e+01	6.9271	77.081033	0.001095	10.945859	3.708558	-0.000438
 832	8.2684e+01	6.8870	76.685393	0.000993	9.932354	3.365173	-0.000398
 833	8.2784e+01	6.8469	76.277643	0.001024	10.236406	3.468188	-0.000410
 834	8.2883e+01	6.8180	75.914300	0.000912	9.121549	3.090465	-0.000365
 835	8.2983e+01	6.7731	75.526735	0.000973	9.729653	3.296496	-0.000390
 836	8.3082e+01	6.7265	75.127059	0.001003	10.033704	3.399511	-0.000402
 837	8.3182e+01	6.6929	74.723345	0.001014	10.135055	3.433850	-0.000406
 838	8.3281e+01	6.6511	74.372115	0.000882	8.817498	2.987449	-0.000353
 839	8.3381e+01	6.6094	73.980512	0.000983	9.831003	3.330834	-0.000394
 840	8.3481e+01	6.5838	73.576799	0.001014	10.135055	3.433850	-0.000406
 841	8.3580e+01	6.5228	73.189234	0.000973	9.729653	3.296496	-0.000390
 842	8.3680e+01	6.4891	72.825892	0.000912	9.121549	3.090465	-0.000365
 843	8.3779e+01	6.4554	72.426215	0.001003	10.033704	3.399511	-0.000402
 844	8.3879e+01	6.4073	72.014427	0.001034	10.337756	3.502527	-0.000414
 845	8.3978e+01	6.3800	71.626862	0.000973	9.729653	3.296496	-0.000390
 846	8.4078e+01	6.3335	71.235260	0.000983	9.831003	3.330834	-0.000394
 847	8.4177e+01	6.3014	70.835584	0.001003	10.033704	3.399511	-0.000402
 848	8.4276e+01	6.2485	70.431870	0.001014	10.135055	3.433850	-0.000406
 849	8.4376e+01	6.2116	69.991822	0.001105	11.047210	3.742896	-0.000442
 850	8.4475e+01	6.1731	69.600220	0.000983	9.831003	3.330834	-0.000394
 851	8.4575e+01	6.1346	69.204581	0.000993	9.932354	3.365173	-0.000398
 852	8.4674e+01	6.0897	68.788756	0.001044	10.439107	3.536865	-0.000418
 853	8.4774e+01	6.0528	68.409265	0.000953	9.526952	3.227819	-0.000381
 854	8.4874e+01	6.0191	68.009589	0.001003	10.033704	3.399511	-0.000402
 855	8.4973e+01	5.9758	67.642209	0.000922	9.222900	3.124803	-0.000369
 856	8.5073e+01	5.9244	67.250607	0.000983	9.831003	3.330834	-0.000394
 857	8.5172e+01	5.8972	66.846894	0.001014	10.135055	3.433850	-0.000406
 858	8.5272e+01	5.8522	66.431069	0.001044	10.439107	3.536865	-0.000418
 859	8.5371e+01	5.8169	66.063689	0.000922	9.222900	3.124803	-0.000369
 860	8.5471e+01	5.7704	65.668050	0.000993	9.932354	3.365173	-0.000398
 861	8.5570e+01	5.7415	65.236076	0.001084	10.844509	3.674219	-0.000434
 862	8.5669e+01	5.7014	64.840437	0.000993	9.932354	3.365173	-0.000398
 863	8.5769e+01	5.6565	64.493243	0.000872	8.716147	2.953111	-0.000349
 864	8.5868e+01	5.6148	64.037047	0.001145	11.452612	3.880250	-0.000458
 865	8.5968e+01	5.5715	63.718113	0.000801	8.006693	2.712741	-0.000321
 866	8.6067e+01	5.5394	63.282103	0.001095	10.945859	3.708558	-0.000438
 867	8.6167e+01	5.4945	62.833981	0.001125	11.249911	3.811573	-0.000450
 868	8.6266e+01	5.4512	62.450453	0.000963	9.628302	3.262157	-0.000385
 869	8.6366e+01	5.4127	62.058851	0.000983	9.831003	3.330834	-0.000394
 870	8.6466e+01	5.3790	61.594580	0.001166	11.655313	3.948927	-0.000467
 871	8.6565e+01	5.3437	61.251423	0.000861	8.614797	2.918772	-0.000345
 872	8.6665e+01	5.3036	60.888081	0.000912	9.121549	3.090465	-0.000365
 873	8.6764e+01	5.2587	60.460145	0.001074	10.743158	3.639881	-0.000430
 874	8.6864e+01	5.2234	60.072580	0.000973	9.729653	3.296496	-0.000390
 875	8.6963e+01	5.1737	59.689052	0.000963	9.628302	3.262157	-0.000385
 876	8.7063e+01	5.1287	59.261115	0.001074	10.743158	3.639881	-0.000430
 877	8.7162e+01	5.0902	58.837216	0.001064	10.641808	3.605542	-0.000426
 878	8.7261e+01	5.0614	58.477911	0.000902	9.020199	3.056126	-0.000361
 879	8.7361e+01	5.0180	58.086309	0.000983	9.831003	3.330834	-0.000394
 880	8.7460e+01	4.9699	57.666447	0.001054	10.540457	3.571204	-0.000422
 881	8.7560e+01	4.9426	57.222362	0.001115	11.148560	3.777235	-0.000446
 882	8.7659e+01	4.8945	56.879205	0.000861	8.614797	2.918772	-0.000345
 883	8.7759e+01	4.8640	56.439158	0.001105	11.047210	3.742896	-0.000442
 884	8.7859e+01	4.8207	56.031407	0.001024	10.236406	3.468188	-0.000410
 885	8.7958e+01	4.7806	55.607508	0.001064	10.641808	3.605542	-0.000426
 886	8.8058e+01	4.7437	55.171497	0.001095	10.945859	3.708558	-0.000438
 887	8.8157e+01	4.6988	54.755672	0.001044	10.439107	3.536865	-0.000418
 888	8.8257e+01	4.6603	54.384256	0.000932	9.324251	3.159142	-0.000373
 889	8.8356e+01	4.6218	53.919985	0.001166	11.655313	3.948927	-0.000467
 890	8.8456e+01	4.5785	53.601051	0.000801	8.006693	2.712741	-0.000321
 891	8.8555e+01	4.5432	53.185226	0.001044	10.439107	3.536865	-0.000418
 892	8.8654e+01	4.5063	52.793624	0.000983	9.831003	3.330834	-0.000394
 893	8.8754e+01	4.4566	52.397985	0.000993	9.932354	3.365173	-0.000398
 894	8.8853e+01	4.4181	51.941788	0.001145	11.452612	3.880250	-0.000458
 895	8.8953e+01	4.3731	51.525963	0.001044	10.439107	3.536865	-0.000418
 896	8.9052e+01	4.3443	51.134361	0.000983	9.831003	3.330834	-0.000394
 897	8.9152e+01	4.2993	50.746796	0.000973	9.729653	3.296496	-0.000390
 898	8.9251e+01	4.2624	50.278488	0.001176	11.756664	3.983266	-0.000471
 899	8.9351e+01	4.2175	49.886886	0.000983	9.831003	3.330834	-0.000394
 900	8.9451e+01	4.1822	49.483173	0.001014	10.135055	3.433850	-0.000406
 901	8.9550e+01	4.1421	49.087533	0.000993	9.932354	3.365173	-0.000398
 902	8.9650e+01	4.1036	48.651523	0.001095	10.945859	3.708558	-0.000438
 903	8.9749e+01	4.0555	48.243772	0.001024	10.236406	3.468188	-0.000410
 904	8.9849e+01	4.0154	47.783539	0.001155	11.553963	3.914589	-0.000463
 905	8.9948e+01	3.9785	47.395974	0.000973	9.729653	3.296496	-0.000390
 906	9.0047e+01	3.9448	46.931703	0.001166	11.655313	3.948927	-0.000467
 907	9.0147e+01	3.9047	46.560286	0.000932	9.324251	3.159142	-0.000373
 908	9.0246e+01	3.8582	46.196944	0.000912	9.121549	3.090465	-0.000365
 909	9.0346e+01	3.8101	45.764971	0.001084	10.844509	3.674219	-0.000434
 910	9.0445e+01	3.7796	45.337034	0.001074	10.743158	3.639881	-0.000430
 911	9.0545e+01	3.7347	44.973692	0.000912	9.121549	3.090465	-0.000365
 912	9.0644e+01	3.7106	44.533644	0.001105	11.047210	3.742896	-0.000442
 913	9.0744e+01	3.6577	44.133968	0.001003	10.033704	3.399511	-0.000402
 914	9.0844e+01	3.6191	43.706031	0.001074	10.743158	3.639881	-0.000430
 915	9.0943e+01	3.5903	43.326541	0.000953	9.526952	3.227819	-0.000381
 916	9.1043e+01	3.5421	42.886493	0.001105	11.047210	3.742896	-0.000442
 917	9.1142e+01	3.5069	42.474705	0.001034	10.337756	3.502527	-0.000414
 918	9.1242e+01	3.4667	42.062917	0.001034	10.337756	3.502527	-0.000414
 919	9.1341e+01	3.4266	41.655167	0.001024	10.236406	3.468188	-0.000410
 920	9.1441e+01	3.3785	41.207044	0.001125	11.249911	3.811573	-0.000450
 921	9.1540e+01	3.3320	40.771034	0.001095	10.945859	3.708558	-0.000438
 922	9.1639e+01	3.3111	40.339060	0.001084	10.844509	3.674219	-0.000434
 923	9.1739e+01	3.2630	39.947458	0.000983	9.831003	3.330834	-0.000394
 924	9.1838e+01	3.2293	39.563930	0.000963	9.628302	3.262157	-0.000385
 925	9.1938e+01	3.1828	39.144068	0.001054	10.540457	3.571204	-0.000422
 926	9.2037e+01	3.1379	38.695946	0.001125	11.249911	3.811573	-0.000450
 927	9.2137e+01	3.1090	38.328567	0.000922	9.222900	3.124803	-0.000369
 928	9.2237e+01	3.0609	37.908705	0.001054	10.540457	3.571204	-0.000422
 929	9.2336e+01	3.0240	37.468657	0.001105	11.047210	3.742896	-0.000442
 930	9.2436e+01	2.9839	37.008423	0.001155	11.553963	3.914589	-0.000463
 931	9.2535e+01	2.9374	36.628933	0.000953	9.526952	3.227819	-0.000381
 932	9.2635e+01	2.9037	36.213108	0.001044	10.439107	3.536865	-0.000418
 933	9.2734e+01	2.8684	35.773060	0.001105	11.047210	3.742896	-0.000442
 934	9.2834e+01	2.8299	35.377420	0.000993	9.932354	3.365173	-0.000398
 935	9.2933e+01	2.7866	34.969670	0.001024	10.236406	3.468188	-0.000410
 936	9.3032e+01	2.7352	34.509436	0.001155	11.553963	3.914589	-0.000463
 937	9.3132e+01	2.6999	34.093611	0.001044	10.439107	3.536865	-0.000418
 938	9.3231e+01	2.6646	33.697972	0.000993	9.932354	3.365173	-0.000398
 939	9.3331e+01	2.6245	33.278110	0.001054	10.540457	3.571204	-0.000422
 940	9.3430e+01	2.5908	32.817876	0.001155	11.553963	3.914589	-0.000463
 941	9.3530e+01	2.5539	32.369754	0.001125	11.249911	3.811573	-0.000450
 942	9.3629e+01	2.5154	32.002375	0.000922	9.222900	3.124803	-0.000369
 943	9.3729e+01	2.4689	31.614810	0.000973	9.729653	3.296496	-0.000390
 944	9.3829e+01	2.4336	31.198985	0.001044	10.439107	3.536865	-0.000418
 945	9.3928e+01	2.3871	30.738752	0.001155	11.553963	3.914589	-0.000463
 946	9.4028e+01	2.3454	30.306778	0.001084	10.844509	3.674219	-0.000434
 947	9.4127e+01	2.3117	29.899027	0.001024	10.236406	3.468188	-0.000410
 948	9.4227e+01	2.2652	29.450905	0.001125	11.249911	3.811573	-0.000450
 949	9.4326e+01	2.2347	29.031043	0.001054	10.540457	3.571204	-0.000422
 950	9.4425e+01	2.1802	28.651552	0.000953	9.526952	3.227819	-0.000381
 951	9.4525e+01	2.1352	28.227653	0.001064	10.641808	3.605542	-0.000426
 952	9.4624e+01	2.0967	27.799717	0.001074	10.743158	3.639881	-0.000430
 953	9.4724e+01	2.0679	27.367743	0.001084	10.844509	3.674219	-0.000434
 954	9.4823e+01	2.0261	26.931733	0.001095	10.945859	3.708558	-0.000438
 955	9.4923e+01	1.9892	26.503796	0.001074	10.743158	3.639881	-0.000430
 956	9.5022e+01	1.9475	26.096045	0.001024	10.236406	3.468188	-0.000410
 957	9.5122e+01	1.9122	25.639849	0.001145	11.452612	3.880250	-0.000458
 958	9.5222e+01	1.8657	25.248247	0.000983	9.831003	3.330834	-0.000394
 959	9.5321e+01	1.8385	24.783976	0.001166	11.655313	3.948927	-0.000467
 960	9.5421e+01	1.7855	24.376226	0.001024	10.236406	3.468188	-0.000410
 961	9.5520e+01	1.7550	24.008846	0.000922	9.222900	3.124803	-0.000369
 962	9.5620e+01	1.7021	23.544576	0.001166	11.655313	3.948927	-0.000467
 963	9.5719e+01	1.6732	23.177196	0.000922	9.222900	3.124803	-0.000369
 964	9.5819e+01	1.6299	22.708889	0.001176	11.756664	3.983266	-0.000471
 965	9.5918e+01	1.5930	22.252692	0.001145	11.452612	3.880250	-0.000458
 966	9.6017e+01	1.5513	21.840904	0.001034	10.337756	3.502527	-0.000414
 967	9.6117e+01	1.5192	21.412968	0.001074	10.743158	3.639881	-0.000430
 968	9.6216e+01	1.4711	21.037514	0.000943	9.425601	3.193480	-0.000377
 969	9.6316e+01	1.4406	20.589392	0.001125	11.249911	3.811573	-0.000450
 970	9.6415e+01	1.3845	20.161456	0.001074	10.743158	3.639881	-0.000430
 971	9.6515e+01	1.3476	19.741594	0.001054	10.540457	3.571204	-0.000422
 972	9.6615e+01	1.3074	19.349992	0.000983	9.831003	3.330834	-0.000394
 973	9.6714e+01	1.2722	18.930129	0.001054	10.540457	3.571204	-0.000422
 974	9.6814e+01	1.2321	18.477970	0.001135	11.351262	3.845912	-0.000454
 975	9.6913e+01	1.1952	18.058108	0.001054	10.540457	3.571204	-0.000422
 976	9.7013e+01	1.1534	17.601912	0.001145	11.452612	3.880250	-0.000458
 977	9.7112e+01	1.1053	17.149753	0.001135	11.351262	3.845912	-0.000454
 978	9.7212e+01	1.0716	16.798522	0.000882	8.817498	2.987449	-0.000353
 979	9.7311e+01	1.0219	16.386734	0.001034	10.337756	3.502527	-0.000414
 980	9.7410e+01	0.9898	15.946686	0.001105	11.047210	3.742896	-0.000442
 981	9.7510e+01	0.9561	15.502601	0.001115	11.148560	3.777235	-0.000446
 982	9.7609e+01	0.9128	15.094851	0.001024	10.236406	3.468188	-0.000410
 983	9.7709e+01	0.8647	14.666914	0.001074	10.743158	3.639881	-0.000430
 984	9.7808e+01	0.8310	14.222829	0.001115	11.148560	3.777235	-0.000446
 985	9.7908e+01	0.7909	13.847376	0.000943	9.425601	3.193480	-0.000377
 986	9.8007e+01	0.7508	13.435588	0.001034	10.337756	3.502527	-0.000414
 987	9.8107e+01	0.7075	13.003614	0.001084	10.844509	3.674219	-0.000434
 988	9.8207e+01	0.6722	12.567604	0.001095	10.945859	3.708558	-0.000438
 989	9.8306e+01	0.6369	12.091222	0.001196	11.959365	4.051942	-0.000479
 990	9.8406e+01	0.5936	11.691545	0.001003	10.033704	3.399511	-0.000402
 991	9.8505e+01	0.5535	11.320129	0.000932	9.324251	3.159142	-0.000373
 992	9.8605e+01	0.5118	10.896229	0.001064	10.641808	3.605542	-0.000426
 993	9.8704e+01	0.4732	10.427922	0.001176	11.756664	3.983266	-0.000471
 994	9.8803e+01	0.4412	10.004022	0.001064	10.641808	3.605542	-0.000426
 995	9.8903e+01	0.4011	9.616457	0.000973	9.729653	3.296496	-0.000390
 996	9.9002e+01	0.3610	9.140075	0.001196	11.959365	4.051942	-0.000479
 997	9.9102e+01	0.3144	8.744436	0.000993	9.932354	3.365173	-0.000398
 998	9.9201e+01	0.2791	8.316500	0.001074	10.743158	3.639881	-0.000430
 999	9.9301e+01	0.2342	7.876452	0.001105	11.047210	3.742896	-0.000442
1000	9.9400e+01	0.2021	7.500998	0.000943	9.425601	3.193480	-0.000377
1001	9.9500e+01	0.1572	7.052876	0.001125	11.249911	3.811573	-0.000450
1002	9.9600e+01	0.1219	6.649163	0.001014	10.135055	3.433850	-0.000406
1003	9.9699e+01	0.0706	6.176818	0.001186	11.858014	4.017604	-0.000475
1004	9.9799e+01	0.0321	5.773104	0.001014	10.135055	3.433850	-0.000406
1005	9.9898e+01	0.0048	5.446096	0.000821	8.209395	2.781418	-0.000329
1006	9.9998e+01	-0.0417	4.981826	0.001166	11.655313	3.948927	-0.000467
1007	1.0010e+02	-0.0802	4.614446	0.000922	9.222900	3.124803	-0.000369
1008	1.0020e+02	-0.1219	4.174398	0.001105	11.047210	3.742896	-0.000442
1009	1.0030e+02	-0.1444	3.766648	0.001024	10.236406	3.468188	-0.000410
1010	1.0040e+02	-0.2037	3.322563	0.001115	11.148560	3.777235	-0.000446
1011	1.0050e+02	-0.2358	2.906738	0.001044	10.439107	3.536865	-0.000418
1012	1.0059e+02	-0.2711	2.454579	0.001135	11.351262	3.845912	-0.000454
1013	1.0069e+02	-0.3176	2.058939	0.000993	9.932354	3.365173	-0.000398
1014	1.0079e+02	-0.3545	1.618891	0.001105	11.047210	3.742896	-0.000442
1015	1.0089e+02	-0.3898	1.239401	0.000953	9.526952	3.227819	-0.000381
1016	1.0099e+02	-0.4235	0.758982	0.001206	12.060715	4.086281	-0.000483
1017	1.0109e+02	-0.4749	0.367379	0.000983	9.831003	3.330834	-0.000394
1018	1.0119e+02	-0.5150	-0.072668	0.001105	11.047210	3.742896	-0.000442
1019	1.0129e+02	-0.5583	-0.468308	0.000993	9.932354	3.365173	-0.000398
1020	1.0139e+02	-0.5952	-0.912393	0.001115	11.148560	3.777235	-0.000446
1021	1.0149e+02	-0.6289	-1.299958	0.000973	9.729653	3.296496	-0.000390
1022	1.0159e+02	-0.6738	-1.776340	0.001196	11.959365	4.051942	-0.000479
1023	1.0169e+02	-0.7123	-2.171979	0.000993	9.932354	3.365173	-0.000398
1024	1.0179e+02	-0.7556	-2.599915	0.001074	10.743158	3.639881	-0.000430
1025	1.0189e+02	-0.7909	-2.991518	0.000983	9.831003	3.330834	-0.000394
1026	1.0199e+02	-0.8374	-3.447714	0.001145	11.452612	3.880250	-0.000458
1027	1.0209e+02	-0.8775	-3.867576	0.001054	10.540457	3.571204	-0.000422
1028	1.0219e+02	-0.9080	-4.283401	0.001044	10.439107	3.536865	-0.000418
1029	1.0229e+02	-0.9513	-4.675003	0.000983	9.831003	3.330834	-0.000394
1030	1.0239e+02	-0.9882	-5.135237	0.001155	11.553963	3.914589	-0.000463
1031	1.0248e+02	-1.0315	-5.583359	0.001125	11.249911	3.811573	-0.000450
1032	1.0258e+02	-1.0716	-5.970924	0.000973	9.729653	3.296496	-0.000390
1033	1.0268e+02	-1.1101	-6.362526	0.000983	9.831003	3.330834	-0.000394
1034	1.0278e+02	-1.1518	-6.770277	0.001024	10.236406	3.468188	-0.000410
1035	1.0288e+02	-1.1968	-7.254733	0.001216	12.162066	4.120619	-0.000487
1036	1.0298e+02	-1.2337	-7.658446	0.001014	10.135055	3.433850	-0.000406
1037	1.0308e+02	-1.2657	-8.029863	0.000932	9.324251	3.159142	-0.000373
1038	1.0318e+02	-1.3010	-8.469911	0.001105	11.047210	3.742896	-0.000442
1039	1.0328e+02	-1.3556	-8.922070	0.001135	11.351262	3.845912	-0.000454
1040	1.0338e+02	-1.3973	-9.325784	0.001014	10.135055	3.433850	-0.000406
1041	1.0348e+02	-1.4278	-9.757757	0.001084	10.844509	3.674219	-0.000434
1042	1.0358e+02	-1.4663	-10.169545	0.001034	10.337756	3.502527	-0.000414
1043	1.0368e+02	-1.5144	-10.573258	0.001014	10.135055	3.433850	-0.000406
1044	1.0378e+02	-1.5609	-11.025418	0.001135	11.351262	3.845912	-0.000454
1045	1.0388e+02	-1.5914	-11.425094	0.001003	10.033704	3.399511	-0.000402
1046	1.0398e+02	-1.6267	-11.865142	0.001105	11.047210	3.742896	-0.000442
1047	1.0408e+02	-1.6684	-12.297115	0.001084	10.844509	3.674219	-0.000434
1048	1.0418e+02	-1.7197	-12.684680	0.000973	9.729653	3.296496	-0.000390
1049	1.0428e+02	-1.7566	-13.116654	0.001084	10.844509	3.674219	-0.000434
1050	1.0438e+02	-1.7807	-13.540553	0.001064	10.641808	3.605542	-0.000426
1051	1.0447e+02	-1.8304	-13.976564	0.001095	10.945859	3.708558	-0.000438
1052	1.0457e+02	-1.8705	-14.440835	0.001166	11.655313	3.948927	-0.000467
1053	1.0467e+02	-1.9138	-14.832437	0.000983	9.831003	3.330834	-0.000394
1054	1.0477e+02	-1.9427	-15.252299	0.001054	10.540457	3.571204	-0.000422
1055	1.0487e+02	-1.9941	-15.643901	0.000983	9.831003	3.330834	-0.000394
1056	1.0497e+02	-2.0278	-16.108172	0.001166	11.655313	3.948927	-0.000467
1057	1.0507e+02	-2.0743	-16.511885	0.001014	10.135055	3.433850	-0.000406
1058	1.0517e+02	-2.1112	-16.964044	0.001135	11.351262	3.845912	-0.000454
1059	1.0527e+02	-2.1433	-17.371795	0.001024	10.236406	3.468188	-0.000410
1060	1.0537e+02	-2.1930	-17.767434	0.000993	9.932354	3.365173	-0.000398
1061	1.0547e+02	-2.2235	-18.159037	0.000983	9.831003	3.330834	-0.000394
1062	1.0557e+02	-2.2668	-18.623307	0.001166	11.655313	3.948927	-0.000467
1063	1.0567e+02	-2.3117	-19.087578	0.001166	11.655313	3.948927	-0.000467
1064	1.0577e+02	-2.3534	-19.471106	0.000963	9.628302	3.262157	-0.000385
1065	1.0587e+02	-2.3855	-19.890968	0.001054	10.540457	3.571204	-0.000422
1066	1.0597e+02	-2.4304	-20.318904	0.001074	10.743158	3.639881	-0.000430
1067	1.0607e+02	-2.4609	-20.718581	0.001003	10.033704	3.399511	-0.000402
1068	1.0617e+02	-2.5058	-21.146517	0.001074	10.743158	3.639881	-0.000430
1069	1.0627e+02	-2.5411	-21.574453	0.001074	10.743158	3.639881	-0.000430
1070	1.0637e+02	-2.5700	-22.002390	0.001074	10.743158	3.639881	-0.000430
1071	1.0647e+02	-2.6261	-22.454549	0.001135	11.351262	3.845912	-0.000454
1072	1.0656e+02	-2.6566	-22.842114	0.000973	9.729653	3.296496	-0.000390
1073	1.0666e+02	-2.7079	-23.294273	0.001135	11.351262	3.845912	-0.000454
1074	1.0676e+02	-2.7481	-23.689913	0.000993	9.932354	3.365173	-0.000398
1075	1.0686e+02	-2.8026	-24.142072	0.001135	11.351262	3.845912	-0.000454
1076	1.0696e+02	-2.8283	-24.517525	0.000943	9.425601	3.193480	-0.000377
1077	1.0706e+02	-2.8700	-24.937387	0.001054	10.540457	3.571204	-0.000422
1078	1.0716e+02	-2.9005	-25.405695	0.001176	11.756664	3.983266	-0.000471
1079	1.0726e+02	-2.9534	-25.853817	0.001125	11.249911	3.811573	-0.000450
1080	1.0736e+02	-2.9839	-26.213122	0.000902	9.020199	3.056126	-0.000361
1081	1.0746e+02	-3.0224	-26.669319	0.001145	11.452612	3.880250	-0.000458
1082	1.0756e+02	-3.0721	-27.081107	0.001034	10.337756	3.502527	-0.000414
1083	1.0766e+02	-3.1090	-27.525191	0.001115	11.148560	3.777235	-0.000446
1084	1.0776e+02	-3.1539	-27.900645	0.000943	9.425601	3.193480	-0.000377
1085	1.0786e+02	-3.1876	-28.340693	0.001105	11.047210	3.742896	-0.000442
1086	1.0796e+02	-3.2197	-28.744406	0.001014	10.135055	3.433850	-0.000406
1087	1.0806e+02	-3.2646	-29.144083	0.001003	10.033704	3.399511	-0.000402
1088	1.0816e+02	-3.3031	-29.600279	0.001145	11.452612	3.880250	-0.000458
1089	1.0826e+02	-3.3528	-29.995919	0.000993	9.932354	3.365173	-0.000398
1090	1.0836e+02	-3.3801	-30.399632	0.001014	10.135055	3.433850	-0.000406
1091	1.0845e+02	-3.4331	-30.876014	0.001196	11.959365	4.051942	-0.000479
1092	1.0855e+02	-3.4635	-31.243393	0.000922	9.222900	3.124803	-0.000369
1093	1.0865e+02	-3.4972	-31.687478	0.001115	11.148560	3.777235	-0.000446
1094	1.0875e+02	-3.5261	-32.143675	0.001145	11.452612	3.880250	-0.000458
1095	1.0885e+02	-3.5951	-32.543351	0.001003	10.033704	3.399511	-0.000402
1096	1.0895e+02	-3.6191	-32.967250	0.001064	10.641808	3.605542	-0.000426
1097	1.0905e+02	-3.6673	-33.395187	0.001074	10.743158	3.639881	-0.000430
1098	1.0915e+02	-3.7042	-33.815049	0.001054	10.540457	3.571204	-0.000422
1099	1.0925e+02	-3.7330	-34.218763	0.001014	10.135055	3.433850	-0.000406
1100	1.0935e+02	-3.7876	-34.678996	0.001155	11.553963	3.914589	-0.000463
1101	1.0945e+02	-3.8133	-35.094821	0.001044	10.439107	3.536865	-0.000418
1102	1.0955e+02	-3.8566	-35.506609	0.001034	10.337756	3.502527	-0.000414
1103	1.0965e+02	-3.8967	-35.898211	0.000983	9.831003	3.330834	-0.000394
1104	1.0975e+02	-3.9416	-36.362482	0.001166	11.655313	3.948927	-0.000467
1105	1.0985e+02	-3.9849	-36.733898	0.000932	9.324251	3.159142	-0.000373
1106	1.0995e+02	-4.0234	-37.137612	0.001014	10.135055	3.433850	-0.000406
1107	1.1005e+02	-4.0667	-37.565548	0.001074	10.743158	3.639881	-0.000430
1108	1.1015e+02	-4.0972	-37.989447	0.001064	10.641808	3.605542	-0.000426
1109	1.1025e+02	-4.1485	-38.429495	0.001105	11.047210	3.742896	-0.000442
1110	1.1035e+02	-4.1790	-38.841283	0.001034	10.337756	3.502527	-0.000414
1111	1.1044e+02	-4.2255	-39.253071	0.001034	10.337756	3.502527	-0.000414
1112	1.1054e+02	-4.2641	-39.640636	0.000973	9.729653	3.296496	-0.000390
1113	1.1064e+02	-4.3122	-40.088758	0.001125	11.249911	3.811573	-0.000450
1114	1.1074e+02	-4.3378	-40.532843	0.001115	11.148560	3.777235	-0.000446
1115	1.1084e+02	-4.3844	-40.928482	0.000993	9.932354	3.365173	-0.000398
1116	1.1094e+02	-4.4132	-41.368530	0.001105	11.047210	3.742896	-0.000442
1117	1.1104e+02	-4.4566	-41.800503	0.001084	10.844509	3.674219	-0.000434
1118	1.1114e+02	-4.4999	-42.184031	0.000963	9.628302	3.262157	-0.000385
1119	1.1124e+02	-4.5304	-42.648302	0.001166	11.655313	3.948927	-0.000467
1120	1.1134e+02	-4.5769	-43.035867	0.000973	9.729653	3.296496	-0.000390
1121	1.1144e+02	-4.6218	-43.447655	0.001034	10.337756	3.502527	-0.000414
1122	1.1154e+02	-4.6619	-43.867517	0.001054	10.540457	3.571204	-0.000422
1123	1.1164e+02	-4.6812	-44.275268	0.001024	10.236406	3.468188	-0.000410
1124	1.1174e+02	-4.7421	-44.699167	0.001064	10.641808	3.605542	-0.000426
1125	1.1184e+02	-4.7726	-45.090769	0.000983	9.831003	3.330834	-0.000394
1126	1.1194e+02	-4.8079	-45.482371	0.000983	9.831003	3.330834	-0.000394
1127	1.1204e+02	-4.8688	-45.918382	0.001095	10.945859	3.708558	-0.000438
1128	1.1214e+02	-4.8977	-46.354393	0.001095	10.945859	3.708558	-0.000438
1129	1.1224e+02	-4.9394	-46.758106	0.001014	10.135055	3.433850	-0.000406
1130	1.1234e+02	-4.9747	-47.137597	0.000953	9.526952	3.227819	-0.000381
1131	1.1244e+02	-5.0180	-47.626090	0.001226	12.263416	4.154958	-0.000491
1132	1.1253e+02	-5.0549	-48.033841	0.001024	10.236406	3.468188	-0.000410
1133	1.1263e+02	-5.1031	-48.425443	0.000983	9.831003	3.330834	-0.000394
1134	1.1273e+02	-5.1400	-48.825120	0.001003	10.033704	3.399511	-0.000402
1135	1.1283e+02	-5.1785	-49.240945	0.001044	10.439107	3.536865	-0.000418
1136	1.1293e+02	-5.2122	-49.636584	0.000993	9.932354	3.365173	-0.000398
1137	1.1303e+02	-5.2587	-50.104892	0.001176	11.756664	3.983266	-0.000471
1138	1.1313e+02	-5.2924	-50.516679	0.001034	10.337756	3.502527	-0.000414
1139	1.1323e+02	-5.3244	-50.924430	0.001024	10.236406	3.468188	-0.000410
1140	1.1333e+02	-5.3774	-51.332181	0.001024	10.236406	3.468188	-0.000410
1141	1.1343e+02	-5.4175	-51.699560	0.000922	9.222900	3.124803	-0.000369
1142	1.1353e+02	-5.4480	-52.083088	0.000963	9.628302	3.262157	-0.000385
1143	1.1363e+02	-5.4881	-52.523136	0.001105	11.047210	3.742896	-0.000442
1144	1.1373e+02	-5.5330	-52.914738	0.000983	9.831003	3.330834	-0.000394
1145	1.1383e+02	-5.5827	-53.338637	0.001064	10.641808	3.605542	-0.000426
1146	1.1393e+02	-5.6228	-53.750425	0.001034	10.337756	3.502527	-0.000414
1147	1.1403e+02	-5.6533	-54.162213	0.001034	10.337756	3.502527	-0.000414
1148	1.1413e+02	-5.6950	-54.557852	0.000993	9.932354	3.365173	-0.000398
1149	1.1423e+02	-5.7448	-54.961566	0.001014	10.135055	3.433850	-0.000406
1150	1.1433e+02	-5.7736	-55.397577	0.001095	10.945859	3.708558	-0.000438
1151	1.1442e+02	-5.8089	-55.805327	0.001024	10.236406	3.468188	-0.000410
1152	1.1452e+02	-5.8635	-56.160595	0.000892	8.918848	3.021788	-0.000357
1153	1.1462e+02	-5.9004	-56.560272	0.001003	10.033704	3.399511	-0.000402
1154	1.1472e+02	-5.9308	-57.024542	0.001166	11.655313	3.948927	-0.000467
1155	1.1482e+02	-5.9742	-57.452479	0.001074	10.743158	3.639881	-0.000430
1156	1.1492e+02	-6.0159	-57.876378	0.001064	10.641808	3.605542	-0.000426
1157	1.1502e+02	-6.0528	-58.280092	0.001014	10.135055	3.433850	-0.000406
1158	1.1512e+02	-6.0897	-58.635359	0.000892	8.918848	3.021788	-0.000357
1159	1.1522e+02	-6.1378	-59.035036	0.001003	10.033704	3.399511	-0.000402
1160	1.1532e+02	-6.1699	-59.446824	0.001034	10.337756	3.502527	-0.000414
1161	1.1542e+02	-6.2116	-59.810166	0.000912	9.121549	3.090465	-0.000365
1162	1.1552e+02	-6.2533	-60.254251	0.001115	11.148560	3.777235	-0.000446
1163	1.1562e+02	-6.2934	-60.617593	0.000912	9.121549	3.090465	-0.000365
1164	1.1572e+02	-6.3319	-61.025344	0.001024	10.236406	3.468188	-0.000410
1165	1.1582e+02	-6.3784	-61.425020	0.001003	10.033704	3.399511	-0.000402
1166	1.1592e+02	-6.4057	-61.820660	0.000993	9.932354	3.365173	-0.000398
1167	1.1602e+02	-6.4538	-62.224373	0.001014	10.135055	3.433850	-0.000406
1168	1.1612e+02	-6.4923	-62.640198	0.001044	10.439107	3.536865	-0.000418
1169	1.1622e+02	-6.5324	-63.027763	0.000973	9.729653	3.296496	-0.000390
1170	1.1632e+02	-6.5741	-63.435514	0.001024	10.236406	3.468188	-0.000410
1171	1.1642e+02	-6.6126	-63.831153	0.000993	9.932354	3.365173	-0.000398
1172	1.1651e+02	-6.6415	-64.251015	0.001054	10.540457	3.571204	-0.000422
1173	1.1661e+02	-6.6848	-64.654729	0.001014	10.135055	3.433850	-0.000406
1174	1.1671e+02	-6.7314	-65.131111	0.001196	11.959365	4.051942	-0.000479
1175	1.1681e+02	-6.7667	-65.470230	0.000851	8.513446	2.884434	-0.000341
1176	1.1691e+02	-6.8084	-65.877981	0.001024	10.236406	3.468188	-0.000410
1177	1.1701e+02	-6.8453	-66.273620	0.000993	9.932354	3.365173	-0.000398
1178	1.1711e+02	-6.8886	-66.645037	0.000932	9.324251	3.159142	-0.000373
1179	1.1721e+02	-6.9287	-67.028565	0.000963	9.628302	3.262157	-0.000385
1180	1.1731e+02	-6.9640	-67.404018	0.000943	9.425601	3.193480	-0.000377
1181	1.1741e+02	-7.0073	-67.811769	0.001024	10.236406	3.468188	-0.000410
1182	1.1751e+02	-7.0490	-68.223557	0.001034	10.337756	3.502527	-0.000414
1183	1.1761e+02	-7.0843	-68.623233	0.001003	10.033704	3.399511	-0.000402
1184	1.1771e+02	-7.1356	-69.022910	0.001003	10.033704	3.399511	-0.000402
1185	1.1781e+02	-7.1677	-69.454883	0.001084	10.844509	3.674219	-0.000434
1186	1.1791e+02	-7.2046	-69.761706	0.000770	7.702642	2.609726	-0.000308
1187	1.1801e+02	-7.2431	-70.173493	0.001034	10.337756	3.502527	-0.000414
1188	1.1811e+02	-7.2944	-70.581244	0.001024	10.236406	3.468188	-0.000410
1189	1.1821e+02	-7.3233	-70.976883	0.000993	9.932354	3.365173	-0.000398
1190	1.1831e+02	-7.3682	-71.384634	0.001024	10.236406	3.468188	-0.000410
1191	1.1841e+02	-7.4083	-71.792385	0.001024	10.236406	3.468188	-0.000410
1192	1.1850e+02	-7.4404	-72.208210	0.001044	10.439107	3.536865	-0.000418
1193	1.1860e+02	-7.4837	-72.632109	0.001064	10.641808	3.605542	-0.000426
1194	1.1870e+02	-7.5287	-73.011600	0.000953	9.526952	3.227819	-0.000381
1195	1.1880e+02	-7.5624	-73.378979	0.000922	9.222900	3.124803	-0.000369
1196	1.1890e+02	-7.6025	-73.762507	0.000963	9.628302	3.262157	-0.000385
1197	1.1900e+02	-7.6378	-74.141998	0.000953	9.526952	3.227819	-0.000381
1198	1.1910e+02	-7.6859	-74.545711	0.001014	10.135055	3.433850	-0.000406
1199	1.1920e+02	-7.7244	-74.876757	0.000831	8.310745	2.815757	-0.000333
1200	1.1930e+02	-7.7661	-75.312767	0.001095	10.945859	3.708558	-0.000438
1201	1.1940e+02	-7.7982	-75.688221	0.000943	9.425601	3.193480	-0.000377
1202	1.1950e+02	-7.8431	-76.071749	0.000963	9.628302	3.262157	-0.000385
1203	1.1960e+02	-7.8944	-76.495648	0.001064	10.641808	3.605542	-0.000426
1204	1.1970e+02	-7.9233	-76.858990	0.000912	9.121549	3.090465	-0.000365
1205	1.1980e+02	-7.9730	-77.258667	0.001003	10.033704	3.399511	-0.000402
1206	1.1990e+02	-8.0067	-77.630083	0.000932	9.324251	3.159142	-0.000373
1207	1.2000e+02	-8.0484	-78.005537	0.000943	9.425601	3.193480	-0.000377
1208	1.2010e+02	-8.0805	-78.461733	0.001145	11.452612	3.880250	-0.000458
1209	1.2020e+02	-8.1238	-78.841224	0.000953	9.526952	3.227819	-0.000381
1210	1.2030e+02	-8.1639	-79.281272	0.001105	11.047210	3.742896	-0.000442
1211	1.2039e+02	-8.2040	-79.628465	0.000872	8.716147	2.953111	-0.000349
1212	1.2049e+02	-8.2377	-80.020067	0.000983	9.831003	3.330834	-0.000394
1213	1.2059e+02	-8.2778	-80.427818	0.001024	10.236406	3.468188	-0.000410
1214	1.2069e+02	-8.3228	-80.787123	0.000902	9.020199	3.056126	-0.000361
1215	1.2079e+02	-8.3613	-81.154503	0.000922	9.222900	3.124803	-0.000369
1216	1.2089e+02	-8.3966	-81.570328	0.001044	10.439107	3.536865	-0.000418
1217	1.2099e+02	-8.4479	-81.893298	0.000811	8.108044	2.747080	-0.000325
1218	1.2109e+02	-8.4800	-82.309123	0.001044	10.439107	3.536865	-0.000418
1219	1.2119e+02	-8.5233	-82.728986	0.001054	10.540457	3.571204	-0.000422
1220	1.2129e+02	-8.5570	-83.092328	0.000912	9.121549	3.090465	-0.000365
1221	1.2139e+02	-8.5955	-83.487967	0.000993	9.932354	3.365173	-0.000398
1222	1.2149e+02	-8.6388	-83.851309	0.000912	9.121549	3.090465	-0.000365
1223	1.2159e+02	-8.6901	-84.263097	0.001034	10.337756	3.502527	-0.000414
1224	1.2169e+02	-8.7206	-84.658736	0.000993	9.932354	3.365173	-0.000398
1225	1.2179e+02	-8.7575	-85.001893	0.000861	8.614797	2.918772	-0.000345
1226	1.2189e+02	-8.7960	-85.401569	0.001003	10.033704	3.399511	-0.000402
1227	1.2199e+02	-8.8457	-85.813357	0.001034	10.337756	3.502527	-0.000414
1228	1.2209e+02	-8.8810	-86.257442	0.001115	11.148560	3.777235	-0.000446
1229	1.2219e+02	-8.9227	-86.649044	0.000983	9.831003	3.330834	-0.000394
1230	1.2229e+02	-8.9596	-87.028535	0.000953	9.526952	3.227819	-0.000381
1231	1.2239e+02	-9.0046	-87.416100	0.000973	9.729653	3.296496	-0.000390
1232	1.2248e+02	-9.0382	-87.763294	0.000872	8.716147	2.953111	-0.000349
1233	1.2258e+02	-9.0928	-88.142785	0.000953	9.526952	3.227819	-0.000381
1234	1.2268e+02	-9.1040	-88.473830	0.000831	8.310745	2.815757	-0.000333
1235	1.2278e+02	-9.1634	-88.893692	0.001054	10.540457	3.571204	-0.000422
1236	1.2288e+02	-9.2115	-89.248960	0.000892	8.918848	3.021788	-0.000357
1237	1.2298e+02	-9.2372	-89.664785	0.001044	10.439107	3.536865	-0.000418
1238	1.2308e+02	-9.2805	-90.016016	0.000882	8.817498	2.987449	-0.000353
1239	1.2318e+02	-9.3206	-90.399543	0.000963	9.628302	3.262157	-0.000385
1240	1.2328e+02	-9.3575	-90.831517	0.001084	10.844509	3.674219	-0.000434
1241	1.2338e+02	-9.4008	-91.223119	0.000983	9.831003	3.330834	-0.000394
1242	1.2348e+02	-9.4329	-91.538016	0.000791	7.905343	2.678403	-0.000316
1243	1.2358e+02	-9.4762	-91.961915	0.001064	10.641808	3.605542	-0.000426
1244	1.2368e+02	-9.5179	-92.353517	0.000983	9.831003	3.330834	-0.000394
1245	1.2378e+02	-9.5644	-92.801639	0.001125	11.249911	3.811573	-0.000450
1246	1.2388e+02	-9.5981	-93.152870	0.000882	8.817498	2.987449	-0.000353
1247	1.2398e+02	-9.6430	-93.508138	0.000892	8.918848	3.021788	-0.000357
1248	1.2408e+02	-9.6799	-93.923963	0.001044	10.439107	3.536865	-0.000418
1249	1.2418e+02	-9.7233	-94.343825	0.001054	10.540457	3.571204	-0.000422
1250	1.2428e+02	-9.7569	-94.678907	0.000841	8.412096	2.850095	-0.000337
1251	1.2438e+02	-9.8003	-95.066472	0.000973	9.729653	3.296496	-0.000390
1252	1.2447e+02	-9.8323	-95.393480	0.000821	8.209395	2.781418	-0.000329
1253	1.2457e+02	-9.8805	-95.809305	0.001044	10.439107	3.536865	-0.000418
1254	1.2467e+02	-9.9254	-96.160536	0.000882	8.817498	2.987449	-0.000353
1255	1.2477e+02	-9.9559	-96.556175	0.000993	9.932354	3.365173	-0.000398
1256	1.2487e+02	-9.9992	-96.879146	0.000811	8.108044	2.747080	-0.000325
1257	1.2497e+02	-10.0345	-97.299008	0.001054	10.540457	3.571204	-0.000422
1258	1.2507e+02	-10.0778	-97.702722	0.001014	10.135055	3.433850	-0.000406
1259	1.2517e+02	-10.1211	-98.066064	0.000912	9.121549	3.090465	-0.000365
1260	1.2527e+02	-10.1548	-98.473815	0.001024	10.236406	3.468188	-0.000410
1261	1.2537e+02	-10.1997	-98.873491	0.001003	10.033704	3.399511	-0.000402
1262	1.2547e+02	-10.2398	-99.281242	0.001024	10.236406	3.468188	-0.000410
1263	1.2557e+02	-10.2735	-99.620361	0.000851	8.513446	2.884434	-0.000341
1264	1.2567e+02	-10.3200	-99.967555	0.000872	8.716147	2.953111	-0.000349
1265	1.2577e+02	-10.3505	-100.403566	0.001095	10.945859	3.708558	-0.000438
1266	1.2587e+02	-10.3986	-100.750759	0.000872	8.716147	2.953111	-0.000349
1267	1.2597e+02	-10.4291	-101.138325	0.000973	9.729653	3.296496	-0.000390
1268	1.2607e+02	-10.4692	-101.513778	0.000943	9.425601	3.193480	-0.000377
1269	1.2617e+02	-10.5206	-101.856935	0.000861	8.614797	2.918772	-0.000345
1270	1.2627e+02	-10.5639	-102.236425	0.000953	9.526952	3.227819	-0.000381
1271	1.2636e+02	-10.5944	-102.595731	0.000902	9.020199	3.056126	-0.000361
1272	1.2646e+02	-10.6345	-102.950998	0.000892	8.918848	3.021788	-0.000357
1273	1.2656e+02	-10.6762	-103.378935	0.001074	10.743158	3.639881	-0.000430
1274	1.2666e+02	-10.7099	-103.738240	0.000902	9.020199	3.056126	-0.000361
1275	1.2676e+02	-10.7532	-104.089471	0.000882	8.817498	2.987449	-0.000353
1276	1.2686e+02	-10.7869	-104.521444	0.001084	10.844509	3.674219	-0.000434
1277	1.2696e+02	-10.8318	-104.880749	0.000902	9.020199	3.056126	-0.000361
1278	1.2706e+02	-10.8655	-105.268314	0.000973	9.729653	3.296496	-0.000390
1279	1.2716e+02	-10.9168	-105.615508	0.000872	8.716147	2.953111	-0.000349
1280	1.2726e+02	-10.9521	-106.099964	0.001216	12.162066	4.120619	-0.000487
1281	1.2736e+02	-10.9906	-106.426972	0.000821	8.209395	2.781418	-0.000329
1282	1.2746e+02	-11.0275	-106.814537	0.000973	9.729653	3.296496	-0.000390
1283	1.2756e+02	-11.0708	-107.161731	0.000872	8.716147	2.953111	-0.000349
1284	1.2766e+02	-11.1141	-107.561407	0.001003	10.033704	3.399511	-0.000402
1285	1.2776e+02	-11.1558	-107.916675	0.000892	8.918848	3.021788	-0.000357
1286	1.2786e+02	-11.1895	-108.231572	0.000791	7.905343	2.678403	-0.000316
1287	1.2796e+02	-11.2296	-108.615100	0.000963	9.628302	3.262157	-0.000385
1288	1.2806e+02	-11.2697	-108.990554	0.000943	9.425601	3.193480	-0.000377
1289	1.2816e+02	-11.3147	-109.378119	0.000973	9.729653	3.296496	-0.000390
1290	1.2826e+02	-11.3483	-109.729349	0.000882	8.817498	2.987449	-0.000353
1291	1.2835e+02	-11.3981	-110.112877	0.000963	9.628302	3.262157	-0.000385
1292	1.2845e+02	-11.4237	-110.484294	0.000932	9.324251	3.159142	-0.000373
1293	1.2855e+02	-11.4542	-110.847636	0.000912	9.121549	3.090465	-0.000365
1294	1.2865e+02	-11.5152	-111.247312	0.001003	10.033704	3.399511	-0.000402
1295	1.2875e+02	-11.5505	-111.663137	0.001044	10.439107	3.536865	-0.000418
1296	1.2885e+02	-11.5906	-112.002257	0.000851	8.513446	2.884434	-0.000341
1297	1.2895e+02	-11.6323	-112.397896	0.000993	9.932354	3.365173	-0.000398
1298	1.2905e+02	-11.6756	-112.720867	0.000811	8.108044	2.747080	-0.000325
1299	1.2915e+02	-11.7125	-113.160915	0.001105	11.047210	3.742896	-0.000442
1300	1.2925e+02	-11.7462	-113.495997	0.000841	8.412096	2.850095	-0.000337
1301	1.2935e+02	-11.7911	-113.827042	0.000831	8.310745	2.815757	-0.000333
1302	1.2945e+02	-11.8296	-114.198459	0.000932	9.324251	3.159142	-0.000373
1303	1.2955e+02	-11.8681	-114.561801	0.000912	9.121549	3.090465	-0.000365
1304	1.2965e+02	-11.9146	-114.941292	0.000953	9.526952	3.227819	-0.000381
1305	1.2975e+02	-11.9547	-115.288485	0.000872	8.716147	2.953111	-0.000349
1306	1.2985e+02	-11.9932	-115.619530	0.000831	8.310745	2.815757	-0.000333
1307	1.2995e+02	-12.0237	-115.999021	0.000953	9.526952	3.227819	-0.000381
1308	1.3005e+02	-12.0654	-116.374475	0.000943	9.425601	3.193480	-0.000377
1309	1.3015e+02	-12.1007	-116.741854	0.000922	9.222900	3.124803	-0.000369
1310	1.3025e+02	-12.1537	-117.097122	0.000892	8.918848	3.021788	-0.000357
1311	1.3034e+02	-12.1858	-117.468539	0.000932	9.324251	3.159142	-0.000373
1312	1.3044e+02	-12.2339	-117.864178	0.000993	9.932354	3.365173	-0.000398
1313	1.3054e+02	-12.2644	-118.211372	0.000872	8.716147	2.953111	-0.000349
1314	1.3064e+02	-12.3029	-118.607011	0.000993	9.932354	3.365173	-0.000398
1315	1.3074e+02	-12.3366	-118.990539	0.000963	9.628302	3.262157	-0.000385
1316	1.3084e+02	-12.3847	-119.321584	0.000831	8.310745	2.815757	-0.000333
1317	1.3094e+02	-12.4248	-119.668778	0.000872	8.716147	2.953111	-0.000349
1318	1.3104e+02	-12.4697	-120.060380	0.000983	9.831003	3.330834	-0.000394
1319	1.3114e+02	-12.5162	-120.443908	0.000963	9.628302	3.262157	-0.000385
1320	1.3124e+02	-12.5451	-120.778990	0.000841	8.412096	2.850095	-0.000337
1321	1.3134e+02	-12.5932	-121.085812	0.000770	7.702642	2.609726	-0.000308
1322	1.3144e+02	-12.6285	-121.424932	0.000851	8.513446	2.884434	-0.000341
1323	1.3154e+02	-12.6670	-121.760014	0.000841	8.412096	2.850095	-0.000337
1324	1.3164e+02	-12.6975	-122.159690	0.001003	10.033704	3.399511	-0.000402
1325	1.3174e+02	-12.7456	-122.470550	0.000780	7.803992	2.644064	-0.000312
1326	1.3184e+02	-12.7954	-122.894449	0.001064	10.641808	3.605542	-0.000426
1327	1.3194e+02	-12.8290	-123.229531	0.000841	8.412096	2.850095	-0.000337
1328	1.3204e+02	-12.8579	-123.613059	0.000963	9.628302	3.262157	-0.000385
1329	1.3214e+02	-12.8900	-123.964290	0.000882	8.817498	2.987449	-0.000353
1330	1.3224e+02	-12.9526	-124.339744	0.000943	9.425601	3.193480	-0.000377
1331	1.3234e+02	-12.9734	-124.650603	0.000780	7.803992	2.644064	-0.000312
1332	1.3243e+02	-13.0183	-125.078539	0.001074	10.743158	3.639881	-0.000430
1333	1.3253e+02	-13.0617	-125.381325	0.000760	7.601291	2.575387	-0.000304
1334	1.3263e+02	-13.1018	-125.789075	0.001024	10.236406	3.468188	-0.000410
1335	1.3273e+02	-13.1403	-126.156455	0.000922	9.222900	3.124803	-0.000369
1336	1.3283e+02	-13.1788	-126.463277	0.000770	7.702642	2.609726	-0.000308
1337	1.3293e+02	-13.2237	-126.883139	0.001054	10.540457	3.571204	-0.000422
1338	1.3303e+02	-13.2702	-127.189961	0.000770	7.702642	2.609726	-0.000308
1339	1.3313e+02	-13.3055	-127.492747	0.000760	7.601291	2.575387	-0.000304
1340	1.3323e+02	-13.3488	-127.839940	0.000872	8.716147	2.953111	-0.000349
1341	1.3333e+02	-13.3825	-128.183097	0.000861	8.614797	2.918772	-0.000345
1342	1.3343e+02	-13.4210	-128.566625	0.000963	9.628302	3.262157	-0.000385
1343	1.3353e+02	-13.4691	-128.929967	0.000912	9.121549	3.090465	-0.000365
1344	1.3363e+02	-13.5012	-129.273123	0.000861	8.614797	2.918772	-0.000345
1345	1.3373e+02	-13.5494	-129.616280	0.000861	8.614797	2.918772	-0.000345
1346	1.3383e+02	-13.5846	-129.971548	0.000892	8.918848	3.021788	-0.000357
1347	1.3393e+02	-13.6247	-130.342964	0.000932	9.324251	3.159142	-0.000373
1348	1.3403e+02	-13.6633	-130.702270	0.000902	9.020199	3.056126	-0.000361
1349	1.3413e+02	-13.7082	-131.081760	0.000953	9.526952	3.227819	-0.000381
1350	1.3423e+02	-13.7306	-131.420880	0.000851	8.513446	2.884434	-0.000341
1351	1.3432e+02	-13.7852	-131.768073	0.000872	8.716147	2.953111	-0.000349
1352	1.3442e+02	-13.8173	-132.139490	0.000932	9.324251	3.159142	-0.000373
1353	1.3452e+02	-13.8574	-132.486684	0.000872	8.716147	2.953111	-0.000349
1354	1.3462e+02	-13.8975	-132.837914	0.000882	8.817498	2.987449	-0.000353
1355	1.3472e+02	-13.9440	-133.193182	0.000892	8.918848	3.021788	-0.000357
1356	1.3482e+02	-13.9777	-133.524227	0.000831	8.310745	2.815757	-0.000333
1357	1.3492e+02	-14.0210	-133.875458	0.000882	8.817498	2.987449	-0.000353
1358	1.3502e+02	-14.0659	-134.162095	0.000720	7.195889	2.438033	-0.000288
1359	1.3512e+02	-14.0980	-134.489103	0.000821	8.209395	2.781418	-0.000329
1360	1.3522e+02	-14.1429	-134.876668	0.000973	9.729653	3.296496	-0.000390
1361	1.3532e+02	-14.1718	-135.235973	0.000902	9.020199	3.056126	-0.000361
1362	1.3542e+02	-14.2263	-135.571055	0.000841	8.412096	2.850095	-0.000337
1363	1.3552e+02	-14.2664	-135.922286	0.000882	8.817498	2.987449	-0.000353
1364	1.3562e+02	-14.2985	-136.297740	0.000943	9.425601	3.193480	-0.000377
1365	1.3572e+02	-14.3418	-136.616673	0.000801	8.006693	2.712741	-0.000321
1366	1.3582e+02	-14.3852	-137.032498	0.001044	10.439107	3.536865	-0.000418
1367	1.3592e+02	-14.4188	-137.335284	0.000760	7.601291	2.575387	-0.000304
1368	1.3602e+02	-14.4590	-137.718811	0.000963	9.628302	3.262157	-0.000385
1369	1.3612e+02	-14.4991	-138.041782	0.000811	8.108044	2.747080	-0.000325
1370	1.3622e+02	-14.5424	-138.397050	0.000892	8.918848	3.021788	-0.000357
1371	1.3631e+02	-14.5745	-138.744244	0.000872	8.716147	2.953111	-0.000349
1372	1.3641e+02	-14.6114	-139.071252	0.000821	8.209395	2.781418	-0.000329
1373	1.3651e+02	-14.6515	-139.406334	0.000841	8.412096	2.850095	-0.000337
1374	1.3661e+02	-14.6948	-139.697008	0.000730	7.297240	2.472372	-0.000292
1375	1.3671e+02	-14.7445	-140.040164	0.000861	8.614797	2.918772	-0.000345
1376	1.3681e+02	-14.7718	-140.415618	0.000943	9.425601	3.193480	-0.000377
1377	1.3691e+02	-14.8215	-140.746663	0.000831	8.310745	2.815757	-0.000333
1378	1.3701e+02	-14.8616	-141.073671	0.000821	8.209395	2.781418	-0.000329
1379	1.3711e+02	-14.8953	-141.461236	0.000973	9.729653	3.296496	-0.000390
1380	1.3721e+02	-14.9418	-141.780170	0.000801	8.006693	2.712741	-0.000321
1381	1.3731e+02	-14.9819	-142.107178	0.000821	8.209395	2.781418	-0.000329
1382	1.3741e+02	-15.0076	-142.454372	0.000872	8.716147	2.953111	-0.000349
1383	1.3751e+02	-15.0477	-142.813677	0.000902	9.020199	3.056126	-0.000361
1384	1.3761e+02	-15.0958	-143.185093	0.000932	9.324251	3.159142	-0.000373
1385	1.3771e+02	-15.1391	-143.540361	0.000892	8.918848	3.021788	-0.000357
1386	1.3781e+02	-15.1776	-143.875443	0.000841	8.412096	2.850095	-0.000337
1387	1.3791e+02	-15.2081	-144.230711	0.000892	8.918848	3.021788	-0.000357
1388	1.3801e+02	-15.2530	-144.585979	0.000892	8.918848	3.021788	-0.000357
1389	1.3811e+02	-15.2915	-144.925099	0.000851	8.513446	2.884434	-0.000341
1390	1.3821e+02	-15.3317	-145.280367	0.000892	8.918848	3.021788	-0.000357
1391	1.3831e+02	-15.3734	-145.631597	0.000882	8.817498	2.987449	-0.000353
1392	1.3840e+02	-15.4183	-145.889974	0.000649	6.486435	2.197664	-0.000260
1393	1.3850e+02	-15.4600	-146.249279	0.000902	9.020199	3.056126	-0.000361
1394	1.3860e+02	-15.5033	-146.592436	0.000861	8.614797	2.918772	-0.000345
1395	1.3870e+02	-15.5386	-146.935592	0.000861	8.614797	2.918772	-0.000345
1396	1.3880e+02	-15.5771	-147.278749	0.000861	8.614797	2.918772	-0.000345
1397	1.3890e+02	-15.6108	-147.629980	0.000882	8.817498	2.987449	-0.000353
1398	1.3900e+02	-15.6477	-147.932765	0.000760	7.601291	2.575387	-0.000304
1399	1.3910e+02	-15.7022	-148.288033	0.000892	8.918848	3.021788	-0.000357
1400	1.3920e+02	-15.7247	-148.663486	0.000943	9.425601	3.193480	-0.000377
1401	1.3930e+02	-15.7728	-148.994532	0.000831	8.310745	2.815757	-0.000333
1402	1.3940e+02	-15.8065	-149.374022	0.000953	9.526952	3.227819	-0.000381
1403	1.3950e+02	-15.8482	-149.713142	0.000851	8.513446	2.884434	-0.000341
1404	1.3960e+02	-15.9044	-150.048224	0.000841	8.412096	2.850095	-0.000337
1405	1.3970e+02	-15.9348	-150.395418	0.000872	8.716147	2.953111	-0.000349
1406	1.3980e+02	-15.9701	-150.718389	0.000811	8.108044	2.747080	-0.000325
1407	1.3990e+02	-16.0151	-151.029248	0.000780	7.803992	2.644064	-0.000312
1408	1.4000e+02	-16.0568	-151.436999	0.001024	10.236406	3.468188	-0.000410
1409	1.4010e+02	-16.0905	-151.719598	0.000709	7.094538	2.403695	-0.000284
1410	1.4020e+02	-16.1306	-152.034495	0.000791	7.905343	2.678403	-0.000316
1411	1.4029e+02	-16.1803	-152.385726	0.000882	8.817498	2.987449	-0.000353
1412	1.4039e+02	-16.2236	-152.728882	0.000861	8.614797	2.918772	-0.000345
1413	1.4049e+02	-16.2493	-153.063964	0.000841	8.412096	2.850095	-0.000337
1414	1.4059e+02	-16.2942	-153.395010	0.000831	8.310745	2.815757	-0.000333
1415	1.4069e+02	-16.3279	-153.738166	0.000861	8.614797	2.918772	-0.000345
1416	1.4079e+02	-16.3632	-154.101508	0.000912	9.121549	3.090465	-0.000365
1417	1.4089e+02	-16.4145	-154.424479	0.000811	8.108044	2.747080	-0.000325
1418	1.4099e+02	-16.4418	-154.771673	0.000872	8.716147	2.953111	-0.000349
1419	1.4109e+02	-16.4931	-155.130978	0.000902	9.020199	3.056126	-0.000361
1420	1.4119e+02	-16.5220	-155.478172	0.000872	8.716147	2.953111	-0.000349
1421	1.4129e+02	-16.5685	-155.821328	0.000861	8.614797	2.918772	-0.000345
1422	1.4139e+02	-16.6118	-156.160447	0.000851	8.513446	2.884434	-0.000341
1423	1.4149e+02	-16.6471	-156.479381	0.000801	8.006693	2.712741	-0.000321
1424	1.4159e+02	-16.6888	-156.822538	0.000861	8.614797	2.918772	-0.000345
1425	1.4169e+02	-16.7257	-157.145509	0.000811	8.108044	2.747080	-0.000325
1426	1.4179e+02	-16.7690	-157.524999	0.000953	9.526952	3.227819	-0.000381
1427	1.4189e+02	-16.8124	-157.811636	0.000720	7.195889	2.438033	-0.000288
1428	1.4199e+02	-16.8460	-158.114421	0.000760	7.601291	2.575387	-0.000304
1429	1.4209e+02	-16.8974	-158.473726	0.000902	9.020199	3.056126	-0.000361
1430	1.4219e+02	-16.9295	-158.804771	0.000831	8.310745	2.815757	-0.000333
1431	1.4228e+02	-16.9664	-159.095445	0.000730	7.297240	2.472372	-0.000292
1432	1.4238e+02	-17.0129	-159.438602	0.000861	8.614797	2.918772	-0.000345
1433	1.4248e+02	-17.0418	-159.805981	0.000922	9.222900	3.124803	-0.000369
1434	1.4258e+02	-17.0931	-160.120878	0.000791	7.905343	2.678403	-0.000316
1435	1.4268e+02	-17.1188	-160.532665	0.001034	10.337756	3.502527	-0.000414
1436	1.4278e+02	-17.1621	-160.839488	0.000770	7.702642	2.609726	-0.000308
1437	1.4288e+02	-17.2118	-161.202830	0.000912	9.121549	3.090465	-0.000365
1438	1.4298e+02	-17.2439	-161.545987	0.000861	8.614797	2.918772	-0.000345
1439	1.4308e+02	-17.2888	-161.872995	0.000821	8.209395	2.781418	-0.000329
1440	1.4318e+02	-17.3273	-162.191928	0.000801	8.006693	2.712741	-0.000321
1441	1.4328e+02	-17.3706	-162.535085	0.000861	8.614797	2.918772	-0.000345
1442	1.4338e+02	-17.4059	-162.829796	0.000740	7.398590	2.506710	-0.000296
1443	1.4348e+02	-17.4444	-163.181027	0.000882	8.817498	2.987449	-0.000353
1444	1.4358e+02	-17.4797	-163.503997	0.000811	8.108044	2.747080	-0.000325
1445	1.4368e+02	-17.5230	-163.835043	0.000831	8.310745	2.815757	-0.000333
1446	1.4378e+02	-17.5663	-164.174162	0.000851	8.513446	2.884434	-0.000341
1447	1.4388e+02	-17.6065	-164.432539	0.000649	6.486435	2.197664	-0.000260
1448	1.4398e+02	-17.6514	-164.820104	0.000973	9.729653	3.296496	-0.000390
1449	1.4408e+02	-17.6867	-165.155186	0.000841	8.412096	2.850095	-0.000337
1450	1.4418e+02	-17.7236	-165.510454	0.000892	8.918848	3.021788	-0.000357
1451	1.4428e+02	-17.7637	-165.853610	0.000861	8.614797	2.918772	-0.000345
1452	1.4437e+02	-17.8086	-166.172544	0.000801	8.006693	2.712741	-0.000321
1453	1.4447e+02	-17.8310	-166.535886	0.000912	9.121549	3.090465	-0.000365
1454	1.4457e+02	-17.8728	-166.866931	0.000831	8.310745	2.815757	-0.000333
1455	1.4467e+02	-17.9257	-167.181828	0.000791	7.905343	2.678403	-0.000316
1456	1.4477e+02	-17.9578	-167.524985	0.000861	8.614797	2.918772	-0.000345
1457	1.4487e+02	-18.0059	-167.851993	0.000821	8.209395	2.781418	-0.000329
1458	1.4497e+02	-18.0412	-168.191112	0.000851	8.513446	2.884434	-0.000341
1459	1.4507e+02	-18.0877	-168.485823	0.000740	7.398590	2.506710	-0.000296
1460	1.4517e+02	-18.1214	-168.824942	0.000851	8.513446	2.884434	-0.000341
1461	1.4527e+02	-18.1663	-169.135802	0.000780	7.803992	2.644064	-0.000312
1462	1.4537e+02	-18.2032	-169.531441	0.000993	9.932354	3.365173	-0.000398
1463	1.4547e+02	-18.2417	-169.834226	0.000760	7.601291	2.575387	-0.000304
1464	1.4557e+02	-18.2866	-170.157197	0.000811	8.108044	2.747080	-0.000325
1465	1.4567e+02	-18.3203	-170.419611	0.000659	6.587786	2.232002	-0.000264
1466	1.4577e+02	-18.3637	-170.795065	0.000943	9.425601	3.193480	-0.000377
1467	1.4587e+02	-18.4006	-171.089775	0.000740	7.398590	2.506710	-0.000296
1468	1.4597e+02	-18.4439	-171.432932	0.000861	8.614797	2.918772	-0.000345
1469	1.4607e+02	-18.4808	-171.832608	0.001003	10.033704	3.399511	-0.000402
1470	1.4617e+02	-18.5193	-172.143468	0.000780	7.803992	2.644064	-0.000312
1471	1.4626e+02	-18.5562	-172.446253	0.000760	7.601291	2.575387	-0.000304
1472	1.4636e+02	-18.6075	-172.789410	0.000861	8.614797	2.918772	-0.000345
1473	1.4646e+02	-18.6412	-173.136603	0.000872	8.716147	2.953111	-0.000349
1474	1.4656e+02	-18.6861	-173.463611	0.000821	8.209395	2.781418	-0.000329
1475	1.4666e+02	-18.7262	-173.782545	0.000801	8.006693	2.712741	-0.000321
1476	1.4676e+02	-18.7567	-174.105516	0.000811	8.108044	2.747080	-0.000325
1477	1.4686e+02	-18.8016	-174.416375	0.000780	7.803992	2.644064	-0.000312
1478	1.4696e+02	-18.8433	-174.723198	0.000770	7.702642	2.609726	-0.000308
1479	1.4706e+02	-18.8834	-175.058280	0.000841	8.412096	2.850095	-0.000337
1480	1.4716e+02	-18.9251	-175.393362	0.000841	8.412096	2.850095	-0.000337
1481	1.4726e+02	-18.9588	-175.692110	0.000750	7.499941	2.541049	-0.000300
1482	1.4736e+02	-19.0118	-175.994895	0.000760	7.601291	2.575387	-0.000304
1483	1.4746e+02	-19.0294	-176.305755	0.000780	7.803992	2.644064	-0.000312
1484	1.4756e+02	-19.0840	-176.656986	0.000882	8.817498	2.987449	-0.000353
1485	1.4766e+02	-19.1176	-176.947659	0.000730	7.297240	2.472372	-0.000292
1486	1.4776e+02	-19.1513	-177.335224	0.000973	9.729653	3.296496	-0.000390
1487	1.4786e+02	-19.1898	-177.601675	0.000669	6.689136	2.266341	-0.000268
1488	1.4796e+02	-19.2428	-177.989240	0.000973	9.729653	3.296496	-0.000390
1489	1.4806e+02	-19.2813	-178.300100	0.000780	7.803992	2.644064	-0.000312
1490	1.4816e+02	-19.3198	-178.590774	0.000730	7.297240	2.472372	-0.000292
1491	1.4825e+02	-19.3631	-178.889522	0.000750	7.499941	2.541049	-0.000300
1492	1.4835e+02	-19.3984	-179.204418	0.000791	7.905343	2.678403	-0.000316
1493	1.4845e+02	-19.4417	-179.543538	0.000851	8.513446	2.884434	-0.000341
1494	1.4855e+02	-19.4786	-179.858434	0.000791	7.905343	2.678403	-0.000316
1495	1.4865e+02	-19.5139	-180.181405	0.000811	8.108044	2.747080	-0.000325
1496	1.4875e+02	-19.5588	-180.516487	0.000841	8.412096	2.850095	-0.000337
1497	1.4885e+02	-19.6037	-180.835421	0.000801	8.006693	2.712741	-0.000321
1498	1.4895e+02	-19.6390	-181.146281	0.000780	7.803992	2.644064	-0.000312
1499	1.4905e+02	-19.6743	-181.457140	0.000780	7.803992	2.644064	-0.000312
1500	1.4915e+02	-19.7048	-181.800297	0.000861	8.614797	2.918772	-0.000345
1501	1.4925e+02	-19.7545	-182.135379	0.000841	8.412096	2.850095	-0.000337
1502	1.4935e+02	-19.7866	-182.450275	0.000791	7.905343	2.678403	-0.000316
1503	1.4945e+02	-19.8315	-182.761135	0.000780	7.803992	2.644064	-0.000312
1504	1.4955e+02	-19.8716	-183.043734	0.000709	7.094538	2.403695	-0.000284
1505	1.4965e+02	-19.9101	-183.374779	0.000831	8.310745	2.815757	-0.000333
1506	1.4975e+02	-19.9583	-183.669490	0.000740	7.398590	2.506710	-0.000296
1507	1.4985e+02	-19.9936	-183.980350	0.000780	7.803992	2.644064	-0.000312
1508	1.4995e+02	-19.9583	-183.923830	0.000142	1.418908	0.480739	0.000057
1509	1.5005e+02	-19.9101	-183.750233	0.000436	4.358074	1.476555	0.000174
1510	1.5015e+02	-19.8780	-183.608933	0.000355	3.547269	1.201847	0.000142
1511	1.5025e+02	-19.8379	-183.516079	0.000233	2.331063	0.789785	0.000093
1512	1.5034e+02	-19.8043	-183.386891	0.000324	3.243218	1.098832	0.000130
1513	1.5044e+02	-19.7577	-183.180997	0.000517	5.168878	1.751263	0.000207
1514	1.5054e+02	-19.7176	-183.011437	0.000426	4.256723	1.442217	0.000170
1515	1.5064e+02	-19.6775	-182.930695	0.000203	2.027011	0.686770	0.000081
1516	1.5074e+02	-19.6310	-182.684429	0.000618	6.182384	2.094648	0.000248
1517	1.5084e+02	-19.5989	-182.547167	0.000345	3.445919	1.167509	0.000138
1518	1.5094e+02	-19.5652	-182.357421	0.000476	4.763476	1.613909	0.000191
1519	1.5104e+02	-19.5091	-182.195936	0.000405	4.054022	1.373540	0.000162
1520	1.5114e+02	-19.4690	-181.981968	0.000537	5.371579	1.819940	0.000215
1521	1.5124e+02	-19.4385	-181.856816	0.000314	3.141867	1.064493	0.000126
1522	1.5134e+02	-19.3984	-181.610551	0.000618	6.182384	2.094648	0.000248
1523	1.5144e+02	-19.3599	-181.412732	0.000497	4.966177	1.682586	0.000199
1524	1.5154e+02	-19.3102	-181.243172	0.000426	4.256723	1.442217	0.000170
1525	1.5164e+02	-19.2813	-181.069575	0.000436	4.358074	1.476555	0.000174
1526	1.5174e+02	-19.2380	-180.883867	0.000466	4.662125	1.579571	0.000187
1527	1.5184e+02	-19.2059	-180.702196	0.000456	4.560775	1.545232	0.000183
1528	1.5194e+02	-19.1626	-180.484190	0.000547	5.472930	1.854279	0.000219
1529	1.5204e+02	-19.1209	-180.298482	0.000466	4.662125	1.579571	0.000187
1530	1.5214e+02	-19.0840	-180.136997	0.000405	4.054022	1.373540	0.000162
1531	1.5224e+02	-19.0519	-179.914954	0.000557	5.574280	1.888617	0.000223
1532	1.5233e+02	-19.0021	-179.692912	0.000557	5.574280	1.888617	0.000223
1533	1.5243e+02	-18.9620	-179.466832	0.000568	5.675631	1.922956	0.000227
1534	1.5253e+02	-18.9267	-179.289198	0.000446	4.459424	1.510894	0.000179
1535	1.5263e+02	-18.8818	-179.071193	0.000547	5.472930	1.854279	0.000219
1536	1.5273e+02	-18.8353	-178.913745	0.000395	3.952671	1.339201	0.000158
1537	1.5283e+02	-18.7984	-178.675553	0.000598	5.979682	2.025971	0.000239
1538	1.5293e+02	-18.7647	-178.429288	0.000618	6.182384	2.094648	0.000248
1539	1.5303e+02	-18.7182	-178.207246	0.000557	5.574280	1.888617	0.000223
1540	1.5313e+02	-18.6861	-178.017500	0.000476	4.763476	1.613909	0.000191
1541	1.5323e+02	-18.6524	-177.807569	0.000527	5.270229	1.785602	0.000211
1542	1.5333e+02	-18.5995	-177.573415	0.000588	5.878332	1.991633	0.000235
1543	1.5343e+02	-18.5594	-177.359447	0.000537	5.371579	1.819940	0.000215
1544	1.5353e+02	-18.5241	-177.165665	0.000486	4.864826	1.648248	0.000195
1545	1.5363e+02	-18.4872	-176.923437	0.000608	6.081033	2.060310	0.000243
1546	1.5373e+02	-18.4423	-176.713506	0.000527	5.270229	1.785602	0.000211
1547	1.5383e+02	-18.4022	-176.475315	0.000598	5.979682	2.025971	0.000239
1548	1.5393e+02	-18.3572	-176.305755	0.000426	4.256723	1.442217	0.000170
1549	1.5403e+02	-18.3235	-176.079675	0.000568	5.675631	1.922956	0.000227
1550	1.5413e+02	-18.2883	-175.849558	0.000578	5.776981	1.957294	0.000231
1551	1.5422e+02	-18.2449	-175.631553	0.000547	5.472930	1.854279	0.000219
1552	1.5432e+02	-18.1952	-175.449882	0.000456	4.560775	1.545232	0.000183
1553	1.5442e+02	-18.1663	-175.207654	0.000608	6.081033	2.060310	0.000243
1554	1.5452e+02	-18.1342	-174.957351	0.000628	6.283734	2.128987	0.000252
1555	1.5462e+02	-18.0813	-174.743383	0.000537	5.371579	1.819940	0.000215
1556	1.5472e+02	-18.0412	-174.464821	0.000699	6.993188	2.369356	0.000280
1557	1.5482e+02	-18.0059	-174.254890	0.000527	5.270229	1.785602	0.000211
1558	1.5492e+02	-17.9658	-174.024773	0.000578	5.776981	1.957294	0.000231
1559	1.5502e+02	-17.9209	-173.790619	0.000588	5.878332	1.991633	0.000235
1560	1.5512e+02	-17.8808	-173.564540	0.000568	5.675631	1.922956	0.000227
1561	1.5522e+02	-17.8503	-173.326349	0.000598	5.979682	2.025971	0.000239
1562	1.5532e+02	-17.7974	-173.096232	0.000578	5.776981	1.957294	0.000231
1563	1.5542e+02	-17.7637	-172.878227	0.000547	5.472930	1.854279	0.000219
1564	1.5552e+02	-17.7316	-172.648110	0.000578	5.776981	1.957294	0.000231
1565	1.5562e+02	-17.6867	-172.438179	0.000527	5.270229	1.785602	0.000211
1566	1.5572e+02	-17.6482	-172.163654	0.000689	6.891837	2.335018	0.000276
1567	1.5582e+02	-17.6065	-171.933537	0.000578	5.776981	1.957294	0.000231
1568	1.5592e+02	-17.5567	-171.723606	0.000527	5.270229	1.785602	0.000211
1569	1.5602e+02	-17.5214	-171.537898	0.000466	4.662125	1.579571	0.000187
1570	1.5612e+02	-17.4845	-171.311818	0.000568	5.675631	1.922956	0.000227
1571	1.5622e+02	-17.4444	-171.065553	0.000618	6.182384	2.094648	0.000248
1572	1.5631e+02	-17.4107	-170.799102	0.000669	6.689136	2.266341	0.000268
1573	1.5641e+02	-17.3626	-170.581096	0.000547	5.472930	1.854279	0.000219
1574	1.5651e+02	-17.3177	-170.318683	0.000659	6.587786	2.232002	0.000264
1575	1.5661e+02	-17.2776	-170.032046	0.000720	7.195889	2.438033	0.000288
1576	1.5671e+02	-17.2407	-169.850375	0.000456	4.560775	1.545232	0.000183
1577	1.5681e+02	-17.2022	-169.559701	0.000730	7.297240	2.472372	0.000292
1578	1.5691e+02	-17.1717	-169.353807	0.000517	5.168878	1.751263	0.000207
1579	1.5701e+02	-17.1332	-169.079282	0.000689	6.891837	2.335018	0.000276
1580	1.5711e+02	-17.0867	-168.845128	0.000588	5.878332	1.991633	0.000235
1581	1.5721e+02	-17.0530	-168.627123	0.000547	5.472930	1.854279	0.000219
1582	1.5731e+02	-17.0017	-168.356635	0.000679	6.790487	2.300679	0.000272
1583	1.5741e+02	-16.9632	-168.126518	0.000578	5.776981	1.957294	0.000231
1584	1.5751e+02	-16.9263	-167.872178	0.000639	6.385085	2.163325	0.000256
1585	1.5761e+02	-16.8765	-167.666284	0.000517	5.168878	1.751263	0.000207
1586	1.5771e+02	-16.8460	-167.399833	0.000669	6.689136	2.266341	0.000268
1587	1.5781e+02	-16.8140	-167.173754	0.000568	5.675631	1.922956	0.000227
1588	1.5791e+02	-16.7594	-166.927488	0.000618	6.182384	2.094648	0.000248
1589	1.5801e+02	-16.7161	-166.681223	0.000618	6.182384	2.094648	0.000248
1590	1.5811e+02	-16.6856	-166.382475	0.000750	7.499941	2.541049	0.000300
1591	1.5821e+02	-16.6487	-166.136210	0.000618	6.182384	2.094648	0.000248
1592	1.5830e+02	-16.6134	-165.934353	0.000507	5.067527	1.716925	0.000203
1593	1.5840e+02	-16.5717	-165.611382	0.000811	8.108044	2.747080	0.000325
1594	1.5850e+02	-16.5396	-165.405488	0.000517	5.168878	1.751263	0.000207
1595	1.5860e+02	-16.4851	-165.183446	0.000557	5.574280	1.888617	0.000223
1596	1.5870e+02	-16.4498	-164.945255	0.000598	5.979682	2.025971	0.000239
1597	1.5880e+02	-16.4097	-164.662655	0.000709	7.094538	2.403695	0.000284
1598	1.5890e+02	-16.3808	-164.380056	0.000709	7.094538	2.403695	0.000284
1599	1.5900e+02	-16.3263	-164.133791	0.000618	6.182384	2.094648	0.000248
1600	1.5910e+02	-16.2958	-163.923860	0.000527	5.270229	1.785602	0.000211
1601	1.5920e+02	-16.2477	-163.637223	0.000720	7.195889	2.438033	0.000288
1602	1.5930e+02	-16.2060	-163.443440	0.000486	4.864826	1.648248	0.000195
1603	1.5940e+02	-16.1755	-163.185064	0.000649	6.486435	2.197664	0.000260
1604	1.5950e+02	-16.1290	-162.934761	0.000628	6.283734	2.128987	0.000252
1605	1.5960e+02	-16.0905	-162.664273	0.000679	6.790487	2.300679	0.000272
1606	1.5970e+02	-16.0391	-162.373599	0.000730	7.297240	2.472372	0.000292
1607	1.5980e+02	-16.0151	-162.111186	0.000659	6.587786	2.232002	0.000264
1608	1.5990e+02	-15.9798	-161.816475	0.000740	7.398590	2.506710	0.000296
1609	1.6000e+02	-15.9332	-161.622692	0.000486	4.864826	1.648248	0.000195
1610	1.6010e+02	-15.8931	-161.327981	0.000740	7.398590	2.506710	0.000296
1611	1.6019e+02	-15.8562	-161.077679	0.000628	6.283734	2.128987	0.000252
1612	1.6029e+02	-15.8193	-160.803154	0.000689	6.891837	2.335018	0.000276
1613	1.6039e+02	-15.7632	-160.564963	0.000598	5.979682	2.025971	0.000239
1614	1.6049e+02	-15.7391	-160.322734	0.000608	6.081033	2.060310	0.000243
1615	1.6059e+02	-15.6958	-160.072432	0.000628	6.283734	2.128987	0.000252
1616	1.6069e+02	-15.6557	-159.793870	0.000699	6.993188	2.369356	0.000280
1617	1.6079e+02	-15.6188	-159.539530	0.000639	6.385085	2.163325	0.000256
1618	1.6089e+02	-15.5755	-159.301339	0.000598	5.979682	2.025971	0.000239
1619	1.6099e+02	-15.5418	-159.059111	0.000608	6.081033	2.060310	0.000243
1620	1.6109e+02	-15.4873	-158.752289	0.000770	7.702642	2.609726	0.000308
1621	1.6119e+02	-15.4552	-158.542358	0.000527	5.270229	1.785602	0.000211
1622	1.6129e+02	-15.4199	-158.263795	0.000699	6.993188	2.369356	0.000280
1623	1.6139e+02	-15.3734	-157.981196	0.000709	7.094538	2.403695	0.000284
1624	1.6149e+02	-15.3333	-157.694559	0.000720	7.195889	2.438033	0.000288
1625	1.6159e+02	-15.2915	-157.452331	0.000608	6.081033	2.060310	0.000243
1626	1.6169e+02	-15.2466	-157.165694	0.000720	7.195889	2.438033	0.000288
1627	1.6179e+02	-15.2161	-156.895206	0.000679	6.790487	2.300679	0.000272
1628	1.6189e+02	-15.1712	-156.592421	0.000760	7.601291	2.575387	0.000304
1629	1.6199e+02	-15.1456	-156.362304	0.000578	5.776981	1.957294	0.000231
1630	1.6209e+02	-15.0990	-156.051445	0.000780	7.803992	2.644064	0.000312
1631	1.6219e+02	-15.0605	-155.877848	0.000436	4.358074	1.476555	0.000174
1632	1.6228e+02	-15.0108	-155.530654	0.000872	8.716147	2.953111	0.000349
1633	1.6238e+02	-14.9787	-155.312649	0.000547	5.472930	1.854279	0.000219
1634	1.6248e+02	-14.9402	-155.034087	0.000699	6.993188	2.369356	0.000280
1635	1.6258e+02	-14.9065	-154.751487	0.000709	7.094538	2.403695	0.000284
1636	1.6268e+02	-14.8584	-154.497148	0.000639	6.385085	2.163325	0.000256
1637	1.6278e+02	-14.8151	-154.214548	0.000709	7.094538	2.403695	0.000284
1638	1.6288e+02	-14.7622	-153.964246	0.000628	6.283734	2.128987	0.000252
1639	1.6298e+02	-14.7317	-153.661460	0.000760	7.601291	2.575387	0.000304
1640	1.6308e+02	-14.6980	-153.350601	0.000780	7.803992	2.644064	0.000312
1641	1.6318e+02	-14.6515	-153.063964	0.000720	7.195889	2.438033	0.000288
1642	1.6328e+02	-14.6194	-152.854033	0.000527	5.270229	1.785602	0.000211
1643	1.6338e+02	-14.5745	-152.555285	0.000750	7.499941	2.541049	0.000300
1644	1.6348e+02	-14.5360	-152.272686	0.000709	7.094538	2.403695	0.000284
1645	1.6358e+02	-14.5039	-151.990086	0.000709	7.094538	2.403695	0.000284
1646	1.6368e+02	-14.4493	-151.727672	0.000659	6.587786	2.232002	0.000264
1647	1.6378e+02	-14.4156	-151.436999	0.000730	7.297240	2.472372	0.000292
1648	1.6388e+02	-14.3836	-151.142288	0.000740	7.398590	2.506710	0.000296
1649	1.6398e+02	-14.3467	-150.896022	0.000618	6.182384	2.094648	0.000248
1650	1.6408e+02	-14.2985	-150.597274	0.000750	7.499941	2.541049	0.000300
1651	1.6418e+02	-14.2648	-150.298526	0.000750	7.499941	2.541049	0.000300
1652	1.6427e+02	-14.2151	-150.092632	0.000517	5.168878	1.751263	0.000207
1653	1.6437e+02	-14.1830	-149.797922	0.000740	7.398590	2.506710	0.000296
1654	1.6447e+02	-14.1253	-149.527433	0.000679	6.790487	2.300679	0.000272
1655	1.6457e+02	-14.1028	-149.236760	0.000730	7.297240	2.472372	0.000292
1656	1.6467e+02	-14.0691	-148.962234	0.000689	6.891837	2.335018	0.000276
1657	1.6477e+02	-14.0258	-148.663486	0.000750	7.499941	2.541049	0.000300
1658	1.6487e+02	-13.9713	-148.292070	0.000932	9.324251	3.159142	0.000373
1659	1.6497e+02	-13.9488	-148.045805	0.000618	6.182384	2.094648	0.000248
1660	1.6507e+02	-13.9023	-147.763205	0.000709	7.094538	2.403695	0.000284
1661	1.6517e+02	-13.8638	-147.500791	0.000659	6.587786	2.232002	0.000264
1662	1.6527e+02	-13.8124	-147.198006	0.000760	7.601291	2.575387	0.000304
1663	1.6537e+02	-13.7755	-146.923481	0.000689	6.891837	2.335018	0.000276
1664	1.6547e+02	-13.7451	-146.632807	0.000730	7.297240	2.472372	0.000292
1665	1.6557e+02	-13.6953	-146.334059	0.000750	7.499941	2.541049	0.000300
1666	1.6567e+02	-13.6568	-146.051460	0.000709	7.094538	2.403695	0.000284
1667	1.6577e+02	-13.6103	-145.785009	0.000669	6.689136	2.266341	0.000268
1668	1.6587e+02	-13.5846	-145.542780	0.000608	6.081033	2.060310	0.000243
1669	1.6597e+02	-13.5477	-145.227884	0.000791	7.905343	2.678403	0.000316
1670	1.6607e+02	-13.4900	-144.941247	0.000720	7.195889	2.438033	0.000288
1671	1.6616e+02	-13.4579	-144.577905	0.000912	9.121549	3.090465	0.000365
1672	1.6626e+02	-13.4194	-144.359900	0.000547	5.472930	1.854279	0.000219
1673	1.6636e+02	-13.3745	-144.081337	0.000699	6.993188	2.369356	0.000280
1674	1.6646e+02	-13.3360	-143.730107	0.000882	8.817498	2.987449	0.000353
1675	1.6656e+02	-13.2943	-143.423284	0.000770	7.702642	2.609726	0.000308
1676	1.6666e+02	-13.2590	-143.128573	0.000740	7.398590	2.506710	0.000296
1677	1.6676e+02	-13.2205	-142.825788	0.000760	7.601291	2.575387	0.000304
1678	1.6686e+02	-13.1884	-142.527040	0.000750	7.499941	2.541049	0.000300
1679	1.6696e+02	-13.1515	-142.248478	0.000699	6.993188	2.369356	0.000280
1680	1.6706e+02	-13.1034	-141.961841	0.000720	7.195889	2.438033	0.000288
1681	1.6716e+02	-13.0681	-141.650982	0.000780	7.803992	2.644064	0.000312
1682	1.6726e+02	-13.0216	-141.340122	0.000780	7.803992	2.644064	0.000312
1683	1.6736e+02	-12.9863	-141.037337	0.000760	7.601291	2.575387	0.000304
1684	1.6746e+02	-12.9365	-140.770886	0.000669	6.689136	2.266341	0.000268
1685	1.6756e+02	-12.8948	-140.508472	0.000659	6.587786	2.232002	0.000264
1686	1.6766e+02	-12.8595	-140.233947	0.000689	6.891837	2.335018	0.000276
1687	1.6776e+02	-12.8146	-139.931162	0.000760	7.601291	2.575387	0.000304
1688	1.6786e+02	-12.7841	-139.636451	0.000740	7.398590	2.506710	0.000296
1689	1.6796e+02	-12.7440	-139.333666	0.000760	7.601291	2.575387	0.000304
1690	1.6806e+02	-12.7071	-139.075289	0.000649	6.486435	2.197664	0.000260
1691	1.6816e+02	-12.6670	-138.683687	0.000983	9.831003	3.330834	0.000394
1692	1.6825e+02	-12.6221	-138.401087	0.000709	7.094538	2.403695	0.000284
1693	1.6835e+02	-12.5852	-138.146748	0.000639	6.385085	2.163325	0.000256
1694	1.6845e+02	-12.5531	-137.775331	0.000932	9.324251	3.159142	0.000373
1695	1.6855e+02	-12.5082	-137.508880	0.000669	6.689136	2.266341	0.000268
1696	1.6865e+02	-12.4729	-137.181872	0.000821	8.209395	2.781418	0.000329
1697	1.6875e+02	-12.4328	-136.923496	0.000649	6.486435	2.197664	0.000260
1698	1.6885e+02	-12.3927	-136.560153	0.000912	9.121549	3.090465	0.000365
1699	1.6895e+02	-12.3446	-136.285628	0.000689	6.891837	2.335018	0.000276
1700	1.6905e+02	-12.3029	-135.946509	0.000851	8.513446	2.884434	0.000341
1701	1.6915e+02	-12.2708	-135.692169	0.000639	6.385085	2.163325	0.000256
1702	1.6925e+02	-12.2259	-135.393421	0.000750	7.499941	2.541049	0.000300
1703	1.6935e+02	-12.1874	-135.098710	0.000740	7.398590	2.506710	0.000296
1704	1.6945e+02	-12.1489	-134.803999	0.000740	7.398590	2.506710	0.000296
1705	1.6955e+02	-12.0991	-134.472954	0.000831	8.310745	2.815757	0.000333
1706	1.6965e+02	-12.0783	-134.174206	0.000750	7.499941	2.541049	0.000300
1707	1.6975e+02	-12.0301	-133.831050	0.000861	8.614797	2.918772	0.000345
1708	1.6985e+02	-11.9868	-133.520190	0.000780	7.803992	2.644064	0.000312
1709	1.6995e+02	-11.9499	-133.245665	0.000689	6.891837	2.335018	0.000276
1710	1.7005e+02	-11.9082	-132.894434	0.000882	8.817498	2.987449	0.000353
1711	1.7015e+02	-11.8729	-132.603760	0.000730	7.297240	2.472372	0.000292
1712	1.7024e+02	-11.8264	-132.296938	0.000770	7.702642	2.609726	0.000308
1713	1.7034e+02	-11.7943	-131.949744	0.000872	8.716147	2.953111	0.000349
1714	1.7044e+02	-11.7510	-131.634848	0.000791	7.905343	2.678403	0.000316
1715	1.7054e+02	-11.7029	-131.336100	0.000750	7.499941	2.541049	0.000300
1716	1.7064e+02	-11.6692	-131.017166	0.000801	8.006693	2.712741	0.000321
1717	1.7074e+02	-11.6307	-130.783012	0.000588	5.878332	1.991633	0.000235
1718	1.7084e+02	-11.5906	-130.399484	0.000963	9.628302	3.262157	0.000385
1719	1.7094e+02	-11.5569	-130.128996	0.000679	6.790487	2.300679	0.000272
1720	1.7104e+02	-11.5104	-129.846397	0.000709	7.094538	2.403695	0.000284
1721	1.7114e+02	-11.4799	-129.491129	0.000892	8.918848	3.021788	0.000357
1722	1.7124e+02	-11.4494	-129.192381	0.000750	7.499941	2.541049	0.000300
1723	1.7134e+02	-11.3836	-128.857298	0.000841	8.412096	2.850095	0.000337
1724	1.7144e+02	-11.3516	-128.574699	0.000709	7.094538	2.403695	0.000284
1725	1.7154e+02	-11.3034	-128.275951	0.000750	7.499941	2.541049	0.000300
1726	1.7164e+02	-11.2649	-127.944906	0.000831	8.310745	2.815757	0.000333
1727	1.7174e+02	-11.2377	-127.662306	0.000709	7.094538	2.403695	0.000284
1728	1.7184e+02	-11.1927	-127.319150	0.000861	8.614797	2.918772	0.000345
1729	1.7194e+02	-11.1446	-127.004253	0.000791	7.905343	2.678403	0.000316
1730	1.7204e+02	-11.1109	-126.713579	0.000730	7.297240	2.472372	0.000292
1731	1.7213e+02	-11.0724	-126.366386	0.000872	8.716147	2.953111	0.000349
1732	1.7223e+02	-11.0307	-126.047452	0.000801	8.006693	2.712741	0.000321
1733	1.7233e+02	-10.9858	-125.716407	0.000831	8.310745	2.815757	0.000333
1734	1.7243e+02	-10.9569	-125.437845	0.000699	6.993188	2.369356	0.000280
1735	1.7253e+02	-10.9072	-125.094688	0.000861	8.614797	2.918772	0.000345
1736	1.7263e+02	-10.8719	-124.787866	0.000770	7.702642	2.609726	0.000308
1737	1.7273e+02	-10.8350	-124.477006	0.000780	7.803992	2.644064	0.000312
1738	1.7283e+02	-10.7965	-124.186332	0.000730	7.297240	2.472372	0.000292
1739	1.7293e+02	-10.7500	-123.863362	0.000811	8.108044	2.747080	0.000325
1740	1.7303e+02	-10.7083	-123.528279	0.000841	8.412096	2.850095	0.000337
1741	1.7313e+02	-10.6778	-123.201271	0.000821	8.209395	2.781418	0.000329
1742	1.7323e+02	-10.6409	-122.910598	0.000730	7.297240	2.472372	0.000292
1743	1.7333e+02	-10.5976	-122.583590	0.000821	8.209395	2.781418	0.000329
1744	1.7343e+02	-10.5478	-122.264656	0.000801	8.006693	2.712741	0.000321
1745	1.7353e+02	-10.5125	-121.965908	0.000750	7.499941	2.541049	0.000300
1746	1.7363e+02	-10.4788	-121.663123	0.000760	7.601291	2.575387	0.000304
1747	1.7373e+02	-10.4339	-121.291706	0.000932	9.324251	3.159142	0.000373
1748	1.7383e+02	-10.3970	-120.964698	0.000821	8.209395	2.781418	0.000329
1749	1.7393e+02	-10.3473	-120.605393	0.000902	9.020199	3.056126	0.000361
1750	1.7403e+02	-10.3056	-120.322794	0.000709	7.094538	2.403695	0.000284
1751	1.7413e+02	-10.2783	-119.995786	0.000821	8.209395	2.781418	0.000329
1752	1.7422e+02	-10.2302	-119.688963	0.000770	7.702642	2.609726	0.000308
1753	1.7432e+02	-10.1981	-119.349844	0.000851	8.513446	2.884434	0.000341
1754	1.7442e+02	-10.1532	-119.075319	0.000689	6.891837	2.335018	0.000276
1755	1.7452e+02	-10.1211	-118.720051	0.000892	8.918848	3.021788	0.000357
1756	1.7462e+02	-10.0842	-118.401117	0.000801	8.006693	2.712741	0.000321
1757	1.7472e+02	-10.0361	-118.078146	0.000811	8.108044	2.747080	0.000325
1758	1.7482e+02	-9.9912	-117.722878	0.000892	8.918848	3.021788	0.000357
1759	1.7492e+02	-9.9511	-117.452390	0.000679	6.790487	2.300679	0.000272
1760	1.7502e+02	-9.9174	-117.080974	0.000932	9.324251	3.159142	0.000373
1761	1.7512e+02	-9.8724	-116.778188	0.000760	7.601291	2.575387	0.000304
1762	1.7522e+02	-9.8275	-116.463292	0.000791	7.905343	2.678403	0.000316
1763	1.7532e+02	-9.7858	-116.120135	0.000861	8.614797	2.918772	0.000345
1764	1.7542e+02	-9.7521	-115.732570	0.000973	9.729653	3.296496	0.000390
1765	1.7552e+02	-9.7120	-115.458045	0.000689	6.891837	2.335018	0.000276
1766	1.7562e+02	-9.6783	-115.106814	0.000882	8.817498	2.987449	0.000353
1767	1.7572e+02	-9.6398	-114.824215	0.000709	7.094538	2.403695	0.000284
1768	1.7582e+02	-9.5981	-114.501244	0.000811	8.108044	2.747080	0.000325
1769	1.7592e+02	-9.5580	-114.186347	0.000791	7.905343	2.678403	0.000316
1770	1.7602e+02	-9.5131	-113.843191	0.000861	8.614797	2.918772	0.000345
1771	1.7612e+02	-9.4714	-113.516183	0.000821	8.209395	2.781418	0.000329
1772	1.7621e+02	-9.4361	-113.209360	0.000770	7.702642	2.609726	0.000308
1773	1.7631e+02	-9.4024	-112.866204	0.000861	8.614797	2.918772	0.000345
1774	1.7641e+02	-9.3623	-112.514973	0.000882	8.817498	2.987449	0.000353
1775	1.7651e+02	-9.3190	-112.187965	0.000821	8.209395	2.781418	0.000329
1776	1.7661e+02	-9.2789	-111.848846	0.000851	8.513446	2.884434	0.000341
1777	1.7671e+02	-9.2420	-111.562209	0.000720	7.195889	2.438033	0.000288
1778	1.7681e+02	-9.2019	-111.194830	0.000922	9.222900	3.124803	0.000369
1779	1.7691e+02	-9.1586	-110.912230	0.000709	7.094538	2.403695	0.000284
1780	1.7701e+02	-9.1249	-110.544851	0.000922	9.222900	3.124803	0.000369
1781	1.7711e+02	-9.0880	-110.209769	0.000841	8.412096	2.850095	0.000337
1782	1.7721e+02	-9.0447	-109.862575	0.000872	8.716147	2.953111	0.000349
1783	1.7731e+02	-8.9965	-109.523455	0.000851	8.513446	2.884434	0.000341
1784	1.7741e+02	-8.9580	-109.176262	0.000872	8.716147	2.953111	0.000349
1785	1.7751e+02	-8.9227	-108.901737	0.000689	6.891837	2.335018	0.000276
1786	1.7761e+02	-8.8826	-108.562617	0.000851	8.513446	2.884434	0.000341
1787	1.7771e+02	-8.8377	-108.243683	0.000801	8.006693	2.712741	0.000321
1788	1.7781e+02	-8.7992	-107.920713	0.000811	8.108044	2.747080	0.000325
1789	1.7791e+02	-8.7575	-107.569482	0.000882	8.817498	2.987449	0.000353
1790	1.7801e+02	-8.7190	-107.230362	0.000851	8.513446	2.884434	0.000341
1791	1.7810e+02	-8.6677	-106.875094	0.000892	8.918848	3.021788	0.000357
1792	1.7820e+02	-8.6372	-106.548086	0.000821	8.209395	2.781418	0.000329
1793	1.7830e+02	-8.6003	-106.217041	0.000831	8.310745	2.815757	0.000333
1794	1.7840e+02	-8.5698	-105.877922	0.000851	8.513446	2.884434	0.000341
1795	1.7850e+02	-8.5297	-105.514580	0.000912	9.121549	3.090465	0.000365
1796	1.7860e+02	-8.4784	-105.159312	0.000892	8.918848	3.021788	0.000357
1797	1.7870e+02	-8.4399	-104.856527	0.000760	7.601291	2.575387	0.000304
1798	1.7880e+02	-8.4094	-104.513370	0.000861	8.614797	2.918772	0.000345
1799	1.7890e+02	-8.3613	-104.137916	0.000943	9.425601	3.193480	0.000377
1800	1.7900e+02	-8.3131	-103.823020	0.000791	7.905343	2.678403	0.000316
1801	1.7910e+02	-8.2682	-103.475826	0.000872	8.716147	2.953111	0.000349
1802	1.7920e+02	-8.2458	-103.136707	0.000851	8.513446	2.884434	0.000341
1803	1.7930e+02	-8.2073	-102.825847	0.000780	7.803992	2.644064	0.000312
1804	1.7940e+02	-8.1559	-102.494802	0.000831	8.310745	2.815757	0.000333
1805	1.7950e+02	-8.1206	-102.183943	0.000780	7.803992	2.644064	0.000312
1806	1.7960e+02	-8.0789	-101.812526	0.000932	9.324251	3.159142	0.000373
1807	1.7970e+02	-8.0404	-101.465333	0.000872	8.716147	2.953111	0.000349
1808	1.7980e+02	-7.9987	-101.118139	0.000872	8.716147	2.953111	0.000349
1809	1.7990e+02	-7.9682	-100.762871	0.000892	8.918848	3.021788	0.000357
1810	1.8000e+02	-7.9217	-100.431826	0.000831	8.310745	2.815757	0.000333
1811	1.8009e+02	-7.8864	-100.048298	0.000963	9.628302	3.262157	0.000385
1812	1.8019e+02	-7.8543	-99.713216	0.000841	8.412096	2.850095	0.000337
1813	1.8029e+02	-7.8046	-99.378133	0.000841	8.412096	2.850095	0.000337
1814	1.8039e+02	-7.7581	-99.043051	0.000841	8.412096	2.850095	0.000337
1815	1.8049e+02	-7.7260	-98.655486	0.000973	9.729653	3.296496	0.000390
1816	1.8059e+02	-7.6923	-98.336552	0.000801	8.006693	2.712741	0.000321
1817	1.8069e+02	-7.6506	-97.936876	0.001003	10.033704	3.399511	0.000402
1818	1.8079e+02	-7.6025	-97.605831	0.000831	8.310745	2.815757	0.000333
1819	1.8089e+02	-7.5591	-97.222303	0.000963	9.628302	3.262157	0.000385
1820	1.8099e+02	-7.5287	-96.927592	0.000740	7.398590	2.506710	0.000296
1821	1.8109e+02	-7.4757	-96.620770	0.000770	7.702642	2.609726	0.000308
1822	1.8119e+02	-7.4420	-96.245316	0.000943	9.425601	3.193480	0.000377
1823	1.8129e+02	-7.4035	-95.877937	0.000922	9.222900	3.124803	0.000369
1824	1.8139e+02	-7.3634	-95.579189	0.000750	7.499941	2.541049	0.000300
1825	1.8149e+02	-7.3265	-95.167401	0.001034	10.337756	3.502527	0.000414
1826	1.8159e+02	-7.2912	-94.795984	0.000932	9.324251	3.159142	0.000373
1827	1.8169e+02	-7.2447	-94.489162	0.000770	7.702642	2.609726	0.000308
1828	1.8179e+02	-7.2062	-94.069300	0.001054	10.540457	3.571204	0.000422
1829	1.8189e+02	-7.1629	-93.762478	0.000770	7.702642	2.609726	0.000308
1830	1.8199e+02	-7.1244	-93.395098	0.000922	9.222900	3.124803	0.000369
1831	1.8209e+02	-7.0891	-93.007533	0.000973	9.729653	3.296496	0.000390
1832	1.8218e+02	-7.0490	-92.656302	0.000882	8.817498	2.987449	0.000353
1833	1.8228e+02	-7.0137	-92.313146	0.000861	8.614797	2.918772	0.000345
1834	1.8238e+02	-6.9624	-91.901358	0.001034	10.337756	3.502527	0.000414
1835	1.8248e+02	-6.9191	-91.554164	0.000872	8.716147	2.953111	0.000349
1836	1.8258e+02	-6.8870	-91.247342	0.000770	7.702642	2.609726	0.000308
1837	1.8268e+02	-6.8372	-90.867851	0.000953	9.526952	3.227819	0.000381
1838	1.8278e+02	-6.8116	-90.528732	0.000851	8.513446	2.884434	0.000341
1839	1.8288e+02	-6.7650	-90.157315	0.000932	9.324251	3.159142	0.000373
1840	1.8298e+02	-6.7249	-89.802047	0.000892	8.918848	3.021788	0.000357
1841	1.8308e+02	-6.6977	-89.414482	0.000973	9.729653	3.296496	0.000390
1842	1.8318e+02	-6.6479	-89.107660	0.000770	7.702642	2.609726	0.000308
1843	1.8328e+02	-6.6110	-88.716058	0.000983	9.831003	3.330834	0.000394
1844	1.8338e+02	-6.5725	-88.372901	0.000861	8.614797	2.918772	0.000345
1845	1.8348e+02	-6.5276	-87.965151	0.001024	10.236406	3.468188	0.000410
1846	1.8358e+02	-6.4955	-87.634105	0.000831	8.310745	2.815757	0.000333
1847	1.8368e+02	-6.4474	-87.294986	0.000851	8.513446	2.884434	0.000341
1848	1.8378e+02	-6.4089	-86.984127	0.000780	7.803992	2.644064	0.000312
1849	1.8388e+02	-6.3736	-86.604636	0.000953	9.526952	3.227819	0.000381
1850	1.8398e+02	-6.3383	-86.196885	0.001024	10.236406	3.468188	0.000410
1851	1.8407e+02	-6.2982	-85.837580	0.000902	9.020199	3.056126	0.000361
1852	1.8417e+02	-6.2501	-85.409644	0.001074	10.743158	3.639881	0.000430
1853	1.8427e+02	-6.2116	-85.054376	0.000892	8.918848	3.021788	0.000357
1854	1.8437e+02	-6.1683	-84.731405	0.000811	8.108044	2.747080	0.000325
1855	1.8447e+02	-6.1234	-84.364026	0.000922	9.222900	3.124803	0.000369
1856	1.8457e+02	-6.0945	-84.016832	0.000872	8.716147	2.953111	0.000349
1857	1.8467e+02	-6.0464	-83.673675	0.000861	8.614797	2.918772	0.000345
1858	1.8477e+02	-6.0111	-83.273999	0.001003	10.033704	3.399511	0.000402
1859	1.8487e+02	-5.9694	-82.914694	0.000902	9.020199	3.056126	0.000361
1860	1.8497e+02	-5.9292	-82.555389	0.000902	9.020199	3.056126	0.000361
1861	1.8507e+02	-5.8907	-82.192046	0.000912	9.121549	3.090465	0.000365
1862	1.8517e+02	-5.8490	-81.832741	0.000902	9.020199	3.056126	0.000361
1863	1.8527e+02	-5.8121	-81.424991	0.001024	10.236406	3.468188	0.000410
1864	1.8537e+02	-5.7784	-81.069723	0.000892	8.918848	3.021788	0.000357
1865	1.8547e+02	-5.7464	-80.710418	0.000902	9.020199	3.056126	0.000361
1866	1.8557e+02	-5.6934	-80.322853	0.000973	9.729653	3.296496	0.000390
1867	1.8567e+02	-5.6517	-79.951436	0.000932	9.324251	3.159142	0.000373
1868	1.8577e+02	-5.6212	-79.563871	0.000973	9.729653	3.296496	0.000390
1869	1.8587e+02	-5.5795	-79.144009	0.001054	10.540457	3.571204	0.000422
1870	1.8597e+02	-5.5458	-78.796815	0.000872	8.716147	2.953111	0.000349
1871	1.8606e+02	-5.4993	-78.385027	0.001034	10.337756	3.502527	0.000414
1872	1.8616e+02	-5.4544	-78.053982	0.000831	8.310745	2.815757	0.000333
1873	1.8626e+02	-5.4127	-77.670454	0.000963	9.628302	3.262157	0.000385
1874	1.8636e+02	-5.3774	-77.307112	0.000912	9.121549	3.090465	0.000365
1875	1.8646e+02	-5.3357	-76.931659	0.000943	9.425601	3.193480	0.000377
1876	1.8656e+02	-5.2924	-76.540056	0.000983	9.831003	3.330834	0.000394
1877	1.8666e+02	-5.2587	-76.209011	0.000831	8.310745	2.815757	0.000333
1878	1.8676e+02	-5.2154	-75.813372	0.000993	9.932354	3.365173	0.000398
1879	1.8686e+02	-5.1769	-75.466178	0.000872	8.716147	2.953111	0.000349
1880	1.8696e+02	-5.1271	-75.078613	0.000973	9.729653	3.296496	0.000390
1881	1.8706e+02	-5.1063	-74.707197	0.000932	9.324251	3.159142	0.000373
1882	1.8716e+02	-5.0581	-74.343855	0.000912	9.121549	3.090465	0.000365
1883	1.8726e+02	-5.0261	-73.956290	0.000973	9.729653	3.296496	0.000390
1884	1.8736e+02	-4.9876	-73.528353	0.001074	10.743158	3.639881	0.000430
1885	1.8746e+02	-4.9378	-73.173085	0.000892	8.918848	3.021788	0.000357
1886	1.8756e+02	-4.9073	-72.757260	0.001044	10.439107	3.536865	0.000418
1887	1.8766e+02	-4.8592	-72.373732	0.000963	9.628302	3.262157	0.000385
1888	1.8776e+02	-4.8175	-72.006353	0.000922	9.222900	3.124803	0.000369
1889	1.8786e+02	-4.7742	-71.590528	0.001044	10.439107	3.536865	0.000418
1890	1.8796e+02	-4.7437	-71.223149	0.000922	9.222900	3.124803	0.000369
1891	1.8806e+02	-4.6956	-70.863844	0.000902	9.020199	3.056126	0.000361
1892	1.8815e+02	-4.6603	-70.536836	0.000821	8.209395	2.781418	0.000329
1893	1.8825e+02	-4.6170	-70.141196	0.000993	9.932354	3.365173	0.000398
1894	1.8835e+02	-4.5753	-69.794003	0.000872	8.716147	2.953111	0.000349
1895	1.8845e+02	-4.5384	-69.357992	0.001095	10.945859	3.708558	0.000438
1896	1.8855e+02	-4.4919	-69.022910	0.000841	8.412096	2.850095	0.000337
1897	1.8865e+02	-4.4662	-68.603048	0.001054	10.540457	3.571204	0.000422
1898	1.8875e+02	-4.4132	-68.235668	0.000922	9.222900	3.124803	0.000369
1899	1.8885e+02	-4.3731	-67.856177	0.000953	9.526952	3.227819	0.000381
1900	1.8895e+02	-4.3411	-67.513021	0.000861	8.614797	2.918772	0.000345
1901	1.8905e+02	-4.2993	-67.121419	0.000983	9.831003	3.330834	0.000394
1902	1.8915e+02	-4.2689	-66.725779	0.000993	9.932354	3.365173	0.000398
1903	1.8925e+02	-4.2095	-66.322066	0.001014	10.135055	3.433850	0.000406
1904	1.8935e+02	-4.1806	-65.890092	0.001084	10.844509	3.674219	0.000434
1905	1.8945e+02	-4.1405	-65.530787	0.000902	9.020199	3.056126	0.000361
1906	1.8955e+02	-4.1020	-65.114962	0.001044	10.439107	3.536865	0.000418
1907	1.8965e+02	-4.0619	-64.751620	0.000912	9.121549	3.090465	0.000365
1908	1.8975e+02	-4.0202	-64.404426	0.000872	8.716147	2.953111	0.000349
1909	1.8985e+02	-3.9881	-64.028973	0.000943	9.425601	3.193480	0.000377
1910	1.8995e+02	-3.9336	-63.677742	0.000882	8.817498	2.987449	0.000353
1911	1.9004e+02	-3.9015	-63.274028	0.001014	10.135055	3.433850	0.000406
1912	1.9014e+02	-3.8582	-62.854166	0.001054	10.540457	3.571204	0.000422
1913	1.9024e+02	-3.8245	-62.506973	0.000872	8.716147	2.953111	0.000349
1914	1.9034e+02	-3.7764	-62.083073	0.001064	10.641808	3.605542	0.000426
1915	1.9044e+02	-3.7459	-61.735880	0.000872	8.716147	2.953111	0.000349
1916	1.9054e+02	-3.7010	-61.275646	0.001155	11.553963	3.914589	0.000463
1917	1.9064e+02	-3.6593	-60.956713	0.000801	8.006693	2.712741	0.000321
1918	1.9074e+02	-3.6224	-60.552999	0.001014	10.135055	3.433850	0.000406
1919	1.9084e+02	-3.5774	-60.141211	0.001034	10.337756	3.502527	0.000414
1920	1.9094e+02	-3.5373	-59.745572	0.000993	9.932354	3.365173	0.000398
1921	1.9104e+02	-3.4988	-59.362044	0.000963	9.628302	3.262157	0.000385
1922	1.9114e+02	-3.4651	-58.962367	0.001003	10.033704	3.399511	0.000402
1923	1.9124e+02	-3.4186	-58.558654	0.001014	10.135055	3.433850	0.000406
1924	1.9134e+02	-3.3705	-58.171089	0.000973	9.729653	3.296496	0.000390
1925	1.9144e+02	-3.3416	-57.811784	0.000902	9.020199	3.056126	0.000361
1926	1.9154e+02	-3.3047	-57.432293	0.000953	9.526952	3.227819	0.000381
1927	1.9164e+02	-3.2598	-57.048765	0.000963	9.628302	3.262157	0.000385
1928	1.9174e+02	-3.2197	-56.628903	0.001054	10.540457	3.571204	0.000422
1929	1.9184e+02	-3.1780	-56.257487	0.000932	9.324251	3.159142	0.000373
1930	1.9194e+02	-3.1475	-55.886070	0.000932	9.324251	3.159142	0.000373
1931	1.9203e+02	-3.1090	-55.494468	0.000983	9.831003	3.330834	0.000394
1932	1.9213e+02	-3.0577	-55.094791	0.001003	10.033704	3.399511	0.000402
1933	1.9223e+02	-3.0304	-54.691078	0.001014	10.135055	3.433850	0.000406
1934	1.9233e+02	-2.9839	-54.283327	0.001024	10.236406	3.468188	0.000410
1935	1.9243e+02	-2.9550	-53.919985	0.000912	9.121549	3.090465	0.000365
1936	1.9253e+02	-2.9053	-53.504160	0.001044	10.439107	3.536865	0.000418
1937	1.9263e+02	-2.8668	-53.084298	0.001054	10.540457	3.571204	0.000422
1938	1.9273e+02	-2.8251	-52.700770	0.000963	9.628302	3.262157	0.000385
1939	1.9283e+02	-2.7898	-52.276871	0.001064	10.641808	3.605542	0.000426
1940	1.9293e+02	-2.7464	-51.901417	0.000943	9.425601	3.193480	0.000377
1941	1.9303e+02	-2.7063	-51.542112	0.000902	9.020199	3.056126	0.000361
1942	1.9313e+02	-2.6694	-51.146473	0.000993	9.932354	3.365173	0.000398
1943	1.9323e+02	-2.6229	-50.742759	0.001014	10.135055	3.433850	0.000406
1944	1.9333e+02	-2.5908	-50.351157	0.000983	9.831003	3.330834	0.000394
1945	1.9343e+02	-2.5491	-49.959555	0.000983	9.831003	3.330834	0.000394
1946	1.9353e+02	-2.5122	-49.543730	0.001044	10.439107	3.536865	0.000418
1947	1.9363e+02	-2.4673	-49.160202	0.000963	9.628302	3.262157	0.000385
1948	1.9373e+02	-2.4272	-48.776674	0.000963	9.628302	3.262157	0.000385
1949	1.9383e+02	-2.3855	-48.356812	0.001054	10.540457	3.571204	0.000422
1950	1.9393e+02	-2.3406	-47.969247	0.000973	9.729653	3.296496	0.000390
1951	1.9403e+02	-2.3037	-47.585719	0.000963	9.628302	3.262157	0.000385
1952	1.9412e+02	-2.2684	-47.214302	0.000932	9.324251	3.159142	0.000373
1953	1.9422e+02	-2.2315	-46.794440	0.001054	10.540457	3.571204	0.000422
1954	1.9432e+02	-2.1834	-46.382652	0.001034	10.337756	3.502527	0.000414
1955	1.9442e+02	-2.1497	-45.962790	0.001054	10.540457	3.571204	0.000422
1956	1.9452e+02	-2.1128	-45.599448	0.000912	9.121549	3.090465	0.000365
1957	1.9462e+02	-2.0695	-45.187660	0.001034	10.337756	3.502527	0.000414
1958	1.9472e+02	-2.0326	-44.775872	0.001034	10.337756	3.502527	0.000414
1959	1.9482e+02	-1.9860	-44.376196	0.001003	10.033704	3.399511	0.000402
1960	1.9492e+02	-1.9443	-44.016891	0.000902	9.020199	3.056126	0.000361
1961	1.9502e+02	-1.9106	-43.572806	0.001115	11.148560	3.777235	0.000446
1962	1.9512e+02	-1.8689	-43.144870	0.001074	10.743158	3.639881	0.000430
1963	1.9522e+02	-1.8336	-42.769416	0.000943	9.425601	3.193480	0.000377
1964	1.9532e+02	-1.7903	-42.373777	0.000993	9.932354	3.365173	0.000398
1965	1.9542e+02	-1.7550	-41.998323	0.000943	9.425601	3.193480	0.000377
1966	1.9552e+02	-1.7053	-41.574424	0.001064	10.641808	3.605542	0.000426
1967	1.9562e+02	-1.6700	-41.166673	0.001024	10.236406	3.468188	0.000410
1968	1.9572e+02	-1.6283	-40.795257	0.000932	9.324251	3.159142	0.000373
1969	1.9582e+02	-1.5914	-40.379432	0.001044	10.439107	3.536865	0.000418
1970	1.9592e+02	-1.5561	-39.987829	0.000983	9.831003	3.330834	0.000394
1971	1.9601e+02	-1.5208	-39.555856	0.001084	10.844509	3.674219	0.000434
1972	1.9611e+02	-1.4727	-39.160217	0.000993	9.932354	3.365173	0.000398
1973	1.9621e+02	-1.4294	-38.744392	0.001044	10.439107	3.536865	0.000418
1974	1.9631e+02	-1.3941	-38.364901	0.000953	9.526952	3.227819	0.000381
1975	1.9641e+02	-1.3492	-37.941002	0.001064	10.641808	3.605542	0.000426
1976	1.9651e+02	-1.3091	-37.504991	0.001095	10.945859	3.708558	0.000438
1977	1.9661e+02	-1.2738	-37.121463	0.000963	9.628302	3.262157	0.000385
1978	1.9671e+02	-1.2304	-36.681415	0.001105	11.047210	3.742896	0.000442
1979	1.9681e+02	-1.1871	-36.301925	0.000953	9.526952	3.227819	0.000381
1980	1.9691e+02	-1.1550	-35.894174	0.001024	10.236406	3.468188	0.000410
1981	1.9701e+02	-1.1133	-35.486423	0.001024	10.236406	3.468188	0.000410
1982	1.9711e+02	-1.0620	-35.042338	0.001115	11.148560	3.777235	0.000446
1983	1.9721e+02	-1.0379	-34.666885	0.000943	9.425601	3.193480	0.000377
1984	1.9731e+02	-0.9946	-34.222800	0.001115	11.148560	3.777235	0.000446
1985	1.9741e+02	-0.9577	-33.827160	0.000993	9.932354	3.365173	0.000398
1986	1.9751e+02	-0.9192	-33.427484	0.001003	10.033704	3.399511	0.000402
1987	1.9761e+02	-0.8791	-32.983399	0.001115	11.148560	3.777235	0.000446
1988	1.9771e+02	-0.8342	-32.595834	0.000973	9.729653	3.296496	0.000390
1989	1.9781e+02	-0.7893	-32.167898	0.001074	10.743158	3.639881	0.000430
1990	1.9791e+02	-0.7476	-31.804555	0.000912	9.121549	3.090465	0.000365
1991	1.9800e+02	-0.7107	-31.320099	0.001216	12.162066	4.120619	0.000487
1992	1.9810e+02	-0.6770	-31.033462	0.000720	7.195889	2.438033	0.000288
1993	1.9820e+02	-0.6353	-30.577266	0.001145	11.452612	3.880250	0.000458
1994	1.9830e+02	-0.5936	-30.141255	0.001095	10.945859	3.708558	0.000438
1995	1.9840e+02	-0.5567	-29.697170	0.001115	11.148560	3.777235	0.000446
1996	1.9850e+02	-0.5134	-29.305568	0.000983	9.831003	3.330834	0.000394
1997	1.9860e+02	-0.4732	-28.913966	0.000983	9.831003	3.330834	0.000394
1998	1.9870e+02	-0.4315	-28.486030	0.001074	10.743158	3.639881	0.000430
1999	1.9880e+02	-0.3914	-28.070205	0.001044	10.439107	3.536865	0.000418
2000	1.9890e+02	-0.3626	-27.609971	0.001155	11.553963	3.914589	0.000463
2001	1.9900e+02	-0.3112	-27.210295	0.001003	10.033704	3.399511	0.000402
2002	1.9910e+02	-0.2856	-26.806581	0.001014	10.135055	3.433850	0.000406
2003	1.9920e+02	-0.2390	-26.374608	0.001084	10.844509	3.674219	0.000434
2004	1.9930e+02	-0.2037	-25.978968	0.000993	9.932354	3.365173	0.000398
2005	1.9940e+02	-0.1572	-25.534884	0.001115	11.148560	3.777235	0.000446
2006	1.9950e+02	-0.1139	-25.127133	0.001024	10.236406	3.468188	0.000410
2007	1.9960e+02	-0.0770	-24.727456	0.001003	10.033704	3.399511	0.000402
2008	1.9970e+02	-0.0401	-24.283371	0.001115	11.148560	3.777235	0.000446
2009	1.9980e+02	0.0080	-23.907918	0.001115	11.148560	3.777235	0.000377

PMax (uC/cm2):	2.02e+02
Pr (uC/cm2):	2.34e+01
-Pr (uC/cm2):	-5.93e+00
PLoss (uC/cm2):	-5.95e+00
-Vc:	-2.21e+00
C (Max-Eff) (nF):	1.01e+00
K (Eff):	3.42e+03
Vert. (+/-Pr) Shift (uC/cm2):	8.72e+00
Offset (uC/cm2):	1.80e+01

A (Loop Area - uC/cm2·Volts):	5.23e-02



Hysteresis Version: 5.48.1 - Radiant Technologies, Inc., 1999 - 9/12/24

