»»»»»»»»»»»»»»»»»»»»»»»»»»»»»»»»»»»» Hysteresis ««««««««««««««««««««««««««««««««««««
»»»  Executed Version:	5.48.1
»»»  Vision Version:	5.48.4 (R)
»»»  Vision Compiled:	9/18/24
»»»  Driver Version:	5.47.0
»»»  Windows Version:	Windows 8 or 8.1
»»»  Processor Information:	x86 (AMD or Intel) - 32 Processors
»»»  Tester Name:	PMF21124-494 (100V)
»»»  Tester S/N:	PMF21124-494
»»»  Internal Amp Type:	100V RevK 270k
»»»  Internal Amp S/N:	iAB2-596/K     
»»»  Execution Count:	1
»»»»»»»»»»»»»»»»»»»»»»»»»»»»»»»»»»»»»»»»»»««««««««««««««««««««««««««««««««««««««««««

Stored:	6/6/2025 - 14:12:30
Configured:	06/06/25 01:57:07 PM
Executed:	06/06/25 02:12:02 PM

»»»»»»»»»»»»»»»»»»»»»»»»»»»»»»»»»»» Sample Info ««««««««««««««««««««««««««««««««««««
Sample Name:	
Lot Name:	
Wafer Name:	
Die Row/Column:	0/0
Capacitor Number:	0
Sample Area (cm2):	1.00e-04
Sample Thickness (microns):	3.00e-01

Amplifier:	Internal

»»»»»»»»»»»»»»»»»»»»»»»»»»»»»»»»»»» Tester Info «««««««««««««««««««««««««««««««««««
Tester Name:	PMF21124-494 (100V)
Tester Serial Number:	PMF21124-494
Return Signal Amp. Level:	1.79 [Index: 2]

»»»»»»»»»»»»»»»»»»»»»»»»»»»»»»»» Hysteresis Info ««««««««««««««««««««««««««««««««««
Task Name:	Hyst-501
Volts:	20.00
Field:	666.67 (kV/cm)
DCBias:	0.00
DCField:	0.00 (kV/cm)
Hysteresis Period (ms):	1.00e+00
Preset:	Enabled
Preset Delay (ms):	1.00e+03
Profile:	Standard Bipolar

»»»»»»»»»»»»»»»»»»»»»»»»»»»»»»»»»»»»»» Data «««««««««««««««««««««««««««««««««««««««
Points:	2001

Valid Data

Point	Time (ms)	Drive Voltage	Measured Polarization (uC/cm2)	Capacitance (uF)	Normalized Capacitance (uF/cm2)	Dielectric Constant	Instantaneous Current (mA)
   1	0.0000e+00	0.0433	-1.336757	-0.000025	-0.251036	-0.085053	0.002053
   2	5.0000e-04	0.0257	-1.326494	-0.000025	-0.251036	-0.085053	0.002053
   3	1.0000e-03	0.1235	-1.317513	0.000022	0.219657	0.074422	0.001796
   4	1.5000e-03	0.1684	-1.285869	0.000077	0.774029	0.262248	0.006329
   5	2.0000e-03	0.2102	-1.248238	0.000092	0.920467	0.311863	0.007526
   6	2.5000e-03	0.2166	-1.187943	0.000147	1.474839	0.499689	0.012059
   7	3.0000e-03	0.2695	-1.137911	0.000122	1.223803	0.414636	0.010006
   8	3.5000e-03	0.2759	-1.078043	0.000146	1.464380	0.496145	0.011974
   9	4.0000e-03	0.3610	-0.992518	0.000209	2.091971	0.708779	0.017105
  10	4.5000e-03	0.3946	-0.922815	0.000170	1.704956	0.577655	0.013941
  11	5.0000e-03	0.4652	-0.855678	0.000164	1.642197	0.556391	0.013427
  12	5.5000e-03	0.4845	-0.785120	0.000173	1.725876	0.584743	0.014112
  13	6.0000e-03	0.5150	-0.706009	0.000194	1.935073	0.655620	0.015822
  14	6.5000e-03	0.5503	-0.613642	0.000226	2.259328	0.765481	0.018473
  15	7.0000e-03	0.5839	-0.546933	0.000163	1.631737	0.552848	0.013342
  16	7.5000e-03	0.6064	-0.467394	0.000195	1.945533	0.659164	0.015908
  17	8.0000e-03	0.6353	-0.366902	0.000246	2.458066	0.832815	0.020098
  18	8.5000e-03	0.7075	-0.289930	0.000188	1.882774	0.637901	0.015395
  19	9.0000e-03	0.7412	-0.206543	0.000204	2.039671	0.691059	0.016677
  20	9.5000e-03	0.7716	-0.137268	0.000169	1.694496	0.574111	0.013855
  21	1.0000e-02	0.8310	-0.052170	0.000208	2.081511	0.705235	0.017019
  22	1.0500e-02	0.8470	0.027368	0.000195	1.945533	0.659164	0.015908
  23	1.1000e-02	0.9048	0.124439	0.000237	2.374387	0.804464	0.019414
  24	1.1500e-02	0.9401	0.209536	0.000208	2.081511	0.705235	0.017019
  25	1.2000e-02	0.9706	0.287792	0.000191	1.914153	0.648533	0.015651
  26	1.2500e-02	1.0508	0.362199	0.000182	1.820015	0.616638	0.014881
  27	1.3000e-02	1.0588	0.458414	0.000235	2.353467	0.797376	0.019243
  28	1.3500e-02	1.1165	0.545222	0.000212	2.123350	0.719411	0.017362
  29	1.4000e-02	1.1631	0.654267	0.000267	2.667263	0.903693	0.021809
  30	1.4500e-02	1.1727	0.715845	0.000151	1.506219	0.510321	0.012316
  31	1.5000e-02	1.2433	0.800515	0.000207	2.071051	0.701691	0.016934
  32	1.5500e-02	1.2770	0.906138	0.000258	2.583584	0.875342	0.021125
  33	1.6000e-02	1.3107	0.983111	0.000188	1.882774	0.637901	0.015395
  34	1.6500e-02	1.3379	1.070774	0.000214	2.144270	0.726498	0.017533
  35	1.7000e-02	1.3796	1.158437	0.000214	2.144270	0.726498	0.017533
  36	1.7500e-02	1.4342	1.244817	0.000211	2.112890	0.715867	0.017276
  37	1.8000e-02	1.4984	1.321790	0.000188	1.882774	0.637901	0.015395
  38	1.8500e-02	1.4935	1.405177	-0.000204	-2.039671	-0.691059	0.016677
  39	1.9000e-02	1.5192	1.504813	0.000244	2.437146	0.825727	0.019927
  40	1.9500e-02	1.6074	1.597608	0.000227	2.269788	0.769025	0.018559
  41	2.0000e-02	1.6299	1.686982	0.000219	2.186109	0.740674	0.017875
  42	2.0500e-02	1.7005	1.775500	0.000217	2.165190	0.733586	0.017704
  43	2.1000e-02	1.7294	1.852473	0.000188	1.882774	0.637901	0.015395
  44	2.1500e-02	1.7534	1.946978	0.000231	2.311628	0.783201	0.018901
  45	2.2000e-02	1.7663	2.034213	0.000213	2.133810	0.722954	0.017447
  46	2.2500e-02	1.8481	2.116317	0.000201	2.008292	0.680428	0.016421
  47	2.3000e-02	1.8625	2.217665	0.000248	2.478985	0.839903	0.020269
  48	2.3500e-02	1.9155	2.286940	0.000169	1.694496	0.574111	0.013855
  49	2.4000e-02	1.9524	2.386149	0.000243	2.426686	0.822183	0.019842
  50	2.4500e-02	1.9973	2.469536	0.000204	2.039671	0.691059	0.016677
  51	2.5000e-02	2.0406	2.556344	0.000212	2.123350	0.719411	0.017362
  52	2.5500e-02	2.1048	2.649994	0.000229	2.290708	0.776113	0.018730
  53	2.6000e-02	2.0951	2.740650	-0.000222	-2.217489	-0.751306	0.018131
  54	2.6500e-02	2.1336	2.828741	0.000215	2.154730	0.730042	0.017618
  55	2.7000e-02	2.1946	2.918542	0.000220	2.196569	0.744218	0.017960
  56	2.7500e-02	2.2700	3.007061	0.000217	2.165190	0.733586	0.017704
  57	2.8000e-02	2.2491	3.109691	-0.000251	-2.510365	-0.850535	0.020526
  58	2.8500e-02	2.2668	3.183670	0.000181	1.809555	0.613094	0.014796
  59	2.9000e-02	2.3550	3.264064	0.000197	1.966452	0.666252	0.016079
  60	2.9500e-02	2.4031	3.358141	0.000230	2.301168	0.779657	0.018816
  61	3.0000e-02	2.4272	3.456067	0.000240	2.395306	0.811552	0.019585
  62	3.0500e-02	2.4737	3.543303	0.000213	2.133810	0.722954	0.017447
  63	3.1000e-02	2.4994	3.632249	0.000218	2.175650	0.737130	0.017789
  64	3.1500e-02	2.5684	3.712215	0.000196	1.955993	0.662708	0.015993
  65	3.2000e-02	2.5764	3.803299	0.000223	2.227949	0.754849	0.018217
  66	3.2500e-02	2.6374	3.893956	0.000222	2.217489	0.751306	0.018131
  67	3.3000e-02	2.6775	3.983329	0.000219	2.186109	0.740674	0.017875
  68	3.3500e-02	2.7497	4.064578	0.000199	1.987372	0.673340	0.016250
  69	3.4000e-02	2.7721	4.161649	0.000237	2.374387	0.804464	0.019414
  70	3.4500e-02	2.7833	4.248457	0.000212	2.123350	0.719411	0.017362
  71	3.5000e-02	2.8170	4.345528	0.000237	2.374387	0.804464	0.019414
  72	3.5500e-02	2.8716	4.431053	0.000209	2.091971	0.708779	0.017105
  73	3.6000e-02	2.9213	4.527269	0.000235	2.353467	0.797376	0.019243
  74	3.6500e-02	2.9245	4.615787	0.000217	2.165190	0.733586	0.017704
  75	3.7000e-02	2.9919	4.710292	0.000231	2.311628	0.783201	0.018901
  76	3.7500e-02	3.0160	4.784699	0.000182	1.820015	0.616638	0.014881
  77	3.8000e-02	3.0705	4.886046	0.000248	2.478985	0.839903	0.020269
  78	3.8500e-02	3.0946	4.976275	0.000221	2.207029	0.747762	0.018046
  79	3.9000e-02	3.1459	5.070781	0.000231	2.311628	0.783201	0.018901
  80	3.9500e-02	3.2133	5.162720	0.000225	2.248869	0.761937	0.018388
  81	4.0000e-02	3.2406	5.252521	0.000220	2.196569	0.744218	0.017960
  82	4.0500e-02	3.2710	5.346599	0.000230	2.301168	0.779657	0.018816
  83	4.1000e-02	3.3384	5.445808	0.000243	2.426686	0.822183	0.019842
  84	4.1500e-02	3.3593	5.540313	0.000231	2.311628	0.783201	0.018901
  85	4.2000e-02	3.3962	5.624555	0.000206	2.060591	0.698147	0.016848
  86	4.2500e-02	3.4266	5.705376	0.000198	1.976912	0.669796	0.016164
  87	4.3000e-02	3.4684	5.806296	0.000247	2.468525	0.836359	0.020184
  88	4.3500e-02	3.5261	5.876427	0.000172	1.715416	0.581199	0.014026
  89	4.4000e-02	3.5325	5.968366	0.000225	2.248869	0.761937	0.018388
  90	4.4500e-02	3.5967	6.057740	0.000219	2.186109	0.740674	0.017875
  91	4.5000e-02	3.6208	6.146258	0.000217	2.165190	0.733586	0.017704
  92	4.5500e-02	3.6544	6.234349	0.000215	2.154730	0.730042	0.017618
  93	4.6000e-02	3.7250	6.337407	0.000252	2.520825	0.854079	0.020612
  94	4.6500e-02	3.7603	6.409248	0.000176	1.757255	0.595374	0.014368
  95	4.7000e-02	3.7892	6.497766	0.000217	2.165190	0.733586	0.017704
  96	4.7500e-02	3.8245	6.571745	0.000181	1.809555	0.613094	0.014796
  97	4.8000e-02	3.8662	6.660691	0.000218	2.175650	0.737130	0.017789
  98	4.8500e-02	3.9223	6.773157	0.000275	2.750941	0.932044	0.022493
  99	4.9000e-02	3.9609	6.839866	0.000163	1.631737	0.552848	0.013342
 100	4.9500e-02	3.9994	6.938648	0.000242	2.416226	0.818640	0.019756
 101	5.0000e-02	4.0330	7.025456	0.000212	2.123350	0.719411	0.017362
 102	5.0500e-02	4.0603	7.114402	0.000218	2.175650	0.737130	0.017789
 103	5.1000e-02	4.1389	7.206769	0.000226	2.259328	0.765481	0.018473
 104	5.1500e-02	4.1646	7.287162	0.000197	1.966452	0.666252	0.016079
 105	5.2000e-02	4.2031	7.374825	0.000214	2.144270	0.726498	0.017533
 106	5.2500e-02	4.2207	7.465054	0.000221	2.207029	0.747762	0.018046
 107	5.3000e-02	4.2641	7.559132	0.000230	2.301168	0.779657	0.018816
 108	5.3500e-02	4.3138	7.642947	0.000205	2.050131	0.694603	0.016763
 109	5.4000e-02	4.3715	7.723768	0.000198	1.976912	0.669796	0.016164
 110	5.4500e-02	4.4084	7.821694	0.000240	2.395306	0.811552	0.019585
 111	5.5000e-02	4.4036	7.917054	-0.000233	-2.332547	-0.790288	0.019072
 112	5.5500e-02	4.4598	8.004718	0.000214	2.144270	0.726498	0.017533
 113	5.6000e-02	4.5368	8.090670	0.000210	2.102431	0.712323	0.017191
 114	5.6500e-02	4.5320	8.203991	-0.000277	-2.771861	-0.939132	0.022664
 115	5.7000e-02	4.5897	8.277542	0.000180	1.799095	0.609550	0.014710
 116	5.7500e-02	4.6298	8.381028	0.000253	2.531285	0.857622	0.020697
 117	5.8000e-02	4.6635	8.473822	0.000227	2.269788	0.769025	0.018559
 118	5.8500e-02	4.7132	8.553788	0.000196	1.955993	0.662708	0.015993
 119	5.9000e-02	4.7566	8.640596	0.000212	2.123350	0.719411	0.017362
 120	5.9500e-02	4.7549	8.723983	-0.000204	-2.039671	-0.691059	0.016677
 121	6.0000e-02	4.8191	8.812502	0.000217	2.165190	0.733586	0.017704
 122	6.0500e-02	4.8961	8.890757	0.000191	1.914153	0.648533	0.015651
 123	6.1000e-02	4.8961	8.976282	-0.000209	-2.091971	-0.708779	0.017105
 124	6.1500e-02	4.9394	9.075491	0.000243	2.426686	0.822183	0.019842
 125	6.2000e-02	4.9972	9.156740	0.000199	1.987372	0.673340	0.016250
 126	6.2500e-02	5.0453	9.245686	0.000218	2.175650	0.737130	0.017789
 127	6.3000e-02	5.0822	9.330356	0.000207	2.071051	0.701691	0.016934
 128	6.3500e-02	5.0934	9.424433	0.000230	2.301168	0.779657	0.018816
 129	6.4000e-02	5.1560	9.508676	0.000206	2.060591	0.698147	0.016848
 130	6.4500e-02	5.1769	9.598905	0.000221	2.207029	0.747762	0.018046
 131	6.5000e-02	5.2282	9.712225	0.000277	2.771861	0.939132	0.022664
 132	6.5500e-02	5.2603	9.777224	0.000159	1.589898	0.538672	0.013000
 133	6.6000e-02	5.2956	9.857190	0.000196	1.955993	0.662708	0.015993
 134	6.6500e-02	5.3694	9.965807	0.000266	2.656803	0.900149	0.021723
 135	6.7000e-02	5.3838	10.051760	0.000210	2.102431	0.712323	0.017191
 136	6.7500e-02	5.4015	10.128305	0.000187	1.872314	0.634357	0.015309
 137	6.8000e-02	5.4592	10.219389	0.000223	2.227949	0.754849	0.018217
 138	6.8500e-02	5.5137	10.304059	0.000207	2.071051	0.701691	0.016934
 139	6.9000e-02	5.5667	10.399847	0.000234	2.343007	0.793832	0.019158
 140	6.9500e-02	5.5988	10.489220	0.000219	2.186109	0.740674	0.017875
 141	7.0000e-02	5.6309	10.564055	0.000183	1.830474	0.620182	0.014967
 142	7.0500e-02	5.6726	10.647014	0.000203	2.029212	0.687515	0.016592
 143	7.1000e-02	5.7014	10.736388	0.000219	2.186109	0.740674	0.017875
 144	7.1500e-02	5.7672	10.826189	0.000220	2.196569	0.744218	0.017960
 145	7.2000e-02	5.8169	10.901024	0.000183	1.830474	0.620182	0.014967
 146	7.2500e-02	5.8089	10.995956	-0.000232	-2.322087	-0.786745	0.018987
 147	7.3000e-02	5.8699	11.078916	0.000203	2.029212	0.687515	0.016592
 148	7.3500e-02	5.9100	11.174276	0.000233	2.332547	0.790288	0.019072
 149	7.4000e-02	5.9613	11.253387	0.000194	1.935073	0.655620	0.015822
 150	7.4500e-02	5.9742	11.360293	0.000261	2.614963	0.885974	0.021381
 151	7.5000e-02	6.0191	11.435555	0.000184	1.840934	0.623725	0.015052
 152	7.5500e-02	6.0656	11.524501	0.000218	2.175650	0.737130	0.017789
 153	7.6000e-02	6.1105	11.610881	0.000211	2.112890	0.715867	0.017276
 154	7.6500e-02	6.1474	11.701110	0.000221	2.207029	0.747762	0.018046
 155	7.7000e-02	6.2116	11.784925	0.000205	2.050131	0.694603	0.016763
 156	7.7500e-02	6.2373	11.880713	0.000234	2.343007	0.793832	0.019158
 157	7.8000e-02	6.2966	11.973935	0.000228	2.280248	0.772569	0.018644
 158	7.8500e-02	6.2918	12.059460	-0.000209	-2.091971	-0.708779	0.017105
 159	7.9000e-02	6.3415	12.156959	0.000238	2.384847	0.808008	0.019500
 160	7.9500e-02	6.4153	12.233931	0.000188	1.882774	0.637901	0.015395
 161	8.0000e-02	6.4426	12.320312	0.000211	2.112890	0.715867	0.017276
 162	8.0500e-02	6.4538	12.417383	0.000237	2.374387	0.804464	0.019414
 163	8.1000e-02	6.4955	12.500342	0.000203	2.029212	0.687515	0.016592
 164	8.1500e-02	6.5469	12.588860	0.000217	2.165190	0.733586	0.017704
 165	8.2000e-02	6.6078	12.671820	0.000203	2.029212	0.687515	0.016592
 166	8.2500e-02	6.6672	12.770174	0.000241	2.405766	0.815096	0.019671
 167	8.3000e-02	6.6848	12.845008	0.000183	1.830474	0.620182	0.014967
 168	8.3500e-02	6.7185	12.941651	0.000236	2.363927	0.800920	0.019329
 169	8.4000e-02	6.7506	13.028887	0.000213	2.133810	0.722954	0.017447
 170	8.4500e-02	6.7923	13.116550	0.000214	2.144270	0.726498	0.017533
 171	8.5000e-02	6.8180	13.198226	0.000200	1.997832	0.676884	0.016335
 172	8.5500e-02	6.8565	13.286745	0.000217	2.165190	0.733586	0.017704
 173	8.6000e-02	6.9046	13.363717	0.000188	1.882774	0.637901	0.015395
 174	8.6500e-02	6.9383	13.448815	0.000208	2.081511	0.705235	0.017019
 175	8.7000e-02	7.0057	13.535195	0.000211	2.112890	0.715867	0.017276
 176	8.7500e-02	7.0217	13.616016	0.000198	1.976912	0.669796	0.016164
 177	8.8000e-02	7.0602	13.715653	0.000244	2.437146	0.825727	0.019927
 178	8.8500e-02	7.1260	13.800323	0.000207	2.071051	0.701691	0.016934
 179	8.9000e-02	7.1485	13.878151	0.000190	1.903693	0.644989	0.015566
 180	8.9500e-02	7.1902	13.961538	0.000204	2.039671	0.691059	0.016677
 181	9.0000e-02	7.2383	14.044925	0.000204	2.039671	0.691059	0.016677
 182	9.0500e-02	7.2624	14.140285	0.000233	2.332547	0.790288	0.019072
 183	9.1000e-02	7.2896	14.223672	0.000204	2.039671	0.691059	0.016677
 184	9.1500e-02	7.3698	14.303638	0.000196	1.955993	0.662708	0.015993
 185	9.2000e-02	7.4260	14.386597	0.000203	2.029212	0.687515	0.016592
 186	9.2500e-02	7.4292	14.469556	0.000203	2.029212	0.687515	0.016592
 187	9.3000e-02	7.4773	14.565344	0.000234	2.343007	0.793832	0.019158
 188	9.3500e-02	7.5335	14.644455	0.000194	1.935073	0.655620	0.015822
 189	9.4000e-02	7.5527	14.738533	0.000230	2.301168	0.779657	0.018816
 190	9.4500e-02	7.5896	14.810801	0.000177	1.767715	0.598918	0.014454
 191	9.5000e-02	7.6714	14.887346	0.000187	1.872314	0.634357	0.015309
 192	9.5500e-02	7.6763	14.981424	0.000230	2.301168	0.779657	0.018816
 193	9.6000e-02	7.7404	15.053265	0.000176	1.757255	0.595374	0.014368
 194	9.6500e-02	7.7533	15.149481	0.000235	2.353467	0.797376	0.019243
 195	9.7000e-02	7.7853	15.243558	0.000230	2.301168	0.779657	0.018816
 196	9.7500e-02	7.8415	15.326090	0.000202	2.018752	0.683972	0.016506
 197	9.8000e-02	7.8864	15.400924	0.000183	1.830474	0.620182	0.014967
 198	9.8500e-02	7.9249	15.480035	0.000194	1.935073	0.655620	0.015822
 199	9.9000e-02	7.9393	15.578816	0.000242	2.416226	0.818640	0.019756
 200	9.9500e-02	8.0244	15.646809	0.000166	1.663117	0.563479	0.013598
 201	1.0000e-01	8.0051	15.732334	-0.000209	-2.091971	-0.708779	0.017105
 202	1.0050e-01	8.0693	15.822563	0.000221	2.207029	0.747762	0.018046
 203	1.0100e-01	8.1078	15.896114	0.000180	1.799095	0.609550	0.014710
 204	1.0150e-01	8.1463	15.982495	0.000211	2.112890	0.715867	0.017276
 205	1.0200e-01	8.2137	16.070158	0.000214	2.144270	0.726498	0.017533
 206	1.0250e-01	8.2345	16.142854	0.000178	1.778175	0.602462	0.014539
 207	1.0300e-01	8.2586	16.235649	0.000227	2.269788	0.769025	0.018559
 208	1.0350e-01	8.3340	16.305352	0.000170	1.704956	0.577655	0.013941
 209	1.0400e-01	8.3661	16.404988	0.000244	2.437146	0.825727	0.019927
 210	1.0450e-01	8.3789	16.477257	0.000177	1.767715	0.598918	0.014454
 211	1.0500e-01	8.4046	16.561072	0.000205	2.050131	0.694603	0.016763
 212	1.0550e-01	8.4447	16.653866	0.000227	2.269788	0.769025	0.018559
 213	1.0600e-01	8.4944	16.728273	0.000182	1.820015	0.616638	0.014881
 214	1.0650e-01	8.5778	16.816792	0.000217	2.165190	0.733586	0.017704
 215	1.0700e-01	8.6019	16.892054	0.000184	1.840934	0.623725	0.015052
 216	1.0750e-01	8.6356	16.977579	0.000209	2.091971	0.708779	0.017105
 217	1.0800e-01	8.6564	17.078498	0.000247	2.468525	0.836359	0.020184
 218	1.0850e-01	8.7158	17.147346	0.000168	1.684036	0.570567	0.013770
 219	1.0900e-01	8.7527	17.225174	0.000190	1.903693	0.644989	0.015566
 220	1.0950e-01	8.7992	17.308133	0.000203	2.029212	0.687515	0.016592
 221	1.1000e-01	8.8522	17.385961	0.000190	1.903693	0.644989	0.015566
 222	1.1050e-01	8.8955	17.470631	0.000207	2.071051	0.701691	0.016934
 223	1.1100e-01	8.9436	17.548458	0.000190	1.903693	0.644989	0.015566
 224	1.1150e-01	8.9596	17.627141	0.000192	1.924613	0.652077	0.015737
 225	1.1200e-01	9.0222	17.713522	0.000211	2.112890	0.715867	0.017276
 226	1.1250e-01	9.0350	17.792205	0.000192	1.924613	0.652077	0.015737
 227	1.1300e-01	9.0751	17.865756	0.000180	1.799095	0.609550	0.014710
 228	1.1350e-01	9.1185	17.947433	0.000200	1.997832	0.676884	0.016335
 229	1.1400e-01	9.1570	18.043648	0.000235	2.353467	0.797376	0.019243
 230	1.1450e-01	9.2211	18.116772	0.000179	1.788635	0.606006	0.014625
 231	1.1500e-01	9.2227	18.200159	0.000204	2.039671	0.691059	0.016677
 232	1.1550e-01	9.2789	18.269435	0.000169	1.694496	0.574111	0.013855
 233	1.1600e-01	9.2885	18.348118	0.000192	1.924613	0.652077	0.015737
 234	1.1650e-01	9.3447	18.445616	0.000238	2.384847	0.808008	0.019500
 235	1.1700e-01	9.3880	18.516174	0.000173	1.725876	0.584743	0.014112
 236	1.1750e-01	9.4104	18.595713	0.000195	1.945533	0.659164	0.015908
 237	1.1800e-01	9.4714	18.682093	0.000211	2.112890	0.715867	0.017276
 238	1.1850e-01	9.5099	18.767190	0.000208	2.081511	0.705235	0.017019
 239	1.1900e-01	9.5404	18.848439	0.000199	1.987372	0.673340	0.016250
 240	1.1950e-01	9.5981	18.932681	0.000206	2.060591	0.698147	0.016848
 241	1.2000e-01	9.6286	19.016496	0.000205	2.050131	0.694603	0.016763
 242	1.2050e-01	9.6623	19.105870	0.000219	2.186109	0.740674	0.017875
 243	1.2100e-01	9.7136	19.189257	0.000204	2.039671	0.691059	0.016677
 244	1.2150e-01	9.7393	19.283334	0.000230	2.301168	0.779657	0.018816
 245	1.2200e-01	9.7858	19.361162	0.000190	1.903693	0.644989	0.015566
 246	1.2250e-01	9.8195	19.439417	0.000191	1.914153	0.648533	0.015651
 247	1.2300e-01	9.8692	19.517673	0.000191	1.914153	0.648533	0.015651
 248	1.2350e-01	9.9398	19.599777	0.000201	2.008292	0.680428	0.016421
 249	1.2400e-01	9.9655	19.675039	0.000184	1.840934	0.623725	0.015052
 250	1.2450e-01	10.0008	19.756288	0.000199	1.987372	0.673340	0.016250
 251	1.2500e-01	10.0200	19.832405	0.000186	1.861854	0.630813	0.015223
 252	1.2550e-01	10.0666	19.930331	0.000240	2.395306	0.811552	0.019585
 253	1.2600e-01	10.1163	20.015001	0.000207	2.071051	0.701691	0.016934
 254	1.2650e-01	10.1644	20.097105	0.000201	2.008292	0.680428	0.016421
 255	1.2700e-01	10.1821	20.178781	0.000200	1.997832	0.676884	0.016335
 256	1.2750e-01	10.2302	20.260030	0.000199	1.987372	0.673340	0.016250
 257	1.2800e-01	10.2751	20.338286	0.000191	1.914153	0.648533	0.015651
 258	1.2850e-01	10.3120	20.413548	0.000184	1.840934	0.623725	0.015052
 259	1.2900e-01	10.3489	20.505060	0.000224	2.238409	0.758393	0.018302
 260	1.2950e-01	10.3874	20.573907	0.000168	1.684036	0.570567	0.013770
 261	1.3000e-01	10.4564	20.654301	0.000197	1.966452	0.666252	0.016079
 262	1.3050e-01	10.5045	20.739398	0.000208	2.081511	0.705235	0.017019
 263	1.3100e-01	10.5430	20.824496	0.000208	2.081511	0.705235	0.017019
 264	1.3150e-01	10.5478	20.904462	0.000196	1.955993	0.662708	0.015993
 265	1.3200e-01	10.5976	20.978013	0.000180	1.799095	0.609550	0.014710
 266	1.3250e-01	10.6216	21.055841	0.000190	1.903693	0.644989	0.015566
 267	1.3300e-01	10.6810	21.133669	0.000190	1.903693	0.644989	0.015566
 268	1.3350e-01	10.7339	21.219621	0.000210	2.102431	0.712323	0.017191
 269	1.3400e-01	10.7708	21.303864	0.000206	2.060591	0.698147	0.016848
 270	1.3450e-01	10.8029	21.366724	0.000154	1.537598	0.520952	0.012572
 271	1.3500e-01	10.7965	21.456098	-0.000219	-2.186109	-0.740674	0.017875
 272	1.3550e-01	10.8494	21.529222	0.000179	1.788635	0.606006	0.014625
 273	1.3600e-01	10.9136	21.609616	0.000197	1.966452	0.666252	0.016079
 274	1.3650e-01	10.9569	21.701555	0.000225	2.248869	0.761937	0.018388
 275	1.3700e-01	11.0050	21.764844	0.000155	1.548058	0.524496	0.012658
 276	1.3750e-01	11.0307	21.841816	0.000188	1.882774	0.637901	0.015395
 277	1.3800e-01	11.0869	21.921782	0.000196	1.955993	0.662708	0.015993
 278	1.3850e-01	11.1125	22.012439	0.000222	2.217489	0.751306	0.018131
 279	1.3900e-01	11.1462	22.083852	0.000175	1.746796	0.591830	0.014283
 280	1.3950e-01	11.1927	22.161252	0.000189	1.893233	0.641445	0.015480
 281	1.4000e-01	11.2120	22.244212	0.000203	2.029212	0.687515	0.016592
 282	1.4050e-01	11.3002	22.313914	0.000170	1.704956	0.577655	0.013941
 283	1.4100e-01	11.3291	22.387038	0.000179	1.788635	0.606006	0.014625
 284	1.4150e-01	11.3403	22.467432	0.000197	1.966452	0.666252	0.016079
 285	1.4200e-01	11.4205	22.545687	0.000191	1.914153	0.648533	0.015651
 286	1.4250e-01	11.4270	22.643614	0.000240	2.395306	0.811552	0.019585
 287	1.4300e-01	11.4622	22.708185	0.000158	1.579438	0.535128	0.012914
 288	1.4350e-01	11.5152	22.783875	0.000185	1.851394	0.627269	0.015138
 289	1.4400e-01	11.5569	22.867689	0.000205	2.050131	0.694603	0.016763
 290	1.4450e-01	11.5761	22.943806	0.000186	1.861854	0.630813	0.015223
 291	1.4500e-01	11.6355	23.013509	0.000170	1.704956	0.577655	0.013941
 292	1.4550e-01	11.6740	23.085350	0.000176	1.757255	0.595374	0.014368
 293	1.4600e-01	11.7302	23.181994	0.000236	2.363927	0.800920	0.019329
 294	1.4650e-01	11.7526	23.265381	0.000204	2.039671	0.691059	0.016677
 295	1.4700e-01	11.7831	23.336366	0.000174	1.736336	0.588286	0.014197
 296	1.4750e-01	11.8152	23.418471	0.000201	2.008292	0.680428	0.016421
 297	1.4800e-01	11.9018	23.487318	0.000168	1.684036	0.570567	0.013770
 298	1.4850e-01	11.9066	23.576264	0.000218	2.175650	0.737130	0.017789
 299	1.4900e-01	11.9900	23.649816	0.000180	1.799095	0.609550	0.014710
 300	1.4950e-01	12.0221	23.737907	0.000215	2.154730	0.730042	0.017618
 301	1.5000e-01	12.0205	23.814024	-0.000186	-1.861854	-0.630813	0.015223
 302	1.5050e-01	12.0654	23.888003	0.000181	1.809555	0.613094	0.014796
 303	1.5100e-01	12.1216	23.968397	0.000197	1.966452	0.666252	0.016079
 304	1.5150e-01	12.1456	24.045369	0.000188	1.882774	0.637901	0.015395
 305	1.5200e-01	12.2034	24.135598	0.000221	2.207029	0.747762	0.018046
 306	1.5250e-01	12.2098	24.193755	0.000142	1.422540	0.481970	0.011631
 307	1.5300e-01	12.2692	24.277570	0.000205	2.050131	0.694603	0.016763
 308	1.5350e-01	12.3301	24.345990	0.000167	1.673577	0.567023	0.013684
 309	1.5400e-01	12.3622	24.411416	0.000160	1.600358	0.542216	0.013085
 310	1.5450e-01	12.4119	24.495659	0.000206	2.060591	0.698147	0.016848
 311	1.5500e-01	12.4280	24.558947	0.000155	1.548058	0.524496	0.012658
 312	1.5550e-01	12.4938	24.634637	0.000185	1.851394	0.627269	0.015138
 313	1.5600e-01	12.5162	24.710754	0.000186	1.861854	0.630813	0.015223
 314	1.5650e-01	12.5884	24.776608	0.000161	1.610817	0.545760	0.013171
 315	1.5700e-01	12.5740	24.862561	-0.000210	-2.102431	-0.712323	0.017191
 316	1.5750e-01	12.6574	24.934830	0.000177	1.767715	0.598918	0.014454
 317	1.5800e-01	12.6895	25.022065	0.000213	2.133810	0.722954	0.017447
 318	1.5850e-01	12.7376	25.091768	0.000170	1.704956	0.577655	0.013941
 319	1.5900e-01	12.7569	25.175583	0.000205	2.050131	0.694603	0.016763
 320	1.5950e-01	12.8146	25.249134	0.000180	1.799095	0.609550	0.014710
 321	1.6000e-01	12.8387	25.325679	0.000187	1.872314	0.634357	0.015309
 322	1.6050e-01	12.8836	25.410349	0.000207	2.071051	0.701691	0.016934
 323	1.6100e-01	12.9269	25.489032	0.000192	1.924613	0.652077	0.015737
 324	1.6150e-01	12.9237	25.568143	-0.000194	-1.935073	-0.655620	0.015822
 325	1.6200e-01	12.9879	25.629721	0.000151	1.506219	0.510321	0.012316
 326	1.6250e-01	13.0440	25.703272	0.000180	1.799095	0.609550	0.014710
 327	1.6300e-01	13.0408	25.774258	-0.000174	-1.736336	-0.588286	0.014197
 328	1.6350e-01	13.1050	25.852941	0.000192	1.924613	0.652077	0.015737
 329	1.6400e-01	13.1836	25.922644	0.000170	1.704956	0.577655	0.013941
 330	1.6450e-01	13.1884	26.006031	0.000204	2.039671	0.691059	0.016677
 331	1.6500e-01	13.2205	26.071030	0.000159	1.589898	0.538672	0.013000
 332	1.6550e-01	13.2943	26.158266	0.000213	2.133810	0.722954	0.017447
 333	1.6600e-01	13.3135	26.242080	0.000205	2.050131	0.694603	0.016763
 334	1.6650e-01	13.3536	26.307507	0.000160	1.600358	0.542216	0.013085
 335	1.6700e-01	13.3665	26.385335	0.000190	1.903693	0.644989	0.015566
 336	1.6750e-01	13.4194	26.472998	0.000214	2.144270	0.726498	0.017533
 337	1.6800e-01	13.4772	26.537142	0.000157	1.568978	0.531584	0.012829
 338	1.6850e-01	13.4836	26.619673	0.000202	2.018752	0.683972	0.016506
 339	1.6900e-01	13.5638	26.689804	0.000172	1.715416	0.581199	0.014026
 340	1.6950e-01	13.6103	26.763783	0.000181	1.809555	0.613094	0.014796
 341	1.7000e-01	13.6408	26.839045	0.000184	1.840934	0.623725	0.015052
 342	1.7050e-01	13.6665	26.917301	0.000191	1.914153	0.648533	0.015651
 343	1.7100e-01	13.7226	26.983582	0.000162	1.621277	0.549304	0.013256
 344	1.7150e-01	13.7386	27.048581	0.000159	1.589898	0.538672	0.013000
 345	1.7200e-01	13.7932	27.125982	0.000189	1.893233	0.641445	0.015480
 346	1.7250e-01	13.8542	27.197823	0.000176	1.757255	0.595374	0.014368
 347	1.7300e-01	13.8943	27.275651	0.000190	1.903693	0.644989	0.015566
 348	1.7350e-01	13.9151	27.348774	0.000179	1.788635	0.606006	0.014625
 349	1.7400e-01	13.9536	27.430023	0.000199	1.987372	0.673340	0.016250
 350	1.7450e-01	14.0082	27.504002	0.000181	1.809555	0.613094	0.014796
 351	1.7500e-01	14.0418	27.575843	0.000176	1.757255	0.595374	0.014368
 352	1.7550e-01	14.0595	27.646829	0.000174	1.736336	0.588286	0.014197
 353	1.7600e-01	14.1237	27.723802	0.000188	1.882774	0.637901	0.015395
 354	1.7650e-01	14.1558	27.795643	0.000176	1.757255	0.595374	0.014368
 355	1.7700e-01	14.1686	27.870050	0.000182	1.820015	0.616638	0.014881
 356	1.7750e-01	14.2600	27.965838	0.000234	2.343007	0.793832	0.019158
 357	1.7800e-01	14.2873	28.030837	0.000159	1.589898	0.538672	0.013000
 358	1.7850e-01	14.3178	28.100112	0.000169	1.694496	0.574111	0.013855
 359	1.7900e-01	14.3723	28.172808	0.000178	1.778175	0.602462	0.014539
 360	1.7950e-01	14.3916	28.251919	0.000194	1.935073	0.655620	0.015822
 361	1.8000e-01	14.4301	28.333595	0.000200	1.997832	0.676884	0.016335
 362	1.8050e-01	14.4638	28.409285	0.000185	1.851394	0.627269	0.015138
 363	1.8100e-01	14.4958	28.481126	0.000176	1.757255	0.595374	0.014368
 364	1.8150e-01	14.5632	28.540138	0.000144	1.443460	0.489057	0.011802
 365	1.8200e-01	14.5729	28.621815	0.000200	1.997832	0.676884	0.016335
 366	1.8250e-01	14.6322	28.693228	0.000175	1.746796	0.591830	0.014283
 367	1.8300e-01	14.6787	28.769346	0.000186	1.861854	0.630813	0.015223
 368	1.8350e-01	14.7124	28.844180	0.000183	1.830474	0.620182	0.014967
 369	1.8400e-01	14.7670	28.907469	0.000155	1.548058	0.524496	0.012658
 370	1.8450e-01	14.7894	28.977171	0.000170	1.704956	0.577655	0.013941
 371	1.8500e-01	14.8263	29.057137	0.000196	1.955993	0.662708	0.015993
 372	1.8550e-01	14.8793	29.130261	0.000179	1.788635	0.606006	0.014625
 373	1.8600e-01	14.9129	29.207234	0.000188	1.882774	0.637901	0.015395
 374	1.8650e-01	14.9434	29.285062	0.000190	1.903693	0.644989	0.015566
 375	1.8700e-01	14.9996	29.364600	0.000195	1.945533	0.659164	0.015908
 376	1.8750e-01	15.0108	29.439434	0.000183	1.830474	0.620182	0.014967
 377	1.8800e-01	15.1087	29.504006	0.000158	1.579438	0.535128	0.012914
 378	1.8850e-01	15.0958	29.571998	-0.000166	-1.663117	-0.563479	0.013598
 379	1.8900e-01	15.1456	29.664365	0.000226	2.259328	0.765481	0.018473
 380	1.8950e-01	15.1841	29.724233	0.000146	1.464380	0.496145	0.011974
 381	1.9000e-01	15.2258	29.798640	0.000182	1.820015	0.616638	0.014881
 382	1.9050e-01	15.2691	29.867060	0.000167	1.673577	0.567023	0.013684
 383	1.9100e-01	15.2915	29.950019	0.000203	2.029212	0.687515	0.016592
 384	1.9150e-01	15.3814	30.004327	0.000133	1.328401	0.450075	0.010862
 385	1.9200e-01	15.3974	30.082583	0.000191	1.914153	0.648533	0.015651
 386	1.9250e-01	15.4231	30.156990	0.000182	1.820015	0.616638	0.014881
 387	1.9300e-01	15.4889	30.227548	0.000173	1.725876	0.584743	0.014112
 388	1.9350e-01	15.5274	30.303665	0.000186	1.861854	0.630813	0.015223
 389	1.9400e-01	15.5466	30.364816	0.000150	1.495759	0.506777	0.012230
 390	1.9450e-01	15.6092	30.455472	0.000222	2.217489	0.751306	0.018131
 391	1.9500e-01	15.6541	30.523892	0.000167	1.673577	0.567023	0.013684
 392	1.9550e-01	15.6894	30.606424	0.000202	2.018752	0.683972	0.016506
 393	1.9600e-01	15.6910	30.671423	0.000159	1.589898	0.538672	0.013000
 394	1.9650e-01	15.7760	30.740270	0.000168	1.684036	0.570567	0.013770
 395	1.9700e-01	15.8001	30.818954	0.000192	1.924613	0.652077	0.015737
 396	1.9750e-01	15.8466	30.872407	0.000131	1.307482	0.442987	0.010691
 397	1.9800e-01	15.8643	30.943392	0.000174	1.736336	0.588286	0.014197
 398	1.9850e-01	15.9028	31.019510	0.000186	1.861854	0.630813	0.015223
 399	1.9900e-01	15.9782	31.078950	0.000145	1.453920	0.492601	0.011888
 400	1.9950e-01	15.9958	31.155495	0.000187	1.872314	0.634357	0.015309
 401	2.0000e-01	16.0118	31.244441	0.000218	2.175650	0.737130	0.017789
 402	2.0050e-01	16.0937	31.316709	0.000177	1.767715	0.598918	0.014454
 403	2.0100e-01	16.1177	31.384702	0.000166	1.663117	0.563479	0.013598
 404	2.0150e-01	16.1787	31.452694	0.000166	1.663117	0.563479	0.013598
 405	2.0200e-01	16.1723	31.530094	-0.000189	-1.893233	-0.641445	0.015480
 406	2.0250e-01	16.2380	31.598514	0.000167	1.673577	0.567023	0.013684
 407	2.0300e-01	16.2749	31.678053	0.000195	1.945533	0.659164	0.015908
 408	2.0350e-01	16.3070	31.756308	0.000191	1.914153	0.648533	0.015651
 409	2.0400e-01	16.3552	31.820880	0.000158	1.579438	0.535128	0.012914
 410	2.0450e-01	16.3921	31.895286	0.000182	1.820015	0.616638	0.014881
 411	2.0500e-01	16.4081	31.961568	0.000162	1.621277	0.549304	0.013256
 412	2.0550e-01	16.4851	32.035975	0.000182	1.820015	0.616638	0.014881
 413	2.0600e-01	16.5236	32.105678	0.000170	1.704956	0.577655	0.013941
 414	2.0650e-01	16.5573	32.162125	0.000138	1.380701	0.467794	0.011289
 415	2.0700e-01	16.5814	32.230117	0.000166	1.663117	0.563479	0.013598
 416	2.0750e-01	16.6487	32.298109	0.000166	1.663117	0.563479	0.013598
 417	2.0800e-01	16.6776	32.371661	0.000180	1.799095	0.609550	0.014710
 418	2.0850e-01	16.7145	32.454620	0.000203	2.029212	0.687515	0.016592
 419	2.0900e-01	16.7305	32.518336	0.000156	1.558518	0.528040	0.012743
 420	2.0950e-01	16.8059	32.578632	0.000147	1.474839	0.499689	0.012059
 421	2.1000e-01	16.8509	32.656887	0.000191	1.914153	0.648533	0.015651
 422	2.1050e-01	16.8717	32.727018	0.000172	1.715416	0.581199	0.014026
 423	2.1100e-01	16.8878	32.798003	0.000174	1.736336	0.588286	0.014197
 424	2.1150e-01	16.9471	32.876259	0.000191	1.914153	0.648533	0.015651
 425	2.1200e-01	17.0081	32.943824	0.000165	1.652657	0.559935	0.013513
 426	2.1250e-01	17.0241	33.018230	0.000182	1.820015	0.616638	0.014881
 427	2.1300e-01	17.0722	33.087933	0.000170	1.704956	0.577655	0.013941
 428	2.1350e-01	17.0963	33.164906	0.000188	1.882774	0.637901	0.015395
 429	2.1400e-01	17.1509	33.225201	0.000147	1.474839	0.499689	0.012059
 430	2.1450e-01	17.2166	33.302174	0.000188	1.882774	0.637901	0.015395
 431	2.1500e-01	17.2631	33.358620	0.000138	1.380701	0.467794	0.011289
 432	2.1550e-01	17.2599	33.451415	-0.000227	-2.269788	-0.769025	0.018559
 433	2.1600e-01	17.3065	33.518980	0.000165	1.652657	0.559935	0.013513
 434	2.1650e-01	17.3578	33.587400	0.000167	1.673577	0.567023	0.013684
 435	2.1700e-01	17.3963	33.642991	0.000136	1.359781	0.460706	0.011118
 436	2.1750e-01	17.4059	33.731082	0.000215	2.154730	0.730042	0.017618
 437	2.1800e-01	17.4910	33.790094	0.000144	1.443460	0.489057	0.011802
 438	2.1850e-01	17.5407	33.864073	0.000181	1.809555	0.613094	0.014796
 439	2.1900e-01	17.5439	33.932921	0.000168	1.684036	0.570567	0.013770
 440	2.1950e-01	17.5647	34.008610	0.000185	1.851394	0.627269	0.015138
 441	2.2000e-01	17.6177	34.078313	0.000170	1.704956	0.577655	0.013941
 442	2.2050e-01	17.6530	34.144168	0.000161	1.610817	0.545760	0.013171
 443	2.2100e-01	17.7380	34.224989	0.000198	1.976912	0.669796	0.016164
 444	2.2150e-01	17.7556	34.283146	0.000142	1.422540	0.481970	0.011631
 445	2.2200e-01	17.7845	34.372947	0.000220	2.196569	0.744218	0.017960
 446	2.2250e-01	17.8198	34.434098	0.000150	1.495759	0.506777	0.012230
 447	2.2300e-01	17.8792	34.510215	0.000186	1.861854	0.630813	0.015223
 448	2.2350e-01	17.9305	34.564523	0.000133	1.328401	0.450075	0.010862
 449	2.2400e-01	18.0027	34.628239	0.000156	1.558518	0.528040	0.012743
 450	2.2450e-01	17.9867	34.701791	-0.000180	-1.799095	-0.609550	0.014710
 451	2.2500e-01	18.0540	34.768928	0.000164	1.642197	0.556391	0.013427
 452	2.2550e-01	18.0685	34.855736	0.000212	2.123350	0.719411	0.017362
 453	2.2600e-01	18.0685	34.911327	-0.000136	-1.359781	-0.460706	0.011118
 454	2.2650e-01	18.1359	34.980603	0.000169	1.694496	0.574111	0.013855
 455	2.2700e-01	18.2161	35.044747	0.000157	1.568978	0.531584	0.012829
 456	2.2750e-01	18.2401	35.106325	0.000151	1.506219	0.510321	0.012316
 457	2.2800e-01	18.3123	35.178166	0.000176	1.757255	0.595374	0.014368
 458	2.2850e-01	18.3059	35.253000	-0.000183	-1.830474	-0.620182	0.014967
 459	2.2900e-01	18.3524	35.327407	0.000182	1.820015	0.616638	0.014881
 460	2.2950e-01	18.3957	35.399675	0.000177	1.767715	0.598918	0.014454
 461	2.3000e-01	18.4407	35.474938	0.000184	1.840934	0.623725	0.015052
 462	2.3050e-01	18.4679	35.542502	0.000165	1.652657	0.559935	0.013513
 463	2.3100e-01	18.4824	35.610067	0.000165	1.652657	0.559935	0.013513
 464	2.3150e-01	18.5754	35.682763	0.000178	1.778175	0.602462	0.014539
 465	2.3200e-01	18.6091	35.745624	0.000154	1.537598	0.520952	0.012572
 466	2.3250e-01	18.6396	35.815755	0.000172	1.715416	0.581199	0.014026
 467	2.3300e-01	18.6572	35.885885	0.000172	1.715416	0.581199	0.014026
 468	2.3350e-01	18.7326	35.954305	0.000167	1.673577	0.567023	0.013684
 469	2.3400e-01	18.7904	36.020160	0.000161	1.610817	0.545760	0.013171
 470	2.3450e-01	18.7936	36.081310	0.000150	1.495759	0.506777	0.012230
 471	2.3500e-01	18.8385	36.152724	0.000175	1.746796	0.591830	0.014283
 472	2.3550e-01	18.9027	36.213874	0.000150	1.495759	0.506777	0.012230
 473	2.3600e-01	18.9139	36.279728	0.000161	1.610817	0.545760	0.013171
 474	2.3650e-01	18.9604	36.343872	0.000157	1.568978	0.531584	0.012829
 475	2.3700e-01	19.0070	36.414858	0.000174	1.736336	0.588286	0.014197
 476	2.3750e-01	19.0134	36.482423	0.000165	1.652657	0.559935	0.013513
 477	2.3800e-01	19.0775	36.549560	0.000164	1.642197	0.556391	0.013427
 478	2.3850e-01	19.1160	36.626532	0.000188	1.882774	0.637901	0.015395
 479	2.3900e-01	19.1513	36.692387	0.000161	1.610817	0.545760	0.013171
 480	2.3950e-01	19.1962	36.748406	0.000137	1.370241	0.464250	0.011204
 481	2.4000e-01	19.2412	36.815543	0.000164	1.642197	0.556391	0.013427
 482	2.4050e-01	19.2749	36.881397	0.000161	1.610817	0.545760	0.013171
 483	2.4100e-01	19.3134	36.964356	0.000203	2.029212	0.687515	0.016592
 484	2.4150e-01	19.3438	37.025934	0.000151	1.506219	0.510321	0.012316
 485	2.4200e-01	19.4016	37.089223	0.000155	1.548058	0.524496	0.012658
 486	2.4250e-01	19.3791	37.160209	-0.000174	-1.736336	-0.588286	0.014197
 487	2.4300e-01	19.4786	37.227774	0.000165	1.652657	0.559935	0.013513
 488	2.4350e-01	19.5219	37.301753	0.000181	1.809555	0.613094	0.014796
 489	2.4400e-01	19.5380	37.370173	0.000167	1.673577	0.567023	0.013684
 490	2.4450e-01	19.5797	37.419777	0.000121	1.213343	0.411092	0.009921
 491	2.4500e-01	19.6262	37.492901	0.000179	1.788635	0.606006	0.014625
 492	2.4550e-01	19.6647	37.560894	0.000166	1.663117	0.563479	0.013598
 493	2.4600e-01	19.7240	37.625465	0.000158	1.579438	0.535128	0.012914
 494	2.4650e-01	19.7433	37.691747	0.000162	1.621277	0.549304	0.013256
 495	2.4700e-01	19.7962	37.757174	0.000160	1.600358	0.542216	0.013085
 496	2.4750e-01	19.8235	37.821745	0.000158	1.579438	0.535128	0.012914
 497	2.4800e-01	19.8700	37.893158	0.000175	1.746796	0.591830	0.014283
 498	2.4850e-01	19.9133	37.960723	0.000165	1.652657	0.559935	0.013513
 499	2.4900e-01	19.9599	38.038979	0.000191	1.914153	0.648533	0.015651
 500	2.4950e-01	20.0064	38.121083	0.000201	2.008292	0.680428	0.016421
 501	2.5000e-01	20.0353	38.186509	0.000160	1.600358	0.542216	0.013085
 502	2.5050e-01	19.9839	38.243811	-0.000140	-1.401620	-0.474882	0.011460
 503	2.5100e-01	19.9567	38.265620	-0.000053	-0.533453	-0.180739	0.004362
 504	2.5150e-01	19.8941	38.261771	0.000009	0.094139	0.031895	-0.000770
 505	2.5200e-01	19.8267	38.255357	0.000016	0.156898	0.053158	-0.001283
 506	2.5250e-01	19.8043	38.224996	0.000074	0.742650	0.251616	-0.006072
 507	2.5300e-01	19.7433	38.201904	0.000056	0.564832	0.191370	-0.004618
 508	2.5350e-01	19.7417	38.164701	0.000091	0.910007	0.308319	-0.007441
 509	2.5400e-01	19.6952	38.108254	0.000138	1.380701	0.467794	-0.011289
 510	2.5450e-01	19.6647	38.083024	0.000062	0.617131	0.209090	-0.005046
 511	2.5500e-01	19.6230	38.036413	0.000114	1.140124	0.386284	-0.009322
 512	2.5550e-01	19.6005	37.964572	0.000176	1.757255	0.595374	-0.014368
 513	2.5600e-01	19.5363	37.935066	0.000072	0.721730	0.244529	-0.005901
 514	2.5650e-01	19.4674	37.895724	0.000096	0.962307	0.326038	-0.007868
 515	2.5700e-01	19.4626	37.847830	0.000117	1.171504	0.396916	-0.009579
 516	2.5750e-01	19.4064	37.802502	0.000111	1.108744	0.375653	-0.009066
 517	2.5800e-01	19.4176	37.748621	-0.000132	-1.317942	-0.446531	-0.010776
 518	2.5850e-01	19.3374	37.702865	0.000112	1.119204	0.379197	-0.009151
 519	2.5900e-01	19.2957	37.648129	0.000134	1.338861	0.453618	-0.010947
 520	2.5950e-01	19.2700	37.602373	0.000112	1.119204	0.379197	-0.009151
 521	2.6000e-01	19.2123	37.563887	0.000094	0.941387	0.318950	-0.007697
 522	2.6050e-01	19.1690	37.506158	0.000141	1.412080	0.478426	-0.011546
 523	2.6100e-01	19.1353	37.465961	0.000098	0.983226	0.333126	-0.008039
 524	2.6150e-01	19.1000	37.408231	0.000141	1.412080	0.478426	-0.011546
 525	2.6200e-01	19.0535	37.349219	0.000144	1.443460	0.489057	-0.011802
 526	2.6250e-01	19.0198	37.306884	0.000104	1.035526	0.350846	-0.008467
 527	2.6300e-01	18.9636	37.261984	0.000110	1.098285	0.372109	-0.008980
 528	2.6350e-01	18.9412	37.208103	0.000132	1.317942	0.446531	-0.010776
 529	2.6400e-01	18.9203	37.147380	0.000149	1.485299	0.503233	-0.012145
 530	2.6450e-01	18.8369	37.095210	0.000128	1.276102	0.432355	-0.010434
 531	2.6500e-01	18.8177	37.044750	0.000123	1.234263	0.418180	-0.010092
 532	2.6550e-01	18.7631	36.991724	0.000130	1.297022	0.439443	-0.010605
 533	2.6600e-01	18.7326	36.933995	0.000141	1.412080	0.478426	-0.011546
 534	2.6650e-01	18.7246	36.887811	0.000113	1.129664	0.382741	-0.009237
 535	2.6700e-01	18.6652	36.835641	0.000128	1.276102	0.432355	-0.010434
 536	2.6750e-01	18.6139	36.788175	0.000116	1.161044	0.393372	-0.009493
 537	2.6800e-01	18.5834	36.737287	0.000124	1.244723	0.421723	-0.010177
 538	2.6850e-01	18.5417	36.678703	0.000143	1.433000	0.485514	-0.011717
 539	2.6900e-01	18.4952	36.629098	0.000121	1.213343	0.411092	-0.009921
 540	2.6950e-01	18.4278	36.573507	0.000136	1.359781	0.460706	-0.011118
 541	2.7000e-01	18.4262	36.530317	0.000106	1.056445	0.357933	-0.008638
 542	2.7050e-01	18.3749	36.474298	0.000137	1.370241	0.464250	-0.011204
 543	2.7100e-01	18.3300	36.430252	0.000108	1.077365	0.365021	-0.008809
 544	2.7150e-01	18.2754	36.377654	0.000129	1.286562	0.435899	-0.010520
 545	2.7200e-01	18.2465	36.324629	0.000130	1.297022	0.439443	-0.010605
 546	2.7250e-01	18.2225	36.261340	0.000155	1.548058	0.524496	-0.012658
 547	2.7300e-01	18.1888	36.204894	0.000138	1.380701	0.467794	-0.011289
 548	2.7350e-01	18.1342	36.166835	0.000093	0.930927	0.315407	-0.007612
 549	2.7400e-01	18.0861	36.097132	0.000170	1.704956	0.577655	-0.013941
 550	2.7450e-01	18.0845	36.046673	0.000123	1.234263	0.418180	-0.010092
 551	2.7500e-01	18.0284	35.990226	0.000138	1.380701	0.467794	-0.011289
 552	2.7550e-01	17.9674	35.944470	0.000112	1.119204	0.379197	-0.009151
 553	2.7600e-01	17.9081	35.888879	0.000136	1.359781	0.460706	-0.011118
 554	2.7650e-01	17.8936	35.834570	0.000133	1.328401	0.450075	-0.010862
 555	2.7700e-01	17.8728	35.771709	0.000154	1.537598	0.520952	-0.012572
 556	2.7750e-01	17.8038	35.714835	0.000139	1.391161	0.471338	-0.011375
 557	2.7800e-01	17.7909	35.666514	0.000118	1.181963	0.400460	-0.009664
 558	2.7850e-01	17.7380	35.629310	0.000091	0.910007	0.308319	-0.007441
 559	2.7900e-01	17.6931	35.565166	0.000157	1.568978	0.531584	-0.012829
 560	2.7950e-01	17.6514	35.514707	0.000123	1.234263	0.418180	-0.010092
 561	2.8000e-01	17.5984	35.458260	0.000138	1.380701	0.467794	-0.011289
 562	2.8050e-01	17.6000	35.389840	-0.000167	-1.673577	-0.567023	-0.013684
 563	2.8100e-01	17.5423	35.330400	0.000145	1.453920	0.492601	-0.011888
 564	2.8150e-01	17.5327	35.282079	0.000118	1.181963	0.400460	-0.009664
 565	2.8200e-01	17.4605	35.229481	0.000129	1.286562	0.435899	-0.010520
 566	2.8250e-01	17.4300	35.177310	0.000128	1.276102	0.432355	-0.010434
 567	2.8300e-01	17.3562	35.130699	0.000114	1.140124	0.386284	-0.009322
 568	2.8350e-01	17.3562	35.065273	0.000160	1.600358	0.542216	-0.013085
 569	2.8400e-01	17.3033	35.005405	0.000146	1.464380	0.496145	-0.011974
 570	2.8450e-01	17.2712	34.953235	0.000128	1.276102	0.432355	-0.010434
 571	2.8500e-01	17.2343	34.898071	0.000135	1.349321	0.457162	-0.011033
 572	2.8550e-01	17.1717	34.834355	0.000156	1.558518	0.528040	-0.012743
 573	2.8600e-01	17.1300	34.782612	0.000127	1.265642	0.428811	-0.010349
 574	2.8650e-01	17.1268	34.728304	0.000133	1.328401	0.450075	-0.010862
 575	2.8700e-01	17.0803	34.676134	0.000128	1.276102	0.432355	-0.010434
 576	2.8750e-01	17.0033	34.625246	0.000124	1.244723	0.421723	-0.010177
 577	2.8800e-01	16.9840	34.563668	0.000151	1.506219	0.510321	-0.012316
 578	2.8850e-01	16.9359	34.511925	0.000127	1.265642	0.428811	-0.010349
 579	2.8900e-01	16.8717	34.463604	0.000118	1.181963	0.400460	-0.009664
 580	2.8950e-01	16.8477	34.408440	0.000135	1.349321	0.457162	-0.011033
 581	2.9000e-01	16.8059	34.344296	0.000157	1.568978	0.531584	-0.012829
 582	2.9050e-01	16.7546	34.304527	0.000097	0.972766	0.329582	-0.007954
 583	2.9100e-01	16.7209	34.236107	0.000167	1.673577	0.567023	-0.013684
 584	2.9150e-01	16.7081	34.181371	0.000134	1.338861	0.453618	-0.010947
 585	2.9200e-01	16.6471	34.120221	0.000150	1.495759	0.506777	-0.012230
 586	2.9250e-01	16.6391	34.080024	0.000098	0.983226	0.333126	-0.008039
 587	2.9300e-01	16.5653	33.995782	0.000206	2.060591	0.698147	-0.016848
 588	2.9350e-01	16.5332	33.946177	0.000121	1.213343	0.411092	-0.009921
 589	2.9400e-01	16.4835	33.888020	0.000142	1.422540	0.481970	-0.011631
 590	2.9450e-01	16.4482	33.843119	0.000110	1.098285	0.372109	-0.008980
 591	2.9500e-01	16.4081	33.772561	0.000173	1.725876	0.584743	-0.014112
 592	2.9550e-01	16.3744	33.718253	0.000133	1.328401	0.450075	-0.010862
 593	2.9600e-01	16.3279	33.657102	0.000150	1.495759	0.506777	-0.012230
 594	2.9650e-01	16.2830	33.592531	0.000158	1.579438	0.535128	-0.012914
 595	2.9700e-01	16.2653	33.539933	0.000129	1.286562	0.435899	-0.010520
 596	2.9750e-01	16.2028	33.482631	0.000140	1.401620	0.474882	-0.011460
 597	2.9800e-01	16.1723	33.432599	0.000122	1.223803	0.414636	-0.010006
 598	2.9850e-01	16.1498	33.368883	0.000156	1.558518	0.528040	-0.012743
 599	2.9900e-01	16.0856	33.310298	0.000143	1.433000	0.485514	-0.011717
 600	2.9950e-01	16.0263	33.258128	0.000128	1.276102	0.432355	-0.010434
 601	3.0000e-01	16.0135	33.191846	0.000162	1.621277	0.549304	-0.013256
 602	3.0050e-01	15.9685	33.132834	0.000144	1.443460	0.489057	-0.011802
 603	3.0100e-01	15.9509	33.089644	0.000106	1.056445	0.357933	-0.008638
 604	3.0150e-01	15.9220	33.019941	0.000170	1.704956	0.577655	-0.013941
 605	3.0200e-01	15.8530	32.970764	0.000120	1.202883	0.407548	-0.009835
 606	3.0250e-01	15.8129	32.902772	0.000166	1.663117	0.563479	-0.013598
 607	3.0300e-01	15.7696	32.845042	0.000141	1.412080	0.478426	-0.011546
 608	3.0350e-01	15.7439	32.789023	0.000137	1.370241	0.464250	-0.011204
 609	3.0400e-01	15.6557	32.737708	0.000126	1.255182	0.425267	-0.010263
 610	3.0450e-01	15.6621	32.662018	-0.000185	-1.851394	-0.627269	-0.015138
 611	3.0500e-01	15.5899	32.608565	0.000131	1.307482	0.442987	-0.010691
 612	3.0550e-01	15.5546	32.554257	0.000133	1.328401	0.450075	-0.010862
 613	3.0600e-01	15.5274	32.499948	0.000133	1.328401	0.450075	-0.010862
 614	3.0650e-01	15.5097	32.434522	0.000160	1.600358	0.542216	-0.013085
 615	3.0700e-01	15.4552	32.376365	0.000142	1.422540	0.481970	-0.011631
 616	3.0750e-01	15.3974	32.313932	0.000153	1.527139	0.517409	-0.012487
 617	3.0800e-01	15.3702	32.254492	0.000145	1.453920	0.492601	-0.011888
 618	3.0850e-01	15.3300	32.193341	0.000150	1.495759	0.506777	-0.012230
 619	3.0900e-01	15.2675	32.131336	0.000152	1.516679	0.513865	-0.012401
 620	3.0950e-01	15.2675	32.070613	0.000149	1.485299	0.503233	-0.012145
 621	3.1000e-01	15.2434	32.008179	0.000153	1.527139	0.517409	-0.012487
 622	3.1050e-01	15.1504	31.966272	0.000103	1.025066	0.347302	-0.008381
 623	3.1100e-01	15.1119	31.906405	0.000146	1.464380	0.496145	-0.011974
 624	3.1150e-01	15.0782	31.841833	0.000158	1.579438	0.535128	-0.012914
 625	3.1200e-01	15.0365	31.777262	0.000158	1.579438	0.535128	-0.012914
 626	3.1250e-01	14.9932	31.728085	0.000120	1.202883	0.407548	-0.009835
 627	3.1300e-01	14.9771	31.669500	0.000143	1.433000	0.485514	-0.011717
 628	3.1350e-01	14.9354	31.605784	0.000156	1.558518	0.528040	-0.012743
 629	3.1400e-01	14.9113	31.543351	0.000153	1.527139	0.517409	-0.012487
 630	3.1450e-01	14.8744	31.479207	0.000157	1.568978	0.531584	-0.012829
 631	3.1500e-01	14.8167	31.427464	0.000127	1.265642	0.428811	-0.010349
 632	3.1550e-01	14.7734	31.359044	0.000167	1.673577	0.567023	-0.013684
 633	3.1600e-01	14.7381	31.294473	0.000158	1.579438	0.535128	-0.012914
 634	3.1650e-01	14.6755	31.228619	0.000161	1.610817	0.545760	-0.013171
 635	3.1700e-01	14.6290	31.162764	0.000161	1.610817	0.545760	-0.013171
 636	3.1750e-01	14.6274	31.105035	0.000141	1.412080	0.478426	-0.011546
 637	3.1800e-01	14.5584	31.039608	0.000160	1.600358	0.542216	-0.013085
 638	3.1850e-01	14.5488	30.979741	0.000146	1.464380	0.496145	-0.011974
 639	3.1900e-01	14.4975	30.920301	0.000145	1.453920	0.492601	-0.011888
 640	3.1950e-01	14.4670	30.848032	0.000177	1.767715	0.598918	-0.014454
 641	3.2000e-01	14.4381	30.786454	0.000151	1.506219	0.510321	-0.012316
 642	3.2050e-01	14.3771	30.737277	0.000120	1.202883	0.407548	-0.009835
 643	3.2100e-01	14.3579	30.673133	0.000157	1.568978	0.531584	-0.012829
 644	3.2150e-01	14.3033	30.609845	0.000155	1.548058	0.524496	-0.012658
 645	3.2200e-01	14.2295	30.557247	0.000129	1.286562	0.435899	-0.010520
 646	3.2250e-01	14.1943	30.502938	0.000133	1.328401	0.450075	-0.010862
 647	3.2300e-01	14.1894	30.439650	0.000155	1.548058	0.524496	-0.012658
 648	3.2350e-01	14.1221	30.363533	0.000186	1.861854	0.630813	-0.015223
 649	3.2400e-01	14.0996	30.306231	0.000140	1.401620	0.474882	-0.011460
 650	3.2450e-01	14.0547	30.230969	0.000184	1.840934	0.623725	-0.015052
 651	3.2500e-01	13.9761	30.194193	0.000090	0.899547	0.304775	-0.007355
 652	3.2550e-01	13.9713	30.128766	0.000160	1.600358	0.542216	-0.013085
 653	3.2600e-01	13.9055	30.057781	0.000174	1.736336	0.588286	-0.014197
 654	3.2650e-01	13.9087	30.001334	-0.000138	-1.380701	-0.467794	-0.011289
 655	3.2700e-01	13.8654	29.929493	0.000176	1.757255	0.595374	-0.014368
 656	3.2750e-01	13.7932	29.859790	0.000170	1.704956	0.577655	-0.013941
 657	3.2800e-01	13.7675	29.801633	0.000142	1.422540	0.481970	-0.011631
 658	3.2850e-01	13.7098	29.733213	0.000167	1.673577	0.567023	-0.013684
 659	3.2900e-01	13.7258	29.670780	-0.000153	-1.527139	-0.517409	-0.012487
 660	3.2950e-01	13.6376	29.604925	0.000161	1.610817	0.545760	-0.013171
 661	3.3000e-01	13.6183	29.550617	0.000133	1.328401	0.450075	-0.010862
 662	3.3050e-01	13.5574	29.484763	0.000161	1.610817	0.545760	-0.013171
 663	3.3100e-01	13.5253	29.426606	0.000142	1.422540	0.481970	-0.011631
 664	3.3150e-01	13.4948	29.360751	0.000161	1.610817	0.545760	-0.013171
 665	3.3200e-01	13.4659	29.298746	0.000152	1.516679	0.513865	-0.012401
 666	3.3250e-01	13.4178	29.231609	0.000164	1.642197	0.556391	-0.013427
 667	3.3300e-01	13.3793	29.169603	0.000152	1.516679	0.513865	-0.012401
 668	3.3350e-01	13.3167	29.106314	0.000155	1.548058	0.524496	-0.012658
 669	3.3400e-01	13.2782	29.040888	0.000160	1.600358	0.542216	-0.013085
 670	3.3450e-01	13.2381	28.980592	0.000147	1.474839	0.499689	-0.012059
 671	3.3500e-01	13.2076	28.919442	0.000150	1.495759	0.506777	-0.012230
 672	3.3550e-01	13.1820	28.866417	0.000130	1.297022	0.439443	-0.010605
 673	3.3600e-01	13.1451	28.795431	0.000174	1.736336	0.588286	-0.014197
 674	3.3650e-01	13.0841	28.733853	0.000151	1.506219	0.510321	-0.012316
 675	3.3700e-01	13.0344	28.675268	0.000143	1.433000	0.485514	-0.011717
 676	3.3750e-01	13.0071	28.609414	0.000161	1.610817	0.545760	-0.013171
 677	3.3800e-01	12.9590	28.543132	0.000162	1.621277	0.549304	-0.013256
 678	3.3850e-01	12.9253	28.496521	0.000114	1.140124	0.386284	-0.009322
 679	3.3900e-01	12.9333	28.411423	-0.000208	-2.081511	-0.705235	-0.017019
 680	3.3950e-01	12.8515	28.363102	0.000118	1.181963	0.400460	-0.009664
 681	3.4000e-01	12.8034	28.299385	0.000156	1.558518	0.528040	-0.012743
 682	3.4050e-01	12.7665	28.245077	0.000133	1.328401	0.450075	-0.010862
 683	3.4100e-01	12.7232	28.171953	0.000179	1.788635	0.606006	-0.014625
 684	3.4150e-01	12.6750	28.098402	0.000180	1.799095	0.609550	-0.014710
 685	3.4200e-01	12.6542	28.037251	0.000150	1.495759	0.506777	-0.012230
 686	3.4250e-01	12.5948	27.969259	0.000166	1.663117	0.563479	-0.013598
 687	3.4300e-01	12.5515	27.915806	0.000131	1.307482	0.442987	-0.010691
 688	3.4350e-01	12.5499	27.842254	0.000180	1.799095	0.609550	-0.014710
 689	3.4400e-01	12.4938	27.774689	0.000165	1.652657	0.559935	-0.013513
 690	3.4450e-01	12.4424	27.718670	0.000137	1.370241	0.464250	-0.011204
 691	3.4500e-01	12.4328	27.658803	0.000146	1.464380	0.496145	-0.011974
 692	3.4550e-01	12.3702	27.577982	0.000198	1.976912	0.669796	-0.016164
 693	3.4600e-01	12.3221	27.518114	0.000146	1.464380	0.496145	-0.011974
 694	3.4650e-01	12.2756	27.456536	0.000151	1.506219	0.510321	-0.012316
 695	3.4700e-01	12.2483	27.383840	0.000178	1.778175	0.602462	-0.014539
 696	3.4750e-01	12.2002	27.330814	0.000130	1.297022	0.439443	-0.010605
 697	3.4800e-01	12.1681	27.273085	0.000141	1.412080	0.478426	-0.011546
 698	3.4850e-01	12.1312	27.202527	0.000173	1.725876	0.584743	-0.014112
 699	3.4900e-01	12.0879	27.134962	0.000165	1.652657	0.559935	-0.013513
 700	3.4950e-01	12.0414	27.079371	0.000136	1.359781	0.460706	-0.011118
 701	3.5000e-01	12.0029	27.006674	0.000178	1.778175	0.602462	-0.014539
 702	3.5050e-01	11.9467	26.950655	0.000137	1.370241	0.464250	-0.011204
 703	3.5100e-01	11.9194	26.877959	0.000178	1.778175	0.602462	-0.014539
 704	3.5150e-01	11.8729	26.814243	0.000156	1.558518	0.528040	-0.012743
 705	3.5200e-01	11.8537	26.754375	0.000146	1.464380	0.496145	-0.011974
 706	3.5250e-01	11.8120	26.679969	0.000182	1.820015	0.616638	-0.014881
 707	3.5300e-01	11.7654	26.608127	0.000176	1.757255	0.595374	-0.014368
 708	3.5350e-01	11.7125	26.544839	0.000155	1.548058	0.524496	-0.012658
 709	3.5400e-01	11.7093	26.481550	0.000155	1.548058	0.524496	-0.012658
 710	3.5450e-01	11.6724	26.412275	0.000169	1.694496	0.574111	-0.013855
 711	3.5500e-01	11.6195	26.343000	0.000169	1.694496	0.574111	-0.013855
 712	3.5550e-01	11.5697	26.282277	0.000149	1.485299	0.503233	-0.012145
 713	3.5600e-01	11.5216	26.217278	0.000159	1.589898	0.538672	-0.013000
 714	3.5650e-01	11.4831	26.146720	0.000173	1.725876	0.584743	-0.014112
 715	3.5700e-01	11.4462	26.072741	0.000181	1.809555	0.613094	-0.014796
 716	3.5750e-01	11.4077	26.010307	0.000153	1.527139	0.517409	-0.012487
 717	3.5800e-01	11.3628	25.941460	0.000168	1.684036	0.570567	-0.013770
 718	3.5850e-01	11.3211	25.871329	0.000172	1.715416	0.581199	-0.014026
 719	3.5900e-01	11.2986	25.805902	0.000160	1.600358	0.542216	-0.013085
 720	3.5950e-01	11.2457	25.734061	0.000176	1.757255	0.595374	-0.014368
 721	3.6000e-01	11.2264	25.672483	0.000151	1.506219	0.510321	-0.012316
 722	3.6050e-01	11.1574	25.605346	0.000164	1.642197	0.556391	-0.013427
 723	3.6100e-01	11.1510	25.545051	0.000147	1.474839	0.499689	-0.012059
 724	3.6150e-01	11.0756	25.469361	0.000185	1.851394	0.627269	-0.015138
 725	3.6200e-01	11.0500	25.390678	0.000192	1.924613	0.652077	-0.015737
 726	3.6250e-01	10.9986	25.334232	0.000138	1.380701	0.467794	-0.011289
 727	3.6300e-01	10.9585	25.268377	0.000161	1.610817	0.545760	-0.013171
 728	3.6350e-01	10.9152	25.194398	0.000181	1.809555	0.613094	-0.014796
 729	3.6400e-01	10.8879	25.121274	0.000179	1.788635	0.606006	-0.014625
 730	3.6450e-01	10.8655	25.056703	0.000158	1.579438	0.535128	-0.012914
 731	3.6500e-01	10.8189	24.998118	0.000143	1.433000	0.485514	-0.011717
 732	3.6550e-01	10.7692	24.919008	0.000194	1.935073	0.655620	-0.015822
 733	3.6600e-01	10.7275	24.856147	0.000154	1.537598	0.520952	-0.012572
 734	3.6650e-01	10.6762	24.797134	0.000144	1.443460	0.489057	-0.011802
 735	3.6700e-01	10.6553	24.718451	0.000192	1.924613	0.652077	-0.015737
 736	3.6750e-01	10.5976	24.656446	0.000152	1.516679	0.513865	-0.012401
 737	3.6800e-01	10.5847	24.606414	0.000122	1.223803	0.414636	-0.010006
 738	3.6850e-01	10.5286	24.518323	0.000215	2.154730	0.730042	-0.017618
 739	3.6900e-01	10.5013	24.443488	0.000183	1.830474	0.620182	-0.014967
 740	3.6950e-01	10.4548	24.374641	0.000168	1.684036	0.570567	-0.013770
 741	3.7000e-01	10.4275	24.303227	0.000175	1.746796	0.591830	-0.014283
 742	3.7050e-01	10.3585	24.244215	0.000144	1.443460	0.489057	-0.011802
 743	3.7100e-01	10.3313	24.166387	0.000190	1.903693	0.644989	-0.015566
 744	3.7150e-01	10.2944	24.091125	0.000184	1.840934	0.623725	-0.015052
 745	3.7200e-01	10.2446	24.022705	0.000167	1.673577	0.567023	-0.013684
 746	3.7250e-01	10.2158	23.951292	0.000175	1.746796	0.591830	-0.014283
 747	3.7300e-01	10.1500	23.889286	0.000152	1.516679	0.513865	-0.012401
 748	3.7350e-01	10.1307	23.811458	0.000190	1.903693	0.644989	-0.015566
 749	3.7400e-01	10.0938	23.738762	0.000178	1.778175	0.602462	-0.014539
 750	3.7450e-01	10.0377	23.671625	0.000164	1.642197	0.556391	-0.013427
 751	3.7500e-01	9.9767	23.604915	0.000163	1.631737	0.552848	-0.013342
 752	3.7550e-01	9.9607	23.533502	0.000175	1.746796	0.591830	-0.014283
 753	3.7600e-01	9.9077	23.469358	0.000157	1.568978	0.531584	-0.012829
 754	3.7650e-01	9.8628	23.394524	0.000183	1.830474	0.620182	-0.014967
 755	3.7700e-01	9.8644	23.310709	-0.000205	-2.050131	-0.694603	-0.016763
 756	3.7750e-01	9.8051	23.240151	0.000173	1.725876	0.584743	-0.014112
 757	3.7800e-01	9.7569	23.179856	0.000147	1.474839	0.499689	-0.012059
 758	3.7850e-01	9.7313	23.084068	0.000234	2.343007	0.793832	-0.019158
 759	3.7900e-01	9.7072	23.017358	0.000163	1.631737	0.552848	-0.013342
 760	3.7950e-01	9.6703	22.953642	0.000156	1.558518	0.528040	-0.012743
 761	3.8000e-01	9.5949	22.874959	0.000192	1.924613	0.652077	-0.015737
 762	3.8050e-01	9.5628	22.800552	0.000182	1.820015	0.616638	-0.014881
 763	3.8100e-01	9.5147	22.742823	0.000141	1.412080	0.478426	-0.011546
 764	3.8150e-01	9.4842	22.661574	0.000199	1.987372	0.673340	-0.016250
 765	3.8200e-01	9.4505	22.582463	0.000194	1.935073	0.655620	-0.015822
 766	3.8250e-01	9.3848	22.533286	0.000120	1.202883	0.407548	-0.009835
 767	3.8300e-01	9.3848	22.458879	0.000182	1.820015	0.616638	-0.014881
 768	3.8350e-01	9.3174	22.381052	0.000190	1.903693	0.644989	-0.015566
 769	3.8400e-01	9.2837	22.305362	0.000185	1.851394	0.627269	-0.015138
 770	3.8450e-01	9.2404	22.237797	0.000165	1.652657	0.559935	-0.013513
 771	3.8500e-01	9.2163	22.164246	0.000180	1.799095	0.609550	-0.014710
 772	3.8550e-01	9.1698	22.087273	0.000188	1.882774	0.637901	-0.015395
 773	3.8600e-01	9.1393	22.020991	0.000162	1.621277	0.549304	-0.013256
 774	3.8650e-01	9.1072	21.943591	0.000189	1.893233	0.641445	-0.015480
 775	3.8700e-01	9.0399	21.872178	0.000175	1.746796	0.591830	-0.014283
 776	3.8750e-01	9.0238	21.791356	0.000198	1.976912	0.669796	-0.016164
 777	3.8800e-01	8.9580	21.731916	0.000145	1.453920	0.492601	-0.011888
 778	3.8850e-01	8.9083	21.658365	0.000180	1.799095	0.609550	-0.014710
 779	3.8900e-01	8.9243	21.573267	-0.000208	-2.081511	-0.705235	-0.017019
 780	3.8950e-01	8.8425	21.483466	0.000220	2.196569	0.744218	-0.017960
 781	3.9000e-01	8.7880	21.416329	0.000164	1.642197	0.556391	-0.013427
 782	3.9050e-01	8.7559	21.346626	0.000170	1.704956	0.577655	-0.013941
 783	3.9100e-01	8.7318	21.282055	0.000158	1.579438	0.535128	-0.012914
 784	3.9150e-01	8.6982	21.195247	0.000212	2.123350	0.719411	-0.017362
 785	3.9200e-01	8.6276	21.122123	0.000179	1.788635	0.606006	-0.014625
 786	3.9250e-01	8.6163	21.048144	0.000181	1.809555	0.613094	-0.014796
 787	3.9300e-01	8.5377	20.978013	0.000172	1.715416	0.581199	-0.014026
 788	3.9350e-01	8.5297	20.904462	0.000180	1.799095	0.609550	-0.014710
 789	3.9400e-01	8.4912	20.821502	0.000203	2.029212	0.687515	-0.016592
 790	3.9450e-01	8.4527	20.756076	0.000160	1.600358	0.542216	-0.013085
 791	3.9500e-01	8.3998	20.674399	0.000200	1.997832	0.676884	-0.016335
 792	3.9550e-01	8.3709	20.606834	0.000165	1.652657	0.559935	-0.013513
 793	3.9600e-01	8.3500	20.532428	0.000182	1.820015	0.616638	-0.014881
 794	3.9650e-01	8.3244	20.464863	0.000165	1.652657	0.559935	-0.013513
 795	3.9700e-01	8.2313	20.386607	0.000191	1.914153	0.648533	-0.015651
 796	3.9750e-01	8.2040	20.307924	0.000192	1.924613	0.652077	-0.015737
 797	3.9800e-01	8.1784	20.224110	0.000205	2.050131	0.694603	-0.016763
 798	3.9850e-01	8.1206	20.157400	0.000163	1.631737	0.552848	-0.013342
 799	3.9900e-01	8.0757	20.085559	0.000176	1.757255	0.595374	-0.014368
 800	3.9950e-01	8.0516	20.007731	0.000190	1.903693	0.644989	-0.015566
 801	4.0000e-01	7.9955	19.939311	0.000167	1.673577	0.567023	-0.013684
 802	4.0050e-01	7.9811	19.847799	0.000224	2.238409	0.758393	-0.018302
 803	4.0100e-01	7.9345	19.766551	0.000199	1.987372	0.673340	-0.016250
 804	4.0150e-01	7.8639	19.682736	0.000205	2.050131	0.694603	-0.016763
 805	4.0200e-01	7.8607	19.611323	0.000175	1.746796	0.591830	-0.014283
 806	4.0250e-01	7.8110	19.531357	0.000196	1.955993	0.662708	-0.015993
 807	4.0300e-01	7.7533	19.461226	0.000172	1.715416	0.581199	-0.014026
 808	4.0350e-01	7.7260	19.382971	0.000191	1.914153	0.648533	-0.015651
 809	4.0400e-01	7.6987	19.299584	0.000204	2.039671	0.691059	-0.016677
 810	4.0450e-01	7.6474	19.234585	0.000159	1.589898	0.538672	-0.013000
 811	4.0500e-01	7.6057	19.156329	0.000191	1.914153	0.648533	-0.015651
 812	4.0550e-01	7.5591	19.077219	0.000194	1.935073	0.655620	-0.015822
 813	4.0600e-01	7.5255	19.010937	0.000162	1.621277	0.549304	-0.013256
 814	4.0650e-01	7.4693	18.936102	0.000183	1.830474	0.620182	-0.014967
 815	4.0700e-01	7.4420	18.865972	0.000172	1.715416	0.581199	-0.014026
 816	4.0750e-01	7.4501	18.786861	-0.000194	-1.935073	-0.655620	-0.015822
 817	4.0800e-01	7.3714	18.715875	0.000174	1.736336	0.588286	-0.014197
 818	4.0850e-01	7.3121	18.634199	0.000200	1.997832	0.676884	-0.016335
 819	4.0900e-01	7.2736	18.558937	0.000184	1.840934	0.623725	-0.015052
 820	4.0950e-01	7.2399	18.484102	0.000183	1.830474	0.620182	-0.014967
 821	4.1000e-01	7.2174	18.402854	0.000199	1.987372	0.673340	-0.016250
 822	4.1050e-01	7.1645	18.329302	0.000180	1.799095	0.609550	-0.014710
 823	4.1100e-01	7.1340	18.248909	0.000197	1.966452	0.666252	-0.016079
 824	4.1150e-01	7.0907	18.175785	0.000179	1.788635	0.606006	-0.014625
 825	4.1200e-01	7.0474	18.090687	0.000208	2.081511	0.705235	-0.017019
 826	4.1250e-01	7.0057	18.018419	0.000177	1.767715	0.598918	-0.014454
 827	4.1300e-01	6.9624	17.944439	0.000181	1.809555	0.613094	-0.014796
 828	4.1350e-01	6.9175	17.855921	0.000217	2.165190	0.733586	-0.017704
 829	4.1400e-01	6.8709	17.781942	0.000181	1.809555	0.613094	-0.014796
 830	4.1450e-01	6.8613	17.698982	0.000203	2.029212	0.687515	-0.016592
 831	4.1500e-01	6.7955	17.610892	0.000215	2.154730	0.730042	-0.017618
 832	4.1550e-01	6.7602	17.539906	0.000174	1.736336	0.588286	-0.014197
 833	4.1600e-01	6.7137	17.460368	0.000195	1.945533	0.659164	-0.015908
 834	4.1650e-01	6.7025	17.385533	0.000183	1.830474	0.620182	-0.014967
 835	4.1700e-01	6.6399	17.307705	0.000190	1.903693	0.644989	-0.015566
 836	4.1750e-01	6.6030	17.227312	0.000197	1.966452	0.666252	-0.016079
 837	4.1800e-01	6.5533	17.147774	0.000195	1.945533	0.659164	-0.015908
 838	4.1850e-01	6.5276	17.061393	0.000211	2.112890	0.715867	-0.017276
 839	4.1900e-01	6.4859	16.984848	0.000187	1.872314	0.634357	-0.015309
 840	4.1950e-01	6.4618	16.898896	0.000210	2.102431	0.712323	-0.017191
 841	4.2000e-01	6.3881	16.815936	0.000203	2.029212	0.687515	-0.016592
 842	4.2050e-01	6.3704	16.733832	0.000201	2.008292	0.680428	-0.016421
 843	4.2100e-01	6.3415	16.662419	0.000175	1.746796	0.591830	-0.014283
 844	4.2150e-01	6.2950	16.573045	0.000219	2.186109	0.740674	-0.017875
 845	4.2200e-01	6.2260	16.499494	0.000180	1.799095	0.609550	-0.014710
 846	4.2250e-01	6.2180	16.419100	0.000197	1.966452	0.666252	-0.016079
 847	4.2300e-01	6.1522	16.341272	0.000190	1.903693	0.644989	-0.015566
 848	4.2350e-01	6.1410	16.244629	0.000236	2.363927	0.800920	-0.019329
 849	4.2400e-01	6.1169	16.171505	0.000179	1.788635	0.606006	-0.014625
 850	4.2450e-01	6.0415	16.091967	0.000195	1.945533	0.659164	-0.015908
 851	4.2500e-01	6.0207	16.015422	0.000187	1.872314	0.634357	-0.015309
 852	4.2550e-01	5.9870	15.940160	0.000184	1.840934	0.623725	-0.015052
 853	4.2600e-01	5.9308	15.855490	0.000207	2.071051	0.701691	-0.016934
 854	4.2650e-01	5.8891	15.776379	0.000194	1.935073	0.655620	-0.015822
 855	4.2700e-01	5.8426	15.696841	0.000195	1.945533	0.659164	-0.015908
 856	4.2750e-01	5.8153	15.617303	0.000195	1.945533	0.659164	-0.015908
 857	4.2800e-01	5.7448	15.538620	0.000192	1.924613	0.652077	-0.015737
 858	4.2850e-01	5.7223	15.432569	0.000259	2.594044	0.878886	-0.021210
 859	4.2900e-01	5.6774	15.368425	0.000157	1.568978	0.531584	-0.012829
 860	4.2950e-01	5.6373	15.282900	0.000209	2.091971	0.708779	-0.017105
 861	4.3000e-01	5.6148	15.212342	0.000173	1.725876	0.584743	-0.014112
 862	4.3050e-01	5.5539	15.133658	0.000192	1.924613	0.652077	-0.015737
 863	4.3100e-01	5.5154	15.042147	0.000224	2.238409	0.758393	-0.018302
 864	4.3150e-01	5.4720	14.952773	0.000219	2.186109	0.740674	-0.017875
 865	4.3200e-01	5.4480	14.861261	0.000224	2.238409	0.758393	-0.018302
 866	4.3250e-01	5.3870	14.784289	0.000188	1.882774	0.637901	-0.015395
 867	4.3300e-01	5.3613	14.705178	0.000194	1.935073	0.655620	-0.015822
 868	4.3350e-01	5.3373	14.621363	0.000205	2.050131	0.694603	-0.016763
 869	4.3400e-01	5.3212	14.540542	0.000198	1.976912	0.669796	-0.016164
 870	4.3450e-01	5.2539	14.460576	0.000196	1.955993	0.662708	-0.015993
 871	4.3500e-01	5.2330	14.375051	0.000209	2.091971	0.708779	-0.017105
 872	4.3550e-01	5.1624	14.297223	0.000190	1.903693	0.644989	-0.015566
 873	4.3600e-01	5.1127	14.207850	0.000219	2.186109	0.740674	-0.017875
 874	4.3650e-01	5.0918	14.127029	0.000198	1.976912	0.669796	-0.016164
 875	4.3700e-01	5.0373	14.046207	0.000198	1.976912	0.669796	-0.016164
 876	4.3750e-01	4.9667	13.955978	0.000221	2.207029	0.747762	-0.018046
 877	4.3800e-01	4.9844	13.877723	-0.000191	-1.914153	-0.648533	-0.015651
 878	4.3850e-01	4.9138	13.787494	0.000221	2.207029	0.747762	-0.018046
 879	4.3900e-01	4.8753	13.704535	0.000203	2.029212	0.687515	-0.016592
 880	4.3950e-01	4.8512	13.617727	0.000212	2.123350	0.719411	-0.017362
 881	4.4000e-01	4.8223	13.527926	0.000220	2.196569	0.744218	-0.017960
 882	4.4050e-01	4.7614	13.450525	0.000189	1.893233	0.641445	-0.015480
 883	4.4100e-01	4.7164	13.369704	0.000198	1.976912	0.669796	-0.016164
 884	4.4150e-01	4.7084	13.273061	0.000236	2.363927	0.800920	-0.019329
 885	4.4200e-01	4.6731	13.195233	0.000190	1.903693	0.644989	-0.015566
 886	4.4250e-01	4.6025	13.104577	0.000222	2.217489	0.751306	-0.018131
 887	4.4300e-01	4.5913	13.037867	0.000163	1.631737	0.552848	-0.013342
 888	4.4350e-01	4.5191	12.966454	0.000175	1.746796	0.591830	-0.014283
 889	4.4400e-01	4.4886	12.859975	0.000260	2.604504	0.882430	-0.021296
 890	4.4450e-01	4.4405	12.780437	0.000195	1.945533	0.659164	-0.015908
 891	4.4500e-01	4.3908	12.694912	0.000209	2.091971	0.708779	-0.017105
 892	4.4550e-01	4.3394	12.602972	0.000225	2.248869	0.761937	-0.018388
 893	4.4600e-01	4.3314	12.503763	0.000243	2.426686	0.822183	-0.019842
 894	4.4650e-01	4.2769	12.425508	0.000191	1.914153	0.648533	-0.015651
 895	4.4700e-01	4.2480	12.344686	0.000198	1.976912	0.669796	-0.016164
 896	4.4750e-01	4.1790	12.261727	0.000203	2.029212	0.687515	-0.016592
 897	4.4800e-01	4.1903	12.175774	-0.000210	-2.102431	-0.712323	-0.017191
 898	4.4850e-01	4.1309	12.095381	0.000197	1.966452	0.666252	-0.016079
 899	4.4900e-01	4.1277	12.010283	0.000208	2.081511	0.705235	-0.017019
 900	4.4950e-01	4.0635	11.918344	0.000225	2.248869	0.761937	-0.018388
 901	4.5000e-01	4.0074	11.856338	0.000152	1.516679	0.513865	-0.012401
 902	4.5050e-01	3.9448	11.757129	0.000243	2.426686	0.822183	-0.019842
 903	4.5100e-01	3.9031	11.669894	0.000213	2.133810	0.722954	-0.017447
 904	4.5150e-01	3.8630	11.585224	0.000207	2.071051	0.701691	-0.016934
 905	4.5200e-01	3.8293	11.488153	0.000237	2.374387	0.804464	-0.019414
 906	4.5250e-01	3.8165	11.401345	0.000212	2.123350	0.719411	-0.017362
 907	4.5300e-01	3.7748	11.308550	0.000227	2.269788	0.769025	-0.018559
 908	4.5350e-01	3.7170	11.202072	0.000260	2.604504	0.882430	-0.021296
 909	4.5400e-01	3.6801	11.112698	0.000219	2.186109	0.740674	-0.017875
 910	4.5450e-01	3.6384	11.027173	0.000209	2.091971	0.708779	-0.017105
 911	4.5500e-01	3.5887	10.936944	0.000221	2.207029	0.747762	-0.018046
 912	4.5550e-01	3.5646	10.860399	0.000187	1.872314	0.634357	-0.015309
 913	4.5600e-01	3.5101	10.765894	0.000231	2.311628	0.783201	-0.018901
 914	4.5650e-01	3.4860	10.680796	0.000208	2.081511	0.705235	-0.017019
 915	4.5700e-01	3.4427	10.594844	0.000210	2.102431	0.712323	-0.017191
 916	4.5750e-01	3.4010	10.501621	0.000228	2.280248	0.772569	-0.018644
 917	4.5800e-01	3.3897	10.423794	0.000190	1.903693	0.644989	-0.015566
 918	4.5850e-01	3.3496	10.334848	0.000218	2.175650	0.737130	-0.017789
 919	4.5900e-01	3.2646	10.249750	0.000208	2.081511	0.705235	-0.017019
 920	4.5950e-01	3.2582	10.156956	0.000227	2.269788	0.769025	-0.018559
 921	4.6000e-01	3.2373	10.067154	0.000220	2.196569	0.744218	-0.017960
 922	4.6050e-01	3.1603	9.977781	0.000219	2.186109	0.740674	-0.017875
 923	4.6100e-01	3.1042	9.887552	0.000221	2.207029	0.747762	-0.018046
 924	4.6150e-01	3.0978	9.805020	0.000202	2.018752	0.683972	-0.016506
 925	4.6200e-01	3.0400	9.724626	0.000197	1.966452	0.666252	-0.016079
 926	4.6250e-01	2.9662	9.632687	0.000225	2.248869	0.761937	-0.018388
 927	4.6300e-01	2.9518	9.584793	0.000117	1.171504	0.396916	-0.009579
 928	4.6350e-01	2.8908	9.454795	0.000318	3.179795	1.077344	-0.026000
 929	4.6400e-01	2.8972	9.369697	-0.000208	-2.081511	-0.705235	-0.017019
 930	4.6450e-01	2.8587	9.276475	0.000228	2.280248	0.772569	-0.018644
 931	4.6500e-01	2.8138	9.193943	0.000202	2.018752	0.683972	-0.016506
 932	4.6550e-01	2.7529	9.110129	0.000205	2.050131	0.694603	-0.016763
 933	4.6600e-01	2.7336	9.011347	0.000242	2.416226	0.818640	-0.019756
 934	4.6650e-01	2.6743	8.924967	0.000211	2.112890	0.715867	-0.017276
 935	4.6700e-01	2.6422	8.836876	0.000215	2.154730	0.730042	-0.017618
 936	4.6750e-01	2.5973	8.761614	0.000184	1.840934	0.623725	-0.015052
 937	4.6800e-01	2.5539	8.663260	0.000241	2.405766	0.815096	-0.019671
 938	4.6850e-01	2.5347	8.573887	0.000219	2.186109	0.740674	-0.017875
 939	4.6900e-01	2.5010	8.497342	0.000187	1.872314	0.634357	-0.015309
 940	4.6950e-01	2.4497	8.391291	0.000259	2.594044	0.878886	-0.021210
 941	4.7000e-01	2.4176	8.304483	0.000212	2.123350	0.719411	-0.017362
 942	4.7050e-01	2.3855	8.226227	0.000191	1.914153	0.648533	-0.015651
 943	4.7100e-01	2.3293	8.130012	0.000235	2.353467	0.797376	-0.019243
 944	4.7150e-01	2.3053	8.043631	0.000211	2.112890	0.715867	-0.017276
 945	4.7200e-01	2.2219	7.949981	0.000229	2.290708	0.776113	-0.018730
 946	4.7250e-01	2.2154	7.854621	0.000233	2.332547	0.790288	-0.019072
 947	4.7300e-01	2.1593	7.778931	0.000185	1.851394	0.627269	-0.015138
 948	4.7350e-01	2.1288	7.672453	0.000260	2.604504	0.882430	-0.021296
 949	4.7400e-01	2.1144	7.586072	0.000211	2.112890	0.715867	-0.017276
 950	4.7450e-01	2.0326	7.497554	0.000217	2.165190	0.733586	-0.017704
 951	4.7500e-01	2.0294	7.402194	0.000233	2.332547	0.790288	-0.019072
 952	4.7550e-01	1.9475	7.302129	0.000245	2.447606	0.829271	-0.020013
 953	4.7600e-01	1.8962	7.210190	0.000225	2.248869	0.761937	-0.018388
 954	4.7650e-01	1.8545	7.130651	0.000195	1.945533	0.659164	-0.015908
 955	4.7700e-01	1.8465	7.023745	0.000261	2.614963	0.885974	-0.021381
 956	4.7750e-01	1.7967	6.933516	0.000221	2.207029	0.747762	-0.018046
 957	4.7800e-01	1.7502	6.842432	0.000223	2.227949	0.754849	-0.018217
 958	4.7850e-01	1.6973	6.749637	0.000227	2.269788	0.769025	-0.018559
 959	4.7900e-01	1.6636	6.656415	0.000228	2.280248	0.772569	-0.018644
 960	4.7950e-01	1.6219	6.561910	0.000231	2.311628	0.783201	-0.018901
 961	4.8000e-01	1.5946	6.469543	0.000226	2.259328	0.765481	-0.018473
 962	4.8050e-01	1.5641	6.378031	0.000224	2.238409	0.758393	-0.018302
 963	4.8100e-01	1.5369	6.283098	0.000232	2.322087	0.786745	-0.018987
 964	4.8150e-01	1.4823	6.199284	0.000205	2.050131	0.694603	-0.016763
 965	4.8200e-01	1.4422	6.096226	0.000252	2.520825	0.854079	-0.020612
 966	4.8250e-01	1.3909	6.003431	0.000227	2.269788	0.769025	-0.018559
 967	4.8300e-01	1.3379	5.905077	0.000241	2.405766	0.815096	-0.019671
 968	4.8350e-01	1.3235	5.816131	0.000218	2.175650	0.737130	-0.017789
 969	4.8400e-01	1.3042	5.710080	0.000259	2.594044	0.878886	-0.021210
 970	4.8450e-01	1.2112	5.618141	0.000225	2.248869	0.761937	-0.018388
 971	4.8500e-01	1.2048	5.523636	0.000231	2.311628	0.783201	-0.018901
 972	4.8550e-01	1.1743	5.424854	0.000242	2.416226	0.818640	-0.019756
 973	4.8600e-01	1.1567	5.322224	0.000251	2.510365	0.850535	-0.020526
 974	4.8650e-01	1.0925	5.229857	0.000226	2.259328	0.765481	-0.018473
 975	4.8700e-01	1.0395	5.131076	0.000242	2.416226	0.818640	-0.019756
 976	4.8750e-01	0.9930	5.046406	0.000207	2.071051	0.701691	-0.016934
 977	4.8800e-01	0.9706	4.946342	0.000245	2.447606	0.829271	-0.020013
 978	4.8850e-01	0.9449	4.851836	0.000231	2.311628	0.783201	-0.018901
 979	4.8900e-01	0.8743	4.747923	0.000254	2.541744	0.861166	-0.020783
 980	4.8950e-01	0.8711	4.653846	0.000230	2.301168	0.779657	-0.018816
 981	4.9000e-01	0.7732	4.560196	0.000229	2.290708	0.776113	-0.018730
 982	4.9050e-01	0.7460	4.466118	0.000230	2.301168	0.779657	-0.018816
 983	4.9100e-01	0.7171	4.361350	0.000256	2.562664	0.868254	-0.020954
 984	4.9150e-01	0.6674	4.274970	0.000211	2.112890	0.715867	-0.017276
 985	4.9200e-01	0.6417	4.173623	0.000248	2.478985	0.839903	-0.020269
 986	4.9250e-01	0.6481	4.082111	-0.000224	-2.238409	-0.758393	-0.018302
 987	4.9300e-01	0.5567	3.979481	0.000251	2.510365	0.850535	-0.020526
 988	4.9350e-01	0.5230	3.892245	0.000213	2.133810	0.722954	-0.017447
 989	4.9400e-01	0.5037	3.798168	0.000230	2.301168	0.779657	-0.018816
 990	4.9450e-01	0.4299	3.698959	0.000243	2.426686	0.822183	-0.019842
 991	4.9500e-01	0.4267	3.601032	0.000240	2.395306	0.811552	-0.019585
 992	4.9550e-01	0.3449	3.504817	0.000235	2.353467	0.797376	-0.019243
 993	4.9600e-01	0.2839	3.409456	0.000233	2.332547	0.790288	-0.019072
 994	4.9650e-01	0.2647	3.316662	0.000227	2.269788	0.769025	-0.018559
 995	4.9700e-01	0.2230	3.218735	0.000240	2.395306	0.811552	-0.019585
 996	4.9750e-01	0.2021	3.140480	0.000191	1.914153	0.648533	-0.015651
 997	4.9800e-01	0.1717	3.021173	0.000292	2.918299	0.988747	-0.023861
 998	4.9850e-01	0.1139	2.928378	0.000227	2.269788	0.769025	-0.018559
 999	4.9900e-01	0.0642	2.832590	0.000234	2.343007	0.793832	-0.019158
1000	4.9950e-01	0.0401	2.726966	0.000258	2.583584	0.875342	-0.021125
1001	5.0000e-01	0.0497	2.625619	-0.000248	-2.478985	-0.839903	-0.020269
1002	5.0050e-01	-0.0209	2.541805	0.000205	2.050131	0.694603	-0.016763
1003	5.0100e-01	-0.0738	2.448155	0.000229	2.290708	0.776113	-0.018730
1004	5.0150e-01	-0.1139	2.346808	0.000248	2.478985	0.839903	-0.020269
1005	5.0200e-01	-0.1444	2.248026	0.000242	2.416226	0.818640	-0.019756
1006	5.0250e-01	-0.1717	2.156942	0.000223	2.227949	0.754849	-0.018217
1007	5.0300e-01	-0.2118	2.047897	0.000267	2.667263	0.903693	-0.021809
1008	5.0350e-01	-0.2535	1.958951	0.000218	2.175650	0.737130	-0.017789
1009	5.0400e-01	-0.2984	1.850762	0.000265	2.646343	0.896605	-0.021638
1010	5.0450e-01	-0.3497	1.754119	0.000236	2.363927	0.800920	-0.019329
1011	5.0500e-01	-0.3690	1.658331	0.000234	2.343007	0.793832	-0.019158
1012	5.0550e-01	-0.4235	1.556556	0.000249	2.489445	0.843447	-0.020355
1013	5.0600e-01	-0.4893	1.471459	0.000208	2.081511	0.705235	-0.017019
1014	5.0650e-01	-0.5085	1.361986	0.000268	2.677723	0.907237	-0.021894
1015	5.0700e-01	-0.5743	1.258501	0.000253	2.531285	0.857622	-0.020697
1016	5.0750e-01	-0.5904	1.170410	0.000215	2.154730	0.730042	-0.017618
1017	5.0800e-01	-0.6096	1.062649	0.000264	2.635883	0.893061	-0.021552
1018	5.0850e-01	-0.6625	0.973703	0.000218	2.175650	0.737130	-0.017789
1019	5.0900e-01	-0.6818	0.868935	0.000256	2.562664	0.868254	-0.020954
1020	5.0950e-01	-0.7219	0.772719	0.000235	2.353467	0.797376	-0.019243
1021	5.1000e-01	-0.7797	0.669661	0.000252	2.520825	0.854079	-0.020612
1022	5.1050e-01	-0.8246	0.560617	0.000267	2.667263	0.903693	-0.021809
1023	5.1100e-01	-0.8791	0.453710	0.000261	2.614963	0.885974	-0.021381
1024	5.1150e-01	-0.9112	0.358350	0.000233	2.332547	0.790288	-0.019072
1025	5.1200e-01	-0.9497	0.242464	0.000283	2.834620	0.960395	-0.023177
1026	5.1250e-01	-1.0123	0.134702	0.000264	2.635883	0.893061	-0.021552
1027	5.1300e-01	-1.0187	0.027368	0.000263	2.625423	0.889517	-0.021467
1028	5.1350e-01	-1.0748	-0.079111	0.000260	2.604504	0.882430	-0.021296
1029	5.1400e-01	-1.1101	-0.180885	0.000249	2.489445	0.843447	-0.020355
1030	5.1450e-01	-1.1727	-0.283516	0.000251	2.510365	0.850535	-0.020526
1031	5.1500e-01	-1.1823	-0.370323	0.000212	2.123350	0.719411	-0.017362
1032	5.1550e-01	-1.2288	-0.464829	0.000231	2.311628	0.783201	-0.018901
1033	5.1600e-01	-1.2673	-0.574301	0.000268	2.677723	0.907237	-0.021894
1034	5.1650e-01	-1.3299	-0.670089	0.000234	2.343007	0.793832	-0.019158
1035	5.1700e-01	-1.3636	-0.757752	0.000214	2.144270	0.726498	-0.017533
1036	5.1750e-01	-1.3812	-0.859099	0.000248	2.478985	0.839903	-0.020269
1037	5.1800e-01	-1.4101	-0.954032	0.000232	2.322087	0.786745	-0.018987
1038	5.1850e-01	-1.4631	-1.034853	0.000198	1.976912	0.669796	-0.016164
1039	5.1900e-01	-1.5160	-1.136200	0.000248	2.478985	0.839903	-0.020269
1040	5.1950e-01	-1.5256	-1.231133	0.000232	2.322087	0.786745	-0.018987
1041	5.2000e-01	-1.6026	-1.317941	0.000212	2.123350	0.719411	-0.017362
1042	5.2050e-01	-1.6090	-1.412019	0.000230	2.301168	0.779657	-0.018816
1043	5.2100e-01	-1.6844	-1.516359	0.000255	2.552204	0.864710	-0.020868
1044	5.2150e-01	-1.7213	-1.603167	0.000212	2.123350	0.719411	-0.017362
1045	5.2200e-01	-1.7566	-1.708363	0.000257	2.573124	0.871798	-0.021039
1046	5.2250e-01	-1.7871	-1.800730	0.000226	2.259328	0.765481	-0.018473
1047	5.2300e-01	-1.8320	-1.888821	0.000215	2.154730	0.730042	-0.017618
1048	5.2350e-01	-1.9267	-1.986747	0.000240	2.395306	0.811552	-0.019585
1049	5.2400e-01	-1.9090	-2.088522	-0.000249	-2.489445	-0.843447	-0.020355
1050	5.2450e-01	-1.8930	-2.197994	-0.000268	-2.677723	-0.907237	-0.021894
1051	5.2500e-01	-1.9844	-2.287795	0.000220	2.196569	0.744218	-0.017960
1052	5.2550e-01	-2.0261	-2.384011	0.000235	2.353467	0.797376	-0.019243
1053	5.2600e-01	-2.0630	-2.486213	0.000250	2.499905	0.846991	-0.020440
1054	5.2650e-01	-2.1240	-2.589271	0.000252	2.520825	0.854079	-0.020612
1055	5.2700e-01	-2.1481	-2.686342	0.000237	2.374387	0.804464	-0.019414
1056	5.2750e-01	-2.1882	-2.791538	0.000257	2.573124	0.871798	-0.021039
1057	5.2800e-01	-2.2299	-2.884760	0.000228	2.280248	0.772569	-0.018644
1058	5.2850e-01	-2.2539	-2.987390	0.000251	2.510365	0.850535	-0.020526
1059	5.2900e-01	-2.3037	-3.082751	0.000233	2.332547	0.790288	-0.019072
1060	5.2950e-01	-2.3438	-3.195216	0.000275	2.750941	0.932044	-0.022493
1061	5.3000e-01	-2.3919	-3.273899	0.000192	1.924613	0.652077	-0.015737
1062	5.3050e-01	-2.4481	-3.369687	0.000234	2.343007	0.793832	-0.019158
1063	5.3100e-01	-2.4657	-3.465475	0.000234	2.343007	0.793832	-0.019158
1064	5.3150e-01	-2.4866	-3.572382	0.000261	2.614963	0.885974	-0.021381
1065	5.3200e-01	-2.5604	-3.660472	0.000215	2.154730	0.730042	-0.017618
1066	5.3250e-01	-2.6181	-3.762247	0.000249	2.489445	0.843447	-0.020355
1067	5.3300e-01	-2.6181	-3.844779	0.000202	2.018752	0.683972	-0.016506
1068	5.3350e-01	-2.6823	-3.939284	0.000231	2.311628	0.783201	-0.018901
1069	5.3400e-01	-2.6903	-4.043625	0.000255	2.552204	0.864710	-0.020868
1070	5.3450e-01	-2.7753	-4.137702	0.000230	2.301168	0.779657	-0.018816
1071	5.3500e-01	-2.7866	-4.239477	0.000249	2.489445	0.843447	-0.020355
1072	5.3550e-01	-2.8251	-4.334410	0.000232	2.322087	0.786745	-0.018987
1073	5.3600e-01	-2.8668	-4.423783	0.000219	2.186109	0.740674	-0.017875
1074	5.3650e-01	-2.9053	-4.533683	0.000269	2.688182	0.910781	-0.021980
1075	5.3700e-01	-2.9759	-4.626478	0.000227	2.269788	0.769025	-0.018559
1076	5.3750e-01	-3.0015	-4.726542	0.000245	2.447606	0.829271	-0.020013
1077	5.3800e-01	-3.0272	-4.807363	0.000198	1.976912	0.669796	-0.016164
1078	5.3850e-01	-3.0529	-4.903579	0.000235	2.353467	0.797376	-0.019243
1079	5.3900e-01	-3.0994	-4.988676	0.000208	2.081511	0.705235	-0.017019
1080	5.3950e-01	-3.1379	-5.087030	0.000241	2.405766	0.815096	-0.019671
1081	5.4000e-01	-3.1876	-5.191798	0.000256	2.562664	0.868254	-0.020954
1082	5.4050e-01	-3.2053	-5.283310	0.000224	2.238409	0.758393	-0.018302
1083	5.4100e-01	-3.2855	-5.384657	0.000248	2.478985	0.839903	-0.020269
1084	5.4150e-01	-3.3304	-5.482156	0.000238	2.384847	0.808008	-0.019500
1085	5.4200e-01	-3.3480	-5.574095	0.000225	2.248869	0.761937	-0.018388
1086	5.4250e-01	-3.4090	-5.671166	0.000237	2.374387	0.804464	-0.019414
1087	5.4300e-01	-3.4427	-5.755409	0.000206	2.060591	0.698147	-0.016848
1088	5.4350e-01	-3.4603	-5.844782	0.000219	2.186109	0.740674	-0.017875
1089	5.4400e-01	-3.5181	-5.940998	0.000235	2.353467	0.797376	-0.019243
1090	5.4450e-01	-3.5454	-6.036358	0.000233	2.332547	0.790288	-0.019072
1091	5.4500e-01	-3.5999	-6.122311	0.000210	2.102431	0.712323	-0.017191
1092	5.4550e-01	-3.6352	-6.215106	0.000227	2.269788	0.769025	-0.018559
1093	5.4600e-01	-3.6480	-6.306190	0.000223	2.227949	0.754849	-0.018217
1094	5.4650e-01	-3.7330	-6.394281	0.000215	2.154730	0.730042	-0.017618
1095	5.4700e-01	-3.7619	-6.487075	0.000227	2.269788	0.769025	-0.018559
1096	5.4750e-01	-3.7908	-6.575594	0.000217	2.165190	0.733586	-0.017704
1097	5.4800e-01	-3.8357	-6.654705	0.000194	1.935073	0.655620	-0.015822
1098	5.4850e-01	-3.8758	-6.759900	0.000257	2.573124	0.871798	-0.021039
1099	5.4900e-01	-3.9207	-6.841577	0.000200	1.997832	0.676884	-0.016335
1100	5.4950e-01	-3.9336	-6.938220	0.000236	2.363927	0.800920	-0.019329
1101	5.5000e-01	-3.9929	-7.023318	0.000208	2.081511	0.705235	-0.017019
1102	5.5050e-01	-3.9961	-7.122099	0.000242	2.416226	0.818640	-0.019756
1103	5.5100e-01	-4.0651	-7.200354	0.000191	1.914153	0.648533	-0.015651
1104	5.5150e-01	-4.1309	-7.282031	0.000200	1.997832	0.676884	-0.016335
1105	5.5200e-01	-4.1149	-7.377819	-0.000234	-2.343007	-0.793832	-0.019158
1106	5.5250e-01	-4.1742	-7.468903	0.000223	2.227949	0.754849	-0.018217
1107	5.5300e-01	-4.2304	-7.545876	0.000188	1.882774	0.637901	-0.015395
1108	5.5350e-01	-4.2576	-7.636960	0.000223	2.227949	0.754849	-0.018217
1109	5.5400e-01	-4.2945	-7.728899	0.000225	2.248869	0.761937	-0.018388
1110	5.5450e-01	-4.3507	-7.812286	0.000204	2.039671	0.691059	-0.016677
1111	5.5500e-01	-4.3763	-7.899522	0.000213	2.133810	0.722954	-0.017447
1112	5.5550e-01	-4.4566	-7.986330	0.000212	2.123350	0.719411	-0.017362
1113	5.5600e-01	-4.4598	-8.074420	0.000215	2.154730	0.730042	-0.017618
1114	5.5650e-01	-4.5063	-8.156952	0.000202	2.018752	0.683972	-0.016506
1115	5.5700e-01	-4.5480	-8.244615	0.000214	2.144270	0.726498	-0.017533
1116	5.5750e-01	-4.5977	-8.342969	0.000241	2.405766	0.815096	-0.019671
1117	5.5800e-01	-4.6507	-8.426356	0.000204	2.039671	0.691059	-0.016677
1118	5.5850e-01	-4.6892	-8.501618	0.000184	1.840934	0.623725	-0.015052
1119	5.5900e-01	-4.6908	-8.596551	0.000232	2.322087	0.786745	-0.018987
1120	5.5950e-01	-4.7421	-8.670530	0.000181	1.809555	0.613094	-0.014796
1121	5.6000e-01	-4.7726	-8.762897	0.000226	2.259328	0.765481	-0.018473
1122	5.6050e-01	-4.8175	-8.841153	0.000191	1.914153	0.648533	-0.015651
1123	5.6100e-01	-4.8977	-8.925822	0.000207	2.071051	0.701691	-0.016934
1124	5.6150e-01	-4.9186	-9.024604	0.000242	2.416226	0.818640	-0.019756
1125	5.6200e-01	-4.9507	-9.106280	0.000200	1.997832	0.676884	-0.016335
1126	5.6250e-01	-5.0212	-9.183680	0.000189	1.893233	0.641445	-0.015480
1127	5.6300e-01	-5.0485	-9.286310	0.000251	2.510365	0.850535	-0.020526
1128	5.6350e-01	-5.0694	-9.368415	0.000201	2.008292	0.680428	-0.016421
1129	5.6400e-01	-5.1095	-9.449236	0.000198	1.976912	0.669796	-0.016164
1130	5.6450e-01	-5.1416	-9.542030	0.000227	2.269788	0.769025	-0.018559
1131	5.6500e-01	-5.1993	-9.624990	0.000203	2.029212	0.687515	-0.016592
1132	5.6550e-01	-5.2603	-9.714363	0.000219	2.186109	0.740674	-0.017875
1133	5.6600e-01	-5.2507	-9.804592	-0.000221	-2.207029	-0.747762	-0.018046
1134	5.6650e-01	-5.3004	-9.884131	0.000195	1.945533	0.659164	-0.015908
1135	5.6700e-01	-5.3293	-9.967945	0.000205	2.050131	0.694603	-0.016763
1136	5.6750e-01	-5.3918	-10.049622	0.000200	1.997832	0.676884	-0.016335
1137	5.6800e-01	-5.4063	-10.139423	0.000220	2.196569	0.744218	-0.017960
1138	5.6850e-01	-5.4624	-10.224948	0.000209	2.091971	0.708779	-0.017105
1139	5.6900e-01	-5.5170	-10.295934	0.000174	1.736336	0.588286	-0.014197
1140	5.6950e-01	-5.5218	-10.384880	0.000218	2.175650	0.737130	-0.017789
1141	5.7000e-01	-5.5683	-10.458431	0.000180	1.799095	0.609550	-0.014710
1142	5.7050e-01	-5.6645	-10.546095	0.000214	2.144270	0.726498	-0.017533
1143	5.7100e-01	-5.6629	-10.635468	-0.000219	-2.186109	-0.740674	-0.017875
1144	5.7150e-01	-5.7335	-10.724414	0.000218	2.175650	0.737130	-0.017789
1145	5.7200e-01	-5.7207	-10.810795	-0.000211	-2.112890	-0.715867	-0.017276
1146	5.7250e-01	-5.7768	-10.893754	0.000203	2.029212	0.687515	-0.016592
1147	5.7300e-01	-5.8394	-10.968588	0.000183	1.830474	0.620182	-0.014967
1148	5.7350e-01	-5.8859	-11.051975	0.000204	2.039671	0.691059	-0.016677
1149	5.7400e-01	-5.8891	-11.140066	0.000215	2.154730	0.730042	-0.017618
1150	5.7450e-01	-5.9533	-11.218749	0.000192	1.924613	0.652077	-0.015737
1151	5.7500e-01	-6.0079	-11.294011	0.000184	1.840934	0.623725	-0.015052
1152	5.7550e-01	-6.0399	-11.382102	0.000215	2.154730	0.730042	-0.017618
1153	5.7600e-01	-6.0784	-11.463351	0.000199	1.987372	0.673340	-0.016250
1154	5.7650e-01	-6.0849	-11.543744	0.000197	1.966452	0.666252	-0.016079
1155	5.7700e-01	-6.1635	-11.619862	0.000186	1.861854	0.630813	-0.015223
1156	5.7750e-01	-6.2292	-11.696407	0.000187	1.872314	0.634357	-0.015309
1157	5.7800e-01	-6.2453	-11.772524	0.000186	1.861854	0.630813	-0.015223
1158	5.7850e-01	-6.2677	-11.852490	0.000196	1.955993	0.662708	-0.015993
1159	5.7900e-01	-6.3351	-11.935449	0.000203	2.029212	0.687515	-0.016592
1160	5.7950e-01	-6.3287	-12.025250	-0.000220	-2.196569	-0.744218	-0.017960
1161	5.8000e-01	-6.3913	-12.105644	0.000197	1.966452	0.666252	-0.016079
1162	5.8050e-01	-6.4250	-12.183044	0.000189	1.893233	0.641445	-0.015480
1163	5.8100e-01	-6.4153	-12.265576	-0.000202	-2.018752	-0.683972	-0.016506
1164	5.8150e-01	-6.5020	-12.347252	0.000200	1.997832	0.676884	-0.016335
1165	5.8200e-01	-6.5725	-12.439619	0.000226	2.259328	0.765481	-0.018473
1166	5.8250e-01	-6.5822	-12.522579	0.000203	2.029212	0.687515	-0.016592
1167	5.8300e-01	-6.6239	-12.601262	0.000192	1.924613	0.652077	-0.015737
1168	5.8350e-01	-6.6800	-12.687642	0.000211	2.112890	0.715867	-0.017276
1169	5.8400e-01	-6.7217	-12.775305	0.000214	2.144270	0.726498	-0.017533
1170	5.8450e-01	-6.7362	-12.842870	0.000165	1.652657	0.559935	-0.013513
1171	5.8500e-01	-6.8068	-12.942079	0.000243	2.426686	0.822183	-0.019842
1172	5.8550e-01	-6.8421	-13.014775	0.000178	1.778175	0.602462	-0.014539
1173	5.8600e-01	-6.8533	-13.090893	0.000186	1.861854	0.630813	-0.015223
1174	5.8650e-01	-6.9030	-13.180266	0.000219	2.186109	0.740674	-0.017875
1175	5.8700e-01	-6.9463	-13.260660	0.000197	1.966452	0.666252	-0.016079
1176	5.8750e-01	-6.9896	-13.324804	0.000157	1.568978	0.531584	-0.012829
1177	5.8800e-01	-7.0249	-13.415888	0.000223	2.227949	0.754849	-0.018217
1178	5.8850e-01	-7.0682	-13.491577	0.000185	1.851394	0.627269	-0.015138
1179	5.8900e-01	-7.0987	-13.576247	0.000207	2.071051	0.701691	-0.016934
1180	5.8950e-01	-7.1661	-13.648944	0.000178	1.778175	0.602462	-0.014539
1181	5.9000e-01	-7.2367	-13.724633	0.000185	1.851394	0.627269	-0.015138
1182	5.9050e-01	-7.2287	-13.809731	-0.000208	-2.081511	-0.705235	-0.017019
1183	5.9100e-01	-7.2832	-13.881999	0.000177	1.767715	0.598918	-0.014454
1184	5.9150e-01	-7.3041	-13.956406	0.000182	1.820015	0.616638	-0.014881
1185	5.9200e-01	-7.3217	-14.047063	0.000222	2.217489	0.751306	-0.018131
1186	5.9250e-01	-7.3827	-14.116338	0.000169	1.694496	0.574111	-0.013855
1187	5.9300e-01	-7.4051	-14.195021	0.000192	1.924613	0.652077	-0.015737
1188	5.9350e-01	-7.4693	-14.268573	0.000180	1.799095	0.609550	-0.014710
1189	5.9400e-01	-7.4966	-14.354098	0.000209	2.091971	0.708779	-0.017105
1190	5.9450e-01	-7.5319	-14.434919	0.000198	1.976912	0.669796	-0.016164
1191	5.9500e-01	-7.5896	-14.517878	0.000203	2.029212	0.687515	-0.016592
1192	5.9550e-01	-7.6522	-14.585015	0.000164	1.642197	0.556391	-0.013427
1193	5.9600e-01	-7.6730	-14.656429	0.000175	1.746796	0.591830	-0.014283
1194	5.9650e-01	-7.6827	-14.749651	0.000228	2.280248	0.772569	-0.018644
1195	5.9700e-01	-7.7356	-14.825341	0.000185	1.851394	0.627269	-0.015138
1196	5.9750e-01	-7.8174	-14.900175	0.000183	1.830474	0.620182	-0.014967
1197	5.9800e-01	-7.8511	-14.972444	0.000177	1.767715	0.598918	-0.014454
1198	5.9850e-01	-7.8559	-15.061390	0.000218	2.175650	0.737130	-0.017789
1199	5.9900e-01	-7.8928	-15.133231	0.000176	1.757255	0.595374	-0.014368
1200	5.9950e-01	-7.9522	-15.209776	0.000187	1.872314	0.634357	-0.015309
1201	6.0000e-01	-7.9907	-15.287604	0.000190	1.903693	0.644989	-0.015566
1202	6.0050e-01	-8.0083	-15.364148	0.000187	1.872314	0.634357	-0.015309
1203	6.0100e-01	-8.0693	-15.442404	0.000191	1.914153	0.648533	-0.015651
1204	6.0150e-01	-8.1094	-15.499706	0.000140	1.401620	0.474882	-0.011460
1205	6.0200e-01	-8.1110	-15.595066	0.000233	2.332547	0.790288	-0.019072
1206	6.0250e-01	-8.2089	-15.661776	0.000163	1.631737	0.552848	-0.013342
1207	6.0300e-01	-8.2217	-15.745590	0.000205	2.050131	0.694603	-0.016763
1208	6.0350e-01	-8.2843	-15.816148	0.000173	1.725876	0.584743	-0.014112
1209	6.0400e-01	-8.2794	-15.910226	-0.000230	-2.301168	-0.779657	-0.018816
1210	6.0450e-01	-8.3308	-15.988481	0.000191	1.914153	0.648533	-0.015651
1211	6.0500e-01	-8.3709	-16.044073	0.000136	1.359781	0.460706	-0.011118
1212	6.0550e-01	-8.4447	-16.139433	0.000233	2.332547	0.790288	-0.019072
1213	6.0600e-01	-8.4623	-16.211702	0.000177	1.767715	0.598918	-0.014454
1214	6.0650e-01	-8.4848	-16.292095	0.000197	1.966452	0.666252	-0.016079
1215	6.0700e-01	-8.5698	-16.366930	0.000183	1.830474	0.620182	-0.014967
1216	6.0750e-01	-8.6035	-16.444758	0.000190	1.903693	0.644989	-0.015566
1217	6.0800e-01	-8.6484	-16.520447	0.000185	1.851394	0.627269	-0.015138
1218	6.0850e-01	-8.6821	-16.593144	0.000178	1.778175	0.602462	-0.014539
1219	6.0900e-01	-8.7094	-16.661991	0.000168	1.684036	0.570567	-0.013770
1220	6.0950e-01	-8.7800	-16.750937	0.000218	2.175650	0.737130	-0.017789
1221	6.1000e-01	-8.7976	-16.834324	0.000204	2.039671	0.691059	-0.016677
1222	6.1050e-01	-8.8361	-16.903599	0.000169	1.694496	0.574111	-0.013855
1223	6.1100e-01	-8.8810	-16.980572	0.000188	1.882774	0.637901	-0.015395
1224	6.1150e-01	-8.9083	-17.055406	0.000183	1.830474	0.620182	-0.014967
1225	6.1200e-01	-8.9564	-17.134090	0.000192	1.924613	0.652077	-0.015737
1226	6.1250e-01	-8.9885	-17.202082	0.000166	1.663117	0.563479	-0.013598
1227	6.1300e-01	-9.0302	-17.270074	0.000166	1.663117	0.563479	-0.013598
1228	6.1350e-01	-9.0912	-17.349185	0.000194	1.935073	0.655620	-0.015822
1229	6.1400e-01	-9.1008	-17.428296	0.000194	1.935073	0.655620	-0.015822
1230	6.1450e-01	-9.1538	-17.509972	0.000200	1.997832	0.676884	-0.016335
1231	6.1500e-01	-9.1730	-17.582668	0.000178	1.778175	0.602462	-0.014539
1232	6.1550e-01	-9.2612	-17.647240	0.000158	1.579438	0.535128	-0.012914
1233	6.1600e-01	-9.2901	-17.734903	0.000214	2.144270	0.726498	-0.017533
1234	6.1650e-01	-9.3174	-17.806744	0.000176	1.757255	0.595374	-0.014368
1235	6.1700e-01	-9.3751	-17.887993	0.000199	1.987372	0.673340	-0.016250
1236	6.1750e-01	-9.3623	-17.977794	-0.000220	-2.196569	-0.744218	-0.017960
1237	6.1800e-01	-9.4249	-18.053484	0.000185	1.851394	0.627269	-0.015138
1238	6.1850e-01	-9.4922	-18.126608	0.000179	1.788635	0.606006	-0.014625
1239	6.1900e-01	-9.5227	-18.198449	0.000176	1.757255	0.595374	-0.014368
1240	6.1950e-01	-9.5532	-18.275421	0.000188	1.882774	0.637901	-0.015395
1241	6.2000e-01	-9.5676	-18.343841	0.000167	1.673577	0.567023	-0.013684
1242	6.2050e-01	-9.6126	-18.412261	0.000167	1.673577	0.567023	-0.013684
1243	6.2100e-01	-9.6446	-18.501635	0.000219	2.186109	0.740674	-0.017875
1244	6.2150e-01	-9.7184	-18.574759	0.000179	1.788635	0.606006	-0.014625
1245	6.2200e-01	-9.7537	-18.653442	0.000192	1.924613	0.652077	-0.015737
1246	6.2250e-01	-9.8019	-18.716303	0.000154	1.537598	0.520952	-0.012572
1247	6.2300e-01	-9.8275	-18.798835	0.000202	2.018752	0.683972	-0.016506
1248	6.2350e-01	-9.8500	-18.883932	0.000208	2.081511	0.705235	-0.017019
1249	6.2400e-01	-9.8981	-18.941662	0.000141	1.412080	0.478426	-0.011546
1250	6.2450e-01	-9.9575	-19.027614	0.000210	2.102431	0.712323	-0.017191
1251	6.2500e-01	-9.9912	-19.113139	0.000209	2.091971	0.708779	-0.017105
1252	6.2550e-01	-10.0136	-19.182415	0.000169	1.694496	0.574111	-0.013855
1253	6.2600e-01	-10.0938	-19.241427	0.000144	1.443460	0.489057	-0.011802
1254	6.2650e-01	-10.1243	-19.326524	0.000208	2.081511	0.705235	-0.017019
1255	6.2700e-01	-10.1612	-19.406063	0.000195	1.945533	0.659164	-0.015908
1256	6.2750e-01	-10.1885	-19.470206	0.000157	1.568978	0.531584	-0.012829
1257	6.2800e-01	-10.2206	-19.544186	0.000181	1.809555	0.613094	-0.014796
1258	6.2850e-01	-10.2879	-19.612606	0.000167	1.673577	0.567023	-0.013684
1259	6.2900e-01	-10.3184	-19.694282	0.000200	1.997832	0.676884	-0.016335
1260	6.2950e-01	-10.3457	-19.770399	0.000186	1.861854	0.630813	-0.015223
1261	6.3000e-01	-10.3585	-19.843951	0.000180	1.799095	0.609550	-0.014710
1262	6.3050e-01	-10.4115	-19.923917	0.000196	1.955993	0.662708	-0.015993
1263	6.3100e-01	-10.4644	-20.003455	0.000195	1.945533	0.659164	-0.015908
1264	6.3150e-01	-10.4997	-20.060757	0.000140	1.401620	0.474882	-0.011460
1265	6.3200e-01	-10.5639	-20.139440	0.000192	1.924613	0.652077	-0.015737
1266	6.3250e-01	-10.5703	-20.209570	0.000172	1.715416	0.581199	-0.014026
1267	6.3300e-01	-10.6248	-20.288254	0.000192	1.924613	0.652077	-0.015737
1268	6.3350e-01	-10.6665	-20.360950	0.000178	1.778175	0.602462	-0.014539
1269	6.3400e-01	-10.7147	-20.432363	0.000175	1.746796	0.591830	-0.014283
1270	6.3450e-01	-10.7628	-20.499928	0.000165	1.652657	0.559935	-0.013513
1271	6.3500e-01	-10.7820	-20.571341	0.000175	1.746796	0.591830	-0.014283
1272	6.3550e-01	-10.8238	-20.630354	0.000144	1.443460	0.489057	-0.011802
1273	6.3600e-01	-10.8943	-20.676537	0.000113	1.129664	0.382741	-0.009237
1274	6.3650e-01	-10.9104	-20.766339	0.000220	2.196569	0.744218	-0.017960
1275	6.3700e-01	-10.9778	-20.833476	0.000164	1.642197	0.556391	-0.013427
1276	6.3750e-01	-10.9890	-20.894199	0.000149	1.485299	0.503233	-0.012145
1277	6.3800e-01	-11.0451	-20.957487	0.000155	1.548058	0.524496	-0.012658
1278	6.3850e-01	-11.0836	-21.031894	0.000182	1.820015	0.616638	-0.014881
1279	6.3900e-01	-11.1205	-21.112287	0.000197	1.966452	0.666252	-0.016079
1280	6.3950e-01	-11.1943	-21.187549	0.000184	1.840934	0.623725	-0.015052
1281	6.4000e-01	-11.2120	-21.260673	0.000179	1.788635	0.606006	-0.014625
1282	6.4050e-01	-11.2441	-21.333370	0.000178	1.778175	0.602462	-0.014539
1283	6.4100e-01	-11.2745	-21.404783	0.000175	1.746796	0.591830	-0.014283
1284	6.4150e-01	-11.2858	-21.474914	0.000172	1.715416	0.581199	-0.014026
1285	6.4200e-01	-11.3195	-21.542906	0.000166	1.663117	0.563479	-0.013598
1286	6.4250e-01	-11.3788	-21.610471	0.000165	1.652657	0.559935	-0.013513
1287	6.4300e-01	-11.4286	-21.667773	0.000140	1.401620	0.474882	-0.011460
1288	6.4350e-01	-11.4879	-21.755436	0.000214	2.144270	0.726498	-0.017533
1289	6.4400e-01	-11.4943	-21.817442	0.000152	1.516679	0.513865	-0.012401
1290	6.4450e-01	-11.5473	-21.892704	0.000184	1.840934	0.623725	-0.015052
1291	6.4500e-01	-11.6130	-21.967538	0.000183	1.830474	0.620182	-0.014967
1292	6.4550e-01	-11.6227	-22.046221	0.000192	1.924613	0.652077	-0.015737
1293	6.4600e-01	-11.6884	-22.109937	0.000156	1.558518	0.528040	-0.012743
1294	6.4650e-01	-11.7205	-22.191614	0.000200	1.997832	0.676884	-0.016335
1295	6.4700e-01	-11.7430	-22.260034	0.000167	1.673577	0.567023	-0.013684
1296	6.4750e-01	-11.7895	-22.337006	0.000188	1.882774	0.637901	-0.015395
1297	6.4800e-01	-11.8184	-22.405854	0.000168	1.684036	0.570567	-0.013770
1298	6.4850e-01	-11.8874	-22.469998	0.000157	1.568978	0.531584	-0.012829
1299	6.4900e-01	-11.9098	-22.552957	0.000203	2.029212	0.687515	-0.016592
1300	6.4950e-01	-11.9563	-22.624798	0.000176	1.757255	0.595374	-0.014368
1301	6.5000e-01	-11.9676	-22.693646	0.000168	1.684036	0.570567	-0.013770
1302	6.5050e-01	-12.0077	-22.760783	0.000164	1.642197	0.556391	-0.013427
1303	6.5100e-01	-12.0590	-22.841604	0.000198	1.976912	0.669796	-0.016164
1304	6.5150e-01	-12.1168	-22.895912	0.000133	1.328401	0.450075	-0.010862
1305	6.5200e-01	-12.1264	-22.962194	0.000162	1.621277	0.549304	-0.013256
1306	6.5250e-01	-12.1617	-23.040022	0.000190	1.903693	0.644989	-0.015566
1307	6.5300e-01	-12.2130	-23.105449	0.000160	1.600358	0.542216	-0.013085
1308	6.5350e-01	-12.2547	-23.180283	0.000183	1.830474	0.620182	-0.014967
1309	6.5400e-01	-12.2948	-23.255545	0.000184	1.840934	0.623725	-0.015052
1310	6.5450e-01	-12.3734	-23.318834	0.000155	1.548058	0.524496	-0.012658
1311	6.5500e-01	-12.4136	-23.387682	0.000168	1.684036	0.570567	-0.013770
1312	6.5550e-01	-12.4328	-23.456102	0.000167	1.673577	0.567023	-0.013684
1313	6.5600e-01	-12.4954	-23.527087	0.000174	1.736336	0.588286	-0.014197
1314	6.5650e-01	-12.4922	-23.596790	-0.000170	-1.704956	-0.577655	-0.013941
1315	6.5700e-01	-12.5563	-23.661789	0.000159	1.589898	0.538672	-0.013000
1316	6.5750e-01	-12.5563	-23.740900	0.000194	1.935073	0.655620	-0.015822
1317	6.5800e-01	-12.6141	-23.819155	0.000191	1.914153	0.648533	-0.015651
1318	6.5850e-01	-12.6799	-23.877312	0.000142	1.422540	0.481970	-0.011631
1319	6.5900e-01	-12.7087	-23.949581	0.000177	1.767715	0.598918	-0.014454
1320	6.5950e-01	-12.7777	-24.014580	0.000159	1.589898	0.538672	-0.013000
1321	6.6000e-01	-12.7970	-24.087276	0.000178	1.778175	0.602462	-0.014539
1322	6.6050e-01	-12.8483	-24.165532	0.000191	1.914153	0.648533	-0.015651
1323	6.6100e-01	-12.8659	-24.241222	0.000185	1.851394	0.627269	-0.015138
1324	6.6150e-01	-12.8676	-24.331878	0.000222	2.217489	0.751306	-0.018131
1325	6.6200e-01	-12.9638	-24.388325	0.000138	1.380701	0.467794	-0.011289
1326	6.6250e-01	-13.0007	-24.451613	0.000155	1.548058	0.524496	-0.012658
1327	6.6300e-01	-12.9879	-24.508915	-0.000140	-1.401620	-0.474882	-0.011460
1328	6.6350e-01	-13.0408	-24.581611	0.000178	1.778175	0.602462	-0.014539
1329	6.6400e-01	-13.0970	-24.650459	0.000168	1.684036	0.570567	-0.013770
1330	6.6450e-01	-13.1579	-24.715030	0.000158	1.579438	0.535128	-0.012914
1331	6.6500e-01	-13.1547	-24.783878	-0.000168	-1.684036	-0.570567	-0.013770
1332	6.6550e-01	-13.2141	-24.851015	0.000164	1.642197	0.556391	-0.013427
1333	6.6600e-01	-13.2782	-24.909600	0.000143	1.433000	0.485514	-0.011717
1334	6.6650e-01	-13.3039	-24.979303	0.000170	1.704956	0.577655	-0.013941
1335	6.6700e-01	-13.3440	-25.047723	0.000167	1.673577	0.567023	-0.013684
1336	6.6750e-01	-13.3825	-25.114005	0.000162	1.621277	0.549304	-0.013256
1337	6.6800e-01	-13.4178	-25.193971	0.000196	1.955993	0.662708	-0.015993
1338	6.6850e-01	-13.4820	-25.262818	0.000168	1.684036	0.570567	-0.013770
1339	6.6900e-01	-13.5301	-25.338936	0.000186	1.861854	0.630813	-0.015223
1340	6.6950e-01	-13.5494	-25.411632	0.000178	1.778175	0.602462	-0.014539
1341	6.7000e-01	-13.5702	-25.470217	0.000143	1.433000	0.485514	-0.011717
1342	6.7050e-01	-13.6280	-25.539064	0.000168	1.684036	0.570567	-0.013770
1343	6.7100e-01	-13.6745	-25.621596	0.000202	2.018752	0.683972	-0.016506
1344	6.7150e-01	-13.6616	-25.675049	-0.000131	-1.307482	-0.442987	-0.010691
1345	6.7200e-01	-13.7274	-25.744324	0.000169	1.694496	0.574111	-0.013855
1346	6.7250e-01	-13.8076	-25.816593	0.000177	1.767715	0.598918	-0.014454
1347	6.7300e-01	-13.8413	-25.885868	0.000169	1.694496	0.574111	-0.013855
1348	6.7350e-01	-13.8846	-25.955144	0.000169	1.694496	0.574111	-0.013855
1349	6.7400e-01	-13.9055	-26.040669	0.000209	2.091971	0.708779	-0.017105
1350	6.7450e-01	-13.9263	-26.112937	0.000177	1.767715	0.598918	-0.014454
1351	6.7500e-01	-13.9777	-26.185634	0.000178	1.778175	0.602462	-0.014539
1352	6.7550e-01	-14.0274	-26.253626	0.000166	1.663117	0.563479	-0.013598
1353	6.7600e-01	-14.0771	-26.317770	0.000157	1.568978	0.531584	-0.012829
1354	6.7650e-01	-14.1445	-26.388328	0.000173	1.725876	0.584743	-0.014112
1355	6.7700e-01	-14.1606	-26.455893	0.000165	1.652657	0.559935	-0.013513
1356	6.7750e-01	-14.1862	-26.535431	0.000195	1.945533	0.659164	-0.015908
1357	6.7800e-01	-14.2344	-26.607700	0.000177	1.767715	0.598918	-0.014454
1358	6.7850e-01	-14.2552	-26.669278	0.000151	1.506219	0.510321	-0.012316
1359	6.7900e-01	-14.3098	-26.730001	0.000149	1.485299	0.503233	-0.012145
1360	6.7950e-01	-14.3274	-26.807401	0.000189	1.893233	0.641445	-0.015480
1361	6.8000e-01	-14.3900	-26.883091	0.000185	1.851394	0.627269	-0.015138
1362	6.8050e-01	-14.4156	-26.952366	0.000169	1.694496	0.574111	-0.013855
1363	6.8100e-01	-14.4670	-27.013089	0.000149	1.485299	0.503233	-0.012145
1364	6.8150e-01	-14.5039	-27.081509	0.000167	1.673577	0.567023	-0.013684
1365	6.8200e-01	-14.5440	-27.154633	0.000179	1.788635	0.606006	-0.014625
1366	6.8250e-01	-14.6162	-27.213217	0.000143	1.433000	0.485514	-0.011717
1367	6.8300e-01	-14.6162	-27.296604	0.000204	2.039671	0.691059	-0.016677
1368	6.8350e-01	-14.7188	-27.358182	0.000151	1.506219	0.510321	-0.012316
1369	6.8400e-01	-14.7108	-27.424036	-0.000161	-1.610817	-0.545760	-0.013171
1370	6.8450e-01	-14.7429	-27.513838	0.000220	2.196569	0.744218	-0.017960
1371	6.8500e-01	-14.7990	-27.572422	0.000143	1.433000	0.485514	-0.011717
1372	6.8550e-01	-14.8311	-27.649395	0.000188	1.882774	0.637901	-0.015395
1373	6.8600e-01	-14.8536	-27.720381	0.000174	1.736336	0.588286	-0.014197
1374	6.8650e-01	-14.9322	-27.776827	0.000138	1.380701	0.467794	-0.011289
1375	6.8700e-01	-14.9707	-27.842682	0.000161	1.610817	0.545760	-0.013171
1376	6.8750e-01	-15.0028	-27.919227	0.000187	1.872314	0.634357	-0.015309
1377	6.8800e-01	-15.0236	-28.000048	0.000198	1.976912	0.669796	-0.016164
1378	6.8850e-01	-15.0429	-28.065047	0.000159	1.589898	0.538672	-0.013000
1379	6.8900e-01	-15.0750	-28.125342	0.000147	1.474839	0.499689	-0.012059
1380	6.8950e-01	-15.1440	-28.198038	0.000178	1.778175	0.602462	-0.014539
1381	6.9000e-01	-15.2065	-28.274156	0.000186	1.861854	0.630813	-0.015223
1382	6.9050e-01	-15.2306	-28.344286	0.000172	1.715416	0.581199	-0.014026
1383	6.9100e-01	-15.2867	-28.406292	0.000152	1.516679	0.513865	-0.012401
1384	6.9150e-01	-15.3172	-28.472146	0.000161	1.610817	0.545760	-0.013171
1385	6.9200e-01	-15.3525	-28.541849	0.000170	1.704956	0.577655	-0.013941
1386	6.9250e-01	-15.3862	-28.629512	0.000214	2.144270	0.726498	-0.017533
1387	6.9300e-01	-15.4215	-28.709906	0.000197	1.966452	0.666252	-0.016079
1388	6.9350e-01	-15.4792	-28.770201	0.000147	1.474839	0.499689	-0.012059
1389	6.9400e-01	-15.5081	-28.846746	0.000187	1.872314	0.634357	-0.015309
1390	6.9450e-01	-15.5322	-28.906186	0.000145	1.453920	0.492601	-0.011888
1391	6.9500e-01	-15.5947	-28.984013	0.000190	1.903693	0.644989	-0.015566
1392	6.9550e-01	-15.6252	-29.062269	0.000191	1.914153	0.648533	-0.015651
1393	6.9600e-01	-15.6782	-29.123419	0.000150	1.495759	0.506777	-0.012230
1394	6.9650e-01	-15.7375	-29.198254	0.000183	1.830474	0.620182	-0.014967
1395	6.9700e-01	-15.7857	-29.270950	0.000178	1.778175	0.602462	-0.014539
1396	6.9750e-01	-15.8049	-29.340653	0.000170	1.704956	0.577655	-0.013941
1397	6.9800e-01	-15.8370	-29.407790	0.000164	1.642197	0.556391	-0.013427
1398	6.9850e-01	-15.8803	-29.478348	0.000173	1.725876	0.584743	-0.014112
1399	6.9900e-01	-15.8851	-29.564301	0.000210	2.102431	0.712323	-0.017191
1400	6.9950e-01	-15.9268	-29.630583	0.000162	1.621277	0.549304	-0.013256
1401	7.0000e-01	-15.9862	-29.698148	0.000165	1.652657	0.559935	-0.013513
1402	7.0050e-01	-16.0423	-29.767423	0.000169	1.694496	0.574111	-0.013855
1403	7.0100e-01	-16.0921	-29.844396	0.000188	1.882774	0.637901	-0.015395
1404	7.0150e-01	-16.1033	-29.915381	0.000174	1.736336	0.588286	-0.014197
1405	7.0200e-01	-16.1338	-29.997485	0.000201	2.008292	0.680428	-0.016421
1406	7.0250e-01	-16.1947	-30.071465	0.000181	1.809555	0.613094	-0.014796
1407	7.0300e-01	-16.2108	-30.138602	0.000164	1.642197	0.556391	-0.013427
1408	7.0350e-01	-16.2589	-30.203173	0.000158	1.579438	0.535128	-0.012914
1409	7.0400e-01	-16.2894	-30.276297	0.000179	1.788635	0.606006	-0.014625
1410	7.0450e-01	-16.3327	-30.351559	0.000184	1.840934	0.623725	-0.015052
1411	7.0500e-01	-16.3728	-30.438367	0.000212	2.123350	0.719411	-0.017362
1412	7.0550e-01	-16.4450	-30.493103	0.000134	1.338861	0.453618	-0.010947
1413	7.0600e-01	-16.4867	-30.578201	0.000208	2.081511	0.705235	-0.017019
1414	7.0650e-01	-16.5204	-30.647903	0.000170	1.704956	0.577655	-0.013941
1415	7.0700e-01	-16.5332	-30.732573	0.000207	2.071051	0.701691	-0.016934
1416	7.0750e-01	-16.5942	-30.803131	0.000173	1.725876	0.584743	-0.014112
1417	7.0800e-01	-16.5974	-30.886518	0.000204	2.039671	0.691059	-0.016677
1418	7.0850e-01	-16.6632	-30.958359	0.000176	1.757255	0.595374	-0.014368
1419	7.0900e-01	-16.7113	-31.031911	0.000180	1.799095	0.609550	-0.014710
1420	7.0950e-01	-16.7145	-31.100759	0.000168	1.684036	0.570567	-0.013770
1421	7.1000e-01	-16.7787	-31.187994	0.000213	2.133810	0.722954	-0.017447
1422	7.1050e-01	-16.8396	-31.261973	0.000181	1.809555	0.613094	-0.014796
1423	7.1100e-01	-16.8990	-31.335525	0.000180	1.799095	0.609550	-0.014710
1424	7.1150e-01	-16.9086	-31.412070	0.000187	1.872314	0.634357	-0.015309
1425	7.1200e-01	-16.9503	-31.486904	0.000183	1.830474	0.620182	-0.014967
1426	7.1250e-01	-17.0017	-31.557035	0.000172	1.715416	0.581199	-0.014026
1427	7.1300e-01	-17.0418	-31.651968	0.000232	2.322087	0.786745	-0.018987
1428	7.1350e-01	-17.0835	-31.723809	0.000176	1.757255	0.595374	-0.014368
1429	7.1400e-01	-17.1380	-31.796077	0.000177	1.767715	0.598918	-0.014454
1430	7.1450e-01	-17.1621	-31.881175	0.000208	2.081511	0.705235	-0.017019
1431	7.1500e-01	-17.1861	-31.966272	0.000208	2.081511	0.705235	-0.017019
1432	7.1550e-01	-17.2407	-32.039824	0.000180	1.799095	0.609550	-0.014710
1433	7.1600e-01	-17.2631	-32.121500	0.000200	1.997832	0.676884	-0.016335
1434	7.1650e-01	-17.3273	-32.203604	0.000201	2.008292	0.680428	-0.016421
1435	7.1700e-01	-17.3658	-32.270741	0.000164	1.642197	0.556391	-0.013427
1436	7.1750e-01	-17.3851	-32.348569	0.000190	1.903693	0.644989	-0.015566
1437	7.1800e-01	-17.4492	-32.437088	0.000217	2.165190	0.733586	-0.017704
1438	7.1850e-01	-17.4621	-32.514915	0.000190	1.903693	0.644989	-0.015566
1439	7.1900e-01	-17.5118	-32.583335	0.000167	1.673577	0.567023	-0.013684
1440	7.1950e-01	-17.5439	-32.684683	0.000248	2.478985	0.839903	-0.020269
1441	7.2000e-01	-17.5680	-32.758234	0.000180	1.799095	0.609550	-0.014710
1442	7.2050e-01	-17.6385	-32.833069	0.000183	1.830474	0.620182	-0.014967
1443	7.2100e-01	-17.6738	-32.919449	0.000211	2.112890	0.715867	-0.017276
1444	7.2150e-01	-17.6995	-32.992573	0.000179	1.788635	0.606006	-0.014625
1445	7.2200e-01	-17.7364	-33.082802	0.000221	2.207029	0.747762	-0.018046
1446	7.2250e-01	-17.7829	-33.167899	0.000208	2.081511	0.705235	-0.017019
1447	7.2300e-01	-17.8214	-33.252997	0.000208	2.081511	0.705235	-0.017019
1448	7.2350e-01	-17.8327	-33.323127	0.000172	1.715416	0.581199	-0.014026
1449	7.2400e-01	-17.8728	-33.421909	0.000242	2.416226	0.818640	-0.019756
1450	7.2450e-01	-17.9417	-33.500164	0.000191	1.914153	0.648533	-0.015651
1451	7.2500e-01	-18.0171	-33.569439	0.000169	1.694496	0.574111	-0.013855
1452	7.2550e-01	-18.0412	-33.655392	0.000210	2.102431	0.712323	-0.017191
1453	7.2600e-01	-18.0749	-33.730226	0.000183	1.830474	0.620182	-0.014967
1454	7.2650e-01	-18.0845	-33.827297	0.000237	2.374387	0.804464	-0.019414
1455	7.2700e-01	-18.1551	-33.909401	0.000201	2.008292	0.680428	-0.016421
1456	7.2750e-01	-18.1952	-33.982953	0.000180	1.799095	0.609550	-0.014710
1457	7.2800e-01	-18.2225	-34.067623	0.000207	2.071051	0.701691	-0.016934
1458	7.2850e-01	-18.2546	-34.151865	0.000206	2.060591	0.698147	-0.016848
1459	7.2900e-01	-18.2979	-34.247225	0.000233	2.332547	0.790288	-0.019072
1460	7.2950e-01	-18.3685	-34.336599	0.000219	2.186109	0.740674	-0.017875
1461	7.3000e-01	-18.3829	-34.402026	0.000160	1.600358	0.542216	-0.013085
1462	7.3050e-01	-18.4487	-34.478998	0.000188	1.882774	0.637901	-0.015395
1463	7.3100e-01	-18.4711	-34.569655	0.000222	2.217489	0.751306	-0.018131
1464	7.3150e-01	-18.5209	-34.654752	0.000208	2.081511	0.705235	-0.017019
1465	7.3200e-01	-18.5497	-34.740277	0.000209	2.091971	0.708779	-0.017105
1466	7.3250e-01	-18.5963	-34.822381	0.000201	2.008292	0.680428	-0.016421
1467	7.3300e-01	-18.6444	-34.905341	0.000203	2.029212	0.687515	-0.016592
1468	7.3350e-01	-18.6829	-34.987872	0.000202	2.018752	0.683972	-0.016506
1469	7.3400e-01	-18.7198	-35.084943	0.000237	2.374387	0.804464	-0.019414
1470	7.3450e-01	-18.7727	-35.166192	0.000199	1.987372	0.673340	-0.016250
1471	7.3500e-01	-18.7952	-35.257704	0.000224	2.238409	0.758393	-0.018302
1472	7.3550e-01	-18.8610	-35.346222	0.000217	2.165190	0.733586	-0.017704
1473	7.3600e-01	-18.8545	-35.436024	-0.000220	-2.196569	-0.744218	-0.017960
1474	7.3650e-01	-18.8850	-35.529674	0.000229	2.290708	0.776113	-0.018730
1475	7.3700e-01	-18.9299	-35.640856	0.000272	2.719562	0.921413	-0.022237
1476	7.3750e-01	-18.9797	-35.728092	0.000213	2.133810	0.722954	-0.017447
1477	7.3800e-01	-19.0390	-35.808913	0.000198	1.976912	0.669796	-0.016164
1478	7.3850e-01	-19.0888	-35.890162	0.000199	1.987372	0.673340	-0.016250
1479	7.3900e-01	-19.1128	-35.979963	0.000220	2.196569	0.744218	-0.017960
1480	7.3950e-01	-19.1289	-36.074041	0.000230	2.301168	0.779657	-0.018816
1481	7.4000e-01	-19.2043	-36.147164	0.000179	1.788635	0.606006	-0.014625
1482	7.4050e-01	-19.2540	-36.250222	0.000252	2.520825	0.854079	-0.020612
1483	7.4100e-01	-19.2668	-36.340451	0.000221	2.207029	0.747762	-0.018046
1484	7.4150e-01	-19.3118	-36.430252	0.000220	2.196569	0.744218	-0.017960
1485	7.4200e-01	-19.3294	-36.532455	0.000250	2.499905	0.846991	-0.020440
1486	7.4250e-01	-19.3952	-36.626532	0.000230	2.301168	0.779657	-0.018816
1487	7.4300e-01	-19.4337	-36.721038	0.000231	2.311628	0.783201	-0.018901
1488	7.4350e-01	-19.4722	-36.826233	0.000257	2.573124	0.871798	-0.021039
1489	7.4400e-01	-19.5091	-36.906627	0.000197	1.966452	0.666252	-0.016079
1490	7.4450e-01	-19.5620	-37.002415	0.000234	2.343007	0.793832	-0.019158
1491	7.4500e-01	-19.6117	-37.116163	0.000278	2.782321	0.942676	-0.022750
1492	7.4550e-01	-19.6663	-37.206820	0.000222	2.217489	0.751306	-0.018131
1493	7.4600e-01	-19.7128	-37.297904	0.000223	2.227949	0.754849	-0.018217
1494	7.4650e-01	-19.7433	-37.391554	0.000229	2.290708	0.776113	-0.018730
1495	7.4700e-01	-19.7321	-37.494184	-0.000251	-2.510365	-0.850535	-0.020526
1496	7.4750e-01	-19.7834	-37.587834	0.000229	2.290708	0.776113	-0.018730
1497	7.4800e-01	-19.8492	-37.673359	0.000209	2.091971	0.708779	-0.017105
1498	7.4850e-01	-19.8620	-37.771285	0.000240	2.395306	0.811552	-0.019585
1499	7.4900e-01	-19.9005	-37.869211	0.000240	2.395306	0.811552	-0.019585
1500	7.4950e-01	-19.9663	-37.972697	0.000253	2.531285	0.857622	-0.020697
1501	7.5000e-01	-19.9711	-38.073189	0.000246	2.458066	0.832815	-0.020098
1502	7.5050e-01	-19.9438	-38.151872	-0.000192	-1.924613	-0.652077	-0.015737
1503	7.5100e-01	-19.8780	-38.196772	-0.000110	-1.098285	-0.372109	-0.008980
1504	7.5150e-01	-19.8412	-38.230555	-0.000083	-0.826328	-0.279968	-0.006756
1505	7.5200e-01	-19.8107	-38.248943	-0.000045	-0.449774	-0.152387	-0.003678
1506	7.5250e-01	-19.7738	-38.265620	-0.000041	-0.407934	-0.138212	-0.003335
1507	7.5300e-01	-19.6936	-38.251081	0.000036	0.355635	0.120492	0.002908
1508	7.5350e-01	-19.6855	-38.257068	-0.000015	-0.146438	-0.049615	-0.001197
1509	7.5400e-01	-19.6278	-38.247660	0.000023	0.230117	0.077966	0.001882
1510	7.5450e-01	-19.6182	-38.230982	0.000041	0.407934	0.138212	0.003335
1511	7.5500e-01	-19.5684	-38.208318	0.000055	0.554372	0.187826	0.004533
1512	7.5550e-01	-19.5219	-38.199338	0.000022	0.219657	0.074422	0.001796
1513	7.5600e-01	-19.4930	-38.161707	0.000092	0.920467	0.311863	0.007526
1514	7.5650e-01	-19.4385	-38.139471	0.000054	0.543912	0.184283	0.004447
1515	7.5700e-01	-19.3984	-38.118089	0.000052	0.522993	0.177195	0.004276
1516	7.5750e-01	-19.3519	-38.095425	0.000055	0.554372	0.187826	0.004533
1517	7.5800e-01	-19.3214	-38.055228	0.000098	0.983226	0.333126	0.008039
1518	7.5850e-01	-19.3214	-38.019736	-0.000087	-0.868168	-0.294143	0.007099
1519	7.5900e-01	-19.2668	-37.991085	0.000070	0.700810	0.237441	0.005730
1520	7.5950e-01	-19.1930	-37.972269	0.000046	0.460234	0.155931	0.003763
1521	7.6000e-01	-19.1594	-37.939770	0.000079	0.794949	0.269336	0.006500
1522	7.6050e-01	-19.1353	-37.879902	0.000146	1.464380	0.496145	0.011974
1523	7.6100e-01	-19.0888	-37.843554	0.000089	0.889088	0.301231	0.007270
1524	7.6150e-01	-19.0759	-37.815331	0.000069	0.690350	0.233897	0.005645
1525	7.6200e-01	-19.0053	-37.775562	0.000097	0.972766	0.329582	0.007954
1526	7.6250e-01	-18.9460	-37.740924	0.000085	0.847248	0.287055	0.006928
1527	7.6300e-01	-18.9316	-37.693885	0.000115	1.150584	0.389828	0.009408
1528	7.6350e-01	-18.8818	-37.657965	0.000088	0.878628	0.297687	0.007184
1529	7.6400e-01	-18.8193	-37.609643	0.000118	1.181963	0.400460	0.009664
1530	7.6450e-01	-18.8000	-37.577143	0.000079	0.794949	0.269336	0.006500
1531	7.6500e-01	-18.7775	-37.527539	0.000121	1.213343	0.411092	0.009921
1532	7.6550e-01	-18.7423	-37.484776	0.000105	1.045985	0.354389	0.008553
1533	7.6600e-01	-18.6781	-37.446718	0.000093	0.930927	0.315407	0.007612
1534	7.6650e-01	-18.6380	-37.400107	0.000114	1.140124	0.386284	0.009322
1535	7.6700e-01	-18.5979	-37.358627	0.000101	1.014606	0.343758	0.008296
1536	7.6750e-01	-18.5481	-37.309878	0.000119	1.192423	0.404004	0.009750
1537	7.6800e-01	-18.5241	-37.253003	0.000139	1.391161	0.471338	0.011375
1538	7.6850e-01	-18.5096	-37.226063	0.000066	0.658971	0.223265	0.005388
1539	7.6900e-01	-18.4070	-37.176459	0.000121	1.213343	0.411092	0.009921
1540	7.6950e-01	-18.4006	-37.119584	0.000139	1.391161	0.471338	0.011375
1541	7.7000e-01	-18.3540	-37.078960	0.000099	0.993686	0.336670	0.008125
1542	7.7050e-01	-18.3332	-37.028928	0.000122	1.223803	0.414636	0.010006
1543	7.7100e-01	-18.2818	-36.975902	0.000130	1.297022	0.439443	0.010605
1544	7.7150e-01	-18.2594	-36.936561	0.000096	0.962307	0.326038	0.007868
1545	7.7200e-01	-18.2161	-36.880542	0.000137	1.370241	0.464250	0.011204
1546	7.7250e-01	-18.1936	-36.839062	0.000101	1.014606	0.343758	0.008296
1547	7.7300e-01	-18.1214	-36.781333	0.000141	1.412080	0.478426	0.011546
1548	7.7350e-01	-18.0925	-36.745412	0.000088	0.878628	0.297687	0.007184
1549	7.7400e-01	-18.0316	-36.706071	0.000096	0.962307	0.326038	0.007868
1550	7.7450e-01	-18.0155	-36.658604	0.000116	1.161044	0.393372	0.009493
1551	7.7500e-01	-17.9498	-36.597026	0.000151	1.506219	0.510321	0.012316
1552	7.7550e-01	-17.9193	-36.545284	0.000127	1.265642	0.428811	0.010349
1553	7.7600e-01	-17.9145	-36.484133	0.000150	1.495759	0.506777	0.012230
1554	7.7650e-01	-17.8599	-36.438805	0.000111	1.108744	0.375653	0.009066
1555	7.7700e-01	-17.8118	-36.396470	0.000104	1.035526	0.350846	0.008467
1556	7.7750e-01	-17.7797	-36.340023	0.000138	1.380701	0.467794	0.011289
1557	7.7800e-01	-17.6883	-36.286143	0.000132	1.317942	0.446531	0.010776
1558	7.7850e-01	-17.7075	-36.239532	-0.000114	-1.140124	-0.386284	0.009322
1559	7.7900e-01	-17.6498	-36.191637	0.000117	1.171504	0.396916	0.009579
1560	7.7950e-01	-17.5984	-36.133480	0.000142	1.422540	0.481970	0.011631
1561	7.8000e-01	-17.5792	-36.090290	0.000106	1.056445	0.357933	0.008638
1562	7.8050e-01	-17.5166	-36.036837	0.000131	1.307482	0.442987	0.010691
1563	7.8100e-01	-17.4733	-35.984239	0.000129	1.286562	0.435899	0.010520
1564	7.8150e-01	-17.4621	-35.932924	0.000126	1.255182	0.425267	0.010263
1565	7.8200e-01	-17.3979	-35.883747	0.000120	1.202883	0.407548	0.009835
1566	7.8250e-01	-17.3674	-35.832432	0.000126	1.255182	0.425267	0.010263
1567	7.8300e-01	-17.3273	-35.773848	0.000143	1.433000	0.485514	0.011717
1568	7.8350e-01	-17.2680	-35.719112	0.000134	1.338861	0.453618	0.010947
1569	7.8400e-01	-17.2583	-35.677632	0.000101	1.014606	0.343758	0.008296
1570	7.8450e-01	-17.2166	-35.618620	0.000144	1.443460	0.489057	0.011802
1571	7.8500e-01	-17.1621	-35.563028	0.000136	1.359781	0.460706	0.011118
1572	7.8550e-01	-17.1637	-35.497602	-0.000160	-1.600358	-0.542216	0.013085
1573	7.8600e-01	-17.0883	-35.443721	0.000132	1.317942	0.446531	0.010776
1574	7.8650e-01	-17.0626	-35.391551	0.000128	1.276102	0.432355	0.010434
1575	7.8700e-01	-17.0209	-35.349643	0.000103	1.025066	0.347302	0.008381
1576	7.8750e-01	-16.9551	-35.297901	0.000127	1.265642	0.428811	0.010349
1577	7.8800e-01	-16.9279	-35.248296	0.000121	1.213343	0.411092	0.009921
1578	7.8850e-01	-16.8846	-35.173889	0.000182	1.820015	0.616638	0.014881
1579	7.8900e-01	-16.8444	-35.132837	0.000100	1.004146	0.340214	0.008210
1580	7.8950e-01	-16.8108	-35.069549	0.000155	1.548058	0.524496	0.012658
1581	7.9000e-01	-16.7690	-35.010964	0.000143	1.433000	0.485514	0.011717
1582	7.9050e-01	-16.7530	-34.943827	0.000164	1.642197	0.556391	0.013427
1583	7.9100e-01	-16.6632	-34.904913	0.000095	0.951847	0.322494	0.007783
1584	7.9150e-01	-16.6487	-34.852315	0.000129	1.286562	0.435899	0.010520
1585	7.9200e-01	-16.6006	-34.792448	0.000146	1.464380	0.496145	0.011974
1586	7.9250e-01	-16.5380	-34.750540	0.000103	1.025066	0.347302	0.008381
1587	7.9300e-01	-16.5156	-34.696232	0.000133	1.328401	0.450075	0.010862
1588	7.9350e-01	-16.4931	-34.633799	0.000153	1.527139	0.517409	0.012487
1589	7.9400e-01	-16.4562	-34.581201	0.000129	1.286562	0.435899	0.010520
1590	7.9450e-01	-16.4049	-34.524754	0.000138	1.380701	0.467794	0.011289
1591	7.9500e-01	-16.3568	-34.461466	0.000155	1.548058	0.524496	0.012658
1592	7.9550e-01	-16.3054	-34.415282	0.000113	1.129664	0.382741	0.009237
1593	7.9600e-01	-16.3070	-34.365678	-0.000121	-1.213343	-0.411092	0.009921
1594	7.9650e-01	-16.2364	-34.315645	0.000122	1.223803	0.414636	0.010006
1595	7.9700e-01	-16.1947	-34.260054	0.000136	1.359781	0.460706	0.011118
1596	7.9750e-01	-16.1691	-34.210022	0.000122	1.223803	0.414636	0.010006
1597	7.9800e-01	-16.1322	-34.141602	0.000167	1.673577	0.567023	0.013684
1598	7.9850e-01	-16.1257	-34.091997	0.000121	1.213343	0.411092	0.009921
1599	7.9900e-01	-16.0584	-34.032130	0.000146	1.464380	0.496145	0.011974
1600	7.9950e-01	-15.9958	-33.983808	0.000118	1.181963	0.400460	0.009664
1601	8.0000e-01	-15.9445	-33.929500	0.000133	1.328401	0.450075	0.010862
1602	8.0050e-01	-15.9397	-33.869205	0.000147	1.474839	0.499689	0.012059
1603	8.0100e-01	-15.8979	-33.816607	0.000129	1.286562	0.435899	0.010520
1604	8.0150e-01	-15.8386	-33.751608	0.000159	1.589898	0.538672	0.013000
1605	8.0200e-01	-15.8049	-33.705424	0.000113	1.129664	0.382741	0.009237
1606	8.0250e-01	-15.7953	-33.651116	0.000133	1.328401	0.450075	0.010862
1607	8.0300e-01	-15.7455	-33.596807	0.000133	1.328401	0.450075	0.010862
1608	8.0350e-01	-15.6958	-33.536940	0.000146	1.464380	0.496145	0.011974
1609	8.0400e-01	-15.6332	-33.474507	0.000153	1.527139	0.517409	0.012487
1610	8.0450e-01	-15.5899	-33.417632	0.000139	1.391161	0.471338	0.011375
1611	8.0500e-01	-15.5354	-33.377008	0.000099	0.993686	0.336670	0.008125
1612	8.0550e-01	-15.5113	-33.308588	0.000167	1.673577	0.567023	0.013684
1613	8.0600e-01	-15.4969	-33.258983	0.000121	1.213343	0.411092	0.009921
1614	8.0650e-01	-15.4536	-33.192701	0.000162	1.621277	0.549304	0.013256
1615	8.0700e-01	-15.4119	-33.140959	0.000127	1.265642	0.428811	0.010349
1616	8.0750e-01	-15.3637	-33.088789	0.000128	1.276102	0.432355	0.010434
1617	8.0800e-01	-15.3317	-33.034908	0.000132	1.317942	0.446531	0.010776
1618	8.0850e-01	-15.2851	-32.984876	0.000122	1.223803	0.414636	0.010006
1619	8.0900e-01	-15.2354	-32.919877	0.000159	1.589898	0.538672	0.013000
1620	8.0950e-01	-15.1841	-32.859154	0.000149	1.485299	0.503233	0.012145
1621	8.1000e-01	-15.1295	-32.810832	0.000118	1.181963	0.400460	0.009664
1622	8.1050e-01	-15.1311	-32.759945	-0.000124	-1.244723	-0.421723	0.010177
1623	8.1100e-01	-15.0926	-32.682117	0.000190	1.903693	0.644989	0.015566
1624	8.1150e-01	-15.0156	-32.638071	0.000108	1.077365	0.365021	0.008809
1625	8.1200e-01	-14.9996	-32.575211	0.000154	1.537598	0.520952	0.012572
1626	8.1250e-01	-14.9354	-32.531165	0.000108	1.077365	0.365021	0.008809
1627	8.1300e-01	-14.9065	-32.458896	0.000177	1.767715	0.598918	0.014454
1628	8.1350e-01	-14.8616	-32.414423	0.000109	1.087825	0.368565	0.008895
1629	8.1400e-01	-14.8536	-32.348997	0.000160	1.600358	0.542216	0.013085
1630	8.1450e-01	-14.8119	-32.286563	0.000153	1.527139	0.517409	0.012487
1631	8.1500e-01	-14.7830	-32.236959	0.000121	1.213343	0.411092	0.009921
1632	8.1550e-01	-14.7204	-32.179657	0.000140	1.401620	0.474882	0.011460
1633	8.1600e-01	-14.6739	-32.119790	0.000146	1.464380	0.496145	0.011974
1634	8.1650e-01	-14.6515	-32.049231	0.000173	1.725876	0.584743	0.014112
1635	8.1700e-01	-14.5761	-32.009035	0.000098	0.983226	0.333126	0.008039
1636	8.1750e-01	-14.5376	-31.939332	0.000170	1.704956	0.577655	0.013941
1637	8.1800e-01	-14.4718	-31.887161	0.000128	1.276102	0.432355	0.010434
1638	8.1850e-01	-14.4654	-31.826866	0.000147	1.474839	0.499689	0.012059
1639	8.1900e-01	-14.4477	-31.776407	0.000123	1.234263	0.418180	0.010092
1640	8.1950e-01	-14.4140	-31.713118	0.000155	1.548058	0.524496	0.012658
1641	8.2000e-01	-14.3595	-31.646836	0.000162	1.621277	0.549304	0.013256
1642	8.2050e-01	-14.3386	-31.596804	0.000122	1.223803	0.414636	0.010006
1643	8.2100e-01	-14.3049	-31.542068	0.000134	1.338861	0.453618	0.010947
1644	8.2150e-01	-14.2552	-31.482628	0.000145	1.453920	0.492601	0.011888
1645	8.2200e-01	-14.1959	-31.415063	0.000165	1.652657	0.559935	0.013513
1646	8.2250e-01	-14.1654	-31.353913	0.000150	1.495759	0.506777	0.012230
1647	8.2300e-01	-14.1140	-31.282927	0.000174	1.736336	0.588286	0.014197
1648	8.2350e-01	-14.0611	-31.227763	0.000135	1.349321	0.457162	0.011033
1649	8.2400e-01	-14.0563	-31.175165	0.000129	1.286562	0.435899	0.010520
1650	8.2450e-01	-14.0322	-31.102897	0.000177	1.767715	0.598918	0.014454
1651	8.2500e-01	-13.9713	-31.046878	0.000137	1.370241	0.464250	0.011204
1652	8.2550e-01	-13.9199	-30.987438	0.000145	1.453920	0.492601	0.011888
1653	8.2600e-01	-13.8702	-30.935695	0.000127	1.265642	0.428811	0.010349
1654	8.2650e-01	-13.8173	-30.874972	0.000149	1.485299	0.503233	0.012145
1655	8.2700e-01	-13.8285	-30.830927	-0.000108	-1.077365	-0.365021	0.008809
1656	8.2750e-01	-13.7659	-30.763790	0.000164	1.642197	0.556391	0.013427
1657	8.2800e-01	-13.7066	-30.705633	0.000142	1.422540	0.481970	0.011631
1658	8.2850e-01	-13.7066	-30.641061	-0.000158	-1.579438	-0.535128	0.012914
1659	8.2900e-01	-13.6729	-30.583760	0.000140	1.401620	0.474882	0.011460
1660	8.2950e-01	-13.6231	-30.512774	0.000174	1.736336	0.588286	0.014197
1661	8.3000e-01	-13.5814	-30.455472	0.000140	1.401620	0.474882	0.011460
1662	8.3050e-01	-13.5173	-30.396460	0.000144	1.443460	0.489057	0.011802
1663	8.3100e-01	-13.5108	-30.331888	0.000158	1.579438	0.535128	0.012914
1664	8.3150e-01	-13.4756	-30.271593	0.000147	1.474839	0.499689	0.012059
1665	8.3200e-01	-13.3889	-30.212153	0.000145	1.453920	0.492601	0.011888
1666	8.3250e-01	-13.3472	-30.160838	0.000126	1.255182	0.425267	0.010263
1667	8.3300e-01	-13.3135	-30.095839	0.000159	1.589898	0.538672	0.013000
1668	8.3350e-01	-13.2863	-30.025709	0.000172	1.715416	0.581199	0.014026
1669	8.3400e-01	-13.2718	-29.964986	0.000149	1.485299	0.503233	0.012145
1670	8.3450e-01	-13.1788	-29.921368	0.000107	1.066905	0.361477	0.008724
1671	8.3500e-01	-13.1868	-29.858935	-0.000153	-1.527139	-0.517409	0.012487
1672	8.3550e-01	-13.1322	-29.793508	0.000160	1.600358	0.542216	0.013085
1673	8.3600e-01	-13.1018	-29.730220	0.000155	1.548058	0.524496	0.012658
1674	8.3650e-01	-13.0360	-29.674201	0.000137	1.370241	0.464250	0.011204
1675	8.3700e-01	-13.0039	-29.611340	0.000154	1.537598	0.520952	0.012572
1676	8.3750e-01	-12.9734	-29.549762	0.000151	1.506219	0.510321	0.012316
1677	8.3800e-01	-12.9012	-29.501440	0.000118	1.181963	0.400460	0.009664
1678	8.3850e-01	-12.8836	-29.425750	0.000185	1.851394	0.627269	0.015138
1679	8.3900e-01	-12.8852	-29.359896	-0.000161	-1.610817	-0.545760	0.013171
1680	8.3950e-01	-12.7970	-29.320982	0.000095	0.951847	0.322494	0.007783
1681	8.4000e-01	-12.7232	-29.258977	0.000152	1.516679	0.513865	0.012401
1682	8.4050e-01	-12.6991	-29.190984	0.000166	1.663117	0.563479	0.013598
1683	8.4100e-01	-12.6815	-29.122564	0.000167	1.673577	0.567023	0.013684
1684	8.4150e-01	-12.6622	-29.060986	0.000151	1.506219	0.510321	0.012316
1685	8.4200e-01	-12.6077	-29.007105	0.000132	1.317942	0.446531	0.010776
1686	8.4250e-01	-12.5275	-28.957501	0.000121	1.213343	0.411092	0.009921
1687	8.4300e-01	-12.5098	-28.889081	0.000167	1.673577	0.567023	0.013684
1688	8.4350e-01	-12.4713	-28.828358	0.000149	1.485299	0.503233	0.012145
1689	8.4400e-01	-12.4248	-28.727438	0.000247	2.468525	0.836359	0.020184
1690	8.4450e-01	-12.3991	-28.695794	0.000077	0.774029	0.262248	0.006329
1691	8.4500e-01	-12.3638	-28.631650	0.000157	1.568978	0.531584	0.012829
1692	8.4550e-01	-12.3141	-28.559382	0.000177	1.767715	0.598918	0.014454
1693	8.4600e-01	-12.2740	-28.508922	0.000123	1.234263	0.418180	0.010092
1694	8.4650e-01	-12.2531	-28.444778	0.000157	1.568978	0.531584	0.012829
1695	8.4700e-01	-12.2146	-28.388331	0.000138	1.380701	0.467794	0.011289
1696	8.4750e-01	-12.1585	-28.312642	0.000185	1.851394	0.627269	0.015138
1697	8.4800e-01	-12.0783	-28.261327	0.000126	1.255182	0.425267	0.010263
1698	8.4850e-01	-12.0879	-28.193762	-0.000165	-1.652657	-0.559935	0.013513
1699	8.4900e-01	-12.0478	-28.135177	0.000143	1.433000	0.485514	0.011717
1700	8.4950e-01	-12.0109	-28.068468	0.000163	1.631737	0.552848	0.013342
1701	8.5000e-01	-11.9772	-28.022712	0.000112	1.119204	0.379197	0.009151
1702	8.5050e-01	-11.9227	-27.943174	0.000195	1.945533	0.659164	0.015908
1703	8.5100e-01	-11.8954	-27.894852	0.000118	1.181963	0.400460	0.009664
1704	8.5150e-01	-11.8296	-27.822156	0.000178	1.778175	0.602462	0.014539
1705	8.5200e-01	-11.8039	-27.758439	0.000156	1.558518	0.528040	0.012743
1706	8.5250e-01	-11.7622	-27.700710	0.000141	1.412080	0.478426	0.011546
1707	8.5300e-01	-11.7350	-27.638704	0.000152	1.516679	0.513865	0.012401
1708	8.5350e-01	-11.6868	-27.580120	0.000143	1.433000	0.485514	0.011717
1709	8.5400e-01	-11.6339	-27.512127	0.000166	1.663117	0.563479	0.013598
1710	8.5450e-01	-11.5922	-27.455253	0.000139	1.391161	0.471338	0.011375
1711	8.5500e-01	-11.5890	-27.380846	0.000182	1.820015	0.616638	0.014881
1712	8.5550e-01	-11.5521	-27.319268	0.000151	1.506219	0.510321	0.012316
1713	8.5600e-01	-11.4863	-27.262822	0.000138	1.380701	0.467794	0.011289
1714	8.5650e-01	-11.4590	-27.182856	0.000196	1.955993	0.662708	0.015993
1715	8.5700e-01	-11.3868	-27.132824	0.000122	1.223803	0.414636	0.010006
1716	8.5750e-01	-11.3628	-27.068252	0.000158	1.579438	0.535128	0.012914
1717	8.5800e-01	-11.3179	-26.982727	0.000209	2.091971	0.708779	0.017105
1718	8.5850e-01	-11.3066	-26.936544	0.000113	1.129664	0.382741	0.009237
1719	8.5900e-01	-11.2633	-26.881808	0.000134	1.338861	0.453618	0.010947
1720	8.5950e-01	-11.1911	-26.806118	0.000185	1.851394	0.627269	0.015138
1721	8.6000e-01	-11.1398	-26.750954	0.000135	1.349321	0.457162	0.011033
1722	8.6050e-01	-11.1205	-26.677830	0.000179	1.788635	0.606006	0.014625
1723	8.6100e-01	-11.0885	-26.609838	0.000166	1.663117	0.563479	0.013598
1724	8.6150e-01	-11.0435	-26.555530	0.000133	1.328401	0.450075	0.010862
1725	8.6200e-01	-11.0211	-26.478129	0.000189	1.893233	0.641445	0.015480
1726	8.6250e-01	-10.9601	-26.406716	0.000175	1.746796	0.591830	0.014283
1727	8.6300e-01	-10.9024	-26.368657	0.000093	0.930927	0.315407	0.007612
1728	8.6350e-01	-10.8687	-26.294251	0.000182	1.820015	0.616638	0.014881
1729	8.6400e-01	-10.8542	-26.218561	0.000185	1.851394	0.627269	0.015138
1730	8.6450e-01	-10.8206	-26.159121	0.000145	1.453920	0.492601	0.011888
1731	8.6500e-01	-10.7548	-26.098826	0.000147	1.474839	0.499689	0.012059
1732	8.6550e-01	-10.7259	-26.033827	0.000159	1.589898	0.538672	0.013000
1733	8.6600e-01	-10.6890	-25.962413	0.000175	1.746796	0.591830	0.014283
1734	8.6650e-01	-10.6329	-25.912809	0.000121	1.213343	0.411092	0.009921
1735	8.6700e-01	-10.6313	-25.827711	0.000208	2.081511	0.705235	0.017019
1736	8.6750e-01	-10.5671	-25.776396	0.000126	1.255182	0.425267	0.010263
1737	8.6800e-01	-10.5045	-25.698569	0.000190	1.903693	0.644989	0.015566
1738	8.6850e-01	-10.4981	-25.637418	0.000150	1.495759	0.506777	0.012230
1739	8.6900e-01	-10.4291	-25.573274	0.000157	1.568978	0.531584	0.012829
1740	8.6950e-01	-10.3890	-25.499723	0.000180	1.799095	0.609550	0.014710
1741	8.7000e-01	-10.3666	-25.432586	0.000164	1.642197	0.556391	0.013427
1742	8.7050e-01	-10.3168	-25.366304	0.000162	1.621277	0.549304	0.013256
1743	8.7100e-01	-10.2960	-25.300449	0.000161	1.610817	0.545760	0.013171
1744	8.7150e-01	-10.2607	-25.246141	0.000133	1.328401	0.450075	0.010862
1745	8.7200e-01	-10.2125	-25.182425	0.000156	1.558518	0.528040	0.012743
1746	8.7250e-01	-10.1548	-25.120419	0.000152	1.516679	0.513865	0.012401
1747	8.7300e-01	-10.1580	-25.040881	-0.000195	-1.945533	-0.659164	0.015908
1748	8.7350e-01	-10.0810	-24.987855	0.000130	1.297022	0.439443	0.010605
1749	8.7400e-01	-10.0377	-24.922856	0.000159	1.589898	0.538672	0.013000
1750	8.7450e-01	-9.9880	-24.855719	0.000164	1.642197	0.556391	0.013427
1751	8.7500e-01	-9.9543	-24.778747	0.000188	1.882774	0.637901	0.015395
1752	8.7550e-01	-9.9206	-24.715886	0.000154	1.537598	0.520952	0.012572
1753	8.7600e-01	-9.8741	-24.653025	0.000154	1.537598	0.520952	0.012572
1754	8.7650e-01	-9.8372	-24.587598	0.000160	1.600358	0.542216	0.013085
1755	8.7700e-01	-9.8019	-24.522599	0.000159	1.589898	0.538672	0.013000
1756	8.7750e-01	-9.7553	-24.449047	0.000180	1.799095	0.609550	0.014710
1757	8.7800e-01	-9.7136	-24.377634	0.000175	1.746796	0.591830	0.014283
1758	8.7850e-01	-9.6687	-24.299806	0.000190	1.903693	0.644989	0.015566
1759	8.7900e-01	-9.6286	-24.231386	0.000167	1.673577	0.567023	0.013684
1760	8.7950e-01	-9.5949	-24.169808	0.000151	1.506219	0.510321	0.012316
1761	8.8000e-01	-9.5452	-24.083855	0.000210	2.102431	0.712323	0.017191
1762	8.8050e-01	-9.5131	-24.021850	0.000152	1.516679	0.513865	0.012401
1763	8.8100e-01	-9.4618	-23.938035	0.000205	2.050131	0.694603	0.016763
1764	8.8150e-01	-9.4473	-23.866622	0.000175	1.746796	0.591830	0.014283
1765	8.8200e-01	-9.3960	-23.805044	0.000151	1.506219	0.510321	0.012316
1766	8.8250e-01	-9.3527	-23.728071	0.000188	1.882774	0.637901	0.015395
1767	8.8300e-01	-9.3431	-23.662645	0.000160	1.600358	0.542216	0.013085
1768	8.8350e-01	-9.2612	-23.605770	0.000139	1.391161	0.471338	0.011375
1769	8.8400e-01	-9.2500	-23.520673	0.000208	2.081511	0.705235	0.017019
1770	8.8450e-01	-9.1810	-23.455674	0.000159	1.589898	0.538672	0.013000
1771	8.8500e-01	-9.1538	-23.394096	0.000151	1.506219	0.510321	0.012316
1772	8.8550e-01	-9.1201	-23.329952	0.000157	1.568978	0.531584	0.012829
1773	8.8600e-01	-9.0607	-23.261532	0.000167	1.673577	0.567023	0.013684
1774	8.8650e-01	-9.0254	-23.178145	0.000204	2.039671	0.691059	0.016677
1775	8.8700e-01	-8.9917	-23.129396	0.000119	1.192423	0.404004	0.009750
1776	8.8750e-01	-8.9388	-23.056272	0.000179	1.788635	0.606006	0.014625
1777	8.8800e-01	-8.8987	-23.005385	0.000124	1.244723	0.421723	0.010177
1778	8.8850e-01	-8.9115	-22.920715	-0.000207	-2.071051	-0.701691	0.016934
1779	8.8900e-01	-8.8570	-22.843315	0.000189	1.893233	0.641445	0.015480
1780	8.8950e-01	-8.8185	-22.792427	0.000124	1.244723	0.421723	0.010177
1781	8.9000e-01	-8.7768	-22.721441	0.000174	1.736336	0.588286	0.014197
1782	8.9050e-01	-8.7030	-22.649600	0.000176	1.757255	0.595374	0.014368
1783	8.9100e-01	-8.6677	-22.584174	0.000160	1.600358	0.542216	0.013085
1784	8.9150e-01	-8.6388	-22.516609	0.000165	1.652657	0.559935	0.013513
1785	8.9200e-01	-8.5618	-22.434932	0.000200	1.997832	0.676884	0.016335
1786	8.9250e-01	-8.5570	-22.386611	0.000118	1.181963	0.400460	0.009664
1787	8.9300e-01	-8.4928	-22.314342	0.000177	1.767715	0.598918	0.014454
1788	8.9350e-01	-8.4912	-22.239080	0.000184	1.840934	0.623725	0.015052
1789	8.9400e-01	-8.4511	-22.169377	0.000170	1.704956	0.577655	0.013941
1790	8.9450e-01	-8.4335	-22.106516	0.000154	1.537598	0.520952	0.012572
1791	8.9500e-01	-8.3725	-22.044511	0.000152	1.516679	0.513865	0.012401
1792	8.9550e-01	-8.3067	-21.961551	0.000203	2.029212	0.687515	0.016592
1793	8.9600e-01	-8.2843	-21.888427	0.000179	1.788635	0.606006	0.014625
1794	8.9650e-01	-8.2666	-21.815303	0.000179	1.788635	0.606006	0.014625
1795	8.9700e-01	-8.2281	-21.746028	0.000169	1.694496	0.574111	0.013855
1796	8.9750e-01	-8.1511	-21.679746	0.000162	1.621277	0.549304	0.013256
1797	8.9800e-01	-8.0789	-21.627148	0.000129	1.286562	0.435899	0.010520
1798	8.9850e-01	-8.0773	-21.542051	0.000208	2.081511	0.705235	0.017019
1799	8.9900e-01	-8.0645	-21.477479	0.000158	1.579438	0.535128	0.012914
1800	8.9950e-01	-8.0067	-21.394948	0.000202	2.018752	0.683972	0.016506
1801	9.0000e-01	-7.9554	-21.332087	0.000154	1.537598	0.520952	0.012572
1802	9.0050e-01	-7.9249	-21.257680	0.000182	1.820015	0.616638	0.014881
1803	9.0100e-01	-7.8992	-21.182846	0.000183	1.830474	0.620182	0.014967
1804	9.0150e-01	-7.8319	-21.128110	0.000134	1.338861	0.453618	0.010947
1805	9.0200e-01	-7.7853	-21.049427	0.000192	1.924613	0.652077	0.015737
1806	9.0250e-01	-7.7324	-20.994690	0.000134	1.338861	0.453618	0.010947
1807	9.0300e-01	-7.6955	-20.920284	0.000182	1.820015	0.616638	0.014881
1808	9.0350e-01	-7.6730	-20.839890	0.000197	1.966452	0.666252	0.016079
1809	9.0400e-01	-7.6730	-20.766339	-0.000180	-1.799095	-0.609550	0.014710
1810	9.0450e-01	-7.5944	-20.711603	0.000134	1.338861	0.453618	0.010947
1811	9.0500e-01	-7.5255	-20.623084	0.000217	2.165190	0.733586	0.017704
1812	9.0550e-01	-7.5030	-20.564499	0.000143	1.433000	0.485514	0.011717
1813	9.0600e-01	-7.4918	-20.484106	0.000197	1.966452	0.666252	0.016079
1814	9.0650e-01	-7.4629	-20.422100	0.000152	1.516679	0.513865	0.012401
1815	9.0700e-01	-7.4148	-20.349832	0.000177	1.767715	0.598918	0.014454
1816	9.0750e-01	-7.3843	-20.278846	0.000174	1.736336	0.588286	0.014197
1817	9.0800e-01	-7.3217	-20.207432	0.000175	1.746796	0.591830	0.014283
1818	9.0850e-01	-7.3009	-20.123190	0.000206	2.060591	0.698147	0.016848
1819	9.0900e-01	-7.2255	-20.063750	0.000145	1.453920	0.492601	0.011888
1820	9.0950e-01	-7.1998	-19.971383	0.000226	2.259328	0.765481	0.018473
1821	9.1000e-01	-7.1629	-19.907667	0.000156	1.558518	0.528040	0.012743
1822	9.1050e-01	-7.0987	-19.846517	0.000150	1.495759	0.506777	0.012230
1823	9.1100e-01	-7.0747	-19.777669	0.000168	1.684036	0.570567	0.013770
1824	9.1150e-01	-7.0426	-19.702835	0.000183	1.830474	0.620182	0.014967
1825	9.1200e-01	-7.0153	-19.632276	0.000173	1.725876	0.584743	0.014112
1826	9.1250e-01	-6.9479	-19.570698	0.000151	1.506219	0.510321	0.012316
1827	9.1300e-01	-6.8998	-19.489877	0.000198	1.976912	0.669796	0.016164
1828	9.1350e-01	-6.8870	-19.415470	0.000182	1.820015	0.616638	0.014881
1829	9.1400e-01	-6.8308	-19.338925	0.000187	1.872314	0.634357	0.015309
1830	9.1450e-01	-6.7683	-19.272216	0.000163	1.631737	0.552848	0.013342
1831	9.1500e-01	-6.7538	-19.193960	0.000191	1.914153	0.648533	0.015651
1832	9.1550e-01	-6.6784	-19.132382	0.000151	1.506219	0.510321	0.012316
1833	9.1600e-01	-6.6672	-19.058831	0.000180	1.799095	0.609550	0.014710
1834	9.1650e-01	-6.6560	-18.964753	0.000230	2.301168	0.779657	0.018816
1835	9.1700e-01	-6.6271	-18.897189	0.000165	1.652657	0.559935	0.013513
1836	9.1750e-01	-6.5389	-18.839459	0.000141	1.412080	0.478426	0.011546
1837	9.1800e-01	-6.5244	-18.763342	0.000186	1.861854	0.630813	0.015223
1838	9.1850e-01	-6.5020	-18.689363	0.000181	1.809555	0.613094	0.014796
1839	9.1900e-01	-6.4346	-18.623081	0.000162	1.621277	0.549304	0.013256
1840	9.1950e-01	-6.4362	-18.552095	-0.000174	-1.736336	-0.588286	0.014197
1841	9.2000e-01	-6.3945	-18.486241	0.000161	1.610817	0.545760	0.013171
1842	9.2050e-01	-6.3335	-18.412689	0.000180	1.799095	0.609550	0.014710
1843	9.2100e-01	-6.2742	-18.341703	0.000174	1.736336	0.588286	0.014197
1844	9.2150e-01	-6.2565	-18.287822	0.000132	1.317942	0.446531	0.010776
1845	9.2200e-01	-6.1923	-18.218547	0.000169	1.694496	0.574111	0.013855
1846	9.2250e-01	-6.1683	-18.153121	0.000160	1.600358	0.542216	0.013085
1847	9.2300e-01	-6.1522	-18.085128	0.000166	1.663117	0.563479	0.013598
1848	9.2350e-01	-6.1009	-18.012432	0.000178	1.778175	0.602462	0.014539
1849	9.2400e-01	-6.0367	-17.935032	0.000189	1.893233	0.641445	0.015480
1850	9.2450e-01	-6.0143	-17.854210	0.000198	1.976912	0.669796	0.016164
1851	9.2500e-01	-5.9774	-17.770396	0.000205	2.050131	0.694603	0.016763
1852	9.2550e-01	-5.9132	-17.702403	0.000166	1.663117	0.563479	0.013598
1853	9.2600e-01	-5.8956	-17.622438	0.000196	1.955993	0.662708	0.015993
1854	9.2650e-01	-5.8763	-17.548031	0.000182	1.820015	0.616638	0.014881
1855	9.2700e-01	-5.8121	-17.480466	0.000165	1.652657	0.559935	0.013513
1856	9.2750e-01	-5.7736	-17.407770	0.000178	1.778175	0.602462	0.014539
1857	9.2800e-01	-5.7095	-17.324383	0.000204	2.039671	0.691059	0.016677
1858	9.2850e-01	-5.6742	-17.247410	0.000188	1.882774	0.637901	0.015395
1859	9.2900e-01	-5.6469	-17.175569	0.000176	1.757255	0.595374	0.014368
1860	9.2950e-01	-5.6052	-17.092610	0.000203	2.029212	0.687515	0.016592
1861	9.3000e-01	-5.5587	-17.026328	0.000162	1.621277	0.549304	0.013256
1862	9.3050e-01	-5.5298	-16.951066	0.000184	1.840934	0.623725	0.015052
1863	9.3100e-01	-5.4817	-16.880935	0.000172	1.715416	0.581199	0.014026
1864	9.3150e-01	-5.4512	-16.812088	0.000168	1.684036	0.570567	0.013770
1865	9.3200e-01	-5.4031	-16.743668	0.000167	1.673577	0.567023	0.013684
1866	9.3250e-01	-5.3597	-16.656004	0.000214	2.144270	0.726498	0.017533
1867	9.3300e-01	-5.3357	-16.579460	0.000187	1.872314	0.634357	0.015309
1868	9.3350e-01	-5.3020	-16.502059	0.000189	1.893233	0.641445	0.015480
1869	9.3400e-01	-5.2458	-16.436205	0.000161	1.610817	0.545760	0.013171
1870	9.3450e-01	-5.2138	-16.371634	0.000158	1.579438	0.535128	0.012914
1871	9.3500e-01	-5.1608	-16.271569	0.000245	2.447606	0.829271	0.020013
1872	9.3550e-01	-5.1191	-16.204005	0.000165	1.652657	0.559935	0.013513
1873	9.3600e-01	-5.0630	-16.143709	0.000147	1.474839	0.499689	0.012059
1874	9.3650e-01	-5.0421	-16.050915	0.000227	2.269788	0.769025	0.018559
1875	9.3700e-01	-5.0036	-15.978218	0.000178	1.778175	0.602462	0.014539
1876	9.3750e-01	-4.9475	-15.888417	0.000220	2.196569	0.744218	0.017960
1877	9.3800e-01	-4.9314	-15.816148	0.000177	1.767715	0.598918	0.014454
1878	9.3850e-01	-4.8849	-15.738321	0.000190	1.903693	0.644989	0.015566
1879	9.3900e-01	-4.8319	-15.653223	0.000208	2.081511	0.705235	0.017019
1880	9.3950e-01	-4.7967	-15.575823	0.000189	1.893233	0.641445	0.015480
1881	9.4000e-01	-4.7566	-15.515528	0.000147	1.474839	0.499689	0.012059
1882	9.4050e-01	-4.6828	-15.430430	0.000208	2.081511	0.705235	0.017019
1883	9.4100e-01	-4.6763	-15.362010	0.000167	1.673577	0.567023	0.013684
1884	9.4150e-01	-4.6523	-15.281189	0.000198	1.976912	0.669796	0.016164
1885	9.4200e-01	-4.6250	-15.199940	0.000199	1.987372	0.673340	0.016250
1886	9.4250e-01	-4.5640	-15.119119	0.000198	1.976912	0.669796	0.016164
1887	9.4300e-01	-4.5432	-15.051127	0.000166	1.663117	0.563479	0.013598
1888	9.4350e-01	-4.4694	-14.960898	0.000221	2.207029	0.747762	0.018046
1889	9.4400e-01	-4.4453	-14.895044	0.000161	1.610817	0.545760	0.013171
1890	9.4450e-01	-4.4389	-14.801394	0.000229	2.290708	0.776113	0.018730
1891	9.4500e-01	-4.3555	-14.730408	0.000174	1.736336	0.588286	0.014197
1892	9.4550e-01	-4.3266	-14.650442	0.000196	1.955993	0.662708	0.015993
1893	9.4600e-01	-4.2384	-14.588864	0.000151	1.506219	0.510321	0.012316
1894	9.4650e-01	-4.2641	-14.500345	-0.000217	-2.165190	-0.733586	0.017704
1895	9.4700e-01	-4.2175	-14.421662	0.000192	1.924613	0.652077	0.015737
1896	9.4750e-01	-4.1662	-14.336565	0.000208	2.081511	0.705235	0.017019
1897	9.4800e-01	-4.1325	-14.257882	0.000192	1.924613	0.652077	0.015737
1898	9.4850e-01	-4.0844	-14.177061	0.000198	1.976912	0.669796	0.016164
1899	9.4900e-01	-4.0475	-14.097522	0.000195	1.945533	0.659164	0.015908
1900	9.4950e-01	-3.9705	-14.037655	0.000146	1.464380	0.496145	0.011974
1901	9.5000e-01	-3.9689	-13.949992	0.000214	2.144270	0.726498	0.017533
1902	9.5050e-01	-3.9127	-13.864039	0.000210	2.102431	0.712323	0.017191
1903	9.5100e-01	-3.8614	-13.776376	0.000214	2.144270	0.726498	0.017533
1904	9.5150e-01	-3.8341	-13.701541	0.000183	1.830474	0.620182	0.014967
1905	9.5200e-01	-3.8052	-13.616444	0.000208	2.081511	0.705235	0.017019
1906	9.5250e-01	-3.7395	-13.531774	0.000207	2.071051	0.701691	0.016934
1907	9.5300e-01	-3.7010	-13.479176	0.000129	1.286562	0.435899	0.010520
1908	9.5350e-01	-3.6994	-13.362435	0.000286	2.855540	0.967483	0.023348
1909	9.5400e-01	-3.6480	-13.278192	0.000206	2.060591	0.698147	0.016848
1910	9.5450e-01	-3.5951	-13.203786	0.000182	1.820015	0.616638	0.014881
1911	9.5500e-01	-3.5710	-13.118688	0.000208	2.081511	0.705235	0.017019
1912	9.5550e-01	-3.5373	-13.037439	0.000199	1.987372	0.673340	0.016250
1913	9.5600e-01	-3.4860	-12.955335	0.000201	2.008292	0.680428	0.016421
1914	9.5650e-01	-3.4459	-12.887771	0.000165	1.652657	0.559935	0.013513
1915	9.5700e-01	-3.4315	-12.796686	0.000223	2.227949	0.754849	0.018217
1916	9.5750e-01	-3.3689	-12.730832	0.000161	1.610817	0.545760	0.013171
1917	9.5800e-01	-3.3320	-12.635472	0.000233	2.332547	0.790288	0.019072
1918	9.5850e-01	-3.3015	-12.552512	0.000203	2.029212	0.687515	0.016592
1919	9.5900e-01	-3.2165	-12.479388	0.000179	1.788635	0.606006	0.014625
1920	9.5950e-01	-3.1668	-12.389159	0.000221	2.207029	0.747762	0.018046
1921	9.6000e-01	-3.1876	-12.312187	-0.000188	-1.882774	-0.637901	0.015395
1922	9.6050e-01	-3.1186	-12.232221	0.000196	1.955993	0.662708	0.015993
1923	9.6100e-01	-3.1170	-12.142420	0.000220	2.196569	0.744218	0.017960
1924	9.6150e-01	-3.0673	-12.043211	0.000243	2.426686	0.822183	0.019842
1925	9.6200e-01	-2.9775	-11.975218	0.000166	1.663117	0.563479	0.013598
1926	9.6250e-01	-2.9566	-11.877292	0.000240	2.395306	0.811552	0.019585
1927	9.6300e-01	-2.8732	-11.808872	0.000167	1.673577	0.567023	0.013684
1928	9.6350e-01	-2.8828	-11.729761	-0.000194	-1.935073	-0.655620	0.015822
1929	9.6400e-01	-2.8427	-11.636539	0.000228	2.280248	0.772569	0.018644
1930	9.6450e-01	-2.8042	-11.555290	0.000199	1.987372	0.673340	0.016250
1931	9.6500e-01	-2.7513	-11.475752	0.000195	1.945533	0.659164	0.015908
1932	9.6550e-01	-2.7336	-11.385951	0.000220	2.196569	0.744218	0.017960
1933	9.6600e-01	-2.6935	-11.304274	0.000200	1.997832	0.676884	0.016335
1934	9.6650e-01	-2.6582	-11.226446	0.000190	1.903693	0.644989	0.015566
1935	9.6700e-01	-2.6133	-11.115691	0.000271	2.709102	0.917869	0.022151
1936	9.6750e-01	-2.6005	-11.049837	0.000161	1.610817	0.545760	0.013171
1937	9.6800e-01	-2.5379	-10.966450	0.000204	2.039671	0.691059	0.016677
1938	9.6850e-01	-2.5074	-10.873228	0.000228	2.280248	0.772569	0.018644
1939	9.6900e-01	-2.4561	-10.788986	0.000206	2.060591	0.698147	0.016848
1940	9.6950e-01	-2.4176	-10.713724	0.000184	1.840934	0.623725	0.015052
1941	9.7000e-01	-2.3646	-10.618363	0.000233	2.332547	0.790288	0.019072
1942	9.7050e-01	-2.2860	-10.546522	0.000176	1.757255	0.595374	0.014368
1943	9.7100e-01	-2.2796	-10.453300	0.000228	2.280248	0.772569	0.018644
1944	9.7150e-01	-2.2347	-10.361788	0.000224	2.238409	0.758393	0.018302
1945	9.7200e-01	-2.2074	-10.292513	0.000169	1.694496	0.574111	0.013855
1946	9.7250e-01	-2.1641	-10.192876	0.000244	2.437146	0.825727	0.019927
1947	9.7300e-01	-2.1208	-10.118897	0.000181	1.809555	0.613094	0.014796
1948	9.7350e-01	-2.0743	-10.032517	0.000211	2.112890	0.715867	0.017276
1949	9.7400e-01	-2.0422	-9.953834	0.000192	1.924613	0.652077	0.015737
1950	9.7450e-01	-1.9844	-9.864032	0.000220	2.196569	0.744218	0.017960
1951	9.7500e-01	-1.9748	-9.781501	0.000202	2.018752	0.683972	0.016506
1952	9.7550e-01	-1.9122	-9.689989	0.000224	2.238409	0.758393	0.018302
1953	9.7600e-01	-1.8657	-9.605747	0.000206	2.060591	0.698147	0.016848
1954	9.7650e-01	-1.8385	-9.521504	0.000206	2.060591	0.698147	0.016848
1955	9.7700e-01	-1.7935	-9.445387	0.000186	1.861854	0.630813	0.015223
1956	9.7750e-01	-1.7486	-9.348744	0.000236	2.363927	0.800920	0.019329
1957	9.7800e-01	-1.7390	-9.245258	0.000253	2.531285	0.857622	0.020697
1958	9.7850e-01	-1.6860	-9.151181	0.000230	2.301168	0.779657	0.018816
1959	9.7900e-01	-1.6219	-9.072925	0.000191	1.914153	0.648533	0.015651
1960	9.7950e-01	-1.6139	-8.982269	0.000222	2.217489	0.751306	0.018131
1961	9.8000e-01	-1.5882	-8.895033	0.000213	2.133810	0.722954	0.017447
1962	9.8050e-01	-1.5160	-8.806515	0.000217	2.165190	0.733586	0.017704
1963	9.8100e-01	-1.4743	-8.720990	0.000209	2.091971	0.708779	0.017105
1964	9.8150e-01	-1.4358	-8.632471	0.000217	2.165190	0.733586	0.017704
1965	9.8200e-01	-1.3748	-8.552505	0.000196	1.955993	0.662708	0.015993
1966	9.8250e-01	-1.3796	-8.458856	-0.000229	-2.290708	-0.776113	0.018730
1967	9.8300e-01	-1.3251	-8.364778	0.000230	2.301168	0.779657	0.018816
1968	9.8350e-01	-1.2449	-8.292082	0.000178	1.778175	0.602462	0.014539
1969	9.8400e-01	-1.2609	-8.183037	-0.000267	-2.667263	-0.903693	0.021809
1970	9.8450e-01	-1.2176	-8.106920	0.000186	1.861854	0.630813	0.015223
1971	9.8500e-01	-1.1839	-8.027809	0.000194	1.935073	0.655620	0.015822
1972	9.8550e-01	-1.1567	-7.938863	0.000218	2.175650	0.737130	0.017789
1973	9.8600e-01	-1.0829	-7.838371	0.000246	2.458066	0.832815	0.020098
1974	9.8650e-01	-1.0411	-7.758405	0.000196	1.955993	0.662708	0.015993
1975	9.8700e-01	-1.0187	-7.672880	0.000209	2.091971	0.708779	0.017105
1976	9.8750e-01	-0.9641	-7.590349	0.000202	2.018752	0.683972	0.016506
1977	9.8800e-01	-0.9256	-7.481732	0.000266	2.656803	0.900149	0.021723
1978	9.8850e-01	-0.8839	-7.388082	0.000229	2.290708	0.776113	0.018730
1979	9.8900e-01	-0.8294	-7.307261	0.000198	1.976912	0.669796	0.016164
1980	9.8950e-01	-0.7973	-7.193940	0.000277	2.771861	0.939132	0.022664
1981	9.9000e-01	-0.8053	-7.136638	-0.000140	-1.401620	-0.474882	0.011460
1982	9.9050e-01	-0.7203	-7.024173	0.000275	2.750941	0.932044	0.022493
1983	9.9100e-01	-0.6658	-6.933516	0.000222	2.217489	0.751306	0.018131
1984	9.9150e-01	-0.6289	-6.847564	0.000210	2.102431	0.712323	0.017191
1985	9.9200e-01	-0.6224	-6.753486	0.000230	2.301168	0.779657	0.018816
1986	9.9250e-01	-0.5631	-6.666250	0.000213	2.133810	0.722954	0.017447
1987	9.9300e-01	-0.5214	-6.568752	0.000238	2.384847	0.808008	0.019500
1988	9.9350e-01	-0.4572	-6.489641	0.000194	1.935073	0.655620	0.015822
1989	9.9400e-01	-0.4540	-6.399840	0.000220	2.196569	0.744218	0.017960
1990	9.9450e-01	-0.3962	-6.305335	0.000231	2.311628	0.783201	0.018901
1991	9.9500e-01	-0.3577	-6.211685	0.000229	2.290708	0.776113	0.018730
1992	9.9550e-01	-0.3144	-6.122739	0.000218	2.175650	0.737130	0.017789
1993	9.9600e-01	-0.2759	-6.031227	0.000224	2.238409	0.758393	0.018302
1994	9.9650e-01	-0.2358	-5.935011	0.000235	2.353467	0.797376	0.019243
1995	9.9700e-01	-0.2118	-5.832381	0.000251	2.510365	0.850535	0.020526
1996	9.9750e-01	-0.1556	-5.733600	0.000242	2.416226	0.818640	0.019756
1997	9.9800e-01	-0.1299	-5.636956	0.000236	2.363927	0.800920	0.019329
1998	9.9850e-01	-0.1059	-5.542024	0.000232	2.322087	0.786745	0.018987
1999	9.9900e-01	-0.0241	-5.446235	0.000234	2.343007	0.793832	0.019158
2000	9.9950e-01	0.0433	-5.355579	0.000222	2.217489	0.751306	0.018131
2001	1.0000e+00	0.0529	-5.264067	0.000222	2.217489	0.751306	0.018302

Center data before PMax,+/-Pr and +/-Vc Calc.

PMax (uC/cm2):	3.82e+01
Pr (uC/cm2):	2.57e+00
-Pr (uC/cm2):	-5.26e+00
PLoss (uC/cm2):	-3.93e+00
Vc:	8.42e-01
-Vc:	-1.03e+00
C (Max-Eff) (nF):	1.91e-01
K (Eff):	6.46e+02
Vert. (+/-Pr) Shift (uC/cm2):	-1.35e+00
Horiz. Shift (+/-Vc):	-9.58e-02
Offset (uC/cm2):	1.35e+00

A (Loop Area - uC/cm2·Volts):	2.56e-01



Hysteresis Version: 5.48.1 - Radiant Technologies, Inc., 1999 - 9/12/24

