»»»»»»»»»»»»»»»»»»»»»»»»»»»»»»»»»»»» Hysteresis ««««««««««««««««««««««««««««««««««««
»»»  Executed Version:	5.48.1
»»»  Vision Version:	5.48.4 (R)
»»»  Vision Compiled:	9/18/24
»»»  Driver Version:	5.47.0
»»»  Windows Version:	Windows 8 or 8.1
»»»  Processor Information:	x86 (AMD or Intel) - 32 Processors
»»»  Tester Name:	PMF21124-494 (100V)
»»»  Tester S/N:	PMF21124-494
»»»  Internal Amp Type:	100V RevK 270k
»»»  Internal Amp S/N:	iAB2-596/K     
»»»  Execution Count:	1
»»»»»»»»»»»»»»»»»»»»»»»»»»»»»»»»»»»»»»»»»»««««««««««««««««««««««««««««««««««««««««««

Stored:	6/6/2025 - 14:21:9
Configured:	06/06/25 01:57:07 PM
Executed:	06/06/25 02:20:24 PM

»»»»»»»»»»»»»»»»»»»»»»»»»»»»»»»»»»» Sample Info ««««««««««««««««««««««««««««««««««««
Sample Name:	
Lot Name:	
Wafer Name:	
Die Row/Column:	0/0
Capacitor Number:	0
Sample Area (cm2):	1.00e-04
Sample Thickness (microns):	3.00e-01

Amplifier:	Internal

»»»»»»»»»»»»»»»»»»»»»»»»»»»»»»»»»»» Tester Info «««««««««««««««««««««««««««««««««««
Tester Name:	PMF21124-494 (100V)
Tester Serial Number:	PMF21124-494
Return Signal Amp. Level:	1.79 [Index: 2]

»»»»»»»»»»»»»»»»»»»»»»»»»»»»»»»» Hysteresis Info ««««««««««««««««««««««««««««««««««
Task Name:	Hyst-501
Volts:	20.00
Field:	666.67 (kV/cm)
DCBias:	0.00
DCField:	0.00 (kV/cm)
Hysteresis Period (ms):	1.00e+00
Preset:	Enabled
Preset Delay (ms):	1.00e+03
Profile:	Standard Bipolar

»»»»»»»»»»»»»»»»»»»»»»»»»»»»»»»»»»»»»» Data «««««««««««««««««««««««««««««««««««««««
Points:	2001

Valid Data

Point	Time (ms)	Drive Voltage	Measured Polarization (uC/cm2)	Capacitance (uF)	Normalized Capacitance (uF/cm2)	Dielectric Constant	Instantaneous Current (mA)
   1	0.0000e+00	0.0497	-1.557411	-0.000009	-0.094138	-0.031895	0.000770
   2	5.0000e-04	0.0497	-1.553563	-0.000009	-0.094138	-0.031895	0.000770
   3	1.0000e-03	0.1235	-1.551852	0.000004	0.041839	0.014175	0.000342
   4	1.5000e-03	0.1620	-1.549714	0.000005	0.052299	0.017719	0.000428
   5	2.0000e-03	0.2102	-1.545865	0.000009	0.094138	0.031895	0.000770
   6	2.5000e-03	0.2374	-1.536885	0.000022	0.219655	0.074421	0.001796
   7	3.0000e-03	0.2551	-1.522346	0.000036	0.355631	0.120491	0.002908
   8	3.5000e-03	0.3176	-1.512511	0.000024	0.240574	0.081509	0.001967
   9	4.0000e-03	0.3690	-1.499254	0.000032	0.324252	0.109860	0.002651
  10	4.5000e-03	0.3898	-1.479583	0.000048	0.481148	0.163017	0.003934
  11	5.0000e-03	0.4396	-1.462051	0.000043	0.428849	0.145298	0.003507
  12	5.5000e-03	0.4989	-1.438104	0.000059	0.585745	0.198456	0.004789
  13	6.0000e-03	0.5101	-1.418005	0.000049	0.491608	0.166561	0.004020
  14	6.5000e-03	0.5535	-1.397052	0.000051	0.512527	0.173649	0.004191
  15	7.0000e-03	0.5855	-1.371822	0.000062	0.617125	0.209088	0.005046
  16	7.5000e-03	0.6513	-1.334618	0.000091	0.909997	0.308315	0.007441
  17	8.0000e-03	0.6674	-1.310244	0.000060	0.596205	0.202000	0.004875
  18	8.5000e-03	0.7235	-1.270047	0.000098	0.983216	0.333122	0.008039
  19	9.0000e-03	0.7845	-1.243107	0.000066	0.658964	0.223263	0.005388
  20	9.5000e-03	0.8133	-1.205476	0.000092	0.920457	0.311859	0.007526
  21	1.0000e-02	0.8422	-1.165279	0.000098	0.983216	0.333122	0.008039
  22	1.0500e-02	0.8775	-1.128931	0.000089	0.889078	0.301228	0.007270
  23	1.1000e-02	0.9160	-1.084885	0.000108	1.077353	0.365017	0.008809
  24	1.1500e-02	0.9625	-1.054096	0.000075	0.753101	0.255158	0.006158
  25	1.2000e-02	1.0363	-1.004064	0.000122	1.223790	0.414631	0.010006
  26	1.2500e-02	1.0299	-0.962157	-0.000103	-1.025055	-0.347298	0.008381
  27	1.3000e-02	1.0604	-0.916401	0.000112	1.119192	0.379193	0.009151
  28	1.3500e-02	1.0861	-0.865086	0.000126	1.255169	0.425263	0.010263
  29	1.4000e-02	1.1807	-0.818475	0.000114	1.140112	0.386280	0.009322
  30	1.4500e-02	1.2048	-0.766732	0.000127	1.265629	0.428807	0.010349
  31	1.5000e-02	1.2513	-0.714989	0.000127	1.265629	0.428807	0.010349
  32	1.5500e-02	1.2689	-0.664530	0.000123	1.234249	0.418175	0.010092
  33	1.6000e-02	1.3042	-0.614925	0.000121	1.213330	0.411087	0.009921
  34	1.6500e-02	1.3524	-0.549926	0.000159	1.589881	0.538666	0.013000
  35	1.7000e-02	1.3941	-0.495190	0.000134	1.338847	0.453614	0.010947
  36	1.7500e-02	1.4181	-0.428053	0.000164	1.642179	0.556385	0.013427
  37	1.8000e-02	1.4470	-0.378448	0.000121	1.213330	0.411087	0.009921
  38	1.8500e-02	1.5000	-0.318581	0.000146	1.464364	0.496140	0.011974
  39	1.9000e-02	1.5545	-0.257858	0.000149	1.485283	0.503228	0.012145
  40	1.9500e-02	1.5978	-0.188583	0.000169	1.694478	0.574105	0.013855
  41	2.0000e-02	1.6427	-0.124439	0.000157	1.568961	0.531578	0.012829
  42	2.0500e-02	1.6556	-0.055164	0.000169	1.694478	0.574105	0.013855
  43	2.1000e-02	1.7149	0.013256	0.000167	1.673559	0.567017	0.013684
  44	2.1500e-02	1.7727	0.079538	0.000162	1.621260	0.549298	0.013256
  45	2.2000e-02	1.7951	0.155228	0.000185	1.851374	0.627263	0.015138
  46	2.2500e-02	1.8417	0.224931	0.000170	1.704938	0.577649	0.013941
  47	2.3000e-02	1.8834	0.295917	0.000174	1.736317	0.588280	0.014197
  48	2.3500e-02	1.9395	0.369468	0.000180	1.799075	0.609543	0.014710
  49	2.4000e-02	1.9556	0.445586	0.000186	1.861834	0.630806	0.015223
  50	2.4500e-02	2.0069	0.519565	0.000181	1.809535	0.613087	0.014796
  51	2.5000e-02	2.0406	0.593972	0.000182	1.819995	0.616631	0.014881
  52	2.5500e-02	2.0727	0.669661	0.000185	1.851374	0.627263	0.015138
  53	2.6000e-02	2.1048	0.745778	0.000186	1.861834	0.630806	0.015223
  54	2.6500e-02	2.1657	0.824889	0.000194	1.935052	0.655613	0.015822
  55	2.7000e-02	2.2219	0.902717	0.000190	1.903673	0.644982	0.015566
  56	2.7500e-02	2.2267	0.979262	0.000187	1.872294	0.634350	0.015309
  57	2.8000e-02	2.2941	1.060083	0.000198	1.976891	0.669789	0.016164
  58	2.8500e-02	2.3149	1.137483	0.000189	1.893213	0.641438	0.015480
  59	2.9000e-02	2.3502	1.225574	0.000215	2.154707	0.730034	0.017618
  60	2.9500e-02	2.3983	1.309389	0.000205	2.050109	0.694596	0.016763
  61	3.0000e-02	2.4400	1.389782	0.000197	1.966431	0.666245	0.016079
  62	3.0500e-02	2.4641	1.473597	0.000205	2.050109	0.694596	0.016763
  63	3.1000e-02	2.5138	1.557411	0.000205	2.050109	0.694596	0.016763
  64	3.1500e-02	2.5395	1.647213	0.000220	2.196546	0.744210	0.017960
  65	3.2000e-02	2.5812	1.722047	0.000183	1.830455	0.620175	0.014967
  66	3.2500e-02	2.6229	1.809283	0.000213	2.133787	0.722947	0.017447
  67	3.3000e-02	2.6935	1.894380	0.000208	2.081488	0.705227	0.017019
  68	3.3500e-02	2.7384	1.983754	0.000219	2.186086	0.740666	0.017875
  69	3.4000e-02	2.7737	2.068423	0.000207	2.071029	0.701684	0.016934
  70	3.4500e-02	2.8058	2.154376	0.000210	2.102408	0.712315	0.017191
  71	3.5000e-02	2.8315	2.242039	0.000214	2.144247	0.726491	0.017533
  72	3.5500e-02	2.8828	2.328420	0.000211	2.112868	0.715859	0.017276
  73	3.6000e-02	2.9341	2.418649	0.000221	2.207005	0.747754	0.018046
  74	3.6500e-02	2.9390	2.506739	0.000215	2.154707	0.730034	0.017618
  75	3.7000e-02	3.0176	2.592264	0.000209	2.091948	0.708771	0.017105
  76	3.7500e-02	3.0448	2.677362	0.000208	2.081488	0.705227	0.017019
  77	3.8000e-02	3.0657	2.758183	0.000198	1.976891	0.669789	0.016164
  78	3.8500e-02	3.1299	2.845846	0.000214	2.144247	0.726491	0.017533
  79	3.9000e-02	3.1603	2.936075	0.000221	2.207005	0.747754	0.018046
  80	3.9500e-02	3.1972	3.018179	0.000201	2.008270	0.680420	0.016421
  81	4.0000e-02	3.2422	3.103704	0.000209	2.091948	0.708771	0.017105
  82	4.0500e-02	3.2726	3.193506	0.000220	2.196546	0.744210	0.017960
  83	4.1000e-02	3.3304	3.272616	0.000194	1.935052	0.655613	0.015822
  84	4.1500e-02	3.3769	3.359852	0.000213	2.133787	0.722947	0.017447
  85	4.2000e-02	3.3753	3.445377	-0.000209	-2.091948	-0.708771	0.017105
  86	4.2500e-02	3.4170	3.533040	0.000214	2.144247	0.726491	0.017533
  87	4.3000e-02	3.4459	3.620703	0.000214	2.144247	0.726491	0.017533
  88	4.3500e-02	3.5197	3.707511	0.000212	2.123327	0.719403	0.017362
  89	4.4000e-02	3.5758	3.795602	0.000215	2.154707	0.730034	0.017618
  90	4.4500e-02	3.6111	3.877706	0.000201	2.008270	0.680420	0.016421
  91	4.5000e-02	3.6320	3.966652	0.000218	2.175626	0.737122	0.017789
  92	4.5500e-02	3.6673	4.045763	0.000194	1.935052	0.655613	0.015822
  93	4.6000e-02	3.6994	4.135564	0.000220	2.196546	0.744210	0.017960
  94	4.6500e-02	3.7796	4.227503	0.000225	2.248844	0.761929	0.018388
  95	4.7000e-02	3.7892	4.315594	0.000215	2.154707	0.730034	0.017618
  96	4.7500e-02	3.8325	4.397271	0.000200	1.997810	0.676877	0.016335
  97	4.8000e-02	3.8855	4.484934	0.000214	2.144247	0.726491	0.017533
  98	4.8500e-02	3.8951	4.571742	0.000212	2.123327	0.719403	0.017362
  99	4.9000e-02	3.9560	4.663254	0.000224	2.238385	0.758385	0.018302
 100	4.9500e-02	3.9785	4.747068	0.000205	2.050109	0.694596	0.016763
 101	5.0000e-02	4.0298	4.832593	0.000209	2.091948	0.708771	0.017105
 102	5.0500e-02	4.0972	4.921967	0.000219	2.186086	0.740666	0.017875
 103	5.1000e-02	4.1245	5.012623	0.000222	2.217465	0.751297	0.018131
 104	5.1500e-02	4.1566	5.099004	0.000211	2.112868	0.715859	0.017276
 105	5.2000e-02	4.2143	5.180680	0.000200	1.997810	0.676877	0.016335
 106	5.2500e-02	4.2448	5.266633	0.000210	2.102408	0.712315	0.017191
 107	5.3000e-02	4.2785	5.356862	0.000221	2.207005	0.747754	0.018046
 108	5.3500e-02	4.3026	5.444525	0.000214	2.144247	0.726491	0.017533
 109	5.4000e-02	4.3491	5.526629	0.000201	2.008270	0.680420	0.016421
 110	5.4500e-02	4.3812	5.617286	0.000222	2.217465	0.751297	0.018131
 111	5.5000e-02	4.4517	5.701528	0.000206	2.060569	0.698140	0.016848
 112	5.5500e-02	4.4694	5.787480	0.000210	2.102408	0.712315	0.017191
 113	5.6000e-02	4.4919	5.874716	0.000213	2.133787	0.722947	0.017447
 114	5.6500e-02	4.5608	5.960241	0.000209	2.091948	0.708771	0.017105
 115	5.7000e-02	4.6041	6.046621	0.000211	2.112868	0.715859	0.017276
 116	5.7500e-02	4.6683	6.131719	0.000208	2.081488	0.705227	0.017019
 117	5.8000e-02	4.6747	6.215961	0.000206	2.060569	0.698140	0.016848
 118	5.8500e-02	4.7213	6.300203	0.000206	2.060569	0.698140	0.016848
 119	5.9000e-02	4.7790	6.392143	0.000225	2.248844	0.761929	0.018388
 120	5.9500e-02	4.7983	6.480661	0.000217	2.165166	0.733578	0.017704
 121	6.0000e-02	4.7983	6.562337	-0.000200	-1.997810	-0.676877	0.016335
 122	6.0500e-02	4.8705	6.653422	0.000223	2.227925	0.754841	0.018217
 123	6.1000e-02	4.9202	6.741940	0.000217	2.165166	0.733578	0.017704
 124	6.1500e-02	4.9571	6.827893	0.000210	2.102408	0.712315	0.017191
 125	6.2000e-02	4.9940	6.909142	0.000199	1.987351	0.673333	0.016250
 126	6.2500e-02	5.0405	7.002791	0.000229	2.290683	0.776104	0.018730
 127	6.3000e-02	5.0870	7.090455	0.000214	2.144247	0.726491	0.017533
 128	6.3500e-02	5.1191	7.176407	0.000210	2.102408	0.712315	0.017191
 129	6.4000e-02	5.1704	7.263215	0.000212	2.123327	0.719403	0.017362
 130	6.4500e-02	5.1977	7.346175	0.000203	2.029190	0.687508	0.016592
 131	6.5000e-02	5.2378	7.435121	0.000218	2.175626	0.737122	0.017789
 132	6.5500e-02	5.2587	7.520218	0.000208	2.081488	0.705227	0.017019
 133	6.6000e-02	5.3196	7.609592	0.000219	2.186086	0.740666	0.017875
 134	6.6500e-02	5.3581	7.686992	0.000189	1.893213	0.641438	0.015480
 135	6.7000e-02	5.3998	7.779787	0.000227	2.269764	0.769017	0.018559
 136	6.7500e-02	5.4207	7.864884	0.000208	2.081488	0.705227	0.017019
 137	6.8000e-02	5.5041	7.946560	0.000200	1.997810	0.676877	0.016335
 138	6.8500e-02	5.5170	8.034651	0.000215	2.154707	0.730034	0.017618
 139	6.9000e-02	5.5522	8.118893	0.000206	2.060569	0.698140	0.016848
 140	6.9500e-02	5.5747	8.208695	0.000220	2.196546	0.744210	0.017960
 141	7.0000e-02	5.6228	8.290799	0.000201	2.008270	0.680420	0.016421
 142	7.0500e-02	5.7063	8.376324	0.000209	2.091948	0.708771	0.017105
 143	7.1000e-02	5.7175	8.466553	0.000221	2.207005	0.747754	0.018046
 144	7.1500e-02	5.7319	8.553361	0.000212	2.123327	0.719403	0.017362
 145	7.2000e-02	5.8073	8.638886	0.000209	2.091948	0.708771	0.017105
 146	7.2500e-02	5.8266	8.726121	0.000213	2.133787	0.722947	0.017447
 147	7.3000e-02	5.9004	8.812929	0.000212	2.123327	0.719403	0.017362
 148	7.3500e-02	5.9132	8.895889	0.000203	2.029190	0.687508	0.016592
 149	7.4000e-02	5.9661	8.984407	0.000217	2.165166	0.733578	0.017704
 150	7.4500e-02	6.0159	9.064373	0.000196	1.955972	0.662701	0.015993
 151	7.5000e-02	6.0335	9.147760	0.000204	2.039649	0.691052	0.016677
 152	7.5500e-02	6.0784	9.241837	0.000230	2.301143	0.779648	0.018816
 153	7.6000e-02	6.1282	9.319238	0.000189	1.893213	0.641438	0.015480
 154	7.6500e-02	6.1586	9.413315	0.000230	2.301143	0.779648	0.018816
 155	7.7000e-02	6.2116	9.503972	0.000222	2.217465	0.751297	0.018131
 156	7.7500e-02	6.2453	9.583938	0.000196	1.955972	0.662701	0.015993
 157	7.8000e-02	6.2742	9.671601	0.000214	2.144247	0.726491	0.017533
 158	7.8500e-02	6.3191	9.757126	0.000209	2.091948	0.708771	0.017105
 159	7.9000e-02	6.3768	9.846072	0.000218	2.175626	0.737122	0.017789
 160	7.9500e-02	6.3865	9.925183	0.000194	1.935052	0.655613	0.015822
 161	8.0000e-02	6.4233	10.011991	0.000212	2.123327	0.719403	0.017362
 162	8.0500e-02	6.4843	10.100937	0.000218	2.175626	0.737122	0.017789
 163	8.1000e-02	6.4683	10.181330	-0.000197	-1.966431	-0.666245	0.016079
 164	8.1500e-02	6.5308	10.263007	0.000200	1.997810	0.676877	0.016335
 165	8.2000e-02	6.6014	10.353663	0.000222	2.217465	0.751297	0.018131
 166	8.2500e-02	6.6544	10.436622	0.000203	2.029190	0.687508	0.016592
 167	8.3000e-02	6.6624	10.518299	0.000200	1.997810	0.676877	0.016335
 168	8.3500e-02	6.7233	10.600403	0.000201	2.008270	0.680420	0.016421
 169	8.4000e-02	6.7891	10.681652	0.000199	1.987351	0.673333	0.016250
 170	8.4500e-02	6.8019	10.768032	0.000211	2.112868	0.715859	0.017276
 171	8.5000e-02	6.8276	10.860399	0.000226	2.259304	0.765473	0.018473
 172	8.5500e-02	6.8902	10.939937	0.000195	1.945512	0.659157	0.015908
 173	8.6000e-02	6.9335	11.019903	0.000196	1.955972	0.662701	0.015993
 174	8.6500e-02	6.9223	11.110560	-0.000222	-2.217465	-0.751297	0.018131
 175	8.7000e-02	7.0137	11.190098	0.000195	1.945512	0.659157	0.015908
 176	8.7500e-02	7.0506	11.274768	0.000207	2.071029	0.701684	0.016934
 177	8.8000e-02	7.0747	11.356872	0.000201	2.008270	0.680420	0.016421
 178	8.8500e-02	7.1308	11.442825	0.000210	2.102408	0.712315	0.017191
 179	8.9000e-02	7.1436	11.524501	0.000200	1.997810	0.676877	0.016335
 180	8.9500e-02	7.1950	11.610454	0.000210	2.102408	0.712315	0.017191
 181	9.0000e-02	7.2271	11.695979	0.000209	2.091948	0.708771	0.017105
 182	9.0500e-02	7.2848	11.775517	0.000195	1.945512	0.659157	0.015908
 183	9.1000e-02	7.3394	11.861897	0.000211	2.112868	0.715859	0.017276
 184	9.1500e-02	7.3811	11.944002	0.000201	2.008270	0.680420	0.016421
 185	9.2000e-02	7.3923	12.029527	0.000209	2.091948	0.708771	0.017105
 186	9.2500e-02	7.4180	12.111631	0.000201	2.008270	0.680420	0.016421
 187	9.3000e-02	7.4661	12.198439	0.000212	2.123327	0.719403	0.017362
 188	9.3500e-02	7.5174	12.282253	0.000205	2.050109	0.694596	0.016763
 189	9.4000e-02	7.5607	12.360509	0.000191	1.914133	0.648526	0.015651
 190	9.4500e-02	7.5832	12.445178	0.000207	2.071029	0.701684	0.016934
 191	9.5000e-02	7.6345	12.525572	0.000197	1.966431	0.666245	0.016079
 192	9.5500e-02	7.6795	12.611097	0.000209	2.091948	0.708771	0.017105
 193	9.6000e-02	7.6875	12.693629	0.000202	2.018730	0.683964	0.016506
 194	9.6500e-02	7.7741	12.774450	0.000198	1.976891	0.669789	0.016164
 195	9.7000e-02	7.7998	12.862968	0.000217	2.165166	0.733578	0.017704
 196	9.7500e-02	7.7966	12.941224	-0.000191	-1.914133	-0.648526	0.015651
 197	9.8000e-02	7.8463	13.024183	0.000203	2.029190	0.687508	0.016592
 198	9.8500e-02	7.9297	13.103294	0.000194	1.935052	0.655613	0.015822
 199	9.9000e-02	7.9634	13.187536	0.000206	2.060569	0.698140	0.016848
 200	9.9500e-02	8.0035	13.269212	0.000200	1.997810	0.676877	0.016335
 201	1.0000e-01	8.0292	13.350889	0.000200	1.997810	0.676877	0.016335
 202	1.0050e-01	8.0982	13.429144	0.000191	1.914133	0.648526	0.015651
 203	1.0100e-01	8.1254	13.511676	0.000202	2.018730	0.683964	0.016506
 204	1.0150e-01	8.1527	13.595490	0.000205	2.050109	0.694596	0.016763
 205	1.0200e-01	8.2249	13.673318	0.000190	1.903673	0.644982	0.015566
 206	1.0250e-01	8.2217	13.758416	-0.000208	-2.081488	-0.705227	0.017019
 207	1.0300e-01	8.2907	13.839237	0.000198	1.976891	0.669789	0.016164
 208	1.0350e-01	8.3019	13.925189	0.000210	2.102408	0.712315	0.017191
 209	1.0400e-01	8.3645	14.007293	0.000201	2.008270	0.680420	0.016421
 210	1.0450e-01	8.3982	14.087259	0.000196	1.955972	0.662701	0.015993
 211	1.0500e-01	8.4302	14.164660	0.000189	1.893213	0.641438	0.015480
 212	1.0550e-01	8.4752	14.250185	0.000209	2.091948	0.708771	0.017105
 213	1.0600e-01	8.5169	14.327585	0.000189	1.893213	0.641438	0.015480
 214	1.0650e-01	8.5457	14.409261	0.000200	1.997810	0.676877	0.016335
 215	1.0700e-01	8.5955	14.486234	0.000188	1.882753	0.637894	0.015395
 216	1.0750e-01	8.6484	14.567910	0.000200	1.997810	0.676877	0.016335
 217	1.0800e-01	8.6420	14.653435	-0.000209	-2.091948	-0.708771	0.017105
 218	1.0850e-01	8.6917	14.732546	0.000194	1.935052	0.655613	0.015822
 219	1.0900e-01	8.7816	14.812084	0.000195	1.945512	0.659157	0.015908
 220	1.0950e-01	8.8249	14.893333	0.000199	1.987351	0.673333	0.016250
 221	1.1000e-01	8.8345	14.978430	0.000208	2.081488	0.705227	0.017019
 222	1.1050e-01	8.8842	15.062245	0.000205	2.050109	0.694596	0.016763
 223	1.1100e-01	8.9243	15.135797	0.000180	1.799075	0.609543	0.014710
 224	1.1150e-01	8.9612	15.220466	0.000207	2.071029	0.701684	0.016934
 225	1.1200e-01	9.0110	15.302998	0.000202	2.018730	0.683964	0.016506
 226	1.1250e-01	9.0575	15.378688	0.000185	1.851374	0.627263	0.015138
 227	1.1300e-01	9.0992	15.456943	0.000191	1.914133	0.648526	0.015651
 228	1.1350e-01	9.1233	15.535199	0.000191	1.914133	0.648526	0.015651
 229	1.1400e-01	9.1441	15.619441	0.000206	2.060569	0.698140	0.016848
 230	1.1450e-01	9.1923	15.697269	0.000190	1.903673	0.644982	0.015566
 231	1.1500e-01	9.2292	15.775952	0.000192	1.924592	0.652070	0.015737
 232	1.1550e-01	9.3158	15.857200	0.000199	1.987351	0.673333	0.016250
 233	1.1600e-01	9.3382	15.934173	0.000188	1.882753	0.637894	0.015395
 234	1.1650e-01	9.3623	16.019698	0.000209	2.091948	0.708771	0.017105
 235	1.1700e-01	9.4136	16.092822	0.000179	1.788616	0.605999	0.014625
 236	1.1750e-01	9.4618	16.175781	0.000203	2.029190	0.687508	0.016592
 237	1.1800e-01	9.4698	16.254464	0.000192	1.924592	0.652070	0.015737
 238	1.1850e-01	9.4955	16.336141	0.000200	1.997810	0.676877	0.016335
 239	1.1900e-01	9.5404	16.413969	0.000190	1.903673	0.644982	0.015566
 240	1.1950e-01	9.5757	16.487520	0.000180	1.799075	0.609543	0.014710
 241	1.2000e-01	9.6238	16.570479	0.000203	2.029190	0.687508	0.016592
 242	1.2050e-01	9.6928	16.656860	0.000211	2.112868	0.715859	0.017276
 243	1.2100e-01	9.7136	16.732977	0.000186	1.861834	0.630806	0.015223
 244	1.2150e-01	9.7393	16.809094	0.000186	1.861834	0.630806	0.015223
 245	1.2200e-01	9.7714	16.893764	0.000207	2.071029	0.701684	0.016934
 246	1.2250e-01	9.8259	16.976296	0.000202	2.018730	0.683964	0.016506
 247	1.2300e-01	9.8708	17.049420	0.000179	1.788616	0.605999	0.014625
 248	1.2350e-01	9.9158	17.134090	0.000207	2.071029	0.701684	0.016934
 249	1.2400e-01	9.9478	17.211062	0.000188	1.882753	0.637894	0.015395
 250	1.2450e-01	9.9960	17.289745	0.000192	1.924592	0.652070	0.015737
 251	1.2500e-01	10.0184	17.366290	0.000187	1.872294	0.634350	0.015309
 252	1.2550e-01	10.0906	17.444973	0.000192	1.924592	0.652070	0.015737
 253	1.2600e-01	10.1307	17.518525	0.000180	1.799075	0.609543	0.014710
 254	1.2650e-01	10.1500	17.597208	0.000192	1.924592	0.652070	0.015737
 255	1.2700e-01	10.1853	17.681450	0.000206	2.060569	0.698140	0.016848
 256	1.2750e-01	10.2382	17.756712	0.000184	1.840914	0.623719	0.015052
 257	1.2800e-01	10.2799	17.827698	0.000174	1.736317	0.588280	0.014197
 258	1.2850e-01	10.3232	17.908947	0.000199	1.987351	0.673333	0.016250
 259	1.2900e-01	10.3489	17.990195	0.000199	1.987351	0.673333	0.016250
 260	1.2950e-01	10.3730	18.062892	0.000178	1.778156	0.602456	0.014539
 261	1.3000e-01	10.4307	18.140719	0.000190	1.903673	0.644982	0.015566
 262	1.3050e-01	10.4949	18.212560	0.000176	1.757236	0.595368	0.014368
 263	1.3100e-01	10.5254	18.295520	0.000203	2.029190	0.687508	0.016592
 264	1.3150e-01	10.5559	18.371209	0.000185	1.851374	0.627263	0.015138
 265	1.3200e-01	10.5927	18.449892	0.000192	1.924592	0.652070	0.015737
 266	1.3250e-01	10.6361	18.526010	0.000186	1.861834	0.630806	0.015223
 267	1.3300e-01	10.6810	18.599989	0.000181	1.809535	0.613087	0.014796
 268	1.3350e-01	10.7307	18.678244	0.000191	1.914133	0.648526	0.015651
 269	1.3400e-01	10.7580	18.758210	0.000196	1.955972	0.662701	0.015993
 270	1.3450e-01	10.8093	18.831334	0.000179	1.788616	0.605999	0.014625
 271	1.3500e-01	10.8157	18.908734	0.000189	1.893213	0.641438	0.015480
 272	1.3550e-01	10.8687	18.984852	0.000186	1.861834	0.630806	0.015223
 273	1.3600e-01	10.9152	19.060114	0.000184	1.840914	0.623719	0.015052
 274	1.3650e-01	10.9441	19.134521	0.000182	1.819995	0.616631	0.014881
 275	1.3700e-01	11.0066	19.214059	0.000195	1.945512	0.659157	0.015908
 276	1.3750e-01	11.0403	19.290176	0.000186	1.861834	0.630806	0.015223
 277	1.3800e-01	11.1045	19.368004	0.000190	1.903673	0.644982	0.015566
 278	1.3850e-01	11.1157	19.444549	0.000187	1.872294	0.634350	0.015309
 279	1.3900e-01	11.1590	19.522377	0.000190	1.903673	0.644982	0.015566
 280	1.3950e-01	11.1911	19.601487	0.000194	1.935052	0.655613	0.015822
 281	1.4000e-01	11.2312	19.678888	0.000189	1.893213	0.641438	0.015480
 282	1.4050e-01	11.2745	19.751156	0.000177	1.767696	0.598912	0.014454
 283	1.4100e-01	11.3114	19.827273	0.000186	1.861834	0.630806	0.015223
 284	1.4150e-01	11.3804	19.903391	0.000186	1.861834	0.630806	0.015223
 285	1.4200e-01	11.4061	19.984640	0.000199	1.987351	0.673333	0.016250
 286	1.4250e-01	11.4430	20.057764	0.000179	1.788616	0.605999	0.014625
 287	1.4300e-01	11.4590	20.134736	0.000188	1.882753	0.637894	0.015395
 288	1.4350e-01	11.5344	20.208288	0.000180	1.799075	0.609543	0.014710
 289	1.4400e-01	11.5537	20.285260	0.000188	1.882753	0.637894	0.015395
 290	1.4450e-01	11.5858	20.367792	0.000202	2.018730	0.683964	0.016506
 291	1.4500e-01	11.6451	20.436212	0.000167	1.673559	0.567017	0.013684
 292	1.4550e-01	11.6708	20.516605	0.000197	1.966431	0.666245	0.016079
 293	1.4600e-01	11.7318	20.594433	0.000190	1.903673	0.644982	0.015566
 294	1.4650e-01	11.7622	20.666702	0.000177	1.767696	0.598912	0.014454
 295	1.4700e-01	11.7815	20.736405	0.000170	1.704938	0.577649	0.013941
 296	1.4750e-01	11.8473	20.806108	0.000170	1.704938	0.577649	0.013941
 297	1.4800e-01	11.8858	20.892060	0.000210	2.102408	0.712315	0.017191
 298	1.4850e-01	11.9227	20.963474	0.000175	1.746777	0.591824	0.014283
 299	1.4900e-01	11.9660	21.033604	0.000172	1.715397	0.581192	0.014026
 300	1.4950e-01	12.0157	21.109294	0.000185	1.851374	0.627263	0.015138
 301	1.5000e-01	12.0446	21.187122	0.000190	1.903673	0.644982	0.015566
 302	1.5050e-01	12.1184	21.258535	0.000175	1.746777	0.591824	0.014283
 303	1.5100e-01	12.1248	21.332087	0.000180	1.799075	0.609543	0.014710
 304	1.5150e-01	12.1456	21.402645	0.000173	1.725857	0.584736	0.014112
 305	1.5200e-01	12.2612	21.481756	0.000194	1.935052	0.655613	0.015822
 306	1.5250e-01	12.2563	21.559156	-0.000189	-1.893213	-0.641438	0.015480
 307	1.5300e-01	12.2884	21.629714	0.000173	1.725857	0.584736	0.014112
 308	1.5350e-01	12.3349	21.701983	0.000177	1.767696	0.598912	0.014454
 309	1.5400e-01	12.3590	21.778528	0.000187	1.872294	0.634350	0.015309
 310	1.5450e-01	12.4007	21.851652	0.000179	1.788616	0.605999	0.014625
 311	1.5500e-01	12.4488	21.926914	0.000184	1.840914	0.623719	0.015052
 312	1.5550e-01	12.4713	22.001320	0.000182	1.819995	0.616631	0.014881
 313	1.5600e-01	12.5018	22.073589	0.000177	1.767696	0.598912	0.014454
 314	1.5650e-01	12.5595	22.144575	0.000174	1.736317	0.588280	0.014197
 315	1.5700e-01	12.5836	22.220265	0.000185	1.851374	0.627263	0.015138
 316	1.5750e-01	12.6558	22.281843	0.000151	1.506203	0.510315	0.012316
 317	1.5800e-01	12.6831	22.366512	0.000207	2.071029	0.701684	0.016934
 318	1.5850e-01	12.7296	22.440919	0.000182	1.819995	0.616631	0.014881
 319	1.5900e-01	12.7617	22.508484	0.000165	1.652639	0.559929	0.013513
 320	1.5950e-01	12.8355	22.579042	0.000173	1.725857	0.584736	0.014112
 321	1.6000e-01	12.8403	22.650456	0.000175	1.746777	0.591824	0.014283
 322	1.6050e-01	12.8788	22.725290	0.000183	1.830455	0.620175	0.014967
 323	1.6100e-01	12.9125	22.806111	0.000198	1.976891	0.669789	0.016164
 324	1.6150e-01	12.9109	22.871110	-0.000159	-1.589881	-0.538666	0.013000
 325	1.6200e-01	12.9879	22.945945	0.000183	1.830455	0.620175	0.014967
 326	1.6250e-01	13.0264	23.016075	0.000172	1.715397	0.581192	0.014026
 327	1.6300e-01	13.0633	23.096041	0.000196	1.955972	0.662701	0.015993
 328	1.6350e-01	13.1371	23.162751	0.000163	1.631720	0.552842	0.013342
 329	1.6400e-01	13.1515	23.233309	0.000173	1.725857	0.584736	0.014112
 330	1.6450e-01	13.1836	23.306433	0.000179	1.788616	0.605999	0.014625
 331	1.6500e-01	13.2574	23.374853	0.000167	1.673559	0.567017	0.013684
 332	1.6550e-01	13.2766	23.451398	0.000187	1.872294	0.634350	0.015309
 333	1.6600e-01	13.3007	23.525804	0.000182	1.819995	0.616631	0.014881
 334	1.6650e-01	13.3472	23.589948	0.000157	1.568961	0.531578	0.012829
 335	1.6700e-01	13.4002	23.666066	0.000186	1.861834	0.630806	0.015223
 336	1.6750e-01	13.4258	23.737479	0.000175	1.746777	0.591824	0.014283
 337	1.6800e-01	13.4419	23.813596	0.000186	1.861834	0.630806	0.015223
 338	1.6850e-01	13.4996	23.882016	0.000167	1.673559	0.567017	0.013684
 339	1.6900e-01	13.5461	23.954285	0.000177	1.767696	0.598912	0.014454
 340	1.6950e-01	13.5991	24.028692	0.000182	1.819995	0.616631	0.014881
 341	1.7000e-01	13.6376	24.103526	0.000183	1.830455	0.620175	0.014967
 342	1.7050e-01	13.6584	24.170236	0.000163	1.631720	0.552842	0.013342
 343	1.7100e-01	13.7018	24.245070	0.000183	1.830455	0.620175	0.014967
 344	1.7150e-01	13.7627	24.313490	0.000167	1.673559	0.567017	0.013684
 345	1.7200e-01	13.7804	24.385331	0.000176	1.757236	0.595368	0.014368
 346	1.7250e-01	13.8189	24.456745	0.000175	1.746777	0.591824	0.014283
 347	1.7300e-01	13.8846	24.526020	0.000169	1.694478	0.574105	0.013855
 348	1.7350e-01	13.9183	24.597861	0.000176	1.757236	0.595368	0.014368
 349	1.7400e-01	13.9681	24.665853	0.000166	1.663099	0.563473	0.013598
 350	1.7450e-01	13.9905	24.739833	0.000181	1.809535	0.613087	0.014796
 351	1.7500e-01	14.0146	24.805687	0.000161	1.610800	0.545754	0.013171
 352	1.7550e-01	14.0787	24.880949	0.000184	1.840914	0.623719	0.015052
 353	1.7600e-01	14.1301	24.951507	0.000173	1.725857	0.584736	0.014112
 354	1.7650e-01	14.1734	25.016079	0.000158	1.579421	0.535122	0.012914
 355	1.7700e-01	14.2103	25.090058	0.000181	1.809535	0.613087	0.014796
 356	1.7750e-01	14.2648	25.160616	0.000173	1.725857	0.584736	0.014112
 357	1.7800e-01	14.2777	25.230746	0.000172	1.715397	0.581192	0.014026
 358	1.7850e-01	14.2873	25.309430	0.000192	1.924592	0.652070	0.015737
 359	1.7900e-01	14.3402	25.369297	0.000146	1.464364	0.496140	0.011974
 360	1.7950e-01	14.4060	25.446270	0.000188	1.882753	0.637894	0.015395
 361	1.8000e-01	14.4317	25.514690	0.000167	1.673559	0.567017	0.013684
 362	1.8050e-01	14.4750	25.586103	0.000175	1.746777	0.591824	0.014283
 363	1.8100e-01	14.5119	25.651957	0.000161	1.610800	0.545754	0.013171
 364	1.8150e-01	14.5520	25.717384	0.000160	1.600340	0.542210	0.013085
 365	1.8200e-01	14.5969	25.789653	0.000177	1.767696	0.598912	0.014454
 366	1.8250e-01	14.6306	25.860211	0.000173	1.725857	0.584736	0.014112
 367	1.8300e-01	14.6964	25.922217	0.000152	1.516662	0.513859	0.012401
 368	1.8350e-01	14.7269	25.997906	0.000185	1.851374	0.627263	0.015138
 369	1.8400e-01	14.7509	26.064616	0.000163	1.631720	0.552842	0.013342
 370	1.8450e-01	14.8087	26.137312	0.000178	1.778156	0.602456	0.014539
 371	1.8500e-01	14.8359	26.209153	0.000176	1.757236	0.595368	0.014368
 372	1.8550e-01	14.8777	26.276290	0.000164	1.642179	0.556385	0.013427
 373	1.8600e-01	14.8985	26.349414	0.000179	1.788616	0.605999	0.014625
 374	1.8650e-01	14.9563	26.417834	0.000167	1.673559	0.567017	0.013684
 375	1.8700e-01	14.9851	26.491813	0.000181	1.809535	0.613087	0.014796
 376	1.8750e-01	15.0252	26.558951	0.000164	1.642179	0.556385	0.013427
 377	1.8800e-01	15.0830	26.634213	0.000184	1.840914	0.623719	0.015052
 378	1.8850e-01	15.0782	26.706481	-0.000177	-1.767696	-0.598912	0.014454
 379	1.8900e-01	15.1776	26.771480	0.000159	1.589881	0.538666	0.013000
 380	1.8950e-01	15.1873	26.844604	0.000179	1.788616	0.605999	0.014625
 381	1.9000e-01	15.2370	26.909603	0.000159	1.589881	0.538666	0.013000
 382	1.9050e-01	15.3060	26.974175	0.000158	1.579421	0.535122	0.012914
 383	1.9100e-01	15.3124	27.047299	0.000179	1.788616	0.605999	0.014625
 384	1.9150e-01	15.3862	27.110160	0.000154	1.537582	0.520947	0.012572
 385	1.9200e-01	15.3830	27.186704	-0.000187	-1.872294	-0.634350	0.015309
 386	1.9250e-01	15.4632	27.255125	0.000167	1.673559	0.567017	0.013684
 387	1.9300e-01	15.5113	27.330814	0.000185	1.851374	0.627263	0.015138
 388	1.9350e-01	15.5258	27.394958	0.000157	1.568961	0.531578	0.012829
 389	1.9400e-01	15.5755	27.462950	0.000166	1.663099	0.563473	0.013598
 390	1.9450e-01	15.5787	27.534791	0.000176	1.757236	0.595368	0.014368
 391	1.9500e-01	15.6252	27.606205	0.000175	1.746777	0.591824	0.014283
 392	1.9550e-01	15.6782	27.669921	0.000156	1.558501	0.528035	0.012743
 393	1.9600e-01	15.7086	27.735775	0.000161	1.610800	0.545754	0.013171
 394	1.9650e-01	15.7359	27.810610	0.000183	1.830455	0.620175	0.014967
 395	1.9700e-01	15.7985	27.882878	0.000177	1.767696	0.598912	0.014454
 396	1.9750e-01	15.8306	27.953864	0.000174	1.736317	0.588280	0.014197
 397	1.9800e-01	15.8915	28.020146	0.000162	1.621260	0.549298	0.013256
 398	1.9850e-01	15.9236	28.089849	0.000170	1.704938	0.577649	0.013941
 399	1.9900e-01	15.9589	28.159980	0.000172	1.715397	0.581192	0.014026
 400	1.9950e-01	15.9846	28.227117	0.000164	1.642179	0.556385	0.013427
 401	2.0000e-01	16.0135	28.288267	0.000150	1.495743	0.506771	0.012230
 402	2.0050e-01	16.0776	28.358825	0.000173	1.725857	0.584736	0.014112
 403	2.0100e-01	16.1177	28.426390	0.000165	1.652639	0.559929	0.013513
 404	2.0150e-01	16.1594	28.494810	0.000167	1.673559	0.567017	0.013684
 405	2.0200e-01	16.1402	28.562803	-0.000166	-1.663099	-0.563473	0.013598
 406	2.0250e-01	16.2380	28.629085	0.000162	1.621260	0.549298	0.013256
 407	2.0300e-01	16.3134	28.690663	0.000151	1.506203	0.510315	0.012316
 408	2.0350e-01	16.3167	28.762504	0.000176	1.757236	0.595368	0.014368
 409	2.0400e-01	16.3600	28.829641	0.000164	1.642179	0.556385	0.013427
 410	2.0450e-01	16.3888	28.892074	0.000153	1.527122	0.517403	0.012487
 411	2.0500e-01	16.4482	28.958356	0.000162	1.621260	0.549298	0.013256
 412	2.0550e-01	16.4755	29.024210	0.000161	1.610800	0.545754	0.013171
 413	2.0600e-01	16.4979	29.091347	0.000164	1.642179	0.556385	0.013427
 414	2.0650e-01	16.5894	29.153353	0.000152	1.516662	0.513859	0.012401
 415	2.0700e-01	16.6166	29.223911	0.000173	1.725857	0.584736	0.014112
 416	2.0750e-01	16.6423	29.291476	0.000165	1.652639	0.559929	0.013513
 417	2.0800e-01	16.6728	29.357330	0.000161	1.610800	0.545754	0.013171
 418	2.0850e-01	16.7273	29.421902	0.000158	1.579421	0.535122	0.012914
 419	2.0900e-01	16.7402	29.491177	0.000169	1.694478	0.574105	0.013855
 420	2.0950e-01	16.8027	29.557887	0.000163	1.631720	0.552842	0.013342
 421	2.1000e-01	16.8172	29.623313	0.000160	1.600340	0.542210	0.013085
 422	2.1050e-01	16.8733	29.690023	0.000163	1.631720	0.552842	0.013342
 423	2.1100e-01	16.9439	29.753739	0.000156	1.558501	0.528035	0.012743
 424	2.1150e-01	16.9952	29.820876	0.000164	1.642179	0.556385	0.013427
 425	2.1200e-01	16.9952	29.894855	-0.000181	-1.809535	-0.613087	0.014796
 426	2.1250e-01	17.0370	29.948308	0.000131	1.307468	0.442982	0.010691
 427	2.1300e-01	17.0883	30.016729	0.000167	1.673559	0.567017	0.013684
 428	2.1350e-01	17.0979	30.083010	0.000162	1.621260	0.549298	0.013256
 429	2.1400e-01	17.1557	30.150148	0.000164	1.642179	0.556385	0.013427
 430	2.1450e-01	17.1974	30.217285	0.000164	1.642179	0.556385	0.013427
 431	2.1500e-01	17.2423	30.281429	0.000157	1.568961	0.531578	0.012829
 432	2.1550e-01	17.2888	30.345572	0.000157	1.568961	0.531578	0.012829
 433	2.1600e-01	17.3241	30.415703	0.000172	1.715397	0.581192	0.014026
 434	2.1650e-01	17.3626	30.484123	0.000167	1.673559	0.567017	0.013684
 435	2.1700e-01	17.3995	30.549122	0.000159	1.589881	0.538666	0.013000
 436	2.1750e-01	17.4123	30.620108	0.000174	1.736317	0.588280	0.014197
 437	2.1800e-01	17.5102	30.682113	0.000152	1.516662	0.513859	0.012401
 438	2.1850e-01	17.5407	30.751389	0.000169	1.694478	0.574105	0.013855
 439	2.1900e-01	17.5455	30.818098	0.000163	1.631720	0.552842	0.013342
 440	2.1950e-01	17.5936	30.880104	0.000152	1.516662	0.513859	0.012401
 441	2.2000e-01	17.6289	30.952800	0.000178	1.778156	0.602456	0.014539
 442	2.2050e-01	17.6546	31.018655	0.000161	1.610800	0.545754	0.013171
 443	2.2100e-01	17.7204	31.079377	0.000149	1.485283	0.503228	0.012145
 444	2.2150e-01	17.7605	31.147797	0.000167	1.673559	0.567017	0.013684
 445	2.2200e-01	17.7974	31.211086	0.000155	1.548042	0.524491	0.012658
 446	2.2250e-01	17.8343	31.280361	0.000169	1.694478	0.574105	0.013855
 447	2.2300e-01	17.8824	31.349209	0.000168	1.684018	0.570561	0.013770
 448	2.2350e-01	17.9514	31.411215	0.000152	1.516662	0.513859	0.012401
 449	2.2400e-01	17.9482	31.480490	-0.000169	-1.694478	-0.574105	0.013855
 450	2.2450e-01	18.0171	31.543778	0.000155	1.548042	0.524491	0.012658
 451	2.2500e-01	18.0492	31.607067	0.000155	1.548042	0.524491	0.012658
 452	2.2550e-01	18.0637	31.669928	0.000154	1.537582	0.520947	0.012572
 453	2.2600e-01	18.1342	31.745618	0.000185	1.851374	0.627263	0.015138
 454	2.2650e-01	18.1744	31.814038	0.000167	1.673559	0.567017	0.013684
 455	2.2700e-01	18.1904	31.875616	0.000151	1.506203	0.510315	0.012316
 456	2.2750e-01	18.2481	31.945746	0.000172	1.715397	0.581192	0.014026
 457	2.2800e-01	18.2802	32.006469	0.000149	1.485283	0.503228	0.012145
 458	2.2850e-01	18.3332	32.075744	0.000169	1.694478	0.574105	0.013855
 459	2.2900e-01	18.3845	32.140316	0.000158	1.579421	0.535122	0.012914
 460	2.2950e-01	18.4038	32.208308	0.000166	1.663099	0.563473	0.013598
 461	2.3000e-01	18.4423	32.273307	0.000159	1.589881	0.538666	0.013000
 462	2.3050e-01	18.4695	32.341727	0.000167	1.673559	0.567017	0.013684
 463	2.3100e-01	18.5048	32.405443	0.000156	1.558501	0.528035	0.012743
 464	2.3150e-01	18.5497	32.470870	0.000160	1.600340	0.542210	0.013085
 465	2.3200e-01	18.5738	32.539290	0.000167	1.673559	0.567017	0.013684
 466	2.3250e-01	18.6284	32.603861	0.000158	1.579421	0.535122	0.012914
 467	2.3300e-01	18.6636	32.670999	0.000164	1.642179	0.556385	0.013427
 468	2.3350e-01	18.7374	32.734715	0.000156	1.558501	0.528035	0.012743
 469	2.3400e-01	18.7872	32.792872	0.000142	1.422525	0.481964	0.011631
 470	2.3450e-01	18.8112	32.861292	0.000167	1.673559	0.567017	0.013684
 471	2.3500e-01	18.8529	32.930567	0.000169	1.694478	0.574105	0.013855
 472	2.3550e-01	18.9155	32.991290	0.000149	1.485283	0.503228	0.012145
 473	2.3600e-01	18.9187	33.061420	0.000172	1.715397	0.581192	0.014026
 474	2.3650e-01	18.9813	33.124281	0.000154	1.537582	0.520947	0.012572
 475	2.3700e-01	18.9861	33.186715	0.000153	1.527122	0.517403	0.012487
 476	2.3750e-01	19.0647	33.245299	0.000143	1.432984	0.485508	0.011717
 477	2.3800e-01	19.0759	33.312864	0.000165	1.652639	0.559929	0.013513
 478	2.3850e-01	19.1257	33.377863	0.000159	1.589881	0.538666	0.013000
 479	2.3900e-01	19.1802	33.437731	0.000146	1.464364	0.496140	0.011974
 480	2.3950e-01	19.2187	33.502730	0.000159	1.589881	0.538666	0.013000
 481	2.4000e-01	19.2668	33.566446	0.000156	1.558501	0.528035	0.012743
 482	2.4050e-01	19.2588	33.630590	-0.000157	-1.568961	-0.531578	0.012829
 483	2.4100e-01	19.3358	33.690030	0.000145	1.453904	0.492596	0.011888
 484	2.4150e-01	19.3743	33.764864	0.000183	1.830455	0.620175	0.014967
 485	2.4200e-01	19.4112	33.824304	0.000145	1.453904	0.492596	0.011888
 486	2.4250e-01	19.4176	33.888875	0.000158	1.579421	0.535122	0.012914
 487	2.4300e-01	19.4914	33.947888	0.000144	1.443444	0.489052	0.011802
 488	2.4350e-01	19.5331	34.012031	0.000157	1.568961	0.531578	0.012829
 489	2.4400e-01	19.5620	34.076175	0.000157	1.568961	0.531578	0.012829
 490	2.4450e-01	19.6005	34.142030	0.000161	1.610800	0.545754	0.013171
 491	2.4500e-01	19.6454	34.201042	0.000144	1.443444	0.489052	0.011802
 492	2.4550e-01	19.6663	34.267751	0.000163	1.631720	0.552842	0.013342
 493	2.4600e-01	19.7433	34.334033	0.000162	1.621260	0.549298	0.013256
 494	2.4650e-01	19.7882	34.391335	0.000140	1.401605	0.474877	0.011460
 495	2.4700e-01	19.7882	34.453341	-0.000152	-1.516662	-0.513859	0.012401
 496	2.4750e-01	19.8283	34.516629	0.000155	1.548042	0.524491	0.012658
 497	2.4800e-01	19.8556	34.573503	0.000139	1.391146	0.471333	0.011375
 498	2.4850e-01	19.9005	34.642779	0.000169	1.694478	0.574105	0.013855
 499	2.4900e-01	19.9615	34.707350	0.000158	1.579421	0.535122	0.012914
 500	2.4950e-01	20.0096	34.762514	0.000135	1.349307	0.457157	0.011033
 501	2.5000e-01	20.0337	34.823237	0.000149	1.485283	0.503228	0.012145
 502	2.5050e-01	19.9791	34.887808	-0.000158	-1.579421	-0.535122	0.012914
 503	2.5100e-01	19.9438	34.941261	-0.000131	-1.307468	-0.442982	0.010691
 504	2.5150e-01	19.8732	34.986589	-0.000111	-1.108733	-0.375649	0.009066
 505	2.5200e-01	19.8460	35.024220	-0.000092	-0.920457	-0.311859	0.007526
 506	2.5250e-01	19.8107	35.066128	-0.000103	-1.025055	-0.347298	0.008381
 507	2.5300e-01	19.7978	35.102048	-0.000088	-0.878618	-0.297684	0.007184
 508	2.5350e-01	19.7513	35.127278	-0.000062	-0.617125	-0.209088	0.005046
 509	2.5400e-01	19.7273	35.152080	-0.000061	-0.606665	-0.205544	0.004960
 510	2.5450e-01	19.6647	35.182869	-0.000075	-0.753101	-0.255158	0.006158
 511	2.5500e-01	19.5909	35.196981	-0.000035	-0.345171	-0.116947	0.002822
 512	2.5550e-01	19.5765	35.214514	-0.000043	-0.428849	-0.145298	0.003507
 513	2.5600e-01	19.5043	35.221356	-0.000017	-0.167356	-0.056702	0.001368
 514	2.5650e-01	19.4722	35.226487	-0.000013	-0.125517	-0.042526	0.001026
 515	2.5700e-01	19.4321	35.235467	-0.000022	-0.219655	-0.074421	0.001796
 516	2.5750e-01	19.4048	35.244875	-0.000023	-0.230114	-0.077965	0.001882
 517	2.5800e-01	19.4064	35.248724	0.000009	0.094138	0.031895	0.000770
 518	2.5850e-01	19.3583	35.243592	0.000013	0.125517	0.042526	-0.001026
 519	2.5900e-01	19.3053	35.247013	-0.000008	-0.083678	-0.028351	0.000684
 520	2.5950e-01	19.2829	35.243165	0.000009	0.094138	0.031895	-0.000770
 521	2.6000e-01	19.2155	35.241454	0.000004	0.041839	0.014175	-0.000342
 522	2.6050e-01	19.1690	35.230764	0.000026	0.261494	0.088596	-0.002138
 523	2.6100e-01	19.1417	35.220928	0.000024	0.240574	0.081509	-0.001967
 524	2.6150e-01	19.0823	35.208099	0.000031	0.313792	0.106316	-0.002566
 525	2.6200e-01	19.0471	35.198692	0.000023	0.230114	0.077965	-0.001882
 526	2.6250e-01	19.0102	35.188429	0.000025	0.251034	0.085053	-0.002053
 527	2.6300e-01	18.9973	35.170468	0.000044	0.439309	0.148842	-0.003592
 528	2.6350e-01	18.9348	35.152080	0.000045	0.449769	0.152386	-0.003678
 529	2.6400e-01	18.8963	35.129416	0.000055	0.554366	0.187824	-0.004533
 530	2.6450e-01	18.8642	35.108463	0.000051	0.512527	0.173649	-0.004191
 531	2.6500e-01	18.8193	35.092213	0.000040	0.397470	0.134667	-0.003250
 532	2.6550e-01	18.7856	35.069976	0.000054	0.543907	0.184281	-0.004447
 533	2.6600e-01	18.7102	35.044747	0.000062	0.617125	0.209088	-0.005046
 534	2.6650e-01	18.6893	35.018234	0.000065	0.648504	0.219719	-0.005303
 535	2.6700e-01	18.6524	34.993431	0.000061	0.606665	0.205544	-0.004960
 536	2.6750e-01	18.6300	34.963925	0.000072	0.721722	0.244526	-0.005901
 537	2.6800e-01	18.6011	34.936557	0.000067	0.669423	0.226807	-0.005474
 538	2.6850e-01	18.5513	34.905341	0.000076	0.763561	0.258701	-0.006243
 539	2.6900e-01	18.5209	34.874979	0.000074	0.742642	0.251614	-0.006072
 540	2.6950e-01	18.4840	34.842480	0.000079	0.794940	0.269333	-0.006500
 541	2.7000e-01	18.4342	34.808697	0.000083	0.826320	0.279965	-0.006756
 542	2.7050e-01	18.3941	34.772777	0.000088	0.878618	0.297684	-0.007184
 543	2.7100e-01	18.3316	34.736856	0.000088	0.878618	0.297684	-0.007184
 544	2.7150e-01	18.3091	34.697942	0.000095	0.951836	0.322491	-0.007783
 545	2.7200e-01	18.2353	34.659029	0.000095	0.951836	0.322491	-0.007783
 546	2.7250e-01	18.2113	34.619259	0.000097	0.972756	0.329579	-0.007954
 547	2.7300e-01	18.1776	34.576069	0.000106	1.056434	0.357929	-0.008638
 548	2.7350e-01	18.1342	34.538438	0.000092	0.920457	0.311859	-0.007526
 549	2.7400e-01	18.1342	34.494820	0.000107	1.066894	0.361473	-0.008724
 550	2.7450e-01	18.0380	34.461893	0.000081	0.805400	0.272877	-0.006585
 551	2.7500e-01	18.0364	34.419558	0.000104	1.035514	0.350842	-0.008467
 552	2.7550e-01	17.9915	34.376368	0.000106	1.056434	0.357929	-0.008638
 553	2.7600e-01	17.9321	34.334033	0.000104	1.035514	0.350842	-0.008467
 554	2.7650e-01	17.9209	34.281435	0.000129	1.286548	0.435894	-0.010520
 555	2.7700e-01	17.8519	34.244232	0.000091	0.909997	0.308315	-0.007441
 556	2.7750e-01	17.8054	34.200614	0.000107	1.066894	0.361473	-0.008724
 557	2.7800e-01	17.7829	34.155714	0.000110	1.098273	0.372105	-0.008980
 558	2.7850e-01	17.7685	34.110385	0.000111	1.108733	0.375649	-0.009066
 559	2.7900e-01	17.6867	34.065912	0.000109	1.087813	0.368561	-0.008895
 560	2.7950e-01	17.6706	34.023577	0.000104	1.035514	0.350842	-0.008467
 561	2.8000e-01	17.5872	33.983381	0.000098	0.983216	0.333122	-0.008039
 562	2.8050e-01	17.5583	33.926079	0.000140	1.401605	0.474877	-0.011460
 563	2.8100e-01	17.5278	33.876047	0.000122	1.223790	0.414631	-0.010006
 564	2.8150e-01	17.4974	33.826870	0.000120	1.202870	0.407543	-0.009835
 565	2.8200e-01	17.4412	33.781541	0.000111	1.108733	0.375649	-0.009066
 566	2.8250e-01	17.4268	33.735786	0.000112	1.119192	0.379193	-0.009151
 567	2.8300e-01	17.3418	33.679767	0.000137	1.370226	0.464245	-0.011204
 568	2.8350e-01	17.3466	33.630590	-0.000120	-1.202870	-0.407543	-0.009835
 569	2.8400e-01	17.2968	33.584834	0.000112	1.119192	0.379193	-0.009151
 570	2.8450e-01	17.2535	33.537795	0.000115	1.150571	0.389824	-0.009408
 571	2.8500e-01	17.2054	33.480493	0.000140	1.401605	0.474877	-0.011460
 572	2.8550e-01	17.1669	33.434310	0.000113	1.129652	0.382736	-0.009237
 573	2.8600e-01	17.1316	33.383850	0.000123	1.234249	0.418175	-0.010092
 574	2.8650e-01	17.0915	33.340660	0.000106	1.056434	0.357929	-0.008638
 575	2.8700e-01	17.0450	33.286351	0.000133	1.328387	0.450070	-0.010862
 576	2.8750e-01	16.9936	33.239313	0.000115	1.150571	0.389824	-0.009408
 577	2.8800e-01	16.9985	33.188425	-0.000124	-1.244709	-0.421719	-0.010177
 578	2.8850e-01	16.9150	33.144807	0.000107	1.066894	0.361473	-0.008724
 579	2.8900e-01	16.8910	33.092637	0.000128	1.276088	0.432350	-0.010434
 580	2.8950e-01	16.8509	33.039184	0.000131	1.307468	0.442982	-0.010691
 581	2.9000e-01	16.8204	32.988724	0.000123	1.234249	0.418175	-0.010092
 582	2.9050e-01	16.7739	32.935271	0.000131	1.307468	0.442982	-0.010691
 583	2.9100e-01	16.7305	32.882673	0.000129	1.286548	0.435894	-0.010520
 584	2.9150e-01	16.7097	32.833924	0.000119	1.192410	0.404000	-0.009750
 585	2.9200e-01	16.6584	32.780043	0.000132	1.317927	0.446526	-0.010776
 586	2.9250e-01	16.6086	32.718465	0.000151	1.506203	0.510315	-0.012316
 587	2.9300e-01	16.5926	32.673137	0.000111	1.108733	0.375649	-0.009066
 588	2.9350e-01	16.5364	32.623532	0.000121	1.213330	0.411087	-0.009921
 589	2.9400e-01	16.4947	32.569224	0.000133	1.328387	0.450070	-0.010862
 590	2.9450e-01	16.4402	32.517054	0.000128	1.276088	0.432350	-0.010434
 591	2.9500e-01	16.4177	32.458041	0.000144	1.443444	0.489052	-0.011802
 592	2.9550e-01	16.3439	32.410575	0.000116	1.161031	0.393368	-0.009493
 593	2.9600e-01	16.3247	32.345576	0.000159	1.589881	0.538666	-0.013000
 594	2.9650e-01	16.3167	32.295971	0.000121	1.213330	0.411087	-0.009921
 595	2.9700e-01	16.2685	32.242518	0.000131	1.307468	0.442982	-0.010691
 596	2.9750e-01	16.2092	32.192486	0.000122	1.223790	0.414631	-0.010006
 597	2.9800e-01	16.1450	32.135612	0.000139	1.391146	0.471333	-0.011375
 598	2.9850e-01	16.1530	32.082586	-0.000130	-1.297008	-0.439438	-0.010605
 599	2.9900e-01	16.1065	32.029561	0.000130	1.297008	0.439438	-0.010605
 600	2.9950e-01	16.0648	31.973969	0.000136	1.359766	0.460701	-0.011118
 601	3.0000e-01	16.0183	31.917095	0.000139	1.391146	0.471333	-0.011375
 602	3.0050e-01	15.9653	31.858938	0.000142	1.422525	0.481964	-0.011631
 603	3.0100e-01	15.9413	31.805057	0.000132	1.317927	0.446526	-0.010776
 604	3.0150e-01	15.8867	31.752032	0.000130	1.297008	0.439438	-0.010605
 605	3.0200e-01	15.8418	31.695585	0.000138	1.380686	0.467789	-0.011289
 606	3.0250e-01	15.8113	31.640422	0.000135	1.349307	0.457157	-0.011033
 607	3.0300e-01	15.7792	31.595521	0.000110	1.098273	0.372105	-0.008980
 608	3.0350e-01	15.7455	31.540357	0.000135	1.349307	0.457157	-0.011033
 609	3.0400e-01	15.6894	31.476641	0.000156	1.558501	0.528035	-0.012743
 610	3.0450e-01	15.6605	31.421905	0.000134	1.338847	0.453614	-0.010947
 611	3.0500e-01	15.6028	31.372728	0.000120	1.202870	0.407543	-0.009835
 612	3.0550e-01	15.5787	31.314571	0.000142	1.422525	0.481964	-0.011631
 613	3.0600e-01	15.5258	31.251710	0.000154	1.537582	0.520947	-0.012572
 614	3.0650e-01	15.4680	31.193553	0.000142	1.422525	0.481964	-0.011631
 615	3.0700e-01	15.4247	31.137962	0.000136	1.359766	0.460701	-0.011118
 616	3.0750e-01	15.4119	31.081943	0.000137	1.370226	0.464245	-0.011204
 617	3.0800e-01	15.3429	31.019510	0.000153	1.527122	0.517403	-0.012487
 618	3.0850e-01	15.3317	30.960498	0.000144	1.443444	0.489052	-0.011802
 619	3.0900e-01	15.2659	30.907472	0.000130	1.297008	0.439438	-0.010605
 620	3.0950e-01	15.2643	30.851453	0.000137	1.370226	0.464245	-0.011204
 621	3.1000e-01	15.2274	30.797572	0.000132	1.317927	0.446526	-0.010776
 622	3.1050e-01	15.1857	30.739843	0.000141	1.412065	0.478421	-0.011546
 623	3.1100e-01	15.1263	30.679120	0.000149	1.485283	0.503228	-0.012145
 624	3.1150e-01	15.0894	30.623101	0.000137	1.370226	0.464245	-0.011204
 625	3.1200e-01	15.0461	30.568793	0.000133	1.328387	0.450070	-0.010862
 626	3.1250e-01	15.0044	30.507215	0.000151	1.506203	0.510315	-0.012316
 627	3.1300e-01	14.9851	30.447347	0.000146	1.464364	0.496140	-0.011974
 628	3.1350e-01	14.9595	30.393894	0.000131	1.307468	0.442982	-0.010691
 629	3.1400e-01	14.9049	30.345145	0.000119	1.192410	0.404000	-0.009750
 630	3.1450e-01	14.8456	30.280573	0.000158	1.579421	0.535122	-0.012914
 631	3.1500e-01	14.8167	30.224127	0.000138	1.380686	0.467789	-0.011289
 632	3.1550e-01	14.7718	30.167253	0.000139	1.391146	0.471333	-0.011375
 633	3.1600e-01	14.7429	30.105247	0.000152	1.516662	0.513859	-0.012401
 634	3.1650e-01	14.7204	30.046235	0.000144	1.443444	0.489052	-0.011802
 635	3.1700e-01	14.6723	29.981663	0.000158	1.579421	0.535122	-0.012914
 636	3.1750e-01	14.6017	29.922223	0.000145	1.453904	0.492596	-0.011888
 637	3.1800e-01	14.5231	29.867060	0.000135	1.349307	0.457157	-0.011033
 638	3.1850e-01	14.5456	29.802061	-0.000159	-1.589881	-0.538666	-0.013000
 639	3.1900e-01	14.4862	29.745614	0.000138	1.380686	0.467789	-0.011289
 640	3.1950e-01	14.4541	29.685319	0.000147	1.474823	0.499684	-0.012059
 641	3.2000e-01	14.4237	29.624596	0.000149	1.485283	0.503228	-0.012145
 642	3.2050e-01	14.3723	29.574564	0.000122	1.223790	0.414631	-0.010006
 643	3.2100e-01	14.3162	29.513414	0.000150	1.495743	0.506771	-0.012230
 644	3.2150e-01	14.2761	29.456967	0.000138	1.380686	0.467789	-0.011289
 645	3.2200e-01	14.2664	29.396244	0.000149	1.485283	0.503228	-0.012145
 646	3.2250e-01	14.2135	29.339370	0.000139	1.391146	0.471333	-0.011375
 647	3.2300e-01	14.1830	29.278647	0.000149	1.485283	0.503228	-0.012145
 648	3.2350e-01	14.1349	29.216642	0.000152	1.516662	0.513859	-0.012401
 649	3.2400e-01	14.1012	29.155491	0.000150	1.495743	0.506771	-0.012230
 650	3.2450e-01	14.0338	29.097762	0.000141	1.412065	0.478421	-0.011546
 651	3.2500e-01	13.9985	29.039605	0.000142	1.422525	0.481964	-0.011631
 652	3.2550e-01	13.9809	28.980165	0.000145	1.453904	0.492596	-0.011888
 653	3.2600e-01	13.9488	28.922863	0.000140	1.401605	0.474877	-0.011460
 654	3.2650e-01	13.8927	28.860430	0.000153	1.527122	0.517403	-0.012487
 655	3.2700e-01	13.8718	28.798424	0.000152	1.516662	0.513859	-0.012401
 656	3.2750e-01	13.7932	28.739412	0.000144	1.443444	0.489052	-0.011802
 657	3.2800e-01	13.7515	28.682538	0.000139	1.391146	0.471333	-0.011375
 658	3.2850e-01	13.7258	28.617539	0.000159	1.589881	0.538666	-0.013000
 659	3.2900e-01	13.6713	28.554678	0.000154	1.537582	0.520947	-0.012572
 660	3.2950e-01	13.6312	28.488396	0.000162	1.621260	0.549298	-0.013256
 661	3.3000e-01	13.6183	28.434943	0.000131	1.307468	0.442982	-0.010691
 662	3.3050e-01	13.5558	28.375930	0.000144	1.443444	0.489052	-0.011802
 663	3.3100e-01	13.5205	28.313497	0.000153	1.527122	0.517403	-0.012487
 664	3.3150e-01	13.5108	28.249353	0.000157	1.568961	0.531578	-0.012829
 665	3.3200e-01	13.4403	28.189486	0.000146	1.464364	0.496140	-0.011974
 666	3.3250e-01	13.3937	28.131329	0.000142	1.422525	0.481964	-0.011631
 667	3.3300e-01	13.3729	28.071034	0.000147	1.474823	0.499684	-0.012059
 668	3.3350e-01	13.3248	28.006034	0.000159	1.589881	0.538666	-0.013000
 669	3.3400e-01	13.2814	27.949160	0.000139	1.391146	0.471333	-0.011375
 670	3.3450e-01	13.3071	27.887582	-0.000151	-1.506203	-0.510315	-0.012316
 671	3.3500e-01	13.1708	27.831563	0.000137	1.370226	0.464245	-0.011204
 672	3.3550e-01	13.2044	27.761860	-0.000170	-1.704938	-0.577649	-0.013941
 673	3.3600e-01	13.1355	27.699855	0.000152	1.516662	0.513859	-0.012401
 674	3.3650e-01	13.1130	27.635711	0.000157	1.568961	0.531578	-0.012829
 675	3.3700e-01	13.0569	27.583541	0.000128	1.276088	0.432350	-0.010434
 676	3.3750e-01	13.0151	27.525384	0.000142	1.422525	0.481964	-0.011631
 677	3.3800e-01	12.9943	27.459102	0.000162	1.621260	0.549298	-0.013256
 678	3.3850e-01	12.9478	27.399234	0.000146	1.464364	0.496140	-0.011974
 679	3.3900e-01	12.9590	27.337656	-0.000151	-1.506203	-0.510315	-0.012316
 680	3.3950e-01	12.8499	27.277361	0.000147	1.474823	0.499684	-0.012059
 681	3.4000e-01	12.7938	27.212362	0.000159	1.589881	0.538666	-0.013000
 682	3.4050e-01	12.7633	27.157198	0.000135	1.349307	0.457157	-0.011033
 683	3.4100e-01	12.7360	27.091772	0.000160	1.600340	0.542210	-0.013085
 684	3.4150e-01	12.6975	27.034042	0.000141	1.412065	0.478421	-0.011546
 685	3.4200e-01	12.6718	26.976740	0.000140	1.401605	0.474877	-0.011460
 686	3.4250e-01	12.6542	26.910459	0.000162	1.621260	0.549298	-0.013256
 687	3.4300e-01	12.5788	26.850163	0.000147	1.474823	0.499684	-0.012059
 688	3.4350e-01	12.5387	26.789441	0.000149	1.485283	0.503228	-0.012145
 689	3.4400e-01	12.4954	26.726580	0.000154	1.537582	0.520947	-0.012572
 690	3.4450e-01	12.4649	26.662864	0.000156	1.558501	0.528035	-0.012743
 691	3.4500e-01	12.4184	26.600430	0.000153	1.527122	0.517403	-0.012487
 692	3.4550e-01	12.3654	26.542273	0.000142	1.422525	0.481964	-0.011631
 693	3.4600e-01	12.3333	26.472570	0.000170	1.704938	0.577649	-0.013941
 694	3.4650e-01	12.3109	26.412275	0.000147	1.474823	0.499684	-0.012059
 695	3.4700e-01	12.2595	26.348559	0.000156	1.558501	0.528035	-0.012743
 696	3.4750e-01	12.2194	26.286981	0.000151	1.506203	0.510315	-0.012316
 697	3.4800e-01	12.1665	26.228824	0.000142	1.422525	0.481964	-0.011631
 698	3.4850e-01	12.1360	26.162970	0.000161	1.610800	0.545754	-0.013171
 699	3.4900e-01	12.0799	26.095832	0.000164	1.642179	0.556385	-0.013427
 700	3.4950e-01	12.0590	26.028268	0.000165	1.652639	0.559929	-0.013513
 701	3.5000e-01	12.0301	25.971393	0.000139	1.391146	0.471333	-0.011375
 702	3.5050e-01	11.9740	25.910671	0.000149	1.485283	0.503228	-0.012145
 703	3.5100e-01	11.9419	25.846099	0.000158	1.579421	0.535122	-0.012914
 704	3.5150e-01	11.9018	25.778962	0.000164	1.642179	0.556385	-0.013427
 705	3.5200e-01	11.8376	25.720805	0.000142	1.422525	0.481964	-0.011631
 706	3.5250e-01	11.8007	25.651530	0.000169	1.694478	0.574105	-0.013855
 707	3.5300e-01	11.7542	25.586958	0.000158	1.579421	0.535122	-0.012914
 708	3.5350e-01	11.7093	25.523670	0.000155	1.548042	0.524491	-0.012658
 709	3.5400e-01	11.7366	25.458671	-0.000159	-1.589881	-0.538666	-0.013000
 710	3.5450e-01	11.6852	25.396237	0.000153	1.527122	0.517403	-0.012487
 711	3.5500e-01	11.6002	25.334232	0.000152	1.516662	0.513859	-0.012401
 712	3.5550e-01	11.5810	25.266667	0.000165	1.652639	0.559929	-0.013513
 713	3.5600e-01	11.5344	25.208510	0.000142	1.422525	0.481964	-0.011631
 714	3.5650e-01	11.4863	25.142228	0.000162	1.621260	0.549298	-0.013256
 715	3.5700e-01	11.4767	25.081505	0.000149	1.485283	0.503228	-0.012145
 716	3.5750e-01	11.4157	25.010519	0.000174	1.736317	0.588280	-0.014197
 717	3.5800e-01	11.3628	24.949369	0.000150	1.495743	0.506771	-0.012230
 718	3.5850e-01	11.3275	24.888646	0.000149	1.485283	0.503228	-0.012145
 719	3.5900e-01	11.3050	24.819799	0.000168	1.684018	0.570561	-0.013770
 720	3.5950e-01	11.2200	24.757793	0.000152	1.516662	0.513859	-0.012401
 721	3.6000e-01	11.1975	24.689373	0.000167	1.673559	0.567017	-0.013684
 722	3.6050e-01	11.1639	24.627367	0.000152	1.516662	0.513859	-0.012401
 723	3.6100e-01	11.1254	24.565362	0.000152	1.516662	0.513859	-0.012401
 724	3.6150e-01	11.0804	24.501218	0.000157	1.568961	0.531578	-0.012829
 725	3.6200e-01	11.0516	24.433653	0.000165	1.652639	0.559929	-0.013513
 726	3.6250e-01	10.9922	24.369082	0.000158	1.579421	0.535122	-0.012914
 727	3.6300e-01	10.9810	24.305793	0.000155	1.548042	0.524491	-0.012658
 728	3.6350e-01	10.9296	24.245070	0.000149	1.485283	0.503228	-0.012145
 729	3.6400e-01	10.9024	24.177933	0.000164	1.642179	0.556385	-0.013427
 730	3.6450e-01	10.8302	24.113362	0.000158	1.579421	0.535122	-0.012914
 731	3.6500e-01	10.8093	24.047080	0.000162	1.621260	0.549298	-0.013256
 732	3.6550e-01	10.7756	23.981653	0.000160	1.600340	0.542210	-0.013085
 733	3.6600e-01	10.7355	23.923496	0.000142	1.422525	0.481964	-0.011631
 734	3.6650e-01	10.6826	23.853365	0.000172	1.715397	0.581192	-0.014026
 735	3.6700e-01	10.6441	23.787939	0.000160	1.600340	0.542210	-0.013085
 736	3.6750e-01	10.6120	23.722512	0.000160	1.600340	0.542210	-0.013085
 737	3.6800e-01	10.5575	23.663927	0.000143	1.432984	0.485508	-0.011717
 738	3.6850e-01	10.5222	23.600639	0.000155	1.548042	0.524491	-0.012658
 739	3.6900e-01	10.5045	23.526660	0.000181	1.809535	0.613087	-0.014796
 740	3.6950e-01	10.4516	23.458240	0.000167	1.673559	0.567017	-0.013684
 741	3.7000e-01	10.4034	23.394951	0.000155	1.548042	0.524491	-0.012658
 742	3.7050e-01	10.3906	23.326103	0.000168	1.684018	0.570561	-0.013770
 743	3.7100e-01	10.3216	23.261104	0.000159	1.589881	0.538666	-0.013000
 744	3.7150e-01	10.3008	23.192257	0.000168	1.684018	0.570561	-0.013770
 745	3.7200e-01	10.2607	23.128113	0.000157	1.568961	0.531578	-0.012829
 746	3.7250e-01	10.1821	23.063969	0.000157	1.568961	0.531578	-0.012829
 747	3.7300e-01	10.1484	22.997687	0.000162	1.621260	0.549298	-0.013256
 748	3.7350e-01	10.1339	22.929267	0.000167	1.673559	0.567017	-0.013684
 749	3.7400e-01	10.0890	22.863413	0.000161	1.610800	0.545754	-0.013171
 750	3.7450e-01	10.0698	22.797559	0.000161	1.610800	0.545754	-0.013171
 751	3.7500e-01	10.0120	22.728711	0.000168	1.684018	0.570561	-0.013770
 752	3.7550e-01	9.9607	22.666278	0.000153	1.527122	0.517403	-0.012487
 753	3.7600e-01	9.9206	22.600851	0.000160	1.600340	0.542210	-0.013085
 754	3.7650e-01	9.8692	22.532859	0.000166	1.663099	0.563473	-0.013598
 755	3.7700e-01	9.8564	22.469570	0.000155	1.548042	0.524491	-0.012658
 756	3.7750e-01	9.8019	22.403288	0.000162	1.621260	0.549298	-0.013256
 757	3.7800e-01	9.7634	22.342993	0.000147	1.474823	0.499684	-0.012059
 758	3.7850e-01	9.7008	22.268159	0.000183	1.830455	0.620175	-0.014967
 759	3.7900e-01	9.7184	22.201449	-0.000163	-1.631720	-0.552842	-0.013342
 760	3.7950e-01	9.6559	22.133029	0.000167	1.673559	0.567017	-0.013684
 761	3.8000e-01	9.6158	22.068885	0.000157	1.568961	0.531578	-0.012829
 762	3.8050e-01	9.5612	21.999610	0.000169	1.694478	0.574105	-0.013855
 763	3.8100e-01	9.5356	21.932900	0.000163	1.631720	0.552842	-0.013342
 764	3.8150e-01	9.5131	21.866191	0.000163	1.631720	0.552842	-0.013342
 765	3.8200e-01	9.4537	21.796488	0.000170	1.704938	0.577649	-0.013941
 766	3.8250e-01	9.3832	21.731489	0.000159	1.589881	0.538666	-0.013000
 767	3.8300e-01	9.3495	21.663924	0.000165	1.652639	0.559929	-0.013513
 768	3.8350e-01	9.3398	21.594649	0.000169	1.694478	0.574105	-0.013855
 769	3.8400e-01	9.2837	21.524518	0.000172	1.715397	0.581192	-0.014026
 770	3.8450e-01	9.2564	21.456526	0.000166	1.663099	0.563473	-0.013598
 771	3.8500e-01	9.1987	21.394948	0.000151	1.506203	0.510315	-0.012316
 772	3.8550e-01	9.1906	21.324390	0.000173	1.725857	0.584736	-0.014112
 773	3.8600e-01	9.1169	21.256397	0.000166	1.663099	0.563473	-0.013598
 774	3.8650e-01	9.0639	21.184556	0.000176	1.757236	0.595368	-0.014368
 775	3.8700e-01	9.0431	21.112287	0.000177	1.767696	0.598912	-0.014454
 776	3.8750e-01	8.9997	21.044723	0.000165	1.652639	0.559929	-0.013513
 777	3.8800e-01	8.9773	20.971171	0.000180	1.799075	0.609543	-0.014710
 778	3.8850e-01	8.9147	20.901896	0.000169	1.694478	0.574105	-0.013855
 779	3.8900e-01	8.8714	20.830910	0.000174	1.736317	0.588280	-0.014197
 780	3.8950e-01	8.8409	20.762918	0.000166	1.663099	0.563473	-0.013598
 781	3.9000e-01	8.8024	20.691077	0.000176	1.757236	0.595368	-0.014368
 782	3.9050e-01	8.8040	20.622229	-0.000168	-1.684018	-0.570561	-0.013770
 783	3.9100e-01	8.7286	20.553381	0.000168	1.684018	0.570561	-0.013770
 784	3.9150e-01	8.6805	20.485816	0.000165	1.652639	0.559929	-0.013513
 785	3.9200e-01	8.6420	20.412265	0.000180	1.799075	0.609543	-0.014710
 786	3.9250e-01	8.6131	20.345983	0.000162	1.621260	0.549298	-0.013256
 787	3.9300e-01	8.5746	20.278846	0.000164	1.642179	0.556385	-0.013427
 788	3.9350e-01	8.5121	20.207860	0.000174	1.736317	0.588280	-0.014197
 789	3.9400e-01	8.4912	20.140295	0.000165	1.652639	0.559929	-0.013513
 790	3.9450e-01	8.4591	20.070165	0.000172	1.715397	0.581192	-0.014026
 791	3.9500e-01	8.3693	19.998751	0.000175	1.746777	0.591824	-0.014283
 792	3.9550e-01	8.3677	19.923917	0.000183	1.830455	0.620175	-0.014967
 793	3.9600e-01	8.3452	19.861911	0.000152	1.516662	0.513859	-0.012401
 794	3.9650e-01	8.2939	19.784939	0.000188	1.882753	0.637894	-0.015395
 795	3.9700e-01	8.2425	19.717801	0.000164	1.642179	0.556385	-0.013427
 796	3.9750e-01	8.1784	19.650237	0.000165	1.652639	0.559929	-0.013513
 797	3.9800e-01	8.1832	19.571981	-0.000191	-1.914133	-0.648526	-0.015651
 798	3.9850e-01	8.1190	19.502278	0.000170	1.704938	0.577649	-0.013941
 799	3.9900e-01	8.0629	19.435569	0.000163	1.631720	0.552842	-0.013342
 800	3.9950e-01	8.0613	19.365438	0.000172	1.715397	0.581192	-0.014026
 801	4.0000e-01	7.9795	19.294452	0.000174	1.736317	0.588280	-0.014197
 802	4.0050e-01	7.9811	19.221756	-0.000178	-1.778156	-0.602456	-0.014539
 803	4.0100e-01	7.9217	19.152908	0.000168	1.684018	0.570561	-0.013770
 804	4.0150e-01	7.8623	19.084061	0.000168	1.684018	0.570561	-0.013770
 805	4.0200e-01	7.8495	19.013503	0.000173	1.725857	0.584736	-0.014112
 806	4.0250e-01	7.7998	18.939951	0.000180	1.799075	0.609543	-0.014710
 807	4.0300e-01	7.7645	18.867682	0.000177	1.767696	0.598912	-0.014454
 808	4.0350e-01	7.7629	18.797124	0.000173	1.725857	0.584736	-0.014112
 809	4.0400e-01	7.7035	18.726566	0.000173	1.725857	0.584736	-0.014112
 810	4.0450e-01	7.6410	18.661139	0.000160	1.600340	0.542210	-0.013085
 811	4.0500e-01	7.6169	18.584594	0.000187	1.872294	0.634350	-0.015309
 812	4.0550e-01	7.5447	18.511471	0.000179	1.788616	0.605999	-0.014625
 813	4.0600e-01	7.5239	18.442623	0.000168	1.684018	0.570561	-0.013770
 814	4.0650e-01	7.4773	18.366933	0.000185	1.851374	0.627263	-0.015138
 815	4.0700e-01	7.4613	18.296803	0.000172	1.715397	0.581192	-0.014026
 816	4.0750e-01	7.4035	18.224106	0.000178	1.778156	0.602456	-0.014539
 817	4.0800e-01	7.3618	18.152693	0.000175	1.746777	0.591824	-0.014283
 818	4.0850e-01	7.3426	18.089832	0.000154	1.537582	0.520947	-0.012572
 819	4.0900e-01	7.2896	18.013287	0.000187	1.872294	0.634350	-0.015309
 820	4.0950e-01	7.2592	17.940163	0.000179	1.788616	0.605999	-0.014625
 821	4.1000e-01	7.1870	17.870888	0.000169	1.694478	0.574105	-0.013855
 822	4.1050e-01	7.1886	17.794343	-0.000187	-1.872294	-0.634350	-0.015309
 823	4.1100e-01	7.1533	17.725923	0.000167	1.673559	0.567017	-0.013684
 824	4.1150e-01	7.0859	17.650661	0.000184	1.840914	0.623719	-0.015052
 825	4.1200e-01	7.0265	17.582241	0.000167	1.673559	0.567017	-0.013684
 826	4.1250e-01	7.0073	17.510827	0.000175	1.746777	0.591824	-0.014283
 827	4.1300e-01	6.9576	17.431717	0.000194	1.935052	0.655613	-0.015822
 828	4.1350e-01	6.9431	17.356455	0.000184	1.840914	0.623719	-0.015052
 829	4.1400e-01	6.8806	17.285041	0.000175	1.746777	0.591824	-0.014283
 830	4.1450e-01	6.8292	17.209779	0.000184	1.840914	0.623719	-0.015052
 831	4.1500e-01	6.8052	17.138366	0.000175	1.746777	0.591824	-0.014283
 832	4.1550e-01	6.7650	17.064814	0.000180	1.799075	0.609543	-0.014710
 833	4.1600e-01	6.7025	16.995111	0.000170	1.704938	0.577649	-0.013941
 834	4.1650e-01	6.6624	16.918139	0.000188	1.882753	0.637894	-0.015395
 835	4.1700e-01	6.6479	16.841594	0.000187	1.872294	0.634350	-0.015309
 836	4.1750e-01	6.6014	16.767187	0.000182	1.819995	0.616631	-0.014881
 837	4.1800e-01	6.5693	16.691497	0.000185	1.851374	0.627263	-0.015138
 838	4.1850e-01	6.5180	16.619656	0.000176	1.757236	0.595368	-0.014368
 839	4.1900e-01	6.4859	16.543967	0.000185	1.851374	0.627263	-0.015138
 840	4.1950e-01	6.4843	16.465711	0.000191	1.914133	0.648526	-0.015651
 841	4.2000e-01	6.4185	16.387028	0.000192	1.924592	0.652070	-0.015737
 842	4.2050e-01	6.3608	16.320746	0.000162	1.621260	0.549298	-0.013256
 843	4.2100e-01	6.3351	16.243346	0.000189	1.893213	0.641438	-0.015480
 844	4.2150e-01	6.2790	16.170222	0.000179	1.788616	0.605999	-0.014625
 845	4.2200e-01	6.2822	16.092822	-0.000189	-1.893213	-0.641438	-0.015480
 846	4.2250e-01	6.1972	16.020553	0.000177	1.767696	0.598912	-0.014454
 847	4.2300e-01	6.1667	15.948712	0.000176	1.757236	0.595368	-0.014368
 848	4.2350e-01	6.1538	15.865325	0.000204	2.039649	0.691052	-0.016677
 849	4.2400e-01	6.0608	15.792629	0.000178	1.778156	0.602456	-0.014539
 850	4.2450e-01	6.0784	15.717795	-0.000183	-1.830455	-0.620175	-0.014967
 851	4.2500e-01	6.0062	15.640822	0.000188	1.882753	0.637894	-0.015395
 852	4.2550e-01	6.0143	15.566843	-0.000181	-1.809535	-0.613087	-0.014796
 853	4.2600e-01	5.9180	15.493291	0.000180	1.799075	0.609543	-0.014710
 854	4.2650e-01	5.8731	15.415036	0.000191	1.914133	0.648526	-0.015651
 855	4.2700e-01	5.8795	15.340201	-0.000183	-1.830455	-0.620175	-0.014967
 856	4.2750e-01	5.8025	15.262374	0.000190	1.903673	0.644982	-0.015566
 857	4.2800e-01	5.7271	15.190960	0.000175	1.746777	0.591824	-0.014283
 858	4.2850e-01	5.7063	15.119547	0.000175	1.746777	0.591824	-0.014283
 859	4.2900e-01	5.6822	15.038298	0.000199	1.987351	0.673333	-0.016250
 860	4.2950e-01	5.6389	14.964746	0.000180	1.799075	0.609543	-0.014710
 861	4.3000e-01	5.6052	14.887346	0.000189	1.893213	0.641438	-0.015480
 862	4.3050e-01	5.5908	14.805670	0.000200	1.997810	0.676877	-0.016335
 863	4.3100e-01	5.5186	14.737250	0.000167	1.673559	0.567017	-0.013684
 864	4.3150e-01	5.4945	14.663271	0.000181	1.809535	0.613087	-0.014796
 865	4.3200e-01	5.4303	14.587581	0.000185	1.851374	0.627263	-0.015138
 866	4.3250e-01	5.4416	14.510181	-0.000189	-1.893213	-0.641438	-0.015480
 867	4.3300e-01	5.3565	14.429787	0.000197	1.966431	0.666245	-0.016079
 868	4.3350e-01	5.3309	14.353242	0.000187	1.872294	0.634350	-0.015309
 869	4.3400e-01	5.2571	14.281829	0.000175	1.746777	0.591824	-0.014283
 870	4.3450e-01	5.2490	14.204001	0.000190	1.903673	0.644982	-0.015566
 871	4.3500e-01	5.2009	14.125746	0.000191	1.914133	0.648526	-0.015651
 872	4.3550e-01	5.1672	14.053049	0.000178	1.778156	0.602456	-0.014539
 873	4.3600e-01	5.1143	13.969662	0.000204	2.039649	0.691052	-0.016677
 874	4.3650e-01	5.0822	13.896966	0.000178	1.778156	0.602456	-0.014539
 875	4.3700e-01	5.0918	13.820849	-0.000186	-1.861834	-0.630806	-0.015223
 876	4.3750e-01	5.0245	13.740883	0.000196	1.955972	0.662701	-0.015993
 877	4.3800e-01	4.9715	13.658779	0.000201	2.008270	0.680420	-0.016421
 878	4.3850e-01	4.9218	13.579241	0.000195	1.945512	0.659157	-0.015908
 879	4.3900e-01	4.8753	13.504834	0.000182	1.819995	0.616631	-0.014881
 880	4.3950e-01	4.8672	13.425723	0.000194	1.935052	0.655613	-0.015822
 881	4.4000e-01	4.7967	13.341053	0.000207	2.071029	0.701684	-0.016934
 882	4.4050e-01	4.7598	13.266647	0.000182	1.819995	0.616631	-0.014881
 883	4.4100e-01	4.6956	13.182404	0.000206	2.060569	0.698140	-0.016848
 884	4.4150e-01	4.6779	13.106715	0.000185	1.851374	0.627263	-0.015138
 885	4.4200e-01	4.6523	13.026321	0.000197	1.966431	0.666245	-0.016079
 886	4.4250e-01	4.6041	12.947638	0.000192	1.924592	0.652070	-0.015737
 887	4.4300e-01	4.5496	12.867672	0.000196	1.955972	0.662701	-0.015993
 888	4.4350e-01	4.5191	12.795831	0.000176	1.757236	0.595368	-0.014368
 889	4.4400e-01	4.4935	12.712872	0.000203	2.029190	0.687508	-0.016592
 890	4.4450e-01	4.4758	12.632478	0.000197	1.966431	0.666245	-0.016079
 891	4.4500e-01	4.4469	12.556361	0.000186	1.861834	0.630806	-0.015223
 892	4.4550e-01	4.3780	12.476823	0.000195	1.945512	0.659157	-0.015908
 893	4.4600e-01	4.2961	12.396001	0.000198	1.976891	0.669789	-0.016164
 894	4.4650e-01	4.2929	12.318174	0.000190	1.903673	0.644982	-0.015566
 895	4.4700e-01	4.2528	12.235214	0.000203	2.029190	0.687508	-0.016592
 896	4.4750e-01	4.2223	12.159952	0.000184	1.840914	0.623719	-0.015052
 897	4.4800e-01	4.1951	12.082552	0.000189	1.893213	0.641438	-0.015480
 898	4.4850e-01	4.1197	12.001731	0.000198	1.976891	0.669789	-0.016164
 899	4.4900e-01	4.0908	11.920055	0.000200	1.997810	0.676877	-0.016335
 900	4.4950e-01	4.0651	11.845220	0.000183	1.830455	0.620175	-0.014967
 901	4.5000e-01	4.0026	11.757557	0.000214	2.144247	0.726491	-0.017533
 902	4.5050e-01	3.9496	11.678874	0.000192	1.924592	0.652070	-0.015737
 903	4.5100e-01	3.9256	11.600618	0.000191	1.914133	0.648526	-0.015651
 904	4.5150e-01	3.9175	11.519370	0.000199	1.987351	0.673333	-0.016250
 905	4.5200e-01	3.8550	11.436838	0.000202	2.018730	0.683964	-0.016506
 906	4.5250e-01	3.8197	11.353879	0.000203	2.029190	0.687508	-0.016592
 907	4.5300e-01	3.7667	11.274768	0.000194	1.935052	0.655613	-0.015822
 908	4.5350e-01	3.7154	11.199934	0.000183	1.830455	0.620175	-0.014967
 909	4.5400e-01	3.6913	11.116974	0.000203	2.029190	0.687508	-0.016592
 910	4.5450e-01	3.6512	11.039146	0.000190	1.903673	0.644982	-0.015566
 911	4.5500e-01	3.6240	10.958325	0.000198	1.976891	0.669789	-0.016164
 912	4.5550e-01	3.5919	10.877504	0.000198	1.976891	0.669789	-0.016164
 913	4.5600e-01	3.5405	10.797111	0.000197	1.966431	0.666245	-0.016079
 914	4.5650e-01	3.4828	10.716289	0.000198	1.976891	0.669789	-0.016164
 915	4.5700e-01	3.4331	10.638034	0.000191	1.914133	0.648526	-0.015651
 916	4.5750e-01	3.4058	10.551654	0.000211	2.112868	0.715859	-0.017276
 917	4.5800e-01	3.3705	10.473826	0.000190	1.903673	0.644982	-0.015566
 918	4.5850e-01	3.3352	10.383597	0.000221	2.207005	0.747754	-0.018046
 919	4.5900e-01	3.2694	10.301493	0.000201	2.008270	0.680420	-0.016421
 920	4.5950e-01	3.2229	10.227514	0.000181	1.809535	0.613087	-0.014796
 921	4.6000e-01	3.2325	10.136857	-0.000222	-2.217465	-0.751297	-0.018131
 922	4.6050e-01	3.1668	10.058602	0.000191	1.914133	0.648526	-0.015651
 923	4.6100e-01	3.1427	9.972649	0.000210	2.102408	0.712315	-0.017191
 924	4.6150e-01	3.0994	9.893538	0.000194	1.935052	0.655613	-0.015822
 925	4.6200e-01	3.0529	9.819987	0.000180	1.799075	0.609543	-0.014710
 926	4.6250e-01	3.0224	9.738310	0.000200	1.997810	0.676877	-0.016335
 927	4.6300e-01	2.9823	9.653213	0.000208	2.081488	0.705227	-0.017019
 928	4.6350e-01	2.9245	9.571537	0.000200	1.997810	0.676877	-0.016335
 929	4.6400e-01	2.9133	9.495847	0.000185	1.851374	0.627263	-0.015138
 930	4.6450e-01	2.8700	9.413743	0.000201	2.008270	0.680420	-0.016421
 931	4.6500e-01	2.8267	9.331211	0.000202	2.018730	0.683964	-0.016506
 932	4.6550e-01	2.8106	9.247397	0.000205	2.050109	0.694596	-0.016763
 933	4.6600e-01	2.7481	9.159306	0.000215	2.154707	0.730034	-0.017618
 934	4.6650e-01	2.6727	9.084471	0.000183	1.830455	0.620175	-0.014967
 935	4.6700e-01	2.6422	8.996381	0.000215	2.154707	0.730034	-0.017618
 936	4.6750e-01	2.6325	8.919836	0.000187	1.872294	0.634350	-0.015309
 937	4.6800e-01	2.5700	8.835593	0.000206	2.060569	0.698140	-0.016848
 938	4.6850e-01	2.5235	8.752206	0.000204	2.039649	0.691052	-0.016677
 939	4.6900e-01	2.4914	8.673951	0.000191	1.914133	0.648526	-0.015651
 940	4.6950e-01	2.4545	8.589709	0.000206	2.060569	0.698140	-0.016848
 941	4.7000e-01	2.4160	8.507605	0.000201	2.008270	0.680420	-0.016421
 942	4.7050e-01	2.3695	8.420797	0.000212	2.123327	0.719403	-0.017362
 943	4.7100e-01	2.3213	8.336127	0.000207	2.071029	0.701684	-0.016934
 944	4.7150e-01	2.3149	8.254023	0.000201	2.008270	0.680420	-0.016421
 945	4.7200e-01	2.2604	8.171919	0.000201	2.008270	0.680420	-0.016421
 946	4.7250e-01	2.2251	8.080835	0.000223	2.227925	0.754841	-0.018217
 947	4.7300e-01	2.1384	7.997876	0.000203	2.029190	0.687508	-0.016592
 948	4.7350e-01	2.1208	7.915344	0.000202	2.018730	0.683964	-0.016506
 949	4.7400e-01	2.0807	7.826398	0.000218	2.175626	0.737122	-0.017789
 950	4.7450e-01	2.0695	7.738735	0.000214	2.144247	0.726491	-0.017533
 951	4.7500e-01	1.9812	7.648506	0.000221	2.207005	0.747754	-0.018046
 952	4.7550e-01	1.9989	7.568540	-0.000196	-1.955972	-0.662701	-0.015993
 953	4.7600e-01	1.9475	7.478738	0.000220	2.196546	0.744210	-0.017960
 954	4.7650e-01	1.8866	7.392786	0.000210	2.102408	0.712315	-0.017191
 955	4.7700e-01	1.8401	7.306405	0.000211	2.112868	0.715859	-0.017276
 956	4.7750e-01	1.7983	7.221736	0.000207	2.071029	0.701684	-0.016934
 957	4.7800e-01	1.7310	7.131934	0.000220	2.196546	0.744210	-0.017960
 958	4.7850e-01	1.7438	7.049830	-0.000201	-2.008270	-0.680420	-0.016421
 959	4.7900e-01	1.6941	6.963878	0.000210	2.102408	0.712315	-0.017191
 960	4.7950e-01	1.6251	6.876642	0.000213	2.133787	0.722947	-0.017447
 961	4.8000e-01	1.6347	6.791117	-0.000209	-2.091948	-0.708771	-0.017105
 962	4.8050e-01	1.5609	6.706447	0.000207	2.071029	0.701684	-0.016934
 963	4.8100e-01	1.5353	6.621777	0.000207	2.071029	0.701684	-0.016934
 964	4.8150e-01	1.5048	6.535825	0.000210	2.102408	0.712315	-0.017191
 965	4.8200e-01	1.4486	6.451583	0.000206	2.060569	0.698140	-0.016848
 966	4.8250e-01	1.4230	6.363919	0.000214	2.144247	0.726491	-0.017533
 967	4.8300e-01	1.3460	6.275401	0.000217	2.165166	0.733578	-0.017704
 968	4.8350e-01	1.3700	6.189448	-0.000210	-2.102408	-0.712315	-0.017191
 969	4.8400e-01	1.3042	6.093660	0.000234	2.342982	0.793824	-0.019158
 970	4.8450e-01	1.2401	6.010701	0.000203	2.029190	0.687508	-0.016592
 971	4.8500e-01	1.2353	5.929024	0.000200	1.997810	0.676877	-0.016335
 972	4.8550e-01	1.1791	5.837085	0.000225	2.248844	0.761929	-0.018388
 973	4.8600e-01	1.1246	5.749422	0.000214	2.144247	0.726491	-0.017533
 974	4.8650e-01	1.1278	5.657055	-0.000226	-2.259304	-0.765473	-0.018473
 975	4.8700e-01	1.0508	5.568536	0.000217	2.165166	0.733578	-0.017704
 976	4.8750e-01	0.9914	5.484294	0.000206	2.060569	0.698140	-0.016848
 977	4.8800e-01	0.9657	5.391499	0.000227	2.269764	0.769017	-0.018559
 978	4.8850e-01	0.9240	5.302981	0.000217	2.165166	0.733578	-0.017704
 979	4.8900e-01	0.8406	5.213607	0.000219	2.186086	0.740666	-0.017875
 980	4.8950e-01	0.8310	5.121668	0.000225	2.248844	0.761929	-0.018388
 981	4.9000e-01	0.8037	5.040847	0.000198	1.976891	0.669789	-0.016164
 982	4.9050e-01	0.7556	4.945914	0.000232	2.322062	0.786736	-0.018987
 983	4.9100e-01	0.7155	4.849271	0.000236	2.363901	0.800911	-0.019329
 984	4.9150e-01	0.6914	4.758614	0.000222	2.217465	0.751297	-0.018131
 985	4.9200e-01	0.6609	4.665392	0.000228	2.280223	0.772561	-0.018644
 986	4.9250e-01	0.6000	4.577301	0.000215	2.154707	0.730034	-0.017618
 987	4.9300e-01	0.5647	4.488355	0.000218	2.175626	0.737122	-0.017789
 988	4.9350e-01	0.5150	4.390429	0.000240	2.395281	0.811543	-0.019585
 989	4.9400e-01	0.4925	4.302766	0.000214	2.144247	0.726491	-0.017533
 990	4.9450e-01	0.4460	4.209543	0.000228	2.280223	0.772561	-0.018644
 991	4.9500e-01	0.4219	4.118887	0.000222	2.217465	0.751297	-0.018131
 992	4.9550e-01	0.3545	4.025237	0.000229	2.290683	0.776104	-0.018730
 993	4.9600e-01	0.3257	3.937574	0.000214	2.144247	0.726491	-0.017533
 994	4.9650e-01	0.3144	3.847345	0.000221	2.207005	0.747754	-0.018046
 995	4.9700e-01	0.2454	3.751557	0.000234	2.342982	0.793824	-0.019158
 996	4.9750e-01	0.2134	3.664321	0.000213	2.133787	0.722947	-0.017447
 997	4.9800e-01	0.1684	3.576230	0.000215	2.154707	0.730034	-0.017618
 998	4.9850e-01	0.1396	3.481725	0.000231	2.311603	0.783192	-0.018901
 999	4.9900e-01	0.0866	3.392779	0.000218	2.175626	0.737122	-0.017789
1000	4.9950e-01	0.0385	3.295280	0.000238	2.384821	0.807999	-0.019500
1001	5.0000e-01	0.0417	3.201203	-0.000230	-2.301143	-0.779648	-0.018816
1002	5.0050e-01	-0.0449	3.113112	0.000215	2.154707	0.730034	-0.017618
1003	5.0100e-01	-0.0658	3.018607	0.000231	2.311603	0.783192	-0.018901
1004	5.0150e-01	-0.0914	2.927095	0.000224	2.238385	0.758385	-0.018302
1005	5.0200e-01	-0.1428	2.837721	0.000219	2.186086	0.740666	-0.017875
1006	5.0250e-01	-0.1813	2.737657	0.000245	2.447579	0.829262	-0.020013
1007	5.0300e-01	-0.2406	2.650849	0.000212	2.123327	0.719403	-0.017362
1008	5.0350e-01	-0.2711	2.555489	0.000233	2.332522	0.790280	-0.019072
1009	5.0400e-01	-0.3128	2.462694	0.000227	2.269764	0.769017	-0.018559
1010	5.0450e-01	-0.3321	2.374176	0.000217	2.165166	0.733578	-0.017704
1011	5.0500e-01	-0.3882	2.276249	0.000240	2.395281	0.811543	-0.019585
1012	5.0550e-01	-0.4203	2.182599	0.000229	2.290683	0.776104	-0.018730
1013	5.0600e-01	-0.4460	2.083818	0.000242	2.416200	0.818631	-0.019756
1014	5.0650e-01	-0.5005	1.995300	0.000217	2.165166	0.733578	-0.017704
1015	5.0700e-01	-0.5535	1.903360	0.000225	2.248844	0.761929	-0.018388
1016	5.0750e-01	-0.5711	1.805006	0.000241	2.405740	0.815087	-0.019671
1017	5.0800e-01	-0.6385	1.710929	0.000230	2.301143	0.779648	-0.018816
1018	5.0850e-01	-0.6738	1.616851	0.000230	2.301143	0.779648	-0.018816
1019	5.0900e-01	-0.7091	1.523629	0.000228	2.280223	0.772561	-0.018644
1020	5.0950e-01	-0.7460	1.428268	0.000233	2.332522	0.790280	-0.019072
1021	5.1000e-01	-0.7652	1.326921	0.000248	2.478959	0.839894	-0.020269
1022	5.1050e-01	-0.8085	1.237975	0.000218	2.175626	0.737122	-0.017789
1023	5.1100e-01	-0.8470	1.140904	0.000237	2.374361	0.804455	-0.019414
1024	5.1150e-01	-0.9240	1.048537	0.000226	2.259304	0.765473	-0.018473
1025	5.1200e-01	-0.9337	0.950611	0.000240	2.395281	0.811543	-0.019585
1026	5.1250e-01	-0.9593	0.858672	0.000225	2.248844	0.761929	-0.018388
1027	5.1300e-01	-1.0347	0.773146	0.000209	2.091948	0.708771	-0.017105
1028	5.1350e-01	-1.0684	0.680779	0.000226	2.259304	0.765473	-0.018473
1029	5.1400e-01	-1.1262	0.586274	0.000231	2.311603	0.783192	-0.018901
1030	5.1450e-01	-1.1390	0.492197	0.000230	2.301143	0.779648	-0.018816
1031	5.1500e-01	-1.1743	0.401540	0.000222	2.217465	0.751297	-0.018131
1032	5.1550e-01	-1.2369	0.310884	0.000222	2.217465	0.751297	-0.018131
1033	5.1600e-01	-1.2722	0.213385	0.000238	2.384821	0.807999	-0.019500
1034	5.1650e-01	-1.3331	0.118880	0.000231	2.311603	0.783192	-0.018901
1035	5.1700e-01	-1.3652	0.027796	0.000223	2.227925	0.754841	-0.018217
1036	5.1750e-01	-1.3572	-0.065854	-0.000229	-2.290683	-0.776104	-0.018730
1037	5.1800e-01	-1.4502	-0.160787	0.000232	2.322062	0.786736	-0.018987
1038	5.1850e-01	-1.4197	-0.259569	-0.000242	-2.416200	-0.818631	-0.019756
1039	5.1900e-01	-1.4791	-0.359205	0.000244	2.437120	0.825718	-0.019927
1040	5.1950e-01	-1.5433	-0.451572	0.000226	2.259304	0.765473	-0.018473
1041	5.2000e-01	-1.5978	-0.547788	0.000235	2.353442	0.797368	-0.019243
1042	5.2050e-01	-1.6251	-0.640583	0.000227	2.269764	0.769017	-0.018559
1043	5.2100e-01	-1.6780	-0.733805	0.000228	2.280223	0.772561	-0.018644
1044	5.2150e-01	-1.7117	-0.827027	0.000228	2.280223	0.772561	-0.018644
1045	5.2200e-01	-1.7278	-0.920677	0.000229	2.290683	0.776104	-0.018730
1046	5.2250e-01	-1.8064	-1.020742	0.000245	2.447579	0.829262	-0.020013
1047	5.2300e-01	-1.8112	-1.121233	0.000246	2.458039	0.832806	-0.020098
1048	5.2350e-01	-1.8705	-1.214028	0.000227	2.269764	0.769017	-0.018559
1049	5.2400e-01	-1.9331	-1.306395	0.000226	2.259304	0.765473	-0.018473
1050	5.2450e-01	-1.9331	-1.406887	0.000246	2.458039	0.832806	-0.020098
1051	5.2500e-01	-1.9860	-1.484287	0.000189	1.893213	0.641438	-0.015480
1052	5.2550e-01	-2.0502	-1.598891	0.000280	2.803211	0.949753	-0.022921
1053	5.2600e-01	-2.0711	-1.695534	0.000236	2.363901	0.800911	-0.019329
1054	5.2650e-01	-2.0967	-1.781487	0.000210	2.102408	0.712315	-0.017191
1055	5.2700e-01	-2.1256	-1.881124	0.000244	2.437120	0.825718	-0.019927
1056	5.2750e-01	-2.1673	-1.981616	0.000246	2.458039	0.832806	-0.020098
1057	5.2800e-01	-2.2331	-2.077404	0.000234	2.342982	0.793824	-0.019158
1058	5.2850e-01	-2.3037	-2.165922	0.000217	2.165166	0.733578	-0.017704
1059	5.2900e-01	-2.3310	-2.264276	0.000241	2.405740	0.815087	-0.019671
1060	5.2950e-01	-2.3374	-2.353650	0.000219	2.186086	0.740666	-0.017875
1061	5.3000e-01	-2.3791	-2.450293	0.000236	2.363901	0.800911	-0.019329
1062	5.3050e-01	-2.4240	-2.541805	0.000224	2.238385	0.758385	-0.018302
1063	5.3100e-01	-2.4705	-2.638876	0.000237	2.374361	0.804455	-0.019414
1064	5.3150e-01	-2.5186	-2.734664	0.000234	2.342982	0.793824	-0.019158
1065	5.3200e-01	-2.5347	-2.830452	0.000234	2.342982	0.793824	-0.019158
1066	5.3250e-01	-2.5684	-2.925812	0.000233	2.332522	0.790280	-0.019072
1067	5.3300e-01	-2.6438	-3.012192	0.000211	2.112868	0.715859	-0.017276
1068	5.3350e-01	-2.6919	-3.108408	0.000235	2.353442	0.797368	-0.019243
1069	5.3400e-01	-2.7176	-3.201203	0.000227	2.269764	0.769017	-0.018559
1070	5.3450e-01	-2.7545	-3.294853	0.000229	2.290683	0.776104	-0.018730
1071	5.3500e-01	-2.7817	-3.391924	0.000237	2.374361	0.804455	-0.019414
1072	5.3550e-01	-2.8315	-3.483008	0.000223	2.227925	0.754841	-0.018217
1073	5.3600e-01	-2.8603	-3.580079	0.000237	2.374361	0.804455	-0.019414
1074	5.3650e-01	-2.9357	-3.673729	0.000229	2.290683	0.776104	-0.018730
1075	5.3700e-01	-2.9390	-3.767806	0.000230	2.301143	0.779648	-0.018816
1076	5.3750e-01	-2.9502	-3.866588	0.000242	2.416200	0.818631	-0.019756
1077	5.3800e-01	-3.0047	-3.964514	0.000240	2.395281	0.811543	-0.019585
1078	5.3850e-01	-3.0785	-4.053888	0.000219	2.186086	0.740666	-0.017875
1079	5.3900e-01	-3.1266	-4.149676	0.000234	2.342982	0.793824	-0.019158
1080	5.3950e-01	-3.1700	-4.238622	0.000218	2.175626	0.737122	-0.017789
1081	5.4000e-01	-3.1668	-4.332699	-0.000230	-2.301143	-0.779648	-0.018816
1082	5.4050e-01	-3.2341	-4.431053	0.000241	2.405740	0.815087	-0.019671
1083	5.4100e-01	-3.2823	-4.526414	0.000233	2.332522	0.790280	-0.019072
1084	5.4150e-01	-3.3063	-4.613649	0.000213	2.133787	0.722947	-0.017447
1085	5.4200e-01	-3.3528	-4.709437	0.000234	2.342982	0.793824	-0.019158
1086	5.4250e-01	-3.4058	-4.806080	0.000236	2.363901	0.800911	-0.019329
1087	5.4300e-01	-3.4507	-4.893316	0.000213	2.133787	0.722947	-0.017447
1088	5.4350e-01	-3.4603	-4.989959	0.000236	2.363901	0.800911	-0.019329
1089	5.4400e-01	-3.5133	-5.077623	0.000214	2.144247	0.726491	-0.017533
1090	5.4450e-01	-3.5438	-5.175976	0.000241	2.405740	0.815087	-0.019671
1091	5.4500e-01	-3.5951	-5.271764	0.000234	2.342982	0.793824	-0.019158
1092	5.4550e-01	-3.6272	-5.366697	0.000232	2.322062	0.786736	-0.018987
1093	5.4600e-01	-3.6641	-5.456926	0.000221	2.207005	0.747754	-0.018046
1094	5.4650e-01	-3.7170	-5.556563	0.000244	2.437120	0.825718	-0.019927
1095	5.4700e-01	-3.7619	-5.643798	0.000213	2.133787	0.722947	-0.017447
1096	5.4750e-01	-3.7972	-5.738304	0.000231	2.311603	0.783192	-0.018901
1097	5.4800e-01	-3.8213	-5.831098	0.000227	2.269764	0.769017	-0.018559
1098	5.4850e-01	-3.8566	-5.919189	0.000215	2.154707	0.730034	-0.017618
1099	5.4900e-01	-3.9159	-6.006425	0.000213	2.133787	0.722947	-0.017447
1100	5.4950e-01	-3.9689	-6.097936	0.000224	2.238385	0.758385	-0.018302
1101	5.5000e-01	-3.9849	-6.195007	0.000237	2.374361	0.804455	-0.019414
1102	5.5050e-01	-4.0026	-6.283953	0.000218	2.175626	0.737122	-0.017789
1103	5.5100e-01	-4.0844	-6.381452	0.000238	2.384821	0.807999	-0.019500
1104	5.5150e-01	-4.1020	-6.473391	0.000225	2.248844	0.761929	-0.018388
1105	5.5200e-01	-4.1598	-6.563620	0.000221	2.207005	0.747754	-0.018046
1106	5.5250e-01	-4.1646	-6.657698	0.000230	2.301143	0.779648	-0.018816
1107	5.5300e-01	-4.2400	-6.746216	0.000217	2.165166	0.733578	-0.017704
1108	5.5350e-01	-4.2624	-6.842432	0.000235	2.353442	0.797368	-0.019243
1109	5.5400e-01	-4.3074	-6.929668	0.000213	2.133787	0.722947	-0.017447
1110	5.5450e-01	-4.3523	-7.022035	0.000226	2.259304	0.765473	-0.018473
1111	5.5500e-01	-4.3860	-7.109698	0.000214	2.144247	0.726491	-0.017533
1112	5.5550e-01	-4.4325	-7.200782	0.000223	2.227925	0.754841	-0.018217
1113	5.5600e-01	-4.4566	-7.290583	0.000220	2.196546	0.744210	-0.017960
1114	5.5650e-01	-4.5175	-7.377391	0.000212	2.123327	0.719403	-0.017362
1115	5.5700e-01	-4.5416	-7.471896	0.000231	2.311603	0.783192	-0.018901
1116	5.5750e-01	-4.6025	-7.559560	0.000214	2.144247	0.726491	-0.017533
1117	5.5800e-01	-4.6394	-7.651071	0.000224	2.238385	0.758385	-0.018302
1118	5.5850e-01	-4.6491	-7.748570	0.000238	2.384821	0.807999	-0.019500
1119	5.5900e-01	-4.6956	-7.835806	0.000213	2.133787	0.722947	-0.017447
1120	5.5950e-01	-4.7469	-7.920475	0.000207	2.071029	0.701684	-0.016934
1121	5.6000e-01	-4.7774	-8.011560	0.000223	2.227925	0.754841	-0.018217
1122	5.6050e-01	-4.8079	-8.101361	0.000220	2.196546	0.744210	-0.017960
1123	5.6100e-01	-4.8512	-8.195011	0.000229	2.290683	0.776104	-0.018730
1124	5.6150e-01	-4.8945	-8.277542	0.000202	2.018730	0.683964	-0.016506
1125	5.6200e-01	-4.9523	-8.370337	0.000227	2.269764	0.769017	-0.018559
1126	5.6250e-01	-4.9779	-8.465270	0.000232	2.322062	0.786736	-0.018987
1127	5.6300e-01	-5.0277	-8.550795	0.000209	2.091948	0.708771	-0.017105
1128	5.6350e-01	-5.0533	-8.642734	0.000225	2.248844	0.761929	-0.018388
1129	5.6400e-01	-5.0966	-8.727404	0.000207	2.071029	0.701684	-0.016934
1130	5.6450e-01	-5.1448	-8.818061	0.000222	2.217465	0.751297	-0.018131
1131	5.6500e-01	-5.1769	-8.904013	0.000210	2.102408	0.712315	-0.017191
1132	5.6550e-01	-5.2138	-8.983979	0.000196	1.955972	0.662701	-0.015993
1133	5.6600e-01	-5.2683	-9.082333	0.000241	2.405740	0.815087	-0.019671
1134	5.6650e-01	-5.2956	-9.166148	0.000205	2.050109	0.694596	-0.016763
1135	5.6700e-01	-5.3613	-9.253811	0.000214	2.144247	0.726491	-0.017533
1136	5.6750e-01	-5.3662	-9.333777	0.000196	1.955972	0.662701	-0.015993
1137	5.6800e-01	-5.4351	-9.419730	0.000210	2.102408	0.712315	-0.017191
1138	5.6850e-01	-5.4624	-9.510814	0.000223	2.227925	0.754841	-0.018217
1139	5.6900e-01	-5.4913	-9.595911	0.000208	2.081488	0.705227	-0.017019
1140	5.6950e-01	-5.5154	-9.687423	0.000224	2.238385	0.758385	-0.018302
1141	5.7000e-01	-5.5891	-9.771665	0.000206	2.060569	0.698140	-0.016848
1142	5.7050e-01	-5.6116	-9.853342	0.000200	1.997810	0.676877	-0.016335
1143	5.7100e-01	-5.6293	-9.945281	0.000225	2.248844	0.761929	-0.018388
1144	5.7150e-01	-5.6966	-10.031661	0.000211	2.112868	0.715859	-0.017276
1145	5.7200e-01	-5.7287	-10.116331	0.000207	2.071029	0.701684	-0.016934
1146	5.7250e-01	-5.7833	-10.202284	0.000210	2.102408	0.712315	-0.017191
1147	5.7300e-01	-5.8538	-10.280539	0.000191	1.914133	0.648526	-0.015651
1148	5.7350e-01	-5.8667	-10.369485	0.000218	2.175626	0.737122	-0.017789
1149	5.7400e-01	-5.9373	-10.454155	0.000207	2.071029	0.701684	-0.016934
1150	5.7450e-01	-5.9613	-10.537114	0.000203	2.029190	0.687508	-0.016592
1151	5.7500e-01	-5.9886	-10.623067	0.000210	2.102408	0.712315	-0.017191
1152	5.7550e-01	-6.0271	-10.704316	0.000199	1.987351	0.673333	-0.016250
1153	5.7600e-01	-6.0560	-10.795400	0.000223	2.227925	0.754841	-0.018217
1154	5.7650e-01	-6.1057	-10.883063	0.000214	2.144247	0.726491	-0.017533
1155	5.7700e-01	-6.1298	-10.956187	0.000179	1.788616	0.605999	-0.014625
1156	5.7750e-01	-6.1843	-11.038291	0.000201	2.008270	0.680420	-0.016421
1157	5.7800e-01	-6.2421	-11.122533	0.000206	2.060569	0.698140	-0.016848
1158	5.7850e-01	-6.2565	-11.204637	0.000201	2.008270	0.680420	-0.016421
1159	5.7900e-01	-6.3127	-11.287169	0.000202	2.018730	0.683964	-0.016506
1160	5.7950e-01	-6.3592	-11.367563	0.000197	1.966431	0.666245	-0.016079
1161	5.8000e-01	-6.3929	-11.452232	0.000207	2.071029	0.701684	-0.016934
1162	5.8050e-01	-6.4314	-11.533481	0.000199	1.987351	0.673333	-0.016250
1163	5.8100e-01	-6.4410	-11.613020	0.000195	1.945512	0.659157	-0.015908
1164	5.8150e-01	-6.5148	-11.696407	0.000204	2.039649	0.691052	-0.016677
1165	5.8200e-01	-6.5180	-11.778511	0.000201	2.008270	0.680420	-0.016421
1166	5.8250e-01	-6.5597	-11.866601	0.000215	2.154707	0.730034	-0.017618
1167	5.8300e-01	-6.6239	-11.941863	0.000184	1.840914	0.623719	-0.015052
1168	5.8350e-01	-6.6704	-12.022685	0.000198	1.976891	0.669789	-0.016164
1169	5.8400e-01	-6.6897	-12.100512	0.000190	1.903673	0.644982	-0.015566
1170	5.8450e-01	-6.7570	-12.178340	0.000190	1.903673	0.644982	-0.015566
1171	5.8500e-01	-6.7683	-12.262155	0.000205	2.050109	0.694596	-0.016763
1172	5.8550e-01	-6.8212	-12.345542	0.000204	2.039649	0.691052	-0.016677
1173	5.8600e-01	-6.8517	-12.425935	0.000197	1.966431	0.666245	-0.016079
1174	5.8650e-01	-6.9255	-12.505474	0.000195	1.945512	0.659157	-0.015908
1175	5.8700e-01	-6.9576	-12.586722	0.000199	1.987351	0.673333	-0.016250
1176	5.8750e-01	-6.9704	-12.668399	0.000200	1.997810	0.676877	-0.016335
1177	5.8800e-01	-7.0137	-12.745371	0.000188	1.882753	0.637894	-0.015395
1178	5.8850e-01	-7.0811	-12.824054	0.000192	1.924592	0.652070	-0.015737
1179	5.8900e-01	-7.0891	-12.911290	0.000213	2.133787	0.722947	-0.017447
1180	5.8950e-01	-7.1533	-12.988262	0.000188	1.882753	0.637894	-0.015395
1181	5.9000e-01	-7.1677	-13.069511	0.000199	1.987351	0.673333	-0.016250
1182	5.9050e-01	-7.2255	-13.146056	0.000187	1.872294	0.634350	-0.015309
1183	5.9100e-01	-7.2768	-13.223029	0.000188	1.882753	0.637894	-0.015395
1184	5.9150e-01	-7.2912	-13.301712	0.000192	1.924592	0.652070	-0.015737
1185	5.9200e-01	-7.3442	-13.381250	0.000195	1.945512	0.659157	-0.015908
1186	5.9250e-01	-7.3859	-13.458650	0.000189	1.893213	0.641438	-0.015480
1187	5.9300e-01	-7.4485	-13.539471	0.000198	1.976891	0.669789	-0.016164
1188	5.9350e-01	-7.4533	-13.621148	0.000200	1.997810	0.676877	-0.016335
1189	5.9400e-01	-7.5239	-13.701114	0.000196	1.955972	0.662701	-0.015993
1190	5.9450e-01	-7.5559	-13.778514	0.000189	1.893213	0.641438	-0.015480
1191	5.9500e-01	-7.5800	-13.858480	0.000196	1.955972	0.662701	-0.015993
1192	5.9550e-01	-7.6265	-13.943150	0.000207	2.071029	0.701684	-0.016934
1193	5.9600e-01	-7.6522	-14.014991	0.000176	1.757236	0.595368	-0.014368
1194	5.9650e-01	-7.7148	-14.087687	0.000178	1.778156	0.602456	-0.014539
1195	5.9700e-01	-7.7597	-14.171074	0.000204	2.039649	0.691052	-0.016677
1196	5.9750e-01	-7.8174	-14.243770	0.000178	1.778156	0.602456	-0.014539
1197	5.9800e-01	-7.8495	-14.322453	0.000192	1.924592	0.652070	-0.015737
1198	5.9850e-01	-7.8784	-14.394722	0.000177	1.767696	0.598912	-0.014454
1199	5.9900e-01	-7.9137	-14.473833	0.000194	1.935052	0.655613	-0.015822
1200	5.9950e-01	-7.9570	-14.546101	0.000177	1.767696	0.598912	-0.014454
1201	6.0000e-01	-7.9859	-14.627350	0.000199	1.987351	0.673333	-0.016250
1202	6.0050e-01	-8.0035	-14.702612	0.000184	1.840914	0.623719	-0.015052
1203	6.0100e-01	-8.0693	-14.780012	0.000189	1.893213	0.641438	-0.015480
1204	6.0150e-01	-8.1014	-14.854847	0.000183	1.830455	0.620175	-0.014967
1205	6.0200e-01	-8.1351	-14.924122	0.000169	1.694478	0.574105	-0.013855
1206	6.0250e-01	-8.1928	-15.000667	0.000187	1.872294	0.634350	-0.015309
1207	6.0300e-01	-8.2137	-15.076784	0.000186	1.861834	0.630806	-0.015223
1208	6.0350e-01	-8.2698	-15.156323	0.000195	1.945512	0.659157	-0.015908
1209	6.0400e-01	-8.2971	-15.233295	0.000188	1.882753	0.637894	-0.015395
1210	6.0450e-01	-8.3388	-15.310695	0.000189	1.893213	0.641438	-0.015480
1211	6.0500e-01	-8.4014	-15.376977	0.000162	1.621260	0.549298	-0.013256
1212	6.0550e-01	-8.4062	-15.453095	0.000186	1.861834	0.630806	-0.015223
1213	6.0600e-01	-8.4832	-15.530922	0.000190	1.903673	0.644982	-0.015566
1214	6.0650e-01	-8.5169	-15.610033	0.000194	1.935052	0.655613	-0.015822
1215	6.0700e-01	-8.5345	-15.684867	0.000183	1.830455	0.620175	-0.014967
1216	6.0750e-01	-8.5859	-15.761840	0.000188	1.882753	0.637894	-0.015395
1217	6.0800e-01	-8.6228	-15.838813	0.000188	1.882753	0.637894	-0.015395
1218	6.0850e-01	-8.6965	-15.917068	0.000191	1.914133	0.648526	-0.015651
1219	6.0900e-01	-8.6901	-15.993613	-0.000187	-1.872294	-0.634350	-0.015309
1220	6.0950e-01	-8.7527	-16.066309	0.000178	1.778156	0.602456	-0.014539
1221	6.1000e-01	-8.7944	-16.142426	0.000186	1.861834	0.630806	-0.015223
1222	6.1050e-01	-8.8169	-16.216406	0.000181	1.809535	0.613087	-0.014796
1223	6.1100e-01	-8.8842	-16.290812	0.000182	1.819995	0.616631	-0.014881
1224	6.1150e-01	-8.8586	-16.371634	-0.000198	-1.976891	-0.669789	-0.016164
1225	6.1200e-01	-8.9372	-16.443475	0.000176	1.757236	0.595368	-0.014368
1226	6.1250e-01	-9.0030	-16.520875	0.000189	1.893213	0.641438	-0.015480
1227	6.1300e-01	-9.0527	-16.591005	0.000172	1.715397	0.581192	-0.014026
1228	6.1350e-01	-9.0719	-16.668406	0.000189	1.893213	0.641438	-0.015480
1229	6.1400e-01	-9.1217	-16.743240	0.000183	1.830455	0.620175	-0.014967
1230	6.1450e-01	-9.1538	-16.812515	0.000169	1.694478	0.574105	-0.013855
1231	6.1500e-01	-9.1842	-16.886922	0.000182	1.819995	0.616631	-0.014881
1232	6.1550e-01	-9.2083	-16.969026	0.000201	2.008270	0.680420	-0.016421
1233	6.1600e-01	-9.2179	-17.040012	0.000174	1.736317	0.588280	-0.014197
1234	6.1650e-01	-9.2821	-17.113136	0.000179	1.788616	0.605999	-0.014625
1235	6.1700e-01	-9.3607	-17.181984	0.000168	1.684018	0.570561	-0.013770
1236	6.1750e-01	-9.3816	-17.253825	0.000176	1.757236	0.595368	-0.014368
1237	6.1800e-01	-9.4473	-17.333791	0.000196	1.955972	0.662701	-0.015993
1238	6.1850e-01	-9.4682	-17.404776	0.000174	1.736317	0.588280	-0.014197
1239	6.1900e-01	-9.5051	-17.480894	0.000186	1.861834	0.630806	-0.015223
1240	6.1950e-01	-9.5612	-17.549314	0.000167	1.673559	0.567017	-0.013684
1241	6.2000e-01	-9.5837	-17.620299	0.000174	1.736317	0.588280	-0.014197
1242	6.2050e-01	-9.6446	-17.694279	0.000181	1.809535	0.613087	-0.014796
1243	6.2100e-01	-9.6591	-17.766975	0.000178	1.778156	0.602456	-0.014539
1244	6.2150e-01	-9.7008	-17.841382	0.000182	1.819995	0.616631	-0.014881
1245	6.2200e-01	-9.7585	-17.910229	0.000168	1.684018	0.570561	-0.013770
1246	6.2250e-01	-9.7826	-17.985919	0.000185	1.851374	0.627263	-0.015138
1247	6.2300e-01	-9.8323	-18.055194	0.000169	1.694478	0.574105	-0.013855
1248	6.2350e-01	-9.9013	-18.129601	0.000182	1.819995	0.616631	-0.014881
1249	6.2400e-01	-9.8997	-18.200159	-0.000173	-1.725857	-0.584736	-0.014112
1250	6.2450e-01	-9.9222	-18.277559	0.000189	1.893213	0.641438	-0.015480
1251	6.2500e-01	-9.9815	-18.346835	0.000169	1.694478	0.574105	-0.013855
1252	6.2550e-01	-10.0056	-18.415255	0.000167	1.673559	0.567017	-0.013684
1253	6.2600e-01	-10.0441	-18.490517	0.000184	1.840914	0.623719	-0.015052
1254	6.2650e-01	-10.0922	-18.561503	0.000174	1.736317	0.588280	-0.014197
1255	6.2700e-01	-10.1115	-18.630778	0.000169	1.694478	0.574105	-0.013855
1256	6.2750e-01	-10.1997	-18.699626	0.000168	1.684018	0.570561	-0.013770
1257	6.2800e-01	-10.2206	-18.773605	0.000181	1.809535	0.613087	-0.014796
1258	6.2850e-01	-10.2559	-18.841170	0.000165	1.652639	0.559929	-0.013513
1259	6.2900e-01	-10.3088	-18.902320	0.000150	1.495743	0.506771	-0.012230
1260	6.2950e-01	-10.3666	-18.984852	0.000202	2.018730	0.683964	-0.016506
1261	6.3000e-01	-10.3810	-19.059258	0.000182	1.819995	0.616631	-0.014881
1262	6.3050e-01	-10.4034	-19.132382	0.000179	1.788616	0.605999	-0.014625
1263	6.3100e-01	-10.4740	-19.199092	0.000163	1.631720	0.552842	-0.013342
1264	6.3150e-01	-10.4885	-19.272216	0.000179	1.788616	0.605999	-0.014625
1265	6.3200e-01	-10.5109	-19.352609	0.000197	1.966431	0.666245	-0.016079
1266	6.3250e-01	-10.6024	-19.421885	0.000169	1.694478	0.574105	-0.013855
1267	6.3300e-01	-10.6200	-19.490732	0.000168	1.684018	0.570561	-0.013770
1268	6.3350e-01	-10.6842	-19.561291	0.000173	1.725857	0.584736	-0.014112
1269	6.3400e-01	-10.7259	-19.627145	0.000161	1.610800	0.545754	-0.013171
1270	6.3450e-01	-10.7564	-19.698558	0.000175	1.746777	0.591824	-0.014283
1271	6.3500e-01	-10.7788	-19.772110	0.000180	1.799075	0.609543	-0.014710
1272	6.3550e-01	-10.8254	-19.840102	0.000166	1.663099	0.563473	-0.013598
1273	6.3600e-01	-10.8510	-19.914509	0.000182	1.819995	0.616631	-0.014881
1274	6.3650e-01	-10.8815	-19.987205	0.000178	1.778156	0.602456	-0.014539
1275	6.3700e-01	-10.9537	-20.051777	0.000158	1.579421	0.535122	-0.012914
1276	6.3750e-01	-10.9970	-20.122763	0.000174	1.736317	0.588280	-0.014197
1277	6.3800e-01	-11.0275	-20.195031	0.000177	1.767696	0.598912	-0.014454
1278	6.3850e-01	-11.0724	-20.265589	0.000173	1.725857	0.584736	-0.014112
1279	6.3900e-01	-11.1125	-20.338286	0.000178	1.778156	0.602456	-0.014539
1280	6.3950e-01	-11.1478	-20.412265	0.000181	1.809535	0.613087	-0.014796
1281	6.4000e-01	-11.1847	-20.481540	0.000169	1.694478	0.574105	-0.013855
1282	6.4050e-01	-11.2425	-20.548677	0.000164	1.642179	0.556385	-0.013427
1283	6.4100e-01	-11.2906	-20.623512	0.000183	1.830455	0.620175	-0.014967
1284	6.4150e-01	-11.2938	-20.693642	0.000172	1.715397	0.581192	-0.014026
1285	6.4200e-01	-11.3403	-20.762062	0.000167	1.673559	0.567017	-0.013684
1286	6.4250e-01	-11.3307	-20.830482	-0.000167	-1.673559	-0.567017	-0.013684
1287	6.4300e-01	-11.4286	-20.898047	0.000165	1.652639	0.559929	-0.013513
1288	6.4350e-01	-11.4622	-20.969461	0.000175	1.746777	0.591824	-0.014283
1289	6.4400e-01	-11.5168	-21.037881	0.000167	1.673559	0.567017	-0.013684
1290	6.4450e-01	-11.5617	-21.112715	0.000183	1.830455	0.620175	-0.014967
1291	6.4500e-01	-11.5777	-21.179852	0.000164	1.642179	0.556385	-0.013427
1292	6.4550e-01	-11.6146	-21.246989	0.000164	1.642179	0.556385	-0.013427
1293	6.4600e-01	-11.6580	-21.319686	0.000178	1.778156	0.602456	-0.014539
1294	6.4650e-01	-11.7189	-21.391527	0.000176	1.757236	0.595368	-0.014368
1295	6.4700e-01	-11.7398	-21.458664	0.000164	1.642179	0.556385	-0.013427
1296	6.4750e-01	-11.8072	-21.526656	0.000166	1.663099	0.563473	-0.013598
1297	6.4800e-01	-11.8344	-21.593793	0.000164	1.642179	0.556385	-0.013427
1298	6.4850e-01	-11.8793	-21.667345	0.000180	1.799075	0.609543	-0.014710
1299	6.4900e-01	-11.9323	-21.740469	0.000179	1.788616	0.605999	-0.014625
1300	6.4950e-01	-11.9339	-21.806751	0.000162	1.621260	0.549298	-0.013256
1301	6.5000e-01	-11.9900	-21.874743	0.000166	1.663099	0.563473	-0.013598
1302	6.5050e-01	-12.0366	-21.947867	0.000179	1.788616	0.605999	-0.014625
1303	6.5100e-01	-12.0959	-22.019708	0.000176	1.757236	0.595368	-0.014368
1304	6.5150e-01	-12.1152	-22.092832	0.000179	1.788616	0.605999	-0.014625
1305	6.5200e-01	-12.1585	-22.156548	0.000156	1.558501	0.528035	-0.012743
1306	6.5250e-01	-12.2034	-22.228389	0.000176	1.757236	0.595368	-0.014368
1307	6.5300e-01	-12.2194	-22.307500	0.000194	1.935052	0.655613	-0.015822
1308	6.5350e-01	-12.2756	-22.369078	0.000151	1.506203	0.510315	-0.012316
1309	6.5400e-01	-12.3221	-22.435360	0.000162	1.621260	0.549298	-0.013256
1310	6.5450e-01	-12.3638	-22.505063	0.000170	1.704938	0.577649	-0.013941
1311	6.5500e-01	-12.3767	-22.570062	0.000159	1.589881	0.538666	-0.013000
1312	6.5550e-01	-12.4408	-22.641903	0.000176	1.757236	0.595368	-0.014368
1313	6.5600e-01	-12.4954	-22.709895	0.000166	1.663099	0.563473	-0.013598
1314	6.5650e-01	-12.5275	-22.781309	0.000175	1.746777	0.591824	-0.014283
1315	6.5700e-01	-12.5772	-22.845880	0.000158	1.579421	0.535122	-0.012914
1316	6.5750e-01	-12.5868	-22.915156	0.000169	1.694478	0.574105	-0.013855
1317	6.5800e-01	-12.5692	-22.985286	-0.000172	-1.715397	-0.581192	-0.014026
1318	6.5850e-01	-12.6654	-23.047719	0.000153	1.527122	0.517403	-0.012487
1319	6.5900e-01	-12.7200	-23.117422	0.000170	1.704938	0.577649	-0.013941
1320	6.5950e-01	-12.7440	-23.187553	0.000172	1.715397	0.581192	-0.014026
1321	6.6000e-01	-12.7905	-23.253835	0.000162	1.621260	0.549298	-0.013256
1322	6.6050e-01	-12.8290	-23.326103	0.000177	1.767696	0.598912	-0.014454
1323	6.6100e-01	-12.8964	-23.387682	0.000151	1.506203	0.510315	-0.012316
1324	6.6150e-01	-12.8531	-23.457384	-0.000170	-1.704938	-0.577649	-0.013941
1325	6.6200e-01	-12.9381	-23.519390	0.000152	1.516662	0.513859	-0.012401
1326	6.6250e-01	-13.0039	-23.587383	0.000166	1.663099	0.563473	-0.013598
1327	6.6300e-01	-13.0552	-23.658796	0.000175	1.746777	0.591824	-0.014283
1328	6.6350e-01	-13.0986	-23.729354	0.000173	1.725857	0.584736	-0.014112
1329	6.6400e-01	-13.1002	-23.780669	0.000126	1.255169	0.425263	-0.010263
1330	6.6450e-01	-13.1403	-23.861918	0.000199	1.987351	0.673333	-0.016250
1331	6.6500e-01	-13.1788	-23.924779	0.000154	1.537582	0.520947	-0.012572
1332	6.6550e-01	-13.2365	-23.997475	0.000178	1.778156	0.602456	-0.014539
1333	6.6600e-01	-13.2638	-24.065468	0.000166	1.663099	0.563473	-0.013598
1334	6.6650e-01	-13.3103	-24.125335	0.000146	1.464364	0.496140	-0.011974
1335	6.6700e-01	-13.3488	-24.202735	0.000189	1.893213	0.641438	-0.015480
1336	6.6750e-01	-13.3777	-24.266024	0.000155	1.548042	0.524491	-0.012658
1337	6.6800e-01	-13.4258	-24.333589	0.000165	1.652639	0.559929	-0.013513
1338	6.6850e-01	-13.4659	-24.398160	0.000158	1.579421	0.535122	-0.012914
1339	6.6900e-01	-13.4900	-24.464442	0.000162	1.621260	0.549298	-0.013256
1340	6.6950e-01	-13.5686	-24.533290	0.000168	1.684018	0.570561	-0.013770
1341	6.7000e-01	-13.5959	-24.600427	0.000164	1.642179	0.556385	-0.013427
1342	6.7050e-01	-13.6360	-24.668847	0.000167	1.673559	0.567017	-0.013684
1343	6.7100e-01	-13.6889	-24.732135	0.000155	1.548042	0.524491	-0.012658
1344	6.7150e-01	-13.6985	-24.797562	0.000160	1.600340	0.542210	-0.013085
1345	6.7200e-01	-13.7258	-24.864272	0.000163	1.631720	0.552842	-0.013342
1346	6.7250e-01	-13.8173	-24.922856	0.000143	1.432984	0.485508	-0.011717
1347	6.7300e-01	-13.8461	-24.990421	0.000165	1.652639	0.559929	-0.013513
1348	6.7350e-01	-13.8943	-25.060552	0.000172	1.715397	0.581192	-0.014026
1349	6.7400e-01	-13.9007	-25.128544	0.000166	1.663099	0.563473	-0.013598
1350	6.7450e-01	-13.9312	-25.193543	0.000159	1.589881	0.538666	-0.013000
1351	6.7500e-01	-13.9713	-25.262818	0.000169	1.694478	0.574105	-0.013855
1352	6.7550e-01	-14.0066	-25.324396	0.000151	1.506203	0.510315	-0.012316
1353	6.7600e-01	-14.0627	-25.386402	0.000152	1.516662	0.513859	-0.012401
1354	6.7650e-01	-14.1285	-25.458671	0.000177	1.767696	0.598912	-0.014454
1355	6.7700e-01	-14.1445	-25.524097	0.000160	1.600340	0.542210	-0.013085
1356	6.7750e-01	-14.1894	-25.590379	0.000162	1.621260	0.549298	-0.013256
1357	6.7800e-01	-14.2231	-25.649392	0.000144	1.443444	0.489052	-0.011802
1358	6.7850e-01	-14.2424	-25.718239	0.000168	1.684018	0.570561	-0.013770
1359	6.7900e-01	-14.3178	-25.787087	0.000168	1.684018	0.570561	-0.013770
1360	6.7950e-01	-14.3563	-25.849520	0.000153	1.527122	0.517403	-0.012487
1361	6.8000e-01	-14.3691	-25.918796	0.000169	1.694478	0.574105	-0.013855
1362	6.8050e-01	-14.3884	-25.982939	0.000157	1.568961	0.531578	-0.012829
1363	6.8100e-01	-14.4573	-26.045800	0.000154	1.537582	0.520947	-0.012572
1364	6.8150e-01	-14.5167	-26.110372	0.000158	1.579421	0.535122	-0.012914
1365	6.8200e-01	-14.5536	-26.177509	0.000164	1.642179	0.556385	-0.013427
1366	6.8250e-01	-14.5729	-26.242080	0.000158	1.579421	0.535122	-0.012914
1367	6.8300e-01	-14.6258	-26.304514	0.000153	1.527122	0.517403	-0.012487
1368	6.8350e-01	-14.6916	-26.371651	0.000164	1.642179	0.556385	-0.013427
1369	6.8400e-01	-14.7092	-26.442209	0.000173	1.725857	0.584736	-0.014112
1370	6.8450e-01	-14.7445	-26.505497	0.000155	1.548042	0.524491	-0.012658
1371	6.8500e-01	-14.7766	-26.567075	0.000151	1.506203	0.510315	-0.012316
1372	6.8550e-01	-14.7974	-26.631219	0.000157	1.568961	0.531578	-0.012829
1373	6.8600e-01	-14.8568	-26.697074	0.000161	1.610800	0.545754	-0.013171
1374	6.8650e-01	-14.8664	-26.765066	0.000166	1.663099	0.563473	-0.013598
1375	6.8700e-01	-14.9194	-26.827499	0.000153	1.527122	0.517403	-0.012487
1376	6.8750e-01	-14.9787	-26.895064	0.000165	1.652639	0.559929	-0.013513
1377	6.8800e-01	-15.0397	-26.959208	0.000157	1.568961	0.531578	-0.012829
1378	6.8850e-01	-15.0990	-27.024634	0.000160	1.600340	0.542210	-0.013085
1379	6.8900e-01	-15.1327	-27.091772	0.000164	1.642179	0.556385	-0.013427
1380	6.8950e-01	-15.1391	-27.152494	0.000149	1.485283	0.503228	-0.012145
1381	6.9000e-01	-15.1905	-27.215783	0.000155	1.548042	0.524491	-0.012658
1382	6.9050e-01	-15.2306	-27.280782	0.000159	1.589881	0.538666	-0.013000
1383	6.9100e-01	-15.2771	-27.342360	0.000151	1.506203	0.510315	-0.012316
1384	6.9150e-01	-15.3188	-27.409497	0.000164	1.642179	0.556385	-0.013427
1385	6.9200e-01	-15.3525	-27.474496	0.000159	1.589881	0.538666	-0.013000
1386	6.9250e-01	-15.3942	-27.539923	0.000160	1.600340	0.542210	-0.013085
1387	6.9300e-01	-15.4536	-27.599363	0.000145	1.453904	0.492596	-0.011888
1388	6.9350e-01	-15.4905	-27.662651	0.000155	1.548042	0.524491	-0.012658
1389	6.9400e-01	-15.5177	-27.731927	0.000169	1.694478	0.574105	-0.013855
1390	6.9450e-01	-15.5210	-27.792649	0.000149	1.485283	0.503228	-0.012145
1391	6.9500e-01	-15.5899	-27.859787	0.000164	1.642179	0.556385	-0.013427
1392	6.9550e-01	-15.6220	-27.925213	0.000160	1.600340	0.542210	-0.013085
1393	6.9600e-01	-15.6718	-27.988929	0.000156	1.558501	0.528035	-0.012743
1394	6.9650e-01	-15.7263	-28.051363	0.000153	1.527122	0.517403	-0.012487
1395	6.9700e-01	-15.7375	-28.118928	0.000165	1.652639	0.559929	-0.013513
1396	6.9750e-01	-15.7937	-28.184354	0.000160	1.600340	0.542210	-0.013085
1397	6.9800e-01	-15.8322	-28.248498	0.000157	1.568961	0.531578	-0.012829
1398	6.9850e-01	-15.8723	-28.313497	0.000159	1.589881	0.538666	-0.013000
1399	6.9900e-01	-15.9188	-28.379779	0.000162	1.621260	0.549298	-0.013256
1400	6.9950e-01	-15.9589	-28.425107	0.000111	1.108733	0.375649	-0.009066
1401	7.0000e-01	-15.9717	-28.509777	0.000207	2.071029	0.701684	-0.016934
1402	7.0050e-01	-16.0423	-28.566651	0.000139	1.391146	0.471333	-0.011375
1403	7.0100e-01	-16.0840	-28.633361	0.000163	1.631720	0.552842	-0.013342
1404	7.0150e-01	-16.1193	-28.696649	0.000155	1.548042	0.524491	-0.012658
1405	7.0200e-01	-16.1290	-28.759510	0.000154	1.537582	0.520947	-0.012572
1406	7.0250e-01	-16.1883	-28.833489	0.000181	1.809535	0.613087	-0.014796
1407	7.0300e-01	-16.1915	-28.892502	0.000144	1.443444	0.489052	-0.011802
1408	7.0350e-01	-16.2573	-28.954507	0.000152	1.516662	0.513859	-0.012401
1409	7.0400e-01	-16.3022	-29.014375	0.000146	1.464364	0.496140	-0.011974
1410	7.0450e-01	-16.3632	-29.079802	0.000160	1.600340	0.542210	-0.013085
1411	7.0500e-01	-16.4081	-29.143945	0.000157	1.568961	0.531578	-0.012829
1412	7.0550e-01	-16.4466	-29.208517	0.000158	1.579421	0.535122	-0.012914
1413	7.0600e-01	-16.4963	-29.268812	0.000147	1.474823	0.499684	-0.012059
1414	7.0650e-01	-16.4915	-29.330390	-0.000151	-1.506203	-0.510315	-0.012316
1415	7.0700e-01	-16.5396	-29.393679	0.000155	1.548042	0.524491	-0.012658
1416	7.0750e-01	-16.5797	-29.459105	0.000160	1.600340	0.542210	-0.013085
1417	7.0800e-01	-16.6006	-29.516835	0.000141	1.412065	0.478421	-0.011546
1418	7.0850e-01	-16.6760	-29.578413	0.000151	1.506203	0.510315	-0.012316
1419	7.0900e-01	-16.7049	-29.642556	0.000157	1.568961	0.531578	-0.012829
1420	7.0950e-01	-16.7386	-29.707128	0.000158	1.579421	0.535122	-0.012914
1421	7.1000e-01	-16.7979	-29.772127	0.000159	1.589881	0.538666	-0.013000
1422	7.1050e-01	-16.8428	-29.836698	0.000158	1.579421	0.535122	-0.012914
1423	7.1100e-01	-16.8589	-29.893572	0.000139	1.391146	0.471333	-0.011375
1424	7.1150e-01	-16.9134	-29.958571	0.000159	1.589881	0.538666	-0.013000
1425	7.1200e-01	-16.9327	-30.025281	0.000163	1.631720	0.552842	-0.013342
1426	7.1250e-01	-17.0113	-30.087287	0.000152	1.516662	0.513859	-0.012401
1427	7.1300e-01	-17.0129	-30.148009	0.000149	1.485283	0.503228	-0.012145
1428	7.1350e-01	-17.0610	-30.207449	0.000145	1.453904	0.492596	-0.011888
1429	7.1400e-01	-17.1075	-30.269455	0.000152	1.516662	0.513859	-0.012401
1430	7.1450e-01	-17.1444	-30.337875	0.000167	1.673559	0.567017	-0.013684
1431	7.1500e-01	-17.1749	-30.402874	0.000159	1.589881	0.538666	-0.013000
1432	7.1550e-01	-17.2455	-30.461459	0.000143	1.432984	0.485508	-0.011717
1433	7.1600e-01	-17.2728	-30.524320	0.000154	1.537582	0.520947	-0.012572
1434	7.1650e-01	-17.3065	-30.586325	0.000152	1.516662	0.513859	-0.012401
1435	7.1700e-01	-17.3337	-30.651752	0.000160	1.600340	0.542210	-0.013085
1436	7.1750e-01	-17.3899	-30.714613	0.000154	1.537582	0.520947	-0.012572
1437	7.1800e-01	-17.4364	-30.776191	0.000151	1.506203	0.510315	-0.012316
1438	7.1850e-01	-17.4669	-30.836914	0.000149	1.485283	0.503228	-0.012145
1439	7.1900e-01	-17.5230	-30.903196	0.000162	1.621260	0.549298	-0.013256
1440	7.1950e-01	-17.5535	-30.965201	0.000152	1.516662	0.513859	-0.012401
1441	7.2000e-01	-17.5647	-31.029345	0.000157	1.568961	0.531578	-0.012829
1442	7.2050e-01	-17.6321	-31.090923	0.000151	1.506203	0.510315	-0.012316
1443	7.2100e-01	-17.6674	-31.152929	0.000152	1.516662	0.513859	-0.012401
1444	7.2150e-01	-17.7171	-31.217073	0.000157	1.568961	0.531578	-0.012829
1445	7.2200e-01	-17.7444	-31.281216	0.000157	1.568961	0.531578	-0.012829
1446	7.2250e-01	-17.7845	-31.342795	0.000151	1.506203	0.510315	-0.012316
1447	7.2300e-01	-17.8439	-31.406938	0.000157	1.568961	0.531578	-0.012829
1448	7.2350e-01	-17.8808	-31.467233	0.000147	1.474823	0.499684	-0.012059
1449	7.2400e-01	-17.8952	-31.532233	0.000159	1.589881	0.538666	-0.013000
1450	7.2450e-01	-17.9498	-31.594238	0.000152	1.516662	0.513859	-0.012401
1451	7.2500e-01	-18.0252	-31.649829	0.000136	1.359766	0.460701	-0.011118
1452	7.2550e-01	-18.0155	-31.719105	-0.000169	-1.694478	-0.574105	-0.013855
1453	7.2600e-01	-18.0685	-31.783249	0.000157	1.568961	0.531578	-0.012829
1454	7.2650e-01	-18.0861	-31.845682	0.000153	1.527122	0.517403	-0.012487
1455	7.2700e-01	-18.1695	-31.905122	0.000145	1.453904	0.492596	-0.011888
1456	7.2750e-01	-18.2000	-31.970121	0.000159	1.589881	0.538666	-0.013000
1457	7.2800e-01	-18.2321	-32.032982	0.000154	1.537582	0.520947	-0.012572
1458	7.2850e-01	-18.2546	-32.094132	0.000150	1.495743	0.506771	-0.012230
1459	7.2900e-01	-18.2899	-32.152289	0.000142	1.422525	0.481964	-0.011631
1460	7.2950e-01	-18.3428	-32.219854	0.000165	1.652639	0.559929	-0.013513
1461	7.3000e-01	-18.4166	-32.280577	0.000149	1.485283	0.503228	-0.012145
1462	7.3050e-01	-18.4278	-32.348142	0.000165	1.652639	0.559929	-0.013513
1463	7.3100e-01	-18.4824	-32.407154	0.000144	1.443444	0.489052	-0.011802
1464	7.3150e-01	-18.5177	-32.464883	0.000141	1.412065	0.478421	-0.011546
1465	7.3200e-01	-18.5626	-32.529455	0.000158	1.579421	0.535122	-0.012914
1466	7.3250e-01	-18.5979	-32.593171	0.000156	1.558501	0.528035	-0.012743
1467	7.3300e-01	-18.6412	-32.654749	0.000151	1.506203	0.510315	-0.012316
1468	7.3350e-01	-18.6604	-32.712478	0.000141	1.412065	0.478421	-0.011546
1469	7.3400e-01	-18.7086	-32.777050	0.000158	1.579421	0.535122	-0.012914
1470	7.3450e-01	-18.7342	-32.839055	0.000152	1.516662	0.513859	-0.012401
1471	7.3500e-01	-18.7808	-32.893364	0.000133	1.328387	0.450070	-0.010862
1472	7.3550e-01	-18.8080	-32.966488	0.000179	1.788616	0.605999	-0.014625
1473	7.3600e-01	-18.8642	-33.030204	0.000156	1.558501	0.528035	-0.012743
1474	7.3650e-01	-18.8947	-33.093065	0.000154	1.537582	0.520947	-0.012572
1475	7.3700e-01	-18.9572	-33.154215	0.000150	1.495743	0.506771	-0.012230
1476	7.3750e-01	-19.0037	-33.214938	0.000149	1.485283	0.503228	-0.012145
1477	7.3800e-01	-19.0182	-33.283786	0.000168	1.684018	0.570561	-0.013770
1478	7.3850e-01	-19.0647	-33.345791	0.000152	1.516662	0.513859	-0.012401
1479	7.3900e-01	-19.1192	-33.408225	0.000153	1.527122	0.517403	-0.012487
1480	7.3950e-01	-19.1690	-33.470658	0.000153	1.527122	0.517403	-0.012487
1481	7.4000e-01	-19.1738	-33.531381	0.000149	1.485283	0.503228	-0.012145
1482	7.4050e-01	-19.2283	-33.598518	0.000164	1.642179	0.556385	-0.013427
1483	7.4100e-01	-19.2412	-33.659668	0.000150	1.495743	0.506771	-0.012230
1484	7.4150e-01	-19.3134	-33.718681	0.000144	1.443444	0.489052	-0.011802
1485	7.4200e-01	-19.2925	-33.781541	-0.000154	-1.537582	-0.520947	-0.012572
1486	7.4250e-01	-19.3872	-33.846113	0.000158	1.579421	0.535122	-0.012914
1487	7.4300e-01	-19.4449	-33.906836	0.000149	1.485283	0.503228	-0.012145
1488	7.4350e-01	-19.4561	-33.967986	0.000150	1.495743	0.506771	-0.012230
1489	7.4400e-01	-19.5027	-34.032130	0.000157	1.568961	0.531578	-0.012829
1490	7.4450e-01	-19.5444	-34.095846	0.000156	1.558501	0.528035	-0.012743
1491	7.4500e-01	-19.5909	-34.161700	0.000161	1.610800	0.545754	-0.013171
1492	7.4550e-01	-19.6535	-34.224134	0.000153	1.527122	0.517403	-0.012487
1493	7.4600e-01	-19.6807	-34.284001	0.000146	1.464364	0.496140	-0.011974
1494	7.4650e-01	-19.7032	-34.345579	0.000151	1.506203	0.510315	-0.012316
1495	7.4700e-01	-19.7561	-34.409723	0.000157	1.568961	0.531578	-0.012829
1496	7.4750e-01	-19.7770	-34.476433	0.000163	1.631720	0.552842	-0.013342
1497	7.4800e-01	-19.8139	-34.540149	0.000156	1.558501	0.528035	-0.012743
1498	7.4850e-01	-19.8925	-34.600444	0.000147	1.474823	0.499684	-0.012059
1499	7.4900e-01	-19.9069	-34.662450	0.000152	1.516662	0.513859	-0.012401
1500	7.4950e-01	-19.9567	-34.721034	0.000143	1.432984	0.485508	-0.011717
1501	7.5000e-01	-19.9711	-34.786033	0.000159	1.589881	0.538666	-0.013000
1502	7.5050e-01	-19.9166	-34.847184	-0.000150	-1.495743	-0.506771	-0.012230
1503	7.5100e-01	-19.8877	-34.904485	-0.000140	-1.401605	-0.474877	-0.011460
1504	7.5150e-01	-19.8091	-34.951952	-0.000116	-1.161031	-0.393368	-0.009493
1505	7.5200e-01	-19.8043	-34.996425	-0.000109	-1.087813	-0.368561	-0.008895
1506	7.5250e-01	-19.7658	-35.034056	-0.000092	-0.920457	-0.311859	-0.007526
1507	7.5300e-01	-19.7224	-35.068266	-0.000084	-0.836779	-0.283508	-0.006842
1508	7.5350e-01	-19.6952	-35.097344	-0.000071	-0.711262	-0.240982	-0.005816
1509	7.5400e-01	-19.6310	-35.124712	-0.000067	-0.669423	-0.226807	-0.005474
1510	7.5450e-01	-19.5989	-35.155929	-0.000076	-0.763561	-0.258701	-0.006243
1511	7.5500e-01	-19.5363	-35.175172	-0.000047	-0.470688	-0.159474	-0.003849
1512	7.5550e-01	-19.5203	-35.193988	-0.000046	-0.460229	-0.155930	-0.003763
1513	7.5600e-01	-19.4866	-35.205961	-0.000029	-0.292873	-0.099228	-0.002395
1514	7.5650e-01	-19.4577	-35.220073	-0.000035	-0.345171	-0.116947	-0.002822
1515	7.5700e-01	-19.3920	-35.230336	-0.000025	-0.251034	-0.085053	-0.002053
1516	7.5750e-01	-19.3775	-35.237178	-0.000017	-0.167356	-0.056702	-0.001368
1517	7.5800e-01	-19.3294	-35.238888	-0.000004	-0.041839	-0.014175	-0.000342
1518	7.5850e-01	-19.3278	-35.243165	-0.000010	-0.104597	-0.035439	-0.000855
1519	7.5900e-01	-19.2203	-35.248724	-0.000014	-0.135977	-0.046070	-0.001112
1520	7.5950e-01	-19.1850	-35.245730	0.000007	0.073218	0.024807	0.000599
1521	7.6000e-01	-19.1642	-35.237606	0.000020	0.198735	0.067333	0.001625
1522	7.6050e-01	-19.1305	-35.238033	-0.000001	-0.010460	-0.003544	-0.000086
1523	7.6100e-01	-19.0759	-35.230764	0.000018	0.177816	0.060246	0.001454
1524	7.6150e-01	-19.0487	-35.221356	0.000023	0.230114	0.077965	0.001882
1525	7.6200e-01	-19.0102	-35.208527	0.000031	0.313792	0.106316	0.002566
1526	7.6250e-01	-18.9636	-35.195271	0.000032	0.324252	0.109860	0.002651
1527	7.6300e-01	-18.9267	-35.184580	0.000026	0.261494	0.088596	0.002138
1528	7.6350e-01	-18.8786	-35.168758	0.000039	0.387010	0.131123	0.003164
1529	7.6400e-01	-18.8321	-35.145238	0.000058	0.575286	0.194912	0.004704
1530	7.6450e-01	-18.7904	-35.125140	0.000049	0.491608	0.166561	0.004020
1531	7.6500e-01	-18.7856	-35.104614	0.000050	0.502068	0.170105	0.004105
1532	7.6550e-01	-18.7134	-35.083660	0.000051	0.512527	0.173649	0.004191
1533	7.6600e-01	-18.6652	-35.057148	0.000065	0.648504	0.219719	0.005303
1534	7.6650e-01	-18.6059	-35.032345	0.000061	0.606665	0.205544	0.004960
1535	7.6700e-01	-18.6235	-35.007115	-0.000062	-0.617125	-0.209088	0.005046
1536	7.6750e-01	-18.5481	-34.978465	0.000070	0.700803	0.237438	0.005730
1537	7.6800e-01	-18.5225	-34.946820	0.000077	0.774021	0.262245	0.006329
1538	7.6850e-01	-18.4936	-34.918169	0.000070	0.700803	0.237438	0.005730
1539	7.6900e-01	-18.4583	-34.883104	0.000086	0.857699	0.290596	0.007013
1540	7.6950e-01	-18.4022	-34.854453	0.000070	0.700803	0.237438	0.005730
1541	7.7000e-01	-18.3701	-34.801855	0.000129	1.286548	0.435894	0.010520
1542	7.7050e-01	-18.2883	-34.786888	0.000037	0.366091	0.124035	0.002993
1543	7.7100e-01	-18.2963	-34.754389	-0.000079	-0.794940	-0.269333	0.006500
1544	7.7150e-01	-18.2385	-34.718468	0.000088	0.878618	0.297684	0.007184
1545	7.7200e-01	-18.2096	-34.680837	0.000092	0.920457	0.311859	0.007526
1546	7.7250e-01	-18.1599	-34.643634	0.000091	0.909997	0.308315	0.007441
1547	7.7300e-01	-18.1294	-34.608996	0.000085	0.847239	0.287052	0.006928
1548	7.7350e-01	-18.0893	-34.573503	0.000087	0.868158	0.294140	0.007099
1549	7.7400e-01	-18.0348	-34.532451	0.000100	1.004135	0.340210	0.008210
1550	7.7450e-01	-18.0043	-34.486696	0.000112	1.119192	0.379193	0.009151
1551	7.7500e-01	-17.9883	-34.452058	0.000085	0.847239	0.287052	0.006928
1552	7.7550e-01	-17.9000	-34.409295	0.000105	1.045974	0.354386	0.008553
1553	7.7600e-01	-17.8888	-34.369099	0.000098	0.983216	0.333122	0.008039
1554	7.7650e-01	-17.8294	-34.323770	0.000111	1.108733	0.375649	0.009066
1555	7.7700e-01	-17.8022	-34.279297	0.000109	1.087813	0.368561	0.008895
1556	7.7750e-01	-17.7621	-34.233114	0.000113	1.129652	0.382736	0.009237
1557	7.7800e-01	-17.7123	-34.186503	0.000114	1.140112	0.386280	0.009322
1558	7.7850e-01	-17.6819	-34.143312	0.000106	1.056434	0.357929	0.008638
1559	7.7900e-01	-17.6321	-34.095418	0.000117	1.171491	0.396912	0.009579
1560	7.7950e-01	-17.5904	-34.053511	0.000103	1.025055	0.347298	0.008381
1561	7.8000e-01	-17.5487	-34.011176	0.000104	1.035514	0.350842	0.008467
1562	7.8050e-01	-17.4942	-33.959434	0.000127	1.265629	0.428807	0.010349
1563	7.8100e-01	-17.4508	-33.912822	0.000114	1.140112	0.386280	0.009322
1564	7.8150e-01	-17.4364	-33.864501	0.000118	1.181951	0.400456	0.009664
1565	7.8200e-01	-17.3995	-33.819600	0.000110	1.098273	0.372105	0.008980
1566	7.8250e-01	-17.3466	-33.779403	0.000098	0.983216	0.333122	0.008039
1567	7.8300e-01	-17.3353	-33.728944	0.000123	1.234249	0.418175	0.010092
1568	7.8350e-01	-17.2888	-33.682760	0.000113	1.129652	0.382736	0.009237
1569	7.8400e-01	-17.2359	-33.630590	0.000128	1.276088	0.432350	0.010434
1570	7.8450e-01	-17.2214	-33.582268	0.000118	1.181951	0.400456	0.009664
1571	7.8500e-01	-17.1797	-33.538223	0.000108	1.077353	0.365017	0.008809
1572	7.8550e-01	-17.1444	-33.490329	0.000117	1.171491	0.396912	0.009579
1573	7.8600e-01	-17.0434	-33.442862	0.000116	1.161031	0.393368	0.009493
1574	7.8650e-01	-17.0434	-33.394113	-0.000119	-1.192410	-0.404000	0.009750
1575	7.8700e-01	-16.9904	-33.342798	0.000126	1.255169	0.425263	0.010263
1576	7.8750e-01	-16.9664	-33.300891	0.000103	1.025055	0.347298	0.008381
1577	7.8800e-01	-16.9471	-33.248293	0.000129	1.286548	0.435894	0.010520
1578	7.8850e-01	-16.8813	-33.193984	0.000133	1.328387	0.450070	0.010862
1579	7.8900e-01	-16.8396	-33.147373	0.000114	1.140112	0.386280	0.009322
1580	7.8950e-01	-16.7658	-33.102900	0.000109	1.087813	0.368561	0.008895
1581	7.9000e-01	-16.7530	-33.051157	0.000127	1.265629	0.428807	0.010349
1582	7.9050e-01	-16.7241	-33.000698	0.000123	1.234249	0.418175	0.010092
1583	7.9100e-01	-16.6808	-32.948527	0.000128	1.276088	0.432350	0.010434
1584	7.9150e-01	-16.6375	-32.902344	0.000113	1.129652	0.382736	0.009237
1585	7.9200e-01	-16.6247	-32.853595	0.000119	1.192410	0.404000	0.009750
1586	7.9250e-01	-16.5765	-32.801424	0.000128	1.276088	0.432350	0.010434
1587	7.9300e-01	-16.4947	-32.746261	0.000135	1.349307	0.457157	0.011033
1588	7.9350e-01	-16.4610	-32.694946	0.000126	1.255169	0.425263	0.010263
1589	7.9400e-01	-16.4097	-32.642775	0.000128	1.276088	0.432350	0.010434
1590	7.9450e-01	-16.4161	-32.591033	-0.000127	-1.265629	-0.428807	0.010349
1591	7.9500e-01	-16.3471	-32.538007	0.000130	1.297008	0.439438	0.010605
1592	7.9550e-01	-16.3150	-32.481561	0.000138	1.380686	0.467789	0.011289
1593	7.9600e-01	-16.2685	-32.436660	0.000110	1.098273	0.372105	0.008980
1594	7.9650e-01	-16.2380	-32.383207	0.000131	1.307468	0.442982	0.010691
1595	7.9700e-01	-16.2044	-32.328471	0.000134	1.338847	0.453614	0.010947
1596	7.9750e-01	-16.1803	-32.275018	0.000131	1.307468	0.442982	0.010691
1597	7.9800e-01	-16.1418	-32.221137	0.000132	1.317927	0.446526	0.010776
1598	7.9850e-01	-16.0568	-32.172815	0.000118	1.181951	0.400456	0.009664
1599	7.9900e-01	-16.0536	-32.112092	0.000149	1.485283	0.503228	0.012145
1600	7.9950e-01	-15.9541	-32.062488	0.000121	1.213330	0.411087	0.009921
1601	8.0000e-01	-15.9894	-32.011600	-0.000124	-1.244709	-0.421719	0.010177
1602	8.0050e-01	-15.9541	-31.958575	0.000130	1.297008	0.439438	0.010605
1603	8.0100e-01	-15.9188	-31.906832	0.000127	1.265629	0.428807	0.010349
1604	8.0150e-01	-15.8466	-31.849103	0.000141	1.412065	0.478421	0.011546
1605	8.0200e-01	-15.8097	-31.800781	0.000118	1.181951	0.400456	0.009664
1606	8.0250e-01	-15.7680	-31.747756	0.000130	1.297008	0.439438	0.010605
1607	8.0300e-01	-15.7359	-31.693447	0.000133	1.328387	0.450070	0.010862
1608	8.0350e-01	-15.6413	-31.642987	0.000123	1.234249	0.418175	0.010092
1609	8.0400e-01	-15.6493	-31.589107	-0.000132	-1.317927	-0.446526	0.010776
1610	8.0450e-01	-15.5835	-31.535654	0.000131	1.307468	0.442982	0.010691
1611	8.0500e-01	-15.5546	-31.476214	0.000145	1.453904	0.492596	0.011888
1612	8.0550e-01	-15.5001	-31.438155	0.000093	0.930917	0.315403	0.007612
1613	8.0600e-01	-15.4536	-31.376577	0.000151	1.506203	0.510315	0.012316
1614	8.0650e-01	-15.4006	-31.320986	0.000136	1.359766	0.460701	0.011118
1615	8.0700e-01	-15.3798	-31.268815	0.000128	1.276088	0.432350	0.010434
1616	8.0750e-01	-15.3686	-31.216217	0.000129	1.286548	0.435894	0.010520
1617	8.0800e-01	-15.3108	-31.161054	0.000135	1.349307	0.457157	0.011033
1618	8.0850e-01	-15.2659	-31.113160	0.000117	1.171491	0.396912	0.009579
1619	8.0900e-01	-15.2370	-31.059707	0.000131	1.307468	0.442982	0.010691
1620	8.0950e-01	-15.1905	-31.004115	0.000136	1.359766	0.460701	0.011118
1621	8.1000e-01	-15.1311	-30.955794	0.000118	1.181951	0.400456	0.009664
1622	8.1050e-01	-15.1119	-30.898492	0.000140	1.401605	0.474877	0.011460
1623	8.1100e-01	-15.1006	-30.846322	0.000128	1.276088	0.432350	0.010434
1624	8.1150e-01	-15.0317	-30.786026	0.000147	1.474823	0.499684	0.012059
1625	8.1200e-01	-14.9900	-30.736849	0.000120	1.202870	0.407543	0.009835
1626	8.1250e-01	-14.9434	-30.682113	0.000134	1.338847	0.453614	0.010947
1627	8.1300e-01	-14.8937	-30.629088	0.000130	1.297008	0.439438	0.010605
1628	8.1350e-01	-14.8712	-30.575635	0.000131	1.307468	0.442982	0.010691
1629	8.1400e-01	-14.8408	-30.516195	0.000145	1.453904	0.492596	0.011888
1630	8.1450e-01	-14.8359	-30.461459	0.000134	1.338847	0.453614	0.010947
1631	8.1500e-01	-14.7333	-30.412282	0.000120	1.202870	0.407543	0.009835
1632	8.1550e-01	-14.7220	-30.356691	0.000136	1.359766	0.460701	0.011118
1633	8.1600e-01	-14.6563	-30.303237	0.000131	1.307468	0.442982	0.010691
1634	8.1650e-01	-14.6595	-30.248074	-0.000135	-1.349307	-0.457157	0.011033
1635	8.1700e-01	-14.6178	-30.191200	0.000139	1.391146	0.471333	0.011375
1636	8.1750e-01	-14.5552	-30.137746	0.000131	1.307468	0.442982	0.010691
1637	8.1800e-01	-14.5472	-30.085149	0.000129	1.286548	0.435894	0.010520
1638	8.1850e-01	-14.4910	-30.032123	0.000130	1.297008	0.439438	0.010605
1639	8.1900e-01	-14.4429	-29.976959	0.000135	1.349307	0.457157	0.011033
1640	8.1950e-01	-14.3739	-29.918802	0.000142	1.422525	0.481964	0.011631
1641	8.2000e-01	-14.3370	-29.867915	0.000124	1.244709	0.421719	0.010177
1642	8.2050e-01	-14.3226	-29.809758	0.000142	1.422525	0.481964	0.011631
1643	8.2100e-01	-14.2777	-29.758015	0.000127	1.265629	0.428807	0.010349
1644	8.2150e-01	-14.2568	-29.696010	0.000152	1.516662	0.513859	0.012401
1645	8.2200e-01	-14.2039	-29.639135	0.000139	1.391146	0.471333	0.011375
1646	8.2250e-01	-14.1654	-29.589531	0.000121	1.213330	0.411087	0.009921
1647	8.2300e-01	-14.1349	-29.536933	0.000129	1.286548	0.435894	0.010520
1648	8.2350e-01	-14.0691	-29.477493	0.000145	1.453904	0.492596	0.011888
1649	8.2400e-01	-14.0418	-29.422757	0.000134	1.338847	0.453614	0.010947
1650	8.2450e-01	-14.0178	-29.369304	0.000131	1.307468	0.442982	0.010691
1651	8.2500e-01	-13.9713	-29.312857	0.000138	1.380686	0.467789	0.011289
1652	8.2550e-01	-13.9328	-29.258549	0.000133	1.328387	0.450070	0.010862
1653	8.2600e-01	-13.8638	-29.201675	0.000139	1.391146	0.471333	0.011375
1654	8.2650e-01	-13.8189	-29.143090	0.000143	1.432984	0.485508	0.011717
1655	8.2700e-01	-13.7852	-29.087071	0.000137	1.370226	0.464245	0.011204
1656	8.2750e-01	-13.7691	-29.032335	0.000134	1.338847	0.453614	0.010947
1657	8.2800e-01	-13.7483	-28.980592	0.000127	1.265629	0.428807	0.010349
1658	8.2850e-01	-13.6697	-28.922008	0.000143	1.432984	0.485508	0.011717
1659	8.2900e-01	-13.6344	-28.860002	0.000152	1.516662	0.513859	0.012401
1660	8.2950e-01	-13.6007	-28.810398	0.000121	1.213330	0.411087	0.009921
1661	8.3000e-01	-13.5670	-28.749675	0.000149	1.485283	0.503228	0.012145
1662	8.3050e-01	-13.5189	-28.687669	0.000152	1.516662	0.513859	0.012401
1663	8.3100e-01	-13.4483	-28.634644	0.000130	1.297008	0.439438	0.010605
1664	8.3150e-01	-13.4354	-28.582046	0.000129	1.286548	0.435894	0.010520
1665	8.3200e-01	-13.4130	-28.523889	0.000142	1.422525	0.481964	0.011631
1666	8.3250e-01	-13.3328	-28.467015	0.000139	1.391146	0.471333	0.011375
1667	8.3300e-01	-13.3215	-28.410568	0.000138	1.380686	0.467789	0.011289
1668	8.3350e-01	-13.2221	-28.350700	0.000146	1.464364	0.496140	0.011974
1669	8.3400e-01	-13.2333	-28.302379	-0.000118	-1.181951	-0.400456	0.009664
1670	8.3450e-01	-13.1772	-28.237807	0.000158	1.579421	0.535122	0.012914
1671	8.3500e-01	-13.1724	-28.183071	0.000134	1.338847	0.453614	0.010947
1672	8.3550e-01	-13.1146	-28.125342	0.000141	1.412065	0.478421	0.011546
1673	8.3600e-01	-13.1002	-28.072316	0.000130	1.297008	0.439438	0.010605
1674	8.3650e-01	-13.0408	-28.011594	0.000149	1.485283	0.503228	0.012145
1675	8.3700e-01	-13.0103	-27.955147	0.000138	1.380686	0.467789	0.011289
1676	8.3750e-01	-12.9494	-27.898273	0.000139	1.391146	0.471333	0.011375
1677	8.3800e-01	-12.9397	-27.837978	0.000147	1.474823	0.499684	0.012059
1678	8.3850e-01	-12.8724	-27.786235	0.000127	1.265629	0.428807	0.010349
1679	8.3900e-01	-12.8659	-27.719953	0.000162	1.621260	0.549298	0.013256
1680	8.3950e-01	-12.7986	-27.666072	0.000132	1.317927	0.446526	0.010776
1681	8.4000e-01	-12.7520	-27.607488	0.000143	1.432984	0.485508	0.011717
1682	8.4050e-01	-12.7007	-27.531798	0.000185	1.851374	0.627263	0.015138
1683	8.4100e-01	-12.6686	-27.492029	0.000097	0.972756	0.329579	0.007954
1684	8.4150e-01	-12.6430	-27.438148	0.000132	1.317927	0.446526	0.010776
1685	8.4200e-01	-12.6173	-27.376998	0.000150	1.495743	0.506771	0.012230
1686	8.4250e-01	-12.5531	-27.317985	0.000144	1.443444	0.489052	0.011802
1687	8.4300e-01	-12.4954	-27.258118	0.000146	1.464364	0.496140	0.011974
1688	8.4350e-01	-12.4697	-27.204665	0.000131	1.307468	0.442982	0.010691
1689	8.4400e-01	-12.4119	-27.152494	0.000128	1.276088	0.432350	0.010434
1690	8.4450e-01	-12.4071	-27.096476	0.000137	1.370226	0.464245	0.011204
1691	8.4500e-01	-12.3783	-27.035753	0.000149	1.485283	0.503228	0.012145
1692	8.4550e-01	-12.3317	-26.979306	0.000138	1.380686	0.467789	0.011289
1693	8.4600e-01	-12.2531	-26.922004	0.000140	1.401605	0.474877	0.011460
1694	8.4650e-01	-12.2275	-26.866413	0.000136	1.359766	0.460701	0.011118
1695	8.4700e-01	-12.2098	-26.800131	0.000162	1.621260	0.549298	0.013256
1696	8.4750e-01	-12.1537	-26.748389	0.000127	1.265629	0.428807	0.010349
1697	8.4800e-01	-12.0654	-26.689804	0.000143	1.432984	0.485508	0.011717
1698	8.4850e-01	-12.0510	-26.629509	0.000147	1.474823	0.499684	0.012059
1699	8.4900e-01	-12.0590	-26.568358	-0.000150	-1.495743	-0.506771	0.012230
1700	8.4950e-01	-12.0013	-26.510629	0.000141	1.412065	0.478421	0.011546
1701	8.5000e-01	-11.9467	-26.458886	0.000127	1.265629	0.428807	0.010349
1702	8.5050e-01	-11.9018	-26.403723	0.000135	1.349307	0.457157	0.011033
1703	8.5100e-01	-11.8761	-26.347276	0.000138	1.380686	0.467789	0.011289
1704	8.5150e-01	-11.8376	-26.292968	0.000133	1.328387	0.450070	0.010862
1705	8.5200e-01	-11.8104	-26.233528	0.000145	1.453904	0.492596	0.011888
1706	8.5250e-01	-11.7318	-26.175798	0.000141	1.412065	0.478421	0.011546
1707	8.5300e-01	-11.7045	-26.119779	0.000137	1.370226	0.464245	0.011204
1708	8.5350e-01	-11.6548	-26.063760	0.000137	1.370226	0.464245	0.011204
1709	8.5400e-01	-11.6275	-26.005603	0.000142	1.422525	0.481964	0.011631
1710	8.5450e-01	-11.5777	-25.946591	0.000144	1.443444	0.489052	0.011802
1711	8.5500e-01	-11.5457	-25.893566	0.000130	1.297008	0.439438	0.010605
1712	8.5550e-01	-11.4911	-25.831988	0.000151	1.506203	0.510315	0.012316
1713	8.5600e-01	-11.4590	-25.775969	0.000137	1.370226	0.464245	0.011204
1714	8.5650e-01	-11.4302	-25.716101	0.000146	1.464364	0.496140	0.011974
1715	8.5700e-01	-11.3917	-25.654951	0.000150	1.495743	0.506771	0.012230
1716	8.5750e-01	-11.3323	-25.598504	0.000138	1.380686	0.467789	0.011289
1717	8.5800e-01	-11.3018	-25.543341	0.000135	1.349307	0.457157	0.011033
1718	8.5850e-01	-11.2665	-25.484328	0.000144	1.443444	0.489052	0.011802
1719	8.5900e-01	-11.2681	-25.416336	-0.000166	-1.663099	-0.563473	0.013598
1720	8.5950e-01	-11.1927	-25.357324	0.000144	1.443444	0.489052	0.011802
1721	8.6000e-01	-11.1542	-25.293180	0.000157	1.568961	0.531578	0.012829
1722	8.6050e-01	-11.1157	-25.236733	0.000138	1.380686	0.467789	0.011289
1723	8.6100e-01	-11.0580	-25.175155	0.000151	1.506203	0.510315	0.012316
1724	8.6150e-01	-11.0532	-25.104169	0.000174	1.736317	0.588280	0.014197
1725	8.6200e-01	-11.0275	-25.040453	0.000156	1.558501	0.528035	0.012743
1726	8.6250e-01	-10.9505	-24.977592	0.000154	1.537582	0.520947	0.012572
1727	8.6300e-01	-10.8992	-24.912166	0.000160	1.600340	0.542210	0.013085
1728	8.6350e-01	-10.8783	-24.851870	0.000147	1.474823	0.499684	0.012059
1729	8.6400e-01	-10.8286	-24.786871	0.000159	1.589881	0.538666	0.013000
1730	8.6450e-01	-10.7788	-24.728287	0.000143	1.432984	0.485508	0.011717
1731	8.6500e-01	-10.7371	-24.661150	0.000164	1.642179	0.556385	0.013427
1732	8.6550e-01	-10.7323	-24.595295	0.000161	1.610800	0.545754	0.013171
1733	8.6600e-01	-10.7018	-24.533717	0.000151	1.506203	0.510315	0.012316
1734	8.6650e-01	-10.6441	-24.472139	0.000151	1.506203	0.510315	0.012316
1735	8.6700e-01	-10.5976	-24.412699	0.000145	1.453904	0.492596	0.011888
1736	8.6750e-01	-10.5623	-24.349411	0.000155	1.548042	0.524491	0.012658
1737	8.6800e-01	-10.5222	-24.279280	0.000172	1.715397	0.581192	0.014026
1738	8.6850e-01	-10.4708	-24.224972	0.000133	1.328387	0.450070	0.010862
1739	8.6900e-01	-10.4323	-24.160828	0.000157	1.568961	0.531578	0.012829
1740	8.6950e-01	-10.4211	-24.097112	0.000156	1.558501	0.528035	0.012743
1741	8.7000e-01	-10.3377	-24.037244	0.000146	1.464364	0.496140	0.011974
1742	8.7050e-01	-10.3393	-23.973528	-0.000156	-1.558501	-0.528035	0.012743
1743	8.7100e-01	-10.2751	-23.914088	0.000145	1.453904	0.492596	0.011888
1744	8.7150e-01	-10.2318	-23.848234	0.000161	1.610800	0.545754	0.013171
1745	8.7200e-01	-10.1949	-23.788794	0.000145	1.453904	0.492596	0.011888
1746	8.7250e-01	-10.1580	-23.722084	0.000163	1.631720	0.552842	0.013342
1747	8.7300e-01	-10.1115	-23.665638	0.000138	1.380686	0.467789	0.011289
1748	8.7350e-01	-10.0794	-23.605343	0.000147	1.474823	0.499684	0.012059
1749	8.7400e-01	-10.0601	-23.539061	0.000162	1.621260	0.549298	0.013256
1750	8.7450e-01	-9.9912	-23.476628	0.000153	1.527122	0.517403	0.012487
1751	8.7500e-01	-9.9414	-23.417188	0.000145	1.453904	0.492596	0.011888
1752	8.7550e-01	-9.9174	-23.350906	0.000162	1.621260	0.549298	0.013256
1753	8.7600e-01	-9.8724	-23.301729	0.000120	1.202870	0.407543	0.009835
1754	8.7650e-01	-9.8500	-23.229888	0.000176	1.757236	0.595368	0.014368
1755	8.7700e-01	-9.8452	-23.168310	0.000151	1.506203	0.510315	0.012316
1756	8.7750e-01	-9.7425	-23.105021	0.000155	1.548042	0.524491	0.012658
1757	8.7800e-01	-9.7104	-23.038312	0.000163	1.631720	0.552842	0.013342
1758	8.7850e-01	-9.6591	-22.981438	0.000139	1.391146	0.471333	0.011375
1759	8.7900e-01	-9.6366	-22.922853	0.000143	1.432984	0.485508	0.011717
1760	8.7950e-01	-9.5869	-22.857854	0.000159	1.589881	0.538666	0.013000
1761	8.8000e-01	-9.5644	-22.791572	0.000162	1.621260	0.549298	0.013256
1762	8.8050e-01	-9.5115	-22.731277	0.000147	1.474823	0.499684	0.012059
1763	8.8100e-01	-9.4794	-22.677396	0.000132	1.317927	0.446526	0.010776
1764	8.8150e-01	-9.4425	-22.616673	0.000149	1.485283	0.503228	0.012145
1765	8.8200e-01	-9.3511	-22.558516	0.000142	1.422525	0.481964	0.011631
1766	8.8250e-01	-9.3431	-22.496510	0.000152	1.516662	0.513859	0.012401
1767	8.8300e-01	-9.3318	-22.438781	0.000141	1.412065	0.478421	0.011546
1768	8.8350e-01	-9.2677	-22.384473	0.000133	1.328387	0.450070	0.010862
1769	8.8400e-01	-9.2596	-22.316053	0.000167	1.673559	0.567017	0.013684
1770	8.8450e-01	-9.1842	-22.252764	0.000155	1.548042	0.524491	0.012658
1771	8.8500e-01	-9.1650	-22.195890	0.000139	1.391146	0.471333	0.011375
1772	8.8550e-01	-9.0944	-22.136022	0.000146	1.464364	0.496140	0.011974
1773	8.8600e-01	-9.0800	-22.076582	0.000145	1.453904	0.492596	0.011888
1774	8.8650e-01	-9.0302	-22.020136	0.000138	1.380686	0.467789	0.011289
1775	8.8700e-01	-9.0078	-21.959413	0.000149	1.485283	0.503228	0.012145
1776	8.8750e-01	-8.9612	-21.894414	0.000159	1.589881	0.538666	0.013000
1777	8.8800e-01	-8.9099	-21.836685	0.000141	1.412065	0.478421	0.011546
1778	8.8850e-01	-8.8891	-21.775107	0.000151	1.506203	0.510315	0.012316
1779	8.8900e-01	-8.8441	-21.715239	0.000146	1.464364	0.496140	0.011974
1780	8.8950e-01	-8.7896	-21.649812	0.000160	1.600340	0.542210	0.013085
1781	8.9000e-01	-8.7479	-21.587807	0.000152	1.516662	0.513859	0.012401
1782	8.9050e-01	-8.7030	-21.529222	0.000143	1.432984	0.485508	0.011717
1783	8.9100e-01	-8.7094	-21.467644	-0.000151	-1.506203	-0.510315	0.012316
1784	8.9150e-01	-8.6484	-21.405211	0.000153	1.527122	0.517403	0.012487
1785	8.9200e-01	-8.6131	-21.341495	0.000156	1.558501	0.528035	0.012743
1786	8.9250e-01	-8.5570	-21.277351	0.000157	1.568961	0.531578	0.012829
1787	8.9300e-01	-8.5089	-21.217056	0.000147	1.474823	0.499684	0.012059
1788	8.9350e-01	-8.4896	-21.157188	0.000146	1.464364	0.496140	0.011974
1789	8.9400e-01	-8.4206	-21.096465	0.000149	1.485283	0.503228	0.012145
1790	8.9450e-01	-8.3805	-21.027618	0.000168	1.684018	0.570561	0.013770
1791	8.9500e-01	-8.3966	-20.968178	-0.000145	-1.453904	-0.492596	0.011888
1792	8.9550e-01	-8.3228	-20.904889	0.000155	1.548042	0.524491	0.012658
1793	8.9600e-01	-8.2618	-20.842884	0.000152	1.516662	0.513859	0.012401
1794	8.9650e-01	-8.2474	-20.774036	0.000168	1.684018	0.570561	0.013770
1795	8.9700e-01	-8.1944	-20.709892	0.000157	1.568961	0.531578	0.012829
1796	8.9750e-01	-8.1768	-20.652163	0.000141	1.412065	0.478421	0.011546
1797	8.9800e-01	-8.0869	-20.582460	0.000170	1.704938	0.577649	0.013941
1798	8.9850e-01	-8.0516	-20.520882	0.000151	1.506203	0.510315	0.012316
1799	8.9900e-01	-8.0260	-20.452889	0.000166	1.663099	0.563473	0.013598
1800	8.9950e-01	-8.0035	-20.387890	0.000159	1.589881	0.538666	0.013000
1801	9.0000e-01	-7.9682	-20.325885	0.000152	1.516662	0.513859	0.012401
1802	9.0050e-01	-7.8960	-20.260886	0.000159	1.589881	0.538666	0.013000
1803	9.0100e-01	-7.8800	-20.195031	0.000161	1.610800	0.545754	0.013171
1804	9.0150e-01	-7.8303	-20.135164	0.000146	1.464364	0.496140	0.011974
1805	9.0200e-01	-7.7789	-20.068027	0.000164	1.642179	0.556385	0.013427
1806	9.0250e-01	-7.7853	-20.002172	-0.000161	-1.610800	-0.545754	0.013171
1807	9.0300e-01	-7.7164	-19.938456	0.000156	1.558501	0.528035	0.012743
1808	9.0350e-01	-7.6827	-19.871747	0.000163	1.631720	0.552842	0.013342
1809	9.0400e-01	-7.6313	-19.805892	0.000161	1.610800	0.545754	0.013171
1810	9.0450e-01	-7.6041	-19.741748	0.000157	1.568961	0.531578	0.012829
1811	9.0500e-01	-7.5527	-19.676322	0.000160	1.600340	0.542210	0.013085
1812	9.0550e-01	-7.4854	-19.611750	0.000158	1.579421	0.535122	0.012914
1813	9.0600e-01	-7.4805	-19.546751	0.000159	1.589881	0.538666	0.013000
1814	9.0650e-01	-7.4597	-19.478759	0.000166	1.663099	0.563473	0.013598
1815	9.0700e-01	-7.3859	-19.414187	0.000158	1.579421	0.535122	0.012914
1816	9.0750e-01	-7.3410	-19.344485	0.000170	1.704938	0.577649	0.013941
1817	9.0800e-01	-7.3233	-19.282051	0.000153	1.527122	0.517403	0.012487
1818	9.0850e-01	-7.2864	-19.211921	0.000172	1.715397	0.581192	0.014026
1819	9.0900e-01	-7.2271	-19.148205	0.000156	1.558501	0.528035	0.012743
1820	9.0950e-01	-7.1902	-19.084061	0.000157	1.568961	0.531578	0.012829
1821	9.1000e-01	-7.1469	-19.013503	0.000173	1.725857	0.584736	0.014112
1822	9.1050e-01	-7.1068	-18.949786	0.000156	1.558501	0.528035	0.012743
1823	9.1100e-01	-7.0955	-18.898471	0.000126	1.255169	0.425263	0.010263
1824	9.1150e-01	-7.0410	-18.816367	0.000201	2.008270	0.680420	0.016421
1825	9.1200e-01	-7.0057	-18.752224	0.000157	1.568961	0.531578	0.012829
1826	9.1250e-01	-6.9527	-18.677817	0.000182	1.819995	0.616631	0.014881
1827	9.1300e-01	-6.9191	-18.608969	0.000168	1.684018	0.570561	0.013770
1828	9.1350e-01	-6.8806	-18.540121	0.000168	1.684018	0.570561	0.013770
1829	9.1400e-01	-6.8292	-18.481109	0.000144	1.443444	0.489052	0.011802
1830	9.1450e-01	-6.7987	-18.416965	0.000157	1.568961	0.531578	0.012829
1831	9.1500e-01	-6.7715	-18.337855	0.000194	1.935052	0.655613	0.015822
1832	9.1550e-01	-6.7282	-18.272856	0.000159	1.589881	0.538666	0.013000
1833	9.1600e-01	-6.6752	-18.208284	0.000158	1.579421	0.535122	0.012914
1834	9.1650e-01	-6.6351	-18.143285	0.000159	1.589881	0.538666	0.013000
1835	9.1700e-01	-6.5998	-18.071444	0.000176	1.757236	0.595368	0.014368
1836	9.1750e-01	-6.5533	-18.003452	0.000166	1.663099	0.563473	0.013598
1837	9.1800e-01	-6.5212	-17.937170	0.000162	1.621260	0.549298	0.013256
1838	9.1850e-01	-6.4570	-17.865329	0.000176	1.757236	0.595368	0.014368
1839	9.1900e-01	-6.4394	-17.796909	0.000167	1.673559	0.567017	0.013684
1840	9.1950e-01	-6.4250	-17.725923	0.000174	1.736317	0.588280	0.014197
1841	9.2000e-01	-6.3447	-17.659213	0.000163	1.631720	0.552842	0.013342
1842	9.2050e-01	-6.3143	-17.597635	0.000151	1.506203	0.510315	0.012316
1843	9.2100e-01	-6.2597	-17.526650	0.000174	1.736317	0.588280	0.014197
1844	9.2150e-01	-6.2292	-17.463361	0.000155	1.548042	0.524491	0.012658
1845	9.2200e-01	-6.2164	-17.391948	0.000175	1.746777	0.591824	0.014283
1846	9.2250e-01	-6.1731	-17.323100	0.000168	1.684018	0.570561	0.013770
1847	9.2300e-01	-6.0977	-17.252969	0.000172	1.715397	0.581192	0.014026
1848	9.2350e-01	-6.0929	-17.187115	0.000161	1.610800	0.545754	0.013171
1849	9.2400e-01	-6.0191	-17.117412	0.000170	1.704938	0.577649	0.013941
1850	9.2450e-01	-5.9950	-17.048992	0.000167	1.673559	0.567017	0.013684
1851	9.2500e-01	-5.9565	-16.975868	0.000179	1.788616	0.605999	0.014625
1852	9.2550e-01	-5.9164	-16.912580	0.000155	1.548042	0.524491	0.012658
1853	9.2600e-01	-5.8683	-16.842877	0.000170	1.704938	0.577649	0.013941
1854	9.2650e-01	-5.8378	-16.770180	0.000178	1.778156	0.602456	0.014539
1855	9.2700e-01	-5.8234	-16.702616	0.000165	1.652639	0.559929	0.013513
1856	9.2750e-01	-5.7496	-16.627354	0.000184	1.840914	0.623719	0.015052
1857	9.2800e-01	-5.7271	-16.562782	0.000158	1.579421	0.535122	0.012914
1858	9.2850e-01	-5.6886	-16.493507	0.000169	1.694478	0.574105	0.013855
1859	9.2900e-01	-5.6421	-16.422093	0.000175	1.746777	0.591824	0.014283
1860	9.2950e-01	-5.5699	-16.353246	0.000168	1.684018	0.570561	0.013770
1861	9.3000e-01	-5.5474	-16.286109	0.000164	1.642179	0.556385	0.013427
1862	9.3050e-01	-5.5186	-16.210847	0.000184	1.840914	0.623719	0.015052
1863	9.3100e-01	-5.4881	-16.142854	0.000166	1.663099	0.563473	0.013598
1864	9.3150e-01	-5.4496	-16.068875	0.000181	1.809535	0.613087	0.014796
1865	9.3200e-01	-5.4143	-16.000027	0.000168	1.684018	0.570561	0.013770
1866	9.3250e-01	-5.3982	-15.926048	0.000181	1.809535	0.613087	0.014796
1867	9.3300e-01	-5.3244	-15.861904	0.000157	1.568961	0.531578	0.012829
1868	9.3350e-01	-5.3100	-15.784504	0.000189	1.893213	0.641438	0.015480
1869	9.3400e-01	-5.2619	-15.715229	0.000169	1.694478	0.574105	0.013855
1870	9.3450e-01	-5.1865	-15.643388	0.000176	1.757236	0.595368	0.014368
1871	9.3500e-01	-5.1608	-15.574113	0.000169	1.694478	0.574105	0.013855
1872	9.3550e-01	-5.1335	-15.496285	0.000190	1.903673	0.644982	0.015566
1873	9.3600e-01	-5.1175	-15.426582	0.000170	1.704938	0.577649	0.013941
1874	9.3650e-01	-5.0501	-15.355596	0.000174	1.736317	0.588280	0.014197
1875	9.3700e-01	-4.9908	-15.287604	0.000166	1.663099	0.563473	0.013598
1876	9.3750e-01	-4.9747	-15.212769	0.000183	1.830455	0.620175	0.014967
1877	9.3800e-01	-4.9378	-15.146915	0.000161	1.610800	0.545754	0.013171
1878	9.3850e-01	-4.8785	-15.073363	0.000180	1.799075	0.609543	0.014710
1879	9.3900e-01	-4.8207	-15.007509	0.000161	1.610800	0.545754	0.013171
1880	9.3950e-01	-4.7951	-14.933102	0.000182	1.819995	0.616631	0.014881
1881	9.4000e-01	-4.7646	-14.860406	0.000178	1.778156	0.602456	0.014539
1882	9.4050e-01	-4.7373	-14.789420	0.000174	1.736317	0.588280	0.014197
1883	9.4100e-01	-4.6956	-14.712448	0.000188	1.882753	0.637894	0.015395
1884	9.4150e-01	-4.6699	-14.643172	0.000169	1.694478	0.574105	0.013855
1885	9.4200e-01	-4.5945	-14.568765	0.000182	1.819995	0.616631	0.014881
1886	9.4250e-01	-4.5159	-14.498207	0.000173	1.725857	0.584736	0.014112
1887	9.4300e-01	-4.4758	-14.430215	0.000166	1.663099	0.563473	0.013598
1888	9.4350e-01	-4.4774	-14.359657	-0.000173	-1.725857	-0.584736	0.014112
1889	9.4400e-01	-4.4020	-14.284395	0.000184	1.840914	0.623719	0.015052
1890	9.4450e-01	-4.3876	-14.208277	0.000186	1.861834	0.630806	0.015223
1891	9.4500e-01	-4.3651	-14.139857	0.000167	1.673559	0.567017	0.013684
1892	9.4550e-01	-4.2993	-14.063312	0.000187	1.872294	0.634350	0.015309
1893	9.4600e-01	-4.2817	-13.994037	0.000169	1.694478	0.574105	0.013855
1894	9.4650e-01	-4.2448	-13.919630	0.000182	1.819995	0.616631	0.014881
1895	9.4700e-01	-4.1854	-13.850355	0.000169	1.694478	0.574105	0.013855
1896	9.4750e-01	-4.1534	-13.773382	0.000188	1.882753	0.637894	0.015395
1897	9.4800e-01	-4.1405	-13.701541	0.000176	1.757236	0.595368	0.014368
1898	9.4850e-01	-4.0731	-13.628418	0.000179	1.788616	0.605999	0.014625
1899	9.4900e-01	-4.0314	-13.555721	0.000178	1.778156	0.602456	0.014539
1900	9.4950e-01	-4.0122	-13.489439	0.000162	1.621260	0.549298	0.013256
1901	9.5000e-01	-3.9512	-13.412894	0.000187	1.872294	0.634350	0.015309
1902	9.5050e-01	-3.9031	-13.340626	0.000177	1.767696	0.598912	0.014454
1903	9.5100e-01	-3.8838	-13.268357	0.000177	1.767696	0.598912	0.014454
1904	9.5150e-01	-3.8229	-13.193095	0.000184	1.840914	0.623719	0.015052
1905	9.5200e-01	-3.8052	-13.118688	0.000182	1.819995	0.616631	0.014881
1906	9.5250e-01	-3.7523	-13.049413	0.000169	1.694478	0.574105	0.013855
1907	9.5300e-01	-3.7042	-12.969447	0.000196	1.955972	0.662701	0.015993
1908	9.5350e-01	-3.6737	-12.896751	0.000178	1.778156	0.602456	0.014539
1909	9.5400e-01	-3.6400	-12.821916	0.000183	1.830455	0.620175	0.014967
1910	9.5450e-01	-3.6031	-12.743233	0.000192	1.924592	0.652070	0.015737
1911	9.5500e-01	-3.5662	-12.665833	0.000189	1.893213	0.641438	0.015480
1912	9.5550e-01	-3.5149	-12.595702	0.000172	1.715397	0.581192	0.014026
1913	9.5600e-01	-3.4908	-12.523861	0.000176	1.757236	0.595368	0.014368
1914	9.5650e-01	-3.4331	-12.449455	0.000182	1.819995	0.616631	0.014881
1915	9.5700e-01	-3.3833	-12.377186	0.000177	1.767696	0.598912	0.014454
1916	9.5750e-01	-3.3480	-12.297648	0.000195	1.945512	0.659157	0.015908
1917	9.5800e-01	-3.2855	-12.223668	0.000181	1.809535	0.613087	0.014796
1918	9.5850e-01	-3.2550	-12.151400	0.000177	1.767696	0.598912	0.014454
1919	9.5900e-01	-3.2181	-12.076565	0.000183	1.830455	0.620175	0.014967
1920	9.5950e-01	-3.1796	-12.002159	0.000182	1.819995	0.616631	0.014881
1921	9.6000e-01	-3.1748	-11.920910	0.000199	1.987351	0.673333	0.016250
1922	9.6050e-01	-3.1266	-11.843510	0.000189	1.893213	0.641438	0.015480
1923	9.6100e-01	-3.0817	-11.773807	0.000170	1.704938	0.577649	0.013941
1924	9.6150e-01	-3.0432	-11.699400	0.000182	1.819995	0.616631	0.014881
1925	9.6200e-01	-3.0031	-11.623283	0.000186	1.861834	0.630806	0.015223
1926	9.6250e-01	-2.9550	-11.544172	0.000194	1.935052	0.655613	0.015822
1927	9.6300e-01	-2.9229	-11.466344	0.000190	1.903673	0.644982	0.015566
1928	9.6350e-01	-2.8780	-11.393220	0.000179	1.788616	0.605999	0.014625
1929	9.6400e-01	-2.8234	-11.315820	0.000189	1.893213	0.641438	0.015480
1930	9.6450e-01	-2.7737	-11.237992	0.000190	1.903673	0.644982	0.015566
1931	9.6500e-01	-2.7609	-11.159737	0.000191	1.914133	0.648526	0.015651
1932	9.6550e-01	-2.7192	-11.086185	0.000180	1.799075	0.609543	0.014710
1933	9.6600e-01	-2.6855	-11.010496	0.000185	1.851374	0.627263	0.015138
1934	9.6650e-01	-2.6133	-10.932668	0.000190	1.903673	0.644982	0.015566
1935	9.6700e-01	-2.6197	-10.852702	-0.000196	-1.955972	-0.662701	0.015993
1936	9.6750e-01	-2.5507	-10.774019	0.000192	1.924592	0.652070	0.015737
1937	9.6800e-01	-2.5459	-10.697474	0.000187	1.872294	0.634350	0.015309
1938	9.6850e-01	-2.4561	-10.619646	0.000190	1.903673	0.644982	0.015566
1939	9.6900e-01	-2.4256	-10.540963	0.000192	1.924592	0.652070	0.015737
1940	9.6950e-01	-2.3630	-10.460569	0.000197	1.966431	0.666245	0.016079
1941	9.7000e-01	-2.3422	-10.386163	0.000182	1.819995	0.616631	0.014881
1942	9.7050e-01	-2.3149	-10.308762	0.000189	1.893213	0.641438	0.015480
1943	9.7100e-01	-2.2668	-10.224520	0.000206	2.060569	0.698140	0.016848
1944	9.7150e-01	-2.2106	-10.147548	0.000188	1.882753	0.637894	0.015395
1945	9.7200e-01	-2.2058	-10.073569	0.000181	1.809535	0.613087	0.014796
1946	9.7250e-01	-2.1705	-9.992320	0.000199	1.987351	0.673333	0.016250
1947	9.7300e-01	-2.0951	-9.918341	0.000181	1.809535	0.613087	0.014796
1948	9.7350e-01	-2.0791	-9.836664	0.000200	1.997810	0.676877	0.016335
1949	9.7400e-01	-2.0422	-9.753705	0.000203	2.029190	0.687508	0.016592
1950	9.7450e-01	-1.9812	-9.676732	0.000188	1.882753	0.637894	0.015395
1951	9.7500e-01	-1.9780	-9.601470	0.000184	1.840914	0.623719	0.015052
1952	9.7550e-01	-1.9042	-9.521077	0.000197	1.966431	0.666245	0.016079
1953	9.7600e-01	-1.9074	-9.444532	-0.000187	-1.872294	-0.634350	0.015309
1954	9.7650e-01	-1.8160	-9.366704	0.000190	1.903673	0.644982	0.015566
1955	9.7700e-01	-1.7983	-9.284600	0.000201	2.008270	0.680420	0.016421
1956	9.7750e-01	-1.7518	-9.201641	0.000203	2.029190	0.687508	0.016592
1957	9.7800e-01	-1.6877	-9.130227	0.000175	1.746777	0.591824	0.014283
1958	9.7850e-01	-1.6973	-9.042992	-0.000213	-2.133787	-0.722947	0.017447
1959	9.7900e-01	-1.6748	-8.963881	0.000194	1.935052	0.655613	0.015822
1960	9.7950e-01	-1.6155	-8.883060	0.000198	1.976891	0.669789	0.016164
1961	9.8000e-01	-1.6042	-8.805232	0.000190	1.903673	0.644982	0.015566
1962	9.8050e-01	-1.4887	-8.723983	0.000199	1.987351	0.673333	0.016250
1963	9.8100e-01	-1.4775	-8.641879	0.000201	2.008270	0.680420	0.016421
1964	9.8150e-01	-1.4422	-8.569611	0.000177	1.767696	0.598912	0.014454
1965	9.8200e-01	-1.3893	-8.487079	0.000202	2.018730	0.683964	0.016506
1966	9.8250e-01	-1.3540	-8.401981	0.000208	2.081488	0.705227	0.017019
1967	9.8300e-01	-1.3331	-8.315173	0.000212	2.123327	0.719403	0.017362
1968	9.8350e-01	-1.2593	-8.238201	0.000188	1.882753	0.637894	0.015395
1969	9.8400e-01	-1.1903	-8.153959	0.000206	2.060569	0.698140	0.016848
1970	9.8450e-01	-1.1823	-8.073993	0.000196	1.955972	0.662701	0.015993
1971	9.8500e-01	-1.1791	-7.993599	0.000197	1.966431	0.666245	0.016079
1972	9.8550e-01	-1.1165	-7.916627	0.000188	1.882753	0.637894	0.015395
1973	9.8600e-01	-1.0764	-7.834523	0.000201	2.008270	0.680420	0.016421
1974	9.8650e-01	-1.0508	-7.748570	0.000210	2.102408	0.712315	0.017191
1975	9.8700e-01	-0.9690	-7.668604	0.000196	1.955972	0.662701	0.015993
1976	9.8750e-01	-0.9465	-7.586500	0.000201	2.008270	0.680420	0.016421
1977	9.8800e-01	-0.9000	-7.503113	0.000204	2.039649	0.691052	0.016677
1978	9.8850e-01	-0.8535	-7.425713	0.000189	1.893213	0.641438	0.015480
1979	9.8900e-01	-0.8486	-7.342326	0.000204	2.039649	0.691052	0.016677
1980	9.8950e-01	-0.8037	-7.251669	0.000222	2.217465	0.751297	0.018131
1981	9.9000e-01	-0.7604	-7.169565	0.000201	2.008270	0.680420	0.016421
1982	9.9050e-01	-0.7139	-7.086606	0.000203	2.029190	0.687508	0.016592
1983	9.9100e-01	-0.6786	-7.007495	0.000194	1.935052	0.655613	0.015822
1984	9.9150e-01	-0.6257	-6.924964	0.000202	2.018730	0.683964	0.016506
1985	9.9200e-01	-0.6016	-6.839866	0.000208	2.081488	0.705227	0.017019
1986	9.9250e-01	-0.5583	-6.751348	0.000217	2.165166	0.733578	0.017704
1987	9.9300e-01	-0.5278	-6.662402	0.000218	2.175626	0.737122	0.017789
1988	9.9350e-01	-0.4476	-6.582008	0.000197	1.966431	0.666245	0.016079
1989	9.9400e-01	-0.4267	-6.501187	0.000198	1.976891	0.669789	0.016164
1990	9.9450e-01	-0.3930	-6.411386	0.000220	2.196546	0.744210	0.017960
1991	9.9500e-01	-0.3417	-6.333558	0.000190	1.903673	0.644982	0.015566
1992	9.9550e-01	-0.3417	-6.246750	-0.000212	-2.123327	-0.719403	0.017362
1993	9.9600e-01	-0.2727	-6.156093	0.000222	2.217465	0.751297	0.018131
1994	9.9650e-01	-0.2005	-6.073134	0.000203	2.029190	0.687508	0.016592
1995	9.9700e-01	-0.1813	-5.987181	0.000210	2.102408	0.712315	0.017191
1996	9.9750e-01	-0.1588	-5.901656	0.000209	2.091948	0.708771	0.017105
1997	9.9800e-01	-0.1267	-5.813138	0.000217	2.165166	0.733578	0.017704
1998	9.9850e-01	-0.0898	-5.726758	0.000211	2.112868	0.715859	0.017276
1999	9.9900e-01	-0.0225	-5.645081	0.000200	1.997810	0.676877	0.016335
2000	9.9950e-01	0.0016	-5.555708	0.000219	2.186086	0.740666	0.017875
2001	1.0000e+00	0.0225	-5.468044	0.000219	2.186086	0.740666	0.017533

Center data before PMax,+/-Pr and +/-Vc Calc.

PMax (uC/cm2):	3.48e+01
Pr (uC/cm2):	3.16e+00
-Pr (uC/cm2):	-5.47e+00
PLoss (uC/cm2):	-3.91e+00
Vc:	1.70e+00
-Vc:	-1.36e+00
C (Max-Eff) (nF):	1.74e-01
K (Eff):	5.89e+02
Vert. (+/-Pr) Shift (uC/cm2):	-1.15e+00
Horiz. Shift (+/-Vc):	1.70e-01
Offset (uC/cm2):	1.56e+00

A (Loop Area - uC/cm2·Volts):	4.56e-02



Hysteresis Version: 5.48.1 - Radiant Technologies, Inc., 1999 - 9/12/24

