»»»»»»»»»»»»»»»»»»»»»»»»»»»»»»»»»»»» Hysteresis ««««««««««««««««««««««««««««««««««««
»»»  Executed Version:	5.48.1
»»»  Vision Version:	5.48.4 (R)
»»»  Vision Compiled:	9/18/24
»»»  Driver Version:	5.47.0
»»»  Windows Version:	Windows 8 or 8.1
»»»  Processor Information:	x86 (AMD or Intel) - 32 Processors
»»»  Tester Name:	PMF21124-494 (100V)
»»»  Tester S/N:	PMF21124-494
»»»  Internal Amp Type:	100V RevK 270k
»»»  Internal Amp S/N:	iAB2-596/K     
»»»  Execution Count:	1
»»»»»»»»»»»»»»»»»»»»»»»»»»»»»»»»»»»»»»»»»»««««««««««««««««««««««««««««««««««««««««««

Stored:	6/6/2025 - 14:29:11
Configured:	06/06/25 01:57:07 PM
Executed:	06/06/25 02:28:45 PM

»»»»»»»»»»»»»»»»»»»»»»»»»»»»»»»»»»» Sample Info ««««««««««««««««««««««««««««««««««««
Sample Name:	
Lot Name:	
Wafer Name:	
Die Row/Column:	0/0
Capacitor Number:	0
Sample Area (cm2):	1.00e-04
Sample Thickness (microns):	3.00e-01

Amplifier:	Internal

»»»»»»»»»»»»»»»»»»»»»»»»»»»»»»»»»»» Tester Info «««««««««««««««««««««««««««««««««««
Tester Name:	PMF21124-494 (100V)
Tester Serial Number:	PMF21124-494
Return Signal Amp. Level:	1.79 [Index: 2]

»»»»»»»»»»»»»»»»»»»»»»»»»»»»»»»» Hysteresis Info ««««««««««««««««««««««««««««««««««
Task Name:	Hyst-501
Volts:	20.00
Field:	666.67 (kV/cm)
DCBias:	0.00
DCField:	0.00 (kV/cm)
Hysteresis Period (ms):	1.00e+00
Preset:	Enabled
Preset Delay (ms):	1.00e+03
Profile:	Standard Bipolar

»»»»»»»»»»»»»»»»»»»»»»»»»»»»»»»»»»»»»» Data «««««««««««««««««««««««««««««««««««««««
Points:	2001

Valid Data

Point	Time (ms)	Drive Voltage	Measured Polarization (uC/cm2)	Capacitance (uF)	Normalized Capacitance (uF/cm2)	Dielectric Constant	Instantaneous Current (mA)
   1	0.0000e+00	0.0369	-1.387430	-0.000014	-0.136334	-0.046191	0.001112
   2	5.0000e-04	0.0225	-1.381871	-0.000014	-0.136334	-0.046191	0.001112
   3	1.0000e-03	0.1299	-1.379305	0.000006	0.062923	0.021319	0.000513
   4	1.5000e-03	0.1700	-1.369470	0.000024	0.241206	0.081723	0.001967
   5	2.0000e-03	0.2246	-1.356214	0.000033	0.325104	0.110148	0.002651
   6	2.5000e-03	0.2438	-1.330556	0.000063	0.629233	0.213190	0.005132
   7	3.0000e-03	0.2936	-1.304043	0.000065	0.650207	0.220296	0.005303
   8	3.5000e-03	0.3176	-1.276248	0.000068	0.681669	0.230956	0.005559
   9	4.0000e-03	0.3513	-1.243320	0.000081	0.807516	0.273594	0.006585
  10	4.5000e-03	0.3866	-1.201841	0.000102	1.017260	0.344657	0.008296
  11	5.0000e-03	0.4235	-1.158223	0.000107	1.069696	0.362423	0.008724
  12	5.5000e-03	0.5053	-1.114178	0.000108	1.080183	0.365976	0.008809
  13	6.0000e-03	0.5037	-1.069705	-0.000109	-1.090671	-0.369529	0.008895
  14	6.5000e-03	0.5454	-1.013258	0.000138	1.384313	0.469018	0.011289
  15	7.0000e-03	0.6080	-0.961515	0.000127	1.268953	0.429933	0.010349
  16	7.5000e-03	0.6401	-0.900365	0.000150	1.499672	0.508103	0.012230
  17	8.0000e-03	0.6658	-0.833655	0.000164	1.636006	0.554294	0.013342
  18	8.5000e-03	0.7171	-0.772077	0.000151	1.510159	0.511656	0.012316
  19	9.0000e-03	0.7604	-0.706651	0.000160	1.604544	0.543634	0.013085
  20	9.5000e-03	0.8182	-0.637803	0.000169	1.688442	0.572060	0.013770
  21	1.0000e-02	0.8262	-0.564252	0.000180	1.803801	0.611144	0.014710
  22	1.0500e-02	0.8823	-0.494549	0.000171	1.709416	0.579166	0.013941
  23	1.1000e-02	0.8952	-0.416721	0.000191	1.908673	0.646676	0.015566
  24	1.1500e-02	0.9545	-0.339321	0.000190	1.898186	0.643123	0.015480
  25	1.2000e-02	1.0139	-0.270045	0.000170	1.698929	0.575613	0.013855
  26	1.2500e-02	1.0700	-0.190507	0.000195	1.950622	0.660889	0.015908
  27	1.3000e-02	1.0877	-0.105837	0.000208	2.076469	0.703527	0.016934
  28	1.3500e-02	1.1214	-0.026727	0.000194	1.940135	0.657336	0.015822
  29	1.4000e-02	1.1631	0.054095	0.000198	1.982084	0.671548	0.016164
  30	1.4500e-02	1.2224	0.131067	0.000189	1.887699	0.639570	0.015395
  31	1.5000e-02	1.2545	0.219158	0.000216	2.160367	0.731952	0.017618
  32	1.5500e-02	1.2673	0.308532	0.000219	2.191828	0.742612	0.017875
  33	1.6000e-02	1.3203	0.394912	0.000212	2.118418	0.717739	0.017276
  34	1.6500e-02	1.3379	0.479154	0.000207	2.065982	0.699974	0.016848
  35	1.7000e-02	1.4053	0.567673	0.000217	2.170854	0.735505	0.017704
  36	1.7500e-02	1.4374	0.654480	0.000213	2.128905	0.721293	0.017362
  37	1.8000e-02	1.5048	0.741716	0.000214	2.139392	0.724846	0.017447
  38	1.8500e-02	1.5144	0.834938	0.000229	2.286213	0.774590	0.018644
  39	1.9000e-02	1.5561	0.925595	0.000222	2.223290	0.753271	0.018131
  40	1.9500e-02	1.5946	1.014541	0.000218	2.181341	0.739058	0.017789
  41	2.0000e-02	1.6267	1.106908	0.000227	2.265239	0.767484	0.018473
  42	2.0500e-02	1.6524	1.197992	0.000223	2.233777	0.756824	0.018217
  43	2.1000e-02	1.7197	1.289932	0.000225	2.254752	0.763930	0.018388
  44	2.1500e-02	1.7454	1.391279	0.000249	2.485470	0.842100	0.020269
  45	2.2000e-02	1.8176	1.482791	0.000224	2.244264	0.760377	0.018302
  46	2.2500e-02	1.8352	1.578151	0.000234	2.338649	0.792356	0.019072
  47	2.3000e-02	1.8962	1.667952	0.000220	2.202315	0.746165	0.017960
  48	2.3500e-02	1.9267	1.765451	0.000239	2.391085	0.810122	0.019500
  49	2.4000e-02	1.9668	1.860811	0.000234	2.338649	0.792356	0.019072
  50	2.4500e-02	2.0149	1.955317	0.000232	2.317675	0.785249	0.018901
  51	2.5000e-02	2.0406	2.050249	0.000233	2.328162	0.788803	0.018987
  52	2.5500e-02	2.0855	2.150741	0.000246	2.464496	0.834994	0.020098
  53	2.6000e-02	2.1176	2.246102	0.000234	2.338649	0.792356	0.019072
  54	2.6500e-02	2.1497	2.339752	0.000230	2.296700	0.778143	0.018730
  55	2.7000e-02	2.2122	2.441099	0.000249	2.485470	0.842100	0.020269
  56	2.7500e-02	2.2475	2.528334	0.000214	2.139392	0.724846	0.017447
  57	2.8000e-02	2.2716	2.630537	0.000251	2.506445	0.849206	0.020440
  58	2.8500e-02	2.3069	2.728891	0.000241	2.412060	0.817228	0.019671
  59	2.9000e-02	2.3550	2.819547	0.000222	2.223290	0.753271	0.018131
  60	2.9500e-02	2.4080	2.920039	0.000246	2.464496	0.834994	0.020098
  61	3.0000e-02	2.4481	3.010268	0.000221	2.212803	0.749718	0.018046
  62	3.0500e-02	2.4721	3.106056	0.000235	2.349136	0.795909	0.019158
  63	3.1000e-02	2.5219	3.203127	0.000238	2.380598	0.806568	0.019414
  64	3.1500e-02	2.5668	3.303619	0.000246	2.464496	0.834994	0.020098
  65	3.2000e-02	2.6213	3.399835	0.000236	2.359624	0.799462	0.019243
  66	3.2500e-02	2.6518	3.493912	0.000231	2.307188	0.781696	0.018816
  67	3.3000e-02	2.6598	3.592266	0.000241	2.412060	0.817228	0.019671
  68	3.3500e-02	2.7160	3.687627	0.000234	2.338649	0.792356	0.019072
  69	3.4000e-02	2.7882	3.785125	0.000239	2.391085	0.810122	0.019500
  70	3.4500e-02	2.7962	3.882196	0.000238	2.380598	0.806568	0.019414
  71	3.5000e-02	2.8090	3.975418	0.000229	2.286213	0.774590	0.018644
  72	3.5500e-02	2.9053	4.072062	0.000237	2.370111	0.803015	0.019329
  73	3.6000e-02	2.9293	4.170843	0.000242	2.422547	0.820781	0.019756
  74	3.6500e-02	2.9518	4.266631	0.000235	2.349136	0.795909	0.019158
  75	3.7000e-02	3.0095	4.363274	0.000237	2.370111	0.803015	0.019329
  76	3.7500e-02	3.0577	4.460773	0.000239	2.391085	0.810122	0.019500
  77	3.8000e-02	3.0865	4.556561	0.000235	2.349136	0.795909	0.019158
  78	3.8500e-02	3.1315	4.648501	0.000225	2.254752	0.763930	0.018388
  79	3.9000e-02	3.1892	4.745571	0.000238	2.380598	0.806568	0.019414
  80	3.9500e-02	3.1780	4.846063	-0.000246	-2.464496	-0.834994	0.020098
  81	4.0000e-02	3.2678	4.946555	0.000246	2.464496	0.834994	0.020098
  82	4.0500e-02	3.2550	5.039778	-0.000229	-2.286213	-0.774590	0.018644
  83	4.1000e-02	3.3288	5.138131	0.000241	2.412060	0.817228	0.019671
  84	4.1500e-02	3.3721	5.235202	0.000238	2.380598	0.806568	0.019414
  85	4.2000e-02	3.4090	5.330135	0.000233	2.328162	0.788803	0.018987
  86	4.2500e-02	3.4475	5.428061	0.000240	2.401573	0.813675	0.019585
  87	4.3000e-02	3.4876	5.522994	0.000233	2.328162	0.788803	0.018987
  88	4.3500e-02	3.4828	5.619638	-0.000237	-2.370111	-0.803015	0.019329
  89	4.4000e-02	3.5213	5.721412	0.000250	2.495958	0.845653	0.020355
  90	4.4500e-02	3.6063	5.813352	0.000225	2.254752	0.763930	0.018388
  91	4.5000e-02	3.6320	5.908712	0.000234	2.338649	0.792356	0.019072
  92	4.5500e-02	3.7010	6.007066	0.000241	2.412060	0.817228	0.019671
  93	4.6000e-02	3.7154	6.104565	0.000239	2.391085	0.810122	0.019500
  94	4.6500e-02	3.7635	6.205484	0.000247	2.474983	0.838547	0.020184
  95	4.7000e-02	3.8165	6.298279	0.000228	2.275726	0.771037	0.018559
  96	4.7500e-02	3.8389	6.395350	0.000238	2.380598	0.806568	0.019414
  97	4.8000e-02	3.8935	6.497552	0.000251	2.506445	0.849206	0.020440
  98	4.8500e-02	3.9320	6.589919	0.000227	2.265239	0.767484	0.018473
  99	4.9000e-02	3.9448	6.685707	0.000235	2.349136	0.795909	0.019158
 100	4.9500e-02	3.9705	6.784489	0.000242	2.422547	0.820781	0.019756
 101	5.0000e-02	4.0186	6.879849	0.000234	2.338649	0.792356	0.019072
 102	5.0500e-02	4.1181	6.980769	0.000247	2.474983	0.838547	0.020184
 103	5.1000e-02	4.1277	7.076557	0.000235	2.349136	0.795909	0.019158
 104	5.1500e-02	4.1630	7.171917	0.000234	2.338649	0.792356	0.019072
 105	5.2000e-02	4.1903	7.267705	0.000235	2.349136	0.795909	0.019158
 106	5.2500e-02	4.2496	7.364349	0.000237	2.370111	0.803015	0.019329
 107	5.3000e-02	4.2657	7.464841	0.000246	2.464496	0.834994	0.020098
 108	5.3500e-02	4.3298	7.561484	0.000237	2.370111	0.803015	0.019329
 109	5.4000e-02	4.3523	7.654706	0.000229	2.286213	0.774590	0.018644
 110	5.4500e-02	4.3972	7.754771	0.000245	2.454009	0.831441	0.020013
 111	5.5000e-02	4.4341	7.851841	0.000238	2.380598	0.806568	0.019414
 112	5.5500e-02	4.4870	7.944636	0.000228	2.275726	0.771037	0.018559
 113	5.6000e-02	4.5416	8.044700	0.000245	2.454009	0.831441	0.020013
 114	5.6500e-02	4.5656	8.135357	0.000222	2.223290	0.753271	0.018131
 115	5.7000e-02	4.6025	8.230717	0.000234	2.338649	0.792356	0.019072
 116	5.7500e-02	4.6491	8.328216	0.000239	2.391085	0.810122	0.019500
 117	5.8000e-02	4.7052	8.417590	0.000219	2.191828	0.742612	0.017875
 118	5.8500e-02	4.7245	8.513805	0.000236	2.359624	0.799462	0.019243
 119	5.9000e-02	4.7549	8.607028	0.000229	2.286213	0.774590	0.018644
 120	5.9500e-02	4.7822	8.705809	0.000242	2.422547	0.820781	0.019756
 121	6.0000e-02	4.8640	8.799031	0.000229	2.286213	0.774590	0.018644
 122	6.0500e-02	4.8913	8.894820	0.000235	2.349136	0.795909	0.019158
 123	6.1000e-02	4.9106	8.991463	0.000237	2.370111	0.803015	0.019329
 124	6.1500e-02	4.9426	9.086823	0.000234	2.338649	0.792356	0.019072
 125	6.2000e-02	4.9956	9.180901	0.000231	2.307188	0.781696	0.018816
 126	6.2500e-02	5.0421	9.272413	0.000224	2.244264	0.760377	0.018302
 127	6.3000e-02	5.0886	9.372477	0.000245	2.454009	0.831441	0.020013
 128	6.3500e-02	5.1416	9.469120	0.000237	2.370111	0.803015	0.019329
 129	6.4000e-02	5.1608	9.565336	0.000236	2.359624	0.799462	0.019243
 130	6.4500e-02	5.1961	9.655137	0.000220	2.202315	0.746165	0.017960
 131	6.5000e-02	5.2458	9.749215	0.000231	2.307188	0.781696	0.018816
 132	6.5500e-02	5.3228	9.840299	0.000223	2.233777	0.756824	0.018217
 133	6.6000e-02	5.3389	9.935659	0.000234	2.338649	0.792356	0.019072
 134	6.6500e-02	5.3806	10.028027	0.000227	2.265239	0.767484	0.018473
 135	6.7000e-02	5.3774	10.115262	-0.000214	-2.139392	-0.724846	0.017447
 136	6.7500e-02	5.4287	10.221741	0.000261	2.611317	0.884738	0.021296
 137	6.8000e-02	5.4801	10.310259	0.000217	2.170854	0.735505	0.017704
 138	6.8500e-02	5.5426	10.403054	0.000228	2.275726	0.771037	0.018559
 139	6.9000e-02	5.5571	10.498842	0.000235	2.349136	0.795909	0.019158
 140	6.9500e-02	5.5940	10.594202	0.000234	2.338649	0.792356	0.019072
 141	7.0000e-02	5.6341	10.685714	0.000224	2.244264	0.760377	0.018302
 142	7.0500e-02	5.7191	10.771239	0.000210	2.097443	0.710633	0.017105
 143	7.1000e-02	5.7319	10.870021	0.000242	2.422547	0.820781	0.019756
 144	7.1500e-02	5.7656	10.960250	0.000221	2.212803	0.749718	0.018046
 145	7.2000e-02	5.8137	11.056038	0.000235	2.349136	0.795909	0.019158
 146	7.2500e-02	5.8571	11.147977	0.000225	2.254752	0.763930	0.018388
 147	7.3000e-02	5.8715	11.239917	0.000225	2.254752	0.763930	0.018388
 148	7.3500e-02	5.9132	11.328863	0.000218	2.181341	0.739058	0.017789
 149	7.4000e-02	5.9581	11.427216	0.000241	2.412060	0.817228	0.019671
 150	7.4500e-02	6.0255	11.515307	0.000216	2.160367	0.731952	0.017618
 151	7.5000e-02	6.0175	11.613661	-0.000241	-2.412060	-0.817228	0.019671
 152	7.5500e-02	6.0656	11.709021	0.000234	2.338649	0.792356	0.019072
 153	7.6000e-02	6.1057	11.795829	0.000213	2.128905	0.721293	0.017362
 154	7.6500e-02	6.1747	11.894183	0.000241	2.412060	0.817228	0.019671
 155	7.7000e-02	6.1972	11.984840	0.000222	2.223290	0.753271	0.018131
 156	7.7500e-02	6.2421	12.072931	0.000216	2.160367	0.731952	0.017618
 157	7.8000e-02	6.2742	12.167008	0.000231	2.307188	0.781696	0.018816
 158	7.8500e-02	6.3479	12.263651	0.000237	2.370111	0.803015	0.019329
 159	7.9000e-02	6.3512	12.353453	0.000220	2.202315	0.746165	0.017960
 160	7.9500e-02	6.3977	12.444537	0.000223	2.233777	0.756824	0.018217
 161	8.0000e-02	6.4394	12.535621	0.000223	2.233777	0.756824	0.018217
 162	8.0500e-02	6.5020	12.624567	0.000218	2.181341	0.739058	0.017789
 163	8.1000e-02	6.5084	12.721638	0.000238	2.380598	0.806568	0.019414
 164	8.1500e-02	6.5790	12.816999	0.000234	2.338649	0.792356	0.019072
 165	8.2000e-02	6.5966	12.908510	0.000224	2.244264	0.760377	0.018302
 166	8.2500e-02	6.6287	12.999595	0.000223	2.233777	0.756824	0.018217
 167	8.3000e-02	6.6913	13.094100	0.000232	2.317675	0.785249	0.018901
 168	8.3500e-02	6.7153	13.188177	0.000231	2.307188	0.781696	0.018816
 169	8.4000e-02	6.7362	13.278406	0.000221	2.212803	0.749718	0.018046
 170	8.4500e-02	6.7923	13.373339	0.000233	2.328162	0.788803	0.018987
 171	8.5000e-02	6.8228	13.459292	0.000211	2.107930	0.714186	0.017191
 172	8.5500e-02	6.9094	13.556790	0.000239	2.391085	0.810122	0.019500
 173	8.6000e-02	6.8886	13.649157	-0.000227	-2.265239	-0.767484	0.018473
 174	8.6500e-02	6.9608	13.732972	0.000206	2.055494	0.696420	0.016763
 175	8.7000e-02	7.0281	13.823628	0.000222	2.223290	0.753271	0.018131
 176	8.7500e-02	7.0426	13.921127	0.000239	2.391085	0.810122	0.019500
 177	8.8000e-02	7.0586	14.004942	0.000206	2.055494	0.696420	0.016763
 178	8.8500e-02	7.1533	14.102012	0.000238	2.380598	0.806568	0.019414
 179	8.9000e-02	7.1998	14.185399	0.000205	2.045007	0.692867	0.016677
 180	8.9500e-02	7.2046	14.279477	0.000231	2.307188	0.781696	0.018816
 181	9.0000e-02	7.2479	14.365857	0.000212	2.118418	0.717739	0.017276
 182	9.0500e-02	7.2848	14.457797	0.000225	2.254752	0.763930	0.018388
 183	9.1000e-02	7.3169	14.548453	0.000222	2.223290	0.753271	0.018131
 184	9.1500e-02	7.3714	14.641676	0.000229	2.286213	0.774590	0.018644
 185	9.2000e-02	7.3891	14.731049	0.000219	2.191828	0.742612	0.017875
 186	9.2500e-02	7.4517	14.820423	0.000219	2.191828	0.742612	0.017875
 187	9.3000e-02	7.5094	14.910224	0.000220	2.202315	0.746165	0.017960
 188	9.3500e-02	7.5319	14.992328	0.000201	2.013546	0.682208	0.016421
 189	9.4000e-02	7.5704	15.082557	0.000221	2.212803	0.749718	0.018046
 190	9.4500e-02	7.5944	15.176207	0.000230	2.296700	0.778143	0.018730
 191	9.5000e-02	7.6602	15.266436	0.000221	2.212803	0.749718	0.018046
 192	9.5500e-02	7.6971	15.352389	0.000211	2.107930	0.714186	0.017191
 193	9.6000e-02	7.7115	15.441762	0.000219	2.191828	0.742612	0.017875
 194	9.6500e-02	7.7789	15.530709	0.000218	2.181341	0.739058	0.017789
 195	9.7000e-02	7.8014	15.621793	0.000223	2.233777	0.756824	0.018217
 196	9.7500e-02	7.8463	15.710739	0.000218	2.181341	0.739058	0.017789
 197	9.8000e-02	7.8944	15.798402	0.000215	2.149879	0.728399	0.017533
 198	9.8500e-02	7.9313	15.889059	0.000222	2.223290	0.753271	0.018131
 199	9.9000e-02	7.9698	15.981853	0.000228	2.275726	0.771037	0.018559
 200	9.9500e-02	8.0083	16.068234	0.000212	2.118418	0.717739	0.017276
 201	1.0000e-01	8.0500	16.156324	0.000216	2.160367	0.731952	0.017618
 202	1.0050e-01	8.0693	16.255533	0.000243	2.433034	0.824334	0.019842
 203	1.0100e-01	8.1286	16.350039	0.000232	2.317675	0.785249	0.018901
 204	1.0150e-01	8.1511	16.439412	0.000219	2.191828	0.742612	0.017875
 205	1.0200e-01	8.2345	16.524510	0.000209	2.086956	0.707080	0.017019
 206	1.0250e-01	8.2490	16.620298	0.000235	2.349136	0.795909	0.019158
 207	1.0300e-01	8.2939	16.710954	0.000222	2.223290	0.753271	0.018131
 208	1.0350e-01	8.3244	16.809736	0.000242	2.422547	0.820781	0.019756
 209	1.0400e-01	8.3548	16.900392	0.000222	2.223290	0.753271	0.018131
 210	1.0450e-01	8.4110	16.985917	0.000210	2.097443	0.710633	0.017105
 211	1.0500e-01	8.4511	17.074008	0.000216	2.160367	0.731952	0.017618
 212	1.0550e-01	8.4960	17.159533	0.000210	2.097443	0.710633	0.017105
 213	1.0600e-01	8.5185	17.250190	0.000222	2.223290	0.753271	0.018131
 214	1.0650e-01	8.5810	17.338708	0.000217	2.170854	0.735505	0.017704
 215	1.0700e-01	8.6179	17.425944	0.000214	2.139392	0.724846	0.017447
 216	1.0750e-01	8.6436	17.514035	0.000216	2.160367	0.731952	0.017618
 217	1.0800e-01	8.6853	17.605974	0.000225	2.254752	0.763930	0.018388
 218	1.0850e-01	8.7126	17.693210	0.000214	2.139392	0.724846	0.017447
 219	1.0900e-01	8.7623	17.787287	0.000231	2.307188	0.781696	0.018816
 220	1.0950e-01	8.7928	17.865115	0.000191	1.908673	0.646676	0.015566
 221	1.1000e-01	8.8425	17.957482	0.000227	2.265239	0.767484	0.018473
 222	1.1050e-01	8.8858	18.046856	0.000219	2.191828	0.742612	0.017875
 223	1.1100e-01	8.9211	18.131525	0.000208	2.076469	0.703527	0.016934
 224	1.1150e-01	8.9580	18.217906	0.000212	2.118418	0.717739	0.017276
 225	1.1200e-01	9.0158	18.305141	0.000214	2.139392	0.724846	0.017447
 226	1.1250e-01	9.0350	18.388956	0.000206	2.055494	0.696420	0.016763
 227	1.1300e-01	9.0912	18.480040	0.000223	2.233777	0.756824	0.018217
 228	1.1350e-01	9.1265	18.565565	0.000210	2.097443	0.710633	0.017105
 229	1.1400e-01	9.1489	18.653656	0.000216	2.160367	0.731952	0.017618
 230	1.1450e-01	9.1874	18.738326	0.000208	2.076469	0.703527	0.016934
 231	1.1500e-01	9.2388	18.825561	0.000214	2.139392	0.724846	0.017447
 232	1.1550e-01	9.3013	18.917928	0.000227	2.265239	0.767484	0.018473
 233	1.1600e-01	9.3350	18.997894	0.000196	1.961109	0.664442	0.015993
 234	1.1650e-01	9.3511	19.088551	0.000222	2.223290	0.753271	0.018131
 235	1.1700e-01	9.4072	19.170655	0.000201	2.013546	0.682208	0.016421
 236	1.1750e-01	9.4778	19.256608	0.000211	2.107930	0.714186	0.017191
 237	1.1800e-01	9.5019	19.346409	0.000220	2.202315	0.746165	0.017960
 238	1.1850e-01	9.5163	19.430223	0.000206	2.055494	0.696420	0.016763
 239	1.1900e-01	9.5757	19.522590	0.000227	2.265239	0.767484	0.018473
 240	1.1950e-01	9.6366	19.604267	0.000200	2.003058	0.678655	0.016335
 241	1.2000e-01	9.6559	19.694923	0.000222	2.223290	0.753271	0.018131
 242	1.2050e-01	9.6864	19.780449	0.000210	2.097443	0.710633	0.017105
 243	1.2100e-01	9.7136	19.863408	0.000203	2.034520	0.689314	0.016592
 244	1.2150e-01	9.7457	19.960479	0.000238	2.380598	0.806568	0.019414
 245	1.2200e-01	9.8243	20.039589	0.000194	1.940135	0.657336	0.015822
 246	1.2250e-01	9.8243	20.128535	-0.000218	-2.181341	-0.739058	0.017789
 247	1.2300e-01	9.8757	20.214488	0.000211	2.107930	0.714186	0.017191
 248	1.2350e-01	9.9142	20.300441	0.000211	2.107930	0.714186	0.017191
 249	1.2400e-01	9.9478	20.385966	0.000210	2.097443	0.710633	0.017105
 250	1.2450e-01	9.9815	20.472774	0.000213	2.128905	0.721293	0.017362
 251	1.2500e-01	10.0473	20.554450	0.000200	2.003058	0.678655	0.016335
 252	1.2550e-01	10.0810	20.637837	0.000205	2.045007	0.692867	0.016677
 253	1.2600e-01	10.1163	20.724645	0.000213	2.128905	0.721293	0.017362
 254	1.2650e-01	10.1516	20.810170	0.000210	2.097443	0.710633	0.017105
 255	1.2700e-01	10.2206	20.901254	0.000223	2.233777	0.756824	0.018217
 256	1.2750e-01	10.2270	20.981648	0.000197	1.971597	0.667995	0.016079
 257	1.2800e-01	10.2655	21.069311	0.000215	2.149879	0.728399	0.017533
 258	1.2850e-01	10.3008	21.150988	0.000200	2.003058	0.678655	0.016335
 259	1.2900e-01	10.3794	21.228388	0.000190	1.898186	0.643123	0.015480
 260	1.2950e-01	10.3938	21.317761	0.000219	2.191828	0.742612	0.017875
 261	1.3000e-01	10.4339	21.400293	0.000202	2.024033	0.685761	0.016506
 262	1.3050e-01	10.4885	21.484108	0.000206	2.055494	0.696420	0.016763
 263	1.3100e-01	10.5061	21.567922	0.000206	2.055494	0.696420	0.016763
 264	1.3150e-01	10.5334	21.651309	0.000205	2.045007	0.692867	0.016677
 265	1.3200e-01	10.5863	21.735124	0.000206	2.055494	0.696420	0.016763
 266	1.3250e-01	10.6200	21.817228	0.000201	2.013546	0.682208	0.016421
 267	1.3300e-01	10.6906	21.900187	0.000203	2.034520	0.689314	0.016592
 268	1.3350e-01	10.7211	21.984002	0.000206	2.055494	0.696420	0.016763
 269	1.3400e-01	10.7724	22.059264	0.000185	1.845750	0.625357	0.015052
 270	1.3450e-01	10.8206	22.143506	0.000207	2.065982	0.699974	0.016848
 271	1.3500e-01	10.8542	22.223899	0.000197	1.971597	0.667995	0.016079
 272	1.3550e-01	10.8430	22.312418	-0.000217	-2.170854	-0.735505	0.017704
 273	1.3600e-01	10.9280	22.388963	0.000188	1.877212	0.636017	0.015309
 274	1.3650e-01	10.9794	22.473205	0.000207	2.065982	0.699974	0.016848
 275	1.3700e-01	10.9778	22.552316	-0.000194	-1.940135	-0.657336	0.015822
 276	1.3750e-01	11.0580	22.634420	0.000201	2.013546	0.682208	0.016421
 277	1.3800e-01	11.0901	22.718662	0.000207	2.065982	0.699974	0.016848
 278	1.3850e-01	11.1077	22.799911	0.000199	1.992571	0.675101	0.016250
 279	1.3900e-01	11.1623	22.882015	0.000201	2.013546	0.682208	0.016421
 280	1.3950e-01	11.2152	22.964119	0.000201	2.013546	0.682208	0.016421
 281	1.4000e-01	11.2344	23.040236	0.000187	1.866725	0.632463	0.015223
 282	1.4050e-01	11.2601	23.118919	0.000193	1.929648	0.653782	0.015737
 283	1.4100e-01	11.3002	23.205299	0.000212	2.118418	0.717739	0.017276
 284	1.4150e-01	11.3756	23.285693	0.000197	1.971597	0.667995	0.016079
 285	1.4200e-01	11.4205	23.361383	0.000186	1.856237	0.628910	0.015138
 286	1.4250e-01	11.4687	23.447763	0.000212	2.118418	0.717739	0.017276
 287	1.4300e-01	11.4687	23.524308	-0.000188	-1.877212	-0.636017	0.015309
 288	1.4350e-01	11.5328	23.610688	0.000212	2.118418	0.717739	0.017276
 289	1.4400e-01	11.5457	23.685095	0.000182	1.824776	0.618251	0.014881
 290	1.4450e-01	11.5938	23.768482	0.000205	2.045007	0.692867	0.016677
 291	1.4500e-01	11.6307	23.852724	0.000207	2.065982	0.699974	0.016848
 292	1.4550e-01	11.6740	23.935683	0.000203	2.034520	0.689314	0.016592
 293	1.4600e-01	11.7334	24.015649	0.000196	1.961109	0.664442	0.015993
 294	1.4650e-01	11.7510	24.099464	0.000206	2.055494	0.696420	0.016763
 295	1.4700e-01	11.7943	24.179430	0.000196	1.961109	0.664442	0.015993
 296	1.4750e-01	11.8553	24.258968	0.000195	1.950622	0.660889	0.015908
 297	1.4800e-01	11.9082	24.341072	0.000201	2.013546	0.682208	0.016421
 298	1.4850e-01	11.9339	24.427025	0.000211	2.107930	0.714186	0.017191
 299	1.4900e-01	11.9740	24.507418	0.000197	1.971597	0.667995	0.016079
 300	1.4950e-01	12.0045	24.591233	0.000206	2.055494	0.696420	0.016763
 301	1.5000e-01	12.0494	24.671199	0.000196	1.961109	0.664442	0.015993
 302	1.5050e-01	12.0895	24.753303	0.000201	2.013546	0.682208	0.016421
 303	1.5100e-01	12.1344	24.830275	0.000189	1.887699	0.639570	0.015395
 304	1.5150e-01	12.1537	24.912379	0.000201	2.013546	0.682208	0.016421
 305	1.5200e-01	12.2194	24.995766	0.000205	2.045007	0.692867	0.016677
 306	1.5250e-01	12.2644	25.068890	0.000179	1.793314	0.607591	0.014625
 307	1.5300e-01	12.2804	25.156981	0.000216	2.160367	0.731952	0.017618
 308	1.5350e-01	12.3205	25.237375	0.000197	1.971597	0.667995	0.016079
 309	1.5400e-01	12.3638	25.319479	0.000201	2.013546	0.682208	0.016421
 310	1.5450e-01	12.3927	25.400300	0.000198	1.982084	0.671548	0.016164
 311	1.5500e-01	12.4376	25.477272	0.000189	1.887699	0.639570	0.015395
 312	1.5550e-01	12.4906	25.559376	0.000201	2.013546	0.682208	0.016421
 313	1.5600e-01	12.5114	25.635066	0.000186	1.856237	0.628910	0.015138
 314	1.5650e-01	12.5660	25.723157	0.000216	2.160367	0.731952	0.017618
 315	1.5700e-01	12.6141	25.795853	0.000178	1.782827	0.604038	0.014539
 316	1.5750e-01	12.6365	25.877530	0.000200	2.003058	0.678655	0.016335
 317	1.5800e-01	12.6959	25.960061	0.000202	2.024033	0.685761	0.016506
 318	1.5850e-01	12.7184	26.034041	0.000181	1.814288	0.614698	0.014796
 319	1.5900e-01	12.7809	26.116145	0.000201	2.013546	0.682208	0.016421
 320	1.5950e-01	12.8050	26.194400	0.000192	1.919161	0.650229	0.015651
 321	1.6000e-01	12.8708	26.269662	0.000185	1.845750	0.625357	0.015052
 322	1.6050e-01	12.8836	26.351766	0.000201	2.013546	0.682208	0.016421
 323	1.6100e-01	12.9285	26.431304	0.000195	1.950622	0.660889	0.015908
 324	1.6150e-01	12.9526	26.515547	0.000207	2.065982	0.699974	0.016848
 325	1.6200e-01	13.0200	26.592092	0.000188	1.877212	0.636017	0.015309
 326	1.6250e-01	13.0520	26.673768	0.000200	2.003058	0.678655	0.016335
 327	1.6300e-01	13.0649	26.746464	0.000178	1.782827	0.604038	0.014539
 328	1.6350e-01	13.1339	26.826430	0.000196	1.961109	0.664442	0.015993
 329	1.6400e-01	13.1611	26.906824	0.000197	1.971597	0.667995	0.016079
 330	1.6450e-01	13.1932	26.982941	0.000187	1.866725	0.632463	0.015223
 331	1.6500e-01	13.2076	27.062052	0.000194	1.940135	0.657336	0.015822
 332	1.6550e-01	13.3007	27.140735	0.000193	1.929648	0.653782	0.015737
 333	1.6600e-01	13.3135	27.221984	0.000199	1.992571	0.675101	0.016250
 334	1.6650e-01	13.3777	27.297673	0.000186	1.856237	0.628910	0.015138
 335	1.6700e-01	13.4098	27.379777	0.000201	2.013546	0.682208	0.016421
 336	1.6750e-01	13.4403	27.454612	0.000184	1.835263	0.621804	0.014967
 337	1.6800e-01	13.4916	27.530301	0.000186	1.856237	0.628910	0.015138
 338	1.6850e-01	13.5253	27.607274	0.000189	1.887699	0.639570	0.015395
 339	1.6900e-01	13.5301	27.691944	0.000208	2.076469	0.703527	0.016934
 340	1.6950e-01	13.6119	27.768061	0.000187	1.866725	0.632463	0.015223
 341	1.7000e-01	13.6424	27.843323	0.000185	1.845750	0.625357	0.015052
 342	1.7050e-01	13.6777	27.916875	0.000180	1.803801	0.611144	0.014710
 343	1.7100e-01	13.7290	27.992137	0.000185	1.845750	0.625357	0.015052
 344	1.7150e-01	13.7691	28.074668	0.000202	2.024033	0.685761	0.016506
 345	1.7200e-01	13.8221	28.154207	0.000195	1.950622	0.660889	0.015908
 346	1.7250e-01	13.8686	28.229896	0.000186	1.856237	0.628910	0.015138
 347	1.7300e-01	13.8590	28.307296	-0.000190	-1.898186	-0.643123	0.015480
 348	1.7350e-01	13.9247	28.387262	0.000196	1.961109	0.664442	0.015993
 349	1.7400e-01	13.9424	28.463380	0.000187	1.866725	0.632463	0.015223
 350	1.7450e-01	14.0098	28.544629	0.000199	1.992571	0.675101	0.016250
 351	1.7500e-01	14.0386	28.613904	0.000170	1.698929	0.575613	0.013855
 352	1.7550e-01	14.0820	28.689593	0.000186	1.856237	0.628910	0.015138
 353	1.7600e-01	14.1365	28.766994	0.000190	1.898186	0.643123	0.015480
 354	1.7650e-01	14.1590	28.849098	0.000201	2.013546	0.682208	0.016421
 355	1.7700e-01	14.2071	28.922649	0.000180	1.803801	0.611144	0.014710
 356	1.7750e-01	14.2295	28.999622	0.000189	1.887699	0.639570	0.015395
 357	1.7800e-01	14.2536	29.079588	0.000196	1.961109	0.664442	0.015993
 358	1.7850e-01	14.3033	29.156560	0.000189	1.887699	0.639570	0.015395
 359	1.7900e-01	14.3579	29.226263	0.000171	1.709416	0.579166	0.013941
 360	1.7950e-01	14.3819	29.300670	0.000182	1.824776	0.618251	0.014881
 361	1.8000e-01	14.4365	29.386623	0.000211	2.107930	0.714186	0.017191
 362	1.8050e-01	14.4766	29.458036	0.000175	1.751365	0.593379	0.014283
 363	1.8100e-01	14.5263	29.532871	0.000184	1.835263	0.621804	0.014967
 364	1.8150e-01	14.5857	29.611126	0.000192	1.919161	0.650229	0.015651
 365	1.8200e-01	14.5873	29.683822	0.000178	1.782827	0.604038	0.014539
 366	1.8250e-01	14.6450	29.765499	0.000200	2.003058	0.678655	0.016335
 367	1.8300e-01	14.6418	29.836484	-0.000174	-1.740878	-0.589825	0.014197
 368	1.8350e-01	14.7188	29.913029	0.000188	1.877212	0.636017	0.015309
 369	1.8400e-01	14.7557	29.991712	0.000193	1.929648	0.653782	0.015737
 370	1.8450e-01	14.7942	30.065264	0.000180	1.803801	0.611144	0.014710
 371	1.8500e-01	14.8440	30.144802	0.000195	1.950622	0.660889	0.015908
 372	1.8550e-01	14.8905	30.220920	0.000187	1.866725	0.632463	0.015223
 373	1.8600e-01	14.9514	30.294899	0.000181	1.814288	0.614698	0.014796
 374	1.8650e-01	14.9498	30.372727	-0.000191	-1.908673	-0.646676	0.015566
 375	1.8700e-01	14.9948	30.445850	0.000179	1.793314	0.607591	0.014625
 376	1.8750e-01	15.0605	30.518119	0.000177	1.772340	0.600485	0.014454
 377	1.8800e-01	15.0654	30.598085	0.000196	1.961109	0.664442	0.015993
 378	1.8850e-01	15.0974	30.672064	0.000181	1.814288	0.614698	0.014796
 379	1.8900e-01	15.1359	30.749037	0.000189	1.887699	0.639570	0.015395
 380	1.8950e-01	15.2129	30.820878	0.000176	1.761852	0.596932	0.014368
 381	1.9000e-01	15.2611	30.896995	0.000187	1.866725	0.632463	0.015223
 382	1.9050e-01	15.2643	30.971402	0.000182	1.824776	0.618251	0.014881
 383	1.9100e-01	15.3092	31.048375	0.000189	1.887699	0.639570	0.015395
 384	1.9150e-01	15.3397	31.122781	0.000182	1.824776	0.618251	0.014881
 385	1.9200e-01	15.3782	31.200609	0.000191	1.908673	0.646676	0.015566
 386	1.9250e-01	15.4712	31.273733	0.000179	1.793314	0.607591	0.014625
 387	1.9300e-01	15.4616	31.349850	-0.000187	-1.866725	-0.632463	0.015223
 388	1.9350e-01	15.5210	31.426395	0.000188	1.877212	0.636017	0.015309
 389	1.9400e-01	15.5578	31.498236	0.000176	1.761852	0.596932	0.014368
 390	1.9450e-01	15.6028	31.576492	0.000192	1.919161	0.650229	0.015651
 391	1.9500e-01	15.6381	31.649616	0.000179	1.793314	0.607591	0.014625
 392	1.9550e-01	15.6669	31.728299	0.000193	1.929648	0.653782	0.015737
 393	1.9600e-01	15.6862	31.802278	0.000181	1.814288	0.614698	0.014796
 394	1.9650e-01	15.7632	31.879678	0.000190	1.898186	0.643123	0.015480
 395	1.9700e-01	15.8001	31.948953	0.000170	1.698929	0.575613	0.013855
 396	1.9750e-01	15.8546	32.021650	0.000178	1.782827	0.604038	0.014539
 397	1.9800e-01	15.8931	32.099050	0.000190	1.898186	0.643123	0.015480
 398	1.9850e-01	15.9236	32.173029	0.000181	1.814288	0.614698	0.014796
 399	1.9900e-01	15.9557	32.249574	0.000188	1.877212	0.636017	0.015309
 400	1.9950e-01	16.0118	32.318422	0.000169	1.688442	0.572060	0.013770
 401	2.0000e-01	16.0038	32.397105	-0.000193	-1.929648	-0.653782	0.015737
 402	2.0050e-01	16.0824	32.464242	0.000165	1.646493	0.557847	0.013427
 403	2.0100e-01	16.1610	32.541214	0.000189	1.887699	0.639570	0.015395
 404	2.0150e-01	16.1707	32.614338	0.000179	1.793314	0.607591	0.014625
 405	2.0200e-01	16.1771	32.687462	0.000179	1.793314	0.607591	0.014625
 406	2.0250e-01	16.2445	32.757593	0.000172	1.719903	0.582719	0.014026
 407	2.0300e-01	16.2974	32.837986	0.000197	1.971597	0.667995	0.016079
 408	2.0350e-01	16.3086	32.908117	0.000172	1.719903	0.582719	0.014026
 409	2.0400e-01	16.3552	32.985517	0.000190	1.898186	0.643123	0.015480
 410	2.0450e-01	16.3937	33.057786	0.000177	1.772340	0.600485	0.014454
 411	2.0500e-01	16.4370	33.130482	0.000178	1.782827	0.604038	0.014539
 412	2.0550e-01	16.4771	33.206599	0.000187	1.866725	0.632463	0.015223
 413	2.0600e-01	16.5220	33.272881	0.000163	1.625519	0.550741	0.013256
 414	2.0650e-01	16.5637	33.346860	0.000181	1.814288	0.614698	0.014796
 415	2.0700e-01	16.5974	33.415708	0.000169	1.688442	0.572060	0.013770
 416	2.0750e-01	16.6567	33.491825	0.000187	1.866725	0.632463	0.015223
 417	2.0800e-01	16.6616	33.568798	0.000189	1.887699	0.639570	0.015395
 418	2.0850e-01	16.7113	33.636790	0.000167	1.667467	0.564953	0.013598
 419	2.0900e-01	16.7787	33.712480	0.000186	1.856237	0.628910	0.015138
 420	2.0950e-01	16.8188	33.781755	0.000170	1.698929	0.575613	0.013855
 421	2.1000e-01	16.8541	33.854879	0.000179	1.793314	0.607591	0.014625
 422	2.1050e-01	16.9166	33.923727	0.000169	1.688442	0.572060	0.013770
 423	2.1100e-01	16.9150	33.995568	-0.000176	-1.761852	-0.596932	0.014368
 424	2.1150e-01	16.9792	34.064843	0.000170	1.698929	0.575613	0.013855
 425	2.1200e-01	16.9872	34.139678	0.000184	1.835263	0.621804	0.014967
 426	2.1250e-01	17.0450	34.206815	0.000165	1.646493	0.557847	0.013427
 427	2.1300e-01	17.1059	34.282504	0.000186	1.856237	0.628910	0.015138
 428	2.1350e-01	17.1204	34.357339	0.000184	1.835263	0.621804	0.014967
 429	2.1400e-01	17.1990	34.428325	0.000174	1.740878	0.589825	0.014197
 430	2.1450e-01	17.2118	34.496745	0.000168	1.677955	0.568506	0.013684
 431	2.1500e-01	17.2503	34.572434	0.000186	1.856237	0.628910	0.015138
 432	2.1550e-01	17.2583	34.643848	0.000175	1.751365	0.593379	0.014283
 433	2.1600e-01	17.3000	34.714834	0.000174	1.740878	0.589825	0.014197
 434	2.1650e-01	17.3722	34.786675	0.000176	1.761852	0.596932	0.014368
 435	2.1700e-01	17.3947	34.859799	0.000179	1.793314	0.607591	0.014625
 436	2.1750e-01	17.4460	34.928219	0.000168	1.677955	0.568506	0.013684
 437	2.1800e-01	17.4621	35.005191	0.000189	1.887699	0.639570	0.015395
 438	2.1850e-01	17.5278	35.068052	0.000154	1.541621	0.522315	0.012572
 439	2.1900e-01	17.5567	35.145452	0.000190	1.898186	0.643123	0.015480
 440	2.1950e-01	17.6000	35.216010	0.000173	1.730391	0.586272	0.014112
 441	2.2000e-01	17.6482	35.290845	0.000184	1.835263	0.621804	0.014967
 442	2.2050e-01	17.6786	35.363114	0.000177	1.772340	0.600485	0.014454
 443	2.2100e-01	17.7107	35.435810	0.000178	1.782827	0.604038	0.014539
 444	2.2150e-01	17.7685	35.502947	0.000165	1.646493	0.557847	0.013427
 445	2.2200e-01	17.8070	35.576499	0.000180	1.803801	0.611144	0.014710
 446	2.2250e-01	17.8375	35.643208	0.000164	1.636006	0.554294	0.013342
 447	2.2300e-01	17.8936	35.713339	0.000172	1.719903	0.582719	0.014026
 448	2.2350e-01	17.9401	35.789028	0.000186	1.856237	0.628910	0.015138
 449	2.2400e-01	17.9498	35.859159	0.000172	1.719903	0.582719	0.014026
 450	2.2450e-01	18.0027	35.930145	0.000174	1.740878	0.589825	0.014197
 451	2.2500e-01	18.0460	35.998137	0.000167	1.667467	0.564953	0.013598
 452	2.2550e-01	18.1022	36.072116	0.000181	1.814288	0.614698	0.014796
 453	2.2600e-01	18.1214	36.137971	0.000162	1.615031	0.547187	0.013171
 454	2.2650e-01	18.1792	36.209812	0.000176	1.761852	0.596932	0.014368
 455	2.2700e-01	18.2129	36.282935	0.000179	1.793314	0.607591	0.014625
 456	2.2750e-01	18.2498	36.354349	0.000175	1.751365	0.593379	0.014283
 457	2.2800e-01	18.2979	36.427045	0.000178	1.782827	0.604038	0.014539
 458	2.2850e-01	18.3284	36.495893	0.000169	1.688442	0.572060	0.013770
 459	2.2900e-01	18.3813	36.564313	0.000168	1.677955	0.568506	0.013684
 460	2.2950e-01	18.3765	36.634443	-0.000172	-1.719903	-0.582719	0.014026
 461	2.3000e-01	18.4535	36.706285	0.000176	1.761852	0.596932	0.014368
 462	2.3050e-01	18.5000	36.769573	0.000155	1.552108	0.525868	0.012658
 463	2.3100e-01	18.5096	36.840986	0.000175	1.751365	0.593379	0.014283
 464	2.3150e-01	18.5497	36.912828	0.000176	1.761852	0.596932	0.014368
 465	2.3200e-01	18.5947	36.981248	0.000168	1.677955	0.568506	0.013684
 466	2.3250e-01	18.6444	37.053516	0.000177	1.772340	0.600485	0.014454
 467	2.3300e-01	18.6685	37.126213	0.000178	1.782827	0.604038	0.014539
 468	2.3350e-01	18.7326	37.195060	0.000169	1.688442	0.572060	0.013770
 469	2.3400e-01	18.7535	37.262625	0.000166	1.656980	0.561400	0.013513
 470	2.3450e-01	18.8016	37.336604	0.000181	1.814288	0.614698	0.014796
 471	2.3500e-01	18.8449	37.402031	0.000160	1.604544	0.543634	0.013085
 472	2.3550e-01	18.8594	37.477721	0.000186	1.856237	0.628910	0.015138
 473	2.3600e-01	18.8979	37.544002	0.000163	1.625519	0.550741	0.013256
 474	2.3650e-01	18.9428	37.613278	0.000170	1.698929	0.575613	0.013855
 475	2.3700e-01	19.0005	37.684691	0.000175	1.751365	0.593379	0.014283
 476	2.3750e-01	19.0519	37.753539	0.000169	1.688442	0.572060	0.013770
 477	2.3800e-01	19.0936	37.828801	0.000185	1.845750	0.625357	0.015052
 478	2.3850e-01	19.1305	37.895938	0.000165	1.646493	0.557847	0.013427
 479	2.3900e-01	19.1642	37.967779	0.000176	1.761852	0.596932	0.014368
 480	2.3950e-01	19.2027	38.034916	0.000165	1.646493	0.557847	0.013427
 481	2.4000e-01	19.2331	38.103764	0.000169	1.688442	0.572060	0.013770
 482	2.4050e-01	19.2893	38.173467	0.000171	1.709416	0.579166	0.013941
 483	2.4100e-01	19.3069	38.240604	0.000165	1.646493	0.557847	0.013427
 484	2.4150e-01	19.3711	38.312873	0.000177	1.772340	0.600485	0.014454
 485	2.4200e-01	19.4273	38.379155	0.000163	1.625519	0.550741	0.013256
 486	2.4250e-01	19.4048	38.449713	-0.000173	-1.730391	-0.586272	0.014112
 487	2.4300e-01	19.5059	38.518560	0.000169	1.688442	0.572060	0.013770
 488	2.4350e-01	19.5155	38.589974	0.000175	1.751365	0.593379	0.014283
 489	2.4400e-01	19.5604	38.654545	0.000158	1.583570	0.536528	0.012914
 490	2.4450e-01	19.5989	38.723393	0.000169	1.688442	0.572060	0.013770
 491	2.4500e-01	19.6519	38.786254	0.000154	1.541621	0.522315	0.012572
 492	2.4550e-01	19.6791	38.857667	0.000175	1.751365	0.593379	0.014283
 493	2.4600e-01	19.7048	38.926515	0.000169	1.688442	0.572060	0.013770
 494	2.4650e-01	19.7497	38.996645	0.000172	1.719903	0.582719	0.014026
 495	2.4700e-01	19.7722	39.064210	0.000166	1.656980	0.561400	0.013513
 496	2.4750e-01	19.8379	39.133913	0.000171	1.709416	0.579166	0.013941
 497	2.4800e-01	19.8861	39.199340	0.000160	1.604544	0.543634	0.013085
 498	2.4850e-01	19.9214	39.271181	0.000176	1.761852	0.596932	0.014368
 499	2.4900e-01	19.9454	39.336180	0.000159	1.594057	0.540081	0.013000
 500	2.4950e-01	19.9952	39.405455	0.000170	1.698929	0.575613	0.013855
 501	2.5000e-01	20.0224	39.473875	0.000168	1.677955	0.568506	0.013684
 502	2.5050e-01	19.9952	39.540157	-0.000163	-1.625519	-0.550741	0.013256
 503	2.5100e-01	19.9422	39.589334	-0.000121	-1.206030	-0.408614	0.009835
 504	2.5150e-01	19.9037	39.629959	-0.000100	-0.996286	-0.337551	0.008125
 505	2.5200e-01	19.8684	39.654761	-0.000061	-0.608259	-0.206084	0.004960
 506	2.5250e-01	19.8315	39.680418	-0.000063	-0.629233	-0.213190	0.005132
 507	2.5300e-01	19.7946	39.692819	-0.000030	-0.304129	-0.103042	0.002480
 508	2.5350e-01	19.7401	39.703082	-0.000025	-0.251693	-0.085276	0.002053
 509	2.5400e-01	19.7016	39.703082	-0.000000	-0.000000	-0.000000	0.000000
 510	2.5450e-01	19.6551	39.702655	0.000001	0.010487	0.003553	-0.000086
 511	2.5500e-01	19.6390	39.687688	0.000037	0.367053	0.124361	-0.002993
 512	2.5550e-01	19.5845	39.682984	0.000012	0.115359	0.039085	-0.000941
 513	2.5600e-01	19.5460	39.666307	0.000041	0.409001	0.138573	-0.003335
 514	2.5650e-01	19.5043	39.643215	0.000057	0.566310	0.191871	-0.004618
 515	2.5700e-01	19.4545	39.624399	0.000046	0.461438	0.156339	-0.003763
 516	2.5750e-01	19.4112	39.591045	0.000082	0.818003	0.277147	-0.006671
 517	2.5800e-01	19.3936	39.568808	0.000055	0.545335	0.184765	-0.004447
 518	2.5850e-01	19.3422	39.535881	0.000081	0.807516	0.273594	-0.006585
 519	2.5900e-01	19.2829	39.501243	0.000085	0.849465	0.287806	-0.006928
 520	2.5950e-01	19.2476	39.468316	0.000081	0.807516	0.273594	-0.006585
 521	2.6000e-01	19.2107	39.428975	0.000096	0.964824	0.326891	-0.007868
 522	2.6050e-01	19.1818	39.393482	0.000087	0.870439	0.294913	-0.007099
 523	2.6100e-01	19.1385	39.350719	0.000105	1.048722	0.355317	-0.008553
 524	2.6150e-01	19.1016	39.306246	0.000109	1.090671	0.369529	-0.008895
 525	2.6200e-01	19.0374	39.264767	0.000102	1.017260	0.344657	-0.008296
 526	2.6250e-01	19.0438	39.221149	-0.000107	-1.069696	-0.362423	-0.008724
 527	2.6300e-01	18.9701	39.180097	0.000101	1.006773	0.341104	-0.008210
 528	2.6350e-01	18.9171	39.132203	0.000117	1.174568	0.397954	-0.009579
 529	2.6400e-01	18.9235	39.080032	-0.000128	-1.279440	-0.433486	-0.010434
 530	2.6450e-01	18.8722	39.035987	0.000108	1.080183	0.365976	-0.008809
 531	2.6500e-01	18.8209	38.985955	0.000123	1.227004	0.415720	-0.010006
 532	2.6550e-01	18.7759	38.937206	0.000120	1.195543	0.405061	-0.009750
 533	2.6600e-01	18.7390	38.880331	0.000139	1.394800	0.472571	-0.011375
 534	2.6650e-01	18.6973	38.831155	0.000121	1.206030	0.408614	-0.009835
 535	2.6700e-01	18.6412	38.781122	0.000123	1.227004	0.415720	-0.010006
 536	2.6750e-01	18.6251	38.726386	0.000134	1.342364	0.454805	-0.010947
 537	2.6800e-01	18.5690	38.674216	0.000128	1.279440	0.433486	-0.010434
 538	2.6850e-01	18.5417	38.616914	0.000141	1.405287	0.476124	-0.011460
 539	2.6900e-01	18.5161	38.566027	0.000125	1.247979	0.422827	-0.010177
 540	2.6950e-01	18.4487	38.508297	0.000142	1.415774	0.479677	-0.011546
 541	2.7000e-01	18.4102	38.457410	0.000125	1.247979	0.422827	-0.010177
 542	2.7050e-01	18.3893	38.397970	0.000146	1.457723	0.493890	-0.011888
 543	2.7100e-01	18.3556	38.344517	0.000131	1.310902	0.444146	-0.010691
 544	2.7150e-01	18.3027	38.288498	0.000137	1.373825	0.465465	-0.011204
 545	2.7200e-01	18.2177	38.233762	0.000134	1.342364	0.454805	-0.010947
 546	2.7250e-01	18.2433	38.178171	-0.000136	-1.363338	-0.461911	-0.011118
 547	2.7300e-01	18.1792	38.123435	0.000134	1.342364	0.454805	-0.010947
 548	2.7350e-01	18.1679	38.063995	0.000146	1.457723	0.493890	-0.011888
 549	2.7400e-01	18.1086	38.003700	0.000148	1.478698	0.500996	-0.012059
 550	2.7450e-01	18.0765	37.948536	0.000135	1.352851	0.458358	-0.011033
 551	2.7500e-01	18.0236	37.886530	0.000152	1.520646	0.515209	-0.012401
 552	2.7550e-01	17.9722	37.832649	0.000132	1.321389	0.447699	-0.010776
 553	2.7600e-01	17.9482	37.772782	0.000147	1.468210	0.497443	-0.011974
 554	2.7650e-01	17.9113	37.712059	0.000149	1.489185	0.504549	-0.012145
 555	2.7700e-01	17.8503	37.662455	0.000122	1.216517	0.412167	-0.009921
 556	2.7750e-01	17.8391	37.601304	0.000150	1.499672	0.508103	-0.012230
 557	2.7800e-01	17.8022	37.537588	0.000156	1.562595	0.529422	-0.012743
 558	2.7850e-01	17.7396	37.473017	0.000158	1.583570	0.536528	-0.012914
 559	2.7900e-01	17.6738	37.419991	0.000130	1.300415	0.440592	-0.010605
 560	2.7950e-01	17.6514	37.357558	0.000153	1.531134	0.518762	-0.012487
 561	2.8000e-01	17.6032	37.295552	0.000152	1.520646	0.515209	-0.012401
 562	2.8050e-01	17.5471	37.236967	0.000144	1.436749	0.486784	-0.011717
 563	2.8100e-01	17.5166	37.177528	0.000146	1.457723	0.493890	-0.011888
 564	2.8150e-01	17.5070	37.115522	0.000152	1.520646	0.515209	-0.012401
 565	2.8200e-01	17.4589	37.059503	0.000137	1.373825	0.465465	-0.011204
 566	2.8250e-01	17.4268	36.994932	0.000158	1.583570	0.536528	-0.012914
 567	2.8300e-01	17.3770	36.937202	0.000142	1.415774	0.479677	-0.011546
 568	2.8350e-01	17.3482	36.876907	0.000148	1.478698	0.500996	-0.012059
 569	2.8400e-01	17.2856	36.813191	0.000156	1.562595	0.529422	-0.012743
 570	2.8450e-01	17.2648	36.754179	0.000145	1.447236	0.490337	-0.011802
 571	2.8500e-01	17.2038	36.690462	0.000156	1.562595	0.529422	-0.012743
 572	2.8550e-01	17.1701	36.633588	0.000139	1.394800	0.472571	-0.011375
 573	2.8600e-01	17.1156	36.570300	0.000155	1.552108	0.525868	-0.012658
 574	2.8650e-01	17.1059	36.509149	0.000150	1.499672	0.508103	-0.012230
 575	2.8700e-01	17.0738	36.446716	0.000153	1.531134	0.518762	-0.012487
 576	2.8750e-01	17.0241	36.383427	0.000155	1.552108	0.525868	-0.012658
 577	2.8800e-01	16.9503	36.319284	0.000157	1.573082	0.532975	-0.012829
 578	2.8850e-01	16.9599	36.256850	-0.000153	-1.531134	-0.518762	-0.012487
 579	2.8900e-01	16.8990	36.193989	0.000154	1.541621	0.522315	-0.012572
 580	2.8950e-01	16.8477	36.135405	0.000144	1.436749	0.486784	-0.011717
 581	2.9000e-01	16.8156	36.074682	0.000149	1.489185	0.504549	-0.012145
 582	2.9050e-01	16.7947	36.009683	0.000159	1.594057	0.540081	-0.013000
 583	2.9100e-01	16.7321	35.950243	0.000146	1.457723	0.493890	-0.011888
 584	2.9150e-01	16.6872	35.886527	0.000156	1.562595	0.529422	-0.012743
 585	2.9200e-01	16.6616	35.824094	0.000153	1.531134	0.518762	-0.012487
 586	2.9250e-01	16.6247	35.766364	0.000142	1.415774	0.479677	-0.011546
 587	2.9300e-01	16.5926	35.701793	0.000158	1.583570	0.536528	-0.012914
 588	2.9350e-01	16.5509	35.639359	0.000153	1.531134	0.518762	-0.012487
 589	2.9400e-01	16.4899	35.576071	0.000155	1.552108	0.525868	-0.012658
 590	2.9450e-01	16.4707	35.517486	0.000144	1.436749	0.486784	-0.011717
 591	2.9500e-01	16.4354	35.456763	0.000149	1.489185	0.504549	-0.012145
 592	2.9550e-01	16.3744	35.390909	0.000162	1.615031	0.547187	-0.013171
 593	2.9600e-01	16.3247	35.328476	0.000153	1.531134	0.518762	-0.012487
 594	2.9650e-01	16.3022	35.268608	0.000147	1.468210	0.497443	-0.011974
 595	2.9700e-01	16.2605	35.199333	0.000170	1.698929	0.575613	-0.013855
 596	2.9750e-01	16.2108	35.138610	0.000149	1.489185	0.504549	-0.012145
 597	2.9800e-01	16.1578	35.077887	0.000149	1.489185	0.504549	-0.012145
 598	2.9850e-01	16.1530	35.008185	0.000171	1.709416	0.579166	-0.013941
 599	2.9900e-01	16.0744	34.948317	0.000147	1.468210	0.497443	-0.011974
 600	2.9950e-01	16.0471	34.881607	0.000164	1.636006	0.554294	-0.013342
 601	3.0000e-01	16.0102	34.822168	0.000146	1.457723	0.493890	-0.011888
 602	3.0050e-01	15.9862	34.759734	0.000153	1.531134	0.518762	-0.012487
 603	3.0100e-01	15.9348	34.699011	0.000149	1.489185	0.504549	-0.012145
 604	3.0150e-01	15.8867	34.629736	0.000170	1.698929	0.575613	-0.013855
 605	3.0200e-01	15.8707	34.561744	0.000167	1.667467	0.564953	-0.013598
 606	3.0250e-01	15.8193	34.499310	0.000153	1.531134	0.518762	-0.012487
 607	3.0300e-01	15.7696	34.442436	0.000139	1.394800	0.472571	-0.011375
 608	3.0350e-01	15.7199	34.377437	0.000159	1.594057	0.540081	-0.013000
 609	3.0400e-01	15.7070	34.314149	0.000155	1.552108	0.525868	-0.012658
 610	3.0450e-01	15.6701	34.248722	0.000160	1.604544	0.543634	-0.013085
 611	3.0500e-01	15.6172	34.184151	0.000158	1.583570	0.536528	-0.012914
 612	3.0550e-01	15.5562	34.123855	0.000148	1.478698	0.500996	-0.012059
 613	3.0600e-01	15.5290	34.054580	0.000170	1.698929	0.575613	-0.013855
 614	3.0650e-01	15.5081	33.994285	0.000148	1.478698	0.500996	-0.012059
 615	3.0700e-01	15.4841	33.923727	0.000173	1.730391	0.586272	-0.014112
 616	3.0750e-01	15.4263	33.861721	0.000152	1.520646	0.515209	-0.012401
 617	3.0800e-01	15.3573	33.794584	0.000165	1.646493	0.557847	-0.013427
 618	3.0850e-01	15.3300	33.736427	0.000143	1.426261	0.483230	-0.011631
 619	3.0900e-01	15.3124	33.662020	0.000182	1.824776	0.618251	-0.014881
 620	3.0950e-01	15.2883	33.598304	0.000156	1.562595	0.529422	-0.012743
 621	3.1000e-01	15.2290	33.539292	0.000145	1.447236	0.490337	-0.011802
 622	3.1050e-01	15.2001	33.472155	0.000165	1.646493	0.557847	-0.013427
 623	3.1100e-01	15.1151	33.401596	0.000173	1.730391	0.586272	-0.014112
 624	3.1150e-01	15.0942	33.338735	0.000154	1.541621	0.522315	-0.012572
 625	3.1200e-01	15.0750	33.272454	0.000163	1.625519	0.550741	-0.013256
 626	3.1250e-01	14.9996	33.207027	0.000160	1.604544	0.543634	-0.013085
 627	3.1300e-01	14.9675	33.142455	0.000158	1.583570	0.536528	-0.012914
 628	3.1350e-01	14.9258	33.072753	0.000171	1.709416	0.579166	-0.013941
 629	3.1400e-01	14.8825	33.006043	0.000164	1.636006	0.554294	-0.013342
 630	3.1450e-01	14.8777	32.945320	0.000149	1.489185	0.504549	-0.012145
 631	3.1500e-01	14.7990	32.874334	0.000174	1.740878	0.589825	-0.014197
 632	3.1550e-01	14.8055	32.808480	-0.000162	-1.615031	-0.547187	-0.013171
 633	3.1600e-01	14.7525	32.739632	0.000169	1.688442	0.572060	-0.013770
 634	3.1650e-01	14.7156	32.671212	0.000168	1.677955	0.568506	-0.013684
 635	3.1700e-01	14.6723	32.605786	0.000160	1.604544	0.543634	-0.013085
 636	3.1750e-01	14.6338	32.541214	0.000158	1.583570	0.536528	-0.012914
 637	3.1800e-01	14.5777	32.469373	0.000176	1.761852	0.596932	-0.014368
 638	3.1850e-01	14.5536	32.404374	0.000159	1.594057	0.540081	-0.013000
 639	3.1900e-01	14.4894	32.339803	0.000158	1.583570	0.536528	-0.012914
 640	3.1950e-01	14.4557	32.273093	0.000164	1.636006	0.554294	-0.013342
 641	3.2000e-01	14.4012	32.202107	0.000174	1.740878	0.589825	-0.014197
 642	3.2050e-01	14.4044	32.140102	-0.000152	-1.520646	-0.515209	-0.012401
 643	3.2100e-01	14.3595	32.071254	0.000169	1.688442	0.572060	-0.013770
 644	3.2150e-01	14.2697	32.003262	0.000167	1.667467	0.564953	-0.013598
 645	3.2200e-01	14.2360	31.938690	0.000158	1.583570	0.536528	-0.012914
 646	3.2250e-01	14.2119	31.864284	0.000182	1.824776	0.618251	-0.014881
 647	3.2300e-01	14.1782	31.804416	0.000147	1.468210	0.497443	-0.011974
 648	3.2350e-01	14.1413	31.733858	0.000173	1.730391	0.586272	-0.014112
 649	3.2400e-01	14.0916	31.665865	0.000167	1.667467	0.564953	-0.013598
 650	3.2450e-01	14.0435	31.599583	0.000163	1.625519	0.550741	-0.013256
 651	3.2500e-01	14.0210	31.532446	0.000165	1.646493	0.557847	-0.013427
 652	3.2550e-01	13.9552	31.463171	0.000170	1.698929	0.575613	-0.013855
 653	3.2600e-01	13.9135	31.397317	0.000162	1.615031	0.547187	-0.013171
 654	3.2650e-01	13.8734	31.337022	0.000148	1.478698	0.500996	-0.012059
 655	3.2700e-01	13.8509	31.263470	0.000180	1.803801	0.611144	-0.014710
 656	3.2750e-01	13.8365	31.194622	0.000169	1.688442	0.572060	-0.013770
 657	3.2800e-01	13.7852	31.134755	0.000147	1.468210	0.497443	-0.011974
 658	3.2850e-01	13.7451	31.059920	0.000184	1.835263	0.621804	-0.014967
 659	3.2900e-01	13.6761	30.995777	0.000157	1.573082	0.532975	-0.012829
 660	3.2950e-01	13.6520	30.924363	0.000175	1.751365	0.593379	-0.014283
 661	3.3000e-01	13.6055	30.855088	0.000170	1.698929	0.575613	-0.013855
 662	3.3050e-01	13.5734	30.791799	0.000155	1.552108	0.525868	-0.012658
 663	3.3100e-01	13.5381	30.722096	0.000171	1.709416	0.579166	-0.013941
 664	3.3150e-01	13.4948	30.651538	0.000173	1.730391	0.586272	-0.014112
 665	3.3200e-01	13.4740	30.585684	0.000162	1.615031	0.547187	-0.013171
 666	3.3250e-01	13.4050	30.510850	0.000184	1.835263	0.621804	-0.014967
 667	3.3300e-01	13.3745	30.448416	0.000153	1.531134	0.518762	-0.012487
 668	3.3350e-01	13.3215	30.382134	0.000163	1.625519	0.550741	-0.013256
 669	3.3400e-01	13.3071	30.309866	0.000177	1.772340	0.600485	-0.014454
 670	3.3450e-01	13.2670	30.244867	0.000159	1.594057	0.540081	-0.013000
 671	3.3500e-01	13.2301	30.174308	0.000173	1.730391	0.586272	-0.014112
 672	3.3550e-01	13.1627	30.108027	0.000163	1.625519	0.550741	-0.013256
 673	3.3600e-01	13.1258	30.037468	0.000173	1.730391	0.586272	-0.014112
 674	3.3650e-01	13.0857	29.966910	0.000173	1.730391	0.586272	-0.014112
 675	3.3700e-01	13.0777	29.899345	0.000166	1.656980	0.561400	-0.013513
 676	3.3750e-01	13.0312	29.824939	0.000182	1.824776	0.618251	-0.014881
 677	3.3800e-01	12.9558	29.754380	0.000173	1.730391	0.586272	-0.014112
 678	3.3850e-01	12.8980	29.691092	0.000155	1.552108	0.525868	-0.012658
 679	3.3900e-01	12.8996	29.618823	-0.000177	-1.772340	-0.600485	-0.014454
 680	3.3950e-01	12.8692	29.548265	0.000173	1.730391	0.586272	-0.014112
 681	3.4000e-01	12.8146	29.476424	0.000176	1.761852	0.596932	-0.014368
 682	3.4050e-01	12.7889	29.411425	0.000159	1.594057	0.540081	-0.013000
 683	3.4100e-01	12.7232	29.340867	0.000173	1.730391	0.586272	-0.014112
 684	3.4150e-01	12.7119	29.275440	0.000160	1.604544	0.543634	-0.013085
 685	3.4200e-01	12.6381	29.198468	0.000189	1.887699	0.639570	-0.015395
 686	3.4250e-01	12.6045	29.122350	0.000187	1.866725	0.632463	-0.015223
 687	3.4300e-01	12.5595	29.062910	0.000146	1.457723	0.493890	-0.011888
 688	3.4350e-01	12.5435	28.991069	0.000176	1.761852	0.596932	-0.014368
 689	3.4400e-01	12.4938	28.917090	0.000181	1.814288	0.614698	-0.014796
 690	3.4450e-01	12.4729	28.848670	0.000168	1.677955	0.568506	-0.013684
 691	3.4500e-01	12.4152	28.781533	0.000165	1.646493	0.557847	-0.013427
 692	3.4550e-01	12.3831	28.711830	0.000171	1.709416	0.579166	-0.013941
 693	3.4600e-01	12.3349	28.637851	0.000181	1.814288	0.614698	-0.014796
 694	3.4650e-01	12.2884	28.568148	0.000171	1.709416	0.579166	-0.013941
 695	3.4700e-01	12.2595	28.493313	0.000184	1.835263	0.621804	-0.014967
 696	3.4750e-01	12.2499	28.424893	0.000168	1.677955	0.568506	-0.013684
 697	3.4800e-01	12.1793	28.356901	0.000167	1.667467	0.564953	-0.013598
 698	3.4850e-01	12.1296	28.287198	0.000171	1.709416	0.579166	-0.013941
 699	3.4900e-01	12.0927	28.214074	0.000179	1.793314	0.607591	-0.014625
 700	3.4950e-01	12.0414	28.143944	0.000172	1.719903	0.582719	-0.014026
 701	3.5000e-01	12.0253	28.067399	0.000188	1.877212	0.636017	-0.015309
 702	3.5050e-01	11.9868	27.997696	0.000171	1.709416	0.579166	-0.013941
 703	3.5100e-01	11.9403	27.927565	0.000172	1.719903	0.582719	-0.014026
 704	3.5150e-01	11.8649	27.853158	0.000182	1.824776	0.618251	-0.014881
 705	3.5200e-01	11.8633	27.783883	0.000170	1.698929	0.575613	-0.013855
 706	3.5250e-01	11.7895	27.714608	0.000170	1.698929	0.575613	-0.013855
 707	3.5300e-01	11.7815	27.641484	0.000179	1.793314	0.607591	-0.014625
 708	3.5350e-01	11.7414	27.574774	0.000164	1.636006	0.554294	-0.013342
 709	3.5400e-01	11.6788	27.500368	0.000182	1.824776	0.618251	-0.014881
 710	3.5450e-01	11.6628	27.430665	0.000171	1.709416	0.579166	-0.013941
 711	3.5500e-01	11.6162	27.350271	0.000197	1.971597	0.667995	-0.016079
 712	3.5550e-01	11.5713	27.282706	0.000166	1.656980	0.561400	-0.013513
 713	3.5600e-01	11.5473	27.206589	0.000187	1.866725	0.632463	-0.015223
 714	3.5650e-01	11.4831	27.139452	0.000165	1.646493	0.557847	-0.013427
 715	3.5700e-01	11.4414	27.062907	0.000188	1.877212	0.636017	-0.015309
 716	3.5750e-01	11.4173	26.988500	0.000182	1.824776	0.618251	-0.014881
 717	3.5800e-01	11.3724	26.920508	0.000167	1.667467	0.564953	-0.013598
 718	3.5850e-01	11.3435	26.849522	0.000174	1.740878	0.589825	-0.014197
 719	3.5900e-01	11.3082	26.770411	0.000194	1.940135	0.657336	-0.015822
 720	3.5950e-01	11.2344	26.695149	0.000185	1.845750	0.625357	-0.015052
 721	3.6000e-01	11.1911	26.627584	0.000166	1.656980	0.561400	-0.013513
 722	3.6050e-01	11.2040	26.547618	-0.000196	-1.961109	-0.664442	-0.015993
 723	3.6100e-01	11.1221	26.476633	0.000174	1.740878	0.589825	-0.014197
 724	3.6150e-01	11.1141	26.402654	0.000181	1.814288	0.614698	-0.014796
 725	3.6200e-01	11.0628	26.329530	0.000179	1.793314	0.607591	-0.014625
 726	3.6250e-01	11.0018	26.249564	0.000196	1.961109	0.664442	-0.015993
 727	3.6300e-01	10.9713	26.176440	0.000179	1.793314	0.607591	-0.014625
 728	3.6350e-01	10.9264	26.105454	0.000174	1.740878	0.589825	-0.014197
 729	3.6400e-01	10.9120	26.033613	0.000176	1.761852	0.596932	-0.014368
 730	3.6450e-01	10.8398	25.957496	0.000187	1.866725	0.632463	-0.015223
 731	3.6500e-01	10.8254	25.883089	0.000182	1.824776	0.618251	-0.014881
 732	3.6550e-01	10.7917	25.810820	0.000177	1.772340	0.600485	-0.014454
 733	3.6600e-01	10.7323	25.734703	0.000187	1.866725	0.632463	-0.015223
 734	3.6650e-01	10.6954	25.660724	0.000181	1.814288	0.614698	-0.014796
 735	3.6700e-01	10.6569	25.586317	0.000182	1.824776	0.618251	-0.014881
 736	3.6750e-01	10.6136	25.509344	0.000189	1.887699	0.639570	-0.015395
 737	3.6800e-01	10.5639	25.437503	0.000176	1.761852	0.596932	-0.014368
 738	3.6850e-01	10.5334	25.367800	0.000171	1.709416	0.579166	-0.013941
 739	3.6900e-01	10.5157	25.284841	0.000203	2.034520	0.689314	-0.016592
 740	3.6950e-01	10.4676	25.214711	0.000172	1.719903	0.582719	-0.014026
 741	3.7000e-01	10.4195	25.142014	0.000178	1.782827	0.604038	-0.014539
 742	3.7050e-01	10.3842	25.064614	0.000190	1.898186	0.643123	-0.015480
 743	3.7100e-01	10.3521	24.983793	0.000198	1.982084	0.671548	-0.016164
 744	3.7150e-01	10.2992	24.913235	0.000173	1.730391	0.586272	-0.014112
 745	3.7200e-01	10.2527	24.841821	0.000175	1.751365	0.593379	-0.014283
 746	3.7250e-01	10.1933	24.766559	0.000185	1.845750	0.625357	-0.015052
 747	3.7300e-01	10.1981	24.685310	-0.000199	-1.992571	-0.675101	-0.016250
 748	3.7350e-01	10.1211	24.612186	0.000179	1.793314	0.607591	-0.014625
 749	3.7400e-01	10.1115	24.539063	0.000179	1.793314	0.607591	-0.014625
 750	3.7450e-01	10.0617	24.465083	0.000181	1.814288	0.614698	-0.014796
 751	3.7500e-01	9.9944	24.392387	0.000178	1.782827	0.604038	-0.014539
 752	3.7550e-01	9.9847	24.310283	0.000201	2.013546	0.682208	-0.016421
 753	3.7600e-01	9.9350	24.237587	0.000178	1.782827	0.604038	-0.014539
 754	3.7650e-01	9.8917	24.156766	0.000198	1.982084	0.671548	-0.016164
 755	3.7700e-01	9.8532	24.084497	0.000177	1.772340	0.600485	-0.014454
 756	3.7750e-01	9.7987	24.010945	0.000180	1.803801	0.611144	-0.014710
 757	3.7800e-01	9.7618	23.931407	0.000195	1.950622	0.660889	-0.015908
 758	3.7850e-01	9.7072	23.850586	0.000198	1.982084	0.671548	-0.016164
 759	3.7900e-01	9.7281	23.775751	-0.000184	-1.835263	-0.621804	-0.014967
 760	3.7950e-01	9.6607	23.701345	0.000182	1.824776	0.618251	-0.014881
 761	3.8000e-01	9.6061	23.625655	0.000186	1.856237	0.628910	-0.015138
 762	3.8050e-01	9.5596	23.550393	0.000185	1.845750	0.625357	-0.015052
 763	3.8100e-01	9.5195	23.478980	0.000175	1.751365	0.593379	-0.014283
 764	3.8150e-01	9.4922	23.399441	0.000195	1.950622	0.660889	-0.015908
 765	3.8200e-01	9.4730	23.322896	0.000188	1.877212	0.636017	-0.015309
 766	3.8250e-01	9.3896	23.246351	0.000188	1.877212	0.636017	-0.015309
 767	3.8300e-01	9.3655	23.169379	0.000189	1.887699	0.639570	-0.015395
 768	3.8350e-01	9.3238	23.089413	0.000196	1.961109	0.664442	-0.015993
 769	3.8400e-01	9.2853	23.012868	0.000188	1.877212	0.636017	-0.015309
 770	3.8450e-01	9.2596	22.938034	0.000184	1.835263	0.621804	-0.014967
 771	3.8500e-01	9.2259	22.855502	0.000202	2.024033	0.685761	-0.016506
 772	3.8550e-01	9.2115	22.778957	0.000188	1.877212	0.636017	-0.015309
 773	3.8600e-01	9.1489	22.701129	0.000191	1.908673	0.646676	-0.015566
 774	3.8650e-01	9.0976	22.625439	0.000186	1.856237	0.628910	-0.015138
 775	3.8700e-01	9.0302	22.550605	0.000184	1.835263	0.621804	-0.014967
 776	3.8750e-01	9.0078	22.470639	0.000196	1.961109	0.664442	-0.015993
 777	3.8800e-01	8.9949	22.387680	0.000203	2.034520	0.689314	-0.016592
 778	3.8850e-01	8.9388	22.314984	0.000178	1.782827	0.604038	-0.014539
 779	3.8900e-01	8.8858	22.232879	0.000201	2.013546	0.682208	-0.016421
 780	3.8950e-01	8.8618	22.153769	0.000194	1.940135	0.657336	-0.015822
 781	3.9000e-01	8.7944	22.078934	0.000184	1.835263	0.621804	-0.014967
 782	3.9050e-01	8.7543	22.002817	0.000187	1.866725	0.632463	-0.015223
 783	3.9100e-01	8.7238	21.924134	0.000193	1.929648	0.653782	-0.015737
 784	3.9150e-01	8.6933	21.845451	0.000193	1.929648	0.653782	-0.015737
 785	3.9200e-01	8.6484	21.767196	0.000192	1.919161	0.650229	-0.015651
 786	3.9250e-01	8.6051	21.689795	0.000190	1.898186	0.643123	-0.015480
 787	3.9300e-01	8.5923	21.605553	0.000207	2.065982	0.699974	-0.016848
 788	3.9350e-01	8.5233	21.534140	0.000175	1.751365	0.593379	-0.014283
 789	3.9400e-01	8.5056	21.448615	0.000210	2.097443	0.710633	-0.017105
 790	3.9450e-01	8.4479	21.372497	0.000187	1.866725	0.632463	-0.015223
 791	3.9500e-01	8.4367	21.291676	0.000198	1.982084	0.671548	-0.016164
 792	3.9550e-01	8.3837	21.214704	0.000189	1.887699	0.639570	-0.015395
 793	3.9600e-01	8.3196	21.136448	0.000192	1.919161	0.650229	-0.015651
 794	3.9650e-01	8.3019	21.056055	0.000197	1.971597	0.667995	-0.016079
 795	3.9700e-01	8.2393	20.975661	0.000197	1.971597	0.667995	-0.016079
 796	3.9750e-01	8.1944	20.892702	0.000203	2.034520	0.689314	-0.016592
 797	3.9800e-01	8.1816	20.813591	0.000194	1.940135	0.657336	-0.015822
 798	3.9850e-01	8.1062	20.732770	0.000198	1.982084	0.671548	-0.016164
 799	3.9900e-01	8.1014	20.655370	0.000190	1.898186	0.643123	-0.015480
 800	3.9950e-01	8.0516	20.573693	0.000200	2.003058	0.678655	-0.016335
 801	4.0000e-01	8.0019	20.490734	0.000203	2.034520	0.689314	-0.016592
 802	4.0050e-01	7.9795	20.415900	0.000184	1.835263	0.621804	-0.014967
 803	4.0100e-01	7.9522	20.335078	0.000198	1.982084	0.671548	-0.016164
 804	4.0150e-01	7.8848	20.255540	0.000195	1.950622	0.660889	-0.015908
 805	4.0200e-01	7.8431	20.178140	0.000190	1.898186	0.643123	-0.015480
 806	4.0250e-01	7.8126	20.097319	0.000198	1.982084	0.671548	-0.016164
 807	4.0300e-01	7.7805	20.009228	0.000216	2.160367	0.731952	-0.017618
 808	4.0350e-01	7.7468	19.937387	0.000176	1.761852	0.596932	-0.014368
 809	4.0400e-01	7.6939	19.848441	0.000218	2.181341	0.739058	-0.017789
 810	4.0450e-01	7.6490	19.773179	0.000185	1.845750	0.625357	-0.015052
 811	4.0500e-01	7.6105	19.692785	0.000197	1.971597	0.667995	-0.016079
 812	4.0550e-01	7.5848	19.612819	0.000196	1.961109	0.664442	-0.015993
 813	4.0600e-01	7.5383	19.529860	0.000203	2.034520	0.689314	-0.016592
 814	4.0650e-01	7.4950	19.450322	0.000195	1.950622	0.660889	-0.015908
 815	4.0700e-01	7.4677	19.370356	0.000196	1.961109	0.664442	-0.015993
 816	4.0750e-01	7.3907	19.280127	0.000221	2.212803	0.749718	-0.018046
 817	4.0800e-01	7.3811	19.195885	0.000207	2.065982	0.699974	-0.016848
 818	4.0850e-01	7.3313	19.099669	0.000236	2.359624	0.799462	-0.019243
 819	4.0900e-01	7.2880	19.016710	0.000203	2.034520	0.689314	-0.016592
 820	4.0950e-01	7.2816	18.925198	0.000224	2.244264	0.760377	-0.018302
 821	4.1000e-01	7.2271	18.830693	0.000232	2.317675	0.785249	-0.018901
 822	4.1050e-01	7.1436	18.743030	0.000215	2.149879	0.728399	-0.017533
 823	4.1100e-01	7.1388	18.657077	0.000211	2.107930	0.714186	-0.017191
 824	4.1150e-01	7.0955	18.574545	0.000202	2.024033	0.685761	-0.016506
 825	4.1200e-01	7.0602	18.481323	0.000229	2.286213	0.774590	-0.018644
 826	4.1250e-01	7.0346	18.394515	0.000213	2.128905	0.721293	-0.017362
 827	4.1300e-01	7.0153	18.304286	0.000221	2.212803	0.749718	-0.018046
 828	4.1350e-01	6.9158	18.213630	0.000222	2.223290	0.753271	-0.018131
 829	4.1400e-01	6.9255	18.123401	-0.000221	-2.212803	-0.749718	-0.018046
 830	4.1450e-01	6.8645	18.039158	0.000207	2.065982	0.699974	-0.016848
 831	4.1500e-01	6.8132	17.954489	0.000208	2.076469	0.703527	-0.016934
 832	4.1550e-01	6.7875	17.872385	0.000201	2.013546	0.682208	-0.016421
 833	4.1600e-01	6.7057	17.783011	0.000219	2.191828	0.742612	-0.017875
 834	4.1650e-01	6.7169	17.700907	-0.000201	-2.013546	-0.682208	-0.016421
 835	4.1700e-01	6.6592	17.610250	0.000222	2.223290	0.753271	-0.018131
 836	4.1750e-01	6.6287	17.528146	0.000201	2.013546	0.682208	-0.016421
 837	4.1800e-01	6.5790	17.446897	0.000199	1.992571	0.675101	-0.016250
 838	4.1850e-01	6.5276	17.358807	0.000216	2.160367	0.731952	-0.017618
 839	4.1900e-01	6.4971	17.285683	0.000179	1.793314	0.607591	-0.014625
 840	4.1950e-01	6.4811	17.198875	0.000213	2.128905	0.721293	-0.017362
 841	4.2000e-01	6.3977	17.119764	0.000194	1.940135	0.657336	-0.015822
 842	4.2050e-01	6.3897	17.032956	0.000213	2.128905	0.721293	-0.017362
 843	4.2100e-01	6.3447	16.949569	0.000205	2.045007	0.692867	-0.016677
 844	4.2150e-01	6.2774	16.864899	0.000208	2.076469	0.703527	-0.016934
 845	4.2200e-01	6.2565	16.779374	0.000210	2.097443	0.710633	-0.017105
 846	4.2250e-01	6.2068	16.691284	0.000216	2.160367	0.731952	-0.017618
 847	4.2300e-01	6.1586	16.612173	0.000194	1.940135	0.657336	-0.015822
 848	4.2350e-01	6.1586	16.523227	0.000218	2.181341	0.739058	-0.017789
 849	4.2400e-01	6.1073	16.440695	0.000202	2.024033	0.685761	-0.016506
 850	4.2450e-01	6.0207	16.360302	0.000197	1.971597	0.667995	-0.016079
 851	4.2500e-01	5.9950	16.276915	0.000205	2.045007	0.692867	-0.016677
 852	4.2550e-01	5.9758	16.187113	0.000220	2.202315	0.746165	-0.017960
 853	4.2600e-01	5.9421	16.110141	0.000189	1.887699	0.639570	-0.015395
 854	4.2650e-01	5.9212	16.021195	0.000218	2.181341	0.739058	-0.017789
 855	4.2700e-01	5.8554	15.936097	0.000209	2.086956	0.707080	-0.017019
 856	4.2750e-01	5.8169	15.851855	0.000207	2.065982	0.699974	-0.016848
 857	4.2800e-01	5.7720	15.768896	0.000203	2.034520	0.689314	-0.016592
 858	4.2850e-01	5.7303	15.682943	0.000211	2.107930	0.714186	-0.017191
 859	4.2900e-01	5.6742	15.604688	0.000192	1.919161	0.650229	-0.015651
 860	4.2950e-01	5.6806	15.512321	-0.000227	-2.265239	-0.767484	-0.018473
 861	4.3000e-01	5.6036	15.436203	0.000187	1.866725	0.632463	-0.015223
 862	4.3050e-01	5.5988	15.349395	0.000213	2.128905	0.721293	-0.017362
 863	4.3100e-01	5.5522	15.260022	0.000219	2.191828	0.742612	-0.017875
 864	4.3150e-01	5.5025	15.178773	0.000199	1.992571	0.675101	-0.016250
 865	4.3200e-01	5.4512	15.090255	0.000217	2.170854	0.735505	-0.017704
 866	4.3250e-01	5.4416	15.002591	0.000215	2.149879	0.728399	-0.017533
 867	4.3300e-01	5.3726	14.916211	0.000212	2.118418	0.717739	-0.017276
 868	4.3350e-01	5.3581	14.829403	0.000213	2.128905	0.721293	-0.017362
 869	4.3400e-01	5.2940	14.744733	0.000208	2.076469	0.703527	-0.016934
 870	4.3450e-01	5.2571	14.658353	0.000212	2.118418	0.717739	-0.017276
 871	4.3500e-01	5.2057	14.567269	0.000223	2.233777	0.756824	-0.018217
 872	4.3550e-01	5.2057	14.476185	0.000223	2.233777	0.756824	-0.018217
 873	4.3600e-01	5.1303	14.388949	0.000214	2.139392	0.724846	-0.017447
 874	4.3650e-01	5.0790	14.299148	0.000220	2.202315	0.746165	-0.017960
 875	4.3700e-01	5.0630	14.214478	0.000208	2.076469	0.703527	-0.016934
 876	4.3750e-01	5.0004	14.130236	0.000207	2.065982	0.699974	-0.016848
 877	4.3800e-01	4.9908	14.043855	0.000212	2.118418	0.717739	-0.017276
 878	4.3850e-01	4.9539	13.956620	0.000214	2.139392	0.724846	-0.017447
 879	4.3900e-01	4.8785	13.867246	0.000219	2.191828	0.742612	-0.017875
 880	4.3950e-01	4.8560	13.782149	0.000209	2.086956	0.707080	-0.017019
 881	4.4000e-01	4.8079	13.691492	0.000222	2.223290	0.753271	-0.018131
 882	4.4050e-01	4.8079	13.601691	0.000220	2.202315	0.746165	-0.017960
 883	4.4100e-01	4.7148	13.517449	0.000207	2.065982	0.699974	-0.016848
 884	4.4150e-01	4.6892	13.425937	0.000224	2.244264	0.760377	-0.018302
 885	4.4200e-01	4.6635	13.339129	0.000213	2.128905	0.721293	-0.017362
 886	4.4250e-01	4.5961	13.250611	0.000217	2.170854	0.735505	-0.017704
 887	4.4300e-01	4.5705	13.161237	0.000219	2.191828	0.742612	-0.017875
 888	4.4350e-01	4.5384	13.075284	0.000211	2.107930	0.714186	-0.017191
 889	4.4400e-01	4.5015	12.981634	0.000230	2.296700	0.778143	-0.018730
 890	4.4450e-01	4.4453	12.896109	0.000210	2.097443	0.710633	-0.017105
 891	4.4500e-01	4.4277	12.810584	0.000210	2.097443	0.710633	-0.017105
 892	4.4550e-01	4.3651	12.724204	0.000212	2.118418	0.717739	-0.017276
 893	4.4600e-01	4.3218	12.633547	0.000222	2.223290	0.753271	-0.018131
 894	4.4650e-01	4.2849	12.546739	0.000213	2.128905	0.721293	-0.017362
 895	4.4700e-01	4.2833	12.458649	0.000216	2.160367	0.731952	-0.017618
 896	4.4750e-01	4.2352	12.362861	0.000235	2.349136	0.795909	-0.019158
 897	4.4800e-01	4.1806	12.282895	0.000196	1.961109	0.664442	-0.015993
 898	4.4850e-01	4.1341	12.194376	0.000217	2.170854	0.735505	-0.017704
 899	4.4900e-01	4.0876	12.108851	0.000210	2.097443	0.710633	-0.017105
 900	4.4950e-01	4.0699	12.015629	0.000229	2.286213	0.774590	-0.018644
 901	4.5000e-01	4.0122	11.932242	0.000205	2.045007	0.692867	-0.016677
 902	4.5050e-01	3.9689	11.837309	0.000233	2.328162	0.788803	-0.018987
 903	4.5100e-01	3.9352	11.750929	0.000212	2.118418	0.717739	-0.017276
 904	4.5150e-01	3.8855	11.659417	0.000224	2.244264	0.760377	-0.018302
 905	4.5200e-01	3.8630	11.571754	0.000215	2.149879	0.728399	-0.017533
 906	4.5250e-01	3.8004	11.486656	0.000209	2.086956	0.707080	-0.017019
 907	4.5300e-01	3.7667	11.399848	0.000213	2.128905	0.721293	-0.017362
 908	4.5350e-01	3.7347	11.303205	0.000237	2.370111	0.803015	-0.019329
 909	4.5400e-01	3.6978	11.217680	0.000210	2.097443	0.710633	-0.017105
 910	4.5450e-01	3.6753	11.126168	0.000224	2.244264	0.760377	-0.018302
 911	4.5500e-01	3.6127	11.034229	0.000225	2.254752	0.763930	-0.018388
 912	4.5550e-01	3.5534	10.943572	0.000222	2.223290	0.753271	-0.018131
 913	4.5600e-01	3.5277	10.853343	0.000221	2.212803	0.749718	-0.018046
 914	4.5650e-01	3.4619	10.765252	0.000216	2.160367	0.731952	-0.017618
 915	4.5700e-01	3.4555	10.678017	0.000214	2.139392	0.724846	-0.017447
 916	4.5750e-01	3.4347	10.579235	0.000242	2.422547	0.820781	-0.019756
 917	4.5800e-01	3.3753	10.492855	0.000212	2.118418	0.717739	-0.017276
 918	4.5850e-01	3.3224	10.398778	0.000231	2.307188	0.781696	-0.018816
 919	4.5900e-01	3.2967	10.308976	0.000220	2.202315	0.746165	-0.017960
 920	4.5950e-01	3.2422	10.218747	0.000221	2.212803	0.749718	-0.018046
 921	4.6000e-01	3.2149	10.125525	0.000229	2.286213	0.774590	-0.018644
 922	4.6050e-01	3.1828	10.036151	0.000219	2.191828	0.742612	-0.017875
 923	4.6100e-01	3.1331	9.941219	0.000233	2.328162	0.788803	-0.018987
 924	4.6150e-01	3.1042	9.850990	0.000221	2.212803	0.749718	-0.018046
 925	4.6200e-01	3.0769	9.758623	0.000227	2.265239	0.767484	-0.018473
 926	4.6250e-01	2.9967	9.669677	0.000218	2.181341	0.739058	-0.017789
 927	4.6300e-01	2.9951	9.579448	0.000221	2.212803	0.749718	-0.018046
 928	4.6350e-01	2.9614	9.481949	0.000239	2.391085	0.810122	-0.019500
 929	4.6400e-01	2.8748	9.396424	0.000210	2.097443	0.710633	-0.017105
 930	4.6450e-01	2.8427	9.299781	0.000237	2.370111	0.803015	-0.019329
 931	4.6500e-01	2.8283	9.208696	0.000223	2.233777	0.756824	-0.018217
 932	4.6550e-01	2.7946	9.113764	0.000233	2.328162	0.788803	-0.018987
 933	4.6600e-01	2.7384	9.023535	0.000221	2.212803	0.749718	-0.018046
 934	4.6650e-01	2.6550	8.924753	0.000242	2.422547	0.820781	-0.019756
 935	4.6700e-01	2.6293	8.828965	0.000235	2.349136	0.795909	-0.019158
 936	4.6750e-01	2.5956	8.737453	0.000224	2.244264	0.760377	-0.018302
 937	4.6800e-01	2.5780	8.639955	0.000239	2.391085	0.810122	-0.019500
 938	4.6850e-01	2.5219	8.548871	0.000223	2.233777	0.756824	-0.018217
 939	4.6900e-01	2.5154	8.448806	0.000245	2.454009	0.831441	-0.020013
 940	4.6950e-01	2.4240	8.356439	0.000227	2.265239	0.767484	-0.018473
 941	4.7000e-01	2.4096	8.248678	0.000264	2.642779	0.895398	-0.021552
 942	4.7050e-01	2.3711	8.153745	0.000233	2.328162	0.788803	-0.018987
 943	4.7100e-01	2.3326	8.059667	0.000231	2.307188	0.781696	-0.018816
 944	4.7150e-01	2.3149	7.954472	0.000258	2.579855	0.874079	-0.021039
 945	4.7200e-01	2.2556	7.852697	0.000250	2.495958	0.845653	-0.020355
 946	4.7250e-01	2.2235	7.761185	0.000224	2.244264	0.760377	-0.018302
 947	4.7300e-01	2.1689	7.661121	0.000245	2.454009	0.831441	-0.020013
 948	4.7350e-01	2.1481	7.561056	0.000245	2.454009	0.831441	-0.020013
 949	4.7400e-01	2.0967	7.464841	0.000236	2.359624	0.799462	-0.019243
 950	4.7450e-01	2.0358	7.363493	0.000249	2.485470	0.842100	-0.020269
 951	4.7500e-01	2.0213	7.267705	0.000235	2.349136	0.795909	-0.019158
 952	4.7550e-01	1.9764	7.173628	0.000231	2.307188	0.781696	-0.018816
 953	4.7600e-01	1.9251	7.067149	0.000261	2.611317	0.884738	-0.021296
 954	4.7650e-01	1.9058	6.970078	0.000238	2.380598	0.806568	-0.019414
 955	4.7700e-01	1.8625	6.871297	0.000242	2.422547	0.820781	-0.019756
 956	4.7750e-01	1.8048	6.772943	0.000241	2.412060	0.817228	-0.019671
 957	4.7800e-01	1.7839	6.667319	0.000259	2.590342	0.877632	-0.021125
 958	4.7850e-01	1.7374	6.568538	0.000242	2.422547	0.820781	-0.019756
 959	4.7900e-01	1.6860	6.474033	0.000232	2.317675	0.785249	-0.018901
 960	4.7950e-01	1.6331	6.372258	0.000250	2.495958	0.845653	-0.020355
 961	4.8000e-01	1.6106	6.269200	0.000253	2.527419	0.856313	-0.020612
 962	4.8050e-01	1.5962	6.169136	0.000245	2.454009	0.831441	-0.020013
 963	4.8100e-01	1.5369	6.068216	0.000247	2.474983	0.838547	-0.020184
 964	4.8150e-01	1.4631	5.970718	0.000239	2.391085	0.810122	-0.019500
 965	4.8200e-01	1.4566	5.871081	0.000244	2.443521	0.827887	-0.019927
 966	4.8250e-01	1.3909	5.770162	0.000247	2.474983	0.838547	-0.020184
 967	4.8300e-01	1.3668	5.675656	0.000232	2.317675	0.785249	-0.018901
 968	4.8350e-01	1.3283	5.572171	0.000254	2.537906	0.859866	-0.020697
 969	4.8400e-01	1.2930	5.469541	0.000252	2.516932	0.852760	-0.020526
 970	4.8450e-01	1.2561	5.373325	0.000236	2.359624	0.799462	-0.019243
 971	4.8500e-01	1.2256	5.271978	0.000249	2.485470	0.842100	-0.020269
 972	4.8550e-01	1.1727	5.164644	0.000263	2.632291	0.891844	-0.021467
 973	4.8600e-01	1.1085	5.065435	0.000243	2.433034	0.824334	-0.019842
 974	4.8650e-01	1.0877	4.959812	0.000259	2.590342	0.877632	-0.021125
 975	4.8700e-01	1.0460	4.867017	0.000228	2.275726	0.771037	-0.018559
 976	4.8750e-01	1.0299	4.769946	0.000238	2.380598	0.806568	-0.019414
 977	4.8800e-01	0.9754	4.664750	0.000258	2.579855	0.874079	-0.021039
 978	4.8850e-01	0.9433	4.569817	0.000233	2.328162	0.788803	-0.018987
 979	4.8900e-01	0.9080	4.465905	0.000255	2.548394	0.863419	-0.020783
 980	4.8950e-01	0.8679	4.370972	0.000233	2.328162	0.788803	-0.018987
 981	4.9000e-01	0.8182	4.270480	0.000246	2.464496	0.834994	-0.020098
 982	4.9050e-01	0.7781	4.171271	0.000243	2.433034	0.824334	-0.019842
 983	4.9100e-01	0.7010	4.075055	0.000236	2.359624	0.799462	-0.019243
 984	4.9150e-01	0.6802	3.973280	0.000250	2.495958	0.845653	-0.020355
 985	4.9200e-01	0.6401	3.879630	0.000230	2.296700	0.778143	-0.018730
 986	4.9250e-01	0.6224	3.772724	0.000262	2.621804	0.888291	-0.021381
 987	4.9300e-01	0.5647	3.676081	0.000237	2.370111	0.803015	-0.019329
 988	4.9350e-01	0.5342	3.576444	0.000244	2.443521	0.827887	-0.019927
 989	4.9400e-01	0.5053	3.475097	0.000249	2.485470	0.842100	-0.020269
 990	4.9450e-01	0.4524	3.373750	0.000249	2.485470	0.842100	-0.020269
 991	4.9500e-01	0.3898	3.275823	0.000240	2.401573	0.813675	-0.019585
 992	4.9550e-01	0.3497	3.177897	0.000240	2.401573	0.813675	-0.019585
 993	4.9600e-01	0.3561	3.074412	-0.000254	-2.537906	-0.859866	-0.020697
 994	4.9650e-01	0.3064	2.972209	0.000251	2.506445	0.849206	-0.020440
 995	4.9700e-01	0.2487	2.873856	0.000241	2.412060	0.817228	-0.019671
 996	4.9750e-01	0.2182	2.773364	0.000246	2.464496	0.834994	-0.020098
 997	4.9800e-01	0.1396	2.675865	0.000239	2.391085	0.810122	-0.019500
 998	4.9850e-01	0.1492	2.571952	-0.000255	-2.548394	-0.863419	-0.020783
 999	4.9900e-01	0.0754	2.470177	0.000250	2.495958	0.845653	-0.020355
1000	4.9950e-01	0.0369	2.369258	0.000247	2.474983	0.838547	-0.020184
1001	5.0000e-01	0.0610	2.264917	-0.000256	-2.558881	-0.866972	-0.020868
1002	5.0050e-01	-0.0128	2.166563	0.000241	2.412060	0.817228	-0.019671
1003	5.0100e-01	-0.0818	2.063078	0.000254	2.537906	0.859866	-0.020697
1004	5.0150e-01	-0.1283	1.967290	0.000235	2.349136	0.795909	-0.019158
1005	5.0200e-01	-0.1428	1.865088	0.000251	2.506445	0.849206	-0.020440
1006	5.0250e-01	-0.1781	1.761602	0.000254	2.537906	0.859866	-0.020697
1007	5.0300e-01	-0.2342	1.658117	0.000254	2.537906	0.859866	-0.020697
1008	5.0350e-01	-0.2631	1.558908	0.000243	2.433034	0.824334	-0.019842
1009	5.0400e-01	-0.3176	1.459271	0.000244	2.443521	0.827887	-0.019927
1010	5.0450e-01	-0.3513	1.358779	0.000246	2.464496	0.834994	-0.020098
1011	5.0500e-01	-0.3978	1.258715	0.000245	2.454009	0.831441	-0.020013
1012	5.0550e-01	-0.4524	1.155657	0.000253	2.527419	0.856313	-0.020612
1013	5.0600e-01	-0.4668	1.055165	0.000246	2.464496	0.834994	-0.020098
1014	5.0650e-01	-0.5021	0.952963	0.000251	2.506445	0.849206	-0.020440
1015	5.0700e-01	-0.5422	0.847339	0.000259	2.590342	0.877632	-0.021125
1016	5.0750e-01	-0.5743	0.743854	0.000254	2.537906	0.859866	-0.020697
1017	5.0800e-01	-0.6240	0.639514	0.000256	2.558881	0.866972	-0.020868
1018	5.0850e-01	-0.6609	0.537311	0.000251	2.506445	0.849206	-0.020440
1019	5.0900e-01	-0.6914	0.437247	0.000245	2.454009	0.831441	-0.020013
1020	5.0950e-01	-0.7412	0.333334	0.000255	2.548394	0.863419	-0.020783
1021	5.1000e-01	-0.7957	0.224289	0.000267	2.674240	0.906057	-0.021809
1022	5.1050e-01	-0.8085	0.115245	0.000267	2.674240	0.906057	-0.021809
1023	5.1100e-01	-0.8663	0.011760	0.000254	2.537906	0.859866	-0.020697
1024	5.1150e-01	-0.9048	-0.092581	0.000256	2.558881	0.866972	-0.020868
1025	5.1200e-01	-0.9337	-0.193928	0.000249	2.485470	0.842100	-0.020269
1026	5.1250e-01	-0.9802	-0.302545	0.000266	2.663753	0.902504	-0.021723
1027	5.1300e-01	-1.0219	-0.400471	0.000240	2.401573	0.813675	-0.019585
1028	5.1350e-01	-1.0700	-0.506522	0.000260	2.600830	0.881185	-0.021210
1029	5.1400e-01	-1.1149	-0.611290	0.000257	2.569368	0.870525	-0.020954
1030	5.1450e-01	-1.1342	-0.704513	0.000229	2.286213	0.774590	-0.018644
1031	5.1500e-01	-1.1903	-0.808426	0.000255	2.548394	0.863419	-0.020783
1032	5.1550e-01	-1.2401	-0.914049	0.000259	2.590342	0.877632	-0.021125
1033	5.1600e-01	-1.2529	-1.012830	0.000242	2.422547	0.820781	-0.019756
1034	5.1650e-01	-1.2850	-1.113750	0.000247	2.474983	0.838547	-0.020184
1035	5.1700e-01	-1.3492	-1.217663	0.000255	2.548394	0.863419	-0.020783
1036	5.1750e-01	-1.3989	-1.321148	0.000254	2.537906	0.859866	-0.020697
1037	5.1800e-01	-1.4133	-1.426344	0.000258	2.579855	0.874079	-0.021039
1038	5.1850e-01	-1.4566	-1.529829	0.000254	2.537906	0.859866	-0.020697
1039	5.1900e-01	-1.5192	-1.633315	0.000254	2.537906	0.859866	-0.020697
1040	5.1950e-01	-1.5545	-1.734662	0.000249	2.485470	0.842100	-0.020269
1041	5.2000e-01	-1.5513	-1.840285	-0.000259	-2.590342	-0.877632	-0.021125
1042	5.2050e-01	-1.6299	-1.944626	0.000256	2.558881	0.866972	-0.020868
1043	5.2100e-01	-1.6604	-2.043835	0.000243	2.433034	0.824334	-0.019842
1044	5.2150e-01	-1.6812	-2.147748	0.000255	2.548394	0.863419	-0.020783
1045	5.2200e-01	-1.7534	-2.251661	0.000255	2.548394	0.863419	-0.020783
1046	5.2250e-01	-1.7951	-2.351298	0.000244	2.443521	0.827887	-0.019927
1047	5.2300e-01	-1.8368	-2.455211	0.000255	2.548394	0.863419	-0.020783
1048	5.2350e-01	-1.8753	-2.552281	0.000238	2.380598	0.806568	-0.019414
1049	5.2400e-01	-1.9347	-2.654912	0.000252	2.516932	0.852760	-0.020526
1050	5.2450e-01	-1.9379	-2.758824	0.000255	2.548394	0.863419	-0.020783
1051	5.2500e-01	-1.9732	-2.860599	0.000250	2.495958	0.845653	-0.020355
1052	5.2550e-01	-1.9973	-2.963229	0.000252	2.516932	0.852760	-0.020526
1053	5.2600e-01	-2.0759	-3.060300	0.000238	2.380598	0.806568	-0.019414
1054	5.2650e-01	-2.1048	-3.164213	0.000255	2.548394	0.863419	-0.020783
1055	5.2700e-01	-2.1400	-3.269409	0.000258	2.579855	0.874079	-0.021039
1056	5.2750e-01	-2.1785	-3.367763	0.000241	2.412060	0.817228	-0.019671
1057	5.2800e-01	-2.2411	-3.470821	0.000253	2.527419	0.856313	-0.020612
1058	5.2850e-01	-2.2219	-3.573878	-0.000253	-2.527419	-0.856313	-0.020612
1059	5.2900e-01	-2.3069	-3.674370	0.000246	2.464496	0.834994	-0.020098
1060	5.2950e-01	-2.3390	-3.779138	0.000257	2.569368	0.870525	-0.020954
1061	5.3000e-01	-2.4047	-3.881768	0.000252	2.516932	0.852760	-0.020526
1062	5.3050e-01	-2.4256	-3.976701	0.000233	2.328162	0.788803	-0.018987
1063	5.3100e-01	-2.4657	-4.078048	0.000249	2.485470	0.842100	-0.020269
1064	5.3150e-01	-2.4898	-4.181106	0.000253	2.527419	0.856313	-0.020612
1065	5.3200e-01	-2.5604	-4.286302	0.000258	2.579855	0.874079	-0.021039
1066	5.3250e-01	-2.5908	-4.385939	0.000244	2.443521	0.827887	-0.019927
1067	5.3300e-01	-2.6037	-4.487286	0.000249	2.485470	0.842100	-0.020269
1068	5.3350e-01	-2.6646	-4.585640	0.000241	2.412060	0.817228	-0.019671
1069	5.3400e-01	-2.6903	-4.689125	0.000254	2.537906	0.859866	-0.020697
1070	5.3450e-01	-2.7079	-4.786624	0.000239	2.391085	0.810122	-0.019500
1071	5.3500e-01	-2.7753	-4.889681	0.000253	2.527419	0.856313	-0.020612
1072	5.3550e-01	-2.8251	-4.992739	0.000253	2.527419	0.856313	-0.020612
1073	5.3600e-01	-2.8427	-5.090665	0.000240	2.401573	0.813675	-0.019585
1074	5.3650e-01	-2.8844	-5.193295	0.000252	2.516932	0.852760	-0.020526
1075	5.3700e-01	-2.9534	-5.288228	0.000233	2.328162	0.788803	-0.018987
1076	5.3750e-01	-2.9791	-5.393851	0.000259	2.590342	0.877632	-0.021125
1077	5.3800e-01	-3.0192	-5.490495	0.000237	2.370111	0.803015	-0.019329
1078	5.3850e-01	-3.0657	-5.589704	0.000243	2.433034	0.824334	-0.019842
1079	5.3900e-01	-3.0994	-5.688485	0.000242	2.422547	0.820781	-0.019756
1080	5.3950e-01	-3.1603	-5.785984	0.000239	2.391085	0.810122	-0.019500
1081	5.4000e-01	-3.1635	-5.882627	0.000237	2.370111	0.803015	-0.019329
1082	5.4050e-01	-3.2101	-5.986540	0.000255	2.548394	0.863419	-0.020783
1083	5.4100e-01	-3.2678	-6.082756	0.000236	2.359624	0.799462	-0.019243
1084	5.4150e-01	-3.3336	-6.181537	0.000242	2.422547	0.820781	-0.019756
1085	5.4200e-01	-3.3561	-6.281174	0.000244	2.443521	0.827887	-0.019927
1086	5.4250e-01	-3.3673	-6.378245	0.000238	2.380598	0.806568	-0.019414
1087	5.4300e-01	-3.4122	-6.473178	0.000233	2.328162	0.788803	-0.018987
1088	5.4350e-01	-3.4860	-6.574525	0.000249	2.485470	0.842100	-0.020269
1089	5.4400e-01	-3.4924	-6.675872	0.000249	2.485470	0.842100	-0.020269
1090	5.4450e-01	-3.5454	-6.775936	0.000245	2.454009	0.831441	-0.020013
1091	5.4500e-01	-3.5774	-6.875573	0.000244	2.443521	0.827887	-0.019927
1092	5.4550e-01	-3.6544	-6.970078	0.000232	2.317675	0.785249	-0.018901
1093	5.4600e-01	-3.6625	-7.073991	0.000255	2.548394	0.863419	-0.020783
1094	5.4650e-01	-3.6945	-7.169779	0.000235	2.349136	0.795909	-0.019158
1095	5.4700e-01	-3.7523	-7.270271	0.000246	2.464496	0.834994	-0.020098
1096	5.4750e-01	-3.7828	-7.366914	0.000237	2.370111	0.803015	-0.019329
1097	5.4800e-01	-3.7876	-7.463985	0.000238	2.380598	0.806568	-0.019414
1098	5.4850e-01	-3.8614	-7.558063	0.000231	2.307188	0.781696	-0.018816
1099	5.4900e-01	-3.8935	-7.656844	0.000242	2.422547	0.820781	-0.019756
1100	5.4950e-01	-3.9464	-7.750922	0.000231	2.307188	0.781696	-0.018816
1101	5.5000e-01	-3.9641	-7.848420	0.000239	2.391085	0.810122	-0.019500
1102	5.5050e-01	-4.0651	-7.942070	0.000230	2.296700	0.778143	-0.018730
1103	5.5100e-01	-4.0715	-8.036148	0.000231	2.307188	0.781696	-0.018816
1104	5.5150e-01	-4.1036	-8.131081	0.000233	2.328162	0.788803	-0.018987
1105	5.5200e-01	-4.1309	-8.229007	0.000240	2.401573	0.813675	-0.019585
1106	5.5250e-01	-4.1453	-8.323085	0.000231	2.307188	0.781696	-0.018816
1107	5.5300e-01	-4.2239	-8.413741	0.000222	2.223290	0.753271	-0.018131
1108	5.5350e-01	-4.2400	-8.510384	0.000237	2.370111	0.803015	-0.019329
1109	5.5400e-01	-4.3170	-8.603607	0.000229	2.286213	0.774590	-0.018644
1110	5.5450e-01	-4.3780	-8.694691	0.000223	2.233777	0.756824	-0.018217
1111	5.5500e-01	-4.3972	-8.791762	0.000238	2.380598	0.806568	-0.019414
1112	5.5550e-01	-4.4389	-8.887122	0.000234	2.338649	0.792356	-0.019072
1113	5.5600e-01	-4.4678	-8.979489	0.000227	2.265239	0.767484	-0.018473
1114	5.5650e-01	-4.4935	-9.076988	0.000239	2.391085	0.810122	-0.019500
1115	5.5700e-01	-4.5416	-9.171065	0.000231	2.307188	0.781696	-0.018816
1116	5.5750e-01	-4.5993	-9.260439	0.000219	2.191828	0.742612	-0.017875
1117	5.5800e-01	-4.6202	-9.353661	0.000229	2.286213	0.774590	-0.018644
1118	5.5850e-01	-4.6523	-9.450305	0.000237	2.370111	0.803015	-0.019329
1119	5.5900e-01	-4.7132	-9.540961	0.000222	2.223290	0.753271	-0.018131
1120	5.5950e-01	-4.7469	-9.630763	0.000220	2.202315	0.746165	-0.017960
1121	5.6000e-01	-4.7662	-9.732110	0.000249	2.485470	0.842100	-0.020269
1122	5.6050e-01	-4.8319	-9.819773	0.000215	2.149879	0.728399	-0.017533
1123	5.6100e-01	-4.8608	-9.905726	0.000211	2.107930	0.714186	-0.017191
1124	5.6150e-01	-4.8817	-10.004935	0.000243	2.433034	0.824334	-0.019842
1125	5.6200e-01	-4.9635	-10.097729	0.000228	2.275726	0.771037	-0.018559
1126	5.6250e-01	-4.9731	-10.189669	0.000225	2.254752	0.763930	-0.018388
1127	5.6300e-01	-5.0293	-10.286740	0.000238	2.380598	0.806568	-0.019414
1128	5.6350e-01	-5.0678	-10.374403	0.000215	2.149879	0.728399	-0.017533
1129	5.6400e-01	-5.1223	-10.468481	0.000231	2.307188	0.781696	-0.018816
1130	5.6450e-01	-5.1576	-10.556571	0.000216	2.160367	0.731952	-0.017618
1131	5.6500e-01	-5.1897	-10.648938	0.000227	2.265239	0.767484	-0.018473
1132	5.6550e-01	-5.2250	-10.744299	0.000234	2.338649	0.792356	-0.019072
1133	5.6600e-01	-5.2972	-10.832817	0.000217	2.170854	0.735505	-0.017704
1134	5.6650e-01	-5.3244	-10.922619	0.000220	2.202315	0.746165	-0.017960
1135	5.6700e-01	-5.3180	-11.015413	-0.000228	-2.275726	-0.771037	-0.018559
1136	5.6750e-01	-5.3902	-11.105642	0.000221	2.212803	0.749718	-0.018046
1137	5.6800e-01	-5.4271	-11.196726	0.000223	2.233777	0.756824	-0.018217
1138	5.6850e-01	-5.4849	-11.287383	0.000222	2.223290	0.753271	-0.018131
1139	5.6900e-01	-5.5121	-11.377184	0.000220	2.202315	0.746165	-0.017960
1140	5.6950e-01	-5.5410	-11.468696	0.000224	2.244264	0.760377	-0.018302
1141	5.7000e-01	-5.5619	-11.562774	0.000231	2.307188	0.781696	-0.018816
1142	5.7050e-01	-5.6421	-11.649582	0.000213	2.128905	0.721293	-0.017362
1143	5.7100e-01	-5.6581	-11.736817	0.000214	2.139392	0.724846	-0.017447
1144	5.7150e-01	-5.7095	-11.832605	0.000235	2.349136	0.795909	-0.019158
1145	5.7200e-01	-5.7608	-11.918985	0.000212	2.118418	0.717739	-0.017276
1146	5.7250e-01	-5.7704	-12.005793	0.000213	2.128905	0.721293	-0.017362
1147	5.7300e-01	-5.8218	-12.093457	0.000215	2.149879	0.728399	-0.017533
1148	5.7350e-01	-5.8619	-12.183686	0.000221	2.212803	0.749718	-0.018046
1149	5.7400e-01	-5.9116	-12.276480	0.000228	2.275726	0.771037	-0.018559
1150	5.7450e-01	-5.9597	-12.362005	0.000210	2.097443	0.710633	-0.017105
1151	5.7500e-01	-5.9742	-12.453517	0.000224	2.244264	0.760377	-0.018302
1152	5.7550e-01	-6.0046	-12.542035	0.000217	2.170854	0.735505	-0.017704
1153	5.7600e-01	-6.0816	-12.628843	0.000213	2.128905	0.721293	-0.017362
1154	5.7650e-01	-6.1153	-12.715651	0.000213	2.128905	0.721293	-0.017362
1155	5.7700e-01	-6.1282	-12.806736	0.000223	2.233777	0.756824	-0.018217
1156	5.7750e-01	-6.1955	-12.895682	0.000218	2.181341	0.739058	-0.017789
1157	5.7800e-01	-6.2020	-12.981207	0.000210	2.097443	0.710633	-0.017105
1158	5.7850e-01	-6.2581	-13.071863	0.000222	2.223290	0.753271	-0.018131
1159	5.7900e-01	-6.3030	-13.162092	0.000221	2.212803	0.749718	-0.018046
1160	5.7950e-01	-6.3544	-13.244624	0.000202	2.024033	0.685761	-0.016506
1161	5.8000e-01	-6.3865	-13.335708	0.000223	2.233777	0.756824	-0.018217
1162	5.8050e-01	-6.4426	-13.416529	0.000198	1.982084	0.671548	-0.016164
1163	5.8100e-01	-6.4217	-13.508896	-0.000227	-2.265239	-0.767484	-0.018473
1164	5.8150e-01	-6.5180	-13.592283	0.000205	2.045007	0.692867	-0.016677
1165	5.8200e-01	-6.5469	-13.682512	0.000221	2.212803	0.749718	-0.018046
1166	5.8250e-01	-6.5725	-13.769320	0.000213	2.128905	0.721293	-0.017362
1167	5.8300e-01	-6.6335	-13.853562	0.000207	2.065982	0.699974	-0.016848
1168	5.8350e-01	-6.6463	-13.940798	0.000214	2.139392	0.724846	-0.017447
1169	5.8400e-01	-6.6784	-14.031454	0.000222	2.223290	0.753271	-0.018131
1170	5.8450e-01	-6.7410	-14.115269	0.000206	2.055494	0.696420	-0.016763
1171	5.8500e-01	-6.7779	-14.199511	0.000207	2.065982	0.699974	-0.016848
1172	5.8550e-01	-6.7987	-14.289740	0.000221	2.212803	0.749718	-0.018046
1173	5.8600e-01	-6.8725	-14.371844	0.000201	2.013546	0.682208	-0.016421
1174	5.8650e-01	-6.8966	-14.458224	0.000212	2.118418	0.717739	-0.017276
1175	5.8700e-01	-6.9463	-14.548881	0.000222	2.223290	0.753271	-0.018131
1176	5.8750e-01	-6.9929	-14.631413	0.000202	2.024033	0.685761	-0.016506
1177	5.8800e-01	-7.0314	-14.719076	0.000215	2.149879	0.728399	-0.017533
1178	5.8850e-01	-7.0602	-14.802463	0.000205	2.045007	0.692867	-0.016677
1179	5.8900e-01	-7.1148	-14.890126	0.000215	2.149879	0.728399	-0.017533
1180	5.8950e-01	-7.1517	-14.975223	0.000209	2.086956	0.707080	-0.017019
1181	5.9000e-01	-7.1613	-15.061604	0.000212	2.118418	0.717739	-0.017276
1182	5.9050e-01	-7.2383	-15.150122	0.000217	2.170854	0.735505	-0.017704
1183	5.9100e-01	-7.2800	-15.234364	0.000207	2.065982	0.699974	-0.016848
1184	5.9150e-01	-7.2864	-15.321172	0.000213	2.128905	0.721293	-0.017362
1185	5.9200e-01	-7.3490	-15.399000	0.000191	1.908673	0.646676	-0.015566
1186	5.9250e-01	-7.3602	-15.490084	0.000223	2.233777	0.756824	-0.018217
1187	5.9300e-01	-7.4003	-15.573471	0.000205	2.045007	0.692867	-0.016677
1188	5.9350e-01	-7.4645	-15.659424	0.000211	2.107930	0.714186	-0.017191
1189	5.9400e-01	-7.5046	-15.741528	0.000201	2.013546	0.682208	-0.016421
1190	5.9450e-01	-7.5094	-15.824915	0.000205	2.045007	0.692867	-0.016677
1191	5.9500e-01	-7.5832	-15.912578	0.000215	2.149879	0.728399	-0.017533
1192	5.9550e-01	-7.6105	-15.994682	0.000201	2.013546	0.682208	-0.016421
1193	5.9600e-01	-7.6746	-16.081490	0.000213	2.128905	0.721293	-0.017362
1194	5.9650e-01	-7.7276	-16.161028	0.000195	1.950622	0.660889	-0.015908
1195	5.9700e-01	-7.7517	-16.248691	0.000215	2.149879	0.728399	-0.017533
1196	5.9750e-01	-7.7966	-16.329513	0.000198	1.982084	0.671548	-0.016164
1197	5.9800e-01	-7.8094	-16.414610	0.000209	2.086956	0.707080	-0.017019
1198	5.9850e-01	-7.8479	-16.502273	0.000215	2.149879	0.728399	-0.017533
1199	5.9900e-01	-7.9041	-16.585232	0.000203	2.034520	0.689314	-0.016592
1200	5.9950e-01	-7.9554	-16.664343	0.000194	1.940135	0.657336	-0.015822
1201	6.0000e-01	-7.9778	-16.749441	0.000209	2.086956	0.707080	-0.017019
1202	6.0050e-01	-8.0228	-16.833683	0.000207	2.065982	0.699974	-0.016848
1203	6.0100e-01	-8.0404	-16.914932	0.000199	1.992571	0.675101	-0.016250
1204	6.0150e-01	-8.1030	-16.996608	0.000200	2.003058	0.678655	-0.016335
1205	6.0200e-01	-8.1575	-17.082133	0.000210	2.097443	0.710633	-0.017105
1206	6.0250e-01	-8.1816	-17.162527	0.000197	1.971597	0.667995	-0.016079
1207	6.0300e-01	-8.1928	-17.248052	0.000210	2.097443	0.710633	-0.017105
1208	6.0350e-01	-8.2474	-17.331439	0.000205	2.045007	0.692867	-0.016677
1209	6.0400e-01	-8.3115	-17.416536	0.000209	2.086956	0.707080	-0.017019
1210	6.0450e-01	-8.3532	-17.499923	0.000205	2.045007	0.692867	-0.016677
1211	6.0500e-01	-8.3821	-17.587158	0.000214	2.139392	0.724846	-0.017447
1212	6.0550e-01	-8.4351	-17.669263	0.000201	2.013546	0.682208	-0.016421
1213	6.0600e-01	-8.4687	-17.754788	0.000210	2.097443	0.710633	-0.017105
1214	6.0650e-01	-8.5056	-17.833471	0.000193	1.929648	0.653782	-0.015737
1215	6.0700e-01	-8.5425	-17.925410	0.000225	2.254752	0.763930	-0.018388
1216	6.0750e-01	-8.5971	-17.999817	0.000182	1.824776	0.618251	-0.014881
1217	6.0800e-01	-8.6244	-18.080210	0.000197	1.971597	0.667995	-0.016079
1218	6.0850e-01	-8.6757	-18.164880	0.000208	2.076469	0.703527	-0.016934
1219	6.0900e-01	-8.6869	-18.246129	0.000199	1.992571	0.675101	-0.016250
1220	6.0950e-01	-8.7383	-18.327805	0.000200	2.003058	0.678655	-0.016335
1221	6.1000e-01	-8.7816	-18.407344	0.000195	1.950622	0.660889	-0.015908
1222	6.1050e-01	-8.8056	-18.494152	0.000213	2.128905	0.721293	-0.017362
1223	6.1100e-01	-8.8425	-18.574973	0.000198	1.982084	0.671548	-0.016164
1224	6.1150e-01	-8.8955	-18.654511	0.000195	1.950622	0.660889	-0.015908
1225	6.1200e-01	-8.9276	-18.737470	0.000203	2.034520	0.689314	-0.016592
1226	6.1250e-01	-8.9628	-18.820002	0.000202	2.024033	0.685761	-0.016506
1227	6.1300e-01	-9.0302	-18.901251	0.000199	1.992571	0.675101	-0.016250
1228	6.1350e-01	-9.0864	-18.978224	0.000189	1.887699	0.639570	-0.015395
1229	6.1400e-01	-9.1056	-19.059472	0.000199	1.992571	0.675101	-0.016250
1230	6.1450e-01	-9.1425	-19.139866	0.000197	1.971597	0.667995	-0.016079
1231	6.1500e-01	-9.1890	-19.223253	0.000205	2.045007	0.692867	-0.016677
1232	6.1550e-01	-9.2372	-19.303219	0.000196	1.961109	0.664442	-0.015993
1233	6.1600e-01	-9.2340	-19.389599	-0.000212	-2.118418	-0.717739	-0.017276
1234	6.1650e-01	-9.2885	-19.466144	0.000188	1.877212	0.636017	-0.015309
1235	6.1700e-01	-9.3591	-19.543544	0.000190	1.898186	0.643123	-0.015480
1236	6.1750e-01	-9.4008	-19.623938	0.000197	1.971597	0.667995	-0.016079
1237	6.1800e-01	-9.4249	-19.701338	0.000190	1.898186	0.643123	-0.015480
1238	6.1850e-01	-9.4329	-19.783014	0.000200	2.003058	0.678655	-0.016335
1239	6.1900e-01	-9.5259	-19.863835	0.000198	1.982084	0.671548	-0.016164
1240	6.1950e-01	-9.5532	-19.939953	0.000187	1.866725	0.632463	-0.015223
1241	6.2000e-01	-9.5869	-20.020774	0.000198	1.982084	0.671548	-0.016164
1242	6.2050e-01	-9.6446	-20.102450	0.000200	2.003058	0.678655	-0.016335
1243	6.2100e-01	-9.6382	-20.181561	-0.000194	-1.940135	-0.657336	-0.015822
1244	6.2150e-01	-9.6880	-20.261955	0.000197	1.971597	0.667995	-0.016079
1245	6.2200e-01	-9.7602	-20.336789	0.000184	1.835263	0.621804	-0.014967
1246	6.2250e-01	-9.7922	-20.413334	0.000188	1.877212	0.636017	-0.015309
1247	6.2300e-01	-9.8131	-20.493300	0.000196	1.961109	0.664442	-0.015993
1248	6.2350e-01	-9.8628	-20.577542	0.000207	2.065982	0.699974	-0.016848
1249	6.2400e-01	-9.8949	-20.649811	0.000177	1.772340	0.600485	-0.014454
1250	6.2450e-01	-9.9430	-20.729777	0.000196	1.961109	0.664442	-0.015993
1251	6.2500e-01	-10.0088	-20.810170	0.000197	1.971597	0.667995	-0.016079
1252	6.2550e-01	-9.9992	-20.882866	-0.000178	-1.782827	-0.604038	-0.014539
1253	6.2600e-01	-10.0569	-20.966253	0.000205	2.045007	0.692867	-0.016677
1254	6.2650e-01	-10.1051	-21.041515	0.000185	1.845750	0.625357	-0.015052
1255	6.2700e-01	-10.1644	-21.118916	0.000190	1.898186	0.643123	-0.015480
1256	6.2750e-01	-10.1917	-21.200164	0.000199	1.992571	0.675101	-0.016250
1257	6.2800e-01	-10.2478	-21.277137	0.000189	1.887699	0.639570	-0.015395
1258	6.2850e-01	-10.2944	-21.356675	0.000195	1.950622	0.660889	-0.015908
1259	6.2900e-01	-10.3008	-21.437069	0.000197	1.971597	0.667995	-0.016079
1260	6.2950e-01	-10.3617	-21.514897	0.000191	1.908673	0.646676	-0.015566
1261	6.3000e-01	-10.3922	-21.596573	0.000200	2.003058	0.678655	-0.016335
1262	6.3050e-01	-10.4275	-21.671835	0.000185	1.845750	0.625357	-0.015052
1263	6.3100e-01	-10.4628	-21.754794	0.000203	2.034520	0.689314	-0.016592
1264	6.3150e-01	-10.5174	-21.826635	0.000176	1.761852	0.596932	-0.014368
1265	6.3200e-01	-10.5671	-21.912588	0.000211	2.107930	0.714186	-0.017191
1266	6.3250e-01	-10.5831	-21.990416	0.000191	1.908673	0.646676	-0.015566
1267	6.3300e-01	-10.6409	-22.066961	0.000188	1.877212	0.636017	-0.015309
1268	6.3350e-01	-10.6714	-22.148210	0.000199	1.992571	0.675101	-0.016250
1269	6.3400e-01	-10.7018	-22.229031	0.000198	1.982084	0.671548	-0.016164
1270	6.3450e-01	-10.7435	-22.305576	0.000188	1.877212	0.636017	-0.015309
1271	6.3500e-01	-10.7949	-22.385114	0.000195	1.950622	0.660889	-0.015908
1272	6.3550e-01	-10.8542	-22.461231	0.000187	1.866725	0.632463	-0.015223
1273	6.3600e-01	-10.8847	-22.539914	0.000193	1.929648	0.653782	-0.015737
1274	6.3650e-01	-10.9168	-22.618170	0.000192	1.919161	0.650229	-0.015651
1275	6.3700e-01	-10.9441	-22.696425	0.000192	1.919161	0.650229	-0.015651
1276	6.3750e-01	-10.9874	-22.771687	0.000185	1.845750	0.625357	-0.015052
1277	6.3800e-01	-11.0323	-22.846094	0.000182	1.824776	0.618251	-0.014881
1278	6.3850e-01	-11.0596	-22.924777	0.000193	1.929648	0.653782	-0.015737
1279	6.3900e-01	-11.1109	-23.000467	0.000186	1.856237	0.628910	-0.015138
1280	6.3950e-01	-11.1510	-23.074018	0.000180	1.803801	0.611144	-0.014710
1281	6.4000e-01	-11.1783	-23.150563	0.000188	1.877212	0.636017	-0.015309
1282	6.4050e-01	-11.2296	-23.224970	0.000182	1.824776	0.618251	-0.014881
1283	6.4100e-01	-11.2553	-23.307074	0.000201	2.013546	0.682208	-0.016421
1284	6.4150e-01	-11.2633	-23.384902	0.000191	1.908673	0.646676	-0.015566
1285	6.4200e-01	-11.3564	-23.462302	0.000190	1.898186	0.643123	-0.015480
1286	6.4250e-01	-11.3756	-23.546117	0.000206	2.055494	0.696420	-0.016763
1287	6.4300e-01	-11.4286	-23.620951	0.000184	1.835263	0.621804	-0.014967
1288	6.4350e-01	-11.4398	-23.694503	0.000180	1.803801	0.611144	-0.014710
1289	6.4400e-01	-11.4863	-23.774469	0.000196	1.961109	0.664442	-0.015993
1290	6.4450e-01	-11.5665	-23.848020	0.000180	1.803801	0.611144	-0.014710
1291	6.4500e-01	-11.5906	-23.925848	0.000191	1.908673	0.646676	-0.015566
1292	6.4550e-01	-11.6291	-24.001110	0.000185	1.845750	0.625357	-0.015052
1293	6.4600e-01	-11.6724	-24.076372	0.000185	1.845750	0.625357	-0.015052
1294	6.4650e-01	-11.6997	-24.150351	0.000181	1.814288	0.614698	-0.014796
1295	6.4700e-01	-11.7510	-24.229462	0.000194	1.940135	0.657336	-0.015822
1296	6.4750e-01	-11.7719	-24.302586	0.000179	1.793314	0.607591	-0.014625
1297	6.4800e-01	-11.8216	-24.376993	0.000182	1.824776	0.618251	-0.014881
1298	6.4850e-01	-11.8842	-24.452255	0.000185	1.845750	0.625357	-0.015052
1299	6.4900e-01	-11.9018	-24.527517	0.000185	1.845750	0.625357	-0.015052
1300	6.4950e-01	-11.9211	-24.604489	0.000189	1.887699	0.639570	-0.015395
1301	6.5000e-01	-11.9900	-24.681462	0.000189	1.887699	0.639570	-0.015395
1302	6.5050e-01	-12.0221	-24.756724	0.000185	1.845750	0.625357	-0.015052
1303	6.5100e-01	-12.0895	-24.834979	0.000192	1.919161	0.650229	-0.015651
1304	6.5150e-01	-12.0847	-24.909814	-0.000184	-1.835263	-0.621804	-0.014967
1305	6.5200e-01	-12.1473	-24.985931	0.000187	1.866725	0.632463	-0.015223
1306	6.5250e-01	-12.1665	-25.060765	0.000184	1.835263	0.621804	-0.014967
1307	6.5300e-01	-12.2050	-25.137738	0.000189	1.887699	0.639570	-0.015395
1308	6.5350e-01	-12.2628	-25.209151	0.000175	1.751365	0.593379	-0.014283
1309	6.5400e-01	-12.2964	-25.283986	0.000184	1.835263	0.621804	-0.014967
1310	6.5450e-01	-12.3462	-25.355827	0.000176	1.761852	0.596932	-0.014368
1311	6.5500e-01	-12.3734	-25.432799	0.000189	1.887699	0.639570	-0.015395
1312	6.5550e-01	-12.4312	-25.510200	0.000190	1.898186	0.643123	-0.015480
1313	6.5600e-01	-12.4505	-25.588455	0.000192	1.919161	0.650229	-0.015651
1314	6.5650e-01	-12.5146	-25.668421	0.000196	1.961109	0.664442	-0.015993
1315	6.5700e-01	-12.5451	-25.754801	0.000212	2.118418	0.717739	-0.017276
1316	6.5750e-01	-12.5884	-25.837761	0.000203	2.034520	0.689314	-0.016592
1317	6.5800e-01	-12.6285	-25.923713	0.000211	2.107930	0.714186	-0.017191
1318	6.5850e-01	-12.6558	-26.005817	0.000201	2.013546	0.682208	-0.016421
1319	6.5900e-01	-12.7103	-26.090059	0.000207	2.065982	0.699974	-0.016848
1320	6.5950e-01	-12.7248	-26.169170	0.000194	1.940135	0.657336	-0.015822
1321	6.6000e-01	-12.7922	-26.248708	0.000195	1.950622	0.660889	-0.015908
1322	6.6050e-01	-12.8339	-26.330812	0.000201	2.013546	0.682208	-0.016421
1323	6.6100e-01	-12.8483	-26.413344	0.000202	2.024033	0.685761	-0.016506
1324	6.6150e-01	-12.8627	-26.491600	0.000192	1.919161	0.650229	-0.015651
1325	6.6200e-01	-12.9558	-26.571566	0.000196	1.961109	0.664442	-0.015993
1326	6.6250e-01	-12.9847	-26.650676	0.000194	1.940135	0.657336	-0.015822
1327	6.6300e-01	-13.0167	-26.729787	0.000194	1.940135	0.657336	-0.015822
1328	6.6350e-01	-13.0713	-26.808042	0.000192	1.919161	0.650229	-0.015651
1329	6.6400e-01	-13.1034	-26.882021	0.000181	1.814288	0.614698	-0.014796
1330	6.6450e-01	-13.1419	-26.958566	0.000188	1.877212	0.636017	-0.015309
1331	6.6500e-01	-13.1675	-27.037249	0.000193	1.929648	0.653782	-0.015737
1332	6.6550e-01	-13.2365	-27.110801	0.000180	1.803801	0.611144	-0.014710
1333	6.6600e-01	-13.2911	-27.187346	0.000188	1.877212	0.636017	-0.015309
1334	6.6650e-01	-13.2895	-27.260470	-0.000179	-1.793314	-0.607591	-0.014625
1335	6.6700e-01	-13.3504	-27.335732	0.000185	1.845750	0.625357	-0.015052
1336	6.6750e-01	-13.3953	-27.410139	0.000182	1.824776	0.618251	-0.014881
1337	6.6800e-01	-13.4419	-27.483690	0.000180	1.803801	0.611144	-0.014710
1338	6.6850e-01	-13.4884	-27.557669	0.000181	1.814288	0.614698	-0.014796
1339	6.6900e-01	-13.5205	-27.629083	0.000175	1.751365	0.593379	-0.014283
1340	6.6950e-01	-13.5221	-27.707766	0.000193	1.929648	0.653782	-0.015737
1341	6.7000e-01	-13.5927	-27.775758	0.000167	1.667467	0.564953	-0.013598
1342	6.7050e-01	-13.6199	-27.849737	0.000181	1.814288	0.614698	-0.014796
1343	6.7100e-01	-13.6328	-27.927993	0.000192	1.919161	0.650229	-0.015651
1344	6.7150e-01	-13.6953	-28.006676	0.000193	1.929648	0.653782	-0.015737
1345	6.7200e-01	-13.7467	-28.076806	0.000172	1.719903	0.582719	-0.014026
1346	6.7250e-01	-13.7916	-28.154634	0.000191	1.908673	0.646676	-0.015566
1347	6.7300e-01	-13.8429	-28.223054	0.000168	1.677955	0.568506	-0.013684
1348	6.7350e-01	-13.8606	-28.300027	0.000189	1.887699	0.639570	-0.015395
1349	6.7400e-01	-13.9183	-28.373578	0.000180	1.803801	0.611144	-0.014710
1350	6.7450e-01	-13.9648	-28.445847	0.000177	1.772340	0.600485	-0.014454
1351	6.7500e-01	-13.9665	-28.523247	0.000190	1.898186	0.643123	-0.015480
1352	6.7550e-01	-14.0226	-28.590384	0.000165	1.646493	0.557847	-0.013427
1353	6.7600e-01	-14.0515	-28.666502	0.000187	1.866725	0.632463	-0.015223
1354	6.7650e-01	-14.1124	-28.741336	0.000184	1.835263	0.621804	-0.014967
1355	6.7700e-01	-14.1541	-28.809329	0.000167	1.667467	0.564953	-0.013598
1356	6.7750e-01	-14.1574	-28.884163	0.000184	1.835263	0.621804	-0.014967
1357	6.7800e-01	-14.2087	-28.955149	0.000174	1.740878	0.589825	-0.014197
1358	6.7850e-01	-14.2664	-29.023141	0.000167	1.667467	0.564953	-0.013598
1359	6.7900e-01	-14.3130	-29.098831	0.000186	1.856237	0.628910	-0.015138
1360	6.7950e-01	-14.3354	-29.169817	0.000174	1.740878	0.589825	-0.014197
1361	6.8000e-01	-14.4108	-29.239520	0.000171	1.709416	0.579166	-0.013941
1362	6.8050e-01	-14.4108	-29.313499	0.000181	1.814288	0.614698	-0.014796
1363	6.8100e-01	-14.4590	-29.383629	0.000172	1.719903	0.582719	-0.014026
1364	6.8150e-01	-14.4910	-29.460602	0.000189	1.887699	0.639570	-0.015395
1365	6.8200e-01	-14.5231	-29.529022	0.000168	1.677955	0.568506	-0.013684
1366	6.8250e-01	-14.5648	-29.602146	0.000179	1.793314	0.607591	-0.014625
1367	6.8300e-01	-14.6322	-29.673559	0.000175	1.751365	0.593379	-0.014283
1368	6.8350e-01	-14.6659	-29.738558	0.000159	1.594057	0.540081	-0.013000
1369	6.8400e-01	-14.7333	-29.807834	0.000170	1.698929	0.575613	-0.013855
1370	6.8450e-01	-14.7589	-29.880958	0.000179	1.793314	0.607591	-0.014625
1371	6.8500e-01	-14.7766	-29.949805	0.000169	1.688442	0.572060	-0.013770
1372	6.8550e-01	-14.8279	-30.019936	0.000172	1.719903	0.582719	-0.014026
1373	6.8600e-01	-14.8520	-30.092204	0.000177	1.772340	0.600485	-0.014454
1374	6.8650e-01	-14.9097	-30.161052	0.000169	1.688442	0.572060	-0.013770
1375	6.8700e-01	-14.9434	-30.231183	0.000172	1.719903	0.582719	-0.014026
1376	6.8750e-01	-14.9787	-30.303024	0.000176	1.761852	0.596932	-0.014368
1377	6.8800e-01	-15.0252	-30.379569	0.000188	1.877212	0.636017	-0.015309
1378	6.8850e-01	-15.0814	-30.451410	0.000176	1.761852	0.596932	-0.014368
1379	6.8900e-01	-15.1215	-30.520257	0.000169	1.688442	0.572060	-0.013770
1380	6.8950e-01	-15.1520	-30.599796	0.000195	1.950622	0.660889	-0.015908
1381	6.9000e-01	-15.1873	-30.667788	0.000167	1.667467	0.564953	-0.013598
1382	6.9050e-01	-15.2129	-30.739201	0.000175	1.751365	0.593379	-0.014283
1383	6.9100e-01	-15.2755	-30.811470	0.000177	1.772340	0.600485	-0.014454
1384	6.9150e-01	-15.3220	-30.881601	0.000172	1.719903	0.582719	-0.014026
1385	6.9200e-01	-15.3669	-30.954725	0.000179	1.793314	0.607591	-0.014625
1386	6.9250e-01	-15.3894	-31.024427	0.000171	1.709416	0.579166	-0.013941
1387	6.9300e-01	-15.4103	-31.094130	0.000171	1.709416	0.579166	-0.013941
1388	6.9350e-01	-15.4520	-31.168537	0.000182	1.824776	0.618251	-0.014881
1389	6.9400e-01	-15.4921	-31.236957	0.000168	1.677955	0.568506	-0.013684
1390	6.9450e-01	-15.5402	-31.308371	0.000175	1.751365	0.593379	-0.014283
1391	6.9500e-01	-15.6060	-31.381495	0.000179	1.793314	0.607591	-0.014625
1392	6.9550e-01	-15.6252	-31.452908	0.000175	1.751365	0.593379	-0.014283
1393	6.9600e-01	-15.6365	-31.523039	0.000172	1.719903	0.582719	-0.014026
1394	6.9650e-01	-15.6974	-31.586755	0.000156	1.562595	0.529422	-0.012743
1395	6.9700e-01	-15.7439	-31.657313	0.000173	1.730391	0.586272	-0.014112
1396	6.9750e-01	-15.7776	-31.727871	0.000173	1.730391	0.586272	-0.014112
1397	6.9800e-01	-15.8498	-31.803988	0.000187	1.866725	0.632463	-0.015223
1398	6.9850e-01	-15.8915	-31.865994	0.000152	1.520646	0.515209	-0.012401
1399	6.9900e-01	-15.9028	-31.934414	0.000168	1.677955	0.568506	-0.013684
1400	6.9950e-01	-15.9525	-32.006683	0.000177	1.772340	0.600485	-0.014454
1401	7.0000e-01	-15.9589	-32.075958	0.000170	1.698929	0.575613	-0.013855
1402	7.0050e-01	-16.0135	-32.146944	0.000174	1.740878	0.589825	-0.014197
1403	7.0100e-01	-16.0744	-32.209377	0.000153	1.531134	0.518762	-0.012487
1404	7.0150e-01	-16.1049	-32.285922	0.000188	1.877212	0.636017	-0.015309
1405	7.0200e-01	-16.1370	-32.358618	0.000178	1.782827	0.604038	-0.014539
1406	7.0250e-01	-16.1851	-32.426611	0.000167	1.667467	0.564953	-0.013598
1407	7.0300e-01	-16.2268	-32.493320	0.000164	1.636006	0.554294	-0.013342
1408	7.0350e-01	-16.2926	-32.560885	0.000166	1.656980	0.561400	-0.013513
1409	7.0400e-01	-16.2782	-32.627167	-0.000163	-1.625519	-0.550741	-0.013256
1410	7.0450e-01	-16.3439	-32.696442	0.000170	1.698929	0.575613	-0.013855
1411	7.0500e-01	-16.3632	-32.769139	0.000178	1.782827	0.604038	-0.014539
1412	7.0550e-01	-16.4273	-32.838414	0.000170	1.698929	0.575613	-0.013855
1413	7.0600e-01	-16.4642	-32.908544	0.000172	1.719903	0.582719	-0.014026
1414	7.0650e-01	-16.5124	-32.977392	0.000169	1.688442	0.572060	-0.013770
1415	7.0700e-01	-16.5461	-33.058641	0.000199	1.992571	0.675101	-0.016250
1416	7.0750e-01	-16.5974	-33.125778	0.000165	1.646493	0.557847	-0.013427
1417	7.0800e-01	-16.6263	-33.194626	0.000169	1.688442	0.572060	-0.013770
1418	7.0850e-01	-16.6567	-33.267322	0.000178	1.782827	0.604038	-0.014539
1419	7.0900e-01	-16.7177	-33.335742	0.000168	1.677955	0.568506	-0.013684
1420	7.0950e-01	-16.7514	-33.406300	0.000173	1.730391	0.586272	-0.014112
1421	7.1000e-01	-16.7466	-33.478141	-0.000176	-1.761852	-0.596932	-0.014368
1422	7.1050e-01	-16.8043	-33.551265	0.000179	1.793314	0.607591	-0.014625
1423	7.1100e-01	-16.8878	-33.621396	0.000172	1.719903	0.582719	-0.014026
1424	7.1150e-01	-16.8958	-33.691526	0.000172	1.719903	0.582719	-0.014026
1425	7.1200e-01	-16.9182	-33.766788	0.000185	1.845750	0.625357	-0.015052
1426	7.1250e-01	-16.9744	-33.841623	0.000184	1.835263	0.621804	-0.014967
1427	7.1300e-01	-17.0097	-33.916885	0.000185	1.845750	0.625357	-0.015052
1428	7.1350e-01	-17.0690	-33.991719	0.000184	1.835263	0.621804	-0.014967
1429	7.1400e-01	-17.1124	-34.066981	0.000185	1.845750	0.625357	-0.015052
1430	7.1450e-01	-17.1444	-34.138395	0.000175	1.751365	0.593379	-0.014283
1431	7.1500e-01	-17.1733	-34.214940	0.000188	1.877212	0.636017	-0.015309
1432	7.1550e-01	-17.2311	-34.293623	0.000193	1.929648	0.653782	-0.015737
1433	7.1600e-01	-17.2263	-34.369312	-0.000186	-1.856237	-0.628910	-0.015138
1434	7.1650e-01	-17.3033	-34.439015	0.000171	1.709416	0.579166	-0.013941
1435	7.1700e-01	-17.3482	-34.510429	0.000175	1.751365	0.593379	-0.014283
1436	7.1750e-01	-17.3658	-34.580987	0.000173	1.730391	0.586272	-0.014112
1437	7.1800e-01	-17.4476	-34.658815	0.000191	1.908673	0.646676	-0.015566
1438	7.1850e-01	-17.4797	-34.729800	0.000174	1.740878	0.589825	-0.014197
1439	7.1900e-01	-17.5359	-34.801214	0.000175	1.751365	0.593379	-0.014283
1440	7.1950e-01	-17.5663	-34.871772	0.000173	1.730391	0.586272	-0.014112
1441	7.2000e-01	-17.5712	-34.949600	0.000191	1.908673	0.646676	-0.015566
1442	7.2050e-01	-17.6385	-35.018448	0.000169	1.688442	0.572060	-0.013770
1443	7.2100e-01	-17.6819	-35.089433	0.000174	1.740878	0.589825	-0.014197
1444	7.2150e-01	-17.6915	-35.159992	0.000173	1.730391	0.586272	-0.014112
1445	7.2200e-01	-17.7476	-35.233115	0.000179	1.793314	0.607591	-0.014625
1446	7.2250e-01	-17.7845	-35.307950	0.000184	1.835263	0.621804	-0.014967
1447	7.2300e-01	-17.8214	-35.375087	0.000165	1.646493	0.557847	-0.013427
1448	7.2350e-01	-17.8872	-35.447356	0.000177	1.772340	0.600485	-0.014454
1449	7.2400e-01	-17.9225	-35.515776	0.000168	1.677955	0.568506	-0.013684
1450	7.2450e-01	-17.9818	-35.588472	0.000178	1.782827	0.604038	-0.014539
1451	7.2500e-01	-17.9867	-35.659458	0.000174	1.740878	0.589825	-0.014197
1452	7.2550e-01	-17.9979	-35.733009	0.000180	1.803801	0.611144	-0.014710
1453	7.2600e-01	-18.0444	-35.799719	0.000164	1.636006	0.554294	-0.013342
1454	7.2650e-01	-18.1022	-35.867711	0.000167	1.667467	0.564953	-0.013598
1455	7.2700e-01	-18.1856	-35.940835	0.000179	1.793314	0.607591	-0.014625
1456	7.2750e-01	-18.1968	-36.013104	0.000177	1.772340	0.600485	-0.014454
1457	7.2800e-01	-18.2449	-36.085800	0.000178	1.782827	0.604038	-0.014539
1458	7.2850e-01	-18.2706	-36.160207	0.000182	1.824776	0.618251	-0.014881
1459	7.2900e-01	-18.3203	-36.234186	0.000181	1.814288	0.614698	-0.014796
1460	7.2950e-01	-18.3235	-36.306455	0.000177	1.772340	0.600485	-0.014454
1461	7.3000e-01	-18.3749	-36.382145	0.000186	1.856237	0.628910	-0.015138
1462	7.3050e-01	-18.4150	-36.463393	0.000199	1.992571	0.675101	-0.016250
1463	7.3100e-01	-18.4631	-36.542076	0.000193	1.929648	0.653782	-0.015737
1464	7.3150e-01	-18.5064	-36.620332	0.000192	1.919161	0.650229	-0.015651
1465	7.3200e-01	-18.5626	-36.694311	0.000181	1.814288	0.614698	-0.014796
1466	7.3250e-01	-18.5530	-36.771284	-0.000189	-1.887699	-0.639570	-0.015395
1467	7.3300e-01	-18.6251	-36.844835	0.000180	1.803801	0.611144	-0.014710
1468	7.3350e-01	-18.6797	-36.926512	0.000200	2.003058	0.678655	-0.016335
1469	7.3400e-01	-18.7054	-37.005195	0.000193	1.929648	0.653782	-0.015737
1470	7.3450e-01	-18.7294	-37.080457	0.000185	1.845750	0.625357	-0.015052
1471	7.3500e-01	-18.7920	-37.152725	0.000177	1.772340	0.600485	-0.014454
1472	7.3550e-01	-18.8032	-37.225422	0.000178	1.782827	0.604038	-0.014539
1473	7.3600e-01	-18.8545	-37.297690	0.000177	1.772340	0.600485	-0.014454
1474	7.3650e-01	-18.8947	-37.376373	0.000193	1.929648	0.653782	-0.015737
1475	7.3700e-01	-18.9428	-37.447359	0.000174	1.740878	0.589825	-0.014197
1476	7.3750e-01	-18.9941	-37.523904	0.000188	1.877212	0.636017	-0.015309
1477	7.3800e-01	-19.0374	-37.600021	0.000187	1.866725	0.632463	-0.015223
1478	7.3850e-01	-19.1000	-37.674001	0.000181	1.814288	0.614698	-0.014796
1479	7.3900e-01	-19.1160	-37.749263	0.000185	1.845750	0.625357	-0.015052
1480	7.3950e-01	-19.1369	-37.832222	0.000203	2.034520	0.689314	-0.016592
1481	7.4000e-01	-19.2027	-37.904918	0.000178	1.782827	0.604038	-0.014539
1482	7.4050e-01	-19.2139	-37.985312	0.000197	1.971597	0.667995	-0.016079
1483	7.4100e-01	-19.2861	-38.063140	0.000191	1.908673	0.646676	-0.015566
1484	7.4150e-01	-19.3037	-38.140967	0.000191	1.908673	0.646676	-0.015566
1485	7.4200e-01	-19.2957	-38.218795	-0.000191	-1.908673	-0.646676	-0.015566
1486	7.4250e-01	-19.3872	-38.296195	0.000190	1.898186	0.643123	-0.015480
1487	7.4300e-01	-19.4080	-38.368464	0.000177	1.772340	0.600485	-0.014454
1488	7.4350e-01	-19.4385	-38.450568	0.000201	2.013546	0.682208	-0.016421
1489	7.4400e-01	-19.5155	-38.525830	0.000185	1.845750	0.625357	-0.015052
1490	7.4450e-01	-19.5380	-38.607506	0.000200	2.003058	0.678655	-0.016335
1491	7.4500e-01	-19.6005	-38.677637	0.000172	1.719903	0.582719	-0.014026
1492	7.4550e-01	-19.6278	-38.760596	0.000203	2.034520	0.689314	-0.016592
1493	7.4600e-01	-19.6647	-38.836286	0.000186	1.856237	0.628910	-0.015138
1494	7.4650e-01	-19.6984	-38.916680	0.000197	1.971597	0.667995	-0.016079
1495	7.4700e-01	-19.7337	-38.996645	0.000196	1.961109	0.664442	-0.015993
1496	7.4750e-01	-19.7818	-39.068487	0.000176	1.761852	0.596932	-0.014368
1497	7.4800e-01	-19.8428	-39.148025	0.000195	1.950622	0.660889	-0.015908
1498	7.4850e-01	-19.8813	-39.228418	0.000197	1.971597	0.667995	-0.016079
1499	7.4900e-01	-19.9214	-39.302825	0.000182	1.824776	0.618251	-0.014881
1500	7.4950e-01	-19.9502	-39.379798	0.000189	1.887699	0.639570	-0.015395
1501	7.5000e-01	-19.9743	-39.454632	0.000184	1.835263	0.621804	-0.014967
1502	7.5050e-01	-19.9438	-39.532460	-0.000191	-1.908673	-0.646676	-0.015566
1503	7.5100e-01	-19.8716	-39.582920	-0.000124	-1.237492	-0.419273	-0.010092
1504	7.5150e-01	-19.8267	-39.629531	-0.000114	-1.143107	-0.387295	-0.009322
1505	7.5200e-01	-19.8091	-39.661603	-0.000079	-0.786541	-0.266487	-0.006414
1506	7.5250e-01	-19.7706	-39.681701	-0.000049	-0.492899	-0.166999	-0.004020
1507	7.5300e-01	-19.7128	-39.693247	-0.000028	-0.283155	-0.095935	-0.002309
1508	7.5350e-01	-19.6936	-39.701800	-0.000021	-0.209744	-0.071063	-0.001711
1509	7.5400e-01	-19.6358	-39.703082	-0.000003	-0.031462	-0.010659	-0.000257
1510	7.5450e-01	-19.5829	-39.695813	0.000018	0.178283	0.060404	0.001454
1511	7.5500e-01	-19.5556	-39.684267	0.000028	0.283155	0.095935	0.002309
1512	7.5550e-01	-19.5219	-39.667590	0.000041	0.409001	0.138573	0.003335
1513	7.5600e-01	-19.4882	-39.651340	0.000040	0.398514	0.135020	0.003250
1514	7.5650e-01	-19.4529	-39.631669	0.000048	0.482412	0.163446	0.003934
1515	7.5700e-01	-19.4016	-39.604301	0.000067	0.671182	0.227403	0.005474
1516	7.5750e-01	-19.3390	-39.578216	0.000064	0.639720	0.216743	0.005217
1517	7.5800e-01	-19.3230	-39.546999	0.000077	0.765567	0.259381	0.006243
1518	7.5850e-01	-19.3342	-39.512789	-0.000084	-0.838977	-0.284253	0.006842
1519	7.5900e-01	-19.2251	-39.476013	0.000090	0.901901	0.305572	0.007355
1520	7.5950e-01	-19.1882	-39.449501	0.000065	0.650207	0.220296	0.005303
1521	7.6000e-01	-19.1305	-39.402462	0.000115	1.153594	0.390848	0.009408
1522	7.6050e-01	-19.1225	-39.361410	0.000101	1.006773	0.341104	0.008210
1523	7.6100e-01	-19.0695	-39.324634	0.000090	0.901901	0.305572	0.007355
1524	7.6150e-01	-19.0342	-39.282299	0.000104	1.038234	0.351763	0.008467
1525	7.6200e-01	-18.9925	-39.235688	0.000114	1.143107	0.387295	0.009322
1526	7.6250e-01	-18.9316	-39.193781	0.000103	1.027747	0.348210	0.008381
1527	7.6300e-01	-18.9251	-39.151446	0.000104	1.038234	0.351763	0.008467
1528	7.6350e-01	-18.8834	-39.105262	0.000113	1.132619	0.383742	0.009237
1529	7.6400e-01	-18.8305	-39.057368	0.000117	1.174568	0.397954	0.009579
1530	7.6450e-01	-18.8096	-39.010329	0.000115	1.153594	0.390848	0.009408
1531	7.6500e-01	-18.7599	-38.963718	0.000114	1.143107	0.387295	0.009322
1532	7.6550e-01	-18.7118	-38.920956	0.000105	1.048722	0.355317	0.008553
1533	7.6600e-01	-18.6733	-38.868786	0.000128	1.279440	0.433486	0.010434
1534	7.6650e-01	-18.6235	-38.824312	0.000109	1.090671	0.369529	0.008895
1535	7.6700e-01	-18.6171	-38.773425	0.000125	1.247979	0.422827	0.010177
1536	7.6750e-01	-18.5706	-38.725103	0.000119	1.185055	0.401508	0.009664
1537	7.6800e-01	-18.5209	-38.672078	0.000130	1.300415	0.440592	0.010605
1538	7.6850e-01	-18.4663	-38.622046	0.000123	1.227004	0.415720	0.010006
1539	7.6900e-01	-18.4567	-38.571158	0.000125	1.247979	0.422827	0.010177
1540	7.6950e-01	-18.3861	-38.514284	0.000139	1.394800	0.472571	0.011375
1541	7.7000e-01	-18.3364	-38.464252	0.000123	1.227004	0.415720	0.010006
1542	7.7050e-01	-18.3252	-38.406523	0.000142	1.415774	0.479677	0.011546
1543	7.7100e-01	-18.2883	-38.353497	0.000130	1.300415	0.440592	0.010605
1544	7.7150e-01	-18.2449	-38.295340	0.000143	1.426261	0.483230	0.011631
1545	7.7200e-01	-18.2161	-38.237183	0.000143	1.426261	0.483230	0.011631
1546	7.7250e-01	-18.1567	-38.187578	0.000122	1.216517	0.412167	0.009921
1547	7.7300e-01	-18.1294	-38.130277	0.000141	1.405287	0.476124	0.011460
1548	7.7350e-01	-18.0637	-38.075968	0.000133	1.331876	0.451252	0.010862
1549	7.7400e-01	-18.0316	-38.021232	0.000134	1.342364	0.454805	0.010947
1550	7.7450e-01	-17.9834	-37.963930	0.000141	1.405287	0.476124	0.011460
1551	7.7500e-01	-17.9546	-37.903635	0.000148	1.478698	0.500996	0.012059
1552	7.7550e-01	-17.9081	-37.853603	0.000123	1.227004	0.415720	0.010006
1553	7.7600e-01	-17.8599	-37.794591	0.000145	1.447236	0.490337	0.011802
1554	7.7650e-01	-17.8487	-37.741993	0.000129	1.289928	0.437039	0.010520
1555	7.7700e-01	-17.7925	-37.684691	0.000141	1.405287	0.476124	0.011460
1556	7.7750e-01	-17.7749	-37.632948	0.000127	1.268953	0.429933	0.010349
1557	7.7800e-01	-17.7300	-37.580778	0.000128	1.279440	0.433486	0.010434
1558	7.7850e-01	-17.6899	-37.529463	0.000126	1.258466	0.426380	0.010263
1559	7.7900e-01	-17.6626	-37.470023	0.000146	1.457723	0.493890	0.011888
1560	7.7950e-01	-17.5952	-37.417853	0.000128	1.279440	0.433486	0.010434
1561	7.8000e-01	-17.5471	-37.363117	0.000134	1.342364	0.454805	0.010947
1562	7.8050e-01	-17.5198	-37.303249	0.000147	1.468210	0.497443	0.011974
1563	7.8100e-01	-17.4845	-37.248513	0.000134	1.342364	0.454805	0.010947
1564	7.8150e-01	-17.4460	-37.194205	0.000133	1.331876	0.451252	0.010862
1565	7.8200e-01	-17.4139	-37.136903	0.000141	1.405287	0.476124	0.011460
1566	7.8250e-01	-17.3530	-37.080884	0.000137	1.373825	0.465465	0.011204
1567	7.8300e-01	-17.3097	-37.025721	0.000135	1.352851	0.458358	0.011033
1568	7.8350e-01	-17.2631	-36.966281	0.000146	1.457723	0.493890	0.011888
1569	7.8400e-01	-17.1990	-36.911972	0.000133	1.331876	0.451252	0.010862
1570	7.8450e-01	-17.2054	-36.851249	-0.000149	-1.489185	-0.504549	0.012145
1571	7.8500e-01	-17.1541	-36.795231	0.000137	1.373825	0.465465	0.011204
1572	7.8550e-01	-17.1107	-36.738784	0.000138	1.384313	0.469018	0.011289
1573	7.8600e-01	-17.0771	-36.681910	0.000139	1.394800	0.472571	0.011375
1574	7.8650e-01	-17.0498	-36.622042	0.000147	1.468210	0.497443	0.011974
1575	7.8700e-01	-16.9680	-36.568589	0.000131	1.310902	0.444146	0.010691
1576	7.8750e-01	-16.9359	-36.509149	0.000146	1.457723	0.493890	0.011888
1577	7.8800e-01	-16.9166	-36.449282	0.000147	1.468210	0.497443	0.011974
1578	7.8850e-01	-16.8781	-36.389842	0.000146	1.457723	0.493890	0.011888
1579	7.8900e-01	-16.8300	-36.331257	0.000144	1.436749	0.486784	0.011717
1580	7.8950e-01	-16.7931	-36.273528	0.000142	1.415774	0.479677	0.011546
1581	7.9000e-01	-16.7819	-36.215798	0.000142	1.415774	0.479677	0.011546
1582	7.9050e-01	-16.7129	-36.157214	0.000144	1.436749	0.486784	0.011717
1583	7.9100e-01	-16.6840	-36.097774	0.000146	1.457723	0.493890	0.011888
1584	7.9150e-01	-16.6215	-36.043038	0.000134	1.342364	0.454805	0.010947
1585	7.9200e-01	-16.5878	-35.987446	0.000136	1.363338	0.461911	0.011118
1586	7.9250e-01	-16.5493	-35.929717	0.000142	1.415774	0.479677	0.011546
1587	7.9300e-01	-16.5348	-35.868567	0.000150	1.499672	0.508103	0.012230
1588	7.9350e-01	-16.4979	-35.808271	0.000148	1.478698	0.500996	0.012059
1589	7.9400e-01	-16.4354	-35.749687	0.000144	1.436749	0.486784	0.011717
1590	7.9450e-01	-16.4017	-35.694951	0.000134	1.342364	0.454805	0.010947
1591	7.9500e-01	-16.3471	-35.632517	0.000153	1.531134	0.518762	0.012487
1592	7.9550e-01	-16.3102	-35.578209	0.000133	1.331876	0.451252	0.010862
1593	7.9600e-01	-16.2958	-35.514920	0.000155	1.552108	0.525868	0.012658
1594	7.9650e-01	-16.2445	-35.456763	0.000143	1.426261	0.483230	0.011631
1595	7.9700e-01	-16.2156	-35.397751	0.000145	1.447236	0.490337	0.011802
1596	7.9750e-01	-16.1675	-35.337028	0.000149	1.489185	0.504549	0.012145
1597	7.9800e-01	-16.1081	-35.278871	0.000143	1.426261	0.483230	0.011631
1598	7.9850e-01	-16.0792	-35.219004	0.000147	1.468210	0.497443	0.011974
1599	7.9900e-01	-16.0455	-35.157853	0.000150	1.499672	0.508103	0.012230
1600	7.9950e-01	-16.0022	-35.099269	0.000144	1.436749	0.486784	0.011717
1601	8.0000e-01	-15.9509	-35.037263	0.000152	1.520646	0.515209	0.012401
1602	8.0050e-01	-15.9268	-34.980389	0.000139	1.394800	0.472571	0.011375
1603	8.0100e-01	-15.8771	-34.921804	0.000144	1.436749	0.486784	0.011717
1604	8.0150e-01	-15.8418	-34.861509	0.000148	1.478698	0.500996	0.012059
1605	8.0200e-01	-15.7808	-34.803780	0.000142	1.415774	0.479677	0.011546
1606	8.0250e-01	-15.7696	-34.743485	0.000148	1.478698	0.500996	0.012059
1607	8.0300e-01	-15.7054	-34.684472	0.000145	1.447236	0.490337	0.011802
1608	8.0350e-01	-15.6766	-34.626315	0.000143	1.426261	0.483230	0.011631
1609	8.0400e-01	-15.6557	-34.565165	0.000150	1.499672	0.508103	0.012230
1610	8.0450e-01	-15.5707	-34.505297	0.000147	1.468210	0.497443	0.011974
1611	8.0500e-01	-15.5290	-34.448851	0.000138	1.384313	0.469018	0.011289
1612	8.0550e-01	-15.5129	-34.382569	0.000163	1.625519	0.550741	0.013256
1613	8.0600e-01	-15.4744	-34.321846	0.000149	1.489185	0.504549	0.012145
1614	8.0650e-01	-15.4199	-34.263689	0.000143	1.426261	0.483230	0.011631
1615	8.0700e-01	-15.3782	-34.203394	0.000148	1.478698	0.500996	0.012059
1616	8.0750e-01	-15.3573	-34.146092	0.000141	1.405287	0.476124	0.011460
1617	8.0800e-01	-15.3317	-34.086652	0.000146	1.457723	0.493890	0.011888
1618	8.0850e-01	-15.2819	-34.022508	0.000157	1.573082	0.532975	0.012829
1619	8.0900e-01	-15.1985	-33.966917	0.000136	1.363338	0.461911	0.011118
1620	8.0950e-01	-15.2097	-33.901490	-0.000160	-1.604544	-0.543634	0.013085
1621	8.1000e-01	-15.1295	-33.842050	0.000146	1.457723	0.493890	0.011888
1622	8.1050e-01	-15.0990	-33.786459	0.000136	1.363338	0.461911	0.011118
1623	8.1100e-01	-15.0958	-33.724026	0.000153	1.531134	0.518762	0.012487
1624	8.1150e-01	-15.0605	-33.661593	0.000153	1.531134	0.518762	0.012487
1625	8.1200e-01	-15.0204	-33.595738	0.000162	1.615031	0.547187	0.013171
1626	8.1250e-01	-14.9498	-33.532450	0.000155	1.552108	0.525868	0.012658
1627	8.1300e-01	-14.9017	-33.469161	0.000155	1.552108	0.525868	0.012658
1628	8.1350e-01	-14.8375	-33.404590	0.000158	1.583570	0.536528	0.012914
1629	8.1400e-01	-14.8311	-33.337453	0.000165	1.646493	0.557847	0.013427
1630	8.1450e-01	-14.8135	-33.275447	0.000152	1.520646	0.515209	0.012401
1631	8.1500e-01	-14.7397	-33.215152	0.000148	1.478698	0.500996	0.012059
1632	8.1550e-01	-14.7285	-33.151436	0.000156	1.562595	0.529422	0.012743
1633	8.1600e-01	-14.6595	-33.087719	0.000156	1.562595	0.529422	0.012743
1634	8.1650e-01	-14.6386	-33.025286	0.000153	1.531134	0.518762	0.012487
1635	8.1700e-01	-14.5985	-32.962853	0.000153	1.531134	0.518762	0.012487
1636	8.1750e-01	-14.5841	-32.896999	0.000162	1.615031	0.547187	0.013171
1637	8.1800e-01	-14.5215	-32.836276	0.000149	1.489185	0.504549	0.012145
1638	8.1850e-01	-14.4958	-32.772560	0.000156	1.562595	0.529422	0.012743
1639	8.1900e-01	-14.4557	-32.710982	0.000151	1.510159	0.511656	0.012316
1640	8.1950e-01	-14.4012	-32.654107	0.000139	1.394800	0.472571	0.011375
1641	8.2000e-01	-14.3691	-32.587398	0.000164	1.636006	0.554294	0.013342
1642	8.2050e-01	-14.3130	-32.526247	0.000150	1.499672	0.508103	0.012230
1643	8.2100e-01	-14.2520	-32.462531	0.000156	1.562595	0.529422	0.012743
1644	8.2150e-01	-14.1926	-32.402664	0.000147	1.468210	0.497443	0.011974
1645	8.2200e-01	-14.1862	-32.337665	0.000159	1.594057	0.540081	0.013000
1646	8.2250e-01	-14.1461	-32.270100	0.000166	1.656980	0.561400	0.013513
1647	8.2300e-01	-14.0852	-32.210232	0.000147	1.468210	0.497443	0.011974
1648	8.2350e-01	-14.0723	-32.145233	0.000159	1.594057	0.540081	0.013000
1649	8.2400e-01	-14.0146	-32.078096	0.000165	1.646493	0.557847	0.013427
1650	8.2450e-01	-13.9777	-32.020794	0.000141	1.405287	0.476124	0.011460
1651	8.2500e-01	-13.9841	-31.951519	-0.000170	-1.698929	-0.575613	0.013855
1652	8.2550e-01	-13.9312	-31.886948	0.000158	1.583570	0.536528	0.012914
1653	8.2600e-01	-13.9023	-31.826653	0.000148	1.478698	0.500996	0.012059
1654	8.2650e-01	-13.8269	-31.759088	0.000166	1.656980	0.561400	0.013513
1655	8.2700e-01	-13.7788	-31.697510	0.000151	1.510159	0.511656	0.012316
1656	8.2750e-01	-13.7435	-31.629517	0.000167	1.667467	0.564953	0.013598
1657	8.2800e-01	-13.7114	-31.568794	0.000149	1.489185	0.504549	0.012145
1658	8.2850e-01	-13.6793	-31.503368	0.000160	1.604544	0.543634	0.013085
1659	8.2900e-01	-13.6665	-31.441362	0.000152	1.520646	0.515209	0.012401
1660	8.2950e-01	-13.5830	-31.376791	0.000158	1.583570	0.536528	0.012914
1661	8.3000e-01	-13.5927	-31.312219	-0.000158	-1.583570	-0.536528	0.012914
1662	8.3050e-01	-13.4756	-31.256200	0.000137	1.373825	0.465465	0.011204
1663	8.3100e-01	-13.4707	-31.185215	0.000174	1.740878	0.589825	0.014197
1664	8.3150e-01	-13.4515	-31.122354	0.000154	1.541621	0.522315	0.012572
1665	8.3200e-01	-13.3745	-31.056499	0.000162	1.615031	0.547187	0.013171
1666	8.3250e-01	-13.3601	-30.997059	0.000146	1.457723	0.493890	0.011888
1667	8.3300e-01	-13.3392	-30.931205	0.000162	1.615031	0.547187	0.013171
1668	8.3350e-01	-13.2895	-30.867917	0.000155	1.552108	0.525868	0.012658
1669	8.3400e-01	-13.2718	-30.804200	0.000156	1.562595	0.529422	0.012743
1670	8.3450e-01	-13.2093	-30.749464	0.000134	1.342364	0.454805	0.010947
1671	8.3500e-01	-13.1194	-30.684465	0.000159	1.594057	0.540081	0.013000
1672	8.3550e-01	-13.0905	-30.622460	0.000152	1.520646	0.515209	0.012401
1673	8.3600e-01	-13.0649	-30.557888	0.000158	1.583570	0.536528	0.012914
1674	8.3650e-01	-13.0440	-30.490751	0.000165	1.646493	0.557847	0.013427
1675	8.3700e-01	-12.9975	-30.430028	0.000149	1.489185	0.504549	0.012145
1676	8.3750e-01	-12.9718	-30.365885	0.000157	1.573082	0.532975	0.012829
1677	8.3800e-01	-12.9285	-30.302168	0.000156	1.562595	0.529422	0.012743
1678	8.3850e-01	-12.8916	-30.240163	0.000152	1.520646	0.515209	0.012401
1679	8.3900e-01	-12.9012	-30.173881	-0.000163	-1.625519	-0.550741	0.013256
1680	8.3950e-01	-12.7569	-30.108454	0.000160	1.604544	0.543634	0.013085
1681	8.4000e-01	-12.7537	-30.040889	0.000166	1.656980	0.561400	0.013513
1682	8.4050e-01	-12.7168	-29.979311	0.000151	1.510159	0.511656	0.012316
1683	8.4100e-01	-12.6734	-29.914740	0.000158	1.583570	0.536528	0.012914
1684	8.4150e-01	-12.6333	-29.850596	0.000157	1.573082	0.532975	0.012829
1685	8.4200e-01	-12.5868	-29.785169	0.000160	1.604544	0.543634	0.013085
1686	8.4250e-01	-12.5756	-29.721026	0.000157	1.573082	0.532975	0.012829
1687	8.4300e-01	-12.5082	-29.655599	0.000160	1.604544	0.543634	0.013085
1688	8.4350e-01	-12.4970	-29.592310	0.000155	1.552108	0.525868	0.012658
1689	8.4400e-01	-12.4408	-29.526029	0.000163	1.625519	0.550741	0.013256
1690	8.4450e-01	-12.4136	-29.459747	0.000163	1.625519	0.550741	0.013256
1691	8.4500e-01	-12.3670	-29.396886	0.000154	1.541621	0.522315	0.012572
1692	8.4550e-01	-12.2868	-29.336163	0.000149	1.489185	0.504549	0.012145
1693	8.4600e-01	-12.2948	-29.269881	-0.000163	-1.625519	-0.550741	0.013256
1694	8.4650e-01	-12.2612	-29.202744	0.000165	1.646493	0.557847	0.013427
1695	8.4700e-01	-12.2243	-29.138600	0.000157	1.573082	0.532975	0.012829
1696	8.4750e-01	-12.1440	-29.067187	0.000175	1.751365	0.593379	0.014283
1697	8.4800e-01	-12.1104	-29.000049	0.000165	1.646493	0.557847	0.013427
1698	8.4850e-01	-12.0654	-28.925215	0.000184	1.835263	0.621804	0.014967
1699	8.4900e-01	-12.0542	-28.853802	0.000175	1.751365	0.593379	0.014283
1700	8.4950e-01	-12.0061	-28.787092	0.000164	1.636006	0.554294	0.013342
1701	8.5000e-01	-11.9291	-28.717389	0.000171	1.709416	0.579166	0.013941
1702	8.5050e-01	-11.9050	-28.648114	0.000170	1.698929	0.575613	0.013855
1703	8.5100e-01	-11.8954	-28.581404	0.000164	1.636006	0.554294	0.013342
1704	8.5150e-01	-11.8473	-28.512984	0.000168	1.677955	0.568506	0.013684
1705	8.5200e-01	-11.7863	-28.441998	0.000174	1.740878	0.589825	0.014197
1706	8.5250e-01	-11.7735	-28.372723	0.000170	1.698929	0.575613	0.013855
1707	8.5300e-01	-11.7109	-28.309862	0.000154	1.541621	0.522315	0.012572
1708	8.5350e-01	-11.6997	-28.240587	0.000170	1.698929	0.575613	0.013855
1709	8.5400e-01	-11.6323	-28.173022	0.000166	1.656980	0.561400	0.013513
1710	8.5450e-01	-11.5713	-28.105457	0.000166	1.656980	0.561400	0.013513
1711	8.5500e-01	-11.5938	-28.034472	-0.000174	-1.740878	-0.589825	0.014197
1712	8.5550e-01	-11.4991	-27.969900	0.000158	1.583570	0.536528	0.012914
1713	8.5600e-01	-11.4735	-27.902335	0.000166	1.656980	0.561400	0.013513
1714	8.5650e-01	-11.4318	-27.836481	0.000162	1.615031	0.547187	0.013171
1715	8.5700e-01	-11.3772	-27.765923	0.000173	1.730391	0.586272	0.014112
1716	8.5750e-01	-11.3628	-27.696648	0.000170	1.698929	0.575613	0.013855
1717	8.5800e-01	-11.3355	-27.633787	0.000154	1.541621	0.522315	0.012572
1718	8.5850e-01	-11.2633	-27.567505	0.000163	1.625519	0.550741	0.013256
1719	8.5900e-01	-11.2473	-27.500368	0.000165	1.646493	0.557847	0.013427
1720	8.5950e-01	-11.2168	-27.437934	0.000153	1.531134	0.518762	0.012487
1721	8.6000e-01	-11.1558	-27.370797	0.000165	1.646493	0.557847	0.013427
1722	8.6050e-01	-11.1157	-27.301949	0.000169	1.688442	0.572060	0.013770
1723	8.6100e-01	-11.0820	-27.234812	0.000165	1.646493	0.557847	0.013427
1724	8.6150e-01	-11.0082	-27.164682	0.000172	1.719903	0.582719	0.014026
1725	8.6200e-01	-11.0082	-27.097117	-0.000166	-1.656980	-0.561400	0.013513
1726	8.6250e-01	-10.9473	-27.030407	0.000164	1.636006	0.554294	0.013342
1727	8.6300e-01	-10.9152	-26.961132	0.000170	1.698929	0.575613	0.013855
1728	8.6350e-01	-10.8703	-26.889291	0.000176	1.761852	0.596932	0.014368
1729	8.6400e-01	-10.8510	-26.820016	0.000170	1.698929	0.575613	0.013855
1730	8.6450e-01	-10.7885	-26.750740	0.000170	1.698929	0.575613	0.013855
1731	8.6500e-01	-10.7596	-26.682320	0.000168	1.677955	0.568506	0.013684
1732	8.6550e-01	-10.7050	-26.610479	0.000176	1.761852	0.596932	0.014368
1733	8.6600e-01	-10.6826	-26.541204	0.000170	1.698929	0.575613	0.013855
1734	8.6650e-01	-10.6553	-26.472356	0.000169	1.688442	0.572060	0.013770
1735	8.6700e-01	-10.5960	-26.403081	0.000170	1.698929	0.575613	0.013855
1736	8.6750e-01	-10.5559	-26.332095	0.000174	1.740878	0.589825	0.014197
1737	8.6800e-01	-10.5174	-26.264958	0.000165	1.646493	0.557847	0.013427
1738	8.6850e-01	-10.4580	-26.198249	0.000164	1.636006	0.554294	0.013342
1739	8.6900e-01	-10.4355	-26.126408	0.000176	1.761852	0.596932	0.014368
1740	8.6950e-01	-10.3970	-26.060126	0.000163	1.625519	0.550741	0.013256
1741	8.7000e-01	-10.3409	-25.990850	0.000170	1.698929	0.575613	0.013855
1742	8.7050e-01	-10.3345	-25.927562	0.000155	1.552108	0.525868	0.012658
1743	8.7100e-01	-10.2799	-25.858287	0.000170	1.698929	0.575613	0.013855
1744	8.7150e-01	-10.2543	-25.786018	0.000177	1.772340	0.600485	0.014454
1745	8.7200e-01	-10.1789	-25.719736	0.000163	1.625519	0.550741	0.013256
1746	8.7250e-01	-10.1388	-25.647467	0.000177	1.772340	0.600485	0.014454
1747	8.7300e-01	-10.1323	-25.576054	0.000175	1.751365	0.593379	0.014283
1748	8.7350e-01	-10.0730	-25.506351	0.000171	1.709416	0.579166	0.013941
1749	8.7400e-01	-10.0409	-25.439214	0.000165	1.646493	0.557847	0.013427
1750	8.7450e-01	-10.0265	-25.373359	0.000162	1.615031	0.547187	0.013171
1751	8.7500e-01	-9.9286	-25.301518	0.000176	1.761852	0.596932	0.014368
1752	8.7550e-01	-9.9270	-25.227112	0.000182	1.824776	0.618251	0.014881
1753	8.7600e-01	-9.8853	-25.153560	0.000180	1.803801	0.611144	0.014710
1754	8.7650e-01	-9.8163	-25.085995	0.000166	1.656980	0.561400	0.013513
1755	8.7700e-01	-9.7858	-25.014154	0.000176	1.761852	0.596932	0.014368
1756	8.7750e-01	-9.7473	-24.937609	0.000188	1.877212	0.636017	0.015309
1757	8.7800e-01	-9.7393	-24.868762	0.000169	1.688442	0.572060	0.013770
1758	8.7850e-01	-9.6479	-24.802480	0.000163	1.625519	0.550741	0.013256
1759	8.7900e-01	-9.6238	-24.731922	0.000173	1.730391	0.586272	0.014112
1760	8.7950e-01	-9.6013	-24.655804	0.000187	1.866725	0.632463	0.015223
1761	8.8000e-01	-9.5692	-24.586529	0.000170	1.698929	0.575613	0.013855
1762	8.8050e-01	-9.5275	-24.521958	0.000158	1.583570	0.536528	0.012914
1763	8.8100e-01	-9.4698	-24.455248	0.000164	1.636006	0.554294	0.013342
1764	8.8150e-01	-9.4168	-24.385973	0.000170	1.698929	0.575613	0.013855
1765	8.8200e-01	-9.3848	-24.312421	0.000180	1.803801	0.611144	0.014710
1766	8.8250e-01	-9.3575	-24.239725	0.000178	1.782827	0.604038	0.014539
1767	8.8300e-01	-9.3398	-24.168739	0.000174	1.740878	0.589825	0.014197
1768	8.8350e-01	-9.2757	-24.102457	0.000163	1.625519	0.550741	0.013256
1769	8.8400e-01	-9.2548	-24.025485	0.000189	1.887699	0.639570	0.015395
1770	8.8450e-01	-9.1906	-23.959203	0.000163	1.625519	0.550741	0.013256
1771	8.8500e-01	-9.1634	-23.886506	0.000178	1.782827	0.604038	0.014539
1772	8.8550e-01	-9.0992	-23.821507	0.000159	1.594057	0.540081	0.013000
1773	8.8600e-01	-9.0751	-23.747101	0.000182	1.824776	0.618251	0.014881
1774	8.8650e-01	-9.0206	-23.677398	0.000171	1.709416	0.579166	0.013941
1775	8.8700e-01	-8.9917	-23.605984	0.000175	1.751365	0.593379	0.014283
1776	8.8750e-01	-8.9516	-23.533716	0.000177	1.772340	0.600485	0.014454
1777	8.8800e-01	-8.9019	-23.466151	0.000166	1.656980	0.561400	0.013513
1778	8.8850e-01	-8.8698	-23.393027	0.000179	1.793314	0.607591	0.014625
1779	8.8900e-01	-8.8249	-23.324179	0.000169	1.688442	0.572060	0.013770
1780	8.8950e-01	-8.7880	-23.251483	0.000178	1.782827	0.604038	0.014539
1781	8.9000e-01	-8.7623	-23.176221	0.000185	1.845750	0.625357	0.015052
1782	8.9050e-01	-8.7286	-23.106518	0.000171	1.709416	0.579166	0.013941
1783	8.9100e-01	-8.6661	-23.029545	0.000189	1.887699	0.639570	0.015395
1784	8.9150e-01	-8.6452	-22.958560	0.000174	1.740878	0.589825	0.014197
1785	8.9200e-01	-8.6019	-22.887574	0.000174	1.740878	0.589825	0.014197
1786	8.9250e-01	-8.5425	-22.815305	0.000177	1.772340	0.600485	0.014454
1787	8.9300e-01	-8.5024	-22.743892	0.000175	1.751365	0.593379	0.014283
1788	8.9350e-01	-8.4511	-22.672478	0.000175	1.751365	0.593379	0.014283
1789	8.9400e-01	-8.4174	-22.596789	0.000186	1.856237	0.628910	0.015138
1790	8.9450e-01	-8.3661	-22.523237	0.000180	1.803801	0.611144	0.014710
1791	8.9500e-01	-8.3388	-22.453106	0.000172	1.719903	0.582719	0.014026
1792	8.9550e-01	-8.3179	-22.380838	0.000177	1.772340	0.600485	0.014454
1793	8.9600e-01	-8.2522	-22.310280	0.000173	1.730391	0.586272	0.014112
1794	8.9650e-01	-8.2345	-22.238439	0.000176	1.761852	0.596932	0.014368
1795	8.9700e-01	-8.1976	-22.170874	0.000166	1.656980	0.561400	0.013513
1796	8.9750e-01	-8.1752	-22.100316	0.000173	1.730391	0.586272	0.014112
1797	8.9800e-01	-8.1126	-22.030613	0.000171	1.709416	0.579166	0.013941
1798	8.9850e-01	-8.0950	-21.960055	0.000173	1.730391	0.586272	0.014112
1799	8.9900e-01	-8.0228	-21.889496	0.000173	1.730391	0.586272	0.014112
1800	8.9950e-01	-7.9730	-21.816800	0.000178	1.782827	0.604038	0.014539
1801	9.0000e-01	-7.9490	-21.743676	0.000179	1.793314	0.607591	0.014625
1802	9.0050e-01	-7.9201	-21.670552	0.000179	1.793314	0.607591	0.014625
1803	9.0100e-01	-7.8752	-21.596573	0.000181	1.814288	0.614698	0.014796
1804	9.0150e-01	-7.8527	-21.525587	0.000174	1.740878	0.589825	0.014197
1805	9.0200e-01	-7.7902	-21.455457	0.000172	1.719903	0.582719	0.014026
1806	9.0250e-01	-7.7212	-21.380622	0.000184	1.835263	0.621804	0.014967
1807	9.0300e-01	-7.6859	-21.305360	0.000185	1.845750	0.625357	0.015052
1808	9.0350e-01	-7.6730	-21.230526	0.000184	1.835263	0.621804	0.014967
1809	9.0400e-01	-7.6458	-21.154836	0.000186	1.856237	0.628910	0.015138
1810	9.0450e-01	-7.5559	-21.085133	0.000171	1.709416	0.579166	0.013941
1811	9.0500e-01	-7.5415	-21.008161	0.000189	1.887699	0.639570	0.015395
1812	9.0550e-01	-7.5014	-20.937603	0.000173	1.730391	0.586272	0.014112
1813	9.0600e-01	-7.4629	-20.855071	0.000202	2.024033	0.685761	0.016506
1814	9.0650e-01	-7.4260	-20.784085	0.000174	1.740878	0.589825	0.014197
1815	9.0700e-01	-7.3811	-20.705830	0.000192	1.919161	0.650229	0.015651
1816	9.0750e-01	-7.3570	-20.627147	0.000193	1.929648	0.653782	0.015737
1817	9.0800e-01	-7.2977	-20.552312	0.000184	1.835263	0.621804	0.014967
1818	9.0850e-01	-7.2624	-20.474484	0.000191	1.908673	0.646676	0.015566
1819	9.0900e-01	-7.2255	-20.400933	0.000180	1.803801	0.611144	0.014710
1820	9.0950e-01	-7.1725	-20.323960	0.000189	1.887699	0.639570	0.015395
1821	9.1000e-01	-7.1436	-20.246988	0.000189	1.887699	0.639570	0.015395
1822	9.1050e-01	-7.1116	-20.168732	0.000192	1.919161	0.650229	0.015651
1823	9.1100e-01	-7.0923	-20.093043	0.000186	1.856237	0.628910	0.015138
1824	9.1150e-01	-7.0346	-20.023340	0.000171	1.709416	0.579166	0.013941
1825	9.1200e-01	-6.9929	-19.948933	0.000182	1.824776	0.618251	0.014881
1826	9.1250e-01	-6.9560	-19.874098	0.000184	1.835263	0.621804	0.014967
1827	9.1300e-01	-6.9175	-19.797981	0.000187	1.866725	0.632463	0.015223
1828	9.1350e-01	-6.8693	-19.721864	0.000187	1.866725	0.632463	0.015223
1829	9.1400e-01	-6.8324	-19.642326	0.000195	1.950622	0.660889	0.015908
1830	9.1450e-01	-6.8196	-19.567919	0.000182	1.824776	0.618251	0.014881
1831	9.1500e-01	-6.7650	-19.491801	0.000187	1.866725	0.632463	0.015223
1832	9.1550e-01	-6.7073	-19.417395	0.000182	1.824776	0.618251	0.014881
1833	9.1600e-01	-6.6688	-19.338284	0.000194	1.940135	0.657336	0.015822
1834	9.1650e-01	-6.6271	-19.263022	0.000185	1.845750	0.625357	0.015052
1835	9.1700e-01	-6.5918	-19.180490	0.000202	2.024033	0.685761	0.016506
1836	9.1750e-01	-6.5709	-19.100952	0.000195	1.950622	0.660889	0.015908
1837	9.1800e-01	-6.5212	-19.027828	0.000179	1.793314	0.607591	0.014625
1838	9.1850e-01	-6.4618	-18.944013	0.000206	2.055494	0.696420	0.016763
1839	9.1900e-01	-6.4233	-18.870034	0.000181	1.814288	0.614698	0.014796
1840	9.1950e-01	-6.4266	-18.786220	-0.000206	-2.055494	-0.696420	0.016763
1841	9.2000e-01	-6.3528	-18.711813	0.000182	1.824776	0.618251	0.014881
1842	9.2050e-01	-6.3271	-18.636551	0.000185	1.845750	0.625357	0.015052
1843	9.2100e-01	-6.2661	-18.556585	0.000196	1.961109	0.664442	0.015993
1844	9.2150e-01	-6.2324	-18.479185	0.000190	1.898186	0.643123	0.015480
1845	9.2200e-01	-6.1988	-18.401357	0.000191	1.908673	0.646676	0.015566
1846	9.2250e-01	-6.1554	-18.326950	0.000182	1.824776	0.618251	0.014881
1847	9.2300e-01	-6.1234	-18.250833	0.000187	1.866725	0.632463	0.015223
1848	9.2350e-01	-6.0528	-18.173433	0.000190	1.898186	0.643123	0.015480
1849	9.2400e-01	-6.0431	-18.096888	0.000188	1.877212	0.636017	0.015309
1850	9.2450e-01	-5.9806	-18.017350	0.000195	1.950622	0.660889	0.015908
1851	9.2500e-01	-5.9838	-17.936101	-0.000199	-1.992571	-0.675101	0.016250
1852	9.2550e-01	-5.9068	-17.858273	0.000191	1.908673	0.646676	0.015566
1853	9.2600e-01	-5.8522	-17.779590	0.000193	1.929648	0.653782	0.015737
1854	9.2650e-01	-5.8635	-17.703045	-0.000188	-1.877212	-0.636017	0.015309
1855	9.2700e-01	-5.7913	-17.619230	0.000206	2.055494	0.696420	0.016763
1856	9.2750e-01	-5.7528	-17.543968	0.000185	1.845750	0.625357	0.015052
1857	9.2800e-01	-5.7030	-17.465285	0.000193	1.929648	0.653782	0.015737
1858	9.2850e-01	-5.6950	-17.381898	0.000205	2.045007	0.692867	0.016677
1859	9.2900e-01	-5.5956	-17.309202	0.000178	1.782827	0.604038	0.014539
1860	9.2950e-01	-5.5555	-17.229236	0.000196	1.961109	0.664442	0.015993
1861	9.3000e-01	-5.5490	-17.149270	0.000196	1.961109	0.664442	0.015993
1862	9.3050e-01	-5.5025	-17.067594	0.000200	2.003058	0.678655	0.016335
1863	9.3100e-01	-5.4801	-16.988483	0.000194	1.940135	0.657336	0.015822
1864	9.3150e-01	-5.4351	-16.911083	0.000190	1.898186	0.643123	0.015480
1865	9.3200e-01	-5.4047	-16.828551	0.000202	2.024033	0.685761	0.016506
1866	9.3250e-01	-5.3694	-16.752434	0.000187	1.866725	0.632463	0.015223
1867	9.3300e-01	-5.3004	-16.672468	0.000196	1.961109	0.664442	0.015993
1868	9.3350e-01	-5.2603	-16.598061	0.000182	1.824776	0.618251	0.014881
1869	9.3400e-01	-5.2442	-16.518095	0.000196	1.961109	0.664442	0.015993
1870	9.3450e-01	-5.2138	-16.443261	0.000184	1.835263	0.621804	0.014967
1871	9.3500e-01	-5.1720	-16.365433	0.000191	1.908673	0.646676	0.015566
1872	9.3550e-01	-5.1047	-16.292737	0.000178	1.782827	0.604038	0.014539
1873	9.3600e-01	-5.0726	-16.217475	0.000185	1.845750	0.625357	0.015052
1874	9.3650e-01	-5.0325	-16.137509	0.000196	1.961109	0.664442	0.015993
1875	9.3700e-01	-5.0020	-16.058398	0.000194	1.940135	0.657336	0.015822
1876	9.3750e-01	-4.9619	-15.988268	0.000172	1.719903	0.582719	0.014026
1877	9.3800e-01	-4.8977	-15.901032	0.000214	2.139392	0.724846	0.017447
1878	9.3850e-01	-4.8464	-15.823632	0.000190	1.898186	0.643123	0.015480
1879	9.3900e-01	-4.8416	-15.741528	0.000201	2.013546	0.682208	0.016421
1880	9.3950e-01	-4.7951	-15.662845	0.000193	1.929648	0.653782	0.015737
1881	9.4000e-01	-4.7533	-15.580741	0.000201	2.013546	0.682208	0.016421
1882	9.4050e-01	-4.7164	-15.490512	0.000221	2.212803	0.749718	0.018046
1883	9.4100e-01	-4.6860	-15.417815	0.000178	1.782827	0.604038	0.014539
1884	9.4150e-01	-4.6362	-15.336567	0.000199	1.992571	0.675101	0.016250
1885	9.4200e-01	-4.5576	-15.259166	0.000190	1.898186	0.643123	0.015480
1886	9.4250e-01	-4.5320	-15.174069	0.000209	2.086956	0.707080	0.017019
1887	9.4300e-01	-4.5031	-15.091110	0.000203	2.034520	0.689314	0.016592
1888	9.4350e-01	-4.4566	-15.017131	0.000181	1.814288	0.614698	0.014796
1889	9.4400e-01	-4.4132	-14.935454	0.000200	2.003058	0.678655	0.016335
1890	9.4450e-01	-4.3940	-14.849074	0.000212	2.118418	0.717739	0.017276
1891	9.4500e-01	-4.3571	-14.771674	0.000190	1.898186	0.643123	0.015480
1892	9.4550e-01	-4.3074	-14.689997	0.000200	2.003058	0.678655	0.016335
1893	9.4600e-01	-4.2817	-14.607466	0.000202	2.024033	0.685761	0.016506
1894	9.4650e-01	-4.2336	-14.527500	0.000196	1.961109	0.664442	0.015993
1895	9.4700e-01	-4.1983	-14.454376	0.000179	1.793314	0.607591	0.014625
1896	9.4750e-01	-4.1598	-14.369278	0.000209	2.086956	0.707080	0.017019
1897	9.4800e-01	-4.1309	-14.288457	0.000198	1.982084	0.671548	0.016164
1898	9.4850e-01	-4.0571	-14.207636	0.000198	1.982084	0.671548	0.016164
1899	9.4900e-01	-4.0379	-14.129381	0.000192	1.919161	0.650229	0.015651
1900	9.4950e-01	-4.0218	-14.048559	0.000198	1.982084	0.671548	0.016164
1901	9.5000e-01	-3.9753	-13.962607	0.000211	2.107930	0.714186	0.017191
1902	9.5050e-01	-3.9047	-13.888627	0.000181	1.814288	0.614698	0.014796
1903	9.5100e-01	-3.8630	-13.806951	0.000200	2.003058	0.678655	0.016335
1904	9.5150e-01	-3.8357	-13.724419	0.000202	2.024033	0.685761	0.016506
1905	9.5200e-01	-3.7876	-13.642743	0.000200	2.003058	0.678655	0.016335
1906	9.5250e-01	-3.7988	-13.560639	-0.000201	-2.013546	-0.682208	0.016421
1907	9.5300e-01	-3.7218	-13.473403	0.000214	2.139392	0.724846	0.017447
1908	9.5350e-01	-3.6560	-13.387023	0.000212	2.118418	0.717739	0.017276
1909	9.5400e-01	-3.6208	-13.305774	0.000199	1.992571	0.675101	0.016250
1910	9.5450e-01	-3.5839	-13.218966	0.000213	2.128905	0.721293	0.017362
1911	9.5500e-01	-3.5341	-13.136007	0.000203	2.034520	0.689314	0.016592
1912	9.5550e-01	-3.5069	-13.050910	0.000209	2.086956	0.707080	0.017019
1913	9.5600e-01	-3.4667	-12.960253	0.000222	2.223290	0.753271	0.018131
1914	9.5650e-01	-3.4266	-12.872590	0.000215	2.149879	0.728399	0.017533
1915	9.5700e-01	-3.3897	-12.777229	0.000234	2.338649	0.792356	0.019072
1916	9.5750e-01	-3.3416	-12.689566	0.000215	2.149879	0.728399	0.017533
1917	9.5800e-01	-3.3368	-12.607890	0.000200	2.003058	0.678655	0.016335
1918	9.5850e-01	-3.2807	-12.518088	0.000220	2.202315	0.746165	0.017960
1919	9.5900e-01	-3.2133	-12.431708	0.000212	2.118418	0.717739	0.017276
1920	9.5950e-01	-3.2069	-12.344473	0.000214	2.139392	0.724846	0.017447
1921	9.6000e-01	-3.1748	-12.249967	0.000232	2.317675	0.785249	0.018901
1922	9.6050e-01	-3.1058	-12.167436	0.000202	2.024033	0.685761	0.016506
1923	9.6100e-01	-3.0689	-12.078917	0.000217	2.170854	0.735505	0.017704
1924	9.6150e-01	-3.0192	-11.992109	0.000213	2.128905	0.721293	0.017362
1925	9.6200e-01	-2.9983	-11.907867	0.000207	2.065982	0.699974	0.016848
1926	9.6250e-01	-2.9694	-11.819349	0.000217	2.170854	0.735505	0.017704
1927	9.6300e-01	-2.8860	-11.736389	0.000203	2.034520	0.689314	0.016592
1928	9.6350e-01	-2.8860	-11.651292	-0.000209	-2.086956	-0.707080	0.017019
1929	9.6400e-01	-2.8571	-11.576885	0.000182	1.824776	0.618251	0.014881
1930	9.6450e-01	-2.7978	-11.502478	0.000182	1.824776	0.618251	0.014881
1931	9.6500e-01	-2.7529	-11.421230	0.000199	1.992571	0.675101	0.016250
1932	9.6550e-01	-2.7031	-11.342119	0.000194	1.940135	0.657336	0.015822
1933	9.6600e-01	-2.6791	-11.259587	0.000202	2.024033	0.685761	0.016506
1934	9.6650e-01	-2.6053	-11.183042	0.000188	1.877212	0.636017	0.015309
1935	9.6700e-01	-2.6085	-11.098800	-0.000207	-2.065982	-0.699974	0.016848
1936	9.6750e-01	-2.5620	-11.016269	0.000202	2.024033	0.685761	0.016506
1937	9.6800e-01	-2.5170	-10.935875	0.000197	1.971597	0.667995	0.016079
1938	9.6850e-01	-2.4465	-10.853771	0.000201	2.013546	0.682208	0.016421
1939	9.6900e-01	-2.4256	-10.771667	0.000201	2.013546	0.682208	0.016421
1940	9.6950e-01	-2.4208	-10.687425	0.000207	2.065982	0.699974	0.016848
1941	9.7000e-01	-2.3614	-10.603610	0.000206	2.055494	0.696420	0.016763
1942	9.7050e-01	-2.3037	-10.521078	0.000202	2.024033	0.685761	0.016506
1943	9.7100e-01	-2.2556	-10.434698	0.000212	2.118418	0.717739	0.017276
1944	9.7150e-01	-2.2170	-10.352166	0.000202	2.024033	0.685761	0.016506
1945	9.7200e-01	-2.2090	-10.264931	0.000214	2.139392	0.724846	0.017447
1946	9.7250e-01	-2.1497	-10.180689	0.000207	2.065982	0.699974	0.016848
1947	9.7300e-01	-2.1208	-10.089605	0.000223	2.233777	0.756824	0.018217
1948	9.7350e-01	-2.0486	-10.004507	0.000209	2.086956	0.707080	0.017019
1949	9.7400e-01	-2.0438	-9.915133	0.000219	2.191828	0.742612	0.017875
1950	9.7450e-01	-1.9732	-9.828326	0.000213	2.128905	0.721293	0.017362
1951	9.7500e-01	-1.9491	-9.741518	0.000213	2.128905	0.721293	0.017362
1952	9.7550e-01	-1.9042	-9.652144	0.000219	2.191828	0.742612	0.017875
1953	9.7600e-01	-1.9122	-9.566191	-0.000211	-2.107930	-0.714186	0.017191
1954	9.7650e-01	-1.8593	-9.480239	0.000211	2.107930	0.714186	0.017191
1955	9.7700e-01	-1.8304	-9.389582	0.000222	2.223290	0.753271	0.018131
1956	9.7750e-01	-1.7582	-9.303629	0.000211	2.107930	0.714186	0.017191
1957	9.7800e-01	-1.7326	-9.210835	0.000228	2.275726	0.771037	0.018559
1958	9.7850e-01	-1.6860	-9.124882	0.000211	2.107930	0.714186	0.017191
1959	9.7900e-01	-1.6363	-9.037646	0.000214	2.139392	0.724846	0.017447
1960	9.7950e-01	-1.6058	-8.948700	0.000218	2.181341	0.739058	0.017789
1961	9.8000e-01	-1.5625	-8.858899	0.000220	2.202315	0.746165	0.017960
1962	9.8050e-01	-1.5224	-8.768242	0.000222	2.223290	0.753271	0.018131
1963	9.8100e-01	-1.4390	-8.679724	0.000217	2.170854	0.735505	0.017704
1964	9.8150e-01	-1.4037	-8.587785	0.000225	2.254752	0.763930	0.018388
1965	9.8200e-01	-1.4149	-8.496700	-0.000223	-2.233777	-0.756824	0.018217
1966	9.8250e-01	-1.3363	-8.404333	0.000227	2.265239	0.767484	0.018473
1967	9.8300e-01	-1.2834	-8.312394	0.000225	2.254752	0.763930	0.018388
1968	9.8350e-01	-1.2786	-8.220882	0.000224	2.244264	0.760377	0.018302
1969	9.8400e-01	-1.2401	-8.128943	0.000225	2.254752	0.763930	0.018388
1970	9.8450e-01	-1.1791	-8.033155	0.000235	2.349136	0.795909	0.019158
1971	9.8500e-01	-1.1550	-7.941215	0.000225	2.254752	0.763930	0.018388
1972	9.8550e-01	-1.1278	-7.846710	0.000232	2.317675	0.785249	0.018901
1973	9.8600e-01	-1.1069	-7.749211	0.000239	2.391085	0.810122	0.019500
1974	9.8650e-01	-1.0428	-7.654706	0.000232	2.317675	0.785249	0.018901
1975	9.8700e-01	-1.0203	-7.561056	0.000230	2.296700	0.778143	0.018730
1976	9.8750e-01	-0.9834	-7.467406	0.000230	2.296700	0.778143	0.018730
1977	9.8800e-01	-0.9000	-7.368625	0.000242	2.422547	0.820781	0.019756
1978	9.8850e-01	-0.8855	-7.281817	0.000213	2.128905	0.721293	0.017362
1979	9.8900e-01	-0.8278	-7.182180	0.000244	2.443521	0.827887	0.019927
1980	9.8950e-01	-0.8021	-7.086820	0.000234	2.338649	0.792356	0.019072
1981	9.9000e-01	-0.7428	-6.994880	0.000225	2.254752	0.763930	0.018388
1982	9.9050e-01	-0.7331	-6.903369	0.000224	2.244264	0.760377	0.018302
1983	9.9100e-01	-0.6818	-6.806725	0.000237	2.370111	0.803015	0.019329
1984	9.9150e-01	-0.6257	-6.707944	0.000242	2.422547	0.820781	0.019756
1985	9.9200e-01	-0.6032	-6.616860	0.000223	2.233777	0.756824	0.018217
1986	9.9250e-01	-0.5438	-6.521927	0.000233	2.328162	0.788803	0.018987
1987	9.9300e-01	-0.4957	-6.425284	0.000237	2.370111	0.803015	0.019329
1988	9.9350e-01	-0.5069	-6.328213	-0.000238	-2.380598	-0.806568	0.019414
1989	9.9400e-01	-0.4556	-6.230286	0.000240	2.401573	0.813675	0.019585
1990	9.9450e-01	-0.3898	-6.137919	0.000227	2.265239	0.767484	0.018473
1991	9.9500e-01	-0.3353	-6.048118	0.000220	2.202315	0.746165	0.017960
1992	9.9550e-01	-0.2711	-5.952758	0.000234	2.338649	0.792356	0.019072
1993	9.9600e-01	-0.2471	-5.855687	0.000238	2.380598	0.806568	0.019414
1994	9.9650e-01	-0.2310	-5.762892	0.000228	2.275726	0.771037	0.018559
1995	9.9700e-01	-0.2037	-5.666676	0.000236	2.359624	0.799462	0.019243
1996	9.9750e-01	-0.1636	-5.572171	0.000232	2.317675	0.785249	0.018901
1997	9.9800e-01	-0.1171	-5.473390	0.000242	2.422547	0.820781	0.019756
1998	9.9850e-01	-0.0834	-5.384016	0.000219	2.191828	0.742612	0.017875
1999	9.9900e-01	-0.0561	-5.286090	0.000240	2.401573	0.813675	0.019585
2000	9.9950e-01	0.0160	-5.191157	0.000233	2.328162	0.788803	0.018987
2001	1.0000e+00	0.1075	-5.099645	0.000233	2.328162	0.788803	0.018302

Center data before PMax,+/-Pr and +/-Vc Calc.

PMax (uC/cm2):	3.95e+01
Pr (uC/cm2):	2.18e+00
-Pr (uC/cm2):	-5.10e+00
PLoss (uC/cm2):	-3.71e+00
Vc:	1.14e+00
-Vc:	-8.71e-01
C (Max-Eff) (nF):	1.97e-01
K (Eff):	6.68e+02
Vert. (+/-Pr) Shift (uC/cm2):	-1.46e+00
Horiz. Shift (+/-Vc):	1.32e-01
Offset (uC/cm2):	1.39e+00

A (Loop Area - uC/cm2·Volts):	4.55e-01



Hysteresis Version: 5.48.1 - Radiant Technologies, Inc., 1999 - 9/12/24

