»»»»»»»»»»»»»»»»»»»»»»»»»»»»»»»»»»»» Hysteresis ««««««««««««««««««««««««««««««««««««
»»»  Executed Version:	5.48.1
»»»  Vision Version:	5.48.4 (R)
»»»  Vision Compiled:	9/18/24
»»»  Driver Version:	5.47.0
»»»  Windows Version:	Windows 8 or 8.1
»»»  Processor Information:	x86 (AMD or Intel) - 32 Processors
»»»  Tester Name:	PMF21124-494 (100V)
»»»  Tester S/N:	PMF21124-494
»»»  Internal Amp Type:	100V RevK 270k
»»»  Internal Amp S/N:	iAB2-596/K     
»»»  Execution Count:	1
»»»»»»»»»»»»»»»»»»»»»»»»»»»»»»»»»»»»»»»»»»««««««««««««««««««««««««««««««««««««««««««

Stored:	6/6/2025 - 14:37:48
Configured:	06/06/25 01:57:07 PM
Executed:	06/06/25 02:37:15 PM

»»»»»»»»»»»»»»»»»»»»»»»»»»»»»»»»»»» Sample Info ««««««««««««««««««««««««««««««««««««
Sample Name:	
Lot Name:	
Wafer Name:	
Die Row/Column:	0/0
Capacitor Number:	0
Sample Area (cm2):	1.00e-04
Sample Thickness (microns):	3.00e-01

Amplifier:	Internal

»»»»»»»»»»»»»»»»»»»»»»»»»»»»»»»»»»» Tester Info «««««««««««««««««««««««««««««««««««
Tester Name:	PMF21124-494 (100V)
Tester Serial Number:	PMF21124-494
Return Signal Amp. Level:	1.79 [Index: 2]

»»»»»»»»»»»»»»»»»»»»»»»»»»»»»»»» Hysteresis Info ««««««««««««««««««««««««««««««««««
Task Name:	Hyst-501
Volts:	20.00
Field:	666.67 (kV/cm)
DCBias:	0.00
DCField:	0.00 (kV/cm)
Hysteresis Period (ms):	1.00e+00
Preset:	Enabled
Preset Delay (ms):	1.00e+03
Profile:	Standard Bipolar

»»»»»»»»»»»»»»»»»»»»»»»»»»»»»»»»»»»»»» Data «««««««««««««««««««««««««««««««««««««««
Points:	2001

Valid Data

Point	Time (ms)	Drive Voltage	Measured Polarization (uC/cm2)	Capacitance (uF)	Normalized Capacitance (uF/cm2)	Dielectric Constant	Instantaneous Current (mA)
   1	0.0000e+00	0.0273	-1.264274	0.000051	0.514408	0.174286	0.004191
   2	5.0000e-04	0.0401	-1.243320	0.000051	0.514408	0.174286	0.004191
   3	1.0000e-03	0.1267	-1.224077	0.000047	0.472416	0.160059	0.003849
   4	1.5000e-03	0.1781	-1.174473	0.000122	1.217782	0.412596	0.009921
   5	2.0000e-03	0.1829	-1.105625	0.000169	1.690198	0.572655	0.013770
   6	2.5000e-03	0.2198	-1.039343	0.000163	1.627209	0.551313	0.013256
   7	3.0000e-03	0.3080	-0.954673	0.000208	2.078629	0.704258	0.016934
   8	3.5000e-03	0.2952	-0.864872	-0.000220	-2.204606	-0.746941	0.017960
   9	4.0000e-03	0.3722	-0.782340	0.000203	2.026138	0.686474	0.016506
  10	4.5000e-03	0.4347	-0.695960	0.000212	2.120621	0.718486	0.017276
  11	5.0000e-03	0.4412	-0.599317	0.000237	2.372576	0.803851	0.019329
  12	5.5000e-03	0.4829	-0.502246	0.000238	2.383074	0.807407	0.019414
  13	6.0000e-03	0.5005	-0.397478	0.000257	2.572040	0.871431	0.020954
  14	6.5000e-03	0.5390	-0.308532	0.000218	2.183610	0.739827	0.017789
  15	7.0000e-03	0.6048	-0.208040	0.000247	2.467059	0.835862	0.020098
  16	7.5000e-03	0.6658	-0.115245	0.000228	2.278093	0.771839	0.018559
  17	8.0000e-03	0.6609	-0.009622	-0.000259	-2.593037	-0.878545	0.021125
  18	8.5000e-03	0.7059	0.081890	0.000225	2.246599	0.761168	0.018302
  19	9.0000e-03	0.7636	0.187514	0.000259	2.593037	0.878545	0.021125
  20	9.5000e-03	0.7845	0.280308	0.000228	2.278093	0.771839	0.018559
  21	1.0000e-02	0.8310	0.381228	0.000248	2.477557	0.839419	0.020184
  22	1.0500e-02	0.8791	0.477444	0.000236	2.362078	0.800294	0.019243
  23	1.1000e-02	0.9160	0.583922	0.000261	2.614033	0.885658	0.021296
  24	1.1500e-02	0.9417	0.698098	0.000280	2.802999	0.949682	0.022835
  25	1.2000e-02	0.9834	0.787044	0.000218	2.183610	0.739827	0.017789
  26	1.2500e-02	1.0283	0.891385	0.000256	2.561542	0.867874	0.020868
  27	1.3000e-02	1.0925	0.990166	0.000243	2.425067	0.821635	0.019756
  28	1.3500e-02	1.1085	1.095790	0.000259	2.593037	0.878545	0.021125
  29	1.4000e-02	1.1679	1.198847	0.000253	2.530048	0.857203	0.020612
  30	1.4500e-02	1.2112	1.291642	0.000228	2.278093	0.771839	0.018559
  31	1.5000e-02	1.2321	1.391706	0.000246	2.456561	0.832305	0.020013
  32	1.5500e-02	1.2577	1.499468	0.000265	2.645527	0.896329	0.021552
  33	1.6000e-02	1.3139	1.593118	0.000230	2.299089	0.778953	0.018730
  34	1.6500e-02	1.3572	1.691472	0.000241	2.414569	0.818078	0.019671
  35	1.7000e-02	1.3989	1.790253	0.000243	2.425067	0.821635	0.019756
  36	1.7500e-02	1.4294	1.893311	0.000253	2.530048	0.857203	0.020612
  37	1.8000e-02	1.5032	1.993375	0.000246	2.456561	0.832305	0.020013
  38	1.8500e-02	1.5369	2.091301	0.000240	2.404070	0.814521	0.019585
  39	1.9000e-02	1.5641	2.196925	0.000259	2.593037	0.878545	0.021125
  40	1.9500e-02	1.6074	2.302121	0.000258	2.582539	0.874988	0.021039
  41	2.0000e-02	1.6155	2.404751	0.000252	2.519550	0.853647	0.020526
  42	2.0500e-02	1.6877	2.502677	0.000240	2.404070	0.814521	0.019585
  43	2.1000e-02	1.7518	2.601886	0.000244	2.435565	0.825192	0.019842
  44	2.1500e-02	1.7598	2.706654	0.000257	2.572040	0.871431	0.020954
  45	2.2000e-02	1.8032	2.796455	0.000220	2.204606	0.746941	0.017960
  46	2.2500e-02	1.8513	2.897803	0.000249	2.488055	0.842976	0.020269
  47	2.3000e-02	1.8930	3.005564	0.000265	2.645527	0.896329	0.021552
  48	2.3500e-02	1.9042	3.112471	0.000262	2.624531	0.889215	0.021381
  49	2.4000e-02	1.9636	3.203127	0.000223	2.225602	0.754054	0.018131
  50	2.4500e-02	1.9957	3.307895	0.000257	2.572040	0.871431	0.020954
  51	2.5000e-02	2.0390	3.404966	0.000238	2.383074	0.807407	0.019414
  52	2.5500e-02	2.0919	3.507596	0.000252	2.519550	0.853647	0.020526
  53	2.6000e-02	2.1176	3.603812	0.000236	2.362078	0.800294	0.019243
  54	2.6500e-02	2.1930	3.709435	0.000259	2.593037	0.878545	0.021125
  55	2.7000e-02	2.2122	3.809500	0.000246	2.456561	0.832305	0.020013
  56	2.7500e-02	2.2652	3.907854	0.000241	2.414569	0.818078	0.019671
  57	2.8000e-02	2.2668	4.014332	0.000261	2.614033	0.885658	0.021296
  58	2.8500e-02	2.3358	4.104561	0.000222	2.215104	0.750498	0.018046
  59	2.9000e-02	2.3566	4.207619	0.000253	2.530048	0.857203	0.020612
  60	2.9500e-02	2.3887	4.309394	0.000250	2.498554	0.846533	0.020355
  61	3.0000e-02	2.4561	4.402616	0.000229	2.288591	0.775396	0.018644
  62	3.0500e-02	2.4866	4.503963	0.000249	2.488055	0.842976	0.020269
  63	3.1000e-02	2.5315	4.598468	0.000232	2.320085	0.786066	0.018901
  64	3.1500e-02	2.5989	4.697250	0.000243	2.425067	0.821635	0.019756
  65	3.2000e-02	2.5973	4.794748	-0.000239	-2.393572	-0.810964	0.019500
  66	3.2500e-02	2.6101	4.904220	0.000269	2.687520	0.910556	0.021894
  67	3.3000e-02	2.6887	4.997015	0.000228	2.278093	0.771839	0.018559
  68	3.3500e-02	2.7192	5.103921	0.000262	2.624531	0.889215	0.021381
  69	3.4000e-02	2.7513	5.203131	0.000244	2.435565	0.825192	0.019842
  70	3.4500e-02	2.8138	5.296353	0.000229	2.288591	0.775396	0.018644
  71	3.5000e-02	2.8443	5.393424	0.000238	2.383074	0.807407	0.019414
  72	3.5500e-02	2.9037	5.504179	0.000272	2.719014	0.921227	0.022151
  73	3.6000e-02	2.9197	5.599967	0.000235	2.351580	0.796737	0.019158
  74	3.6500e-02	3.0111	5.686347	0.000212	2.120621	0.718486	0.017276
  75	3.7000e-02	3.0095	5.795392	-0.000268	-2.677022	-0.907000	0.021809
  76	3.7500e-02	3.0352	5.889469	0.000231	2.309587	0.782509	0.018816
  77	3.8000e-02	3.0914	5.982264	0.000228	2.278093	0.771839	0.018559
  78	3.8500e-02	3.1170	6.084466	0.000251	2.509052	0.850090	0.020440
  79	3.9000e-02	3.1684	6.177261	0.000228	2.278093	0.771839	0.018559
  80	3.9500e-02	3.2165	6.277753	0.000247	2.467059	0.835862	0.020098
  81	4.0000e-02	3.2422	6.370548	0.000228	2.278093	0.771839	0.018559
  82	4.0500e-02	3.2742	6.463770	0.000229	2.288591	0.775396	0.018644
  83	4.1000e-02	3.3127	6.574097	0.000271	2.708516	0.917670	0.022065
  84	4.1500e-02	3.3416	6.656629	0.000203	2.026138	0.686474	0.016506
  85	4.2000e-02	3.3962	6.755838	0.000244	2.435565	0.825192	0.019842
  86	4.2500e-02	3.4619	6.854192	0.000241	2.414569	0.818078	0.019671
  87	4.3000e-02	3.4700	6.953828	0.000245	2.446063	0.828749	0.019927
  88	4.3500e-02	3.4972	7.049189	0.000234	2.341082	0.793180	0.019072
  89	4.4000e-02	3.5550	7.145405	0.000236	2.362078	0.800294	0.019243
  90	4.4500e-02	3.5662	7.227936	0.000203	2.026138	0.686474	0.016506
  91	4.5000e-02	3.6400	7.331849	0.000255	2.551044	0.864317	0.020783
  92	4.5500e-02	3.6801	7.441749	0.000270	2.698018	0.914113	0.021980
  93	4.6000e-02	3.7090	7.530267	0.000217	2.173112	0.736270	0.017704
  94	4.6500e-02	3.7491	7.632470	0.000251	2.509052	0.850090	0.020440
  95	4.7000e-02	3.8261	7.719705	0.000214	2.141617	0.725600	0.017447
  96	4.7500e-02	3.8550	7.816349	0.000237	2.372576	0.803851	0.019329
  97	4.8000e-02	3.8710	7.908716	0.000227	2.267595	0.768282	0.018473
  98	4.8500e-02	3.9240	8.003648	0.000233	2.330584	0.789623	0.018987
  99	4.9000e-02	3.9384	8.104996	0.000249	2.488055	0.842976	0.020269
 100	4.9500e-02	4.0250	8.200356	0.000234	2.341082	0.793180	0.019072
 101	5.0000e-02	4.0314	8.296999	0.000237	2.372576	0.803851	0.019329
 102	5.0500e-02	4.0860	8.397919	0.000248	2.477557	0.839419	0.020184
 103	5.1000e-02	4.1149	8.486865	0.000218	2.183610	0.739827	0.017789
 104	5.1500e-02	4.1646	8.576239	0.000219	2.194108	0.743384	0.017875
 105	5.2000e-02	4.2063	8.670316	0.000231	2.309587	0.782509	0.018816
 106	5.2500e-02	4.2496	8.763966	0.000230	2.299089	0.778953	0.018730
 107	5.3000e-02	4.2817	8.863603	0.000245	2.446063	0.828749	0.019927
 108	5.3500e-02	4.3042	8.952977	0.000219	2.194108	0.743384	0.017875
 109	5.4000e-02	4.3763	9.048337	0.000234	2.341082	0.793180	0.019072
 110	5.4500e-02	4.4068	9.138994	0.000223	2.225602	0.754054	0.018131
 111	5.5000e-02	4.4325	9.232216	0.000229	2.288591	0.775396	0.018644
 112	5.5500e-02	4.4870	9.339550	0.000264	2.635029	0.892772	0.021467
 113	5.6000e-02	4.5159	9.421226	0.000201	2.005142	0.679360	0.016335
 114	5.6500e-02	4.5544	9.520008	0.000243	2.425067	0.821635	0.019756
 115	5.7000e-02	4.5721	9.614513	0.000232	2.320085	0.786066	0.018901
 116	5.7500e-02	4.6346	9.711156	0.000237	2.372576	0.803851	0.019329
 117	5.8000e-02	4.6619	9.801385	0.000222	2.215104	0.750498	0.018046
 118	5.8500e-02	4.7245	9.892469	0.000224	2.236100	0.757611	0.018217
 119	5.9000e-02	4.7485	9.990395	0.000240	2.404070	0.814521	0.019585
 120	5.9500e-02	4.7902	10.081907	0.000225	2.246599	0.761168	0.018302
 121	6.0000e-02	4.8303	10.169143	0.000214	2.141617	0.725600	0.017447
 122	6.0500e-02	4.8705	10.265786	0.000237	2.372576	0.803851	0.019329
 123	6.1000e-02	4.9009	10.356015	0.000222	2.215104	0.750498	0.018046
 124	6.1500e-02	4.9491	10.450948	0.000233	2.330584	0.789623	0.018987
 125	6.2000e-02	5.0052	10.543743	0.000228	2.278093	0.771839	0.018559
 126	6.2500e-02	5.0501	10.635254	0.000225	2.246599	0.761168	0.018302
 127	6.3000e-02	5.0790	10.723773	0.000217	2.173112	0.736270	0.017704
 128	6.3500e-02	5.1191	10.830679	0.000262	2.624531	0.889215	0.021381
 129	6.4000e-02	5.1624	10.920908	0.000222	2.215104	0.750498	0.018046
 130	6.4500e-02	5.2138	10.998308	0.000190	1.900161	0.643792	0.015480
 131	6.5000e-02	5.2298	11.102649	0.000256	2.561542	0.867874	0.020868
 132	6.5500e-02	5.2924	11.189029	0.000212	2.120621	0.718486	0.017276
 133	6.6000e-02	5.3196	11.277975	0.000218	2.183610	0.739827	0.017789
 134	6.6500e-02	5.3822	11.371197	0.000229	2.288591	0.775396	0.018644
 135	6.7000e-02	5.3902	11.458433	0.000214	2.141617	0.725600	0.017447
 136	6.7500e-02	5.4496	11.547379	0.000218	2.183610	0.739827	0.017789
 137	6.8000e-02	5.4865	11.644022	0.000237	2.372576	0.803851	0.019329
 138	6.8500e-02	5.5394	11.732541	0.000217	2.173112	0.736270	0.017704
 139	6.9000e-02	5.5667	11.825763	0.000229	2.288591	0.775396	0.018644
 140	6.9500e-02	5.5940	11.918130	0.000227	2.267595	0.768282	0.018473
 141	7.0000e-02	5.6244	12.001945	0.000206	2.057632	0.697145	0.016763
 142	7.0500e-02	5.6886	12.100726	0.000243	2.425067	0.821635	0.019756
 143	7.1000e-02	5.7608	12.187107	0.000212	2.120621	0.718486	0.017276
 144	7.1500e-02	5.7881	12.276480	0.000219	2.194108	0.743384	0.017875
 145	7.2000e-02	5.8298	12.367992	0.000225	2.246599	0.761168	0.018302
 146	7.2500e-02	5.8699	12.463352	0.000234	2.341082	0.793180	0.019072
 147	7.3000e-02	5.9084	12.551016	0.000215	2.152115	0.729156	0.017533
 148	7.3500e-02	5.9389	12.641245	0.000222	2.215104	0.750498	0.018046
 149	7.4000e-02	5.9694	12.733612	0.000227	2.267595	0.768282	0.018473
 150	7.4500e-02	5.9918	12.828544	0.000233	2.330584	0.789623	0.018987
 151	7.5000e-02	6.0544	12.911931	0.000205	2.047134	0.693588	0.016677
 152	7.5500e-02	6.0913	13.007719	0.000235	2.351580	0.796737	0.019158
 153	7.6000e-02	6.1282	13.097521	0.000220	2.204606	0.746941	0.017960
 154	7.6500e-02	6.1586	13.188177	0.000223	2.225602	0.754054	0.018131
 155	7.7000e-02	6.1939	13.280117	0.000226	2.257097	0.764725	0.018388
 156	7.7500e-02	6.2549	13.360083	0.000196	1.963149	0.665133	0.015993
 157	7.8000e-02	6.3062	13.451594	0.000225	2.246599	0.761168	0.018302
 158	7.8500e-02	6.3255	13.550376	0.000243	2.425067	0.821635	0.019756
 159	7.9000e-02	6.3784	13.642743	0.000227	2.267595	0.768282	0.018473
 160	7.9500e-02	6.4089	13.722709	0.000196	1.963149	0.665133	0.015993
 161	8.0000e-02	6.4538	13.814648	0.000226	2.257097	0.764725	0.018388
 162	8.0500e-02	6.5020	13.897608	0.000204	2.036636	0.690031	0.016592
 163	8.1000e-02	6.4843	14.001948	-0.000256	-2.561542	-0.867874	0.020868
 164	8.1500e-02	6.5725	14.081059	0.000194	1.942153	0.658019	0.015822
 165	8.2000e-02	6.6062	14.156749	0.000186	1.858168	0.629564	0.015138
 166	8.2500e-02	6.6528	14.251254	0.000232	2.320085	0.786066	0.018901
 167	8.3000e-02	6.6864	14.345759	0.000232	2.320085	0.786066	0.018901
 168	8.3500e-02	6.7201	14.423159	0.000190	1.900161	0.643792	0.015480
 169	8.4000e-02	6.7667	14.512960	0.000220	2.204606	0.746941	0.017960
 170	8.4500e-02	6.8180	14.598913	0.000211	2.110123	0.714929	0.017191
 171	8.5000e-02	6.8549	14.677596	0.000193	1.931655	0.654462	0.015737
 172	8.5500e-02	6.8934	14.781509	0.000255	2.551044	0.864317	0.020783
 173	8.6000e-02	6.9255	14.866179	0.000208	2.078629	0.704258	0.016934
 174	8.6500e-02	6.9399	14.960684	0.000232	2.320085	0.786066	0.018901
 175	8.7000e-02	6.9945	15.047920	0.000214	2.141617	0.725600	0.017447
 176	8.7500e-02	7.0362	15.130024	0.000202	2.015640	0.682917	0.016421
 177	8.8000e-02	7.0795	15.218542	0.000217	2.173112	0.736270	0.017704
 178	8.8500e-02	7.1019	15.305350	0.000213	2.131119	0.722043	0.017362
 179	8.9000e-02	7.1789	15.389165	0.000206	2.057632	0.697145	0.016763
 180	8.9500e-02	7.1902	15.477255	0.000216	2.162614	0.732713	0.017618
 181	9.0000e-02	7.2126	15.565774	0.000217	2.173112	0.736270	0.017704
 182	9.0500e-02	7.2816	15.650016	0.000207	2.068131	0.700702	0.016848
 183	9.1000e-02	7.3153	15.745376	0.000234	2.341082	0.793180	0.019072
 184	9.1500e-02	7.3763	15.827480	0.000202	2.015640	0.682917	0.016421
 185	9.2000e-02	7.4404	15.915999	0.000217	2.173112	0.736270	0.017704
 186	9.2500e-02	7.4565	16.001096	0.000209	2.089127	0.707815	0.017019
 187	9.3000e-02	7.4629	16.084483	0.000205	2.047134	0.693588	0.016677
 188	9.3500e-02	7.5511	16.176423	0.000226	2.257097	0.764725	0.018388
 189	9.4000e-02	7.5848	16.254678	0.000192	1.921157	0.650906	0.015651
 190	9.4500e-02	7.5736	16.357736	-0.000253	-2.530048	-0.857203	0.020612
 191	9.5000e-02	7.6233	16.443688	0.000211	2.110123	0.714929	0.017191
 192	9.5500e-02	7.6843	16.532635	0.000218	2.183610	0.739827	0.017789
 193	9.6000e-02	7.7356	16.606186	0.000181	1.805677	0.611780	0.014710
 194	9.6500e-02	7.7533	16.692566	0.000212	2.120621	0.718486	0.017276
 195	9.7000e-02	7.7805	16.786216	0.000230	2.299089	0.778953	0.018730
 196	9.7500e-02	7.8351	16.868320	0.000202	2.015640	0.682917	0.016421
 197	9.8000e-02	7.8656	16.957694	0.000219	2.194108	0.743384	0.017875
 198	9.8500e-02	7.9201	17.040226	0.000203	2.026138	0.686474	0.016506
 199	9.9000e-02	7.9393	17.129172	0.000218	2.183610	0.739827	0.017789
 200	9.9500e-02	8.0083	17.212986	0.000206	2.057632	0.697145	0.016763
 201	1.0000e-01	8.0452	17.301077	0.000216	2.162614	0.732713	0.017618
 202	1.0050e-01	8.0773	17.386602	0.000210	2.099625	0.711372	0.017105
 203	1.0100e-01	8.0998	17.472555	0.000211	2.110123	0.714929	0.017191
 204	1.0150e-01	8.1623	17.566632	0.000231	2.309587	0.782509	0.018816
 205	1.0200e-01	8.2185	17.635480	0.000169	1.690198	0.572655	0.013770
 206	1.0250e-01	8.2409	17.724426	0.000218	2.183610	0.739827	0.017789
 207	1.0300e-01	8.2875	17.813800	0.000219	2.194108	0.743384	0.017875
 208	1.0350e-01	8.3340	17.907450	0.000230	2.299089	0.778953	0.018730
 209	1.0400e-01	8.3901	17.997251	0.000220	2.204606	0.746941	0.017960
 210	1.0450e-01	8.3933	18.075507	0.000192	1.921157	0.650906	0.015651
 211	1.0500e-01	8.4399	18.156328	0.000198	1.984146	0.672247	0.016164
 212	1.0550e-01	8.4768	18.246129	0.000220	2.204606	0.746941	0.017960
 213	1.0600e-01	8.5008	18.332937	0.000213	2.131119	0.722043	0.017362
 214	1.0650e-01	8.5714	18.409910	0.000189	1.889662	0.640235	0.015395
 215	1.0700e-01	8.6163	18.497573	0.000215	2.152115	0.729156	0.017533
 216	1.0750e-01	8.6308	18.583953	0.000212	2.120621	0.718486	0.017276
 217	1.0800e-01	8.6741	18.667340	0.000205	2.047134	0.693588	0.016677
 218	1.0850e-01	8.7126	18.742602	0.000185	1.847670	0.626008	0.015052
 219	1.0900e-01	8.7639	18.836680	0.000231	2.309587	0.782509	0.018816
 220	1.0950e-01	8.8137	18.921777	0.000209	2.089127	0.707815	0.017019
 221	1.1000e-01	8.8586	19.005592	0.000206	2.057632	0.697145	0.016763
 222	1.1050e-01	8.8971	19.092399	0.000213	2.131119	0.722043	0.017362
 223	1.1100e-01	8.9388	19.172793	0.000197	1.973647	0.668690	0.016079
 224	1.1150e-01	8.9725	19.254042	0.000199	1.994644	0.675804	0.016250
 225	1.1200e-01	9.0254	19.343415	0.000219	2.194108	0.743384	0.017875
 226	1.1250e-01	9.0527	19.427658	0.000207	2.068131	0.700702	0.016848
 227	1.1300e-01	9.0864	19.511472	0.000206	2.057632	0.697145	0.016763
 228	1.1350e-01	9.1329	19.593149	0.000201	2.005142	0.679360	0.016335
 229	1.1400e-01	9.1618	19.667555	0.000183	1.826674	0.618894	0.014881
 230	1.1450e-01	9.2083	19.761205	0.000230	2.299089	0.778953	0.018730
 231	1.1500e-01	9.2356	19.849296	0.000216	2.162614	0.732713	0.017618
 232	1.1550e-01	9.2853	19.931400	0.000202	2.015640	0.682917	0.016421
 233	1.1600e-01	9.3190	20.010939	0.000195	1.952651	0.661576	0.015908
 234	1.1650e-01	9.3735	20.090477	0.000195	1.952651	0.661576	0.015908
 235	1.1700e-01	9.4056	20.181989	0.000225	2.246599	0.761168	0.018302
 236	1.1750e-01	9.4377	20.267941	0.000211	2.110123	0.714929	0.017191
 237	1.1800e-01	9.4746	20.350901	0.000204	2.036636	0.690031	0.016592
 238	1.1850e-01	9.5227	20.433432	0.000203	2.026138	0.686474	0.016506
 239	1.1900e-01	9.5628	20.505273	0.000176	1.763685	0.597553	0.014368
 240	1.1950e-01	9.6029	20.591654	0.000212	2.120621	0.718486	0.017276
 241	1.2000e-01	9.6511	20.673758	0.000202	2.015640	0.682917	0.016421
 242	1.2050e-01	9.6848	20.756717	0.000204	2.036636	0.690031	0.016592
 243	1.2100e-01	9.7200	20.842242	0.000210	2.099625	0.711372	0.017105
 244	1.2150e-01	9.7265	20.924774	0.000203	2.026138	0.686474	0.016506
 245	1.2200e-01	9.7890	21.004740	0.000196	1.963149	0.665133	0.015993
 246	1.2250e-01	9.8612	21.081712	0.000189	1.889662	0.640235	0.015395
 247	1.2300e-01	9.8853	21.164672	0.000204	2.036636	0.690031	0.016592
 248	1.2350e-01	9.9206	21.247631	0.000204	2.036636	0.690031	0.016592
 249	1.2400e-01	9.9543	21.338287	0.000223	2.225602	0.754054	0.018131
 250	1.2450e-01	10.0152	21.411839	0.000181	1.805677	0.611780	0.014710
 251	1.2500e-01	10.0361	21.495653	0.000206	2.057632	0.697145	0.016763
 252	1.2550e-01	10.0890	21.580751	0.000209	2.089127	0.707815	0.017019
 253	1.2600e-01	10.1051	21.653875	0.000180	1.795179	0.608223	0.014625
 254	1.2650e-01	10.1500	21.746670	0.000228	2.278093	0.771839	0.018559
 255	1.2700e-01	10.1917	21.820649	0.000182	1.816176	0.615337	0.014796
 256	1.2750e-01	10.2414	21.903608	0.000204	2.036636	0.690031	0.016592
 257	1.2800e-01	10.2655	21.982291	0.000193	1.931655	0.654462	0.015737
 258	1.2850e-01	10.3104	22.064823	0.000203	2.026138	0.686474	0.016506
 259	1.2900e-01	10.3906	22.142651	0.000191	1.910659	0.647349	0.015566
 260	1.2950e-01	10.4018	22.235445	0.000228	2.278093	0.771839	0.018559
 261	1.3000e-01	10.4291	22.313273	0.000191	1.910659	0.647349	0.015566
 262	1.3050e-01	10.4981	22.391956	0.000193	1.931655	0.654462	0.015737
 263	1.3100e-01	10.5238	22.477053	0.000209	2.089127	0.707815	0.017019
 264	1.3150e-01	10.5542	22.560013	0.000204	2.036636	0.690031	0.016592
 265	1.3200e-01	10.6072	22.636130	0.000187	1.868666	0.633121	0.015223
 266	1.3250e-01	10.6633	22.717807	0.000201	2.005142	0.679360	0.016335
 267	1.3300e-01	10.6842	22.799911	0.000202	2.015640	0.682917	0.016421
 268	1.3350e-01	10.7500	22.880732	0.000198	1.984146	0.672247	0.016164
 269	1.3400e-01	10.7853	22.958987	0.000192	1.921157	0.650906	0.015651
 270	1.3450e-01	10.7997	23.038525	0.000195	1.952651	0.661576	0.015908
 271	1.3500e-01	10.8318	23.130037	0.000225	2.246599	0.761168	0.018302
 272	1.3550e-01	10.9040	23.203589	0.000181	1.805677	0.611780	0.014710
 273	1.3600e-01	10.9425	23.280561	0.000189	1.889662	0.640235	0.015395
 274	1.3650e-01	10.9778	23.365231	0.000208	2.078629	0.704258	0.016934
 275	1.3700e-01	10.9954	23.449473	0.000207	2.068131	0.700702	0.016848
 276	1.3750e-01	11.0355	23.530295	0.000198	1.984146	0.672247	0.016164
 277	1.3800e-01	11.0981	23.602563	0.000177	1.774183	0.601109	0.014454
 278	1.3850e-01	11.1238	23.690654	0.000216	2.162614	0.732713	0.017618
 279	1.3900e-01	11.1671	23.768909	0.000192	1.921157	0.650906	0.015651
 280	1.3950e-01	11.2168	23.847165	0.000192	1.921157	0.650906	0.015651
 281	1.4000e-01	11.2617	23.932262	0.000209	2.089127	0.707815	0.017019
 282	1.4050e-01	11.2585	24.012656	-0.000197	-1.973647	-0.668690	0.016079
 283	1.4100e-01	11.3291	24.086635	0.000182	1.816176	0.615337	0.014796
 284	1.4150e-01	11.3564	24.169594	0.000204	2.036636	0.690031	0.016592
 285	1.4200e-01	11.4270	24.240153	0.000173	1.732191	0.586882	0.014112
 286	1.4250e-01	11.4542	24.323967	0.000206	2.057632	0.697145	0.016763
 287	1.4300e-01	11.4574	24.403078	0.000194	1.942153	0.658019	0.015822
 288	1.4350e-01	11.5489	24.475346	0.000177	1.774183	0.601109	0.014454
 289	1.4400e-01	11.5537	24.559161	0.000206	2.057632	0.697145	0.016763
 290	1.4450e-01	11.5954	24.636134	0.000189	1.889662	0.640235	0.015395
 291	1.4500e-01	11.6596	24.722514	0.000212	2.120621	0.718486	0.017276
 292	1.4550e-01	11.7093	24.797348	0.000184	1.837172	0.622451	0.014967
 293	1.4600e-01	11.7237	24.876031	0.000193	1.931655	0.654462	0.015737
 294	1.4650e-01	11.7670	24.954287	0.000192	1.921157	0.650906	0.015651
 295	1.4700e-01	11.8280	25.032115	0.000191	1.910659	0.647349	0.015566
 296	1.4750e-01	11.8537	25.109087	0.000189	1.889662	0.640235	0.015395
 297	1.4800e-01	11.8665	25.197605	0.000217	2.173112	0.736270	0.017704
 298	1.4850e-01	11.9227	25.273295	0.000186	1.858168	0.629564	0.015138
 299	1.4900e-01	11.9612	25.346419	0.000180	1.795179	0.608223	0.014625
 300	1.4950e-01	11.9932	25.434938	0.000217	2.173112	0.736270	0.017704
 301	1.5000e-01	12.0462	25.510627	0.000186	1.858168	0.629564	0.015138
 302	1.5050e-01	12.0847	25.584179	0.000181	1.805677	0.611780	0.014710
 303	1.5100e-01	12.1376	25.660724	0.000188	1.879164	0.636678	0.015309
 304	1.5150e-01	12.1505	25.743683	0.000204	2.036636	0.690031	0.016592
 305	1.5200e-01	12.1922	25.825787	0.000202	2.015640	0.682917	0.016421
 306	1.5250e-01	12.2467	25.902332	0.000188	1.879164	0.636678	0.015309
 307	1.5300e-01	12.2772	25.980587	0.000192	1.921157	0.650906	0.015651
 308	1.5350e-01	12.3141	26.056705	0.000187	1.868666	0.633121	0.015223
 309	1.5400e-01	12.3317	26.133677	0.000189	1.889662	0.640235	0.015395
 310	1.5450e-01	12.4119	26.214498	0.000198	1.984146	0.672247	0.016164
 311	1.5500e-01	12.4296	26.292326	0.000191	1.910659	0.647349	0.015566
 312	1.5550e-01	12.4665	26.365022	0.000178	1.784681	0.604666	0.014539
 313	1.5600e-01	12.5210	26.453541	0.000217	2.173112	0.736270	0.017704
 314	1.5650e-01	12.6012	26.524099	0.000173	1.732191	0.586882	0.014112
 315	1.5700e-01	12.6301	26.606203	0.000202	2.015640	0.682917	0.016421
 316	1.5750e-01	12.6446	26.681465	0.000185	1.847670	0.626008	0.015052
 317	1.5800e-01	12.7039	26.748175	0.000164	1.637707	0.554870	0.013342
 318	1.5850e-01	12.7151	26.834555	0.000212	2.120621	0.718486	0.017276
 319	1.5900e-01	12.7857	26.909817	0.000185	1.847670	0.626008	0.015052
 320	1.5950e-01	12.8098	26.987645	0.000191	1.910659	0.647349	0.015566
 321	1.6000e-01	12.8146	27.058631	0.000174	1.742689	0.590439	0.014197
 322	1.6050e-01	12.8579	27.134748	0.000187	1.868666	0.633121	0.015223
 323	1.6100e-01	12.9349	27.221556	0.000213	2.131119	0.722043	0.017362
 324	1.6150e-01	12.9125	27.312640	-0.000224	-2.236100	-0.757611	0.018217
 325	1.6200e-01	13.0151	27.367804	0.000135	1.354258	0.458835	0.011033
 326	1.6250e-01	13.0456	27.447770	0.000196	1.963149	0.665133	0.015993
 327	1.6300e-01	13.0745	27.524742	0.000189	1.889662	0.640235	0.015395
 328	1.6350e-01	13.1435	27.597439	0.000178	1.784681	0.604666	0.014539
 329	1.6400e-01	13.1579	27.686385	0.000218	2.183610	0.739827	0.017789
 330	1.6450e-01	13.2189	27.751384	0.000160	1.595715	0.540643	0.013000
 331	1.6500e-01	13.2510	27.823652	0.000177	1.774183	0.601109	0.014454
 332	1.6550e-01	13.3167	27.900197	0.000188	1.879164	0.636678	0.015309
 333	1.6600e-01	13.3167	27.979308	-0.000194	-1.942153	-0.658019	0.015822
 334	1.6650e-01	13.3713	28.053715	0.000183	1.826674	0.618894	0.014881
 335	1.6700e-01	13.3969	28.135819	0.000202	2.015640	0.682917	0.016421
 336	1.6750e-01	13.4451	28.208515	0.000178	1.784681	0.604666	0.014539
 337	1.6800e-01	13.4836	28.286770	0.000192	1.921157	0.650906	0.015651
 338	1.6850e-01	13.5365	28.358184	0.000175	1.753187	0.593996	0.014283
 339	1.6900e-01	13.5830	28.434729	0.000188	1.879164	0.636678	0.015309
 340	1.6950e-01	13.5911	28.512984	0.000192	1.921157	0.650906	0.015651
 341	1.7000e-01	13.6280	28.583115	0.000172	1.721692	0.583325	0.014026
 342	1.7050e-01	13.6937	28.658804	0.000186	1.858168	0.629564	0.015138
 343	1.7100e-01	13.7338	28.734922	0.000187	1.868666	0.633121	0.015223
 344	1.7150e-01	13.7451	28.812750	0.000191	1.910659	0.647349	0.015566
 345	1.7200e-01	13.8124	28.887584	0.000184	1.837172	0.622451	0.014967
 346	1.7250e-01	13.8253	28.968405	0.000198	1.984146	0.672247	0.016164
 347	1.7300e-01	13.8814	29.033832	0.000161	1.606213	0.544200	0.013085
 348	1.7350e-01	13.9247	29.109522	0.000186	1.858168	0.629564	0.015138
 349	1.7400e-01	13.9681	29.189060	0.000195	1.952651	0.661576	0.015908
 350	1.7450e-01	14.0066	29.259618	0.000173	1.732191	0.586882	0.014112
 351	1.7500e-01	14.0402	29.343005	0.000205	2.047134	0.693588	0.016677
 352	1.7550e-01	14.0900	29.405011	0.000152	1.522228	0.515745	0.012401
 353	1.7600e-01	14.1429	29.495240	0.000222	2.215104	0.750498	0.018046
 354	1.7650e-01	14.1541	29.574778	0.000195	1.952651	0.661576	0.015908
 355	1.7700e-01	14.1814	29.644053	0.000170	1.700696	0.576211	0.013855
 356	1.7750e-01	14.2344	29.710335	0.000163	1.627209	0.551313	0.013256
 357	1.7800e-01	14.2745	29.792439	0.000202	2.015640	0.682917	0.016421
 358	1.7850e-01	14.3402	29.866846	0.000183	1.826674	0.618894	0.014881
 359	1.7900e-01	14.3691	29.934838	0.000167	1.669202	0.565541	0.013598
 360	1.7950e-01	14.4237	30.013949	0.000194	1.942153	0.658019	0.015822
 361	1.8000e-01	14.4285	30.093060	0.000194	1.942153	0.658019	0.015822
 362	1.8050e-01	14.4846	30.164473	0.000175	1.753187	0.593996	0.014283
 363	1.8100e-01	14.5215	30.231183	0.000164	1.637707	0.554870	0.013342
 364	1.8150e-01	14.5424	30.314997	0.000206	2.057632	0.697145	0.016763
 365	1.8200e-01	14.5873	30.393680	0.000193	1.931655	0.654462	0.015737
 366	1.8250e-01	14.6194	30.464666	0.000174	1.742689	0.590439	0.014197
 367	1.8300e-01	14.6450	30.536507	0.000176	1.763685	0.597553	0.014368
 368	1.8350e-01	14.7060	30.610914	0.000183	1.826674	0.618894	0.014881
 369	1.8400e-01	14.7654	30.688742	0.000191	1.910659	0.647349	0.015566
 370	1.8450e-01	14.7942	30.764004	0.000185	1.847670	0.626008	0.015052
 371	1.8500e-01	14.8392	30.834562	0.000173	1.732191	0.586882	0.014112
 372	1.8550e-01	14.9001	30.906831	0.000177	1.774183	0.601109	0.014454
 373	1.8600e-01	14.9466	30.977816	0.000174	1.742689	0.590439	0.014197
 374	1.8650e-01	14.9771	31.056927	0.000194	1.942153	0.658019	0.015822
 375	1.8700e-01	14.9867	31.135610	0.000193	1.931655	0.654462	0.015737
 376	1.8750e-01	15.0477	31.199754	0.000157	1.574719	0.533529	0.012829
 377	1.8800e-01	15.0990	31.273733	0.000182	1.816176	0.615337	0.014796
 378	1.8850e-01	15.1440	31.341725	0.000167	1.669202	0.565541	0.013598
 379	1.8900e-01	15.1407	31.418270	-0.000188	-1.879164	-0.636678	0.015309
 380	1.8950e-01	15.1889	31.487973	0.000171	1.711194	0.579768	0.013941
 381	1.9000e-01	15.2113	31.574354	0.000212	2.120621	0.718486	0.017276
 382	1.9050e-01	15.2659	31.645767	0.000175	1.753187	0.593996	0.014283
 383	1.9100e-01	15.3236	31.714187	0.000168	1.679700	0.569098	0.013684
 384	1.9150e-01	15.3669	31.783890	0.000171	1.711194	0.579768	0.013941
 385	1.9200e-01	15.4006	31.860435	0.000188	1.879164	0.636678	0.015309
 386	1.9250e-01	15.4391	31.933986	0.000181	1.805677	0.611780	0.014710
 387	1.9300e-01	15.4552	32.008821	0.000184	1.837172	0.622451	0.014967
 388	1.9350e-01	15.5145	32.079379	0.000173	1.732191	0.586882	0.014112
 389	1.9400e-01	15.5482	32.149082	0.000171	1.711194	0.579768	0.013941
 390	1.9450e-01	15.5915	32.221351	0.000177	1.774183	0.601109	0.014454
 391	1.9500e-01	15.6365	32.291909	0.000173	1.732191	0.586882	0.014112
 392	1.9550e-01	15.6894	32.371875	0.000196	1.963149	0.665133	0.015993
 393	1.9600e-01	15.7054	32.441150	0.000170	1.700696	0.576211	0.013855
 394	1.9650e-01	15.7776	32.513846	0.000178	1.784681	0.604666	0.014539
 395	1.9700e-01	15.7985	32.589108	0.000185	1.847670	0.626008	0.015052
 396	1.9750e-01	15.8450	32.663088	0.000182	1.816176	0.615337	0.014796
 397	1.9800e-01	15.8739	32.731080	0.000167	1.669202	0.565541	0.013598
 398	1.9850e-01	15.9140	32.806770	0.000186	1.858168	0.629564	0.015138
 399	1.9900e-01	15.9461	32.879038	0.000177	1.774183	0.601109	0.014454
 400	1.9950e-01	16.0038	32.947458	0.000168	1.679700	0.569098	0.013684
 401	2.0000e-01	16.0487	33.019727	0.000177	1.774183	0.601109	0.014454
 402	2.0050e-01	16.1001	33.088147	0.000168	1.679700	0.569098	0.013684
 403	2.0100e-01	16.1290	33.163409	0.000185	1.847670	0.626008	0.015052
 404	2.0150e-01	16.1707	33.245086	0.000201	2.005142	0.679360	0.016335
 405	2.0200e-01	16.1931	33.316071	0.000174	1.742689	0.590439	0.014197
 406	2.0250e-01	16.2332	33.378932	0.000154	1.543224	0.522859	0.012572
 407	2.0300e-01	16.2701	33.452911	0.000182	1.816176	0.615337	0.014796
 408	2.0350e-01	16.2990	33.525180	0.000177	1.774183	0.601109	0.014454
 409	2.0400e-01	16.3616	33.594883	0.000171	1.711194	0.579768	0.013941
 410	2.0450e-01	16.3808	33.665869	0.000174	1.742689	0.590439	0.014197
 411	2.0500e-01	16.4322	33.733434	0.000166	1.658704	0.561984	0.013513
 412	2.0550e-01	16.4578	33.807840	0.000183	1.826674	0.618894	0.014881
 413	2.0600e-01	16.5220	33.878826	0.000174	1.742689	0.590439	0.014197
 414	2.0650e-01	16.5605	33.950240	0.000175	1.753187	0.593996	0.014283
 415	2.0700e-01	16.5878	34.020370	0.000172	1.721692	0.583325	0.014026
 416	2.0750e-01	16.6343	34.092211	0.000176	1.763685	0.597553	0.014368
 417	2.0800e-01	16.6840	34.158493	0.000163	1.627209	0.551313	0.013256
 418	2.0850e-01	16.7225	34.239314	0.000198	1.984146	0.672247	0.016164
 419	2.0900e-01	16.7450	34.310728	0.000175	1.753187	0.593996	0.014283
 420	2.0950e-01	16.7931	34.377437	0.000164	1.637707	0.554870	0.013342
 421	2.1000e-01	16.8412	34.448423	0.000174	1.742689	0.590439	0.014197
 422	2.1050e-01	16.8781	34.529672	0.000199	1.994644	0.675804	0.016250
 423	2.1100e-01	16.9231	34.586974	0.000141	1.406749	0.476619	0.011460
 424	2.1150e-01	16.9311	34.657532	0.000173	1.732191	0.586882	0.014112
 425	2.1200e-01	16.9872	34.734077	0.000188	1.879164	0.636678	0.015309
 426	2.1250e-01	17.0626	34.807201	0.000180	1.795179	0.608223	0.014625
 427	2.1300e-01	17.0722	34.877331	0.000172	1.721692	0.583325	0.014026
 428	2.1350e-01	17.1172	34.946607	0.000170	1.700696	0.576211	0.013855
 429	2.1400e-01	17.1701	35.007757	0.000150	1.501232	0.508631	0.012230
 430	2.1450e-01	17.2150	35.080026	0.000177	1.774183	0.601109	0.014454
 431	2.1500e-01	17.2519	35.156998	0.000189	1.889662	0.640235	0.015395
 432	2.1550e-01	17.2952	35.225418	0.000168	1.679700	0.569098	0.013684
 433	2.1600e-01	17.3289	35.290417	0.000160	1.595715	0.540643	0.013000
 434	2.1650e-01	17.3482	35.362258	0.000176	1.763685	0.597553	0.014368
 435	2.1700e-01	17.4091	35.430678	0.000168	1.679700	0.569098	0.013684
 436	2.1750e-01	17.4380	35.502947	0.000177	1.774183	0.601109	0.014454
 437	2.1800e-01	17.4781	35.570512	0.000166	1.658704	0.561984	0.013513
 438	2.1850e-01	17.5118	35.649622	0.000194	1.942153	0.658019	0.015822
 439	2.1900e-01	17.5535	35.728733	0.000194	1.942153	0.658019	0.015822
 440	2.1950e-01	17.5952	35.787745	0.000145	1.448741	0.490847	0.011802
 441	2.2000e-01	17.6257	35.855738	0.000167	1.669202	0.565541	0.013598
 442	2.2050e-01	17.6883	35.925868	0.000172	1.721692	0.583325	0.014026
 443	2.2100e-01	17.7460	35.995144	0.000170	1.700696	0.576211	0.013855
 444	2.2150e-01	17.7412	36.069550	-0.000183	-1.826674	-0.618894	0.014881
 445	2.2200e-01	17.7958	36.141819	0.000177	1.774183	0.601109	0.014454
 446	2.2250e-01	17.8439	36.209384	0.000166	1.658704	0.561984	0.013513
 447	2.2300e-01	17.8744	36.282080	0.000178	1.784681	0.604666	0.014539
 448	2.2350e-01	17.9113	36.339382	0.000141	1.406749	0.476619	0.011460
 449	2.2400e-01	17.9770	36.406947	0.000166	1.658704	0.561984	0.013513
 450	2.2450e-01	17.9979	36.476222	0.000170	1.700696	0.576211	0.013855
 451	2.2500e-01	18.0460	36.553195	0.000189	1.889662	0.640235	0.015395
 452	2.2550e-01	18.0957	36.621187	0.000167	1.669202	0.565541	0.013598
 453	2.2600e-01	18.1375	36.679344	0.000143	1.427745	0.483733	0.011631
 454	2.2650e-01	18.1439	36.761876	0.000203	2.026138	0.686474	0.016506
 455	2.2700e-01	18.2177	36.826447	0.000159	1.585217	0.537086	0.012914
 456	2.2750e-01	18.2546	36.899144	0.000178	1.784681	0.604666	0.014539
 457	2.2800e-01	18.2834	36.963715	0.000159	1.585217	0.537086	0.012914
 458	2.2850e-01	18.3123	37.031280	0.000166	1.658704	0.561984	0.013513
 459	2.2900e-01	18.3556	37.100555	0.000170	1.700696	0.576211	0.013855
 460	2.2950e-01	18.4134	37.170258	0.000171	1.711194	0.579768	0.013941
 461	2.3000e-01	18.4358	37.240816	0.000173	1.732191	0.586882	0.014112
 462	2.3050e-01	18.4888	37.306243	0.000161	1.606213	0.544200	0.013085
 463	2.3100e-01	18.5161	37.382788	0.000188	1.879164	0.636678	0.015309
 464	2.3150e-01	18.5546	37.452063	0.000170	1.700696	0.576211	0.013855
 465	2.3200e-01	18.6011	37.524332	0.000177	1.774183	0.601109	0.014454
 466	2.3250e-01	18.6316	37.583344	0.000145	1.448741	0.490847	0.011802
 467	2.3300e-01	18.6813	37.653047	0.000171	1.711194	0.579768	0.013941
 468	2.3350e-01	18.7182	37.724460	0.000175	1.753187	0.593996	0.014283
 469	2.3400e-01	18.7294	37.797157	0.000178	1.784681	0.604666	0.014539
 470	2.3450e-01	18.7968	37.855741	0.000144	1.438243	0.487290	0.011717
 471	2.3500e-01	18.8417	37.928010	0.000177	1.774183	0.601109	0.014454
 472	2.3550e-01	18.8882	37.992154	0.000157	1.574719	0.533529	0.012829
 473	2.3600e-01	18.9219	38.058436	0.000163	1.627209	0.551313	0.013256
 474	2.3650e-01	18.9813	38.133270	0.000184	1.837172	0.622451	0.014967
 475	2.3700e-01	18.9925	38.204256	0.000174	1.742689	0.590439	0.014197
 476	2.3750e-01	19.0503	38.272248	0.000167	1.669202	0.565541	0.013598
 477	2.3800e-01	19.1032	38.332971	0.000149	1.490734	0.505074	0.012145
 478	2.3850e-01	19.1289	38.406523	0.000181	1.805677	0.611780	0.014710
 479	2.3900e-01	19.1594	38.460403	0.000132	1.322764	0.448164	0.010776
 480	2.3950e-01	19.1995	38.543790	0.000205	2.047134	0.693588	0.016677
 481	2.4000e-01	19.2428	38.609217	0.000161	1.606213	0.544200	0.013085
 482	2.4050e-01	19.2749	38.678065	0.000169	1.690198	0.572655	0.013770
 483	2.4100e-01	19.3166	38.749906	0.000176	1.763685	0.597553	0.014368
 484	2.4150e-01	19.3631	38.822174	0.000177	1.774183	0.601109	0.014454
 485	2.4200e-01	19.4224	38.876483	0.000133	1.333262	0.451721	0.010862
 486	2.4250e-01	19.4176	38.965001	-0.000217	-2.173112	-0.736270	0.017704
 487	2.4300e-01	19.5059	39.014178	0.000121	1.207284	0.409039	0.009835
 488	2.4350e-01	19.5267	39.086019	0.000176	1.763685	0.597553	0.014368
 489	2.4400e-01	19.5588	39.151873	0.000162	1.616711	0.547757	0.013171
 490	2.4450e-01	19.6037	39.224142	0.000177	1.774183	0.601109	0.014454
 491	2.4500e-01	19.6454	39.288286	0.000157	1.574719	0.533529	0.012829
 492	2.4550e-01	19.7032	39.356706	0.000168	1.679700	0.569098	0.013684
 493	2.4600e-01	19.7192	39.419139	0.000153	1.532726	0.519302	0.012487
 494	2.4650e-01	19.7497	39.482855	0.000156	1.564221	0.529972	0.012743
 495	2.4700e-01	19.8075	39.561111	0.000192	1.921157	0.650906	0.015651
 496	2.4750e-01	19.8331	39.625255	0.000157	1.574719	0.533529	0.012829
 497	2.4800e-01	19.8829	39.692819	0.000166	1.658704	0.561984	0.013513
 498	2.4850e-01	19.9149	39.760384	0.000166	1.658704	0.561984	0.013513
 499	2.4900e-01	19.9855	39.821962	0.000151	1.511730	0.512188	0.012316
 500	2.4950e-01	19.9887	39.885678	0.000156	1.564221	0.529972	0.012743
 501	2.5000e-01	20.0449	39.957947	0.000177	1.774183	0.601109	0.014454
 502	2.5050e-01	19.9823	40.004558	-0.000114	-1.144296	-0.387698	0.009322
 503	2.5100e-01	19.9454	40.013111	-0.000021	-0.209962	-0.071137	0.001711
 504	2.5150e-01	19.9005	39.986598	0.000065	0.650884	0.220525	-0.005303
 505	2.5200e-01	19.8716	39.949822	0.000090	0.902839	0.305890	-0.007355
 506	2.5250e-01	19.8219	39.902783	0.000115	1.154794	0.391255	-0.009408
 507	2.5300e-01	19.7786	39.860876	0.000103	1.028816	0.348572	-0.008381
 508	2.5350e-01	19.7497	39.793739	0.000165	1.648206	0.558427	-0.013427
 509	2.5400e-01	19.6984	39.739431	0.000133	1.333262	0.451721	-0.010862
 510	2.5450e-01	19.6615	39.678708	0.000149	1.490734	0.505074	-0.012145
 511	2.5500e-01	19.6182	39.628676	0.000123	1.228281	0.416153	-0.010006
 512	2.5550e-01	19.5700	39.562394	0.000163	1.627209	0.551313	-0.013256
 513	2.5600e-01	19.5524	39.502099	0.000148	1.480236	0.501517	-0.012059
 514	2.5650e-01	19.5011	39.439665	0.000153	1.532726	0.519302	-0.012487
 515	2.5700e-01	19.4561	39.376377	0.000155	1.553722	0.526415	-0.012658
 516	2.5750e-01	19.4144	39.312661	0.000156	1.564221	0.529972	-0.012743
 517	2.5800e-01	19.4144	39.256642	0.000138	1.375254	0.465949	-0.011204
 518	2.5850e-01	19.3326	39.202333	0.000133	1.333262	0.451721	-0.010862
 519	2.5900e-01	19.3102	39.135196	0.000165	1.648206	0.558427	-0.013427
 520	2.5950e-01	19.2572	39.088157	0.000115	1.154794	0.391255	-0.009408
 521	2.6000e-01	19.1995	39.024014	0.000157	1.574719	0.533529	-0.012829
 522	2.6050e-01	19.1786	38.966284	0.000142	1.417247	0.480176	-0.011546
 523	2.6100e-01	19.1497	38.904706	0.000151	1.511730	0.512188	-0.012316
 524	2.6150e-01	19.1385	38.835858	0.000169	1.690198	0.572655	-0.013770
 525	2.6200e-01	19.0823	38.769576	0.000163	1.627209	0.551313	-0.013256
 526	2.6250e-01	19.0262	38.722965	0.000114	1.144296	0.387698	-0.009322
 527	2.6300e-01	18.9604	38.648986	0.000182	1.816176	0.615337	-0.014796
 528	2.6350e-01	18.9540	38.586553	0.000153	1.532726	0.519302	-0.012487
 529	2.6400e-01	18.8770	38.519416	0.000165	1.648206	0.558427	-0.013427
 530	2.6450e-01	18.8722	38.467673	0.000127	1.270273	0.430380	-0.010349
 531	2.6500e-01	18.7952	38.407378	0.000148	1.480236	0.501517	-0.012059
 532	2.6550e-01	18.7727	38.338530	0.000169	1.690198	0.572655	-0.013770
 533	2.6600e-01	18.7647	38.277807	0.000149	1.490734	0.505074	-0.012145
 534	2.6650e-01	18.6861	38.226492	0.000126	1.259775	0.426823	-0.010263
 535	2.6700e-01	18.6636	38.156362	0.000172	1.721692	0.583325	-0.014026
 536	2.6750e-01	18.6300	38.094784	0.000151	1.511730	0.512188	-0.012316
 537	2.6800e-01	18.5818	38.036199	0.000144	1.438243	0.487290	-0.011717
 538	2.6850e-01	18.5610	37.973338	0.000154	1.543224	0.522859	-0.012572
 539	2.6900e-01	18.4936	37.901925	0.000175	1.753187	0.593996	-0.014283
 540	2.6950e-01	18.4888	37.833505	0.000168	1.679700	0.569098	-0.013684
 541	2.7000e-01	18.4262	37.772782	0.000149	1.490734	0.505074	-0.012145
 542	2.7050e-01	18.3893	37.714625	0.000143	1.427745	0.483733	-0.011631
 543	2.7100e-01	18.3364	37.652192	0.000153	1.532726	0.519302	-0.012487
 544	2.7150e-01	18.2995	37.592752	0.000146	1.459239	0.494404	-0.011888
 545	2.7200e-01	18.2658	37.526470	0.000163	1.627209	0.551313	-0.013256
 546	2.7250e-01	18.2161	37.464037	0.000153	1.532726	0.519302	-0.012487
 547	2.7300e-01	18.1792	37.393906	0.000172	1.721692	0.583325	-0.014026
 548	2.7350e-01	18.1262	37.334894	0.000145	1.448741	0.490847	-0.011802
 549	2.7400e-01	18.0941	37.277164	0.000142	1.417247	0.480176	-0.011546
 550	2.7450e-01	18.0492	37.215159	0.000152	1.522228	0.515745	-0.012401
 551	2.7500e-01	18.0187	37.157002	0.000143	1.427745	0.483733	-0.011631
 552	2.7550e-01	17.9786	37.087299	0.000171	1.711194	0.579768	-0.013941
 553	2.7600e-01	17.9353	37.021872	0.000161	1.606213	0.544200	-0.013085
 554	2.7650e-01	17.8695	36.956445	0.000161	1.606213	0.544200	-0.013085
 555	2.7700e-01	17.8679	36.891019	0.000161	1.606213	0.544200	-0.013085
 556	2.7750e-01	17.8230	36.824309	0.000164	1.637707	0.554870	-0.013342
 557	2.7800e-01	17.7685	36.763159	0.000150	1.501232	0.508631	-0.012230
 558	2.7850e-01	17.7653	36.692173	0.000174	1.742689	0.590439	-0.014197
 559	2.7900e-01	17.6867	36.626319	0.000162	1.616711	0.547757	-0.013171
 560	2.7950e-01	17.6434	36.566879	0.000146	1.459239	0.494404	-0.011888
 561	2.8000e-01	17.6273	36.499742	0.000165	1.648206	0.558427	-0.013427
 562	2.8050e-01	17.5840	36.436453	0.000155	1.553722	0.526415	-0.012658
 563	2.8100e-01	17.5487	36.377013	0.000146	1.459239	0.494404	-0.011888
 564	2.8150e-01	17.4910	36.308593	0.000168	1.679700	0.569098	-0.013684
 565	2.8200e-01	17.4348	36.255140	0.000131	1.312266	0.444608	-0.010691
 566	2.8250e-01	17.4300	36.180733	0.000183	1.826674	0.618894	-0.014881
 567	2.8300e-01	17.3819	36.112313	0.000168	1.679700	0.569098	-0.013684
 568	2.8350e-01	17.3466	36.048597	0.000156	1.564221	0.529972	-0.012743
 569	2.8400e-01	17.2936	35.983598	0.000160	1.595715	0.540643	-0.013000
 570	2.8450e-01	17.2615	35.919454	0.000157	1.574719	0.533529	-0.012829
 571	2.8500e-01	17.2166	35.853600	0.000162	1.616711	0.547757	-0.013171
 572	2.8550e-01	17.1781	35.789884	0.000156	1.564221	0.529972	-0.012743
 573	2.8600e-01	17.1412	35.724885	0.000160	1.595715	0.540643	-0.013000
 574	2.8650e-01	17.0803	35.655182	0.000171	1.711194	0.579768	-0.013941
 575	2.8700e-01	17.0450	35.591465	0.000156	1.564221	0.529972	-0.012743
 576	2.8750e-01	17.0065	35.536729	0.000134	1.343760	0.455278	-0.010947
 577	2.8800e-01	16.9616	35.460612	0.000187	1.868666	0.633121	-0.015223
 578	2.8850e-01	16.9455	35.391764	0.000169	1.690198	0.572655	-0.013770
 579	2.8900e-01	16.9102	35.333180	0.000144	1.438243	0.487290	-0.011717
 580	2.8950e-01	16.8509	35.266043	0.000165	1.648206	0.558427	-0.013427
 581	2.9000e-01	16.8172	35.207030	0.000145	1.448741	0.490847	-0.011802
 582	2.9050e-01	16.7578	35.143314	0.000156	1.564221	0.529972	-0.012743
 583	2.9100e-01	16.7161	35.068907	0.000183	1.826674	0.618894	-0.014881
 584	2.9150e-01	16.6985	34.998777	0.000172	1.721692	0.583325	-0.014026
 585	2.9200e-01	16.6760	34.930357	0.000168	1.679700	0.569098	-0.013684
 586	2.9250e-01	16.6487	34.864502	0.000162	1.616711	0.547757	-0.013171
 587	2.9300e-01	16.5669	34.796082	0.000168	1.679700	0.569098	-0.013684
 588	2.9350e-01	16.5412	34.729373	0.000164	1.637707	0.554870	-0.013342
 589	2.9400e-01	16.4514	34.671216	0.000143	1.427745	0.483733	-0.011631
 590	2.9450e-01	16.4514	34.595099	0.000187	1.868666	0.633121	-0.015223
 591	2.9500e-01	16.4193	34.533520	0.000151	1.511730	0.512188	-0.012316
 592	2.9550e-01	16.3937	34.465956	0.000166	1.658704	0.561984	-0.013513
 593	2.9600e-01	16.3327	34.407371	0.000144	1.438243	0.487290	-0.011717
 594	2.9650e-01	16.2910	34.338096	0.000170	1.700696	0.576211	-0.013855
 595	2.9700e-01	16.2653	34.273952	0.000157	1.574719	0.533529	-0.012829
 596	2.9750e-01	16.2124	34.209381	0.000159	1.585217	0.537086	-0.012914
 597	2.9800e-01	16.1835	34.134974	0.000183	1.826674	0.618894	-0.014881
 598	2.9850e-01	16.1257	34.071258	0.000156	1.564221	0.529972	-0.012743
 599	2.9900e-01	16.1049	34.001982	0.000170	1.700696	0.576211	-0.013855
 600	2.9950e-01	16.0680	33.938694	0.000155	1.553722	0.526415	-0.012658
 601	3.0000e-01	16.0327	33.863859	0.000184	1.837172	0.622451	-0.014967
 602	3.0050e-01	16.0118	33.801854	0.000152	1.522228	0.515745	-0.012401
 603	3.0100e-01	15.9461	33.733006	0.000169	1.690198	0.572655	-0.013770
 604	3.0150e-01	15.8883	33.665441	0.000166	1.658704	0.561984	-0.013513
 605	3.0200e-01	15.8707	33.599587	0.000162	1.616711	0.547757	-0.013171
 606	3.0250e-01	15.8193	33.531594	0.000167	1.669202	0.565541	-0.013598
 607	3.0300e-01	15.7792	33.461036	0.000173	1.732191	0.586882	-0.014112
 608	3.0350e-01	15.7279	33.396893	0.000157	1.574719	0.533529	-0.012829
 609	3.0400e-01	15.6894	33.322058	0.000184	1.837172	0.622451	-0.014967
 610	3.0450e-01	15.6429	33.263046	0.000145	1.448741	0.490847	-0.011802
 611	3.0500e-01	15.6252	33.192488	0.000173	1.732191	0.586882	-0.014112
 612	3.0550e-01	15.5707	33.128771	0.000156	1.564221	0.529972	-0.012743
 613	3.0600e-01	15.5370	33.067193	0.000151	1.511730	0.512188	-0.012316
 614	3.0650e-01	15.5033	32.986800	0.000197	1.973647	0.668690	-0.016079
 615	3.0700e-01	15.4520	32.925222	0.000151	1.511730	0.512188	-0.012316
 616	3.0750e-01	15.4119	32.852526	0.000178	1.784681	0.604666	-0.014539
 617	3.0800e-01	15.3734	32.790520	0.000152	1.522228	0.515745	-0.012401
 618	3.0850e-01	15.3461	32.708416	0.000202	2.015640	0.682917	-0.016421
 619	3.0900e-01	15.2835	32.641279	0.000165	1.648206	0.558427	-0.013427
 620	3.0950e-01	15.2563	32.578418	0.000154	1.543224	0.522859	-0.012572
 621	3.1000e-01	15.1985	32.508287	0.000172	1.721692	0.583325	-0.014026
 622	3.1050e-01	15.1696	32.447992	0.000148	1.480236	0.501517	-0.012059
 623	3.1100e-01	15.1440	32.370164	0.000191	1.910659	0.647349	-0.015566
 624	3.1150e-01	15.0814	32.312862	0.000141	1.406749	0.476619	-0.011460
 625	3.1200e-01	15.0589	32.244442	0.000168	1.679700	0.569098	-0.013684
 626	3.1250e-01	15.0188	32.177733	0.000164	1.637707	0.554870	-0.013342
 627	3.1300e-01	14.9531	32.105892	0.000176	1.763685	0.597553	-0.014368
 628	3.1350e-01	14.9290	32.035761	0.000172	1.721692	0.583325	-0.014026
 629	3.1400e-01	14.9081	31.957078	0.000193	1.931655	0.654462	-0.015737
 630	3.1450e-01	14.8712	31.893362	0.000156	1.564221	0.529972	-0.012743
 631	3.1500e-01	14.8183	31.824514	0.000169	1.690198	0.572655	-0.013770
 632	3.1550e-01	14.7525	31.756522	0.000167	1.669202	0.565541	-0.013598
 633	3.1600e-01	14.7525	31.692378	0.000157	1.574719	0.533529	-0.012829
 634	3.1650e-01	14.7188	31.619254	0.000180	1.795179	0.608223	-0.014625
 635	3.1700e-01	14.6659	31.550834	0.000168	1.679700	0.569098	-0.013684
 636	3.1750e-01	14.6194	31.478993	0.000176	1.763685	0.597553	-0.014368
 637	3.1800e-01	14.5680	31.403303	0.000186	1.858168	0.629564	-0.015138
 638	3.1850e-01	14.5632	31.336594	0.000164	1.637707	0.554870	-0.013342
 639	3.1900e-01	14.5071	31.268602	0.000167	1.669202	0.565541	-0.013598
 640	3.1950e-01	14.4654	31.196333	0.000177	1.774183	0.601109	-0.014454
 641	3.2000e-01	14.4237	31.130906	0.000161	1.606213	0.544200	-0.013085
 642	3.2050e-01	14.3884	31.059493	0.000175	1.753187	0.593996	-0.014283
 643	3.2100e-01	14.3322	30.987224	0.000177	1.774183	0.601109	-0.014454
 644	3.2150e-01	14.2793	30.929922	0.000141	1.406749	0.476619	-0.011460
 645	3.2200e-01	14.2488	30.865351	0.000159	1.585217	0.537086	-0.012914
 646	3.2250e-01	14.2231	30.790944	0.000183	1.826674	0.618894	-0.014881
 647	3.2300e-01	14.1830	30.709695	0.000199	1.994644	0.675804	-0.016250
 648	3.2350e-01	14.1285	30.647690	0.000152	1.522228	0.515745	-0.012401
 649	3.2400e-01	14.0884	30.577131	0.000173	1.732191	0.586882	-0.014112
 650	3.2450e-01	14.0675	30.498876	0.000192	1.921157	0.650906	-0.015651
 651	3.2500e-01	14.0322	30.427463	0.000175	1.753187	0.593996	-0.014283
 652	3.2550e-01	13.9825	30.359898	0.000166	1.658704	0.561984	-0.013513
 653	3.2600e-01	13.9376	30.292333	0.000166	1.658704	0.561984	-0.013513
 654	3.2650e-01	13.8766	30.217926	0.000183	1.826674	0.618894	-0.014881
 655	3.2700e-01	13.8445	30.148223	0.000171	1.711194	0.579768	-0.013941
 656	3.2750e-01	13.8301	30.075955	0.000177	1.774183	0.601109	-0.014454
 657	3.2800e-01	13.7627	30.010528	0.000161	1.606213	0.544200	-0.013085
 658	3.2850e-01	13.7354	29.935266	0.000185	1.847670	0.626008	-0.015052
 659	3.2900e-01	13.6841	29.864280	0.000174	1.742689	0.590439	-0.014197
 660	3.2950e-01	13.6600	29.786025	0.000192	1.921157	0.650906	-0.015651
 661	3.3000e-01	13.6135	29.720170	0.000162	1.616711	0.547757	-0.013171
 662	3.3050e-01	13.5526	29.641487	0.000193	1.931655	0.654462	-0.015737
 663	3.3100e-01	13.5349	29.578626	0.000154	1.543224	0.522859	-0.012572
 664	3.3150e-01	13.4820	29.500371	0.000192	1.921157	0.650906	-0.015651
 665	3.3200e-01	13.4467	29.433234	0.000165	1.648206	0.558427	-0.013427
 666	3.3250e-01	13.4306	29.362248	0.000174	1.742689	0.590439	-0.014197
 667	3.3300e-01	13.3745	29.297249	0.000160	1.595715	0.540643	-0.013000
 668	3.3350e-01	13.3039	29.226263	0.000174	1.742689	0.590439	-0.014197
 669	3.3400e-01	13.2863	29.157416	0.000169	1.690198	0.572655	-0.013770
 670	3.3450e-01	13.2718	29.084292	0.000180	1.795179	0.608223	-0.014625
 671	3.3500e-01	13.2237	29.009885	0.000183	1.826674	0.618894	-0.014881
 672	3.3550e-01	13.1531	28.942748	0.000165	1.648206	0.558427	-0.013427
 673	3.3600e-01	13.1274	28.867486	0.000185	1.847670	0.626008	-0.015052
 674	3.3650e-01	13.0937	28.794362	0.000180	1.795179	0.608223	-0.014625
 675	3.3700e-01	13.0777	28.713541	0.000198	1.984146	0.672247	-0.016164
 676	3.3750e-01	13.0296	28.639134	0.000183	1.826674	0.618894	-0.014881
 677	3.3800e-01	12.9686	28.577556	0.000151	1.511730	0.512188	-0.012316
 678	3.3850e-01	12.9430	28.501011	0.000188	1.879164	0.636678	-0.015309
 679	3.3900e-01	12.9349	28.422328	0.000193	1.931655	0.654462	-0.015737
 680	3.3950e-01	12.8547	28.349204	0.000180	1.795179	0.608223	-0.014625
 681	3.4000e-01	12.8146	28.282494	0.000164	1.637707	0.554870	-0.013342
 682	3.4050e-01	12.7970	28.216212	0.000163	1.627209	0.551313	-0.013256
 683	3.4100e-01	12.7312	28.144371	0.000176	1.763685	0.597553	-0.014368
 684	3.4150e-01	12.6943	28.069537	0.000184	1.837172	0.622451	-0.014967
 685	3.4200e-01	12.6863	27.993847	0.000186	1.858168	0.629564	-0.015138
 686	3.4250e-01	12.6414	27.923289	0.000173	1.732191	0.586882	-0.014112
 687	3.4300e-01	12.5515	27.855724	0.000166	1.658704	0.561984	-0.013513
 688	3.4350e-01	12.5563	27.781745	-0.000182	-1.816176	-0.615337	-0.014796
 689	3.4400e-01	12.5066	27.712470	0.000170	1.700696	0.576211	-0.013855
 690	3.4450e-01	12.4729	27.634642	0.000191	1.910659	0.647349	-0.015566
 691	3.4500e-01	12.4296	27.566222	0.000168	1.679700	0.569098	-0.013684
 692	3.4550e-01	12.3895	27.486684	0.000195	1.952651	0.661576	-0.015908
 693	3.4600e-01	12.3173	27.422112	0.000159	1.585217	0.537086	-0.012914
 694	3.4650e-01	12.3077	27.337442	0.000208	2.078629	0.704258	-0.016934
 695	3.4700e-01	12.2724	27.260897	0.000188	1.879164	0.636678	-0.015309
 696	3.4750e-01	12.2275	27.193760	0.000165	1.648206	0.558427	-0.013427
 697	3.4800e-01	12.1761	27.126623	0.000165	1.648206	0.558427	-0.013427
 698	3.4850e-01	12.1232	27.045802	0.000198	1.984146	0.672247	-0.016164
 699	3.4900e-01	12.1007	26.969257	0.000188	1.879164	0.636678	-0.015309
 700	3.4950e-01	12.0526	26.901265	0.000167	1.669202	0.565541	-0.013598
 701	3.5000e-01	12.0382	26.822582	0.000193	1.931655	0.654462	-0.015737
 702	3.5050e-01	12.0125	26.750740	0.000176	1.763685	0.597553	-0.014368
 703	3.5100e-01	11.9130	26.678044	0.000178	1.784681	0.604666	-0.014539
 704	3.5150e-01	11.9034	26.607486	0.000173	1.732191	0.586882	-0.014112
 705	3.5200e-01	11.8633	26.522816	0.000208	2.078629	0.704258	-0.016934
 706	3.5250e-01	11.8280	26.456962	0.000162	1.616711	0.547757	-0.013171
 707	3.5300e-01	11.7735	26.385976	0.000174	1.742689	0.590439	-0.014197
 708	3.5350e-01	11.7398	26.301734	0.000207	2.068131	0.700702	-0.016848
 709	3.5400e-01	11.6868	26.224761	0.000189	1.889662	0.640235	-0.015395
 710	3.5450e-01	11.6499	26.153348	0.000175	1.753187	0.593996	-0.014283
 711	3.5500e-01	11.6179	26.078086	0.000185	1.847670	0.626008	-0.015052
 712	3.5550e-01	11.5777	25.997692	0.000197	1.973647	0.668690	-0.016079
 713	3.5600e-01	11.5441	25.929700	0.000167	1.669202	0.565541	-0.013598
 714	3.5650e-01	11.5184	25.856148	0.000181	1.805677	0.611780	-0.014710
 715	3.5700e-01	11.4478	25.783880	0.000177	1.774183	0.601109	-0.014454
 716	3.5750e-01	11.4318	25.704769	0.000194	1.942153	0.658019	-0.015822
 717	3.5800e-01	11.3387	25.632500	0.000177	1.774183	0.601109	-0.014454
 718	3.5850e-01	11.3483	25.553390	-0.000194	-1.942153	-0.658019	-0.015822
 719	3.5900e-01	11.2954	25.479411	0.000182	1.816176	0.615337	-0.014796
 720	3.5950e-01	11.2521	25.407997	0.000175	1.753187	0.593996	-0.014283
 721	3.6000e-01	11.2200	25.326321	0.000201	2.005142	0.679360	-0.016335
 722	3.6050e-01	11.1703	25.252342	0.000182	1.816176	0.615337	-0.014796
 723	3.6100e-01	11.1334	25.172376	0.000196	1.963149	0.665133	-0.015993
 724	3.6150e-01	11.1398	25.092410	-0.000196	-1.963149	-0.665133	-0.015993
 725	3.6200e-01	11.0644	25.025700	0.000164	1.637707	0.554870	-0.013342
 726	3.6250e-01	10.9986	24.954287	0.000175	1.753187	0.593996	-0.014283
 727	3.6300e-01	10.9633	24.875176	0.000194	1.942153	0.658019	-0.015822
 728	3.6350e-01	10.9361	24.796493	0.000193	1.931655	0.654462	-0.015737
 729	3.6400e-01	10.8943	24.732349	0.000157	1.574719	0.533529	-0.012829
 730	3.6450e-01	10.8542	24.642120	0.000222	2.215104	0.750498	-0.018046
 731	3.6500e-01	10.7997	24.571562	0.000173	1.732191	0.586882	-0.014112
 732	3.6550e-01	10.7901	24.484327	0.000214	2.141617	0.725600	-0.017447
 733	3.6600e-01	10.7612	24.407782	0.000188	1.879164	0.636678	-0.015309
 734	3.6650e-01	10.7227	24.328671	0.000194	1.942153	0.658019	-0.015822
 735	3.6700e-01	10.6553	24.267093	0.000151	1.511730	0.512188	-0.012316
 736	3.6750e-01	10.6216	24.176864	0.000222	2.215104	0.750498	-0.018046
 737	3.6800e-01	10.5783	24.104595	0.000177	1.774183	0.601109	-0.014454
 738	3.6850e-01	10.5382	24.022919	0.000201	2.005142	0.679360	-0.016335
 739	3.6900e-01	10.5206	23.944236	0.000193	1.931655	0.654462	-0.015737
 740	3.6950e-01	10.4548	23.876243	0.000167	1.669202	0.565541	-0.013598
 741	3.7000e-01	10.3922	23.806968	0.000170	1.700696	0.576211	-0.013855
 742	3.7050e-01	10.3666	23.722726	0.000207	2.068131	0.700702	-0.016848
 743	3.7100e-01	10.3329	23.639767	0.000204	2.036636	0.690031	-0.016592
 744	3.7150e-01	10.3120	23.563649	0.000187	1.868666	0.633121	-0.015223
 745	3.7200e-01	10.2543	23.484539	0.000194	1.942153	0.658019	-0.015822
 746	3.7250e-01	10.2206	23.411842	0.000178	1.784681	0.604666	-0.014539
 747	3.7300e-01	10.1644	23.331876	0.000196	1.963149	0.665133	-0.015993
 748	3.7350e-01	10.1532	23.257042	0.000184	1.837172	0.622451	-0.014967
 749	3.7400e-01	10.1211	23.171945	0.000209	2.089127	0.707815	-0.017019
 750	3.7450e-01	10.0489	23.100104	0.000176	1.763685	0.597553	-0.014368
 751	3.7500e-01	10.0168	23.015434	0.000208	2.078629	0.704258	-0.016934
 752	3.7550e-01	9.9912	22.932047	0.000205	2.047134	0.693588	-0.016677
 753	3.7600e-01	9.9527	22.867048	0.000160	1.595715	0.540643	-0.013000
 754	3.7650e-01	9.8917	22.779812	0.000214	2.141617	0.725600	-0.017447
 755	3.7700e-01	9.8372	22.710965	0.000169	1.690198	0.572655	-0.013770
 756	3.7750e-01	9.8067	22.627150	0.000206	2.057632	0.697145	-0.016763
 757	3.7800e-01	9.7602	22.551888	0.000185	1.847670	0.626008	-0.015052
 758	3.7850e-01	9.7553	22.472777	0.000194	1.942153	0.658019	-0.015822
 759	3.7900e-01	9.7040	22.388963	0.000206	2.057632	0.697145	-0.016763
 760	3.7950e-01	9.6575	22.321398	0.000166	1.658704	0.561984	-0.013513
 761	3.8000e-01	9.6045	22.241432	0.000196	1.963149	0.665133	-0.015993
 762	3.8050e-01	9.5917	22.161038	0.000197	1.973647	0.668690	-0.016079
 763	3.8100e-01	9.5275	22.082355	0.000193	1.931655	0.654462	-0.015737
 764	3.8150e-01	9.4842	22.007093	0.000185	1.847670	0.626008	-0.015052
 765	3.8200e-01	9.4602	21.926700	0.000197	1.973647	0.668690	-0.016079
 766	3.8250e-01	9.4008	21.847589	0.000194	1.942153	0.658019	-0.015822
 767	3.8300e-01	9.3848	21.762064	0.000210	2.099625	0.711372	-0.017105
 768	3.8350e-01	9.3254	21.684236	0.000191	1.910659	0.647349	-0.015566
 769	3.8400e-01	9.3046	21.599139	0.000209	2.089127	0.707815	-0.017019
 770	3.8450e-01	9.2500	21.521739	0.000190	1.900161	0.643792	-0.015480
 771	3.8500e-01	9.2019	21.442628	0.000194	1.942153	0.658019	-0.015822
 772	3.8550e-01	9.1714	21.367366	0.000185	1.847670	0.626008	-0.015052
 773	3.8600e-01	9.1297	21.286117	0.000199	1.994644	0.675804	-0.016250
 774	3.8650e-01	9.1008	21.208289	0.000191	1.910659	0.647349	-0.015566
 775	3.8700e-01	9.0623	21.127041	0.000199	1.994644	0.675804	-0.016250
 776	3.8750e-01	8.9917	21.052206	0.000184	1.837172	0.622451	-0.014967
 777	3.8800e-01	8.9612	20.962832	0.000219	2.194108	0.743384	-0.017875
 778	3.8850e-01	8.9308	20.886715	0.000187	1.868666	0.633121	-0.015223
 779	3.8900e-01	8.8939	20.809743	0.000189	1.889662	0.640235	-0.015395
 780	3.8950e-01	8.8441	20.714810	0.000233	2.330584	0.789623	-0.018987
 781	3.9000e-01	8.8056	20.646390	0.000168	1.679700	0.569098	-0.013684
 782	3.9050e-01	8.7415	20.562148	0.000207	2.068131	0.700702	-0.016848
 783	3.9100e-01	8.7350	20.486458	0.000186	1.858168	0.629564	-0.015138
 784	3.9150e-01	8.6933	20.396657	0.000220	2.204606	0.746941	-0.017960
 785	3.9200e-01	8.6484	20.321822	0.000184	1.837172	0.622451	-0.014967
 786	3.9250e-01	8.5955	20.235869	0.000211	2.110123	0.714929	-0.017191
 787	3.9300e-01	8.5714	20.146923	0.000218	2.183610	0.739827	-0.017789
 788	3.9350e-01	8.5538	20.070378	0.000188	1.879164	0.636678	-0.015309
 789	3.9400e-01	8.4928	19.995972	0.000183	1.826674	0.618894	-0.014881
 790	3.9450e-01	8.4254	19.907026	0.000218	2.183610	0.739827	-0.017789
 791	3.9500e-01	8.4142	19.829198	0.000191	1.910659	0.647349	-0.015566
 792	3.9550e-01	8.3725	19.753508	0.000186	1.858168	0.629564	-0.015138
 793	3.9600e-01	8.3196	19.667983	0.000210	2.099625	0.711372	-0.017105
 794	3.9650e-01	8.3083	19.590155	0.000191	1.910659	0.647349	-0.015566
 795	3.9700e-01	8.2746	19.509762	0.000197	1.973647	0.668690	-0.016079
 796	3.9750e-01	8.1912	19.425092	0.000208	2.078629	0.704258	-0.016934
 797	3.9800e-01	8.1639	19.341705	0.000205	2.047134	0.693588	-0.016677
 798	3.9850e-01	8.1158	19.266871	0.000184	1.837172	0.622451	-0.014967
 799	3.9900e-01	8.0837	19.181773	0.000209	2.089127	0.707815	-0.017019
 800	3.9950e-01	8.0565	19.091544	0.000222	2.215104	0.750498	-0.018046
 801	4.0000e-01	8.0003	19.012006	0.000195	1.952651	0.661576	-0.015908
 802	4.0050e-01	7.9778	18.924770	0.000214	2.141617	0.725600	-0.017447
 803	4.0100e-01	7.9089	18.856350	0.000168	1.679700	0.569098	-0.013684
 804	4.0150e-01	7.9057	18.768259	0.000216	2.162614	0.732713	-0.017618
 805	4.0200e-01	7.8672	18.685728	0.000203	2.026138	0.686474	-0.016506
 806	4.0250e-01	7.7837	18.609183	0.000188	1.879164	0.636678	-0.015309
 807	4.0300e-01	7.7677	18.521520	0.000215	2.152115	0.729156	-0.017533
 808	4.0350e-01	7.7356	18.435567	0.000211	2.110123	0.714929	-0.017191
 809	4.0400e-01	7.6907	18.350897	0.000208	2.078629	0.704258	-0.016934
 810	4.0450e-01	7.6586	18.271787	0.000194	1.942153	0.658019	-0.015822
 811	4.0500e-01	7.5960	18.185834	0.000211	2.110123	0.714929	-0.017191
 812	4.0550e-01	7.5912	18.097743	0.000216	2.162614	0.732713	-0.017618
 813	4.0600e-01	7.5014	18.021198	0.000188	1.879164	0.636678	-0.015309
 814	4.0650e-01	7.4934	17.931824	0.000219	2.194108	0.743384	-0.017875
 815	4.0700e-01	7.4372	17.858273	0.000181	1.805677	0.611780	-0.014710
 816	4.0750e-01	7.4228	17.758209	0.000246	2.456561	0.832305	-0.020013
 817	4.0800e-01	7.3586	17.686368	0.000176	1.763685	0.597553	-0.014368
 818	4.0850e-01	7.3378	17.602553	0.000206	2.057632	0.697145	-0.016763
 819	4.0900e-01	7.2944	17.517456	0.000209	2.089127	0.707815	-0.017019
 820	4.0950e-01	7.2848	17.427654	0.000220	2.204606	0.746941	-0.017960
 821	4.1000e-01	7.2078	17.354958	0.000178	1.784681	0.604666	-0.014539
 822	4.1050e-01	7.1838	17.258742	0.000236	2.362078	0.800294	-0.019243
 823	4.1100e-01	7.1485	17.171934	0.000213	2.131119	0.722043	-0.017362
 824	4.1150e-01	7.1100	17.094534	0.000190	1.900161	0.643792	-0.015480
 825	4.1200e-01	7.0506	17.014141	0.000197	1.973647	0.668690	-0.016079
 826	4.1250e-01	7.0121	16.926905	0.000214	2.141617	0.725600	-0.017447
 827	4.1300e-01	6.9560	16.848222	0.000193	1.931655	0.654462	-0.015737
 828	4.1350e-01	6.9239	16.758848	0.000219	2.194108	0.743384	-0.017875
 829	4.1400e-01	6.8709	16.669902	0.000218	2.183610	0.739827	-0.017789
 830	4.1450e-01	6.8661	16.586515	0.000205	2.047134	0.693588	-0.016677
 831	4.1500e-01	6.8019	16.498852	0.000215	2.152115	0.729156	-0.017533
 832	4.1550e-01	6.7699	16.414182	0.000208	2.078629	0.704258	-0.016934
 833	4.1600e-01	6.7570	16.330795	0.000205	2.047134	0.693588	-0.016677
 834	4.1650e-01	6.7041	16.240994	0.000220	2.204606	0.746941	-0.017960
 835	4.1700e-01	6.6592	16.158890	0.000202	2.015640	0.682917	-0.016421
 836	4.1750e-01	6.5838	16.070799	0.000216	2.162614	0.732713	-0.017618
 837	4.1800e-01	6.5565	15.988268	0.000203	2.026138	0.686474	-0.016506
 838	4.1850e-01	6.5485	15.906591	0.000201	2.005142	0.679360	-0.016335
 839	4.1900e-01	6.5020	15.809948	0.000237	2.372576	0.803851	-0.019329
 840	4.1950e-01	6.4763	15.714587	0.000234	2.341082	0.793180	-0.019072
 841	4.2000e-01	6.4201	15.638042	0.000188	1.879164	0.636678	-0.015309
 842	4.2050e-01	6.3784	15.553800	0.000207	2.068131	0.700702	-0.016848
 843	4.2100e-01	6.3175	15.470841	0.000204	2.036636	0.690031	-0.016592
 844	4.2150e-01	6.2822	15.393441	0.000190	1.900161	0.643792	-0.015480
 845	4.2200e-01	6.2357	15.294659	0.000243	2.425067	0.821635	-0.019756
 846	4.2250e-01	6.2324	15.208279	0.000212	2.120621	0.718486	-0.017276
 847	4.2300e-01	6.1603	15.123609	0.000208	2.078629	0.704258	-0.016934
 848	4.2350e-01	6.1250	15.037657	0.000211	2.110123	0.714929	-0.017191
 849	4.2400e-01	6.1009	14.954270	0.000205	2.047134	0.693588	-0.016677
 850	4.2450e-01	6.0656	14.868745	0.000210	2.099625	0.711372	-0.017105
 851	4.2500e-01	6.0014	14.775095	0.000230	2.299089	0.778953	-0.018730
 852	4.2550e-01	5.9661	14.695129	0.000196	1.963149	0.665133	-0.015993
 853	4.2600e-01	5.9501	14.604045	0.000224	2.236100	0.757611	-0.018217
 854	4.2650e-01	5.9100	14.518092	0.000211	2.110123	0.714929	-0.017191
 855	4.2700e-01	5.8619	14.432994	0.000209	2.089127	0.707815	-0.017019
 856	4.2750e-01	5.8089	14.341483	0.000225	2.246599	0.761168	-0.018302
 857	4.2800e-01	5.7977	14.249543	0.000226	2.257097	0.764725	-0.018388
 858	4.2850e-01	5.7319	14.168722	0.000198	1.984146	0.672247	-0.016164
 859	4.2900e-01	5.6806	14.074217	0.000232	2.320085	0.786066	-0.018901
 860	4.2950e-01	5.6389	13.989119	0.000209	2.089127	0.707815	-0.017019
 861	4.3000e-01	5.6453	13.895042	-0.000231	-2.309587	-0.782509	-0.018816
 862	4.3050e-01	5.5715	13.815931	0.000194	1.942153	0.658019	-0.015822
 863	4.3100e-01	5.5539	13.720571	0.000234	2.341082	0.793180	-0.019072
 864	4.3150e-01	5.5170	13.633763	0.000213	2.131119	0.722043	-0.017362
 865	4.3200e-01	5.4560	13.546100	0.000215	2.152115	0.729156	-0.017533
 866	4.3250e-01	5.4383	13.449884	0.000236	2.362078	0.800294	-0.019243
 867	4.3300e-01	5.3549	13.366069	0.000206	2.057632	0.697145	-0.016763
 868	4.3350e-01	5.3244	13.274130	0.000226	2.257097	0.764725	-0.018388
 869	4.3400e-01	5.3100	13.192026	0.000202	2.015640	0.682917	-0.016421
 870	4.3450e-01	5.2490	13.100514	0.000225	2.246599	0.761168	-0.018302
 871	4.3500e-01	5.1945	13.011140	0.000219	2.194108	0.743384	-0.017875
 872	4.3550e-01	5.1865	12.916635	0.000232	2.320085	0.786066	-0.018901
 873	4.3600e-01	5.1239	12.826834	0.000220	2.204606	0.746941	-0.017960
 874	4.3650e-01	5.0999	12.734039	0.000228	2.278093	0.771839	-0.018559
 875	4.3700e-01	5.0549	12.650225	0.000206	2.057632	0.697145	-0.016763
 876	4.3750e-01	5.0341	12.565555	0.000208	2.078629	0.704258	-0.016934
 877	4.3800e-01	4.9779	12.468484	0.000238	2.383074	0.807407	-0.019414
 878	4.3850e-01	4.9523	12.387235	0.000199	1.994644	0.675804	-0.016250
 879	4.3900e-01	4.8993	12.299572	0.000215	2.152115	0.729156	-0.017533
 880	4.3950e-01	4.8432	12.202073	0.000239	2.393572	0.810964	-0.019500
 881	4.4000e-01	4.7967	12.114838	0.000214	2.141617	0.725600	-0.017447
 882	4.4050e-01	4.7630	12.026747	0.000216	2.162614	0.732713	-0.017618
 883	4.4100e-01	4.7100	11.929248	0.000239	2.393572	0.810964	-0.019500
 884	4.4150e-01	4.6779	11.835171	0.000231	2.309587	0.782509	-0.018816
 885	4.4200e-01	4.6587	11.750501	0.000208	2.078629	0.704258	-0.016934
 886	4.4250e-01	4.5881	11.666687	0.000206	2.057632	0.697145	-0.016763
 887	4.4300e-01	4.5881	11.563201	0.000254	2.540546	0.860760	-0.020697
 888	4.4350e-01	4.5384	11.463137	0.000246	2.456561	0.832305	-0.020013
 889	4.4400e-01	4.4999	11.381033	0.000202	2.015640	0.682917	-0.016421
 890	4.4450e-01	4.4630	11.285672	0.000234	2.341082	0.793180	-0.019072
 891	4.4500e-01	4.4132	11.195871	0.000220	2.204606	0.746941	-0.017960
 892	4.4550e-01	4.3699	11.113339	0.000203	2.026138	0.686474	-0.016506
 893	4.4600e-01	4.3507	11.007288	0.000260	2.603535	0.882101	-0.021210
 894	4.4650e-01	4.2769	10.918770	0.000217	2.173112	0.736270	-0.017704
 895	4.4700e-01	4.2384	10.836238	0.000203	2.026138	0.686474	-0.016506
 896	4.4750e-01	4.2207	10.739595	0.000237	2.372576	0.803851	-0.019329
 897	4.4800e-01	4.1774	10.640814	0.000243	2.425067	0.821635	-0.019756
 898	4.4850e-01	4.1534	10.549729	0.000224	2.236100	0.757611	-0.018217
 899	4.4900e-01	4.0828	10.463777	0.000211	2.110123	0.714929	-0.017191
 900	4.4950e-01	4.0571	10.362002	0.000250	2.498554	0.846533	-0.020355
 901	4.5000e-01	4.0154	10.269207	0.000228	2.278093	0.771839	-0.018559
 902	4.5050e-01	3.9657	10.183254	0.000211	2.110123	0.714929	-0.017191
 903	4.5100e-01	3.9416	10.089605	0.000230	2.299089	0.778953	-0.018730
 904	4.5150e-01	3.9288	9.985692	0.000255	2.551044	0.864317	-0.020783
 905	4.5200e-01	3.8566	9.899311	0.000212	2.120621	0.718486	-0.017276
 906	4.5250e-01	3.8197	9.800530	0.000243	2.425067	0.821635	-0.019756
 907	4.5300e-01	3.7683	9.710301	0.000222	2.215104	0.750498	-0.018046
 908	4.5350e-01	3.7234	9.612802	0.000239	2.393572	0.810964	-0.019500
 909	4.5400e-01	3.7010	9.518725	0.000231	2.309587	0.782509	-0.018816
 910	4.5450e-01	3.6625	9.427213	0.000225	2.246599	0.761168	-0.018302
 911	4.5500e-01	3.6015	9.328004	0.000244	2.435565	0.825192	-0.019842
 912	4.5550e-01	3.5454	9.241624	0.000212	2.120621	0.718486	-0.017276
 913	4.5600e-01	3.5470	9.140276	-0.000249	-2.488055	-0.842976	-0.020269
 914	4.5650e-01	3.5069	9.046199	0.000231	2.309587	0.782509	-0.018816
 915	4.5700e-01	3.4315	8.953404	0.000228	2.278093	0.771839	-0.018559
 916	4.5750e-01	3.4218	8.857616	0.000235	2.351580	0.796737	-0.019158
 917	4.5800e-01	3.3817	8.761828	0.000235	2.351580	0.796737	-0.019158
 918	4.5850e-01	3.3368	8.657487	0.000256	2.561542	0.867874	-0.020868
 919	4.5900e-01	3.2951	8.562982	0.000232	2.320085	0.786066	-0.018901
 920	4.5950e-01	3.2614	8.466767	0.000236	2.362078	0.800294	-0.019243
 921	4.6000e-01	3.2149	8.368840	0.000240	2.404070	0.814521	-0.019585
 922	4.6050e-01	3.1668	8.275618	0.000229	2.288591	0.775396	-0.018644
 923	4.6100e-01	3.1587	8.173843	0.000250	2.498554	0.846533	-0.020355
 924	4.6150e-01	3.0769	8.083614	0.000222	2.215104	0.750498	-0.018046
 925	4.6200e-01	3.0400	7.986543	0.000238	2.383074	0.807407	-0.019414
 926	4.6250e-01	3.0288	7.883913	0.000252	2.519550	0.853647	-0.020526
 927	4.6300e-01	2.9630	7.793257	0.000223	2.225602	0.754054	-0.018131
 928	4.6350e-01	2.9309	7.700035	0.000229	2.288591	0.775396	-0.018644
 929	4.6400e-01	2.8988	7.605529	0.000232	2.320085	0.786066	-0.018901
 930	4.6450e-01	2.8636	7.508031	0.000239	2.393572	0.810964	-0.019500
 931	4.6500e-01	2.7962	7.411815	0.000236	2.362078	0.800294	-0.019243
 932	4.6550e-01	2.7946	7.315599	0.000236	2.362078	0.800294	-0.019243
 933	4.6600e-01	2.7288	7.215535	0.000246	2.456561	0.832305	-0.020013
 934	4.6650e-01	2.7240	7.115471	0.000246	2.456561	0.832305	-0.020013
 935	4.6700e-01	2.6678	7.020110	0.000234	2.341082	0.793180	-0.019072
 936	4.6750e-01	2.6053	6.926460	0.000230	2.299089	0.778953	-0.018730
 937	4.6800e-01	2.5764	6.818699	0.000265	2.645527	0.896329	-0.021552
 938	4.6850e-01	2.5427	6.723338	0.000234	2.341082	0.793180	-0.019072
 939	4.6900e-01	2.4930	6.633537	0.000220	2.204606	0.746941	-0.017960
 940	4.6950e-01	2.4834	6.516368	0.000288	2.876486	0.974580	-0.023434
 941	4.7000e-01	2.3935	6.432126	0.000207	2.068131	0.700702	-0.016848
 942	4.7050e-01	2.3759	6.329068	0.000253	2.530048	0.857203	-0.020612
 943	4.7100e-01	2.3277	6.226010	0.000253	2.530048	0.857203	-0.020612
 944	4.7150e-01	2.2973	6.119959	0.000260	2.603535	0.882101	-0.021210
 945	4.7200e-01	2.2443	6.029303	0.000223	2.225602	0.754054	-0.018131
 946	4.7250e-01	2.2106	5.927955	0.000249	2.488055	0.842976	-0.020269
 947	4.7300e-01	2.1465	5.825325	0.000252	2.519550	0.853647	-0.020526
 948	4.7350e-01	2.1320	5.727827	0.000239	2.393572	0.810964	-0.019500
 949	4.7400e-01	2.0855	5.625624	0.000251	2.509052	0.850090	-0.020440
 950	4.7450e-01	2.0502	5.528126	0.000239	2.393572	0.810964	-0.019500
 951	4.7500e-01	2.0053	5.426779	0.000249	2.488055	0.842976	-0.020269
 952	4.7550e-01	1.9716	5.332273	0.000232	2.320085	0.786066	-0.018901
 953	4.7600e-01	1.9524	5.220663	0.000274	2.740010	0.928341	-0.022322
 954	4.7650e-01	1.8866	5.124020	0.000237	2.372576	0.803851	-0.019329
 955	4.7700e-01	1.8352	5.038922	0.000209	2.089127	0.707815	-0.017019
 956	4.7750e-01	1.8016	4.935865	0.000253	2.530048	0.857203	-0.020612
 957	4.7800e-01	1.7582	4.826393	0.000269	2.687520	0.910556	-0.021894
 958	4.7850e-01	1.7069	4.719914	0.000261	2.614033	0.885658	-0.021296
 959	4.7900e-01	1.7165	4.611297	-0.000267	-2.666524	-0.903443	-0.021723
 960	4.7950e-01	1.6540	4.519785	0.000225	2.246599	0.761168	-0.018302
 961	4.8000e-01	1.6139	4.407320	0.000276	2.761007	0.935454	-0.022493
 962	4.8050e-01	1.5449	4.312387	0.000233	2.330584	0.789623	-0.018987
 963	4.8100e-01	1.5353	4.202487	0.000270	2.698018	0.914113	-0.021980
 964	4.8150e-01	1.4615	4.107555	0.000233	2.330584	0.789623	-0.018987
 965	4.8200e-01	1.4358	3.998083	0.000269	2.687520	0.910556	-0.021894
 966	4.8250e-01	1.4069	3.895452	0.000252	2.519550	0.853647	-0.020526
 967	4.8300e-01	1.3780	3.798809	0.000237	2.372576	0.803851	-0.019329
 968	4.8350e-01	1.3411	3.692330	0.000261	2.614033	0.885658	-0.021296
 969	4.8400e-01	1.3235	3.592266	0.000246	2.456561	0.832305	-0.020013
 970	4.8450e-01	1.2561	3.483649	0.000267	2.666524	0.903443	-0.021723
 971	4.8500e-01	1.2465	3.381019	0.000252	2.519550	0.853647	-0.020526
 972	4.8550e-01	1.1743	3.286086	0.000233	2.330584	0.789623	-0.018987
 973	4.8600e-01	1.1310	3.176614	0.000269	2.687520	0.910556	-0.021894
 974	4.8650e-01	1.0732	3.067570	0.000268	2.677022	0.907000	-0.021809
 975	4.8700e-01	1.0668	2.958953	0.000267	2.666524	0.903443	-0.021723
 976	4.8750e-01	1.0524	2.850764	0.000266	2.656025	0.899886	-0.021638
 977	4.8800e-01	0.9754	2.750700	0.000246	2.456561	0.832305	-0.020013
 978	4.8850e-01	0.9305	2.660898	0.000220	2.204606	0.746941	-0.017960
 979	4.8900e-01	0.8871	2.542874	0.000290	2.897482	0.981694	-0.023605
 980	4.8950e-01	0.8518	2.437250	0.000259	2.593037	0.878545	-0.021125
 981	4.9000e-01	0.8422	2.338896	0.000241	2.414569	0.818078	-0.019671
 982	4.9050e-01	0.7925	2.229424	0.000269	2.687520	0.910556	-0.021894
 983	4.9100e-01	0.7059	2.129360	0.000246	2.456561	0.832305	-0.020013
 984	4.9150e-01	0.6994	2.021598	0.000265	2.645527	0.896329	-0.021552
 985	4.9200e-01	0.6658	1.917686	0.000255	2.551044	0.864317	-0.020783
 986	4.9250e-01	0.6305	1.814200	0.000254	2.540546	0.860760	-0.020697
 987	4.9300e-01	0.5599	1.702590	0.000274	2.740010	0.928341	-0.022322
 988	4.9350e-01	0.5246	1.600815	0.000250	2.498554	0.846533	-0.020355
 989	4.9400e-01	0.4909	1.493481	0.000264	2.635029	0.892772	-0.021467
 990	4.9450e-01	0.4893	1.383154	0.000271	2.708516	0.917670	-0.022065
 991	4.9500e-01	0.4027	1.277103	0.000260	2.603535	0.882101	-0.021210
 992	4.9550e-01	0.3834	1.166776	0.000271	2.708516	0.917670	-0.022065
 993	4.9600e-01	0.3192	1.069277	0.000239	2.393572	0.810964	-0.019500
 994	4.9650e-01	0.2904	0.962371	0.000262	2.624531	0.889215	-0.021381
 995	4.9700e-01	0.2326	0.852471	0.000270	2.698018	0.914113	-0.021980
 996	4.9750e-01	0.2214	0.741716	0.000272	2.719014	0.921227	-0.022151
 997	4.9800e-01	0.1749	0.642079	0.000245	2.446063	0.828749	-0.019927
 998	4.9850e-01	0.1251	0.533035	0.000268	2.677022	0.907000	-0.021809
 999	4.9900e-01	0.1075	0.430832	0.000251	2.509052	0.850090	-0.020440
1000	4.9950e-01	0.0369	0.326064	0.000257	2.572040	0.871431	-0.020954
1001	5.0000e-01	0.0465	0.204191	-0.000299	-2.991965	-1.013705	-0.024375
1002	5.0050e-01	-0.0193	0.117811	0.000212	2.120621	0.718486	-0.017276
1003	5.0100e-01	-0.0610	0.009622	0.000266	2.656025	0.899886	-0.021638
1004	5.0150e-01	-0.0818	-0.093436	0.000253	2.530048	0.857203	-0.020612
1005	5.0200e-01	-0.1267	-0.198632	0.000258	2.582539	0.874988	-0.021039
1006	5.0250e-01	-0.1941	-0.295275	0.000237	2.372576	0.803851	-0.019329
1007	5.0300e-01	-0.2246	-0.403892	0.000267	2.666524	0.903443	-0.021723
1008	5.0350e-01	-0.2743	-0.504812	0.000248	2.477557	0.839419	-0.020184
1009	5.0400e-01	-0.3241	-0.615567	0.000272	2.719014	0.921227	-0.022151
1010	5.0450e-01	-0.3273	-0.723756	0.000266	2.656025	0.899886	-0.021638
1011	5.0500e-01	-0.3738	-0.828952	0.000258	2.582539	0.874988	-0.021039
1012	5.0550e-01	-0.4027	-0.932437	0.000254	2.540546	0.860760	-0.020697
1013	5.0600e-01	-0.4684	-1.034639	0.000251	2.509052	0.850090	-0.020440
1014	5.0650e-01	-0.5101	-1.135559	0.000248	2.477557	0.839419	-0.020184
1015	5.0700e-01	-0.5246	-1.245886	0.000271	2.708516	0.917670	-0.022065
1016	5.0750e-01	-0.5888	-1.354931	0.000268	2.677022	0.907000	-0.021809
1017	5.0800e-01	-0.6240	-1.458844	0.000255	2.551044	0.864317	-0.020783
1018	5.0850e-01	-0.6818	-1.558053	0.000244	2.435565	0.825192	-0.019842
1019	5.0900e-01	-0.6866	-1.667952	0.000270	2.698018	0.914113	-0.021980
1020	5.0950e-01	-0.7684	-1.774003	0.000260	2.603535	0.882101	-0.021210
1021	5.1000e-01	-0.8085	-1.873213	0.000244	2.435565	0.825192	-0.019842
1022	5.1050e-01	-0.8278	-1.986106	0.000277	2.771505	0.939011	-0.022579
1023	5.1100e-01	-0.8406	-2.087453	0.000249	2.488055	0.842976	-0.020269
1024	5.1150e-01	-0.8743	-2.191793	0.000256	2.561542	0.867874	-0.020868
1025	5.1200e-01	-0.9593	-2.286299	0.000232	2.320085	0.786066	-0.018901
1026	5.1250e-01	-0.9962	-2.397909	0.000274	2.740010	0.928341	-0.022322
1027	5.1300e-01	-1.0299	-2.501394	0.000254	2.540546	0.860760	-0.020697
1028	5.1350e-01	-1.0845	-2.607445	0.000260	2.603535	0.882101	-0.021210
1029	5.1400e-01	-1.0845	-2.713924	0.000261	2.614033	0.885658	-0.021296
1030	5.1450e-01	-1.1085	-2.814416	0.000247	2.467059	0.835862	-0.020098
1031	5.1500e-01	-1.1759	-2.911914	0.000239	2.393572	0.810964	-0.019500
1032	5.1550e-01	-1.1727	-3.028656	-0.000287	-2.865988	-0.971023	-0.023348
1033	5.1600e-01	-1.2577	-3.122306	0.000230	2.299089	0.778953	-0.018730
1034	5.1650e-01	-1.3219	-3.228785	0.000261	2.614033	0.885658	-0.021296
1035	5.1700e-01	-1.3235	-3.334836	0.000260	2.603535	0.882101	-0.021210
1036	5.1750e-01	-1.3973	-3.437466	0.000252	2.519550	0.853647	-0.020526
1037	5.1800e-01	-1.4406	-3.529833	0.000227	2.267595	0.768282	-0.018473
1038	5.1850e-01	-1.4518	-3.630325	0.000247	2.467059	0.835862	-0.020098
1039	5.1900e-01	-1.5016	-3.738514	0.000266	2.656025	0.899886	-0.021638
1040	5.1950e-01	-1.5593	-3.848414	0.000270	2.698018	0.914113	-0.021980
1041	5.2000e-01	-1.5866	-3.945485	0.000238	2.383074	0.807407	-0.019414
1042	5.2050e-01	-1.6106	-4.050680	0.000258	2.582539	0.874988	-0.021039
1043	5.2100e-01	-1.6475	-4.151600	0.000248	2.477557	0.839419	-0.020184
1044	5.2150e-01	-1.6909	-4.257223	0.000259	2.593037	0.878545	-0.021125
1045	5.2200e-01	-1.7534	-4.352584	0.000234	2.341082	0.793180	-0.019072
1046	5.2250e-01	-1.7470	-4.458635	-0.000260	-2.603535	-0.882101	-0.021210
1047	5.2300e-01	-1.8256	-4.554851	0.000236	2.362078	0.800294	-0.019243
1048	5.2350e-01	-1.8352	-4.659191	0.000256	2.561542	0.867874	-0.020868
1049	5.2400e-01	-1.9090	-4.760111	0.000248	2.477557	0.839419	-0.020184
1050	5.2450e-01	-1.9556	-4.864879	0.000257	2.572040	0.871431	-0.020954
1051	5.2500e-01	-1.9748	-4.961095	0.000236	2.362078	0.800294	-0.019243
1052	5.2550e-01	-2.0181	-5.064580	0.000254	2.540546	0.860760	-0.020697
1053	5.2600e-01	-2.0566	-5.164644	0.000246	2.456561	0.832305	-0.020013
1054	5.2650e-01	-2.0903	-5.259149	0.000232	2.320085	0.786066	-0.018901
1055	5.2700e-01	-2.1433	-5.360924	0.000250	2.498554	0.846533	-0.020355
1056	5.2750e-01	-2.1753	-5.472534	0.000274	2.740010	0.928341	-0.022322
1057	5.2800e-01	-2.2122	-5.568750	0.000236	2.362078	0.800294	-0.019243
1058	5.2850e-01	-2.2812	-5.657696	0.000218	2.183610	0.739827	-0.017789
1059	5.2900e-01	-2.2764	-5.762892	-0.000258	-2.582539	-0.874988	-0.021039
1060	5.2950e-01	-2.3454	-5.854831	0.000226	2.257097	0.764725	-0.018388
1061	5.3000e-01	-2.3999	-5.953185	0.000241	2.414569	0.818078	-0.019671
1062	5.3050e-01	-2.4272	-6.060092	0.000262	2.624531	0.889215	-0.021381
1063	5.3100e-01	-2.4320	-6.154597	0.000232	2.320085	0.786066	-0.018901
1064	5.3150e-01	-2.4769	-6.257227	0.000252	2.519550	0.853647	-0.020526
1065	5.3200e-01	-2.5427	-6.350022	0.000228	2.278093	0.771839	-0.018559
1066	5.3250e-01	-2.5764	-6.447092	0.000238	2.383074	0.807407	-0.019414
1067	5.3300e-01	-2.6229	-6.552288	0.000258	2.582539	0.874988	-0.021039
1068	5.3350e-01	-2.6358	-6.651070	0.000243	2.425067	0.821635	-0.019756
1069	5.3400e-01	-2.6919	-6.751562	0.000247	2.467059	0.835862	-0.020098
1070	5.3450e-01	-2.7609	-6.834521	0.000204	2.036636	0.690031	-0.016592
1071	5.3500e-01	-2.7833	-6.938862	0.000256	2.561542	0.867874	-0.020868
1072	5.3550e-01	-2.7866	-7.047906	0.000268	2.677022	0.907000	-0.021809
1073	5.3600e-01	-2.8475	-7.134714	0.000213	2.131119	0.722043	-0.017362
1074	5.3650e-01	-2.9117	-7.224088	0.000219	2.194108	0.743384	-0.017875
1075	5.3700e-01	-2.9277	-7.333987	0.000270	2.698018	0.914113	-0.021980
1076	5.3750e-01	-2.9871	-7.421650	0.000215	2.152115	0.729156	-0.017533
1077	5.3800e-01	-3.0192	-7.515728	0.000231	2.309587	0.782509	-0.018816
1078	5.3850e-01	-3.0480	-7.616220	0.000247	2.467059	0.835862	-0.020098
1079	5.3900e-01	-3.1122	-7.717567	0.000249	2.488055	0.842976	-0.020269
1080	5.3950e-01	-3.1555	-7.800526	0.000204	2.036636	0.690031	-0.016592
1081	5.4000e-01	-3.1684	-7.912137	0.000274	2.740010	0.928341	-0.022322
1082	5.4050e-01	-3.2165	-8.000655	0.000217	2.173112	0.736270	-0.017704
1083	5.4100e-01	-3.2646	-8.094733	0.000231	2.309587	0.782509	-0.018816
1084	5.4150e-01	-3.3015	-8.196507	0.000250	2.498554	0.846533	-0.020355
1085	5.4200e-01	-3.3288	-8.279467	0.000204	2.036636	0.690031	-0.016592
1086	5.4250e-01	-3.3913	-8.374400	0.000233	2.330584	0.789623	-0.018987
1087	5.4300e-01	-3.4347	-8.473609	0.000244	2.435565	0.825192	-0.019842
1088	5.4350e-01	-3.4812	-8.565120	0.000225	2.246599	0.761168	-0.018302
1089	5.4400e-01	-3.5165	-8.660053	0.000233	2.330584	0.789623	-0.018987
1090	5.4450e-01	-3.5534	-8.742157	0.000202	2.015640	0.682917	-0.016421
1091	5.4500e-01	-3.5662	-8.846925	0.000257	2.572040	0.871431	-0.020954
1092	5.4550e-01	-3.6304	-8.943569	0.000237	2.372576	0.803851	-0.019329
1093	5.4600e-01	-3.6737	-9.035081	0.000225	2.246599	0.761168	-0.018302
1094	5.4650e-01	-3.6801	-9.133862	0.000243	2.425067	0.821635	-0.019756
1095	5.4700e-01	-3.7699	-9.224519	0.000223	2.225602	0.754054	-0.018131
1096	5.4750e-01	-3.7940	-9.321590	0.000238	2.383074	0.807407	-0.019414
1097	5.4800e-01	-3.8534	-9.408397	0.000213	2.131119	0.722043	-0.017362
1098	5.4850e-01	-3.8582	-9.503330	0.000233	2.330584	0.789623	-0.018987
1099	5.4900e-01	-3.8999	-9.594842	0.000225	2.246599	0.761168	-0.018302
1100	5.4950e-01	-3.9207	-9.697045	0.000251	2.509052	0.850090	-0.020440
1101	5.5000e-01	-3.9865	-9.778293	0.000199	1.994644	0.675804	-0.016250
1102	5.5050e-01	-4.0026	-9.870660	0.000227	2.267595	0.768282	-0.018473
1103	5.5100e-01	-4.0491	-9.961745	0.000224	2.236100	0.757611	-0.018217
1104	5.5150e-01	-4.0908	-10.052401	0.000223	2.225602	0.754054	-0.018131
1105	5.5200e-01	-4.1453	-10.138781	0.000212	2.120621	0.718486	-0.017276
1106	5.5250e-01	-4.1774	-10.244833	0.000260	2.603535	0.882101	-0.021210
1107	5.5300e-01	-4.2448	-10.325226	0.000197	1.973647	0.668690	-0.016079
1108	5.5350e-01	-4.2576	-10.426573	0.000249	2.488055	0.842976	-0.020269
1109	5.5400e-01	-4.2817	-10.515947	0.000219	2.194108	0.743384	-0.017875
1110	5.5450e-01	-4.3603	-10.601900	0.000211	2.110123	0.714929	-0.017191
1111	5.5500e-01	-4.3715	-10.700681	0.000243	2.425067	0.821635	-0.019756
1112	5.5550e-01	-4.4148	-10.789627	0.000218	2.183610	0.739827	-0.017789
1113	5.5600e-01	-4.4598	-10.881567	0.000226	2.257097	0.764725	-0.018388
1114	5.5650e-01	-4.5111	-10.976499	0.000233	2.330584	0.789623	-0.018987
1115	5.5700e-01	-4.5480	-11.060742	0.000207	2.068131	0.700702	-0.016848
1116	5.5750e-01	-4.5961	-11.148832	0.000216	2.162614	0.732713	-0.017618
1117	5.5800e-01	-4.6186	-11.243338	0.000232	2.320085	0.786066	-0.018901
1118	5.5850e-01	-4.6587	-11.333994	0.000223	2.225602	0.754054	-0.018131
1119	5.5900e-01	-4.6924	-11.423795	0.000220	2.204606	0.746941	-0.017960
1120	5.5950e-01	-4.7614	-11.506327	0.000203	2.026138	0.686474	-0.016506
1121	5.6000e-01	-4.7902	-11.599122	0.000228	2.278093	0.771839	-0.018559
1122	5.6050e-01	-4.7999	-11.689351	0.000222	2.215104	0.750498	-0.018046
1123	5.6100e-01	-4.8640	-11.774448	0.000209	2.089127	0.707815	-0.017019
1124	5.6150e-01	-4.9202	-11.873230	0.000243	2.425067	0.821635	-0.019756
1125	5.6200e-01	-4.9491	-11.958327	0.000209	2.089127	0.707815	-0.017019
1126	5.6250e-01	-4.9715	-12.046418	0.000216	2.162614	0.732713	-0.017618
1127	5.6300e-01	-5.0261	-12.140495	0.000231	2.309587	0.782509	-0.018816
1128	5.6350e-01	-5.0581	-12.232435	0.000226	2.257097	0.764725	-0.018388
1129	5.6400e-01	-5.1143	-12.315822	0.000205	2.047134	0.693588	-0.016677
1130	5.6450e-01	-5.1448	-12.398353	0.000203	2.026138	0.686474	-0.016506
1131	5.6500e-01	-5.1753	-12.489438	0.000224	2.236100	0.757611	-0.018217
1132	5.6550e-01	-5.2410	-12.574963	0.000210	2.099625	0.711372	-0.017105
1133	5.6600e-01	-5.2651	-12.666474	0.000225	2.246599	0.761168	-0.018302
1134	5.6650e-01	-5.3052	-12.750717	0.000207	2.068131	0.700702	-0.016848
1135	5.6700e-01	-5.3277	-12.844367	0.000230	2.299089	0.778953	-0.018730
1136	5.6750e-01	-5.3533	-12.938444	0.000231	2.309587	0.782509	-0.018816
1137	5.6800e-01	-5.4191	-13.021403	0.000204	2.036636	0.690031	-0.016592
1138	5.6850e-01	-5.4528	-13.109494	0.000216	2.162614	0.732713	-0.017618
1139	5.6900e-01	-5.4977	-13.195447	0.000211	2.110123	0.714929	-0.017191
1140	5.6950e-01	-5.5651	-13.274130	0.000193	1.931655	0.654462	-0.015737
1141	5.7000e-01	-5.5571	-13.363931	-0.000220	-2.204606	-0.746941	-0.017960
1142	5.7050e-01	-5.6020	-13.454588	0.000223	2.225602	0.754054	-0.018131
1143	5.7100e-01	-5.6886	-13.538402	0.000206	2.057632	0.697145	-0.016763
1144	5.7150e-01	-5.7175	-13.626493	0.000216	2.162614	0.732713	-0.017618
1145	5.7200e-01	-5.7432	-13.712446	0.000211	2.110123	0.714929	-0.017191
1146	5.7250e-01	-5.7961	-13.791984	0.000195	1.952651	0.661576	-0.015908
1147	5.7300e-01	-5.8218	-13.886062	0.000231	2.309587	0.782509	-0.018816
1148	5.7350e-01	-5.8988	-13.973297	0.000214	2.141617	0.725600	-0.017447
1149	5.7400e-01	-5.8811	-14.063954	-0.000223	-2.225602	-0.754054	-0.018131
1150	5.7450e-01	-5.9517	-14.142637	0.000193	1.931655	0.654462	-0.015737
1151	5.7500e-01	-5.9581	-14.233721	0.000224	2.236100	0.757611	-0.018217
1152	5.7550e-01	-6.0303	-14.317536	0.000206	2.057632	0.697145	-0.016763
1153	5.7600e-01	-6.0592	-14.405199	0.000215	2.152115	0.729156	-0.017533
1154	5.7650e-01	-6.1009	-14.493717	0.000217	2.173112	0.736270	-0.017704
1155	5.7700e-01	-6.1522	-14.575394	0.000201	2.005142	0.679360	-0.016335
1156	5.7750e-01	-6.1747	-14.666905	0.000225	2.246599	0.761168	-0.018302
1157	5.7800e-01	-6.2148	-14.751575	0.000208	2.078629	0.704258	-0.016934
1158	5.7850e-01	-6.2613	-14.834107	0.000203	2.026138	0.686474	-0.016506
1159	5.7900e-01	-6.3111	-14.920915	0.000213	2.131119	0.722043	-0.017362
1160	5.7950e-01	-6.3351	-15.000453	0.000195	1.952651	0.661576	-0.015908
1161	5.8000e-01	-6.3881	-15.095386	0.000233	2.330584	0.789623	-0.018987
1162	5.8050e-01	-6.4330	-15.172359	0.000189	1.889662	0.640235	-0.015395
1163	5.8100e-01	-6.4618	-15.270285	0.000240	2.404070	0.814521	-0.019585
1164	5.8150e-01	-6.5004	-15.349823	0.000195	1.952651	0.661576	-0.015908
1165	5.8200e-01	-6.5581	-15.422519	0.000178	1.784681	0.604666	-0.014539
1166	5.8250e-01	-6.6175	-15.500775	0.000192	1.921157	0.650906	-0.015651
1167	5.8300e-01	-6.6191	-15.588010	0.000214	2.141617	0.725600	-0.017447
1168	5.8350e-01	-6.6688	-15.672680	0.000208	2.078629	0.704258	-0.016934
1169	5.8400e-01	-6.6913	-15.754357	0.000201	2.005142	0.679360	-0.016335
1170	5.8450e-01	-6.7282	-15.842020	0.000215	2.152115	0.729156	-0.017533
1171	5.8500e-01	-6.7747	-15.927972	0.000211	2.110123	0.714929	-0.017191
1172	5.8550e-01	-6.8244	-16.016491	0.000217	2.173112	0.736270	-0.017704
1173	5.8600e-01	-6.8773	-16.097312	0.000198	1.984146	0.672247	-0.016164
1174	5.8650e-01	-6.9319	-16.175567	0.000192	1.921157	0.650906	-0.015651
1175	5.8700e-01	-6.9495	-16.260237	0.000208	2.078629	0.704258	-0.016934
1176	5.8750e-01	-6.9608	-16.345335	0.000209	2.089127	0.707815	-0.017019
1177	5.8800e-01	-7.0153	-16.433853	0.000217	2.173112	0.736270	-0.017704
1178	5.8850e-01	-7.0538	-16.504411	0.000173	1.732191	0.586882	-0.014112
1179	5.8900e-01	-7.1276	-16.595068	0.000223	2.225602	0.754054	-0.018131
1180	5.8950e-01	-7.1196	-16.678027	-0.000204	-2.036636	-0.690031	-0.016592
1181	5.9000e-01	-7.1886	-16.759276	0.000199	1.994644	0.675804	-0.016250
1182	5.9050e-01	-7.2174	-16.843518	0.000207	2.068131	0.700702	-0.016848
1183	5.9100e-01	-7.2479	-16.934602	0.000224	2.236100	0.757611	-0.018217
1184	5.9150e-01	-7.2944	-17.019272	0.000208	2.078629	0.704258	-0.016934
1185	5.9200e-01	-7.3362	-17.097100	0.000191	1.910659	0.647349	-0.015566
1186	5.9250e-01	-7.3731	-17.180059	0.000204	2.036636	0.690031	-0.016592
1187	5.9300e-01	-7.4485	-17.263019	0.000204	2.036636	0.690031	-0.016592
1188	5.9350e-01	-7.4629	-17.343840	0.000198	1.984146	0.672247	-0.016164
1189	5.9400e-01	-7.4741	-17.431075	0.000214	2.141617	0.725600	-0.017447
1190	5.9450e-01	-7.5447	-17.507193	0.000187	1.868666	0.633121	-0.015223
1191	5.9500e-01	-7.5720	-17.594000	0.000213	2.131119	0.722043	-0.017362
1192	5.9550e-01	-7.6057	-17.676532	0.000203	2.026138	0.686474	-0.016506
1193	5.9600e-01	-7.6666	-17.757353	0.000198	1.984146	0.672247	-0.016164
1194	5.9650e-01	-7.6779	-17.841168	0.000206	2.057632	0.697145	-0.016763
1195	5.9700e-01	-7.7436	-17.920706	0.000195	1.952651	0.661576	-0.015908
1196	5.9750e-01	-7.7853	-18.001955	0.000199	1.994644	0.675804	-0.016250
1197	5.9800e-01	-7.8238	-18.077217	0.000185	1.847670	0.626008	-0.015052
1198	5.9850e-01	-7.8591	-18.162742	0.000210	2.099625	0.711372	-0.017105
1199	5.9900e-01	-7.9105	-18.245274	0.000203	2.026138	0.686474	-0.016506
1200	5.9950e-01	-7.9618	-18.317542	0.000177	1.774183	0.601109	-0.014454
1201	6.0000e-01	-7.9923	-18.409910	0.000227	2.267595	0.768282	-0.018473
1202	6.0050e-01	-8.0292	-18.491158	0.000199	1.994644	0.675804	-0.016250
1203	6.0100e-01	-8.0500	-18.577966	0.000213	2.131119	0.722043	-0.017362
1204	6.0150e-01	-8.1094	-18.654939	0.000189	1.889662	0.640235	-0.015395
1205	6.0200e-01	-8.1543	-18.733622	0.000193	1.931655	0.654462	-0.015737
1206	6.0250e-01	-8.1752	-18.814015	0.000197	1.973647	0.668690	-0.016079
1207	6.0300e-01	-8.2105	-18.891843	0.000191	1.910659	0.647349	-0.015566
1208	6.0350e-01	-8.2474	-18.974802	0.000204	2.036636	0.690031	-0.016592
1209	6.0400e-01	-8.2987	-19.056479	0.000201	2.005142	0.679360	-0.016335
1210	6.0450e-01	-8.3436	-19.137300	0.000198	1.984146	0.672247	-0.016164
1211	6.0500e-01	-8.3998	-19.215983	0.000193	1.931655	0.654462	-0.015737
1212	6.0550e-01	-8.3869	-19.295949	-0.000196	-1.963149	-0.665133	-0.015993
1213	6.0600e-01	-8.4639	-19.376770	0.000198	1.984146	0.672247	-0.016164
1214	6.0650e-01	-8.5249	-19.453743	0.000189	1.889662	0.640235	-0.015395
1215	6.0700e-01	-8.5425	-19.543972	0.000222	2.215104	0.750498	-0.018046
1216	6.0750e-01	-8.5810	-19.614958	0.000174	1.742689	0.590439	-0.014197
1217	6.0800e-01	-8.6163	-19.699200	0.000207	2.068131	0.700702	-0.016848
1218	6.0850e-01	-8.6468	-19.783014	0.000206	2.057632	0.697145	-0.016763
1219	6.0900e-01	-8.7126	-19.856566	0.000181	1.805677	0.611780	-0.014710
1220	6.0950e-01	-8.7431	-19.932255	0.000186	1.858168	0.629564	-0.015138
1221	6.1000e-01	-8.7655	-20.010083	0.000191	1.910659	0.647349	-0.015566
1222	6.1050e-01	-8.8137	-20.092187	0.000202	2.015640	0.682917	-0.016421
1223	6.1100e-01	-8.8682	-20.167022	0.000184	1.837172	0.622451	-0.014967
1224	6.1150e-01	-8.8746	-20.255540	0.000217	2.173112	0.736270	-0.017704
1225	6.1200e-01	-8.9163	-20.326954	0.000175	1.753187	0.593996	-0.014283
1226	6.1250e-01	-8.9677	-20.422742	0.000235	2.351580	0.796737	-0.019158
1227	6.1300e-01	-9.0318	-20.487741	0.000160	1.595715	0.540643	-0.013000
1228	6.1350e-01	-9.0447	-20.574549	0.000213	2.131119	0.722043	-0.017362
1229	6.1400e-01	-9.1281	-20.646390	0.000176	1.763685	0.597553	-0.014368
1230	6.1450e-01	-9.1554	-20.728494	0.000202	2.015640	0.682917	-0.016421
1231	6.1500e-01	-9.1762	-20.804611	0.000187	1.868666	0.633121	-0.015223
1232	6.1550e-01	-9.2292	-20.886715	0.000202	2.015640	0.682917	-0.016421
1233	6.1600e-01	-9.2516	-20.966253	0.000195	1.952651	0.661576	-0.015908
1234	6.1650e-01	-9.2997	-21.049640	0.000205	2.047134	0.693588	-0.016677
1235	6.1700e-01	-9.3398	-21.122764	0.000180	1.795179	0.608223	-0.014625
1236	6.1750e-01	-9.3864	-21.207006	0.000207	2.068131	0.700702	-0.016848
1237	6.1800e-01	-9.4185	-21.279703	0.000178	1.784681	0.604666	-0.014539
1238	6.1850e-01	-9.4345	-21.361807	0.000202	2.015640	0.682917	-0.016421
1239	6.1900e-01	-9.5067	-21.433220	0.000175	1.753187	0.593996	-0.014283
1240	6.1950e-01	-9.5420	-21.511476	0.000192	1.921157	0.650906	-0.015651
1241	6.2000e-01	-9.6254	-21.591869	0.000197	1.973647	0.668690	-0.016079
1242	6.2050e-01	-9.6158	-21.660289	-0.000168	-1.679700	-0.569098	-0.013684
1243	6.2100e-01	-9.6446	-21.749663	0.000219	2.194108	0.743384	-0.017875
1244	6.2150e-01	-9.6976	-21.824497	0.000184	1.837172	0.622451	-0.014967
1245	6.2200e-01	-9.7650	-21.893773	0.000170	1.700696	0.576211	-0.013855
1246	6.2250e-01	-9.7810	-21.970318	0.000188	1.879164	0.636678	-0.015309
1247	6.2300e-01	-9.8019	-22.056270	0.000211	2.110123	0.714929	-0.017191
1248	6.2350e-01	-9.8516	-22.129394	0.000180	1.795179	0.608223	-0.014625
1249	6.2400e-01	-9.9013	-22.215774	0.000212	2.120621	0.718486	-0.017276
1250	6.2450e-01	-9.9430	-22.292319	0.000188	1.879164	0.636678	-0.015309
1251	6.2500e-01	-9.9751	-22.367154	0.000184	1.837172	0.622451	-0.014967
1252	6.2550e-01	-10.0216	-22.444126	0.000189	1.889662	0.640235	-0.015395
1253	6.2600e-01	-10.0601	-22.521099	0.000189	1.889662	0.640235	-0.015395
1254	6.2650e-01	-10.1259	-22.589519	0.000168	1.679700	0.569098	-0.013684
1255	6.2700e-01	-10.1307	-22.675899	0.000212	2.120621	0.718486	-0.017276
1256	6.2750e-01	-10.1853	-22.751589	0.000186	1.858168	0.629564	-0.015138
1257	6.2800e-01	-10.2350	-22.829417	0.000191	1.910659	0.647349	-0.015566
1258	6.2850e-01	-10.2510	-22.899120	0.000171	1.711194	0.579768	-0.013941
1259	6.2900e-01	-10.2751	-22.976092	0.000189	1.889662	0.640235	-0.015395
1260	6.2950e-01	-10.3232	-23.052209	0.000187	1.868666	0.633121	-0.015223
1261	6.3000e-01	-10.3505	-23.130465	0.000192	1.921157	0.650906	-0.015651
1262	6.3050e-01	-10.4147	-23.209148	0.000193	1.931655	0.654462	-0.015737
1263	6.3100e-01	-10.4387	-23.295956	0.000213	2.131119	0.722043	-0.017362
1264	6.3150e-01	-10.4917	-23.363521	0.000166	1.658704	0.561984	-0.013513
1265	6.3200e-01	-10.5494	-23.442631	0.000194	1.942153	0.658019	-0.015822
1266	6.3250e-01	-10.5944	-23.515755	0.000180	1.795179	0.608223	-0.014625
1267	6.3300e-01	-10.6184	-23.588452	0.000178	1.784681	0.604666	-0.014539
1268	6.3350e-01	-10.6938	-23.661148	0.000178	1.784681	0.604666	-0.014539
1269	6.3400e-01	-10.7163	-23.745818	0.000208	2.078629	0.704258	-0.016934
1270	6.3450e-01	-10.7387	-23.820224	0.000183	1.826674	0.618894	-0.014881
1271	6.3500e-01	-10.7804	-23.896342	0.000187	1.868666	0.633121	-0.015223
1272	6.3550e-01	-10.8318	-23.975025	0.000193	1.931655	0.654462	-0.015737
1273	6.3600e-01	-10.8671	-24.049859	0.000184	1.837172	0.622451	-0.014967
1274	6.3650e-01	-10.9104	-24.125121	0.000185	1.847670	0.626008	-0.015052
1275	6.3700e-01	-10.9280	-24.199528	0.000183	1.826674	0.618894	-0.014881
1276	6.3750e-01	-10.9970	-24.277356	0.000191	1.910659	0.647349	-0.015566
1277	6.3800e-01	-11.0275	-24.355184	0.000191	1.910659	0.647349	-0.015566
1278	6.3850e-01	-11.0484	-24.428308	0.000180	1.795179	0.608223	-0.014625
1279	6.3900e-01	-11.1141	-24.504853	0.000188	1.879164	0.636678	-0.015309
1280	6.3950e-01	-11.1430	-24.575411	0.000173	1.732191	0.586882	-0.014112
1281	6.4000e-01	-11.2024	-24.655804	0.000197	1.973647	0.668690	-0.016079
1282	6.4050e-01	-11.2184	-24.731922	0.000187	1.868666	0.633121	-0.015223
1283	6.4100e-01	-11.2617	-24.804190	0.000177	1.774183	0.601109	-0.014454
1284	6.4150e-01	-11.2665	-24.886294	0.000202	2.015640	0.682917	-0.016421
1285	6.4200e-01	-11.3628	-24.953004	0.000164	1.637707	0.554870	-0.013342
1286	6.4250e-01	-11.3949	-25.027838	0.000184	1.837172	0.622451	-0.014967
1287	6.4300e-01	-11.4302	-25.107377	0.000195	1.952651	0.661576	-0.015908
1288	6.4350e-01	-11.4703	-25.176652	0.000170	1.700696	0.576211	-0.013855
1289	6.4400e-01	-11.5040	-25.253624	0.000189	1.889662	0.640235	-0.015395
1290	6.4450e-01	-11.5521	-25.326321	0.000178	1.784681	0.604666	-0.014539
1291	6.4500e-01	-11.5954	-25.402438	0.000187	1.868666	0.633121	-0.015223
1292	6.4550e-01	-11.6323	-25.476417	0.000182	1.816176	0.615337	-0.014796
1293	6.4600e-01	-11.6644	-25.550824	0.000183	1.826674	0.618894	-0.014881
1294	6.4650e-01	-11.7366	-25.624376	0.000181	1.805677	0.611780	-0.014710
1295	6.4700e-01	-11.7606	-25.696217	0.000176	1.763685	0.597553	-0.014368
1296	6.4750e-01	-11.7799	-25.780886	0.000208	2.078629	0.704258	-0.016934
1297	6.4800e-01	-11.8136	-25.849306	0.000168	1.679700	0.569098	-0.013684
1298	6.4850e-01	-11.8617	-25.924568	0.000185	1.847670	0.626008	-0.015052
1299	6.4900e-01	-11.8938	-25.998548	0.000182	1.816176	0.615337	-0.014796
1300	6.4950e-01	-11.9307	-26.074237	0.000186	1.858168	0.629564	-0.015138
1301	6.5000e-01	-11.9932	-26.146078	0.000176	1.763685	0.597553	-0.014368
1302	6.5050e-01	-11.9997	-26.220485	0.000183	1.826674	0.618894	-0.014881
1303	6.5100e-01	-12.0606	-26.284629	0.000157	1.574719	0.533529	-0.012829
1304	6.5150e-01	-12.1216	-26.366305	0.000201	2.005142	0.679360	-0.016335
1305	6.5200e-01	-12.1296	-26.440285	0.000182	1.816176	0.615337	-0.014796
1306	6.5250e-01	-12.1729	-26.516829	0.000188	1.879164	0.636678	-0.015309
1307	6.5300e-01	-12.2579	-26.590809	0.000182	1.816176	0.615337	-0.014796
1308	6.5350e-01	-12.2595	-26.658373	0.000166	1.658704	0.561984	-0.013513
1309	6.5400e-01	-12.3237	-26.732353	0.000182	1.816176	0.615337	-0.014796
1310	6.5450e-01	-12.3221	-26.810608	-0.000192	-1.921157	-0.650906	-0.015651
1311	6.5500e-01	-12.3895	-26.870048	0.000146	1.459239	0.494404	-0.011888
1312	6.5550e-01	-12.4344	-26.950869	0.000198	1.984146	0.672247	-0.016164
1313	6.5600e-01	-12.4505	-27.027842	0.000189	1.889662	0.640235	-0.015395
1314	6.5650e-01	-12.5130	-27.096262	0.000168	1.679700	0.569098	-0.013684
1315	6.5700e-01	-12.5355	-27.163827	0.000166	1.658704	0.561984	-0.013513
1316	6.5750e-01	-12.5820	-27.238661	0.000184	1.837172	0.622451	-0.014967
1317	6.5800e-01	-12.6157	-27.322475	0.000206	2.057632	0.697145	-0.016763
1318	6.5850e-01	-12.6734	-27.390896	0.000168	1.679700	0.569098	-0.013684
1319	6.5900e-01	-12.7216	-27.455467	0.000159	1.585217	0.537086	-0.012914
1320	6.5950e-01	-12.7649	-27.538854	0.000205	2.047134	0.693588	-0.016677
1321	6.6000e-01	-12.7841	-27.611978	0.000180	1.795179	0.608223	-0.014625
1322	6.6050e-01	-12.8210	-27.679970	0.000167	1.669202	0.565541	-0.013598
1323	6.6100e-01	-12.8740	-27.752239	0.000177	1.774183	0.601109	-0.014454
1324	6.6150e-01	-12.8339	-27.835198	-0.000204	-2.036636	-0.690031	-0.016592
1325	6.6200e-01	-12.9381	-27.898914	0.000156	1.564221	0.529972	-0.012743
1326	6.6250e-01	-12.9959	-27.970755	0.000176	1.763685	0.597553	-0.014368
1327	6.6300e-01	-13.0167	-28.043452	0.000178	1.784681	0.604666	-0.014539
1328	6.6350e-01	-13.0681	-28.108023	0.000159	1.585217	0.537086	-0.012914
1329	6.6400e-01	-13.1290	-28.180719	0.000178	1.784681	0.604666	-0.014539
1330	6.6450e-01	-13.1371	-28.252133	0.000175	1.753187	0.593996	-0.014283
1331	6.6500e-01	-13.1627	-28.325684	0.000181	1.805677	0.611780	-0.014710
1332	6.6550e-01	-13.2413	-28.385552	0.000147	1.469737	0.497961	-0.011974
1333	6.6600e-01	-13.2574	-28.463380	0.000191	1.910659	0.647349	-0.015566
1334	6.6650e-01	-13.2927	-28.540780	0.000190	1.900161	0.643792	-0.015480
1335	6.6700e-01	-13.3488	-28.607917	0.000165	1.648206	0.558427	-0.013427
1336	6.6750e-01	-13.3889	-28.675909	0.000167	1.669202	0.565541	-0.013598
1337	6.6800e-01	-13.4050	-28.758441	0.000203	2.026138	0.686474	-0.016506
1338	6.6850e-01	-13.4788	-28.821730	0.000155	1.553722	0.526415	-0.012658
1339	6.6900e-01	-13.5076	-28.895281	0.000181	1.805677	0.611780	-0.014710
1340	6.6950e-01	-13.5622	-28.964557	0.000170	1.700696	0.576211	-0.013855
1341	6.7000e-01	-13.5927	-29.043240	0.000193	1.931655	0.654462	-0.015737
1342	6.7050e-01	-13.6472	-29.113798	0.000173	1.732191	0.586882	-0.014112
1343	6.7100e-01	-13.6440	-29.186494	-0.000178	-1.784681	-0.604666	-0.014539
1344	6.7150e-01	-13.7034	-29.252348	0.000162	1.616711	0.547757	-0.013171
1345	6.7200e-01	-13.7242	-29.321196	0.000169	1.690198	0.572655	-0.013770
1346	6.7250e-01	-13.8076	-29.395175	0.000182	1.816176	0.615337	-0.014796
1347	6.7300e-01	-13.8317	-29.471292	0.000187	1.868666	0.633121	-0.015223
1348	6.7350e-01	-13.8927	-29.534153	0.000154	1.543224	0.522859	-0.012572
1349	6.7400e-01	-13.9215	-29.609415	0.000185	1.847670	0.626008	-0.015052
1350	6.7450e-01	-13.9360	-29.684678	0.000185	1.847670	0.626008	-0.015052
1351	6.7500e-01	-13.9969	-29.758229	0.000181	1.805677	0.611780	-0.014710
1352	6.7550e-01	-14.0306	-29.829642	0.000175	1.753187	0.593996	-0.014283
1353	6.7600e-01	-14.0483	-29.895069	0.000161	1.606213	0.544200	-0.013085
1354	6.7650e-01	-14.1076	-29.965627	0.000173	1.732191	0.586882	-0.014112
1355	6.7700e-01	-14.1525	-30.035758	0.000172	1.721692	0.583325	-0.014026
1356	6.7750e-01	-14.1622	-30.104178	0.000168	1.679700	0.569098	-0.013684
1357	6.7800e-01	-14.2071	-30.178585	0.000183	1.826674	0.618894	-0.014881
1358	6.7850e-01	-14.2536	-30.243156	0.000159	1.585217	0.537086	-0.012914
1359	6.7900e-01	-14.3017	-30.316280	0.000180	1.795179	0.608223	-0.014625
1360	6.7950e-01	-14.3467	-30.383417	0.000165	1.648206	0.558427	-0.013427
1361	6.8000e-01	-14.3595	-30.456969	0.000181	1.805677	0.611780	-0.014710
1362	6.8050e-01	-14.4140	-30.521968	0.000160	1.595715	0.540643	-0.013000
1363	6.8100e-01	-14.4317	-30.601506	0.000195	1.952651	0.661576	-0.015908
1364	6.8150e-01	-14.4942	-30.666078	0.000159	1.585217	0.537086	-0.012914
1365	6.8200e-01	-14.5777	-30.735353	0.000170	1.700696	0.576211	-0.013855
1366	6.8250e-01	-14.5905	-30.801207	0.000162	1.616711	0.547757	-0.013171
1367	6.8300e-01	-14.6226	-30.874331	0.000180	1.795179	0.608223	-0.014625
1368	6.8350e-01	-14.6723	-30.940185	0.000162	1.616711	0.547757	-0.013171
1369	6.8400e-01	-14.7124	-31.013737	0.000181	1.805677	0.611780	-0.014710
1370	6.8450e-01	-14.7333	-31.087288	0.000181	1.805677	0.611780	-0.014710
1371	6.8500e-01	-14.7990	-31.155708	0.000168	1.679700	0.569098	-0.013684
1372	6.8550e-01	-14.7958	-31.224984	-0.000170	-1.700696	-0.576211	-0.013855
1373	6.8600e-01	-14.8953	-31.289555	0.000159	1.585217	0.537086	-0.012914
1374	6.8650e-01	-14.8985	-31.357975	0.000168	1.679700	0.569098	-0.013684
1375	6.8700e-01	-14.9290	-31.426823	0.000169	1.690198	0.572655	-0.013770
1376	6.8750e-01	-14.9819	-31.499092	0.000177	1.774183	0.601109	-0.014454
1377	6.8800e-01	-15.0301	-31.564946	0.000162	1.616711	0.547757	-0.013171
1378	6.8850e-01	-15.0734	-31.635504	0.000173	1.732191	0.586882	-0.014112
1379	6.8900e-01	-15.1055	-31.697937	0.000153	1.532726	0.519302	-0.012487
1380	6.8950e-01	-15.1327	-31.773199	0.000185	1.847670	0.626008	-0.015052
1381	6.9000e-01	-15.2017	-31.837343	0.000157	1.574719	0.533529	-0.012829
1382	6.9050e-01	-15.2370	-31.900204	0.000154	1.543224	0.522859	-0.012572
1383	6.9100e-01	-15.2851	-31.982736	0.000203	2.026138	0.686474	-0.016506
1384	6.9150e-01	-15.2867	-32.049873	0.000165	1.648206	0.558427	-0.013427
1385	6.9200e-01	-15.3557	-32.120859	0.000174	1.742689	0.590439	-0.014197
1386	6.9250e-01	-15.3734	-32.195265	0.000183	1.826674	0.618894	-0.014881
1387	6.9300e-01	-15.4231	-32.259837	0.000159	1.585217	0.537086	-0.012914
1388	6.9350e-01	-15.4568	-32.329112	0.000170	1.700696	0.576211	-0.013855
1389	6.9400e-01	-15.5258	-32.405230	0.000187	1.868666	0.633121	-0.015223
1390	6.9450e-01	-15.5611	-32.471939	0.000164	1.637707	0.554870	-0.013342
1391	6.9500e-01	-15.5659	-32.545063	0.000180	1.795179	0.608223	-0.014625
1392	6.9550e-01	-15.5947	-32.604503	0.000146	1.459239	0.494404	-0.011888
1393	6.9600e-01	-15.6525	-32.675489	0.000174	1.742689	0.590439	-0.014197
1394	6.9650e-01	-15.7151	-32.749895	0.000183	1.826674	0.618894	-0.014881
1395	6.9700e-01	-15.7648	-32.817460	0.000166	1.658704	0.561984	-0.013513
1396	6.9750e-01	-15.8065	-32.878183	0.000149	1.490734	0.505074	-0.012145
1397	6.9800e-01	-15.8482	-32.947886	0.000171	1.711194	0.579768	-0.013941
1398	6.9850e-01	-15.8835	-33.024003	0.000187	1.868666	0.633121	-0.015223
1399	6.9900e-01	-15.9092	-33.095844	0.000176	1.763685	0.597553	-0.014368
1400	6.9950e-01	-15.9348	-33.162981	0.000165	1.648206	0.558427	-0.013427
1401	7.0000e-01	-16.0151	-33.221994	0.000145	1.448741	0.490847	-0.011802
1402	7.0050e-01	-16.0118	-33.293407	-0.000175	-1.753187	-0.593996	-0.014283
1403	7.0100e-01	-16.1017	-33.348571	0.000135	1.354258	0.458835	-0.011033
1404	7.0150e-01	-16.1033	-33.416991	0.000168	1.679700	0.569098	-0.013684
1405	7.0200e-01	-16.1274	-33.489260	0.000177	1.774183	0.601109	-0.014454
1406	7.0250e-01	-16.1915	-33.556397	0.000165	1.648206	0.558427	-0.013427
1407	7.0300e-01	-16.2156	-33.626527	0.000172	1.721692	0.583325	-0.014026
1408	7.0350e-01	-16.2525	-33.692809	0.000163	1.627209	0.551313	-0.013256
1409	7.0400e-01	-16.3215	-33.756098	0.000155	1.553722	0.526415	-0.012658
1410	7.0450e-01	-16.3391	-33.833070	0.000189	1.889662	0.640235	-0.015395
1411	7.0500e-01	-16.3840	-33.895076	0.000152	1.522228	0.515745	-0.012401
1412	7.0550e-01	-16.4338	-33.968200	0.000180	1.795179	0.608223	-0.014625
1413	7.0600e-01	-16.4674	-34.042607	0.000183	1.826674	0.618894	-0.014881
1414	7.0650e-01	-16.4931	-34.105040	0.000153	1.532726	0.519302	-0.012487
1415	7.0700e-01	-16.5364	-34.171750	0.000164	1.637707	0.554870	-0.013342
1416	7.0750e-01	-16.5557	-34.245729	0.000182	1.816176	0.615337	-0.014796
1417	7.0800e-01	-16.5814	-34.309017	0.000155	1.553722	0.526415	-0.012658
1418	7.0850e-01	-16.6600	-34.374444	0.000161	1.606213	0.544200	-0.013085
1419	7.0900e-01	-16.7113	-34.433456	0.000145	1.448741	0.490847	-0.011802
1420	7.0950e-01	-16.7209	-34.504870	0.000175	1.753187	0.593996	-0.014283
1421	7.1000e-01	-16.7690	-34.570296	0.000161	1.606213	0.544200	-0.013085
1422	7.1050e-01	-16.7915	-34.642137	0.000176	1.763685	0.597553	-0.014368
1423	7.1100e-01	-16.8765	-34.708419	0.000163	1.627209	0.551313	-0.013256
1424	7.1150e-01	-16.9214	-34.778122	0.000171	1.711194	0.579768	-0.013941
1425	7.1200e-01	-16.9407	-34.849963	0.000176	1.763685	0.597553	-0.014368
1426	7.1250e-01	-16.9936	-34.916673	0.000164	1.637707	0.554870	-0.013342
1427	7.1300e-01	-17.0241	-34.987659	0.000174	1.742689	0.590439	-0.014197
1428	7.1350e-01	-17.0450	-35.057361	0.000171	1.711194	0.579768	-0.013941
1429	7.1400e-01	-17.0979	-35.126209	0.000169	1.690198	0.572655	-0.013770
1430	7.1450e-01	-17.1573	-35.193346	0.000165	1.648206	0.558427	-0.013427
1431	7.1500e-01	-17.1492	-35.261766	-0.000168	-1.679700	-0.569098	-0.013684
1432	7.1550e-01	-17.1942	-35.325483	0.000156	1.564221	0.529972	-0.012743
1433	7.1600e-01	-17.2583	-35.388771	0.000155	1.553722	0.526415	-0.012658
1434	7.1650e-01	-17.3225	-35.453342	0.000159	1.585217	0.537086	-0.012914
1435	7.1700e-01	-17.3402	-35.512782	0.000146	1.459239	0.494404	-0.011888
1436	7.1750e-01	-17.3835	-35.582485	0.000171	1.711194	0.579768	-0.013941
1437	7.1800e-01	-17.4123	-35.654754	0.000177	1.774183	0.601109	-0.014454
1438	7.1850e-01	-17.4541	-35.727023	0.000177	1.774183	0.601109	-0.014454
1439	7.1900e-01	-17.4717	-35.794587	0.000166	1.658704	0.561984	-0.013513
1440	7.1950e-01	-17.5471	-35.860442	0.000162	1.616711	0.547757	-0.013171
1441	7.2000e-01	-17.5583	-35.932283	0.000176	1.763685	0.597553	-0.014368
1442	7.2050e-01	-17.6257	-35.990012	0.000142	1.417247	0.480176	-0.011546
1443	7.2100e-01	-17.6546	-36.058860	0.000169	1.690198	0.572655	-0.013770
1444	7.2150e-01	-17.6947	-36.126852	0.000167	1.669202	0.565541	-0.013598
1445	7.2200e-01	-17.7123	-36.202970	0.000187	1.868666	0.633121	-0.015223
1446	7.2250e-01	-17.7845	-36.260699	0.000142	1.417247	0.480176	-0.011546
1447	7.2300e-01	-17.8583	-36.332112	0.000175	1.753187	0.593996	-0.014283
1448	7.2350e-01	-17.8744	-36.389842	0.000142	1.417247	0.480176	-0.011546
1449	7.2400e-01	-17.9193	-36.461255	0.000175	1.753187	0.593996	-0.014283
1450	7.2450e-01	-17.8952	-36.534379	-0.000180	-1.795179	-0.608223	-0.014625
1451	7.2500e-01	-17.9706	-36.598951	0.000159	1.585217	0.537086	-0.012914
1452	7.2550e-01	-18.0268	-36.668226	0.000170	1.700696	0.576211	-0.013855
1453	7.2600e-01	-18.0588	-36.730659	0.000153	1.532726	0.519302	-0.012487
1454	7.2650e-01	-18.0572	-36.805494	-0.000184	-1.837172	-0.622451	-0.014967
1455	7.2700e-01	-18.1359	-36.866644	0.000150	1.501232	0.508631	-0.012230
1456	7.2750e-01	-18.1631	-36.934209	0.000166	1.658704	0.561984	-0.013513
1457	7.2800e-01	-18.2353	-37.011181	0.000189	1.889662	0.640235	-0.015395
1458	7.2850e-01	-18.2353	-37.073187	0.000152	1.522228	0.515745	-0.012401
1459	7.2900e-01	-18.2850	-37.144173	0.000174	1.742689	0.590439	-0.014197
1460	7.2950e-01	-18.3332	-37.203185	0.000145	1.448741	0.490847	-0.011802
1461	7.3000e-01	-18.3925	-37.275881	0.000178	1.784681	0.604666	-0.014539
1462	7.3050e-01	-18.4423	-37.335321	0.000146	1.459239	0.494404	-0.011888
1463	7.3100e-01	-18.4968	-37.404169	0.000169	1.690198	0.572655	-0.013770
1464	7.3150e-01	-18.5289	-37.464464	0.000148	1.480236	0.501517	-0.012059
1465	7.3200e-01	-18.5530	-37.532029	0.000166	1.658704	0.561984	-0.013513
1466	7.3250e-01	-18.5722	-37.604725	0.000178	1.784681	0.604666	-0.014539
1467	7.3300e-01	-18.5947	-37.671435	0.000164	1.637707	0.554870	-0.013342
1468	7.3350e-01	-18.6540	-37.734723	0.000155	1.553722	0.526415	-0.012658
1469	7.3400e-01	-18.6701	-37.809985	0.000185	1.847670	0.626008	-0.015052
1470	7.3450e-01	-18.7503	-37.874557	0.000159	1.585217	0.537086	-0.012914
1471	7.3500e-01	-18.7727	-37.938273	0.000156	1.564221	0.529972	-0.012743
1472	7.3550e-01	-18.8369	-37.996858	0.000144	1.438243	0.487290	-0.011717
1473	7.3600e-01	-18.8690	-38.072120	0.000185	1.847670	0.626008	-0.015052
1474	7.3650e-01	-18.8882	-38.143105	0.000174	1.742689	0.590439	-0.014197
1475	7.3700e-01	-18.9492	-38.206394	0.000155	1.553722	0.526415	-0.012658
1476	7.3750e-01	-18.9845	-38.272248	0.000162	1.616711	0.547757	-0.013171
1477	7.3800e-01	-19.0342	-38.338958	0.000164	1.637707	0.554870	-0.013342
1478	7.3850e-01	-19.0519	-38.412082	0.000180	1.795179	0.608223	-0.014625
1479	7.3900e-01	-19.0920	-38.483068	0.000174	1.742689	0.590439	-0.014197
1480	7.3950e-01	-19.1401	-38.545073	0.000152	1.522228	0.515745	-0.012401
1481	7.4000e-01	-19.1626	-38.609645	0.000159	1.585217	0.537086	-0.012914
1482	7.4050e-01	-19.2203	-38.681058	0.000175	1.753187	0.593996	-0.014283
1483	7.4100e-01	-19.2652	-38.746057	0.000160	1.595715	0.540643	-0.013000
1484	7.4150e-01	-19.2861	-38.819609	0.000181	1.805677	0.611780	-0.014710
1485	7.4200e-01	-19.3053	-38.893588	0.000182	1.816176	0.615337	-0.014796
1486	7.4250e-01	-19.3791	-38.953028	0.000146	1.459239	0.494404	-0.011888
1487	7.4300e-01	-19.4224	-39.020165	0.000165	1.648206	0.558427	-0.013427
1488	7.4350e-01	-19.4834	-39.082171	0.000152	1.522228	0.515745	-0.012401
1489	7.4400e-01	-19.5235	-39.145887	0.000156	1.564221	0.529972	-0.012743
1490	7.4450e-01	-19.5171	-39.222004	-0.000187	-1.868666	-0.633121	-0.015223
1491	7.4500e-01	-19.5781	-39.296411	0.000183	1.826674	0.618894	-0.014881
1492	7.4550e-01	-19.6406	-39.351574	0.000135	1.354258	0.458835	-0.011033
1493	7.4600e-01	-19.6486	-39.419139	0.000166	1.658704	0.561984	-0.013513
1494	7.4650e-01	-19.6920	-39.488842	0.000171	1.711194	0.579768	-0.013941
1495	7.4700e-01	-19.7722	-39.552986	0.000157	1.574719	0.533529	-0.012829
1496	7.4750e-01	-19.7754	-39.623544	0.000173	1.732191	0.586882	-0.014112
1497	7.4800e-01	-19.8315	-39.691964	0.000168	1.679700	0.569098	-0.013684
1498	7.4850e-01	-19.8700	-39.757391	0.000161	1.606213	0.544200	-0.013085
1499	7.4900e-01	-19.9133	-39.821107	0.000156	1.564221	0.529972	-0.012743
1500	7.4950e-01	-19.9374	-39.893803	0.000178	1.784681	0.604666	-0.014539
1501	7.5000e-01	-19.9727	-39.960085	0.000163	1.627209	0.551313	-0.013256
1502	7.5050e-01	-19.9342	-40.007979	-0.000118	-1.175790	-0.398368	-0.009579
1503	7.5100e-01	-19.8829	-40.013111	-0.000013	-0.125977	-0.042682	-0.001026
1504	7.5150e-01	-19.8235	-40.002848	0.000025	0.251955	0.085365	0.002053
1505	7.5200e-01	-19.7561	-39.964789	0.000093	0.934333	0.316561	0.007612
1506	7.5250e-01	-19.7369	-39.925875	0.000096	0.955329	0.323674	0.007783
1507	7.5300e-01	-19.7273	-39.869856	0.000138	1.375254	0.465949	0.011204
1508	7.5350e-01	-19.6759	-39.819824	0.000123	1.228281	0.416153	0.010006
1509	7.5400e-01	-19.6535	-39.771502	0.000119	1.186288	0.401925	0.009664
1510	7.5450e-01	-19.6037	-39.721043	0.000124	1.238779	0.419710	0.010092
1511	7.5500e-01	-19.5604	-39.670155	0.000125	1.249277	0.423266	0.010177
1512	7.5550e-01	-19.5027	-39.614992	0.000135	1.354258	0.458835	0.011033
1513	7.5600e-01	-19.4834	-39.561966	0.000130	1.301767	0.441051	0.010605
1514	7.5650e-01	-19.4561	-39.512789	0.000121	1.207284	0.409039	0.009835
1515	7.5700e-01	-19.4064	-39.449928	0.000154	1.543224	0.522859	0.012572
1516	7.5750e-01	-19.3454	-39.401179	0.000120	1.196786	0.405482	0.009750
1517	7.5800e-01	-19.3166	-39.348581	0.000129	1.291269	0.437494	0.010520
1518	7.5850e-01	-19.3118	-39.270753	0.000191	1.910659	0.647349	0.015566
1519	7.5900e-01	-19.2636	-39.231412	0.000097	0.965827	0.327231	0.007868
1520	7.5950e-01	-19.2043	-39.174965	0.000139	1.385752	0.469506	0.011289
1521	7.6000e-01	-19.1594	-39.119802	0.000135	1.354258	0.458835	0.011033
1522	7.6050e-01	-19.1160	-39.073618	0.000113	1.133797	0.384141	0.009237
1523	7.6100e-01	-19.0503	-39.018027	0.000136	1.364756	0.462392	0.011118
1524	7.6150e-01	-19.0326	-38.952172	0.000162	1.616711	0.547757	0.013171
1525	7.6200e-01	-18.9909	-38.891877	0.000148	1.480236	0.501517	0.012059
1526	7.6250e-01	-18.9412	-38.836286	0.000136	1.364756	0.462392	0.011118
1527	7.6300e-01	-18.9171	-38.784543	0.000127	1.270273	0.430380	0.010349
1528	7.6350e-01	-18.8979	-38.718689	0.000162	1.616711	0.547757	0.013171
1529	7.6400e-01	-18.8160	-38.666946	0.000127	1.270273	0.430380	0.010349
1530	7.6450e-01	-18.7759	-38.600237	0.000164	1.637707	0.554870	0.013342
1531	7.6500e-01	-18.7326	-38.549777	0.000124	1.238779	0.419710	0.010092
1532	7.6550e-01	-18.7102	-38.490337	0.000146	1.459239	0.494404	0.011888
1533	7.6600e-01	-18.6620	-38.435601	0.000134	1.343760	0.455278	0.010947
1534	7.6650e-01	-18.6460	-38.366753	0.000169	1.690198	0.572655	0.013770
1535	7.6700e-01	-18.5882	-38.319715	0.000115	1.154794	0.391255	0.009408
1536	7.6750e-01	-18.5546	-38.262841	0.000140	1.396251	0.473062	0.011375
1537	7.6800e-01	-18.5112	-38.205539	0.000141	1.406749	0.476619	0.011460
1538	7.6850e-01	-18.4904	-38.143105	0.000153	1.532726	0.519302	0.012487
1539	7.6900e-01	-18.4262	-38.086659	0.000139	1.385752	0.469506	0.011289
1540	7.6950e-01	-18.3733	-38.029357	0.000141	1.406749	0.476619	0.011460
1541	7.7000e-01	-18.3556	-37.967351	0.000152	1.522228	0.515745	0.012401
1542	7.7050e-01	-18.3219	-37.900642	0.000164	1.637707	0.554870	0.013342
1543	7.7100e-01	-18.2834	-37.843768	0.000140	1.396251	0.473062	0.011375
1544	7.7150e-01	-18.2690	-37.782617	0.000150	1.501232	0.508631	0.012230
1545	7.7200e-01	-18.1904	-37.715908	0.000164	1.637707	0.554870	0.013342
1546	7.7250e-01	-18.1551	-37.656040	0.000147	1.469737	0.497961	0.011974
1547	7.7300e-01	-18.1294	-37.599594	0.000139	1.385752	0.469506	0.011289
1548	7.7350e-01	-18.0621	-37.547423	0.000128	1.280771	0.433937	0.010434
1549	7.7400e-01	-18.0428	-37.490549	0.000140	1.396251	0.473062	0.011375
1550	7.7450e-01	-17.9963	-37.436668	0.000132	1.322764	0.448164	0.010776
1551	7.7500e-01	-17.9241	-37.375946	0.000149	1.490734	0.505074	0.012145
1552	7.7550e-01	-17.9385	-37.309664	-0.000163	-1.627209	-0.551313	0.013256
1553	7.7600e-01	-17.8936	-37.250224	0.000146	1.459239	0.494404	0.011888
1554	7.7650e-01	-17.8439	-37.174534	0.000186	1.858168	0.629564	0.015138
1555	7.7700e-01	-17.8006	-37.118088	0.000139	1.385752	0.469506	0.011289
1556	7.7750e-01	-17.7685	-37.053944	0.000157	1.574719	0.533529	0.012829
1557	7.7800e-01	-17.7428	-37.001774	0.000128	1.280771	0.433937	0.010434
1558	7.7850e-01	-17.6851	-36.938913	0.000154	1.543224	0.522859	0.012572
1559	7.7900e-01	-17.6225	-36.877762	0.000150	1.501232	0.508631	0.012230
1560	7.7950e-01	-17.6081	-36.821743	0.000138	1.375254	0.465949	0.011204
1561	7.8000e-01	-17.5455	-36.760165	0.000151	1.511730	0.512188	0.012316
1562	7.8050e-01	-17.5134	-36.707995	0.000128	1.280771	0.433937	0.010434
1563	7.8100e-01	-17.4685	-36.636582	0.000175	1.753187	0.593996	0.014283
1564	7.8150e-01	-17.4508	-36.574576	0.000152	1.522228	0.515745	0.012401
1565	7.8200e-01	-17.4172	-36.519840	0.000134	1.343760	0.455278	0.010947
1566	7.8250e-01	-17.3514	-36.460400	0.000146	1.459239	0.494404	0.011888
1567	7.8300e-01	-17.3145	-36.389414	0.000174	1.742689	0.590439	0.014197
1568	7.8350e-01	-17.2487	-36.333823	0.000136	1.364756	0.462392	0.011118
1569	7.8400e-01	-17.2359	-36.267969	0.000162	1.616711	0.547757	0.013171
1570	7.8450e-01	-17.2006	-36.204252	0.000156	1.564221	0.529972	0.012743
1571	7.8500e-01	-17.1428	-36.145240	0.000145	1.448741	0.490847	0.011802
1572	7.8550e-01	-17.1188	-36.083662	0.000151	1.511730	0.512188	0.012316
1573	7.8600e-01	-17.0706	-36.016953	0.000164	1.637707	0.554870	0.013342
1574	7.8650e-01	-17.0434	-35.960506	0.000139	1.385752	0.469506	0.011289
1575	7.8700e-01	-16.9968	-35.902349	0.000143	1.427745	0.483733	0.011631
1576	7.8750e-01	-16.9648	-35.842054	0.000148	1.480236	0.501517	0.012059
1577	7.8800e-01	-16.9182	-35.777055	0.000160	1.595715	0.540643	0.013000
1578	7.8850e-01	-16.8685	-35.718898	0.000143	1.427745	0.483733	0.011631
1579	7.8900e-01	-16.8252	-35.653471	0.000161	1.606213	0.544200	0.013085
1580	7.8950e-01	-16.7931	-35.585479	0.000167	1.669202	0.565541	0.013598
1581	7.9000e-01	-16.7610	-35.520907	0.000159	1.585217	0.537086	0.012914
1582	7.9050e-01	-16.7017	-35.461895	0.000145	1.448741	0.490847	0.011802
1583	7.9100e-01	-16.6680	-35.401600	0.000148	1.480236	0.501517	0.012059
1584	7.9150e-01	-16.6182	-35.343443	0.000143	1.427745	0.483733	0.011631
1585	7.9200e-01	-16.5926	-35.268608	0.000184	1.837172	0.622451	0.014967
1586	7.9250e-01	-16.5428	-35.214728	0.000132	1.322764	0.448164	0.010776
1587	7.9300e-01	-16.5412	-35.150156	0.000159	1.585217	0.537086	0.012914
1588	7.9350e-01	-16.4723	-35.086440	0.000156	1.564221	0.529972	0.012743
1589	7.9400e-01	-16.4129	-35.018875	0.000166	1.658704	0.561984	0.013513
1590	7.9450e-01	-16.3824	-34.966277	0.000129	1.291269	0.437494	0.010520
1591	7.9500e-01	-16.3840	-34.892726	-0.000181	-1.805677	-0.611780	0.014710
1592	7.9550e-01	-16.3070	-34.833286	0.000146	1.459239	0.494404	0.011888
1593	7.9600e-01	-16.2862	-34.772991	0.000148	1.480236	0.501517	0.012059
1594	7.9650e-01	-16.2589	-34.701150	0.000176	1.763685	0.597553	0.014368
1595	7.9700e-01	-16.1498	-34.648124	0.000130	1.301767	0.441051	0.010605
1596	7.9750e-01	-16.1642	-34.579276	-0.000169	-1.690198	-0.572655	0.013770
1597	7.9800e-01	-16.1177	-34.512994	0.000163	1.627209	0.551313	0.013256
1598	7.9850e-01	-16.0937	-34.443719	0.000170	1.700696	0.576211	0.013855
1599	7.9900e-01	-16.0423	-34.385990	0.000142	1.417247	0.480176	0.011546
1600	7.9950e-01	-15.9846	-34.325267	0.000149	1.490734	0.505074	0.012145
1601	8.0000e-01	-15.9589	-34.256847	0.000168	1.679700	0.569098	0.013684
1602	8.0050e-01	-15.9284	-34.193558	0.000155	1.553722	0.526415	0.012658
1603	8.0100e-01	-15.8771	-34.129842	0.000156	1.564221	0.529972	0.012743
1604	8.0150e-01	-15.8193	-34.074251	0.000136	1.364756	0.462392	0.011118
1605	8.0200e-01	-15.8081	-34.005831	0.000168	1.679700	0.569098	0.013684
1606	8.0250e-01	-15.7632	-33.947674	0.000143	1.427745	0.483733	0.011631
1607	8.0300e-01	-15.6830	-33.886951	0.000149	1.490734	0.505074	0.012145
1608	8.0350e-01	-15.6557	-33.821524	0.000161	1.606213	0.544200	0.013085
1609	8.0400e-01	-15.6493	-33.756098	0.000161	1.606213	0.544200	0.013085
1610	8.0450e-01	-15.6076	-33.688961	0.000165	1.648206	0.558427	0.013427
1611	8.0500e-01	-15.5466	-33.625672	0.000155	1.553722	0.526415	0.012658
1612	8.0550e-01	-15.5418	-33.558962	0.000164	1.637707	0.554870	0.013342
1613	8.0600e-01	-15.4632	-33.496957	0.000152	1.522228	0.515745	0.012401
1614	8.0650e-01	-15.3974	-33.439655	0.000141	1.406749	0.476619	0.011460
1615	8.0700e-01	-15.4119	-33.365248	-0.000183	-1.826674	-0.618894	0.014881
1616	8.0750e-01	-15.3493	-33.299394	0.000162	1.616711	0.547757	0.013171
1617	8.0800e-01	-15.3204	-33.233540	0.000162	1.616711	0.547757	0.013171
1618	8.0850e-01	-15.3092	-33.162126	0.000175	1.753187	0.593996	0.014283
1619	8.0900e-01	-15.2450	-33.106963	0.000135	1.354258	0.458835	0.011033
1620	8.0950e-01	-15.1969	-33.050088	0.000140	1.396251	0.473062	0.011375
1621	8.1000e-01	-15.1680	-32.978247	0.000176	1.763685	0.597553	0.014368
1622	8.1050e-01	-15.1231	-32.918380	0.000147	1.469737	0.497961	0.011974
1623	8.1100e-01	-15.0862	-32.853381	0.000160	1.595715	0.540643	0.013000
1624	8.1150e-01	-15.0188	-32.778546	0.000184	1.837172	0.622451	0.014967
1625	8.1200e-01	-15.0012	-32.713547	0.000160	1.595715	0.540643	0.013000
1626	8.1250e-01	-14.9723	-32.646410	0.000165	1.648206	0.558427	0.013427
1627	8.1300e-01	-14.9306	-32.584832	0.000151	1.511730	0.512188	0.012316
1628	8.1350e-01	-14.8584	-32.521116	0.000156	1.564221	0.529972	0.012743
1629	8.1400e-01	-14.8055	-32.453551	0.000166	1.658704	0.561984	0.013513
1630	8.1450e-01	-14.7894	-32.385559	0.000167	1.669202	0.565541	0.013598
1631	8.1500e-01	-14.7814	-32.318422	0.000165	1.648206	0.558427	0.013427
1632	8.1550e-01	-14.6932	-32.259409	0.000145	1.448741	0.490847	0.011802
1633	8.1600e-01	-14.6803	-32.191844	0.000166	1.658704	0.561984	0.013513
1634	8.1650e-01	-14.6434	-32.120431	0.000175	1.753187	0.593996	0.014283
1635	8.1700e-01	-14.5873	-32.061419	0.000145	1.448741	0.490847	0.011802
1636	8.1750e-01	-14.5552	-32.001124	0.000148	1.480236	0.501517	0.012059
1637	8.1800e-01	-14.4910	-31.927572	0.000181	1.805677	0.611780	0.014710
1638	8.1850e-01	-14.4301	-31.868132	0.000146	1.459239	0.494404	0.011888
1639	8.1900e-01	-14.4429	-31.795436	-0.000178	-1.784681	-0.604666	0.014539
1640	8.1950e-01	-14.3900	-31.733858	0.000151	1.511730	0.512188	0.012316
1641	8.2000e-01	-14.3515	-31.664155	0.000171	1.711194	0.579768	0.013941
1642	8.2050e-01	-14.3194	-31.596590	0.000166	1.658704	0.561984	0.013513
1643	8.2100e-01	-14.2729	-31.533729	0.000154	1.543224	0.522859	0.012572
1644	8.2150e-01	-14.2536	-31.469585	0.000157	1.574719	0.533529	0.012829
1645	8.2200e-01	-14.2055	-31.400738	0.000169	1.690198	0.572655	0.013770
1646	8.2250e-01	-14.1221	-31.338304	0.000153	1.532726	0.519302	0.012487
1647	8.2300e-01	-14.1381	-31.261760	-0.000188	-1.879164	-0.636678	0.015309
1648	8.2350e-01	-14.0996	-31.198899	0.000154	1.543224	0.522859	0.012572
1649	8.2400e-01	-14.0418	-31.130906	0.000167	1.669202	0.565541	0.013598
1650	8.2450e-01	-13.9777	-31.061203	0.000171	1.711194	0.579768	0.013941
1651	8.2500e-01	-13.9632	-31.002191	0.000145	1.448741	0.490847	0.011802
1652	8.2550e-01	-13.8991	-30.932916	0.000170	1.700696	0.576211	0.013855
1653	8.2600e-01	-13.8638	-30.867061	0.000162	1.616711	0.547757	0.013171
1654	8.2650e-01	-13.8301	-30.790516	0.000188	1.879164	0.636678	0.015309
1655	8.2700e-01	-13.7836	-30.728083	0.000153	1.532726	0.519302	0.012487
1656	8.2750e-01	-13.7675	-30.657525	0.000173	1.732191	0.586882	0.014112
1657	8.2800e-01	-13.7210	-30.594236	0.000155	1.553722	0.526415	0.012658
1658	8.2850e-01	-13.6584	-30.523678	0.000173	1.732191	0.586882	0.014112
1659	8.2900e-01	-13.6247	-30.462528	0.000150	1.501232	0.508631	0.012230
1660	8.2950e-01	-13.6007	-30.391970	0.000173	1.732191	0.586882	0.014112
1661	8.3000e-01	-13.5237	-30.321839	0.000172	1.721692	0.583325	0.014026
1662	8.3050e-01	-13.5333	-30.253847	-0.000167	-1.669202	-0.565541	0.013598
1663	8.3100e-01	-13.4659	-30.186282	0.000166	1.658704	0.561984	0.013513
1664	8.3150e-01	-13.4146	-30.131974	0.000133	1.333262	0.451721	0.010862
1665	8.3200e-01	-13.4274	-30.060560	-0.000175	-1.753187	-0.593996	0.014283
1666	8.3250e-01	-13.3552	-29.990857	0.000171	1.711194	0.579768	0.013941
1667	8.3300e-01	-13.3440	-29.916878	0.000182	1.816176	0.615337	0.014796
1668	8.3350e-01	-13.3103	-29.849741	0.000165	1.648206	0.558427	0.013427
1669	8.3400e-01	-13.2060	-29.791156	0.000144	1.438243	0.487290	0.011717
1670	8.3450e-01	-13.1996	-29.715894	0.000185	1.847670	0.626008	0.015052
1671	8.3500e-01	-13.1708	-29.650895	0.000160	1.595715	0.540643	0.013000
1672	8.3550e-01	-13.0986	-29.587179	0.000156	1.564221	0.529972	0.012743
1673	8.3600e-01	-13.0617	-29.519614	0.000166	1.658704	0.561984	0.013513
1674	8.3650e-01	-13.0488	-29.446063	0.000181	1.805677	0.611780	0.014710
1675	8.3700e-01	-12.9798	-29.393892	0.000128	1.280771	0.433937	0.010434
1676	8.3750e-01	-12.9462	-29.307940	0.000211	2.110123	0.714929	0.017191
1677	8.3800e-01	-12.9109	-29.240375	0.000166	1.658704	0.561984	0.013513
1678	8.3850e-01	-12.8595	-29.175376	0.000160	1.595715	0.540643	0.013000
1679	8.3900e-01	-12.8515	-29.098831	0.000188	1.879164	0.636678	0.015309
1680	8.3950e-01	-12.7970	-29.036398	0.000153	1.532726	0.519302	0.012487
1681	8.4000e-01	-12.7296	-28.962418	0.000182	1.816176	0.615337	0.014796
1682	8.4050e-01	-12.6799	-28.899985	0.000153	1.532726	0.519302	0.012487
1683	8.4100e-01	-12.6863	-28.828144	-0.000176	-1.763685	-0.597553	0.014368
1684	8.4150e-01	-12.6253	-28.759296	0.000169	1.690198	0.572655	0.013770
1685	8.4200e-01	-12.5948	-28.684034	0.000185	1.847670	0.626008	0.015052
1686	8.4250e-01	-12.5483	-28.621601	0.000153	1.532726	0.519302	0.012487
1687	8.4300e-01	-12.5130	-28.557885	0.000156	1.564221	0.529972	0.012743
1688	8.4350e-01	-12.4713	-28.490748	0.000165	1.648206	0.558427	0.013427
1689	8.4400e-01	-12.4087	-28.419762	0.000174	1.742689	0.590439	0.014197
1690	8.4450e-01	-12.4119	-28.347921	-0.000176	-1.763685	-0.597553	0.014368
1691	8.4500e-01	-12.3815	-28.273514	0.000183	1.826674	0.618894	0.014881
1692	8.4550e-01	-12.2884	-28.209798	0.000156	1.564221	0.529972	0.012743
1693	8.4600e-01	-12.2884	-28.136246	-0.000181	-1.805677	-0.611780	0.014710
1694	8.4650e-01	-12.2226	-28.072103	0.000157	1.574719	0.533529	0.012829
1695	8.4700e-01	-12.1890	-28.002827	0.000170	1.700696	0.576211	0.013855
1696	8.4750e-01	-12.1473	-27.937401	0.000161	1.606213	0.544200	0.013085
1697	8.4800e-01	-12.1168	-27.859145	0.000192	1.921157	0.650906	0.015651
1698	8.4850e-01	-12.0767	-27.792863	0.000163	1.627209	0.551313	0.013256
1699	8.4900e-01	-12.0414	-27.721022	0.000176	1.763685	0.597553	0.014368
1700	8.4950e-01	-11.9852	-27.653457	0.000166	1.658704	0.561984	0.013513
1701	8.5000e-01	-11.9563	-27.588031	0.000161	1.606213	0.544200	0.013085
1702	8.5050e-01	-11.9018	-27.517045	0.000174	1.742689	0.590439	0.014197
1703	8.5100e-01	-11.8521	-27.442638	0.000183	1.826674	0.618894	0.014881
1704	8.5150e-01	-11.8200	-27.372080	0.000173	1.732191	0.586882	0.014112
1705	8.5200e-01	-11.7815	-27.306226	0.000162	1.616711	0.547757	0.013171
1706	8.5250e-01	-11.7430	-27.230964	0.000185	1.847670	0.626008	0.015052
1707	8.5300e-01	-11.6997	-27.156129	0.000184	1.837172	0.622451	0.014967
1708	8.5350e-01	-11.6548	-27.086854	0.000170	1.700696	0.576211	0.013855
1709	8.5400e-01	-11.6548	-27.018862	-0.000167	-1.669202	-0.565541	0.013598
1710	8.5450e-01	-11.5810	-26.944027	0.000184	1.837172	0.622451	0.014967
1711	8.5500e-01	-11.5473	-26.878600	0.000161	1.606213	0.544200	0.013085
1712	8.5550e-01	-11.5007	-26.808042	0.000173	1.732191	0.586882	0.014112
1713	8.5600e-01	-11.4847	-26.733208	0.000184	1.837172	0.622451	0.014967
1714	8.5650e-01	-11.4302	-26.659229	0.000182	1.816176	0.615337	0.014796
1715	8.5700e-01	-11.3692	-26.595940	0.000155	1.553722	0.526415	0.012658
1716	8.5750e-01	-11.3596	-26.522816	0.000180	1.795179	0.608223	0.014625
1717	8.5800e-01	-11.3082	-26.444988	0.000191	1.910659	0.647349	0.015566
1718	8.5850e-01	-11.2425	-26.376568	0.000168	1.679700	0.569098	0.013684
1719	8.5900e-01	-11.2409	-26.308148	0.000168	1.679700	0.569098	0.013684
1720	8.5950e-01	-11.1959	-26.231603	0.000188	1.879164	0.636678	0.015309
1721	8.6000e-01	-11.1623	-26.153776	0.000191	1.910659	0.647349	0.015566
1722	8.6050e-01	-11.1286	-26.092625	0.000150	1.501232	0.508631	0.012230
1723	8.6100e-01	-11.0836	-26.018218	0.000183	1.826674	0.618894	0.014881
1724	8.6150e-01	-11.0066	-25.952364	0.000162	1.616711	0.547757	0.013171
1725	8.6200e-01	-10.9874	-25.876247	0.000187	1.868666	0.633121	0.015223
1726	8.6250e-01	-10.9697	-25.806116	0.000172	1.721692	0.583325	0.014026
1727	8.6300e-01	-10.9264	-25.731282	0.000184	1.837172	0.622451	0.014967
1728	8.6350e-01	-10.8639	-25.663289	0.000167	1.669202	0.565541	0.013598
1729	8.6400e-01	-10.8382	-25.594442	0.000169	1.690198	0.572655	0.013770
1730	8.6450e-01	-10.7820	-25.521745	0.000178	1.784681	0.604666	0.014539
1731	8.6500e-01	-10.7452	-25.450760	0.000174	1.742689	0.590439	0.014197
1732	8.6550e-01	-10.7002	-25.387471	0.000155	1.553722	0.526415	0.012658
1733	8.6600e-01	-10.6473	-25.315202	0.000177	1.774183	0.601109	0.014454
1734	8.6650e-01	-10.6216	-25.233098	0.000202	2.015640	0.682917	0.016421
1735	8.6700e-01	-10.5735	-25.167672	0.000161	1.606213	0.544200	0.013085
1736	8.6750e-01	-10.5350	-25.091127	0.000188	1.879164	0.636678	0.015309
1737	8.6800e-01	-10.4885	-25.022279	0.000169	1.690198	0.572655	0.013770
1738	8.6850e-01	-10.4692	-24.940603	0.000201	2.005142	0.679360	0.016335
1739	8.6900e-01	-10.4355	-24.862347	0.000192	1.921157	0.650906	0.015651
1740	8.6950e-01	-10.4163	-24.788796	0.000181	1.805677	0.611780	0.014710
1741	8.7000e-01	-10.3714	-24.719520	0.000170	1.700696	0.576211	0.013855
1742	8.7050e-01	-10.3072	-24.642976	0.000188	1.879164	0.636678	0.015309
1743	8.7100e-01	-10.2847	-24.579687	0.000155	1.553722	0.526415	0.012658
1744	8.7150e-01	-10.2254	-24.515543	0.000157	1.574719	0.533529	0.012829
1745	8.7200e-01	-10.1676	-24.433867	0.000201	2.005142	0.679360	0.016335
1746	8.7250e-01	-10.1596	-24.351335	0.000203	2.026138	0.686474	0.016506
1747	8.7300e-01	-10.1452	-24.277784	0.000181	1.805677	0.611780	0.014710
1748	8.7350e-01	-10.0762	-24.208936	0.000169	1.690198	0.572655	0.013770
1749	8.7400e-01	-10.0682	-24.131963	0.000189	1.889662	0.640235	0.015395
1750	8.7450e-01	-9.9960	-24.058839	0.000180	1.795179	0.608223	0.014625
1751	8.7500e-01	-9.9639	-23.986571	0.000177	1.774183	0.601109	0.014454
1752	8.7550e-01	-9.8997	-23.911309	0.000185	1.847670	0.626008	0.015052
1753	8.7600e-01	-9.8901	-23.835619	0.000186	1.858168	0.629564	0.015138
1754	8.7650e-01	-9.8163	-23.771475	0.000157	1.574719	0.533529	0.012829
1755	8.7700e-01	-9.8131	-23.694075	0.000190	1.900161	0.643792	0.015480
1756	8.7750e-01	-9.7521	-23.625227	0.000169	1.690198	0.572655	0.013770
1757	8.7800e-01	-9.7168	-23.547827	0.000190	1.900161	0.643792	0.015480
1758	8.7850e-01	-9.6591	-23.475986	0.000176	1.763685	0.597553	0.014368
1759	8.7900e-01	-9.6174	-23.402007	0.000182	1.816176	0.615337	0.014796
1760	8.7950e-01	-9.6270	-23.320331	-0.000201	-2.005142	-0.679360	0.016335
1761	8.8000e-01	-9.5853	-23.252766	0.000166	1.658704	0.561984	0.013513
1762	8.8050e-01	-9.5179	-23.180497	0.000177	1.774183	0.601109	0.014454
1763	8.8100e-01	-9.4618	-23.103097	0.000190	1.900161	0.643792	0.015480
1764	8.8150e-01	-9.4313	-23.022703	0.000197	1.973647	0.668690	0.016079
1765	8.8200e-01	-9.3735	-22.948724	0.000182	1.816176	0.615337	0.014796
1766	8.8250e-01	-9.3318	-22.879021	0.000171	1.711194	0.579768	0.013941
1767	8.8300e-01	-9.3142	-22.808463	0.000173	1.732191	0.586882	0.014112
1768	8.8350e-01	-9.2869	-22.734912	0.000181	1.805677	0.611780	0.014710
1769	8.8400e-01	-9.2484	-22.657084	0.000191	1.910659	0.647349	0.015566
1770	8.8450e-01	-9.1698	-22.581394	0.000186	1.858168	0.629564	0.015138
1771	8.8500e-01	-9.1650	-22.496297	0.000209	2.089127	0.707815	0.017019
1772	8.8550e-01	-9.1217	-22.423173	0.000180	1.795179	0.608223	0.014625
1773	8.8600e-01	-9.0639	-22.352187	0.000174	1.742689	0.590439	0.014197
1774	8.8650e-01	-9.0302	-22.279918	0.000177	1.774183	0.601109	0.014454
1775	8.8700e-01	-8.9917	-22.200808	0.000194	1.942153	0.658019	0.015822
1776	8.8750e-01	-8.9436	-22.124263	0.000188	1.879164	0.636678	0.015309
1777	8.8800e-01	-8.8891	-22.055843	0.000168	1.679700	0.569098	0.013684
1778	8.8850e-01	-8.8939	-21.971173	-0.000208	-2.078629	-0.704258	0.016934
1779	8.8900e-01	-8.8329	-21.895056	0.000187	1.868666	0.633121	0.015223
1780	8.8950e-01	-8.8040	-21.821504	0.000181	1.805677	0.611780	0.014710
1781	8.9000e-01	-8.7463	-21.749663	0.000176	1.763685	0.597553	0.014368
1782	8.9050e-01	-8.6933	-21.674401	0.000185	1.847670	0.626008	0.015052
1783	8.9100e-01	-8.6725	-21.590586	0.000206	2.057632	0.697145	0.016763
1784	8.9150e-01	-8.5939	-21.529436	0.000150	1.501232	0.508631	0.012230
1785	8.9200e-01	-8.6003	-21.446904	-0.000203	-2.026138	-0.686474	0.016506
1786	8.9250e-01	-8.5425	-21.371642	0.000185	1.847670	0.626008	0.015052
1787	8.9300e-01	-8.5361	-21.286117	0.000210	2.099625	0.711372	0.017105
1788	8.9350e-01	-8.4784	-21.216414	0.000171	1.711194	0.579768	0.013941
1789	8.9400e-01	-8.4190	-21.140725	0.000186	1.858168	0.629564	0.015138
1790	8.9450e-01	-8.4014	-21.071022	0.000171	1.711194	0.579768	0.013941
1791	8.9500e-01	-8.3548	-20.994904	0.000187	1.868666	0.633121	0.015223
1792	8.9550e-01	-8.3260	-20.918359	0.000188	1.879164	0.636678	0.015309
1793	8.9600e-01	-8.2458	-20.834545	0.000206	2.057632	0.697145	0.016763
1794	8.9650e-01	-8.2297	-20.754151	0.000197	1.973647	0.668690	0.016079
1795	8.9700e-01	-8.2008	-20.672047	0.000202	2.015640	0.682917	0.016421
1796	8.9750e-01	-8.1479	-20.599779	0.000177	1.774183	0.601109	0.014454
1797	8.9800e-01	-8.0982	-20.523234	0.000188	1.879164	0.636678	0.015309
1798	8.9850e-01	-8.0661	-20.446261	0.000189	1.889662	0.640235	0.015395
1799	8.9900e-01	-8.0484	-20.367150	0.000194	1.942153	0.658019	0.015822
1800	8.9950e-01	-7.9987	-20.287184	0.000196	1.963149	0.665133	0.015993
1801	9.0000e-01	-7.9666	-20.213205	0.000182	1.816176	0.615337	0.014796
1802	9.0050e-01	-7.9265	-20.136233	0.000189	1.889662	0.640235	0.015395
1803	9.0100e-01	-7.8511	-20.047287	0.000218	2.183610	0.739827	0.017789
1804	9.0150e-01	-7.8383	-19.981860	0.000161	1.606213	0.544200	0.013085
1805	9.0200e-01	-7.7597	-19.907453	0.000183	1.826674	0.618894	0.014881
1806	9.0250e-01	-7.7484	-19.823639	0.000206	2.057632	0.697145	0.016763
1807	9.0300e-01	-7.7164	-19.750087	0.000181	1.805677	0.611780	0.014710
1808	9.0350e-01	-7.6811	-19.672687	0.000190	1.900161	0.643792	0.015480
1809	9.0400e-01	-7.6394	-19.596997	0.000186	1.858168	0.629564	0.015138
1810	9.0450e-01	-7.5864	-19.517031	0.000196	1.963149	0.665133	0.015993
1811	9.0500e-01	-7.5688	-19.430223	0.000213	2.131119	0.722043	0.017362
1812	9.0550e-01	-7.5126	-19.363941	0.000163	1.627209	0.551313	0.013256
1813	9.0600e-01	-7.4789	-19.274568	0.000219	2.194108	0.743384	0.017875
1814	9.0650e-01	-7.4452	-19.194602	0.000196	1.963149	0.665133	0.015993
1815	9.0700e-01	-7.4100	-19.112925	0.000201	2.005142	0.679360	0.016335
1816	9.0750e-01	-7.3458	-19.044505	0.000168	1.679700	0.569098	0.013684
1817	9.0800e-01	-7.3201	-18.963257	0.000199	1.994644	0.675804	0.016250
1818	9.0850e-01	-7.2495	-18.889277	0.000182	1.816176	0.615337	0.014796
1819	9.0900e-01	-7.2559	-18.806746	-0.000203	-2.026138	-0.686474	0.016506
1820	9.0950e-01	-7.2078	-18.729773	0.000189	1.889662	0.640235	0.015395
1821	9.1000e-01	-7.1597	-18.644248	0.000210	2.099625	0.711372	0.017105
1822	9.1050e-01	-7.1212	-18.571552	0.000178	1.784681	0.604666	0.014539
1823	9.1100e-01	-7.0666	-18.495435	0.000187	1.868666	0.633121	0.015223
1824	9.1150e-01	-7.0169	-18.415469	0.000196	1.963149	0.665133	0.015993
1825	9.1200e-01	-6.9768	-18.330371	0.000209	2.089127	0.707815	0.017019
1826	9.1250e-01	-6.9367	-18.249550	0.000198	1.984146	0.672247	0.016164
1827	9.1300e-01	-6.8982	-18.167018	0.000203	2.026138	0.686474	0.016506
1828	9.1350e-01	-6.8693	-18.087908	0.000194	1.942153	0.658019	0.015822
1829	9.1400e-01	-6.8212	-18.019060	0.000169	1.690198	0.572655	0.013770
1830	9.1450e-01	-6.8084	-17.927976	0.000224	2.236100	0.757611	0.018217
1831	9.1500e-01	-6.7378	-17.845444	0.000203	2.026138	0.686474	0.016506
1832	9.1550e-01	-6.7089	-17.760774	0.000208	2.078629	0.704258	0.016934
1833	9.1600e-01	-6.6704	-17.688506	0.000177	1.774183	0.601109	0.014454
1834	9.1650e-01	-6.6207	-17.611105	0.000190	1.900161	0.643792	0.015480
1835	9.1700e-01	-6.5790	-17.522587	0.000217	2.173112	0.736270	0.017704
1836	9.1750e-01	-6.5758	-17.446042	0.000188	1.879164	0.636678	0.015309
1837	9.1800e-01	-6.4875	-17.373346	0.000178	1.784681	0.604666	0.014539
1838	9.1850e-01	-6.4955	-17.280551	-0.000228	-2.278093	-0.771839	0.018559
1839	9.1900e-01	-6.4153	-17.201440	0.000194	1.942153	0.658019	0.015822
1840	9.1950e-01	-6.4490	-17.110784	-0.000223	-2.225602	-0.754054	0.018131
1841	9.2000e-01	-6.3431	-17.041509	0.000170	1.700696	0.576211	0.013855
1842	9.2050e-01	-6.3111	-16.960687	0.000198	1.984146	0.672247	0.016164
1843	9.2100e-01	-6.2549	-16.883287	0.000190	1.900161	0.643792	0.015480
1844	9.2150e-01	-6.1939	-16.810591	0.000178	1.784681	0.604666	0.014539
1845	9.2200e-01	-6.1843	-16.723783	0.000213	2.131119	0.722043	0.017362
1846	9.2250e-01	-6.1603	-16.646383	0.000190	1.900161	0.643792	0.015480
1847	9.2300e-01	-6.1185	-16.571121	0.000185	1.847670	0.626008	0.015052
1848	9.2350e-01	-6.0576	-16.488589	0.000203	2.026138	0.686474	0.016506
1849	9.2400e-01	-6.0303	-16.407340	0.000199	1.994644	0.675804	0.016250
1850	9.2450e-01	-6.0014	-16.309842	0.000239	2.393572	0.810964	0.019500
1851	9.2500e-01	-5.9517	-16.238856	0.000174	1.742689	0.590439	0.014197
1852	9.2550e-01	-5.8988	-16.153331	0.000210	2.099625	0.711372	0.017105
1853	9.2600e-01	-5.8442	-16.077641	0.000186	1.858168	0.629564	0.015138
1854	9.2650e-01	-5.8218	-15.990833	0.000213	2.131119	0.722043	0.017362
1855	9.2700e-01	-5.7897	-15.904025	0.000213	2.131119	0.722043	0.017362
1856	9.2750e-01	-5.7175	-15.823632	0.000197	1.973647	0.668690	0.016079
1857	9.2800e-01	-5.7127	-15.736824	0.000213	2.131119	0.722043	0.017362
1858	9.2850e-01	-5.6613	-15.659424	0.000190	1.900161	0.643792	0.015480
1859	9.2900e-01	-5.6533	-15.581596	0.000191	1.910659	0.647349	0.015566
1860	9.2950e-01	-5.6084	-15.491795	0.000220	2.204606	0.746941	0.017960
1861	9.3000e-01	-5.5539	-15.410973	0.000198	1.984146	0.672247	0.016164
1862	9.3050e-01	-5.5105	-15.326304	0.000208	2.078629	0.704258	0.016934
1863	9.3100e-01	-5.4849	-15.244627	0.000201	2.005142	0.679360	0.016335
1864	9.3150e-01	-5.4095	-15.167655	0.000189	1.889662	0.640235	0.015395
1865	9.3200e-01	-5.4143	-15.076570	-0.000224	-2.236100	-0.757611	0.018217
1866	9.3250e-01	-5.3485	-14.991045	0.000210	2.099625	0.711372	0.017105
1867	9.3300e-01	-5.3084	-14.905093	0.000211	2.110123	0.714929	0.017191
1868	9.3350e-01	-5.2507	-14.825127	0.000196	1.963149	0.665133	0.015993
1869	9.3400e-01	-5.2202	-14.741312	0.000206	2.057632	0.697145	0.016763
1870	9.3450e-01	-5.2009	-14.649373	0.000226	2.257097	0.764725	0.018388
1871	9.3500e-01	-5.1319	-14.575821	0.000181	1.805677	0.611780	0.014710
1872	9.3550e-01	-5.1063	-14.486875	0.000218	2.183610	0.739827	0.017789
1873	9.3600e-01	-5.0694	-14.397074	0.000220	2.204606	0.746941	0.017960
1874	9.3650e-01	-5.0277	-14.311121	0.000211	2.110123	0.714929	0.017191
1875	9.3700e-01	-4.9715	-14.235432	0.000186	1.858168	0.629564	0.015138
1876	9.3750e-01	-4.9394	-14.143492	0.000226	2.257097	0.764725	0.018388
1877	9.3800e-01	-4.8721	-14.072079	0.000175	1.753187	0.593996	0.014283
1878	9.3850e-01	-4.8688	-13.986554	0.000210	2.099625	0.711372	0.017105
1879	9.3900e-01	-4.8496	-13.897608	0.000218	2.183610	0.739827	0.017789
1880	9.3950e-01	-4.7742	-13.812510	0.000209	2.089127	0.707815	0.017019
1881	9.4000e-01	-4.7293	-13.722709	0.000220	2.204606	0.746941	0.017960
1882	9.4050e-01	-4.7052	-13.637611	0.000209	2.089127	0.707815	0.017019
1883	9.4100e-01	-4.6940	-13.561067	0.000188	1.879164	0.636678	0.015309
1884	9.4150e-01	-4.6507	-13.465706	0.000234	2.341082	0.793180	0.019072
1885	9.4200e-01	-4.6298	-13.380181	0.000210	2.099625	0.711372	0.017105
1886	9.4250e-01	-4.5480	-13.303208	0.000189	1.889662	0.640235	0.015395
1887	9.4300e-01	-4.5400	-13.208703	0.000232	2.320085	0.786066	0.018901
1888	9.4350e-01	-4.4967	-13.125744	0.000204	2.036636	0.690031	0.016592
1889	9.4400e-01	-4.4373	-13.045350	0.000197	1.973647	0.668690	0.016079
1890	9.4450e-01	-4.3956	-12.955122	0.000222	2.215104	0.750498	0.018046
1891	9.4500e-01	-4.3411	-12.871735	0.000205	2.047134	0.693588	0.016677
1892	9.4550e-01	-4.3074	-12.777657	0.000231	2.309587	0.782509	0.018816
1893	9.4600e-01	-4.2689	-12.698974	0.000193	1.931655	0.654462	0.015737
1894	9.4650e-01	-4.2272	-12.613449	0.000210	2.099625	0.711372	0.017105
1895	9.4700e-01	-4.1951	-12.529207	0.000207	2.068131	0.700702	0.016848
1896	9.4750e-01	-4.1614	-12.440261	0.000218	2.183610	0.739827	0.017789
1897	9.4800e-01	-4.1373	-12.346611	0.000230	2.299089	0.778953	0.018730
1898	9.4850e-01	-4.0619	-12.262369	0.000207	2.068131	0.700702	0.016848
1899	9.4900e-01	-4.0234	-12.175988	0.000212	2.120621	0.718486	0.017276
1900	9.4950e-01	-3.9994	-12.092601	0.000205	2.047134	0.693588	0.016677
1901	9.5000e-01	-3.9625	-11.992537	0.000246	2.456561	0.832305	0.020013
1902	9.5050e-01	-3.9512	-11.908295	0.000207	2.068131	0.700702	0.016848
1903	9.5100e-01	-3.8822	-11.816783	0.000225	2.246599	0.761168	0.018302
1904	9.5150e-01	-3.8550	-11.735962	0.000198	1.984146	0.672247	0.016164
1905	9.5200e-01	-3.7860	-11.655568	0.000197	1.973647	0.668690	0.016079
1906	9.5250e-01	-3.7427	-11.559353	0.000236	2.362078	0.800294	0.019243
1907	9.5300e-01	-3.7330	-11.468696	0.000223	2.225602	0.754054	0.018131
1908	9.5350e-01	-3.6593	-11.378467	0.000222	2.215104	0.750498	0.018046
1909	9.5400e-01	-3.6304	-11.291659	0.000213	2.131119	0.722043	0.017362
1910	9.5450e-01	-3.5935	-11.204851	0.000213	2.131119	0.722043	0.017362
1911	9.5500e-01	-3.5566	-11.113339	0.000225	2.246599	0.761168	0.018302
1912	9.5550e-01	-3.5309	-11.017979	0.000234	2.341082	0.793180	0.019072
1913	9.5600e-01	-3.4427	-10.938013	0.000196	1.963149	0.665133	0.015993
1914	9.5650e-01	-3.4010	-10.844363	0.000230	2.299089	0.778953	0.018730
1915	9.5700e-01	-3.4090	-10.748147	-0.000236	-2.362078	-0.800294	0.019243
1916	9.5750e-01	-3.3272	-10.668182	0.000196	1.963149	0.665133	0.015993
1917	9.5800e-01	-3.2999	-10.574959	0.000229	2.288591	0.775396	0.018644
1918	9.5850e-01	-3.2710	-10.480882	0.000231	2.309587	0.782509	0.018816
1919	9.5900e-01	-3.2261	-10.396639	0.000207	2.068131	0.700702	0.016848
1920	9.5950e-01	-3.2037	-10.300851	0.000235	2.351580	0.796737	0.019158
1921	9.6000e-01	-3.1635	-10.211905	0.000218	2.183610	0.739827	0.017789
1922	9.6050e-01	-3.0817	-10.124670	0.000214	2.141617	0.725600	0.017447
1923	9.6100e-01	-3.0657	-10.034441	0.000222	2.215104	0.750498	0.018046
1924	9.6150e-01	-3.0400	-9.948061	0.000212	2.120621	0.718486	0.017276
1925	9.6200e-01	-2.9999	-9.853555	0.000232	2.320085	0.786066	0.018901
1926	9.6250e-01	-2.9630	-9.762899	0.000223	2.225602	0.754054	0.018131
1927	9.6300e-01	-2.9406	-9.671815	0.000224	2.236100	0.757611	0.018217
1928	9.6350e-01	-2.8539	-9.584151	0.000215	2.152115	0.729156	0.017533
1929	9.6400e-01	-2.8347	-9.477673	0.000261	2.614033	0.885658	0.021296
1930	9.6450e-01	-2.7785	-9.393858	0.000206	2.057632	0.697145	0.016763
1931	9.6500e-01	-2.7497	-9.298925	0.000233	2.330584	0.789623	0.018987
1932	9.6550e-01	-2.7128	-9.215966	0.000204	2.036636	0.690031	0.016592
1933	9.6600e-01	-2.6887	-9.110343	0.000259	2.593037	0.878545	0.021125
1934	9.6650e-01	-2.6534	-9.014555	0.000235	2.351580	0.796737	0.019158
1935	9.6700e-01	-2.6069	-8.932023	0.000203	2.026138	0.686474	0.016506
1936	9.6750e-01	-2.5652	-8.845215	0.000213	2.131119	0.722043	0.017362
1937	9.6800e-01	-2.5251	-8.748999	0.000236	2.362078	0.800294	0.019243
1938	9.6850e-01	-2.4962	-8.662191	0.000213	2.131119	0.722043	0.017362
1939	9.6900e-01	-2.4096	-8.567686	0.000232	2.320085	0.786066	0.018901
1940	9.6950e-01	-2.4208	-8.468477	-0.000244	-2.435565	-0.825192	0.019842
1941	9.7000e-01	-2.3550	-8.380386	0.000216	2.162614	0.732713	0.017618
1942	9.7050e-01	-2.3053	-8.277329	0.000253	2.530048	0.857203	0.020612
1943	9.7100e-01	-2.2620	-8.196507	0.000198	1.984146	0.672247	0.016164
1944	9.7150e-01	-2.2122	-8.095160	0.000249	2.488055	0.842976	0.020269
1945	9.7200e-01	-2.1978	-7.991675	0.000254	2.540546	0.860760	0.020697
1946	9.7250e-01	-2.1641	-7.904012	0.000215	2.152115	0.729156	0.017533
1947	9.7300e-01	-2.1015	-7.814638	0.000219	2.194108	0.743384	0.017875
1948	9.7350e-01	-2.0374	-7.722699	0.000226	2.257097	0.764725	0.018388
1949	9.7400e-01	-2.0229	-7.622207	0.000247	2.467059	0.835862	0.020098
1950	9.7450e-01	-2.0037	-7.525563	0.000237	2.372576	0.803851	0.019329
1951	9.7500e-01	-1.9363	-7.436190	0.000219	2.194108	0.743384	0.017875
1952	9.7550e-01	-1.9106	-7.347244	0.000218	2.183610	0.739827	0.017789
1953	9.7600e-01	-1.8753	-7.245469	0.000250	2.498554	0.846533	0.020355
1954	9.7650e-01	-1.8433	-7.149253	0.000236	2.362078	0.800294	0.019243
1955	9.7700e-01	-1.7871	-7.050899	0.000241	2.414569	0.818078	0.019671
1956	9.7750e-01	-1.7614	-6.950407	0.000247	2.467059	0.835862	0.020098
1957	9.7800e-01	-1.6973	-6.863172	0.000214	2.141617	0.725600	0.017447
1958	9.7850e-01	-1.7117	-6.755838	-0.000264	-2.635029	-0.892772	0.021467
1959	9.7900e-01	-1.6187	-6.669030	0.000213	2.131119	0.722043	0.017362
1960	9.7950e-01	-1.6026	-6.565972	0.000253	2.530048	0.857203	0.020612
1961	9.8000e-01	-1.5513	-6.469329	0.000237	2.372576	0.803851	0.019329
1962	9.8050e-01	-1.5096	-6.365416	0.000255	2.551044	0.864317	0.020783
1963	9.8100e-01	-1.4903	-6.265779	0.000245	2.446063	0.828749	0.019927
1964	9.8150e-01	-1.4438	-6.176833	0.000218	2.183610	0.739827	0.017789
1965	9.8200e-01	-1.4214	-6.078479	0.000241	2.414569	0.818078	0.019671
1966	9.8250e-01	-1.3604	-5.988251	0.000222	2.215104	0.750498	0.018046
1967	9.8300e-01	-1.3427	-5.881772	0.000261	2.614033	0.885658	0.021296
1968	9.8350e-01	-1.2802	-5.789832	0.000226	2.257097	0.764725	0.018388
1969	9.8400e-01	-1.2433	-5.692761	0.000238	2.383074	0.807407	0.019414
1970	9.8450e-01	-1.1855	-5.590131	0.000252	2.519550	0.853647	0.020526
1971	9.8500e-01	-1.1502	-5.489212	0.000248	2.477557	0.839419	0.020184
1972	9.8550e-01	-1.1198	-5.393424	0.000235	2.351580	0.796737	0.019158
1973	9.8600e-01	-1.0780	-5.294215	0.000244	2.435565	0.825192	0.019842
1974	9.8650e-01	-1.0283	-5.184315	0.000270	2.698018	0.914113	0.021980
1975	9.8700e-01	-1.0059	-5.092803	0.000225	2.246599	0.761168	0.018302
1976	9.8750e-01	-0.9641	-4.985042	0.000265	2.645527	0.896329	0.021552
1977	9.8800e-01	-0.9064	-4.889254	0.000235	2.351580	0.796737	0.019158
1978	9.8850e-01	-0.8342	-4.791327	0.000240	2.404070	0.814521	0.019585
1979	9.8900e-01	-0.8278	-4.686132	0.000258	2.582539	0.874988	0.021039
1980	9.8950e-01	-0.7893	-4.586067	0.000246	2.456561	0.832305	0.020013
1981	9.9000e-01	-0.7476	-4.495838	0.000222	2.215104	0.750498	0.018046
1982	9.9050e-01	-0.7059	-4.392781	0.000253	2.530048	0.857203	0.020612
1983	9.9100e-01	-0.6738	-4.302552	0.000222	2.215104	0.750498	0.018046
1984	9.9150e-01	-0.6385	-4.190942	0.000274	2.740010	0.928341	0.022322
1985	9.9200e-01	-0.5888	-4.090450	0.000247	2.467059	0.835862	0.020098
1986	9.9250e-01	-0.5470	-3.992951	0.000239	2.393572	0.810964	0.019500
1987	9.9300e-01	-0.4973	-3.890749	0.000251	2.509052	0.850090	0.020440
1988	9.9350e-01	-0.4813	-3.790684	0.000246	2.456561	0.832305	0.020013
1989	9.9400e-01	-0.4668	-3.682067	0.000267	2.666524	0.903443	0.021723
1990	9.9450e-01	-0.3465	-3.593549	0.000217	2.173112	0.736270	0.017704
1991	9.9500e-01	-0.3577	-3.480656	-0.000277	-2.771505	-0.939011	0.022579
1992	9.9550e-01	-0.2872	-3.380164	0.000247	2.467059	0.835862	0.020098
1993	9.9600e-01	-0.2599	-3.279244	0.000248	2.477557	0.839419	0.020184
1994	9.9650e-01	-0.2102	-3.178325	0.000248	2.477557	0.839419	0.020184
1995	9.9700e-01	-0.2086	-3.072274	0.000260	2.603535	0.882101	0.021210
1996	9.9750e-01	-0.1492	-2.976058	0.000236	2.362078	0.800294	0.019243
1997	9.9800e-01	-0.1123	-2.875139	0.000248	2.477557	0.839419	0.020184
1998	9.9850e-01	-0.0786	-2.771653	0.000254	2.540546	0.860760	0.020697
1999	9.9900e-01	-0.0289	-2.666457	0.000258	2.582539	0.874988	0.021039
2000	9.9950e-01	-0.0080	-2.564255	0.000251	2.509052	0.850090	0.020440
2001	1.0000e+00	0.0465	-2.462908	0.000251	2.509052	0.850090	0.020269

Center data before PMax,+/-Pr and +/-Vc Calc.

PMax (uC/cm2):	4.00e+01
Pr (uC/cm2):	1.43e-01
-Pr (uC/cm2):	-2.46e+00
PLoss (uC/cm2):	-1.20e+00
Vc:	6.66e-01
-Vc:	-6.29e-02
C (Max-Eff) (nF):	1.99e-01
K (Eff):	6.75e+02
Vert. (+/-Pr) Shift (uC/cm2):	-1.16e+00
Horiz. Shift (+/-Vc):	3.01e-01
Offset (uC/cm2):	1.26e+00

A (Loop Area - uC/cm2·Volts):	5.91e-02



Hysteresis Version: 5.48.1 - Radiant Technologies, Inc., 1999 - 9/12/24

