»»»»»»»»»»»»»»»»»»»»»»»»»»»»»»»»»»»» Hysteresis ««««««««««««««««««««««««««««««««««««
»»»  Executed Version:	5.48.1
»»»  Vision Version:	5.48.4 (R)
»»»  Vision Compiled:	9/18/24
»»»  Driver Version:	5.47.0
»»»  Windows Version:	Windows 8 or 8.1
»»»  Processor Information:	x86 (AMD or Intel) - 32 Processors
»»»  Tester Name:	PMF21124-494 (100V)
»»»  Tester S/N:	PMF21124-494
»»»  Internal Amp Type:	100V RevK 270k
»»»  Internal Amp S/N:	iAB2-596/K     
»»»  Execution Count:	1
»»»»»»»»»»»»»»»»»»»»»»»»»»»»»»»»»»»»»»»»»»««««««««««««««««««««««««««««««««««««««««««

Stored:	6/6/2025 - 16:9:2
Configured:	06/06/25 01:57:07 PM
Executed:	06/06/25 04:08:35 PM

»»»»»»»»»»»»»»»»»»»»»»»»»»»»»»»»»»» Sample Info ««««««««««««««««««««««««««««««««««««
Sample Name:	
Lot Name:	
Wafer Name:	
Die Row/Column:	0/0
Capacitor Number:	0
Sample Area (cm2):	1.00e-04
Sample Thickness (microns):	3.00e-01

Amplifier:	Internal

»»»»»»»»»»»»»»»»»»»»»»»»»»»»»»»»»»» Tester Info «««««««««««««««««««««««««««««««««««
Tester Name:	PMF21124-494 (100V)
Tester Serial Number:	PMF21124-494
Return Signal Amp. Level:	1.79 [Index: 2]

»»»»»»»»»»»»»»»»»»»»»»»»»»»»»»»» Hysteresis Info ««««««««««««««««««««««««««««««««««
Task Name:	Hyst-501
Volts:	20.00
Field:	666.67 (kV/cm)
DCBias:	0.00
DCField:	0.00 (kV/cm)
Hysteresis Period (ms):	1.00e+00
Preset:	Enabled
Preset Delay (ms):	1.00e+03
Profile:	Standard Bipolar

»»»»»»»»»»»»»»»»»»»»»»»»»»»»»»»»»»»»»» Data «««««««««««««««««««««««««««««««««««««««
Points:	2001

Valid Data

Point	Time (ms)	Drive Voltage	Measured Polarization (uC/cm2)	Capacitance (uF)	Normalized Capacitance (uF/cm2)	Dielectric Constant	Instantaneous Current (mA)
   1	0.0000e+00	0.0369	-0.900365	0.000012	0.115068	0.038986	0.000941
   2	5.0000e-04	0.0449	-0.895661	0.000012	0.115068	0.038986	0.000941
   3	1.0000e-03	0.1299	-0.882832	0.000031	0.313821	0.106325	0.002566
   4	1.5000e-03	0.1717	-0.836649	0.000113	1.129755	0.382771	0.009237
   5	2.0000e-03	0.2053	-0.779775	0.000139	1.391272	0.471376	0.011375
   6	2.5000e-03	0.2326	-0.712210	0.000165	1.652790	0.559980	0.013513
   7	3.0000e-03	0.2615	-0.631389	0.000198	1.977071	0.669850	0.016164
   8	3.5000e-03	0.2856	-0.552278	0.000194	1.935228	0.655673	0.015822
   9	4.0000e-03	0.3545	-0.470602	0.000200	1.997993	0.676938	0.016335
  10	4.5000e-03	0.3962	-0.372675	0.000240	2.395499	0.811617	0.019585
  11	5.0000e-03	0.4315	-0.280736	0.000225	2.249049	0.761998	0.018388
  12	5.5000e-03	0.4973	-0.187514	0.000228	2.280431	0.772631	0.018644
  13	6.0000e-03	0.5374	-0.091298	0.000235	2.353656	0.797440	0.019243
  14	6.5000e-03	0.5759	0.009622	0.000247	2.468724	0.836426	0.020184
  15	7.0000e-03	0.5888	0.115245	0.000258	2.583791	0.875412	0.021125
  16	7.5000e-03	0.6321	0.214454	0.000243	2.426881	0.822250	0.019842
  17	8.0000e-03	0.6866	0.313663	0.000243	2.426881	0.822250	0.019842
  18	8.5000e-03	0.7235	0.420569	0.000262	2.615173	0.886045	0.021381
  19	9.0000e-03	0.7700	0.523200	0.000251	2.510567	0.850603	0.020526
  20	9.5000e-03	0.8294	0.617277	0.000230	2.301353	0.779719	0.018816
  21	1.0000e-02	0.8358	0.721618	0.000255	2.552409	0.864780	0.020868
  22	1.0500e-02	0.8711	0.817406	0.000234	2.343195	0.793896	0.019158
  23	1.1000e-02	0.9385	0.926023	0.000266	2.657016	0.900221	0.021723
  24	1.1500e-02	0.9369	1.032929	-0.000262	-2.615173	-0.886045	0.021381
  25	1.2000e-02	0.9898	1.131710	0.000242	2.416420	0.818705	0.019756
  26	1.2500e-02	1.0347	1.236051	0.000255	2.552409	0.864780	0.020868
  27	1.3000e-02	1.0909	1.336115	0.000245	2.447802	0.829338	0.020013
  28	1.3500e-02	1.1358	1.440883	0.000256	2.562870	0.868324	0.020954
  29	1.4000e-02	1.1583	1.540520	0.000244	2.437342	0.825794	0.019927
  30	1.4500e-02	1.1968	1.651275	0.000271	2.709320	0.917942	0.022151
  31	1.5000e-02	1.2481	1.753477	0.000250	2.500106	0.847059	0.020440
  32	1.5500e-02	1.2738	1.865943	0.000275	2.751162	0.932119	0.022493
  33	1.6000e-02	1.3219	1.959593	0.000229	2.290892	0.776175	0.018730
  34	1.6500e-02	1.3732	2.057519	0.000240	2.395499	0.811617	0.019585
  35	1.7000e-02	1.4165	2.163142	0.000258	2.583791	0.875412	0.021125
  36	1.7500e-02	1.4679	2.259786	0.000236	2.364117	0.800984	0.019329
  37	1.8000e-02	1.4951	2.369685	0.000269	2.688398	0.910854	0.021980
  38	1.8500e-02	1.5224	2.475309	0.000258	2.583791	0.875412	0.021125
  39	1.9000e-02	1.5818	2.576228	0.000247	2.468724	0.836426	0.020184
  40	1.9500e-02	1.6042	2.675438	0.000243	2.426881	0.822250	0.019842
  41	2.0000e-02	1.6459	2.787903	0.000275	2.751162	0.932119	0.022493
  42	2.0500e-02	1.6604	2.889250	0.000248	2.479184	0.839970	0.020269
  43	2.1000e-02	1.7246	2.992308	0.000252	2.521027	0.854147	0.020612
  44	2.1500e-02	1.7534	3.103918	0.000273	2.730241	0.925031	0.022322
  45	2.2000e-02	1.7887	3.208259	0.000255	2.552409	0.864780	0.020868
  46	2.2500e-02	1.8753	3.299770	0.000224	2.238588	0.758454	0.018302
  47	2.3000e-02	1.8673	3.412664	-0.000276	-2.761623	-0.935663	0.022579
  48	2.3500e-02	1.9074	3.509734	0.000237	2.374578	0.804529	0.019414
  49	2.4000e-02	1.9668	3.621772	0.000274	2.740702	0.928575	0.022408
  50	2.4500e-02	1.9716	3.718843	0.000237	2.374578	0.804529	0.019414
  51	2.5000e-02	2.0855	3.824894	0.000259	2.594252	0.878956	0.021210
  52	2.5500e-02	2.0823	3.928807	-0.000254	-2.541949	-0.861236	0.020783
  53	2.6000e-02	2.1064	4.036141	0.000263	2.625634	0.889589	0.021467
  54	2.6500e-02	2.1481	4.135350	0.000243	2.426881	0.822250	0.019842
  55	2.7000e-02	2.2026	4.232421	0.000237	2.374578	0.804529	0.019414
  56	2.7500e-02	2.2475	4.335906	0.000253	2.531488	0.857691	0.020697
  57	2.8000e-02	2.3053	4.436826	0.000247	2.468724	0.836426	0.020184
  58	2.8500e-02	2.3149	4.545870	0.000267	2.667477	0.903766	0.021809
  59	2.9000e-02	2.3743	4.646362	0.000246	2.458263	0.832882	0.020098
  60	2.9500e-02	2.4240	4.751986	0.000258	2.583791	0.875412	0.021125
  61	3.0000e-02	2.4432	4.850340	0.000241	2.405960	0.815161	0.019671
  62	3.0500e-02	2.5042	4.957246	0.000262	2.615173	0.886045	0.021381
  63	3.1000e-02	2.5235	5.055172	0.000240	2.395499	0.811617	0.019585
  64	3.1500e-02	2.5523	5.160368	0.000257	2.573331	0.871868	0.021039
  65	3.2000e-02	2.5940	5.254873	0.000231	2.311813	0.783264	0.018901
  66	3.2500e-02	2.6422	5.360069	0.000257	2.573331	0.871868	0.021039
  67	3.3000e-02	2.6630	5.460561	0.000246	2.458263	0.832882	0.020098
  68	3.3500e-02	2.7304	5.562763	0.000250	2.500106	0.847059	0.020440
  69	3.4000e-02	2.7561	5.660262	0.000239	2.385038	0.808073	0.019500
  70	3.4500e-02	2.8026	5.768879	0.000266	2.657016	0.900221	0.021723
  71	3.5000e-02	2.8700	5.868515	0.000244	2.437342	0.825794	0.019927
  72	3.5500e-02	2.8828	5.972428	0.000254	2.541949	0.861236	0.020783
  73	3.6000e-02	2.8924	6.076341	0.000254	2.541949	0.861236	0.020783
  74	3.6500e-02	2.9630	6.174695	0.000241	2.405960	0.815161	0.019671
  75	3.7000e-02	3.0095	6.278180	0.000253	2.531488	0.857691	0.020697
  76	3.7500e-02	3.0336	6.384232	0.000259	2.594252	0.878956	0.021210
  77	3.8000e-02	3.0833	6.484296	0.000245	2.447802	0.829338	0.020013
  78	3.8500e-02	3.1154	6.579229	0.000232	2.322274	0.786808	0.018987
  79	3.9000e-02	3.1587	6.684424	0.000257	2.573331	0.871868	0.021039
  80	3.9500e-02	3.1988	6.780213	0.000234	2.343195	0.793896	0.019158
  81	4.0000e-02	3.2406	6.887119	0.000262	2.615173	0.886045	0.021381
  82	4.0500e-02	3.2630	6.982907	0.000234	2.343195	0.793896	0.019158
  83	4.1000e-02	3.3272	7.086392	0.000253	2.531488	0.857691	0.020697
  84	4.1500e-02	3.3849	7.177904	0.000224	2.238588	0.758454	0.018302
  85	4.2000e-02	3.4026	7.287804	0.000269	2.688398	0.910854	0.021980
  86	4.2500e-02	3.4315	7.383164	0.000233	2.332735	0.790352	0.019072
  87	4.3000e-02	3.4748	7.483228	0.000245	2.447802	0.829338	0.020013
  88	4.3500e-02	3.5261	7.587141	0.000254	2.541949	0.861236	0.020783
  89	4.4000e-02	3.5774	7.686778	0.000244	2.437342	0.825794	0.019927
  90	4.4500e-02	3.6063	7.785132	0.000241	2.405960	0.815161	0.019671
  91	4.5000e-02	3.6544	7.880065	0.000232	2.322274	0.786808	0.018987
  92	4.5500e-02	3.6448	7.988682	-0.000266	-2.657016	-0.900221	0.021723
  93	4.6000e-02	3.7282	8.086608	0.000240	2.395499	0.811617	0.019585
  94	4.6500e-02	3.7459	8.181968	0.000233	2.332735	0.790352	0.019072
  95	4.7000e-02	3.8052	8.287592	0.000258	2.583791	0.875412	0.021125
  96	4.7500e-02	3.8421	8.380386	0.000227	2.269971	0.769087	0.018559
  97	4.8000e-02	3.8919	8.486010	0.000258	2.583791	0.875412	0.021125
  98	4.8500e-02	3.9143	8.578804	0.000227	2.269971	0.769087	0.018559
  99	4.9000e-02	3.9769	8.675875	0.000237	2.374578	0.804529	0.019414
 100	4.9500e-02	3.9961	8.782782	0.000262	2.615173	0.886045	0.021381
 101	5.0000e-02	4.0459	8.884557	0.000249	2.489645	0.843515	0.020355
 102	5.0500e-02	4.0812	8.975213	0.000222	2.217667	0.751366	0.018131
 103	5.1000e-02	4.1277	9.076133	0.000247	2.468724	0.836426	0.020184
 104	5.1500e-02	4.1646	9.174914	0.000242	2.416420	0.818705	0.019756
 105	5.2000e-02	4.2063	9.278399	0.000253	2.531488	0.857691	0.020697
 106	5.2500e-02	4.2496	9.373760	0.000233	2.332735	0.790352	0.019072
 107	5.3000e-02	4.2721	9.473824	0.000245	2.447802	0.829338	0.020013
 108	5.3500e-02	4.2945	9.574744	0.000247	2.468724	0.836426	0.020184
 109	5.4000e-02	4.3635	9.667111	0.000226	2.259510	0.765543	0.018473
 110	5.4500e-02	4.4004	9.765037	0.000240	2.395499	0.811617	0.019585
 111	5.5000e-02	4.4357	9.863818	0.000242	2.416420	0.818705	0.019756
 112	5.5500e-02	4.5047	9.964738	0.000247	2.468724	0.836426	0.020184
 113	5.6000e-02	4.5063	10.063519	0.000242	2.416420	0.818705	0.019756
 114	5.6500e-02	4.5480	10.164011	0.000246	2.458263	0.832882	0.020098
 115	5.7000e-02	4.6186	10.258517	0.000231	2.311813	0.783264	0.018901
 116	5.7500e-02	4.6314	10.357726	0.000243	2.426881	0.822250	0.019842
 117	5.8000e-02	4.6956	10.449237	0.000224	2.238588	0.758454	0.018302
 118	5.8500e-02	4.7421	10.546308	0.000237	2.374578	0.804529	0.019414
 119	5.9000e-02	4.7726	10.650649	0.000255	2.552409	0.864780	0.020868
 120	5.9500e-02	4.7870	10.749430	0.000242	2.416420	0.818705	0.019756
 121	6.0000e-02	4.8416	10.846501	0.000237	2.374578	0.804529	0.019414
 122	6.0500e-02	4.8672	10.948276	0.000249	2.489645	0.843515	0.020355
 123	6.1000e-02	4.9250	11.042354	0.000230	2.301353	0.779719	0.018816
 124	6.1500e-02	4.9475	11.145411	0.000252	2.521027	0.854147	0.020612
 125	6.2000e-02	5.0437	11.229226	0.000205	2.050296	0.694659	0.016763
 126	6.2500e-02	5.0646	11.329290	0.000245	2.447802	0.829338	0.020013
 127	6.3000e-02	5.0742	11.430210	0.000247	2.468724	0.836426	0.020184
 128	6.3500e-02	5.1416	11.529419	0.000243	2.426881	0.822250	0.019842
 129	6.4000e-02	5.1544	11.624779	0.000233	2.332735	0.790352	0.019072
 130	6.4500e-02	5.1961	11.722278	0.000239	2.385038	0.808073	0.019500
 131	6.5000e-02	5.2490	11.813790	0.000224	2.238588	0.758454	0.018302
 132	6.5500e-02	5.2956	11.913426	0.000244	2.437342	0.825794	0.019927
 133	6.6000e-02	5.3164	12.008787	0.000233	2.332735	0.790352	0.019072
 134	6.6500e-02	5.3662	12.105858	0.000237	2.374578	0.804529	0.019414
 135	6.7000e-02	5.4111	12.196087	0.000221	2.207206	0.747822	0.018046
 136	6.7500e-02	5.4432	12.294868	0.000242	2.416420	0.818705	0.019756
 137	6.8000e-02	5.4849	12.391084	0.000235	2.353656	0.797440	0.019243
 138	6.8500e-02	5.5025	12.492431	0.000248	2.479184	0.839970	0.020269
 139	6.9000e-02	5.5779	12.578384	0.000210	2.102599	0.712380	0.017191
 140	6.9500e-02	5.6036	12.679303	0.000247	2.468724	0.836426	0.020184
 141	7.0000e-02	5.6389	12.773808	0.000231	2.311813	0.783264	0.018901
 142	7.0500e-02	5.6645	12.881142	0.000263	2.625634	0.889589	0.021467
 143	7.1000e-02	5.7191	12.966667	0.000209	2.092139	0.708836	0.017105
 144	7.1500e-02	5.7464	13.062455	0.000234	2.343195	0.793896	0.019158
 145	7.2000e-02	5.8009	13.162092	0.000244	2.437342	0.825794	0.019927
 146	7.2500e-02	5.8763	13.249328	0.000213	2.133982	0.723013	0.017447
 147	7.3000e-02	5.8859	13.350675	0.000248	2.479184	0.839970	0.020269
 148	7.3500e-02	5.9084	13.445608	0.000232	2.322274	0.786808	0.018987
 149	7.4000e-02	5.9613	13.531560	0.000210	2.102599	0.712380	0.017191
 150	7.4500e-02	5.9886	13.635473	0.000254	2.541949	0.861236	0.020783
 151	7.5000e-02	6.0399	13.732972	0.000239	2.385038	0.808073	0.019500
 152	7.5500e-02	6.0752	13.830898	0.000240	2.395499	0.811617	0.019585
 153	7.6000e-02	6.1137	13.921127	0.000221	2.207206	0.747822	0.018046
 154	7.6500e-02	6.1474	14.015632	0.000231	2.311813	0.783264	0.018901
 155	7.7000e-02	6.1907	14.114414	0.000242	2.416420	0.818705	0.019756
 156	7.7500e-02	6.2501	14.202077	0.000214	2.144442	0.726557	0.017533
 157	7.8000e-02	6.2806	14.293589	0.000224	2.238588	0.758454	0.018302
 158	7.8500e-02	6.3255	14.391515	0.000240	2.395499	0.811617	0.019585
 159	7.9000e-02	6.3768	14.484309	0.000227	2.269971	0.769087	0.018559
 160	7.9500e-02	6.3897	14.580953	0.000236	2.364117	0.800984	0.019329
 161	8.0000e-02	6.4586	14.667761	0.000212	2.123521	0.719468	0.017362
 162	8.0500e-02	6.4875	14.766542	0.000242	2.416420	0.818705	0.019756
 163	8.1000e-02	6.4939	14.870027	0.000253	2.531488	0.857691	0.020697
 164	8.1500e-02	6.5661	14.963677	0.000229	2.290892	0.776175	0.018730
 165	8.2000e-02	6.6143	15.050058	0.000211	2.113060	0.715924	0.017276
 166	8.2500e-02	6.6367	15.141997	0.000225	2.249049	0.761998	0.018388
 167	8.3000e-02	6.6608	15.230516	0.000217	2.165364	0.733645	0.017704
 168	8.3500e-02	6.7185	15.328014	0.000239	2.385038	0.808073	0.019500
 169	8.4000e-02	6.7683	15.419098	0.000223	2.228128	0.754910	0.018217
 170	8.4500e-02	6.8003	15.512321	0.000228	2.280431	0.772631	0.018644
 171	8.5000e-02	6.8645	15.603832	0.000224	2.238588	0.758454	0.018302
 172	8.5500e-02	6.8693	15.702186	0.000241	2.405960	0.815161	0.019671
 173	8.6000e-02	6.9608	15.788139	0.000210	2.102599	0.712380	0.017191
 174	8.6500e-02	6.9527	15.880934	-0.000227	-2.269971	-0.769087	0.018559
 175	8.7000e-02	6.9880	15.978860	0.000240	2.395499	0.811617	0.019585
 176	8.7500e-02	7.0426	16.068661	0.000220	2.196746	0.744278	0.017960
 177	8.8000e-02	7.0650	16.164449	0.000234	2.343195	0.793896	0.019158
 178	8.8500e-02	7.1116	16.254678	0.000221	2.207206	0.747822	0.018046
 179	8.9000e-02	7.1645	16.351321	0.000236	2.364117	0.800984	0.019329
 180	8.9500e-02	7.2142	16.444971	0.000229	2.290892	0.776175	0.018730
 181	9.0000e-02	7.2511	16.541187	0.000235	2.353656	0.797440	0.019243
 182	9.0500e-02	7.2993	16.627140	0.000210	2.102599	0.712380	0.017191
 183	9.1000e-02	7.3105	16.720790	0.000229	2.290892	0.776175	0.018730
 184	9.1500e-02	7.3811	16.815722	0.000232	2.322274	0.786808	0.018987
 185	9.2000e-02	7.4067	16.906379	0.000222	2.217667	0.751366	0.018131
 186	9.2500e-02	7.4452	17.006443	0.000245	2.447802	0.829338	0.020013
 187	9.3000e-02	7.5062	17.088120	0.000200	1.997993	0.676938	0.016335
 188	9.3500e-02	7.5094	17.186046	0.000240	2.395499	0.811617	0.019585
 189	9.4000e-02	7.5591	17.277130	0.000223	2.228128	0.754910	0.018217
 190	9.4500e-02	7.6041	17.364793	0.000214	2.144442	0.726557	0.017533
 191	9.5000e-02	7.6313	17.458871	0.000230	2.301353	0.779719	0.018816
 192	9.5500e-02	7.6827	17.547817	0.000218	2.175824	0.737189	0.017789
 193	9.6000e-02	7.7115	17.644888	0.000237	2.374578	0.804529	0.019414
 194	9.6500e-02	7.7661	17.733406	0.000217	2.165364	0.733645	0.017704
 195	9.7000e-02	7.7950	17.826629	0.000228	2.280431	0.772631	0.018644
 196	9.7500e-02	7.8479	17.923272	0.000236	2.364117	0.800984	0.019329
 197	9.8000e-02	7.9057	18.009652	0.000211	2.113060	0.715924	0.017276
 198	9.8500e-02	7.9730	18.105013	0.000233	2.332735	0.790352	0.019072
 199	9.9000e-02	7.9602	18.190110	-0.000208	-2.081678	-0.705292	0.017019
 200	9.9500e-02	7.9859	18.286753	0.000236	2.364117	0.800984	0.019329
 201	1.0000e-01	8.0324	18.378693	0.000225	2.249049	0.761998	0.018388
 202	1.0050e-01	8.0741	18.469349	0.000222	2.217667	0.751366	0.018131
 203	1.0100e-01	8.1463	18.558295	0.000218	2.175824	0.737189	0.017789
 204	1.0150e-01	8.1671	18.647669	0.000219	2.186285	0.740733	0.017875
 205	1.0200e-01	8.1944	18.739609	0.000225	2.249049	0.761998	0.018388
 206	1.0250e-01	8.2345	18.830265	0.000222	2.217667	0.751366	0.018131
 207	1.0300e-01	8.2875	18.918356	0.000215	2.154903	0.730101	0.017618
 208	1.0350e-01	8.3308	19.010295	0.000225	2.249049	0.761998	0.018388
 209	1.0400e-01	8.3677	19.105656	0.000233	2.332735	0.790352	0.019072
 210	1.0450e-01	8.4383	19.197168	0.000224	2.238588	0.758454	0.018302
 211	1.0500e-01	8.4270	19.290818	-0.000229	-2.290892	-0.776175	0.018730
 212	1.0550e-01	8.4752	19.381902	0.000223	2.228128	0.754910	0.018217
 213	1.0600e-01	8.5297	19.470848	0.000218	2.175824	0.737189	0.017789
 214	1.0650e-01	8.5859	19.560222	0.000219	2.186285	0.740733	0.017875
 215	1.0700e-01	8.5923	19.650450	0.000221	2.207206	0.747822	0.018046
 216	1.0750e-01	8.6613	19.738114	0.000214	2.144442	0.726557	0.017533
 217	1.0800e-01	8.6789	19.828770	0.000222	2.217667	0.751366	0.018131
 218	1.0850e-01	8.7158	19.916861	0.000215	2.154903	0.730101	0.017618
 219	1.0900e-01	8.7559	20.009656	0.000227	2.269971	0.769087	0.018559
 220	1.0950e-01	8.8040	20.098602	0.000218	2.175824	0.737189	0.017789
 221	1.1000e-01	8.8217	20.184127	0.000209	2.092139	0.708836	0.017105
 222	1.1050e-01	8.8746	20.271790	0.000214	2.144442	0.726557	0.017533
 223	1.1100e-01	8.9420	20.369289	0.000239	2.385038	0.808073	0.019500
 224	1.1150e-01	8.9709	20.451393	0.000201	2.008453	0.680482	0.016421
 225	1.1200e-01	8.9949	20.548036	0.000236	2.364117	0.800984	0.019329
 226	1.1250e-01	9.0302	20.638692	0.000222	2.217667	0.751366	0.018131
 227	1.1300e-01	9.0848	20.726356	0.000214	2.144442	0.726557	0.017533
 228	1.1350e-01	9.1104	20.820861	0.000231	2.311813	0.783264	0.018901
 229	1.1400e-01	9.1473	20.908524	0.000214	2.144442	0.726557	0.017533
 230	1.1450e-01	9.2163	20.996187	0.000214	2.144442	0.726557	0.017533
 231	1.1500e-01	9.2372	21.083850	0.000214	2.144442	0.726557	0.017533
 232	1.1550e-01	9.2757	21.177500	0.000229	2.290892	0.776175	0.018730
 233	1.1600e-01	9.3431	21.263881	0.000211	2.113060	0.715924	0.017276
 234	1.1650e-01	9.3671	21.346412	0.000202	2.018914	0.684027	0.016506
 235	1.1700e-01	9.3992	21.436641	0.000221	2.207206	0.747822	0.018046
 236	1.1750e-01	9.4377	21.525160	0.000217	2.165364	0.733645	0.017704
 237	1.1800e-01	9.4746	21.616244	0.000223	2.228128	0.754910	0.018217
 238	1.1850e-01	9.5163	21.710321	0.000230	2.301353	0.779719	0.018816
 239	1.1900e-01	9.5356	21.799267	0.000218	2.175824	0.737189	0.017789
 240	1.1950e-01	9.6126	21.887358	0.000215	2.154903	0.730101	0.017618
 241	1.2000e-01	9.6446	21.972883	0.000209	2.092139	0.708836	0.017105
 242	1.2050e-01	9.6992	22.057981	0.000208	2.081678	0.705292	0.017019
 243	1.2100e-01	9.7233	22.152058	0.000230	2.301353	0.779719	0.018816
 244	1.2150e-01	9.7473	22.250412	0.000241	2.405960	0.815161	0.019671
 245	1.2200e-01	9.8339	22.327812	0.000189	1.893386	0.641496	0.015480
 246	1.2250e-01	9.8580	22.410344	0.000202	2.018914	0.684027	0.016506
 247	1.2300e-01	9.8965	22.504422	0.000230	2.301353	0.779719	0.018816
 248	1.2350e-01	9.8981	22.593795	0.000219	2.186285	0.740733	0.017875
 249	1.2400e-01	9.9511	22.685307	0.000224	2.238588	0.758454	0.018302
 250	1.2450e-01	9.9944	22.758003	0.000178	1.778318	0.602510	0.014539
 251	1.2500e-01	10.0425	22.851653	0.000229	2.290892	0.776175	0.018730
 252	1.2550e-01	10.0938	22.940599	0.000218	2.175824	0.737189	0.017789
 253	1.2600e-01	10.1211	23.030828	0.000221	2.207206	0.747822	0.018046
 254	1.2650e-01	10.1805	23.118919	0.000215	2.154903	0.730101	0.017618
 255	1.2700e-01	10.1917	23.209576	0.000222	2.217667	0.751366	0.018131
 256	1.2750e-01	10.2527	23.286121	0.000187	1.872464	0.634408	0.015309
 257	1.2800e-01	10.2847	23.379343	0.000228	2.280431	0.772631	0.018644
 258	1.2850e-01	10.3313	23.463585	0.000206	2.060757	0.698203	0.016848
 259	1.2900e-01	10.3361	23.553386	0.000220	2.196746	0.744278	0.017960
 260	1.2950e-01	10.4548	23.635063	0.000200	1.997993	0.676938	0.016335
 261	1.3000e-01	10.4532	23.730423	-0.000233	-2.332735	-0.790352	0.019072
 262	1.3050e-01	10.4355	23.827494	-0.000237	-2.374578	-0.804529	0.019414
 263	1.3100e-01	10.5398	23.901473	0.000181	1.809700	0.613143	0.014796
 264	1.3150e-01	10.5607	23.997261	0.000234	2.343195	0.793896	0.019158
 265	1.3200e-01	10.6152	24.077227	0.000196	1.956150	0.662761	0.015993
 266	1.3250e-01	10.6617	24.168739	0.000224	2.238588	0.758454	0.018302
 267	1.3300e-01	10.6730	24.258968	0.000221	2.207206	0.747822	0.018046
 268	1.3350e-01	10.7724	24.336796	0.000190	1.903846	0.645041	0.015566
 269	1.3400e-01	10.7596	24.436005	-0.000243	-2.426881	-0.822250	0.019842
 270	1.3450e-01	10.7997	24.513833	0.000190	1.903846	0.645041	0.015566
 271	1.3500e-01	10.8478	24.607055	0.000228	2.280431	0.772631	0.018644
 272	1.3550e-01	10.8863	24.687876	0.000198	1.977071	0.669850	0.016164
 273	1.3600e-01	10.9280	24.777250	0.000219	2.186285	0.740733	0.017875
 274	1.3650e-01	10.9746	24.867906	0.000222	2.217667	0.751366	0.018131
 275	1.3700e-01	11.0291	24.949583	0.000200	1.997993	0.676938	0.016335
 276	1.3750e-01	11.0323	25.037674	0.000215	2.154903	0.730101	0.017618
 277	1.3800e-01	11.1093	25.118067	0.000197	1.966610	0.666306	0.016079
 278	1.3850e-01	11.1462	25.201454	0.000204	2.039835	0.691115	0.016677
 279	1.3900e-01	11.1510	25.289545	0.000215	2.154903	0.730101	0.017618
 280	1.3950e-01	11.1911	25.376780	0.000213	2.133982	0.723013	0.017447
 281	1.4000e-01	11.2312	25.463588	0.000212	2.123521	0.719468	0.017362
 282	1.4050e-01	11.2986	25.548686	0.000208	2.081678	0.705292	0.017019
 283	1.4100e-01	11.3339	25.630790	0.000201	2.008453	0.680482	0.016421
 284	1.4150e-01	11.3339	25.726150	-0.000233	-2.332735	-0.790352	0.019072
 285	1.4200e-01	11.4157	25.804833	0.000192	1.924768	0.652129	0.015737
 286	1.4250e-01	11.4590	25.891641	0.000212	2.123521	0.719468	0.017362
 287	1.4300e-01	11.4927	25.974173	0.000202	2.018914	0.684027	0.016506
 288	1.4350e-01	11.5104	26.061409	0.000213	2.133982	0.723013	0.017447
 289	1.4400e-01	11.5665	26.149499	0.000215	2.154903	0.730101	0.017618
 290	1.4450e-01	11.6146	26.230748	0.000199	1.987532	0.673394	0.016250
 291	1.4500e-01	11.6259	26.320122	0.000219	2.186285	0.740733	0.017875
 292	1.4550e-01	11.6836	26.409923	0.000220	2.196746	0.744278	0.017960
 293	1.4600e-01	11.7302	26.486468	0.000187	1.872464	0.634408	0.015309
 294	1.4650e-01	11.7574	26.577125	0.000222	2.217667	0.751366	0.018131
 295	1.4700e-01	11.8007	26.663933	0.000212	2.123521	0.719468	0.017362
 296	1.4750e-01	11.8745	26.737912	0.000181	1.809700	0.613143	0.014796
 297	1.4800e-01	11.9130	26.833700	0.000234	2.343195	0.793896	0.019158
 298	1.4850e-01	11.9355	26.916659	0.000203	2.029375	0.687571	0.016592
 299	1.4900e-01	11.9644	27.002612	0.000210	2.102599	0.712380	0.017191
 300	1.4950e-01	12.0093	27.086854	0.000206	2.060757	0.698203	0.016848
 301	1.5000e-01	12.0414	27.174945	0.000215	2.154903	0.730101	0.017618
 302	1.5050e-01	12.0702	27.263891	0.000218	2.175824	0.737189	0.017789
 303	1.5100e-01	12.1087	27.347705	0.000205	2.050296	0.694659	0.016763
 304	1.5150e-01	12.1601	27.428099	0.000197	1.966610	0.666306	0.016079
 305	1.5200e-01	12.2146	27.519183	0.000223	2.228128	0.754910	0.018217
 306	1.5250e-01	12.2467	27.593590	0.000182	1.820161	0.616687	0.014881
 307	1.5300e-01	12.2900	27.682536	0.000218	2.175824	0.737189	0.017789
 308	1.5350e-01	12.3285	27.761219	0.000192	1.924768	0.652129	0.015737
 309	1.5400e-01	12.3606	27.850593	0.000219	2.186285	0.740733	0.017875
 310	1.5450e-01	12.4136	27.926710	0.000186	1.862004	0.630864	0.015223
 311	1.5500e-01	12.4553	28.013090	0.000211	2.113060	0.715924	0.017276
 312	1.5550e-01	12.5114	28.102036	0.000218	2.175824	0.737189	0.017789
 313	1.5600e-01	12.4922	28.192265	-0.000221	-2.207206	-0.747822	0.018046
 314	1.5650e-01	12.5884	28.272659	0.000197	1.966610	0.666306	0.016079
 315	1.5700e-01	12.6012	28.350059	0.000189	1.893386	0.641496	0.015480
 316	1.5750e-01	12.6558	28.440716	0.000222	2.217667	0.751366	0.018131
 317	1.5800e-01	12.6494	28.525813	-0.000208	-2.081678	-0.705292	0.017019
 318	1.5850e-01	12.7312	28.607062	0.000199	1.987532	0.673394	0.016250
 319	1.5900e-01	12.7809	28.684890	0.000190	1.903846	0.645041	0.015566
 320	1.5950e-01	12.7922	28.773836	0.000218	2.175824	0.737189	0.017789
 321	1.6000e-01	12.8483	28.857650	0.000205	2.050296	0.694659	0.016763
 322	1.6050e-01	12.8948	28.935906	0.000191	1.914307	0.648585	0.015651
 323	1.6100e-01	12.9221	29.020148	0.000206	2.060757	0.698203	0.016848
 324	1.6150e-01	12.9654	29.105673	0.000209	2.092139	0.708836	0.017105
 325	1.6200e-01	12.9959	29.192053	0.000211	2.113060	0.715924	0.017276
 326	1.6250e-01	13.0569	29.267743	0.000185	1.851543	0.627320	0.015138
 327	1.6300e-01	13.0777	29.356261	0.000217	2.165364	0.733645	0.017704
 328	1.6350e-01	13.0970	29.427247	0.000174	1.736475	0.588334	0.014197
 329	1.6400e-01	13.1595	29.520897	0.000229	2.290892	0.776175	0.018730
 330	1.6450e-01	13.1868	29.600008	0.000194	1.935228	0.655673	0.015822
 331	1.6500e-01	13.2478	29.681684	0.000200	1.997993	0.676938	0.016335
 332	1.6550e-01	13.3119	29.761222	0.000195	1.945689	0.659217	0.015908
 333	1.6600e-01	13.2975	29.845465	-0.000206	-2.060757	-0.698203	0.016848
 334	1.6650e-01	13.3777	29.930990	0.000209	2.092139	0.708836	0.017105
 335	1.6700e-01	13.4034	30.011383	0.000197	1.966610	0.666306	0.016079
 336	1.6750e-01	13.4451	30.092204	0.000198	1.977071	0.669850	0.016164
 337	1.6800e-01	13.4964	30.173026	0.000198	1.977071	0.669850	0.016164
 338	1.6850e-01	13.5189	30.258123	0.000208	2.081678	0.705292	0.017019
 339	1.6900e-01	13.5445	30.345786	0.000214	2.144442	0.726557	0.017533
 340	1.6950e-01	13.6055	30.422331	0.000187	1.872464	0.634408	0.015309
 341	1.7000e-01	13.6649	30.498021	0.000185	1.851543	0.627320	0.015138
 342	1.7050e-01	13.6633	30.586112	-0.000215	-2.154903	-0.730101	0.017618
 343	1.7100e-01	13.7274	30.668216	0.000201	2.008453	0.680482	0.016421
 344	1.7150e-01	13.7547	30.746899	0.000192	1.924768	0.652129	0.015737
 345	1.7200e-01	13.8157	30.834562	0.000214	2.144442	0.726557	0.017533
 346	1.7250e-01	13.8317	30.914100	0.000195	1.945689	0.659217	0.015908
 347	1.7300e-01	13.8943	31.003901	0.000220	2.196746	0.744278	0.017960
 348	1.7350e-01	13.9392	31.075315	0.000175	1.746936	0.591878	0.014283
 349	1.7400e-01	13.9472	31.169392	0.000230	2.301353	0.779719	0.018816
 350	1.7450e-01	13.9713	31.245082	0.000185	1.851543	0.627320	0.015138
 351	1.7500e-01	14.0418	31.328469	0.000204	2.039835	0.691115	0.016677
 352	1.7550e-01	14.0771	31.409290	0.000198	1.977071	0.669850	0.016164
 353	1.7600e-01	14.1365	31.487973	0.000192	1.924768	0.652129	0.015737
 354	1.7650e-01	14.1606	31.568367	0.000197	1.966610	0.666306	0.016079
 355	1.7700e-01	14.2151	31.651326	0.000203	2.029375	0.687571	0.016592
 356	1.7750e-01	14.2456	31.735141	0.000205	2.050296	0.694659	0.016763
 357	1.7800e-01	14.2969	31.814679	0.000195	1.945689	0.659217	0.015908
 358	1.7850e-01	14.2953	31.899776	-0.000208	-2.081678	-0.705292	0.017019
 359	1.7900e-01	14.3803	31.972045	0.000177	1.767857	0.598966	0.014454
 360	1.7950e-01	14.3932	32.058853	0.000212	2.123521	0.719468	0.017362
 361	1.8000e-01	14.4237	32.140529	0.000200	1.997993	0.676938	0.016335
 362	1.8050e-01	14.5007	32.212798	0.000177	1.767857	0.598966	0.014454
 363	1.8100e-01	14.5327	32.299606	0.000212	2.123521	0.719468	0.017362
 364	1.8150e-01	14.5600	32.376151	0.000187	1.872464	0.634408	0.015309
 365	1.8200e-01	14.5953	32.463814	0.000214	2.144442	0.726557	0.017533
 366	1.8250e-01	14.6322	32.537366	0.000180	1.799239	0.609599	0.014710
 367	1.8300e-01	14.6707	32.621180	0.000205	2.050296	0.694659	0.016763
 368	1.8350e-01	14.7397	32.697725	0.000187	1.872464	0.634408	0.015309
 369	1.8400e-01	14.7718	32.781112	0.000204	2.039835	0.691115	0.016677
 370	1.8450e-01	14.8007	32.861078	0.000196	1.956150	0.662761	0.015993
 371	1.8500e-01	14.8343	32.940189	0.000194	1.935228	0.655673	0.015822
 372	1.8550e-01	14.9001	33.019299	0.000194	1.935228	0.655673	0.015822
 373	1.8600e-01	14.9033	33.103114	0.000205	2.050296	0.694659	0.016763
 374	1.8650e-01	14.9787	33.185218	0.000201	2.008453	0.680482	0.016421
 375	1.8700e-01	15.0012	33.268605	0.000204	2.039835	0.691115	0.016677
 376	1.8750e-01	15.0317	33.345150	0.000187	1.872464	0.634408	0.015309
 377	1.8800e-01	15.0846	33.420412	0.000184	1.841082	0.623776	0.015052
 378	1.8850e-01	15.1279	33.505509	0.000208	2.081678	0.705292	0.017019
 379	1.8900e-01	15.1680	33.579916	0.000182	1.820161	0.616687	0.014881
 380	1.8950e-01	15.1985	33.662448	0.000202	2.018914	0.684027	0.016506
 381	1.9000e-01	15.2386	33.741131	0.000192	1.924768	0.652129	0.015737
 382	1.9050e-01	15.2803	33.821097	0.000196	1.956150	0.662761	0.015993
 383	1.9100e-01	15.3188	33.897642	0.000187	1.872464	0.634408	0.015309
 384	1.9150e-01	15.3589	33.977180	0.000195	1.945689	0.659217	0.015908
 385	1.9200e-01	15.4006	34.060139	0.000203	2.029375	0.687571	0.016592
 386	1.9250e-01	15.4279	34.141388	0.000199	1.987532	0.673394	0.016250
 387	1.9300e-01	15.4712	34.214512	0.000179	1.788779	0.606055	0.014625
 388	1.9350e-01	15.4825	34.298754	0.000206	2.060757	0.698203	0.016848
 389	1.9400e-01	15.5611	34.377010	0.000191	1.914307	0.648585	0.015651
 390	1.9450e-01	15.6092	34.453982	0.000188	1.882925	0.637952	0.015395
 391	1.9500e-01	15.6509	34.539935	0.000210	2.102599	0.712380	0.017191
 392	1.9550e-01	15.6541	34.623749	0.000205	2.050296	0.694659	0.016763
 393	1.9600e-01	15.7119	34.693025	0.000169	1.694632	0.574157	0.013855
 394	1.9650e-01	15.7552	34.772563	0.000195	1.945689	0.659217	0.015908
 395	1.9700e-01	15.8402	34.853812	0.000199	1.987532	0.673394	0.016250
 396	1.9750e-01	15.8562	34.934205	0.000197	1.966610	0.666306	0.016079
 397	1.9800e-01	15.8594	35.017592	0.000204	2.039835	0.691115	0.016677
 398	1.9850e-01	15.9364	35.091144	0.000180	1.799239	0.609599	0.014710
 399	1.9900e-01	15.9669	35.169827	0.000192	1.924768	0.652129	0.015737
 400	1.9950e-01	16.0311	35.248082	0.000191	1.914307	0.648585	0.015651
 401	2.0000e-01	16.0311	35.331469	-0.000204	-2.039835	-0.691115	0.016677
 402	2.0050e-01	16.0680	35.411863	0.000197	1.966610	0.666306	0.016079
 403	2.0100e-01	16.1274	35.485414	0.000180	1.799239	0.609599	0.014710
 404	2.0150e-01	16.1594	35.572650	0.000213	2.133982	0.723013	0.017447
 405	2.0200e-01	16.1739	35.650905	0.000191	1.914307	0.648585	0.015651
 406	2.0250e-01	16.2605	35.723174	0.000177	1.767857	0.598966	0.014454
 407	2.0300e-01	16.2573	35.803140	-0.000196	-1.956150	-0.662761	0.015993
 408	2.0350e-01	16.3102	35.882678	0.000195	1.945689	0.659217	0.015908
 409	2.0400e-01	16.3808	35.955802	0.000179	1.788779	0.606055	0.014625
 410	2.0450e-01	16.3808	36.038761	-0.000203	-2.029375	-0.687571	0.016592
 411	2.0500e-01	16.4386	36.117017	0.000191	1.914307	0.648585	0.015651
 412	2.0550e-01	16.4707	36.186720	0.000171	1.705093	0.577701	0.013941
 413	2.0600e-01	16.5268	36.265403	0.000192	1.924768	0.652129	0.015737
 414	2.0650e-01	16.5701	36.340665	0.000184	1.841082	0.623776	0.015052
 415	2.0700e-01	16.6150	36.421058	0.000197	1.966610	0.666306	0.016079
 416	2.0750e-01	16.6327	36.500597	0.000195	1.945689	0.659217	0.015908
 417	2.0800e-01	16.6551	36.577569	0.000188	1.882925	0.637952	0.015395
 418	2.0850e-01	16.7241	36.655825	0.000191	1.914307	0.648585	0.015651
 419	2.0900e-01	16.7706	36.735791	0.000196	1.956150	0.662761	0.015993
 420	2.0950e-01	16.8092	36.814046	0.000191	1.914307	0.648585	0.015651
 421	2.1000e-01	16.8573	36.887170	0.000179	1.788779	0.606055	0.014625
 422	2.1050e-01	16.9022	36.962860	0.000185	1.851543	0.627320	0.015138
 423	2.1100e-01	16.9102	37.037694	0.000183	1.830621	0.620231	0.014967
 424	2.1150e-01	16.9760	37.111673	0.000181	1.809700	0.613143	0.014796
 425	2.1200e-01	16.9776	37.192494	0.000198	1.977071	0.669850	0.016164
 426	2.1250e-01	17.0370	37.271178	0.000192	1.924768	0.652129	0.015737
 427	2.1300e-01	17.0867	37.348150	0.000188	1.882925	0.637952	0.015395
 428	2.1350e-01	17.1284	37.424695	0.000187	1.872464	0.634408	0.015309
 429	2.1400e-01	17.1541	37.508082	0.000204	2.039835	0.691115	0.016677
 430	2.1450e-01	17.2102	37.578212	0.000172	1.715554	0.581245	0.014026
 431	2.1500e-01	17.2279	37.659034	0.000198	1.977071	0.669850	0.016164
 432	2.1550e-01	17.2744	37.733868	0.000183	1.830621	0.620231	0.014967
 433	2.1600e-01	17.3305	37.812551	0.000192	1.924768	0.652129	0.015737
 434	2.1650e-01	17.3482	37.884820	0.000177	1.767857	0.598966	0.014454
 435	2.1700e-01	17.3979	37.966069	0.000199	1.987532	0.673394	0.016250
 436	2.1750e-01	17.4557	38.043041	0.000188	1.882925	0.637952	0.015395
 437	2.1800e-01	17.4797	38.120014	0.000188	1.882925	0.637952	0.015395
 438	2.1850e-01	17.5471	38.192282	0.000177	1.767857	0.598966	0.014454
 439	2.1900e-01	17.5760	38.267972	0.000185	1.851543	0.627320	0.015138
 440	2.1950e-01	17.5888	38.350076	0.000201	2.008453	0.680482	0.016421
 441	2.2000e-01	17.5968	38.429614	0.000195	1.945689	0.659217	0.015908
 442	2.2050e-01	17.6754	38.500600	0.000174	1.736475	0.588334	0.014197
 443	2.2100e-01	17.6963	38.575862	0.000184	1.841082	0.623776	0.015052
 444	2.2150e-01	17.7621	38.661387	0.000209	2.092139	0.708836	0.017105
 445	2.2200e-01	17.7861	38.731090	0.000171	1.705093	0.577701	0.013941
 446	2.2250e-01	17.8808	38.798227	0.000164	1.642329	0.556436	0.013427
 447	2.2300e-01	17.8920	38.884180	0.000210	2.102599	0.712380	0.017191
 448	2.2350e-01	17.9081	38.963291	0.000194	1.935228	0.655673	0.015822
 449	2.2400e-01	17.9578	39.041119	0.000190	1.903846	0.645041	0.015566
 450	2.2450e-01	18.0027	39.117236	0.000186	1.862004	0.630864	0.015223
 451	2.2500e-01	18.0572	39.184373	0.000164	1.642329	0.556436	0.013427
 452	2.2550e-01	18.0765	39.264767	0.000197	1.966610	0.666306	0.016079
 453	2.2600e-01	18.1118	39.334469	0.000171	1.705093	0.577701	0.013941
 454	2.2650e-01	18.1792	39.417856	0.000204	2.039835	0.691115	0.016677
 455	2.2700e-01	18.2080	39.490980	0.000179	1.788779	0.606055	0.014625
 456	2.2750e-01	18.2257	39.565815	0.000183	1.830621	0.620231	0.014967
 457	2.2800e-01	18.2963	39.637656	0.000176	1.757397	0.595422	0.014368
 458	2.2850e-01	18.3588	39.715911	0.000191	1.914307	0.648585	0.015651
 459	2.2900e-01	18.3669	39.792884	0.000188	1.882925	0.637952	0.015395
 460	2.2950e-01	18.4070	39.866008	0.000179	1.788779	0.606055	0.014625
 461	2.3000e-01	18.4278	39.944691	0.000192	1.924768	0.652129	0.015737
 462	2.3050e-01	18.4808	40.016532	0.000176	1.757397	0.595422	0.014368
 463	2.3100e-01	18.5481	40.094360	0.000190	1.903846	0.645041	0.015566
 464	2.3150e-01	18.5690	40.162780	0.000167	1.673711	0.567069	0.013684
 465	2.3200e-01	18.6043	40.241890	0.000194	1.935228	0.655673	0.015822
 466	2.3250e-01	18.6364	40.316725	0.000183	1.830621	0.620231	0.014967
 467	2.3300e-01	18.6733	40.389849	0.000179	1.788779	0.606055	0.014625
 468	2.3350e-01	18.6973	40.470242	0.000197	1.966610	0.666306	0.016079
 469	2.3400e-01	18.7679	40.542511	0.000177	1.767857	0.598966	0.014454
 470	2.3450e-01	18.8016	40.617345	0.000183	1.830621	0.620231	0.014967
 471	2.3500e-01	18.8417	40.698166	0.000198	1.977071	0.669850	0.016164
 472	2.3550e-01	18.8545	40.770863	0.000178	1.778318	0.602510	0.014539
 473	2.3600e-01	18.9267	40.847408	0.000187	1.872464	0.634408	0.015309
 474	2.3650e-01	18.9348	40.915828	0.000167	1.673711	0.567069	0.013684
 475	2.3700e-01	19.0102	40.988524	0.000178	1.778318	0.602510	0.014539
 476	2.3750e-01	19.0631	41.063786	0.000184	1.841082	0.623776	0.015052
 477	2.3800e-01	19.0775	41.133917	0.000172	1.715554	0.581245	0.014026
 478	2.3850e-01	19.1353	41.213883	0.000196	1.956150	0.662761	0.015993
 479	2.3900e-01	19.1722	41.288289	0.000182	1.820161	0.616687	0.014881
 480	2.3950e-01	19.2011	41.367400	0.000194	1.935228	0.655673	0.015822
 481	2.4000e-01	19.2444	41.440524	0.000179	1.788779	0.606055	0.014625
 482	2.4050e-01	19.2941	41.514503	0.000181	1.809700	0.613143	0.014796
 483	2.4100e-01	19.3182	41.594041	0.000195	1.945689	0.659217	0.015908
 484	2.4150e-01	19.3807	41.661179	0.000164	1.642329	0.556436	0.013427
 485	2.4200e-01	19.3791	41.744565	-0.000204	-2.039835	-0.691115	0.016677
 486	2.4250e-01	19.4497	41.816407	0.000176	1.757397	0.595422	0.014368
 487	2.4300e-01	19.4626	41.885254	0.000168	1.684172	0.570613	0.013770
 488	2.4350e-01	19.5235	41.965220	0.000196	1.956150	0.662761	0.015993
 489	2.4400e-01	19.5781	42.029364	0.000157	1.569104	0.531627	0.012829
 490	2.4450e-01	19.5893	42.106764	0.000189	1.893386	0.641496	0.015480
 491	2.4500e-01	19.6358	42.176467	0.000171	1.705093	0.577701	0.013941
 492	2.4550e-01	19.6823	42.250874	0.000182	1.820161	0.616687	0.014881
 493	2.4600e-01	19.7289	42.329985	0.000194	1.935228	0.655673	0.015822
 494	2.4650e-01	19.7625	42.399687	0.000171	1.705093	0.577701	0.013941
 495	2.4700e-01	19.8171	42.467680	0.000166	1.663250	0.563524	0.013598
 496	2.4750e-01	19.8588	42.548073	0.000197	1.966610	0.666306	0.016079
 497	2.4800e-01	19.8845	42.620770	0.000178	1.778318	0.602510	0.014539
 498	2.4850e-01	19.9149	42.694749	0.000181	1.809700	0.613143	0.014796
 499	2.4900e-01	19.9583	42.766590	0.000176	1.757397	0.595422	0.014368
 500	2.4950e-01	19.9807	42.840997	0.000182	1.820161	0.616687	0.014881
 501	2.5000e-01	20.0369	42.922246	0.000199	1.987532	0.673394	0.016250
 502	2.5050e-01	19.9759	42.969284	-0.000115	-1.150676	-0.389860	0.009408
 503	2.5100e-01	19.9486	42.988527	-0.000047	-0.470731	-0.159488	0.003849
 504	2.5150e-01	19.8813	42.984251	0.000010	0.104607	0.035442	-0.000855
 505	2.5200e-01	19.8588	42.948331	0.000088	0.878698	0.297711	-0.007184
 506	2.5250e-01	19.8267	42.910272	0.000093	0.931002	0.315432	-0.007612
 507	2.5300e-01	19.7802	42.864944	0.000111	1.108834	0.375683	-0.009066
 508	2.5350e-01	19.7256	42.815767	0.000120	1.202980	0.407581	-0.009835
 509	2.5400e-01	19.6791	42.761458	0.000133	1.328508	0.450111	-0.010862
 510	2.5450e-01	19.6583	42.697742	0.000156	1.558643	0.528083	-0.012743
 511	2.5500e-01	19.6198	42.629750	0.000166	1.663250	0.563524	-0.013598
 512	2.5550e-01	19.5781	42.567317	0.000153	1.527261	0.517450	-0.012487
 513	2.5600e-01	19.5203	42.502745	0.000158	1.579565	0.535171	-0.012914
 514	2.5650e-01	19.5043	42.430904	0.000176	1.757397	0.595422	-0.014368
 515	2.5700e-01	19.4754	42.366760	0.000157	1.569104	0.531627	-0.012829
 516	2.5750e-01	19.4289	42.302616	0.000157	1.569104	0.531627	-0.012829
 517	2.5800e-01	19.3872	42.226927	0.000185	1.851543	0.627320	-0.015138
 518	2.5850e-01	19.3342	42.167915	0.000144	1.443576	0.489097	-0.011802
 519	2.5900e-01	19.2845	42.096929	0.000174	1.736475	0.588334	-0.014197
 520	2.5950e-01	19.2364	42.038344	0.000143	1.433115	0.485553	-0.011717
 521	2.6000e-01	19.2251	41.967358	0.000174	1.736475	0.588334	-0.014197
 522	2.6050e-01	19.2091	41.898511	0.000168	1.684172	0.570613	-0.013770
 523	2.6100e-01	19.1273	41.837788	0.000149	1.485419	0.503273	-0.012145
 524	2.6150e-01	19.1048	41.767230	0.000173	1.726014	0.584790	-0.014112
 525	2.6200e-01	19.0679	41.694961	0.000177	1.767857	0.598966	-0.014454
 526	2.6250e-01	19.0422	41.629107	0.000161	1.610947	0.545804	-0.013171
 527	2.6300e-01	18.9749	41.564108	0.000159	1.590025	0.538715	-0.013000
 528	2.6350e-01	18.9492	41.492694	0.000175	1.746936	0.591878	-0.014283
 529	2.6400e-01	18.9027	41.426412	0.000162	1.621408	0.549348	-0.013256
 530	2.6450e-01	18.8578	41.360558	0.000161	1.610947	0.545804	-0.013171
 531	2.6500e-01	18.7968	41.292993	0.000165	1.652790	0.559980	-0.013513
 532	2.6550e-01	18.7808	41.219014	0.000181	1.809700	0.613143	-0.014796
 533	2.6600e-01	18.7326	41.145462	0.000180	1.799239	0.609599	-0.014710
 534	2.6650e-01	18.6957	41.081746	0.000156	1.558643	0.528083	-0.012743
 535	2.6700e-01	18.6636	41.009050	0.000178	1.778318	0.602510	-0.014539
 536	2.6750e-01	18.6380	40.941485	0.000165	1.652790	0.559980	-0.013513
 537	2.6800e-01	18.5754	40.879480	0.000152	1.516801	0.513906	-0.012401
 538	2.6850e-01	18.5433	40.807211	0.000177	1.767857	0.598966	-0.014454
 539	2.6900e-01	18.5032	40.729811	0.000189	1.893386	0.641496	-0.015480
 540	2.6950e-01	18.4583	40.666095	0.000156	1.558643	0.528083	-0.012743
 541	2.7000e-01	18.4503	40.595109	0.000174	1.736475	0.588334	-0.014197
 542	2.7050e-01	18.3829	40.534386	0.000149	1.485419	0.503273	-0.012145
 543	2.7100e-01	18.3460	40.463828	0.000173	1.726014	0.584790	-0.014112
 544	2.7150e-01	18.2770	40.390276	0.000180	1.799239	0.609599	-0.014710
 545	2.7200e-01	18.2738	40.326132	0.000157	1.569104	0.531627	-0.012829
 546	2.7250e-01	18.2129	40.247449	0.000192	1.924768	0.652129	-0.015737
 547	2.7300e-01	18.1792	40.174753	0.000178	1.778318	0.602510	-0.014539
 548	2.7350e-01	18.1647	40.103340	0.000175	1.746936	0.591878	-0.014283
 549	2.7400e-01	18.1246	40.031926	0.000175	1.746936	0.591878	-0.014283
 550	2.7450e-01	18.0540	39.963934	0.000166	1.663250	0.563524	-0.013598
 551	2.7500e-01	18.0043	39.892093	0.000176	1.757397	0.595422	-0.014368
 552	2.7550e-01	17.9786	39.818541	0.000180	1.799239	0.609599	-0.014710
 553	2.7600e-01	17.9417	39.750976	0.000165	1.652790	0.559980	-0.013513
 554	2.7650e-01	17.8840	39.690254	0.000149	1.485419	0.503273	-0.012145
 555	2.7700e-01	17.8423	39.618840	0.000175	1.746936	0.591878	-0.014283
 556	2.7750e-01	17.8375	39.547427	0.000175	1.746936	0.591878	-0.014283
 557	2.7800e-01	17.7845	39.470454	0.000188	1.882925	0.637952	-0.015395
 558	2.7850e-01	17.7332	39.391771	0.000192	1.924768	0.652129	-0.015737
 559	2.7900e-01	17.6883	39.330621	0.000150	1.495879	0.506818	-0.012230
 560	2.7950e-01	17.6610	39.254931	0.000185	1.851543	0.627320	-0.015138
 561	2.8000e-01	17.6369	39.187794	0.000164	1.642329	0.556436	-0.013427
 562	2.8050e-01	17.5647	39.115525	0.000177	1.767857	0.598966	-0.014454
 563	2.8100e-01	17.5359	39.038125	0.000189	1.893386	0.641496	-0.015480
 564	2.8150e-01	17.4910	38.972698	0.000160	1.600486	0.542259	-0.013085
 565	2.8200e-01	17.4637	38.897009	0.000185	1.851543	0.627320	-0.015138
 566	2.8250e-01	17.4043	38.824740	0.000177	1.767857	0.598966	-0.014454
 567	2.8300e-01	17.3867	38.759313	0.000160	1.600486	0.542259	-0.013085
 568	2.8350e-01	17.3626	38.683196	0.000186	1.862004	0.630864	-0.015223
 569	2.8400e-01	17.2728	38.611355	0.000176	1.757397	0.595422	-0.014368
 570	2.8450e-01	17.2551	38.539514	0.000176	1.757397	0.595422	-0.014368
 571	2.8500e-01	17.2263	38.470239	0.000169	1.694632	0.574157	-0.013855
 572	2.8550e-01	17.1669	38.401391	0.000168	1.684172	0.570613	-0.013770
 573	2.8600e-01	17.1460	38.326129	0.000184	1.841082	0.623776	-0.015052
 574	2.8650e-01	17.1252	38.248301	0.000190	1.903846	0.645041	-0.015566
 575	2.8700e-01	17.0594	38.179454	0.000168	1.684172	0.570613	-0.013770
 576	2.8750e-01	17.0305	38.105474	0.000181	1.809700	0.613143	-0.014796
 577	2.8800e-01	16.9920	38.037482	0.000166	1.663250	0.563524	-0.013598
 578	2.8850e-01	16.9006	37.968207	0.000169	1.694632	0.574157	-0.013855
 579	2.8900e-01	16.9086	37.894228	-0.000181	-1.809700	-0.613143	-0.014796
 580	2.8950e-01	16.8525	37.820248	0.000181	1.809700	0.613143	-0.014796
 581	2.9000e-01	16.8188	37.744986	0.000184	1.841082	0.623776	-0.015052
 582	2.9050e-01	16.7899	37.675711	0.000169	1.694632	0.574157	-0.013855
 583	2.9100e-01	16.7305	37.605153	0.000173	1.726014	0.584790	-0.014112
 584	2.9150e-01	16.6776	37.530746	0.000182	1.820161	0.616687	-0.014881
 585	2.9200e-01	16.6648	37.455056	0.000185	1.851543	0.627320	-0.015138
 586	2.9250e-01	16.6086	37.386636	0.000167	1.673711	0.567069	-0.013684
 587	2.9300e-01	16.5814	37.313085	0.000180	1.799239	0.609599	-0.014710
 588	2.9350e-01	16.5461	37.235685	0.000189	1.893386	0.641496	-0.015480
 589	2.9400e-01	16.4739	37.165554	0.000172	1.715554	0.581245	-0.014026
 590	2.9450e-01	16.4594	37.090720	0.000183	1.830621	0.620231	-0.014967
 591	2.9500e-01	16.4129	37.015885	0.000183	1.830621	0.620231	-0.014967
 592	2.9550e-01	16.3503	36.940196	0.000185	1.851543	0.627320	-0.015138
 593	2.9600e-01	16.3231	36.867927	0.000177	1.767857	0.598966	-0.014454
 594	2.9650e-01	16.2910	36.796941	0.000174	1.736475	0.588334	-0.014197
 595	2.9700e-01	16.2733	36.718258	0.000192	1.924768	0.652129	-0.015737
 596	2.9750e-01	16.2396	36.641713	0.000187	1.872464	0.634408	-0.015309
 597	2.9800e-01	16.1659	36.569444	0.000177	1.767857	0.598966	-0.014454
 598	2.9850e-01	16.1450	36.497603	0.000176	1.757397	0.595422	-0.014368
 599	2.9900e-01	16.0808	36.431321	0.000162	1.621408	0.549348	-0.013256
 600	2.9950e-01	16.0584	36.352638	0.000192	1.924768	0.652129	-0.015737
 601	3.0000e-01	16.0086	36.280370	0.000177	1.767857	0.598966	-0.014454
 602	3.0050e-01	15.9541	36.212805	0.000165	1.652790	0.559980	-0.013513
 603	3.0100e-01	15.9204	36.138826	0.000181	1.809700	0.613143	-0.014796
 604	3.0150e-01	15.9060	36.060570	0.000191	1.914307	0.648585	-0.015651
 605	3.0200e-01	15.8514	35.987446	0.000179	1.788779	0.606055	-0.014625
 606	3.0250e-01	15.8161	35.907481	0.000196	1.956150	0.662761	-0.015993
 607	3.0300e-01	15.7953	35.833074	0.000182	1.820161	0.616687	-0.014881
 608	3.0350e-01	15.7520	35.757812	0.000184	1.841082	0.623776	-0.015052
 609	3.0400e-01	15.6990	35.688964	0.000168	1.684172	0.570613	-0.013770
 610	3.0450e-01	15.6429	35.615412	0.000180	1.799239	0.609599	-0.014710
 611	3.0500e-01	15.6332	35.535019	0.000197	1.966610	0.666306	-0.016079
 612	3.0550e-01	15.5803	35.456763	0.000191	1.914307	0.648585	-0.015651
 613	3.0600e-01	15.5370	35.388771	0.000166	1.663250	0.563524	-0.013598
 614	3.0650e-01	15.4728	35.314792	0.000181	1.809700	0.613143	-0.014796
 615	3.0700e-01	15.4712	35.243378	0.000175	1.746936	0.591878	-0.014283
 616	3.0750e-01	15.4135	35.164695	0.000192	1.924768	0.652129	-0.015737
 617	3.0800e-01	15.3589	35.095420	0.000169	1.694632	0.574157	-0.013855
 618	3.0850e-01	15.3365	35.018020	0.000189	1.893386	0.641496	-0.015480
 619	3.0900e-01	15.3124	34.937626	0.000197	1.966610	0.666306	-0.016079
 620	3.0950e-01	15.2482	34.867923	0.000171	1.705093	0.577701	-0.013941
 621	3.1000e-01	15.2113	34.786675	0.000199	1.987532	0.673394	-0.016250
 622	3.1050e-01	15.1825	34.710557	0.000186	1.862004	0.630864	-0.015223
 623	3.1100e-01	15.1472	34.638716	0.000176	1.757397	0.595422	-0.014368
 624	3.1150e-01	15.0958	34.564310	0.000182	1.820161	0.616687	-0.014881
 625	3.1200e-01	15.0557	34.486482	0.000190	1.903846	0.645041	-0.015566
 626	3.1250e-01	15.0060	34.414641	0.000176	1.757397	0.595422	-0.014368
 627	3.1300e-01	14.9627	34.329543	0.000208	2.081678	0.705292	-0.017019
 628	3.1350e-01	14.9322	34.263261	0.000162	1.621408	0.549348	-0.013256
 629	3.1400e-01	14.8841	34.185861	0.000189	1.893386	0.641496	-0.015480
 630	3.1450e-01	14.8504	34.113165	0.000178	1.778318	0.602510	-0.014539
 631	3.1500e-01	14.8007	34.035337	0.000190	1.903846	0.645041	-0.015566
 632	3.1550e-01	14.7814	33.954943	0.000197	1.966610	0.666306	-0.016079
 633	3.1600e-01	14.7589	33.885241	0.000171	1.705093	0.577701	-0.013941
 634	3.1650e-01	14.6835	33.814682	0.000173	1.726014	0.584790	-0.014112
 635	3.1700e-01	14.6386	33.733861	0.000198	1.977071	0.669850	-0.016164
 636	3.1750e-01	14.6210	33.659027	0.000183	1.830621	0.620231	-0.014967
 637	3.1800e-01	14.5616	33.585048	0.000181	1.809700	0.613143	-0.014796
 638	3.1850e-01	14.5440	33.504226	0.000198	1.977071	0.669850	-0.016164
 639	3.1900e-01	14.4590	33.431103	0.000179	1.788779	0.606055	-0.014625
 640	3.1950e-01	14.4557	33.352847	0.000191	1.914307	0.648585	-0.015651
 641	3.2000e-01	14.3980	33.278440	0.000182	1.820161	0.616687	-0.014881
 642	3.2050e-01	14.3707	33.197619	0.000198	1.977071	0.669850	-0.016164
 643	3.2100e-01	14.3258	33.118508	0.000194	1.935228	0.655673	-0.015822
 644	3.2150e-01	14.3114	33.041108	0.000189	1.893386	0.641496	-0.015480
 645	3.2200e-01	14.2552	32.962853	0.000191	1.914307	0.648585	-0.015651
 646	3.2250e-01	14.2135	32.902130	0.000149	1.485419	0.503273	-0.012145
 647	3.2300e-01	14.1862	32.814467	0.000214	2.144442	0.726557	-0.017533
 648	3.2350e-01	14.1397	32.738777	0.000185	1.851543	0.627320	-0.015138
 649	3.2400e-01	14.0884	32.666081	0.000178	1.778318	0.602510	-0.014539
 650	3.2450e-01	14.0643	32.580128	0.000210	2.102599	0.712380	-0.017191
 651	3.2500e-01	14.0386	32.502728	0.000189	1.893386	0.641496	-0.015480
 652	3.2550e-01	13.9729	32.427466	0.000184	1.841082	0.623776	-0.015052
 653	3.2600e-01	13.9456	32.350921	0.000187	1.872464	0.634408	-0.015309
 654	3.2650e-01	13.8782	32.277797	0.000179	1.788779	0.606055	-0.014625
 655	3.2700e-01	13.8349	32.193127	0.000207	2.071217	0.701747	-0.016934
 656	3.2750e-01	13.8221	32.115300	0.000190	1.903846	0.645041	-0.015566
 657	3.2800e-01	13.7884	32.038755	0.000187	1.872464	0.634408	-0.015309
 658	3.2850e-01	13.7386	31.963920	0.000183	1.830621	0.620231	-0.014967
 659	3.2900e-01	13.6809	31.878823	0.000208	2.081678	0.705292	-0.017019
 660	3.2950e-01	13.6681	31.801850	0.000188	1.882925	0.637952	-0.015395
 661	3.3000e-01	13.5975	31.725305	0.000187	1.872464	0.634408	-0.015309
 662	3.3050e-01	13.5638	31.646195	0.000194	1.935228	0.655673	-0.015822
 663	3.3100e-01	13.5526	31.572215	0.000181	1.809700	0.613143	-0.014796
 664	3.3150e-01	13.4964	31.486263	0.000210	2.102599	0.712380	-0.017191
 665	3.3200e-01	13.4675	31.415705	0.000173	1.726014	0.584790	-0.014112
 666	3.3250e-01	13.4403	31.331890	0.000205	2.050296	0.694659	-0.016763
 667	3.3300e-01	13.3969	31.260477	0.000175	1.746936	0.591878	-0.014283
 668	3.3350e-01	13.3328	31.177090	0.000204	2.039835	0.691115	-0.016677
 669	3.3400e-01	13.2814	31.101828	0.000184	1.841082	0.623776	-0.015052
 670	3.3450e-01	13.2622	31.022289	0.000195	1.945689	0.659217	-0.015908
 671	3.3500e-01	13.1772	30.942751	0.000195	1.945689	0.659217	-0.015908
 672	3.3550e-01	13.1724	30.862785	0.000196	1.956150	0.662761	-0.015993
 673	3.3600e-01	13.1306	30.781964	0.000198	1.977071	0.669850	-0.016164
 674	3.3650e-01	13.0761	30.699005	0.000203	2.029375	0.687571	-0.016592
 675	3.3700e-01	13.0633	30.621177	0.000190	1.903846	0.645041	-0.015566
 676	3.3750e-01	12.9831	30.545487	0.000185	1.851543	0.627320	-0.015138
 677	3.3800e-01	12.9654	30.463383	0.000201	2.008453	0.680482	-0.016421
 678	3.3850e-01	12.9333	30.391114	0.000177	1.767857	0.598966	-0.014454
 679	3.3900e-01	12.9446	30.304307	-0.000212	-2.123521	-0.719468	-0.017362
 680	3.3950e-01	12.8579	30.229900	0.000182	1.820161	0.616687	-0.014881
 681	3.4000e-01	12.7970	30.151217	0.000192	1.924768	0.652129	-0.015737
 682	3.4050e-01	12.7841	30.074672	0.000187	1.872464	0.634408	-0.015309
 683	3.4100e-01	12.7392	29.987009	0.000214	2.144442	0.726557	-0.017533
 684	3.4150e-01	12.6702	29.912174	0.000183	1.830621	0.620231	-0.014967
 685	3.4200e-01	12.6622	29.830925	0.000199	1.987532	0.673394	-0.016250
 686	3.4250e-01	12.6205	29.754808	0.000186	1.862004	0.630864	-0.015223
 687	3.4300e-01	12.5868	29.673559	0.000199	1.987532	0.673394	-0.016250
 688	3.4350e-01	12.5242	29.596159	0.000189	1.893386	0.641496	-0.015480
 689	3.4400e-01	12.5002	29.519187	0.000188	1.882925	0.637952	-0.015395
 690	3.4450e-01	12.4216	29.442642	0.000187	1.872464	0.634408	-0.015309
 691	3.4500e-01	12.4184	29.363959	0.000192	1.924768	0.652129	-0.015737
 692	3.4550e-01	12.3831	29.274157	0.000220	2.196746	0.744278	-0.017960
 693	3.4600e-01	12.3494	29.202316	0.000176	1.757397	0.595422	-0.014368
 694	3.4650e-01	12.2964	29.118502	0.000205	2.050296	0.694659	-0.016763
 695	3.4700e-01	12.2628	29.041957	0.000187	1.872464	0.634408	-0.015309
 696	3.4750e-01	12.1986	28.957715	0.000206	2.060757	0.698203	-0.016848
 697	3.4800e-01	12.1793	28.878604	0.000194	1.935228	0.655673	-0.015822
 698	3.4850e-01	12.1489	28.794362	0.000206	2.060757	0.698203	-0.016848
 699	3.4900e-01	12.0991	28.712685	0.000200	1.997993	0.676938	-0.016335
 700	3.4950e-01	12.0494	28.631009	0.000200	1.997993	0.676938	-0.016335
 701	3.5000e-01	11.9981	28.562161	0.000168	1.684172	0.570613	-0.013770
 702	3.5050e-01	11.9676	28.474498	0.000214	2.144442	0.726557	-0.017533
 703	3.5100e-01	11.9515	28.388973	0.000209	2.092139	0.708836	-0.017105
 704	3.5150e-01	11.8890	28.314994	0.000181	1.809700	0.613143	-0.014796
 705	3.5200e-01	11.8344	28.231179	0.000205	2.050296	0.694659	-0.016763
 706	3.5250e-01	11.8248	28.138812	0.000226	2.259510	0.765543	-0.018473
 707	3.5300e-01	11.7847	28.059274	0.000195	1.945689	0.659217	-0.015908
 708	3.5350e-01	11.7221	27.987433	0.000176	1.757397	0.595422	-0.014368
 709	3.5400e-01	11.6916	27.910033	0.000189	1.893386	0.641496	-0.015480
 710	3.5450e-01	11.6580	27.822797	0.000213	2.133982	0.723013	-0.017447
 711	3.5500e-01	11.6002	27.757370	0.000160	1.600486	0.542259	-0.013085
 712	3.5550e-01	11.5794	27.669707	0.000214	2.144442	0.726557	-0.017533
 713	3.5600e-01	11.5392	27.579478	0.000221	2.207206	0.747822	-0.018046
 714	3.5650e-01	11.4975	27.499940	0.000195	1.945689	0.659217	-0.015908
 715	3.5700e-01	11.4542	27.421685	0.000191	1.914307	0.648585	-0.015651
 716	3.5750e-01	11.4013	27.340008	0.000200	1.997993	0.676938	-0.016335
 717	3.5800e-01	11.3708	27.257476	0.000202	2.018914	0.684027	-0.016506
 718	3.5850e-01	11.3708	27.165109	0.000226	2.259510	0.765543	-0.018473
 719	3.5900e-01	11.3002	27.086426	0.000192	1.924768	0.652129	-0.015737
 720	3.5950e-01	11.2360	27.006033	0.000197	1.966610	0.666306	-0.016079
 721	3.6000e-01	11.2232	26.922646	0.000204	2.039835	0.691115	-0.016677
 722	3.6050e-01	11.1767	26.844818	0.000190	1.903846	0.645041	-0.015566
 723	3.6100e-01	11.1334	26.762714	0.000201	2.008453	0.680482	-0.016421
 724	3.6150e-01	11.0933	26.677617	0.000208	2.081678	0.705292	-0.017019
 725	3.6200e-01	11.0532	26.598078	0.000195	1.945689	0.659217	-0.015908
 726	3.6250e-01	11.0179	26.514691	0.000204	2.039835	0.691115	-0.016677
 727	3.6300e-01	10.9713	26.433015	0.000200	1.997993	0.676938	-0.016335
 728	3.6350e-01	10.9296	26.350483	0.000202	2.018914	0.684027	-0.016506
 729	3.6400e-01	10.8927	26.258971	0.000224	2.238588	0.758454	-0.018302
 730	3.6450e-01	10.8558	26.184992	0.000181	1.809700	0.613143	-0.014796
 731	3.6500e-01	10.8109	26.096046	0.000218	2.175824	0.737189	-0.017789
 732	3.6550e-01	10.7660	26.016508	0.000195	1.945689	0.659217	-0.015908
 733	3.6600e-01	10.7740	25.924568	-0.000225	-2.249049	-0.761998	-0.018388
 734	3.6650e-01	10.7002	25.849734	0.000183	1.830621	0.620231	-0.014967
 735	3.6700e-01	10.6505	25.768913	0.000198	1.977071	0.669850	-0.016164
 736	3.6750e-01	10.6409	25.677829	0.000223	2.228128	0.754910	-0.018217
 737	3.6800e-01	10.5831	25.601284	0.000187	1.872464	0.634408	-0.015309
 738	3.6850e-01	10.5286	25.521745	0.000195	1.945689	0.659217	-0.015908
 739	3.6900e-01	10.4965	25.437931	0.000205	2.050296	0.694659	-0.016763
 740	3.6950e-01	10.4628	25.352406	0.000209	2.092139	0.708836	-0.017105
 741	3.7000e-01	10.4291	25.264315	0.000215	2.154903	0.730101	-0.017618
 742	3.7050e-01	10.3906	25.186060	0.000191	1.914307	0.648585	-0.015651
 743	3.7100e-01	10.3313	25.098824	0.000213	2.133982	0.723013	-0.017447
 744	3.7150e-01	10.3313	25.012444	0.000211	2.113060	0.715924	-0.017276
 745	3.7200e-01	10.2623	24.926063	0.000211	2.113060	0.715924	-0.017276
 746	3.7250e-01	10.2045	24.846953	0.000194	1.935228	0.655673	-0.015822
 747	3.7300e-01	10.2045	24.763138	0.000205	2.050296	0.694659	-0.016763
 748	3.7350e-01	10.1484	24.676330	0.000212	2.123521	0.719468	-0.017362
 749	3.7400e-01	10.1179	24.593799	0.000202	2.018914	0.684027	-0.016506
 750	3.7450e-01	10.0521	24.517254	0.000187	1.872464	0.634408	-0.015309
 751	3.7500e-01	10.0216	24.426170	0.000223	2.228128	0.754910	-0.018217
 752	3.7550e-01	9.9799	24.341927	0.000206	2.060757	0.698203	-0.016848
 753	3.7600e-01	9.9222	24.264527	0.000189	1.893386	0.641496	-0.015480
 754	3.7650e-01	9.8901	24.177292	0.000213	2.133982	0.723013	-0.017447
 755	3.7700e-01	9.8516	24.093905	0.000204	2.039835	0.691115	-0.016677
 756	3.7750e-01	9.8356	24.003676	0.000221	2.207206	0.747822	-0.018046
 757	3.7800e-01	9.7794	23.915585	0.000215	2.154903	0.730101	-0.017618
 758	3.7850e-01	9.7585	23.827066	0.000217	2.165364	0.733645	-0.017704
 759	3.7900e-01	9.7008	23.744962	0.000201	2.008453	0.680482	-0.016421
 760	3.7950e-01	9.6687	23.659010	0.000210	2.102599	0.712380	-0.017191
 761	3.8000e-01	9.6254	23.575195	0.000205	2.050296	0.694659	-0.016763
 762	3.8050e-01	9.5901	23.485822	0.000219	2.186285	0.740733	-0.017875
 763	3.8100e-01	9.5211	23.403290	0.000202	2.018914	0.684027	-0.016506
 764	3.8150e-01	9.4553	23.325890	0.000189	1.893386	0.641496	-0.015480
 765	3.8200e-01	9.4489	23.238654	0.000213	2.133982	0.723013	-0.017447
 766	3.8250e-01	9.4152	23.150136	0.000217	2.165364	0.733645	-0.017704
 767	3.8300e-01	9.3928	23.060762	0.000219	2.186285	0.740733	-0.017875
 768	3.8350e-01	9.3254	22.983362	0.000189	1.893386	0.641496	-0.015480
 769	3.8400e-01	9.2933	22.895699	0.000214	2.144442	0.726557	-0.017533
 770	3.8450e-01	9.2500	22.808463	0.000213	2.133982	0.723013	-0.017447
 771	3.8500e-01	9.2083	22.725931	0.000202	2.018914	0.684027	-0.016506
 772	3.8550e-01	9.1602	22.644683	0.000199	1.987532	0.673394	-0.016250
 773	3.8600e-01	9.1120	22.548467	0.000235	2.353656	0.797440	-0.019243
 774	3.8650e-01	9.0960	22.463369	0.000208	2.081678	0.705292	-0.017019
 775	3.8700e-01	9.0751	22.372713	0.000222	2.217667	0.751366	-0.018131
 776	3.8750e-01	9.0206	22.290181	0.000202	2.018914	0.684027	-0.016506
 777	3.8800e-01	8.9789	22.205511	0.000207	2.071217	0.701747	-0.016934
 778	3.8850e-01	8.9452	22.117848	0.000214	2.144442	0.726557	-0.017533
 779	3.8900e-01	8.9292	22.032323	0.000209	2.092139	0.708836	-0.017105
 780	3.8950e-01	8.8538	21.945943	0.000211	2.113060	0.715924	-0.017276
 781	3.9000e-01	8.8104	21.860418	0.000209	2.092139	0.708836	-0.017105
 782	3.9050e-01	8.7848	21.775320	0.000208	2.081678	0.705292	-0.017019
 783	3.9100e-01	8.7270	21.687657	0.000214	2.144442	0.726557	-0.017533
 784	3.9150e-01	8.7110	21.605126	0.000202	2.018914	0.684027	-0.016506
 785	3.9200e-01	8.6741	21.509765	0.000233	2.332735	0.790352	-0.019072
 786	3.9250e-01	8.6356	21.421247	0.000217	2.165364	0.733645	-0.017704
 787	3.9300e-01	8.6019	21.331018	0.000221	2.207206	0.747822	-0.018046
 788	3.9350e-01	8.5249	21.248914	0.000201	2.008453	0.680482	-0.016421
 789	3.9400e-01	8.4816	21.162106	0.000212	2.123521	0.719468	-0.017362
 790	3.9450e-01	8.4591	21.064607	0.000239	2.385038	0.808073	-0.019500
 791	3.9500e-01	8.4302	20.979937	0.000207	2.071217	0.701747	-0.016934
 792	3.9550e-01	8.3661	20.888426	0.000224	2.238588	0.758454	-0.018302
 793	3.9600e-01	8.3340	20.807177	0.000199	1.987532	0.673394	-0.016250
 794	3.9650e-01	8.3147	20.721652	0.000209	2.092139	0.708836	-0.017105
 795	3.9700e-01	8.2490	20.636554	0.000208	2.081678	0.705292	-0.017019
 796	3.9750e-01	8.1960	20.559154	0.000189	1.893386	0.641496	-0.015480
 797	3.9800e-01	8.1623	20.472774	0.000211	2.113060	0.715924	-0.017276
 798	3.9850e-01	8.1335	20.378696	0.000230	2.301353	0.779719	-0.018816
 799	3.9900e-01	8.1174	20.287184	0.000224	2.238588	0.758454	-0.018302
 800	3.9950e-01	8.0789	20.191824	0.000233	2.332735	0.790352	-0.019072
 801	4.0000e-01	8.0276	20.100312	0.000224	2.238588	0.758454	-0.018302
 802	4.0050e-01	7.9827	20.015642	0.000207	2.071217	0.701747	-0.016934
 803	4.0100e-01	7.9795	19.926696	0.000218	2.175824	0.737189	-0.017789
 804	4.0150e-01	7.9121	19.839888	0.000212	2.123521	0.719468	-0.017362
 805	4.0200e-01	7.8543	19.745811	0.000230	2.301353	0.779719	-0.018816
 806	4.0250e-01	7.8254	19.659858	0.000210	2.102599	0.712380	-0.017191
 807	4.0300e-01	7.7677	19.573478	0.000211	2.113060	0.715924	-0.017276
 808	4.0350e-01	7.7340	19.483249	0.000221	2.207206	0.747822	-0.018046
 809	4.0400e-01	7.6859	19.394731	0.000217	2.165364	0.733645	-0.017704
 810	4.0450e-01	7.6506	19.312199	0.000202	2.018914	0.684027	-0.016506
 811	4.0500e-01	7.6025	19.227529	0.000207	2.071217	0.701747	-0.016934
 812	4.0550e-01	7.5656	19.136445	0.000223	2.228128	0.754910	-0.018217
 813	4.0600e-01	7.5303	19.047499	0.000218	2.175824	0.737189	-0.017789
 814	4.0650e-01	7.4950	18.957697	0.000220	2.196746	0.744278	-0.017960
 815	4.0700e-01	7.4517	18.868751	0.000218	2.175824	0.737189	-0.017789
 816	4.0750e-01	7.4228	18.774246	0.000231	2.311813	0.783264	-0.018901
 817	4.0800e-01	7.3731	18.690859	0.000204	2.039835	0.691115	-0.016677
 818	4.0850e-01	7.3089	18.595071	0.000234	2.343195	0.793896	-0.019158
 819	4.0900e-01	7.2896	18.502277	0.000227	2.269971	0.769087	-0.018559
 820	4.0950e-01	7.2656	18.406061	0.000235	2.353656	0.797440	-0.019243
 821	4.1000e-01	7.2255	18.321819	0.000206	2.060757	0.698203	-0.016848
 822	4.1050e-01	7.1597	18.234583	0.000213	2.133982	0.723013	-0.017447
 823	4.1100e-01	7.1709	18.139650	-0.000232	-2.322274	-0.786808	-0.018987
 824	4.1150e-01	7.1260	18.050704	0.000218	2.175824	0.737189	-0.017789
 825	4.1200e-01	7.0281	17.964752	0.000210	2.102599	0.712380	-0.017191
 826	4.1250e-01	7.0153	17.861694	0.000252	2.521027	0.854147	-0.020612
 827	4.1300e-01	6.9592	17.783438	0.000191	1.914307	0.648585	-0.015651
 828	4.1350e-01	6.9592	17.686795	0.000236	2.364117	0.800984	-0.019329
 829	4.1400e-01	6.8918	17.594428	0.000226	2.259510	0.765543	-0.018473
 830	4.1450e-01	6.8404	17.509758	0.000207	2.071217	0.701747	-0.016934
 831	4.1500e-01	6.8196	17.422523	0.000213	2.133982	0.723013	-0.017447
 832	4.1550e-01	6.7634	17.331011	0.000224	2.238588	0.758454	-0.018302
 833	4.1600e-01	6.7233	17.236506	0.000231	2.311813	0.783264	-0.018901
 834	4.1650e-01	6.6961	17.146277	0.000221	2.207206	0.747822	-0.018046
 835	4.1700e-01	6.6624	17.051344	0.000232	2.322274	0.786808	-0.018987
 836	4.1750e-01	6.5982	16.964964	0.000211	2.113060	0.715924	-0.017276
 837	4.1800e-01	6.5709	16.871314	0.000229	2.290892	0.776175	-0.018730
 838	4.1850e-01	6.5501	16.775526	0.000234	2.343195	0.793896	-0.019158
 839	4.1900e-01	6.5485	16.682303	0.000228	2.280431	0.772631	-0.018644
 840	4.1950e-01	6.4955	16.595068	0.000213	2.133982	0.723013	-0.017447
 841	4.2000e-01	6.4025	16.508688	0.000211	2.113060	0.715924	-0.017276
 842	4.2050e-01	6.3816	16.409478	0.000243	2.426881	0.822250	-0.019842
 843	4.2100e-01	6.3239	16.323098	0.000211	2.113060	0.715924	-0.017276
 844	4.2150e-01	6.3014	16.228593	0.000231	2.311813	0.783264	-0.018901
 845	4.2200e-01	6.2437	16.137936	0.000222	2.217667	0.751366	-0.018131
 846	4.2250e-01	6.2196	16.052411	0.000209	2.092139	0.708836	-0.017105
 847	4.2300e-01	6.1859	15.952775	0.000244	2.437342	0.825794	-0.019927
 848	4.2350e-01	6.1218	15.860835	0.000225	2.249049	0.761998	-0.018388
 849	4.2400e-01	6.0881	15.767613	0.000228	2.280431	0.772631	-0.018644
 850	4.2450e-01	6.0528	15.679950	0.000214	2.144442	0.726557	-0.017533
 851	4.2500e-01	6.0271	15.585445	0.000231	2.311813	0.783264	-0.018901
 852	4.2550e-01	5.9886	15.490084	0.000233	2.332735	0.790352	-0.019072
 853	4.2600e-01	5.9453	15.396434	0.000229	2.290892	0.776175	-0.018730
 854	4.2650e-01	5.8875	15.310054	0.000211	2.113060	0.715924	-0.017276
 855	4.2700e-01	5.8587	15.209990	0.000245	2.447802	0.829338	-0.020013
 856	4.2750e-01	5.8057	15.124037	0.000210	2.102599	0.712380	-0.017191
 857	4.2800e-01	5.7833	15.027394	0.000236	2.364117	0.800984	-0.019329
 858	4.2850e-01	5.7415	14.936737	0.000222	2.217667	0.751366	-0.018131
 859	4.2900e-01	5.7111	14.841377	0.000233	2.332735	0.790352	-0.019072
 860	4.2950e-01	5.6581	14.752003	0.000219	2.186285	0.740733	-0.017875
 861	4.3000e-01	5.5875	14.660063	0.000225	2.249049	0.761998	-0.018388
 862	4.3050e-01	5.5699	14.554440	0.000258	2.583791	0.875412	-0.021125
 863	4.3100e-01	5.5250	14.463783	0.000222	2.217667	0.751366	-0.018131
 864	4.3150e-01	5.4769	14.373982	0.000220	2.196746	0.744278	-0.017960
 865	4.3200e-01	5.4688	14.279905	0.000230	2.301353	0.779719	-0.018816
 866	4.3250e-01	5.4063	14.180268	0.000244	2.437342	0.825794	-0.019927
 867	4.3300e-01	5.3662	14.090894	0.000219	2.186285	0.740733	-0.017875
 868	4.3350e-01	5.3357	13.993396	0.000239	2.385038	0.808073	-0.019500
 869	4.3400e-01	5.3052	13.907443	0.000210	2.102599	0.712380	-0.017191
 870	4.3450e-01	5.2699	13.805668	0.000249	2.489645	0.843515	-0.020355
 871	4.3500e-01	5.2025	13.708597	0.000237	2.374578	0.804529	-0.019414
 872	4.3550e-01	5.1688	13.618796	0.000220	2.196746	0.744278	-0.017960
 873	4.3600e-01	5.1239	13.526001	0.000227	2.269971	0.769087	-0.018559
 874	4.3650e-01	5.0854	13.428930	0.000237	2.374578	0.804529	-0.019414
 875	4.3700e-01	5.0581	13.341267	0.000214	2.144442	0.726557	-0.017533
 876	4.3750e-01	5.0180	13.240348	0.000247	2.468724	0.836426	-0.020184
 877	4.3800e-01	4.9908	13.135579	0.000256	2.562870	0.868324	-0.020954
 878	4.3850e-01	4.9362	13.043640	0.000225	2.249049	0.761998	-0.018388
 879	4.3900e-01	4.9090	12.949135	0.000231	2.311813	0.783264	-0.018901
 880	4.3950e-01	4.9057	12.851636	0.000239	2.385038	0.808073	-0.019500
 881	4.4000e-01	4.7983	12.754565	0.000237	2.374578	0.804529	-0.019414
 882	4.4050e-01	4.7902	12.658350	0.000235	2.353656	0.797440	-0.019243
 883	4.4100e-01	4.7341	12.569831	0.000217	2.165364	0.733645	-0.017704
 884	4.4150e-01	4.6940	12.479175	0.000222	2.217667	0.751366	-0.018131
 885	4.4200e-01	4.6603	12.373124	0.000259	2.594252	0.878956	-0.021210
 886	4.4250e-01	4.6090	12.278618	0.000231	2.311813	0.783264	-0.018901
 887	4.4300e-01	4.5673	12.186679	0.000225	2.249049	0.761998	-0.018388
 888	4.4350e-01	4.5480	12.091746	0.000232	2.322274	0.786808	-0.018987
 889	4.4400e-01	4.5127	11.986978	0.000256	2.562870	0.868324	-0.020954
 890	4.4450e-01	4.4469	11.898459	0.000217	2.165364	0.733645	-0.017704
 891	4.4500e-01	4.4084	11.793264	0.000257	2.573331	0.871868	-0.021039
 892	4.4550e-01	4.3747	11.692772	0.000246	2.458263	0.832882	-0.020098
 893	4.4600e-01	4.3266	11.603398	0.000219	2.186285	0.740733	-0.017875
 894	4.4650e-01	4.2945	11.502906	0.000246	2.458263	0.832882	-0.020098
 895	4.4700e-01	4.2592	11.399421	0.000253	2.531488	0.857691	-0.020697
 896	4.4750e-01	4.1999	11.307054	0.000226	2.259510	0.765543	-0.018473
 897	4.4800e-01	4.1469	11.214259	0.000227	2.269971	0.769087	-0.018559
 898	4.4850e-01	4.1116	11.115905	0.000241	2.405960	0.815161	-0.019671
 899	4.4900e-01	4.0860	11.008571	0.000263	2.625634	0.889589	-0.021467
 900	4.4950e-01	4.0250	10.923046	0.000209	2.092139	0.708836	-0.017105
 901	4.5000e-01	4.0234	10.827258	0.000234	2.343195	0.793896	-0.019158
 902	4.5050e-01	3.9913	10.730187	0.000237	2.374578	0.804529	-0.019414
 903	4.5100e-01	3.9432	10.624136	0.000259	2.594252	0.878956	-0.021210
 904	4.5150e-01	3.8887	10.533480	0.000222	2.217667	0.751366	-0.018131
 905	4.5200e-01	3.8710	10.432560	0.000247	2.468724	0.836426	-0.020184
 906	4.5250e-01	3.8453	10.335061	0.000239	2.385038	0.808073	-0.019500
 907	4.5300e-01	3.7748	10.239273	0.000234	2.343195	0.793896	-0.019158
 908	4.5350e-01	3.7475	10.138354	0.000247	2.468724	0.836426	-0.020184
 909	4.5400e-01	3.6978	10.037007	0.000248	2.479184	0.839970	-0.020269
 910	4.5450e-01	3.6416	9.942074	0.000232	2.322274	0.786808	-0.018987
 911	4.5500e-01	3.6095	9.846713	0.000233	2.332735	0.790352	-0.019072
 912	4.5550e-01	3.5550	9.744083	0.000251	2.510567	0.850603	-0.020526
 913	4.5600e-01	3.5470	9.638460	0.000258	2.583791	0.875412	-0.021125
 914	4.5650e-01	3.4988	9.544382	0.000230	2.301353	0.779719	-0.018816
 915	4.5700e-01	3.4700	9.440897	0.000253	2.531488	0.857691	-0.020697
 916	4.5750e-01	3.3994	9.337839	0.000252	2.521027	0.854147	-0.020612
 917	4.5800e-01	3.3641	9.244617	0.000228	2.280431	0.772631	-0.018644
 918	4.5850e-01	3.3416	9.143270	0.000248	2.479184	0.839970	-0.020269
 919	4.5900e-01	3.2758	9.044488	0.000242	2.416420	0.818705	-0.019756
 920	4.5950e-01	3.2422	8.949983	0.000231	2.311813	0.783264	-0.018901
 921	4.6000e-01	3.2261	8.838801	0.000272	2.719780	0.921487	-0.022237
 922	4.6050e-01	3.2069	8.739164	0.000244	2.437342	0.825794	-0.019927
 923	4.6100e-01	3.1202	8.644231	0.000232	2.322274	0.786808	-0.018987
 924	4.6150e-01	3.1283	8.542029	-0.000250	-2.500106	-0.847059	-0.020440
 925	4.6200e-01	3.0641	8.438971	0.000252	2.521027	0.854147	-0.020612
 926	4.6250e-01	3.0160	8.340617	0.000241	2.405960	0.815161	-0.019671
 927	4.6300e-01	2.9742	8.241836	0.000242	2.416420	0.818705	-0.019756
 928	4.6350e-01	2.9117	8.144337	0.000239	2.385038	0.808073	-0.019500
 929	4.6400e-01	2.8812	8.039997	0.000255	2.552409	0.864780	-0.020868
 930	4.6450e-01	2.8748	7.941215	0.000242	2.416420	0.818705	-0.019756
 931	4.6500e-01	2.8170	7.834309	0.000262	2.615173	0.886045	-0.021381
 932	4.6550e-01	2.7609	7.741087	0.000228	2.280431	0.772631	-0.018644
 933	4.6600e-01	2.7128	7.645298	0.000234	2.343195	0.793896	-0.019158
 934	4.6650e-01	2.7112	7.534544	0.000271	2.709320	0.917942	-0.022151
 935	4.6700e-01	2.6438	7.431058	0.000253	2.531488	0.857691	-0.020697
 936	4.6750e-01	2.6117	7.337836	0.000228	2.280431	0.772631	-0.018644
 937	4.6800e-01	2.5876	7.230502	0.000263	2.625634	0.889589	-0.021467
 938	4.6850e-01	2.5588	7.129582	0.000247	2.468724	0.836426	-0.020184
 939	4.6900e-01	2.5170	7.022248	0.000263	2.625634	0.889589	-0.021467
 940	4.6950e-01	2.4673	6.921329	0.000247	2.468724	0.836426	-0.020184
 941	4.7000e-01	2.4400	6.808863	0.000275	2.751162	0.932119	-0.022493
 942	4.7050e-01	2.3887	6.712648	0.000235	2.353656	0.797440	-0.019243
 943	4.7100e-01	2.3133	6.607880	0.000256	2.562870	0.868324	-0.020954
 944	4.7150e-01	2.2924	6.505249	0.000251	2.510567	0.850603	-0.020526
 945	4.7200e-01	2.2539	6.404758	0.000246	2.458263	0.832882	-0.020098
 946	4.7250e-01	2.2122	6.302983	0.000249	2.489645	0.843515	-0.020355
 947	4.7300e-01	2.1737	6.201208	0.000249	2.489645	0.843515	-0.020355
 948	4.7350e-01	2.1224	6.096440	0.000256	2.562870	0.868324	-0.020954
 949	4.7400e-01	2.0919	5.993810	0.000251	2.510567	0.850603	-0.020526
 950	4.7450e-01	2.0390	5.888614	0.000257	2.573331	0.871868	-0.021039
 951	4.7500e-01	2.0149	5.788977	0.000244	2.437342	0.825794	-0.019927
 952	4.7550e-01	1.9844	5.674374	0.000280	2.803466	0.949840	-0.022921
 953	4.7600e-01	1.9122	5.581579	0.000227	2.269971	0.769087	-0.018559
 954	4.7650e-01	1.8882	5.478094	0.000253	2.531488	0.857691	-0.020697
 955	4.7700e-01	1.8449	5.363490	0.000280	2.803466	0.949840	-0.022921
 956	4.7750e-01	1.8128	5.255728	0.000264	2.636095	0.893133	-0.021552
 957	4.7800e-01	1.7711	5.156519	0.000243	2.426881	0.822250	-0.019842
 958	4.7850e-01	1.7534	5.044054	0.000275	2.751162	0.932119	-0.022493
 959	4.7900e-01	1.7101	4.943134	0.000247	2.468724	0.836426	-0.020184
 960	4.7950e-01	1.6620	4.827676	0.000282	2.824387	0.956928	-0.023092
 961	4.8000e-01	1.6171	4.739157	0.000217	2.165364	0.733645	-0.017704
 962	4.8050e-01	1.5994	4.625836	0.000277	2.772084	0.939207	-0.022664
 963	4.8100e-01	1.5176	4.523634	0.000250	2.500106	0.847059	-0.020440
 964	4.8150e-01	1.4919	4.429129	0.000231	2.311813	0.783264	-0.018901
 965	4.8200e-01	1.4566	4.310677	0.000290	2.897612	0.981738	-0.023690
 966	4.8250e-01	1.4181	4.202915	0.000264	2.636095	0.893133	-0.021552
 967	4.8300e-01	1.3492	4.107982	0.000232	2.322274	0.786808	-0.018987
 968	4.8350e-01	1.3427	3.993379	0.000280	2.803466	0.949840	-0.022921
 969	4.8400e-01	1.3010	3.893314	0.000245	2.447802	0.829338	-0.020013
 970	4.8450e-01	1.2513	3.787691	0.000258	2.583791	0.875412	-0.021125
 971	4.8500e-01	1.2224	3.674798	0.000276	2.761623	0.935663	-0.022579
 972	4.8550e-01	1.1342	3.575589	0.000243	2.426881	0.822250	-0.019842
 973	4.8600e-01	1.0989	3.463551	0.000274	2.740702	0.928575	-0.022408
 974	4.8650e-01	1.1037	3.355789	-0.000264	-2.636095	-0.893133	-0.021552
 975	4.8700e-01	1.0700	3.252732	0.000252	2.521027	0.854147	-0.020612
 976	4.8750e-01	1.0299	3.147536	0.000257	2.573331	0.871868	-0.021039
 977	4.8800e-01	0.9641	3.038064	0.000268	2.677938	0.907310	-0.021894
 978	4.8850e-01	0.9080	2.942276	0.000234	2.343195	0.793896	-0.019158
 979	4.8900e-01	0.8936	2.824679	0.000288	2.876691	0.974649	-0.023519
 980	4.8950e-01	0.8390	2.724614	0.000245	2.447802	0.829338	-0.020013
 981	4.9000e-01	0.8198	2.617708	0.000262	2.615173	0.886045	-0.021381
 982	4.9050e-01	0.7652	2.506953	0.000271	2.709320	0.917942	-0.022151
 983	4.9100e-01	0.7476	2.396626	0.000270	2.698859	0.914398	-0.022065
 984	4.9150e-01	0.6978	2.291002	0.000258	2.583791	0.875412	-0.021125
 985	4.9200e-01	0.6497	2.183241	0.000264	2.636095	0.893133	-0.021552
 986	4.9250e-01	0.6112	2.072914	0.000270	2.698859	0.914398	-0.022065
 987	4.9300e-01	0.5647	1.971139	0.000249	2.489645	0.843515	-0.020355
 988	4.9350e-01	0.5438	1.862522	0.000266	2.657016	0.900221	-0.021723
 989	4.9400e-01	0.4797	1.756898	0.000258	2.583791	0.875412	-0.021125
 990	4.9450e-01	0.4524	1.646571	0.000270	2.698859	0.914398	-0.022065
 991	4.9500e-01	0.4171	1.538810	0.000264	2.636095	0.893133	-0.021552
 992	4.9550e-01	0.3738	1.437890	0.000247	2.468724	0.836426	-0.020184
 993	4.9600e-01	0.3369	1.327563	0.000270	2.698859	0.914398	-0.022065
 994	4.9650e-01	0.2759	1.215952	0.000273	2.730241	0.925031	-0.022322
 995	4.9700e-01	0.2679	1.110757	0.000257	2.573331	0.871868	-0.021039
 996	4.9750e-01	0.1941	1.002567	0.000265	2.646556	0.896677	-0.021638
 997	4.9800e-01	0.1380	0.900365	0.000250	2.500106	0.847059	-0.020440
 998	4.9850e-01	0.1364	0.778064	0.000299	2.991758	1.013635	-0.024460
 999	4.9900e-01	0.0882	0.677145	0.000247	2.468724	0.836426	-0.020184
1000	4.9950e-01	0.0337	0.568955	0.000265	2.646556	0.896677	-0.021638
1001	5.0000e-01	0.0802	0.450076	-0.000291	-2.908073	-0.985282	-0.023776
1002	5.0050e-01	-0.0241	0.356426	0.000229	2.290892	0.776175	-0.018730
1003	5.0100e-01	-0.0658	0.250375	0.000259	2.594252	0.878956	-0.021210
1004	5.0150e-01	-0.0882	0.144751	0.000258	2.583791	0.875412	-0.021125
1005	5.0200e-01	-0.1428	0.036134	0.000266	2.657016	0.900221	-0.021723
1006	5.0250e-01	-0.1508	-0.073338	0.000268	2.677938	0.907310	-0.021894
1007	5.0300e-01	-0.2294	-0.178106	0.000256	2.562870	0.868324	-0.020954
1008	5.0350e-01	-0.2791	-0.284157	0.000259	2.594252	0.878956	-0.021210
1009	5.0400e-01	-0.3257	-0.386787	0.000251	2.510567	0.850603	-0.020526
1010	5.0450e-01	-0.3144	-0.500535	-0.000278	-2.782545	-0.942752	-0.022750
1011	5.0500e-01	-0.3914	-0.604448	0.000254	2.541949	0.861236	-0.020783
1012	5.0550e-01	-0.4139	-0.719907	0.000282	2.824387	0.956928	-0.023092
1013	5.0600e-01	-0.4540	-0.821254	0.000248	2.479184	0.839970	-0.020269
1014	5.0650e-01	-0.5278	-0.924312	0.000252	2.521027	0.854147	-0.020612
1015	5.0700e-01	-0.5390	-1.033356	0.000267	2.667477	0.903766	-0.021809
1016	5.0750e-01	-0.5775	-1.141973	0.000266	2.657016	0.900221	-0.021723
1017	5.0800e-01	-0.6273	-1.244603	0.000251	2.510567	0.850603	-0.020526
1018	5.0850e-01	-0.6722	-1.352365	0.000264	2.636095	0.893133	-0.021552
1019	5.0900e-01	-0.6898	-1.470817	0.000290	2.897612	0.981738	-0.023690
1020	5.0950e-01	-0.7187	-1.570026	0.000243	2.426881	0.822250	-0.019842
1021	5.1000e-01	-0.7909	-1.674367	0.000255	2.552409	0.864780	-0.020868
1022	5.1050e-01	-0.8133	-1.780845	0.000260	2.604713	0.882501	-0.021296
1023	5.1100e-01	-0.8567	-1.895449	0.000280	2.803466	0.949840	-0.022921
1024	5.1150e-01	-0.9064	-1.998079	0.000251	2.510567	0.850603	-0.020526
1025	5.1200e-01	-0.9417	-2.109262	0.000272	2.719780	0.921487	-0.022237
1026	5.1250e-01	-1.0075	-2.211892	0.000251	2.510567	0.850603	-0.020526
1027	5.1300e-01	-1.0026	-2.323074	-0.000272	-2.719780	-0.921487	-0.022237
1028	5.1350e-01	-1.0861	-2.423994	0.000247	2.468724	0.836426	-0.020184
1029	5.1400e-01	-1.1117	-2.533894	0.000269	2.688398	0.910854	-0.021980
1030	5.1450e-01	-1.1310	-2.642938	0.000267	2.667477	0.903766	-0.021809
1031	5.1500e-01	-1.1952	-2.742147	0.000243	2.426881	0.822250	-0.019842
1032	5.1550e-01	-1.2144	-2.855040	0.000276	2.761623	0.935663	-0.022579
1033	5.1600e-01	-1.2673	-2.960236	0.000257	2.573331	0.871868	-0.021039
1034	5.1650e-01	-1.3074	-3.069708	0.000268	2.677938	0.907310	-0.021894
1035	5.1700e-01	-1.3315	-3.175331	0.000258	2.583791	0.875412	-0.021125
1036	5.1750e-01	-1.3893	-3.280955	0.000258	2.583791	0.875412	-0.021125
1037	5.1800e-01	-1.4310	-3.387006	0.000259	2.594252	0.878956	-0.021210
1038	5.1850e-01	-1.4759	-3.485787	0.000242	2.416420	0.818705	-0.019756
1039	5.1900e-01	-1.4967	-3.596970	0.000272	2.719780	0.921487	-0.022237
1040	5.1950e-01	-1.5417	-3.706442	0.000268	2.677938	0.907310	-0.021894
1041	5.2000e-01	-1.5657	-3.815914	0.000268	2.677938	0.907310	-0.021894
1042	5.2050e-01	-1.6026	-3.919827	0.000254	2.541949	0.861236	-0.020783
1043	5.2100e-01	-1.6620	-4.022457	0.000251	2.510567	0.850603	-0.020526
1044	5.2150e-01	-1.7262	-4.126798	0.000255	2.552409	0.864780	-0.020868
1045	5.2200e-01	-1.7294	-4.234132	0.000263	2.625634	0.889589	-0.021467
1046	5.2250e-01	-1.7598	-4.340610	0.000260	2.604713	0.882501	-0.021296
1047	5.2300e-01	-1.8401	-4.446661	0.000259	2.594252	0.878956	-0.021210
1048	5.2350e-01	-1.8368	-4.555706	-0.000267	-2.667477	-0.903766	-0.021809
1049	5.2400e-01	-1.8994	-4.657053	0.000248	2.479184	0.839970	-0.020269
1050	5.2450e-01	-1.9475	-4.755834	0.000242	2.416420	0.818705	-0.019756
1051	5.2500e-01	-1.9764	-4.858037	0.000250	2.500106	0.847059	-0.020440
1052	5.2550e-01	-2.0165	-4.967081	0.000267	2.667477	0.903766	-0.021809
1053	5.2600e-01	-2.0775	-5.067573	0.000246	2.458263	0.832882	-0.020098
1054	5.2650e-01	-2.1064	-5.176190	0.000266	2.657016	0.900221	-0.021723
1055	5.2700e-01	-2.1449	-5.279675	0.000253	2.531488	0.857691	-0.020697
1056	5.2750e-01	-2.2090	-5.384444	0.000256	2.562870	0.868324	-0.020954
1057	5.2800e-01	-2.2074	-5.488784	-0.000255	-2.552409	-0.864780	-0.020868
1058	5.2850e-01	-2.2668	-5.593980	0.000257	2.573331	0.871868	-0.021039
1059	5.2900e-01	-2.3101	-5.693189	0.000243	2.426881	0.822250	-0.019842
1060	5.2950e-01	-2.3486	-5.797530	0.000255	2.552409	0.864780	-0.020868
1061	5.3000e-01	-2.3727	-5.904864	0.000263	2.625634	0.889589	-0.021467
1062	5.3050e-01	-2.4112	-6.010915	0.000259	2.594252	0.878956	-0.021210
1063	5.3100e-01	-2.4689	-6.107558	0.000236	2.364117	0.800984	-0.019329
1064	5.3150e-01	-2.4866	-6.215747	0.000265	2.646556	0.896677	-0.021638
1065	5.3200e-01	-2.5539	-6.317522	0.000249	2.489645	0.843515	-0.020355
1066	5.3250e-01	-2.5844	-6.418014	0.000246	2.458263	0.832882	-0.020098
1067	5.3300e-01	-2.6053	-6.520216	0.000250	2.500106	0.847059	-0.020440
1068	5.3350e-01	-2.6807	-6.619853	0.000244	2.437342	0.825794	-0.019927
1069	5.3400e-01	-2.6694	-6.731463	-0.000273	-2.730241	-0.925031	-0.022322
1070	5.3450e-01	-2.7256	-6.835376	0.000254	2.541949	0.861236	-0.020783
1071	5.3500e-01	-2.7882	-6.934158	0.000242	2.416420	0.818705	-0.019756
1072	5.3550e-01	-2.8331	-7.035505	0.000248	2.479184	0.839970	-0.020269
1073	5.3600e-01	-2.8700	-7.133003	0.000239	2.385038	0.808073	-0.019500
1074	5.3650e-01	-2.9133	-7.241620	0.000266	2.657016	0.900221	-0.021723
1075	5.3700e-01	-2.9374	-7.345961	0.000255	2.552409	0.864780	-0.020868
1076	5.3750e-01	-2.9919	-7.443887	0.000240	2.395499	0.811617	-0.019585
1077	5.3800e-01	-3.0480	-7.537965	0.000230	2.301353	0.779719	-0.018816
1078	5.3850e-01	-3.0641	-7.641877	0.000254	2.541949	0.861236	-0.020783
1079	5.3900e-01	-3.1058	-7.744080	0.000250	2.500106	0.847059	-0.020440
1080	5.3950e-01	-3.1266	-7.852697	0.000266	2.657016	0.900221	-0.021723
1081	5.4000e-01	-3.2069	-7.938649	0.000210	2.102599	0.712380	-0.017191
1082	5.4050e-01	-3.2037	-8.057957	-0.000292	-2.918534	-0.988826	-0.023861
1083	5.4100e-01	-3.2582	-8.146903	0.000218	2.175824	0.737189	-0.017789
1084	5.4150e-01	-3.3063	-8.249105	0.000250	2.500106	0.847059	-0.020440
1085	5.4200e-01	-3.3159	-8.347887	0.000242	2.416420	0.818705	-0.019756
1086	5.4250e-01	-3.4106	-8.443675	0.000234	2.343195	0.793896	-0.019158
1087	5.4300e-01	-3.4026	-8.550581	-0.000262	-2.615173	-0.886045	-0.021381
1088	5.4350e-01	-3.4700	-8.651928	0.000248	2.479184	0.839970	-0.020269
1089	5.4400e-01	-3.5229	-8.748999	0.000237	2.374578	0.804529	-0.019414
1090	5.4450e-01	-3.5261	-8.847781	0.000242	2.416420	0.818705	-0.019756
1091	5.4500e-01	-3.5887	-8.951694	0.000254	2.541949	0.861236	-0.020783
1092	5.4550e-01	-3.6127	-9.054324	0.000251	2.510567	0.850603	-0.020526
1093	5.4600e-01	-3.6304	-9.158664	0.000255	2.552409	0.864780	-0.020868
1094	5.4650e-01	-3.7154	-9.247610	0.000218	2.175824	0.737189	-0.017789
1095	5.4700e-01	-3.7138	-9.343826	-0.000235	-2.353656	-0.797440	-0.019243
1096	5.4750e-01	-3.7812	-9.440469	0.000236	2.364117	0.800984	-0.019329
1097	5.4800e-01	-3.8068	-9.544382	0.000254	2.541949	0.861236	-0.020783
1098	5.4850e-01	-3.8566	-9.643591	0.000243	2.426881	0.822250	-0.019842
1099	5.4900e-01	-3.8967	-9.736386	0.000227	2.269971	0.769087	-0.018559
1100	5.4950e-01	-3.9384	-9.842865	0.000260	2.604713	0.882501	-0.021296
1101	5.5000e-01	-3.9849	-9.942929	0.000245	2.447802	0.829338	-0.020013
1102	5.5050e-01	-4.0395	-10.034441	0.000224	2.238588	0.758454	-0.018302
1103	5.5100e-01	-4.0876	-10.133650	0.000243	2.426881	0.822250	-0.019842
1104	5.5150e-01	-4.0924	-10.238418	0.000256	2.562870	0.868324	-0.020954
1105	5.5200e-01	-4.1389	-10.337627	0.000243	2.426881	0.822250	-0.019842
1106	5.5250e-01	-4.1854	-10.429994	0.000226	2.259510	0.765543	-0.018473
1107	5.5300e-01	-4.2464	-10.524927	0.000232	2.322274	0.786808	-0.018987
1108	5.5350e-01	-4.2753	-10.626274	0.000248	2.479184	0.839970	-0.020269
1109	5.5400e-01	-4.2785	-10.726766	0.000246	2.458263	0.832882	-0.020098
1110	5.5450e-01	-4.3411	-10.815712	0.000218	2.175824	0.737189	-0.017789
1111	5.5500e-01	-4.3892	-10.921763	0.000259	2.594252	0.878956	-0.021210
1112	5.5550e-01	-4.4357	-11.016269	0.000231	2.311813	0.783264	-0.018901
1113	5.5600e-01	-4.4870	-11.114622	0.000241	2.405960	0.815161	-0.019671
1114	5.5650e-01	-4.4870	-11.212549	0.000240	2.395499	0.811617	-0.019585
1115	5.5700e-01	-4.5544	-11.307909	0.000233	2.332735	0.790352	-0.019072
1116	5.5750e-01	-4.5977	-11.406263	0.000241	2.405960	0.815161	-0.019671
1117	5.5800e-01	-4.6491	-11.496492	0.000221	2.207206	0.747822	-0.018046
1118	5.5850e-01	-4.6795	-11.593990	0.000239	2.385038	0.808073	-0.019500
1119	5.5900e-01	-4.7084	-11.693627	0.000244	2.437342	0.825794	-0.019927
1120	5.5950e-01	-4.7421	-11.788132	0.000231	2.311813	0.783264	-0.018901
1121	5.6000e-01	-4.7918	-11.887341	0.000243	2.426881	0.822250	-0.019842
1122	5.6050e-01	-4.8255	-11.982274	0.000232	2.322274	0.786808	-0.018987
1123	5.6100e-01	-4.8705	-12.082338	0.000245	2.447802	0.829338	-0.020013
1124	5.6150e-01	-4.9009	-12.178982	0.000236	2.364117	0.800984	-0.019329
1125	5.6200e-01	-4.9298	-12.269211	0.000221	2.207206	0.747822	-0.018046
1126	5.6250e-01	-4.9956	-12.368420	0.000243	2.426881	0.822250	-0.019842
1127	5.6300e-01	-5.0277	-12.460787	0.000226	2.259510	0.765543	-0.018473
1128	5.6350e-01	-5.0598	-12.560423	0.000244	2.437342	0.825794	-0.019927
1129	5.6400e-01	-5.1111	-12.647231	0.000212	2.123521	0.719468	-0.017362
1130	5.6450e-01	-5.1432	-12.737460	0.000221	2.207206	0.747822	-0.018046
1131	5.6500e-01	-5.1512	-12.846077	0.000266	2.657016	0.900221	-0.021723
1132	5.6550e-01	-5.2603	-12.943576	0.000239	2.385038	0.808073	-0.019500
1133	5.6600e-01	-5.2458	-13.044068	-0.000246	-2.458263	-0.832882	-0.020098
1134	5.6650e-01	-5.2972	-13.129593	0.000209	2.092139	0.708836	-0.017105
1135	5.6700e-01	-5.3421	-13.219394	0.000220	2.196746	0.744278	-0.017960
1136	5.6750e-01	-5.3822	-13.319886	0.000246	2.458263	0.832882	-0.020098
1137	5.6800e-01	-5.4047	-13.415246	0.000233	2.332735	0.790352	-0.019072
1138	5.6850e-01	-5.4480	-13.509751	0.000231	2.311813	0.783264	-0.018901
1139	5.6900e-01	-5.5474	-13.598698	0.000218	2.175824	0.737189	-0.017789
1140	5.6950e-01	-5.5298	-13.694913	-0.000235	-2.353656	-0.797440	-0.019243
1141	5.7000e-01	-5.5875	-13.794550	0.000244	2.437342	0.825794	-0.019927
1142	5.7050e-01	-5.6309	-13.885634	0.000223	2.228128	0.754910	-0.018217
1143	5.7100e-01	-5.6694	-13.982705	0.000237	2.374578	0.804529	-0.019414
1144	5.7150e-01	-5.7014	-14.072079	0.000219	2.186285	0.740733	-0.017875
1145	5.7200e-01	-5.7624	-14.163591	0.000224	2.238588	0.758454	-0.018302
1146	5.7250e-01	-5.7801	-14.264082	0.000246	2.458263	0.832882	-0.020098
1147	5.7300e-01	-5.7881	-14.350890	0.000212	2.123521	0.719468	-0.017362
1148	5.7350e-01	-5.8554	-14.447106	0.000235	2.353656	0.797440	-0.019243
1149	5.7400e-01	-5.9164	-14.535625	0.000217	2.165364	0.733645	-0.017704
1150	5.7450e-01	-5.9148	-14.633978	-0.000241	-2.405960	-0.815161	-0.019671
1151	5.7500e-01	-5.9934	-14.725490	0.000224	2.238588	0.758454	-0.018302
1152	5.7550e-01	-6.0255	-14.815719	0.000221	2.207206	0.747822	-0.018046
1153	5.7600e-01	-6.0480	-14.910652	0.000232	2.322274	0.786808	-0.018987
1154	5.7650e-01	-6.0929	-14.999598	0.000218	2.175824	0.737189	-0.017789
1155	5.7700e-01	-6.1426	-15.100518	0.000247	2.468724	0.836426	-0.020184
1156	5.7750e-01	-6.1988	-15.184332	0.000205	2.050296	0.694659	-0.016763
1157	5.7800e-01	-6.2052	-15.284824	0.000246	2.458263	0.832882	-0.020098
1158	5.7850e-01	-6.2774	-15.374625	0.000220	2.196746	0.744278	-0.017960
1159	5.7900e-01	-6.3159	-15.465709	0.000223	2.228128	0.754910	-0.018217
1160	5.7950e-01	-6.3463	-15.557221	0.000224	2.238588	0.758454	-0.018302
1161	5.8000e-01	-6.4041	-15.647450	0.000221	2.207206	0.747822	-0.018046
1162	5.8050e-01	-6.4217	-15.741100	0.000229	2.290892	0.776175	-0.018730
1163	5.8100e-01	-6.4282	-15.842875	0.000249	2.489645	0.843515	-0.020355
1164	5.8150e-01	-6.5244	-15.931821	0.000218	2.175824	0.737189	-0.017789
1165	5.8200e-01	-6.5629	-16.014353	0.000202	2.018914	0.684027	-0.016506
1166	5.8250e-01	-6.5806	-16.105009	0.000222	2.217667	0.751366	-0.018131
1167	5.8300e-01	-6.6046	-16.202508	0.000239	2.385038	0.808073	-0.019500
1168	5.8350e-01	-6.6816	-16.287605	0.000208	2.081678	0.705292	-0.017019
1169	5.8400e-01	-6.7201	-16.380828	0.000228	2.280431	0.772631	-0.018644
1170	5.8450e-01	-6.7330	-16.469774	0.000218	2.175824	0.737189	-0.017789
1171	5.8500e-01	-6.7699	-16.560858	0.000223	2.228128	0.754910	-0.018217
1172	5.8550e-01	-6.7939	-16.654080	0.000228	2.280431	0.772631	-0.018644
1173	5.8600e-01	-6.8292	-16.747730	0.000229	2.290892	0.776175	-0.018730
1174	5.8650e-01	-6.9126	-16.834110	0.000211	2.113060	0.715924	-0.017276
1175	5.8700e-01	-6.9383	-16.923056	0.000218	2.175824	0.737189	-0.017789
1176	5.8750e-01	-6.9961	-17.011575	0.000217	2.165364	0.733645	-0.017704
1177	5.8800e-01	-7.0217	-17.100949	0.000219	2.186285	0.740733	-0.017875
1178	5.8850e-01	-7.0522	-17.191177	0.000221	2.207206	0.747822	-0.018046
1179	5.8900e-01	-7.0955	-17.279696	0.000217	2.165364	0.733645	-0.017704
1180	5.8950e-01	-7.1501	-17.371635	0.000225	2.249049	0.761998	-0.018388
1181	5.9000e-01	-7.1982	-17.462720	0.000223	2.228128	0.754910	-0.018217
1182	5.9050e-01	-7.2271	-17.560218	0.000239	2.385038	0.808073	-0.019500
1183	5.9100e-01	-7.2431	-17.652585	0.000226	2.259510	0.765543	-0.018473
1184	5.9150e-01	-7.3265	-17.736827	0.000206	2.060757	0.698203	-0.016848
1185	5.9200e-01	-7.3073	-17.837319	-0.000246	-2.458263	-0.832882	-0.020098
1186	5.9250e-01	-7.3939	-17.918996	0.000200	1.997993	0.676938	-0.016335
1187	5.9300e-01	-7.4468	-18.005376	0.000211	2.113060	0.715924	-0.017276
1188	5.9350e-01	-7.4404	-18.099454	-0.000230	-2.301353	-0.779719	-0.018816
1189	5.9400e-01	-7.4741	-18.191393	0.000225	2.249049	0.761998	-0.018388
1190	5.9450e-01	-7.5271	-18.281622	0.000221	2.207206	0.747822	-0.018046
1191	5.9500e-01	-7.5928	-18.367147	0.000209	2.092139	0.708836	-0.017105
1192	5.9550e-01	-7.6281	-18.460369	0.000228	2.280431	0.772631	-0.018644
1193	5.9600e-01	-7.6634	-18.554447	0.000230	2.301353	0.779719	-0.018816
1194	5.9650e-01	-7.7260	-18.636123	0.000200	1.997993	0.676938	-0.016335
1195	5.9700e-01	-7.7468	-18.728490	0.000226	2.259510	0.765543	-0.018473
1196	5.9750e-01	-7.8046	-18.815298	0.000212	2.123521	0.719468	-0.017362
1197	5.9800e-01	-7.8078	-18.906810	0.000224	2.238588	0.758454	-0.018302
1198	5.9850e-01	-7.8575	-18.994046	0.000213	2.133982	0.723013	-0.017447
1199	5.9900e-01	-7.8832	-19.087696	0.000229	2.290892	0.776175	-0.018730
1200	5.9950e-01	-7.9426	-19.169372	0.000200	1.997993	0.676938	-0.016335
1201	6.0000e-01	-7.9987	-19.255752	0.000211	2.113060	0.715924	-0.017276
1202	6.0050e-01	-8.0468	-19.352823	0.000237	2.374578	0.804529	-0.019414
1203	6.0100e-01	-8.0677	-19.436638	0.000205	2.050296	0.694659	-0.016763
1204	6.0150e-01	-8.0757	-19.526867	0.000221	2.207206	0.747822	-0.018046
1205	6.0200e-01	-8.1463	-19.617951	0.000223	2.228128	0.754910	-0.018217
1206	6.0250e-01	-8.1720	-19.707752	0.000220	2.196746	0.744278	-0.017960
1207	6.0300e-01	-8.2233	-19.787291	0.000195	1.945689	0.659217	-0.015908
1208	6.0350e-01	-8.2698	-19.882223	0.000232	2.322274	0.786808	-0.018987
1209	6.0400e-01	-8.3003	-19.971169	0.000218	2.175824	0.737189	-0.017789
1210	6.0450e-01	-8.3484	-20.055412	0.000206	2.060757	0.698203	-0.016848
1211	6.0500e-01	-8.3629	-20.151200	0.000234	2.343195	0.793896	-0.019158
1212	6.0550e-01	-8.4238	-20.234159	0.000203	2.029375	0.687571	-0.016592
1213	6.0600e-01	-8.4543	-20.322250	0.000215	2.154903	0.730101	-0.017618
1214	6.0650e-01	-8.5153	-20.405209	0.000203	2.029375	0.687571	-0.016592
1215	6.0700e-01	-8.5441	-20.496293	0.000223	2.228128	0.754910	-0.018217
1216	6.0750e-01	-8.5923	-20.580535	0.000206	2.060757	0.698203	-0.016848
1217	6.0800e-01	-8.6388	-20.666916	0.000211	2.113060	0.715924	-0.017276
1218	6.0850e-01	-8.6725	-20.756289	0.000219	2.186285	0.740733	-0.017875
1219	6.0900e-01	-8.7158	-20.843953	0.000214	2.144442	0.726557	-0.017533
1220	6.0950e-01	-8.7447	-20.938458	0.000231	2.311813	0.783264	-0.018901
1221	6.1000e-01	-8.7976	-21.021845	0.000204	2.039835	0.691115	-0.016677
1222	6.1050e-01	-8.8233	-21.110363	0.000217	2.165364	0.733645	-0.017704
1223	6.1100e-01	-8.8714	-21.198882	0.000217	2.165364	0.733645	-0.017704
1224	6.1150e-01	-8.8955	-21.284407	0.000209	2.092139	0.708836	-0.017105
1225	6.1200e-01	-8.9227	-21.369932	0.000209	2.092139	0.708836	-0.017105
1226	6.1250e-01	-8.9901	-21.458878	0.000218	2.175824	0.737189	-0.017789
1227	6.1300e-01	-9.0190	-21.544403	0.000209	2.092139	0.708836	-0.017105
1228	6.1350e-01	-9.0671	-21.638908	0.000231	2.311813	0.783264	-0.018901
1229	6.1400e-01	-9.1008	-21.722295	0.000204	2.039835	0.691115	-0.016677
1230	6.1450e-01	-9.1201	-21.811669	0.000219	2.186285	0.740733	-0.017875
1231	6.1500e-01	-9.1971	-21.889069	0.000189	1.893386	0.641496	-0.015480
1232	6.1550e-01	-9.2211	-21.975877	0.000212	2.123521	0.719468	-0.017362
1233	6.1600e-01	-9.2725	-22.060546	0.000207	2.071217	0.701747	-0.016934
1234	6.1650e-01	-9.3238	-22.150775	0.000221	2.207206	0.747822	-0.018046
1235	6.1700e-01	-9.3495	-22.238866	0.000215	2.154903	0.730101	-0.017618
1236	6.1750e-01	-9.3751	-22.326957	0.000215	2.154903	0.730101	-0.017618
1237	6.1800e-01	-9.4136	-22.412910	0.000210	2.102599	0.712380	-0.017191
1238	6.1850e-01	-9.4618	-22.501001	0.000215	2.154903	0.730101	-0.017618
1239	6.1900e-01	-9.4971	-22.587808	0.000212	2.123521	0.719468	-0.017362
1240	6.1950e-01	-9.5468	-22.664353	0.000187	1.872464	0.634408	-0.015309
1241	6.2000e-01	-9.5853	-22.755865	0.000224	2.238588	0.758454	-0.018302
1242	6.2050e-01	-9.6543	-22.838397	0.000202	2.018914	0.684027	-0.016506
1243	6.2100e-01	-9.6382	-22.932474	-0.000230	-2.301353	-0.779719	-0.018816
1244	6.2150e-01	-9.7024	-23.006881	0.000182	1.820161	0.616687	-0.014881
1245	6.2200e-01	-9.7505	-23.095827	0.000218	2.175824	0.737189	-0.017789
1246	6.2250e-01	-9.7714	-23.186484	0.000222	2.217667	0.751366	-0.018131
1247	6.2300e-01	-9.8195	-23.265167	0.000192	1.924768	0.652129	-0.015737
1248	6.2350e-01	-9.8805	-23.348554	0.000204	2.039835	0.691115	-0.016677
1249	6.2400e-01	-9.9061	-23.440493	0.000225	2.249049	0.761998	-0.018388
1250	6.2450e-01	-9.9446	-23.525591	0.000208	2.081678	0.705292	-0.017019
1251	6.2500e-01	-9.9767	-23.601708	0.000186	1.862004	0.630864	-0.015223
1252	6.2550e-01	-10.0136	-23.691509	0.000220	2.196746	0.744278	-0.017960
1253	6.2600e-01	-10.0537	-23.782166	0.000222	2.217667	0.751366	-0.018131
1254	6.2650e-01	-10.1115	-23.867263	0.000208	2.081678	0.705292	-0.017019
1255	6.2700e-01	-10.1404	-23.953216	0.000210	2.102599	0.712380	-0.017191
1256	6.2750e-01	-10.1885	-24.033609	0.000197	1.966610	0.666306	-0.016079
1257	6.2800e-01	-10.2334	-24.119990	0.000211	2.113060	0.715924	-0.017276
1258	6.2850e-01	-10.2655	-24.207653	0.000214	2.144442	0.726557	-0.017533
1259	6.2900e-01	-10.2815	-24.284198	0.000187	1.872464	0.634408	-0.015309
1260	6.2950e-01	-10.3216	-24.365874	0.000200	1.997993	0.676938	-0.016335
1261	6.3000e-01	-10.3746	-24.457814	0.000225	2.249049	0.761998	-0.018388
1262	6.3050e-01	-10.4195	-24.533503	0.000185	1.851543	0.627320	-0.015138
1263	6.3100e-01	-10.4676	-24.619456	0.000210	2.102599	0.712380	-0.017191
1264	6.3150e-01	-10.4949	-24.701133	0.000200	1.997993	0.676938	-0.016335
1265	6.3200e-01	-10.5318	-24.794355	0.000228	2.280431	0.772631	-0.018644
1266	6.3250e-01	-10.5799	-24.873466	0.000194	1.935228	0.655673	-0.015822
1267	6.3300e-01	-10.6104	-24.957708	0.000206	2.060757	0.698203	-0.016848
1268	6.3350e-01	-10.6601	-25.040667	0.000203	2.029375	0.687571	-0.016592
1269	6.3400e-01	-10.6665	-25.128758	0.000215	2.154903	0.730101	-0.017618
1270	6.3450e-01	-10.7419	-25.208296	0.000195	1.945689	0.659217	-0.015908
1271	6.3500e-01	-10.7965	-25.291683	0.000204	2.039835	0.691115	-0.016677
1272	6.3550e-01	-10.8254	-25.375925	0.000206	2.060757	0.698203	-0.016848
1273	6.3600e-01	-10.8895	-25.455036	0.000194	1.935228	0.655673	-0.015822
1274	6.3650e-01	-10.9104	-25.544410	0.000219	2.186285	0.740733	-0.017875
1275	6.3700e-01	-10.9409	-25.629935	0.000209	2.092139	0.708836	-0.017105
1276	6.3750e-01	-10.9826	-25.712466	0.000202	2.018914	0.684027	-0.016506
1277	6.3800e-01	-11.0131	-25.797991	0.000209	2.092139	0.708836	-0.017105
1278	6.3850e-01	-11.0740	-25.880523	0.000202	2.018914	0.684027	-0.016506
1279	6.3900e-01	-11.0852	-25.956213	0.000185	1.851543	0.627320	-0.015138
1280	6.3950e-01	-11.1238	-26.043876	0.000214	2.144442	0.726557	-0.017533
1281	6.4000e-01	-11.1783	-26.128118	0.000206	2.060757	0.698203	-0.016848
1282	6.4050e-01	-11.2280	-26.212360	0.000206	2.060757	0.698203	-0.016848
1283	6.4100e-01	-11.2377	-26.299596	0.000213	2.133982	0.723013	-0.017447
1284	6.4150e-01	-11.3034	-26.379989	0.000197	1.966610	0.666306	-0.016079
1285	6.4200e-01	-11.3371	-26.459955	0.000196	1.956150	0.662761	-0.015993
1286	6.4250e-01	-11.3820	-26.544197	0.000206	2.060757	0.698203	-0.016848
1287	6.4300e-01	-11.4302	-26.627584	0.000204	2.039835	0.691115	-0.016677
1288	6.4350e-01	-11.4671	-26.703274	0.000185	1.851543	0.627320	-0.015138
1289	6.4400e-01	-11.5007	-26.787944	0.000207	2.071217	0.701747	-0.016934
1290	6.4450e-01	-11.5280	-26.868337	0.000197	1.966610	0.666306	-0.016079
1291	6.4500e-01	-11.5777	-26.955573	0.000213	2.133982	0.723013	-0.017447
1292	6.4550e-01	-11.6227	-27.033401	0.000190	1.903846	0.645041	-0.015566
1293	6.4600e-01	-11.6499	-27.117215	0.000205	2.050296	0.694659	-0.016763
1294	6.4650e-01	-11.7157	-27.194188	0.000188	1.882925	0.637952	-0.015395
1295	6.4700e-01	-11.7446	-27.285272	0.000223	2.228128	0.754910	-0.018217
1296	6.4750e-01	-11.7687	-27.360107	0.000183	1.830621	0.620231	-0.014967
1297	6.4800e-01	-11.8152	-27.442211	0.000201	2.008453	0.680482	-0.016421
1298	6.4850e-01	-11.8809	-27.528163	0.000210	2.102599	0.712380	-0.017191
1299	6.4900e-01	-11.9275	-27.608557	0.000197	1.966610	0.666306	-0.016079
1300	6.4950e-01	-11.9483	-27.691944	0.000204	2.039835	0.691115	-0.016677
1301	6.5000e-01	-11.9916	-27.777469	0.000209	2.092139	0.708836	-0.017105
1302	6.5050e-01	-12.0077	-27.854441	0.000188	1.882925	0.637952	-0.015395
1303	6.5100e-01	-12.1007	-27.935263	0.000198	1.977071	0.669850	-0.016164
1304	6.5150e-01	-12.0847	-28.015656	-0.000197	-1.966610	-0.666306	-0.016079
1305	6.5200e-01	-12.1521	-28.092629	0.000188	1.882925	0.637952	-0.015395
1306	6.5250e-01	-12.1649	-28.178154	0.000209	2.092139	0.708836	-0.017105
1307	6.5300e-01	-12.2002	-28.262823	0.000207	2.071217	0.701747	-0.016934
1308	6.5350e-01	-12.2756	-28.344072	0.000199	1.987532	0.673394	-0.016250
1309	6.5400e-01	-12.2740	-28.430453	-0.000211	-2.113060	-0.715924	-0.017276
1310	6.5450e-01	-12.3398	-28.498873	0.000167	1.673711	0.567069	-0.013684
1311	6.5500e-01	-12.3815	-28.583115	0.000206	2.060757	0.698203	-0.016848
1312	6.5550e-01	-12.4216	-28.665219	0.000201	2.008453	0.680482	-0.016421
1313	6.5600e-01	-12.4745	-28.752454	0.000213	2.133982	0.723013	-0.017447
1314	6.5650e-01	-12.4633	-28.832848	-0.000197	-1.966610	-0.666306	-0.016079
1315	6.5700e-01	-12.5098	-28.912814	0.000196	1.956150	0.662761	-0.015993
1316	6.5750e-01	-12.5724	-28.990214	0.000189	1.893386	0.641496	-0.015480
1317	6.5800e-01	-12.6045	-29.064621	0.000182	1.820161	0.616687	-0.014881
1318	6.5850e-01	-12.6333	-29.147580	0.000203	2.029375	0.687571	-0.016592
1319	6.5900e-01	-12.6959	-29.224553	0.000188	1.882925	0.637952	-0.015395
1320	6.5950e-01	-12.7200	-29.312216	0.000214	2.144442	0.726557	-0.017533
1321	6.6000e-01	-12.7938	-29.394320	0.000201	2.008453	0.680482	-0.016421
1322	6.6050e-01	-12.8242	-29.463168	0.000168	1.684172	0.570613	-0.013770
1323	6.6100e-01	-12.8932	-29.550403	0.000213	2.133982	0.723013	-0.017447
1324	6.6150e-01	-12.8499	-29.636783	-0.000211	-2.113060	-0.715924	-0.017276
1325	6.6200e-01	-12.9413	-29.709907	0.000179	1.788779	0.606055	-0.014625
1326	6.6250e-01	-12.9782	-29.790729	0.000198	1.977071	0.669850	-0.016164
1327	6.6300e-01	-13.0280	-29.868556	0.000190	1.903846	0.645041	-0.015566
1328	6.6350e-01	-13.0905	-29.944674	0.000186	1.862004	0.630864	-0.015223
1329	6.6400e-01	-13.0761	-30.027205	-0.000202	-2.018914	-0.684027	-0.016506
1330	6.6450e-01	-13.1387	-30.105461	0.000191	1.914307	0.648585	-0.015651
1331	6.6500e-01	-13.1948	-30.190131	0.000207	2.071217	0.701747	-0.016934
1332	6.6550e-01	-13.2173	-30.267103	0.000188	1.882925	0.637952	-0.015395
1333	6.6600e-01	-13.2734	-30.349207	0.000201	2.008453	0.680482	-0.016421
1334	6.6650e-01	-13.2943	-30.423186	0.000181	1.809700	0.613143	-0.014796
1335	6.6700e-01	-13.3440	-30.504008	0.000198	1.977071	0.669850	-0.016164
1336	6.6750e-01	-13.3969	-30.578414	0.000182	1.820161	0.616687	-0.014881
1337	6.6800e-01	-13.4371	-30.656242	0.000190	1.903846	0.645041	-0.015566
1338	6.6850e-01	-13.4499	-30.740484	0.000206	2.060757	0.698203	-0.016848
1339	6.6900e-01	-13.5157	-30.820023	0.000195	1.945689	0.659217	-0.015908
1340	6.6950e-01	-13.5558	-30.892719	0.000178	1.778318	0.602510	-0.014539
1341	6.7000e-01	-13.6055	-30.978244	0.000209	2.092139	0.708836	-0.017105
1342	6.7050e-01	-13.6103	-31.059920	0.000200	1.997993	0.676938	-0.016335
1343	6.7100e-01	-13.6697	-31.135182	0.000184	1.841082	0.623776	-0.015052
1344	6.7150e-01	-13.7146	-31.212583	0.000189	1.893386	0.641496	-0.015480
1345	6.7200e-01	-13.7258	-31.297680	0.000208	2.081678	0.705292	-0.017019
1346	6.7250e-01	-13.7916	-31.375080	0.000189	1.893386	0.641496	-0.015480
1347	6.7300e-01	-13.8124	-31.449487	0.000182	1.820161	0.616687	-0.014881
1348	6.7350e-01	-13.8830	-31.532446	0.000203	2.029375	0.687571	-0.016592
1349	6.7400e-01	-13.9023	-31.611985	0.000195	1.945689	0.659217	-0.015908
1350	6.7450e-01	-13.9600	-31.685109	0.000179	1.788779	0.606055	-0.014625
1351	6.7500e-01	-13.9937	-31.771061	0.000210	2.102599	0.712380	-0.017191
1352	6.7550e-01	-14.0130	-31.844613	0.000180	1.799239	0.609599	-0.014710
1353	6.7600e-01	-14.0467	-31.925434	0.000198	1.977071	0.669850	-0.016164
1354	6.7650e-01	-14.0996	-31.999413	0.000181	1.809700	0.613143	-0.014796
1355	6.7700e-01	-14.1365	-32.072109	0.000178	1.778318	0.602510	-0.014539
1356	6.7750e-01	-14.1862	-32.152931	0.000198	1.977071	0.669850	-0.016164
1357	6.7800e-01	-14.2328	-32.232469	0.000195	1.945689	0.659217	-0.015908
1358	6.7850e-01	-14.2568	-32.311152	0.000192	1.924768	0.652129	-0.015737
1359	6.7900e-01	-14.2889	-32.387697	0.000187	1.872464	0.634408	-0.015309
1360	6.7950e-01	-14.3483	-32.468090	0.000197	1.966610	0.666306	-0.016079
1361	6.8000e-01	-14.3483	-32.546346	0.000191	1.914307	0.648585	-0.015651
1362	6.8050e-01	-14.4237	-32.617332	0.000174	1.736475	0.588334	-0.014197
1363	6.8100e-01	-14.4590	-32.701146	0.000205	2.050296	0.694659	-0.016763
1364	6.8150e-01	-14.5055	-32.775981	0.000183	1.830621	0.620231	-0.014967
1365	6.8200e-01	-14.5600	-32.857229	0.000199	1.987532	0.673394	-0.016250
1366	6.8250e-01	-14.5953	-32.935485	0.000191	1.914307	0.648585	-0.015651
1367	6.8300e-01	-14.6242	-33.012030	0.000187	1.872464	0.634408	-0.015309
1368	6.8350e-01	-14.6563	-33.083871	0.000176	1.757397	0.595422	-0.014368
1369	6.8400e-01	-14.7076	-33.163409	0.000195	1.945689	0.659217	-0.015908
1370	6.8450e-01	-14.7333	-33.238671	0.000184	1.841082	0.623776	-0.015052
1371	6.8500e-01	-14.7990	-33.310940	0.000177	1.767857	0.598966	-0.014454
1372	6.8550e-01	-14.8199	-33.393044	0.000201	2.008453	0.680482	-0.016421
1373	6.8600e-01	-14.8696	-33.471727	0.000192	1.924768	0.652129	-0.015737
1374	6.8650e-01	-14.8937	-33.553831	0.000201	2.008453	0.680482	-0.016421
1375	6.8700e-01	-14.9803	-33.625672	0.000176	1.757397	0.595422	-0.014368
1376	6.8750e-01	-14.9803	-33.701789	0.000186	1.862004	0.630864	-0.015223
1377	6.8800e-01	-15.0333	-33.781755	0.000196	1.956150	0.662761	-0.015993
1378	6.8850e-01	-15.0525	-33.856162	0.000182	1.820161	0.616687	-0.014881
1379	6.8900e-01	-15.1119	-33.933990	0.000190	1.903846	0.645041	-0.015566
1380	6.8950e-01	-15.1343	-34.007114	0.000179	1.788779	0.606055	-0.014625
1381	6.9000e-01	-15.1632	-34.091356	0.000206	2.060757	0.698203	-0.016848
1382	6.9050e-01	-15.2194	-34.156783	0.000160	1.600486	0.542259	-0.013085
1383	6.9100e-01	-15.2611	-34.235893	0.000194	1.935228	0.655673	-0.015822
1384	6.9150e-01	-15.3044	-34.317142	0.000199	1.987532	0.673394	-0.016250
1385	6.9200e-01	-15.3814	-34.391121	0.000181	1.809700	0.613143	-0.014796
1386	6.9250e-01	-15.3974	-34.471942	0.000198	1.977071	0.669850	-0.016164
1387	6.9300e-01	-15.4231	-34.543356	0.000175	1.746936	0.591878	-0.014283
1388	6.9350e-01	-15.4456	-34.624605	0.000199	1.987532	0.673394	-0.016250
1389	6.9400e-01	-15.5354	-34.697301	0.000178	1.778318	0.602510	-0.014539
1390	6.9450e-01	-15.5691	-34.771708	0.000182	1.820161	0.616687	-0.014881
1391	6.9500e-01	-15.5611	-34.848253	-0.000187	-1.872464	-0.634408	-0.015309
1392	6.9550e-01	-15.6397	-34.924370	0.000186	1.862004	0.630864	-0.015223
1393	6.9600e-01	-15.6718	-35.005191	0.000198	1.977071	0.669850	-0.016164
1394	6.9650e-01	-15.7119	-35.074039	0.000168	1.684172	0.570613	-0.013770
1395	6.9700e-01	-15.7552	-35.148873	0.000183	1.830621	0.620231	-0.014967
1396	6.9750e-01	-15.7953	-35.230977	0.000201	2.008453	0.680482	-0.016421
1397	6.9800e-01	-15.8242	-35.303246	0.000177	1.767857	0.598966	-0.014454
1398	6.9850e-01	-15.8562	-35.384067	0.000198	1.977071	0.669850	-0.016164
1399	6.9900e-01	-15.9172	-35.458474	0.000182	1.820161	0.616687	-0.014881
1400	6.9950e-01	-15.9477	-35.537157	0.000192	1.924768	0.652129	-0.015737
1401	7.0000e-01	-15.9958	-35.607288	0.000172	1.715554	0.581245	-0.014026
1402	7.0050e-01	-15.9974	-35.686398	0.000194	1.935228	0.655673	-0.015822
1403	7.0100e-01	-16.0536	-35.762943	0.000187	1.872464	0.634408	-0.015309
1404	7.0150e-01	-16.0969	-35.831791	0.000168	1.684172	0.570613	-0.013770
1405	7.0200e-01	-16.1274	-35.914750	0.000203	2.029375	0.687571	-0.016592
1406	7.0250e-01	-16.1979	-35.988729	0.000181	1.809700	0.613143	-0.014796
1407	7.0300e-01	-16.2541	-36.063136	0.000182	1.820161	0.616687	-0.014881
1408	7.0350e-01	-16.2782	-36.135405	0.000177	1.767857	0.598966	-0.014454
1409	7.0400e-01	-16.2782	-36.208101	0.000178	1.778318	0.602510	-0.014539
1410	7.0450e-01	-16.3584	-36.275666	0.000165	1.652790	0.559980	-0.013513
1411	7.0500e-01	-16.3680	-36.352211	0.000187	1.872464	0.634408	-0.015309
1412	7.0550e-01	-16.4113	-36.427045	0.000183	1.830621	0.620231	-0.014967
1413	7.0600e-01	-16.4113	-36.508722	0.000200	1.997993	0.676938	-0.016335
1414	7.0650e-01	-16.4947	-36.582701	0.000181	1.809700	0.613143	-0.014796
1415	7.0700e-01	-16.5268	-36.648983	0.000162	1.621408	0.549348	-0.013256
1416	7.0750e-01	-16.6102	-36.728521	0.000195	1.945689	0.659217	-0.015908
1417	7.0800e-01	-16.6343	-36.801217	0.000178	1.778318	0.602510	-0.014539
1418	7.0850e-01	-16.6471	-36.884604	0.000204	2.039835	0.691115	-0.016677
1419	7.0900e-01	-16.7081	-36.957301	0.000178	1.778318	0.602510	-0.014539
1420	7.0950e-01	-16.7434	-37.029142	0.000176	1.757397	0.595422	-0.014368
1421	7.1000e-01	-16.7723	-37.109108	0.000196	1.956150	0.662761	-0.015993
1422	7.1050e-01	-16.8300	-37.180949	0.000176	1.757397	0.595422	-0.014368
1423	7.1100e-01	-16.8460	-37.257066	0.000186	1.862004	0.630864	-0.015223
1424	7.1150e-01	-16.8878	-37.328052	0.000174	1.736475	0.588334	-0.014197
1425	7.1200e-01	-16.9295	-37.397327	0.000169	1.694632	0.574157	-0.013855
1426	7.1250e-01	-16.9904	-37.479431	0.000201	2.008453	0.680482	-0.016421
1427	7.1300e-01	-17.0081	-37.545713	0.000162	1.621408	0.549348	-0.013256
1428	7.1350e-01	-17.0771	-37.618837	0.000179	1.788779	0.606055	-0.014625
1429	7.1400e-01	-17.0995	-37.697948	0.000194	1.935228	0.655673	-0.015822
1430	7.1450e-01	-17.1541	-37.765512	0.000165	1.652790	0.559980	-0.013513
1431	7.1500e-01	-17.1765	-37.844623	0.000194	1.935228	0.655673	-0.015822
1432	7.1550e-01	-17.2263	-37.909194	0.000158	1.579565	0.535171	-0.012914
1433	7.1600e-01	-17.3033	-37.988733	0.000195	1.945689	0.659217	-0.015908
1434	7.1650e-01	-17.3177	-38.061001	0.000177	1.767857	0.598966	-0.014454
1435	7.1700e-01	-17.3369	-38.141395	0.000197	1.966610	0.666306	-0.016079
1436	7.1750e-01	-17.3706	-38.209387	0.000166	1.663250	0.563524	-0.013598
1437	7.1800e-01	-17.4188	-38.290636	0.000199	1.987532	0.673394	-0.016250
1438	7.1850e-01	-17.4476	-38.358629	0.000166	1.663250	0.563524	-0.013598
1439	7.1900e-01	-17.4893	-38.433463	0.000183	1.830621	0.620231	-0.014967
1440	7.1950e-01	-17.5503	-38.507442	0.000181	1.809700	0.613143	-0.014796
1441	7.2000e-01	-17.5760	-38.581421	0.000181	1.809700	0.613143	-0.014796
1442	7.2050e-01	-17.6032	-38.658394	0.000188	1.882925	0.637952	-0.015395
1443	7.2100e-01	-17.6738	-38.722110	0.000156	1.558643	0.528083	-0.012743
1444	7.2150e-01	-17.7155	-38.799938	0.000190	1.903846	0.645041	-0.015566
1445	7.2200e-01	-17.7476	-38.868786	0.000168	1.684172	0.570613	-0.013770
1446	7.2250e-01	-17.7637	-38.950890	0.000201	2.008453	0.680482	-0.016421
1447	7.2300e-01	-17.8150	-39.026579	0.000185	1.851543	0.627320	-0.015138
1448	7.2350e-01	-17.8327	-39.092861	0.000162	1.621408	0.549348	-0.013256
1449	7.2400e-01	-17.9000	-39.162564	0.000171	1.705093	0.577701	-0.013941
1450	7.2450e-01	-17.9353	-39.234405	0.000176	1.757397	0.595422	-0.014368
1451	7.2500e-01	-17.9658	-39.310095	0.000185	1.851543	0.627320	-0.015138
1452	7.2550e-01	-18.0139	-39.389205	0.000194	1.935228	0.655673	-0.015822
1453	7.2600e-01	-18.0428	-39.455060	0.000161	1.610947	0.545804	-0.013171
1454	7.2650e-01	-18.0957	-39.529039	0.000181	1.809700	0.613143	-0.014796
1455	7.2700e-01	-18.1310	-39.603873	0.000183	1.830621	0.620231	-0.014967
1456	7.2750e-01	-18.1984	-39.678708	0.000183	1.830621	0.620231	-0.014967
1457	7.2800e-01	-18.2449	-39.751832	0.000179	1.788779	0.606055	-0.014625
1458	7.2850e-01	-18.2690	-39.820252	0.000167	1.673711	0.567069	-0.013684
1459	7.2900e-01	-18.2947	-39.895941	0.000185	1.851543	0.627320	-0.015138
1460	7.2950e-01	-18.3139	-39.969921	0.000181	1.809700	0.613143	-0.014796
1461	7.3000e-01	-18.3797	-40.042189	0.000177	1.767857	0.598966	-0.014454
1462	7.3050e-01	-18.4214	-40.112747	0.000173	1.726014	0.584790	-0.014112
1463	7.3100e-01	-18.4567	-40.185871	0.000179	1.788779	0.606055	-0.014625
1464	7.3150e-01	-18.4968	-40.264127	0.000191	1.914307	0.648585	-0.015651
1465	7.3200e-01	-18.5658	-40.333830	0.000171	1.705093	0.577701	-0.013941
1466	7.3250e-01	-18.5786	-40.408237	0.000182	1.820161	0.616687	-0.014881
1467	7.3300e-01	-18.6492	-40.479650	0.000175	1.746936	0.591878	-0.014283
1468	7.3350e-01	-18.6540	-40.546787	0.000164	1.642329	0.556436	-0.013427
1469	7.3400e-01	-18.6925	-40.619911	0.000179	1.788779	0.606055	-0.014625
1470	7.3450e-01	-18.7535	-40.691324	0.000175	1.746936	0.591878	-0.014283
1471	7.3500e-01	-18.7824	-40.766159	0.000183	1.830621	0.620231	-0.014967
1472	7.3550e-01	-18.8305	-40.835434	0.000169	1.694632	0.574157	-0.013855
1473	7.3600e-01	-18.8545	-40.907703	0.000177	1.767857	0.598966	-0.014454
1474	7.3650e-01	-18.8818	-40.969709	0.000152	1.516801	0.513906	-0.012401
1475	7.3700e-01	-18.8995	-41.050957	0.000199	1.987532	0.673394	-0.016250
1476	7.3750e-01	-18.9845	-41.118522	0.000165	1.652790	0.559980	-0.013513
1477	7.3800e-01	-18.9861	-41.191218	0.000178	1.778318	0.602510	-0.014539
1478	7.3850e-01	-19.0535	-41.265625	0.000182	1.820161	0.616687	-0.014881
1479	7.3900e-01	-19.1048	-41.337039	0.000175	1.746936	0.591878	-0.014283
1480	7.3950e-01	-19.1305	-41.411018	0.000181	1.809700	0.613143	-0.014796
1481	7.4000e-01	-19.1722	-41.482859	0.000176	1.757397	0.595422	-0.014368
1482	7.4050e-01	-19.2171	-41.555555	0.000178	1.778318	0.602510	-0.014539
1483	7.4100e-01	-19.2604	-41.626969	0.000175	1.746936	0.591878	-0.014283
1484	7.4150e-01	-19.2845	-41.701375	0.000182	1.820161	0.616687	-0.014881
1485	7.4200e-01	-19.3053	-41.783479	0.000201	2.008453	0.680482	-0.016421
1486	7.4250e-01	-19.4048	-41.845485	0.000152	1.516801	0.513906	-0.012401
1487	7.4300e-01	-19.4016	-41.914760	-0.000169	-1.694632	-0.574157	-0.013855
1488	7.4350e-01	-19.4914	-41.984036	0.000169	1.694632	0.574157	-0.013855
1489	7.4400e-01	-19.5428	-42.052028	0.000166	1.663250	0.563524	-0.013598
1490	7.4450e-01	-19.5299	-42.130283	-0.000191	-1.914307	-0.648585	-0.015651
1491	7.4500e-01	-19.5941	-42.198704	0.000167	1.673711	0.567069	-0.013684
1492	7.4550e-01	-19.5957	-42.269262	0.000173	1.726014	0.584790	-0.014112
1493	7.4600e-01	-19.6631	-42.342386	0.000179	1.788779	0.606055	-0.014625
1494	7.4650e-01	-19.7096	-42.412516	0.000172	1.715554	0.581245	-0.014026
1495	7.4700e-01	-19.7224	-42.484785	0.000177	1.767857	0.598966	-0.014454
1496	7.4750e-01	-19.7818	-42.560475	0.000185	1.851543	0.627320	-0.015138
1497	7.4800e-01	-19.8203	-42.623335	0.000154	1.537722	0.520994	-0.012572
1498	7.4850e-01	-19.8476	-42.697315	0.000181	1.809700	0.613143	-0.014796
1499	7.4900e-01	-19.9214	-42.770011	0.000178	1.778318	0.602510	-0.014539
1500	7.4950e-01	-19.9342	-42.840141	0.000172	1.715554	0.581245	-0.014026
1501	7.5000e-01	-19.9599	-42.919680	0.000195	1.945689	0.659217	-0.015908
1502	7.5050e-01	-19.9149	-42.977837	-0.000142	-1.422654	-0.482008	-0.011631
1503	7.5100e-01	-19.8748	-42.988527	-0.000026	-0.261517	-0.088604	-0.002138
1504	7.5150e-01	-19.8652	-42.974843	0.000033	0.334742	0.113414	0.002737
1505	7.5200e-01	-19.7882	-42.950041	0.000061	0.606720	0.205562	0.004960
1506	7.5250e-01	-19.7273	-42.917114	0.000081	0.805473	0.272902	0.006585
1507	7.5300e-01	-19.6952	-42.873924	0.000106	1.056530	0.357962	0.008638
1508	7.5350e-01	-19.6984	-42.814912	-0.000144	-1.443576	-0.489097	0.011802
1509	7.5400e-01	-19.6326	-42.763597	0.000126	1.255283	0.425301	0.010263
1510	7.5450e-01	-19.6037	-42.701591	0.000152	1.516801	0.513906	0.012401
1511	7.5500e-01	-19.5476	-42.645144	0.000138	1.380812	0.467832	0.011289
1512	7.5550e-01	-19.5267	-42.580145	0.000159	1.590025	0.538715	0.013000
1513	7.5600e-01	-19.4674	-42.521133	0.000144	1.443576	0.489097	0.011802
1514	7.5650e-01	-19.4321	-42.450147	0.000174	1.736475	0.588334	0.014197
1515	7.5700e-01	-19.4160	-42.391990	0.000142	1.422654	0.482008	0.011631
1516	7.5750e-01	-19.3679	-42.329129	0.000154	1.537722	0.520994	0.012572
1517	7.5800e-01	-19.2941	-42.266696	0.000153	1.527261	0.517450	0.012487
1518	7.5850e-01	-19.2957	-42.196993	-0.000171	-1.705093	-0.577701	0.013941
1519	7.5900e-01	-19.2315	-42.135843	0.000150	1.495879	0.506818	0.012230
1520	7.5950e-01	-19.2139	-42.067423	0.000167	1.673711	0.567069	0.013684
1521	7.6000e-01	-19.1658	-42.001141	0.000162	1.621408	0.549348	0.013256
1522	7.6050e-01	-19.1369	-41.940846	0.000147	1.474958	0.499729	0.012059
1523	7.6100e-01	-19.0759	-41.881406	0.000145	1.454036	0.492641	0.011888
1524	7.6150e-01	-19.0086	-41.815124	0.000162	1.621408	0.549348	0.013256
1525	7.6200e-01	-18.9973	-41.748414	0.000163	1.631868	0.552892	0.013342
1526	7.6250e-01	-18.9652	-41.679139	0.000169	1.694632	0.574157	0.013855
1527	7.6300e-01	-18.9332	-41.616706	0.000153	1.527261	0.517450	0.012487
1528	7.6350e-01	-18.8818	-41.551279	0.000160	1.600486	0.542259	0.013085
1529	7.6400e-01	-18.8353	-41.493122	0.000142	1.422654	0.482008	0.011631
1530	7.6450e-01	-18.8016	-41.422991	0.000172	1.715554	0.581245	0.014026
1531	7.6500e-01	-18.7679	-41.360130	0.000154	1.537722	0.520994	0.012572
1532	7.6550e-01	-18.7198	-41.292566	0.000165	1.652790	0.559980	0.013513
1533	7.6600e-01	-18.6572	-41.225428	0.000164	1.642329	0.556436	0.013427
1534	7.6650e-01	-18.6428	-41.154870	0.000173	1.726014	0.584790	0.014112
1535	7.6700e-01	-18.5866	-41.093292	0.000151	1.506340	0.510362	0.012316
1536	7.6750e-01	-18.5530	-41.019313	0.000181	1.809700	0.613143	0.014796
1537	7.6800e-01	-18.4968	-40.960728	0.000143	1.433115	0.485553	0.011717
1538	7.6850e-01	-18.4679	-40.885039	0.000185	1.851543	0.627320	0.015138
1539	7.6900e-01	-18.4198	-40.819184	0.000161	1.610947	0.545804	0.013171
1540	7.6950e-01	-18.3845	-40.758889	0.000147	1.474958	0.499729	0.012059
1541	7.7000e-01	-18.3637	-40.694745	0.000157	1.569104	0.531627	0.012829
1542	7.7050e-01	-18.2963	-40.629746	0.000159	1.590025	0.538715	0.013000
1543	7.7100e-01	-18.2899	-40.557905	0.000176	1.757397	0.595422	0.014368
1544	7.7150e-01	-18.2129	-40.497183	0.000149	1.485419	0.503273	0.012145
1545	7.7200e-01	-18.2016	-40.427480	0.000171	1.705093	0.577701	0.013941
1546	7.7250e-01	-18.1439	-40.359060	0.000167	1.673711	0.567069	0.013684
1547	7.7300e-01	-18.1230	-40.292778	0.000162	1.621408	0.549348	0.013256
1548	7.7350e-01	-18.0813	-40.223502	0.000169	1.694632	0.574157	0.013855
1549	7.7400e-01	-18.0252	-40.155510	0.000166	1.663250	0.563524	0.013598
1550	7.7450e-01	-17.9883	-40.084097	0.000175	1.746936	0.591878	0.014283
1551	7.7500e-01	-17.9626	-40.012256	0.000176	1.757397	0.595422	0.014368
1552	7.7550e-01	-17.9081	-39.953671	0.000143	1.433115	0.485553	0.011717
1553	7.7600e-01	-17.8294	-39.889099	0.000158	1.579565	0.535171	0.012914
1554	7.7650e-01	-17.8519	-39.813410	-0.000185	-1.851543	-0.627320	0.015138
1555	7.7700e-01	-17.7749	-39.747555	0.000161	1.610947	0.545804	0.013171
1556	7.7750e-01	-17.7669	-39.679135	0.000167	1.673711	0.567069	0.013684
1557	7.7800e-01	-17.7011	-39.614564	0.000158	1.579565	0.535171	0.012914
1558	7.7850e-01	-17.6802	-39.541012	0.000180	1.799239	0.609599	0.014710
1559	7.7900e-01	-17.6450	-39.485421	0.000136	1.359890	0.460743	0.011118
1560	7.7950e-01	-17.5760	-39.411442	0.000181	1.809700	0.613143	0.014796
1561	7.8000e-01	-17.5583	-39.336608	0.000183	1.830621	0.620231	0.014967
1562	7.8050e-01	-17.5230	-39.268615	0.000166	1.663250	0.563524	0.013598
1563	7.8100e-01	-17.4765	-39.196774	0.000176	1.757397	0.595422	0.014368
1564	7.8150e-01	-17.4508	-39.133058	0.000156	1.558643	0.528083	0.012743
1565	7.8200e-01	-17.3931	-39.068059	0.000159	1.590025	0.538715	0.013000
1566	7.8250e-01	-17.3883	-38.989376	0.000192	1.924768	0.652129	0.015737
1567	7.8300e-01	-17.2968	-38.925660	0.000156	1.558643	0.528083	0.012743
1568	7.8350e-01	-17.2696	-38.861516	0.000157	1.569104	0.531627	0.012829
1569	7.8400e-01	-17.2295	-38.787537	0.000181	1.809700	0.613143	0.014796
1570	7.8450e-01	-17.1845	-38.723821	0.000156	1.558643	0.528083	0.012743
1571	7.8500e-01	-17.1701	-38.649841	0.000181	1.809700	0.613143	0.014796
1572	7.8550e-01	-17.1220	-38.578428	0.000175	1.746936	0.591878	0.014283
1573	7.8600e-01	-17.0867	-38.512146	0.000162	1.621408	0.549348	0.013256
1574	7.8650e-01	-17.0273	-38.445864	0.000162	1.621408	0.549348	0.013256
1575	7.8700e-01	-16.9985	-38.379155	0.000163	1.631868	0.552892	0.013342
1576	7.8750e-01	-16.9423	-38.305175	0.000181	1.809700	0.613143	0.014796
1577	7.8800e-01	-16.9166	-38.233334	0.000176	1.757397	0.595422	0.014368
1578	7.8850e-01	-16.8749	-38.166197	0.000164	1.642329	0.556436	0.013427
1579	7.8900e-01	-16.8428	-38.083238	0.000203	2.029375	0.687571	0.016592
1580	7.8950e-01	-16.7706	-38.026791	0.000138	1.380812	0.467832	0.011289
1581	7.9000e-01	-16.7530	-37.954095	0.000178	1.778318	0.602510	0.014539
1582	7.9050e-01	-16.7001	-37.892089	0.000152	1.516801	0.513906	0.012401
1583	7.9100e-01	-16.7001	-37.809558	-0.000202	-2.018914	-0.684027	0.016506
1584	7.9150e-01	-16.6503	-37.739000	0.000173	1.726014	0.584790	0.014112
1585	7.9200e-01	-16.5926	-37.674856	0.000157	1.569104	0.531627	0.012829
1586	7.9250e-01	-16.5814	-37.603870	0.000174	1.736475	0.588334	0.014197
1587	7.9300e-01	-16.5108	-37.532884	0.000174	1.736475	0.588334	0.014197
1588	7.9350e-01	-16.4562	-37.460615	0.000177	1.767857	0.598966	0.014454
1589	7.9400e-01	-16.4370	-37.392623	0.000166	1.663250	0.563524	0.013598
1590	7.9450e-01	-16.3888	-37.322065	0.000173	1.726014	0.584790	0.014112
1591	7.9500e-01	-16.3391	-37.254072	0.000166	1.663250	0.563524	0.013598
1592	7.9550e-01	-16.3086	-37.188218	0.000161	1.610947	0.545804	0.013171
1593	7.9600e-01	-16.2846	-37.100555	0.000214	2.144442	0.726557	0.017533
1594	7.9650e-01	-16.2268	-37.038549	0.000152	1.516801	0.513906	0.012401
1595	7.9700e-01	-16.1963	-36.972267	0.000162	1.621408	0.549348	0.013256
1596	7.9750e-01	-16.1675	-36.895295	0.000188	1.882925	0.637952	0.015395
1597	7.9800e-01	-16.0937	-36.824737	0.000173	1.726014	0.584790	0.014112
1598	7.9850e-01	-16.0584	-36.753751	0.000174	1.736475	0.588334	0.014197
1599	7.9900e-01	-16.0600	-36.681910	-0.000176	-1.757397	-0.595422	0.014368
1600	7.9950e-01	-15.9862	-36.612635	0.000169	1.694632	0.574157	0.013855
1601	8.0000e-01	-15.9397	-36.546353	0.000162	1.621408	0.549348	0.013256
1602	8.0050e-01	-15.8996	-36.469808	0.000187	1.872464	0.634408	0.015309
1603	8.0100e-01	-15.8835	-36.397967	0.000176	1.757397	0.595422	0.014368
1604	8.0150e-01	-15.8418	-36.331685	0.000162	1.621408	0.549348	0.013256
1605	8.0200e-01	-15.7889	-36.256423	0.000184	1.841082	0.623776	0.015052
1606	8.0250e-01	-15.7728	-36.185437	0.000174	1.736475	0.588334	0.014197
1607	8.0300e-01	-15.7006	-36.119155	0.000162	1.621408	0.549348	0.013256
1608	8.0350e-01	-15.6445	-36.047742	0.000175	1.746936	0.591878	0.014283
1609	8.0400e-01	-15.6140	-35.980604	0.000164	1.642329	0.556436	0.013427
1610	8.0450e-01	-15.5867	-35.902349	0.000191	1.914307	0.648585	0.015651
1611	8.0500e-01	-15.5242	-35.832646	0.000171	1.705093	0.577701	0.013941
1612	8.0550e-01	-15.4985	-35.762943	0.000171	1.705093	0.577701	0.013941
1613	8.0600e-01	-15.4712	-35.690247	0.000178	1.778318	0.602510	0.014539
1614	8.0650e-01	-15.4263	-35.615412	0.000183	1.830621	0.620231	0.014967
1615	8.0700e-01	-15.3846	-35.546565	0.000168	1.684172	0.570613	0.013770
1616	8.0750e-01	-15.3621	-35.474724	0.000176	1.757397	0.595422	0.014368
1617	8.0800e-01	-15.3076	-35.405448	0.000169	1.694632	0.574157	0.013855
1618	8.0850e-01	-15.2755	-35.330186	0.000184	1.841082	0.623776	0.015052
1619	8.0900e-01	-15.2611	-35.249365	0.000198	1.977071	0.669850	0.016164
1620	8.0950e-01	-15.2049	-35.180518	0.000168	1.684172	0.570613	0.013770
1621	8.1000e-01	-15.1552	-35.104828	0.000185	1.851543	0.627320	0.015138
1622	8.1050e-01	-15.1151	-35.034270	0.000173	1.726014	0.584790	0.014112
1623	8.1100e-01	-15.0686	-34.956870	0.000189	1.893386	0.641496	0.015480
1624	8.1150e-01	-15.0236	-34.885456	0.000175	1.746936	0.591878	0.014283
1625	8.1200e-01	-14.9851	-34.820029	0.000160	1.600486	0.542259	0.013085
1626	8.1250e-01	-14.9210	-34.748188	0.000176	1.757397	0.595422	0.014368
1627	8.1300e-01	-14.9113	-34.678058	0.000172	1.715554	0.581245	0.014026
1628	8.1350e-01	-14.8600	-34.599802	0.000191	1.914307	0.648585	0.015651
1629	8.1400e-01	-14.8087	-34.528817	0.000174	1.736475	0.588334	0.014197
1630	8.1450e-01	-14.7654	-34.455265	0.000180	1.799239	0.609599	0.014710
1631	8.1500e-01	-14.7461	-34.382569	0.000178	1.778318	0.602510	0.014539
1632	8.1550e-01	-14.7076	-34.303030	0.000195	1.945689	0.659217	0.015908
1633	8.1600e-01	-14.6611	-34.234610	0.000167	1.673711	0.567069	0.013684
1634	8.1650e-01	-14.6242	-34.162769	0.000176	1.757397	0.595422	0.014368
1635	8.1700e-01	-14.6017	-34.083659	0.000194	1.935228	0.655673	0.015822
1636	8.1750e-01	-14.5343	-34.012245	0.000175	1.746936	0.591878	0.014283
1637	8.1800e-01	-14.5151	-33.939977	0.000177	1.767857	0.598966	0.014454
1638	8.1850e-01	-14.4782	-33.864287	0.000185	1.851543	0.627320	0.015138
1639	8.1900e-01	-14.4349	-33.786887	0.000189	1.893386	0.641496	0.015480
1640	8.1950e-01	-14.3723	-33.716756	0.000172	1.715554	0.581245	0.014026
1641	8.2000e-01	-14.3402	-33.643205	0.000180	1.799239	0.609599	0.014710
1642	8.2050e-01	-14.3242	-33.568798	0.000182	1.820161	0.616687	0.014881
1643	8.2100e-01	-14.2873	-33.500378	0.000167	1.673711	0.567069	0.013684
1644	8.2150e-01	-14.2231	-33.423405	0.000188	1.882925	0.637952	0.015395
1645	8.2200e-01	-14.1814	-33.361827	0.000151	1.506340	0.510362	0.012316
1646	8.2250e-01	-14.1237	-33.281006	0.000198	1.977071	0.669850	0.016164
1647	8.2300e-01	-14.1253	-33.207027	-0.000181	-1.809700	-0.613143	0.014796
1648	8.2350e-01	-14.0739	-33.135186	0.000176	1.757397	0.595422	0.014368
1649	8.2400e-01	-14.0258	-33.059496	0.000185	1.851543	0.627320	0.015138
1650	8.2450e-01	-13.9777	-32.983806	0.000185	1.851543	0.627320	0.015138
1651	8.2500e-01	-13.9183	-32.910255	0.000180	1.799239	0.609599	0.014710
1652	8.2550e-01	-13.9087	-32.834565	0.000185	1.851543	0.627320	0.015138
1653	8.2600e-01	-13.8814	-32.758020	0.000187	1.872464	0.634408	0.015309
1654	8.2650e-01	-13.8269	-32.684041	0.000181	1.809700	0.613143	0.014796
1655	8.2700e-01	-13.7980	-32.607496	0.000187	1.872464	0.634408	0.015309
1656	8.2750e-01	-13.7499	-32.537793	0.000171	1.705093	0.577701	0.013941
1657	8.2800e-01	-13.7306	-32.456972	0.000198	1.977071	0.669850	0.016164
1658	8.2850e-01	-13.6793	-32.385559	0.000175	1.746936	0.591878	0.014283
1659	8.2900e-01	-13.6215	-32.311580	0.000181	1.809700	0.613143	0.014796
1660	8.2950e-01	-13.6039	-32.242304	0.000169	1.694632	0.574157	0.013855
1661	8.3000e-01	-13.5526	-32.158917	0.000204	2.039835	0.691115	0.016677
1662	8.3050e-01	-13.5092	-32.087076	0.000176	1.757397	0.595422	0.014368
1663	8.3100e-01	-13.4932	-32.008393	0.000192	1.924768	0.652129	0.015737
1664	8.3150e-01	-13.4419	-31.932276	0.000186	1.862004	0.630864	0.015223
1665	8.3200e-01	-13.3649	-31.862573	0.000171	1.705093	0.577701	0.013941
1666	8.3250e-01	-13.3633	-31.786456	0.000186	1.862004	0.630864	0.015223
1667	8.3300e-01	-13.2975	-31.712049	0.000182	1.820161	0.616687	0.014881
1668	8.3350e-01	-13.2558	-31.633794	0.000191	1.914307	0.648585	0.015651
1669	8.3400e-01	-13.2333	-31.556393	0.000189	1.893386	0.641496	0.015480
1670	8.3450e-01	-13.2044	-31.480704	0.000185	1.851543	0.627320	0.015138
1671	8.3500e-01	-13.1210	-31.408863	0.000176	1.757397	0.595422	0.014368
1672	8.3550e-01	-13.1066	-31.333601	0.000184	1.841082	0.623776	0.015052
1673	8.3600e-01	-13.0633	-31.258766	0.000183	1.830621	0.620231	0.014967
1674	8.3650e-01	-13.0151	-31.179655	0.000194	1.935228	0.655673	0.015822
1675	8.3700e-01	-12.9975	-31.103966	0.000185	1.851543	0.627320	0.015138
1676	8.3750e-01	-12.9478	-31.035546	0.000167	1.673711	0.567069	0.013684
1677	8.3800e-01	-12.9189	-30.955580	0.000196	1.956150	0.662761	0.015993
1678	8.3850e-01	-12.8659	-30.882456	0.000179	1.788779	0.606055	0.014625
1679	8.3900e-01	-12.8547	-30.790944	0.000224	2.238588	0.758454	0.018302
1680	8.3950e-01	-12.7986	-30.726373	0.000158	1.579565	0.535171	0.012914
1681	8.4000e-01	-12.7392	-30.645551	0.000198	1.977071	0.669850	0.016164
1682	8.4050e-01	-12.6991	-30.565586	0.000196	1.956150	0.662761	0.015993
1683	8.4100e-01	-12.6430	-30.493317	0.000177	1.767857	0.598966	0.014454
1684	8.4150e-01	-12.6205	-30.409075	0.000206	2.060757	0.698203	0.016848
1685	8.4200e-01	-12.5964	-30.335951	0.000179	1.788779	0.606055	0.014625
1686	8.4250e-01	-12.5467	-30.262399	0.000180	1.799239	0.609599	0.014710
1687	8.4300e-01	-12.4954	-30.190131	0.000177	1.767857	0.598966	0.014454
1688	8.4350e-01	-12.5002	-30.104606	-0.000209	-2.092139	-0.708836	0.017105
1689	8.4400e-01	-12.4328	-30.033620	0.000174	1.736475	0.588334	0.014197
1690	8.4450e-01	-12.3622	-29.954081	0.000195	1.945689	0.659217	0.015908
1691	8.4500e-01	-12.3622	-29.885234	-0.000168	-1.684172	-0.570613	0.013770
1692	8.4550e-01	-12.2964	-29.808261	0.000188	1.882925	0.637952	0.015395
1693	8.4600e-01	-12.2612	-29.727440	0.000198	1.977071	0.669850	0.016164
1694	8.4650e-01	-12.2243	-29.649185	0.000191	1.914307	0.648585	0.015651
1695	8.4700e-01	-12.1874	-29.571784	0.000189	1.893386	0.641496	0.015480
1696	8.4750e-01	-12.1633	-29.491391	0.000197	1.966610	0.666306	0.016079
1697	8.4800e-01	-12.1104	-29.417839	0.000180	1.799239	0.609599	0.014710
1698	8.4850e-01	-12.1039	-29.334452	0.000204	2.039835	0.691115	0.016677
1699	8.4900e-01	-12.0414	-29.256625	0.000190	1.903846	0.645041	0.015566
1700	8.4950e-01	-11.9692	-29.186066	0.000173	1.726014	0.584790	0.014112
1701	8.5000e-01	-11.9451	-29.103962	0.000201	2.008453	0.680482	0.016421
1702	8.5050e-01	-11.9243	-29.026135	0.000190	1.903846	0.645041	0.015566
1703	8.5100e-01	-11.9082	-28.946169	0.000196	1.956150	0.662761	0.015993
1704	8.5150e-01	-11.8264	-28.863209	0.000203	2.029375	0.687571	0.016592
1705	8.5200e-01	-11.7687	-28.788803	0.000182	1.820161	0.616687	0.014881
1706	8.5250e-01	-11.7446	-28.719527	0.000169	1.694632	0.574157	0.013855
1707	8.5300e-01	-11.6900	-28.637851	0.000200	1.997993	0.676938	0.016335
1708	8.5350e-01	-11.6772	-28.558313	0.000195	1.945689	0.659217	0.015908
1709	8.5400e-01	-11.6066	-28.479629	0.000192	1.924768	0.652129	0.015737
1710	8.5450e-01	-11.5970	-28.403940	0.000185	1.851543	0.627320	0.015138
1711	8.5500e-01	-11.5521	-28.323119	0.000198	1.977071	0.669850	0.016164
1712	8.5550e-01	-11.5553	-28.243580	-0.000195	-1.945689	-0.659217	0.015908
1713	8.5600e-01	-11.4991	-28.167035	0.000187	1.872464	0.634408	0.015309
1714	8.5650e-01	-11.4237	-28.084504	0.000202	2.018914	0.684027	0.016506
1715	8.5700e-01	-11.3965	-28.010952	0.000180	1.799239	0.609599	0.014710
1716	8.5750e-01	-11.3580	-27.929703	0.000199	1.987532	0.673394	0.016250
1717	8.5800e-01	-11.2954	-27.849737	0.000196	1.956150	0.662761	0.015993
1718	8.5850e-01	-11.2762	-27.769772	0.000196	1.956150	0.662761	0.015993
1719	8.5900e-01	-11.2264	-27.692371	0.000189	1.893386	0.641496	0.015480
1720	8.5950e-01	-11.1799	-27.613688	0.000192	1.924768	0.652129	0.015737
1721	8.6000e-01	-11.1478	-27.536288	0.000189	1.893386	0.641496	0.015480
1722	8.6050e-01	-11.1077	-27.458460	0.000190	1.903846	0.645041	0.015566
1723	8.6100e-01	-11.0451	-27.376784	0.000200	1.997993	0.676938	0.016335
1724	8.6150e-01	-11.0066	-27.303232	0.000180	1.799239	0.609599	0.014710
1725	8.6200e-01	-10.9778	-27.217280	0.000210	2.102599	0.712380	0.017191
1726	8.6250e-01	-10.9409	-27.139879	0.000189	1.893386	0.641496	0.015480
1727	8.6300e-01	-10.9120	-27.059058	0.000198	1.977071	0.669850	0.016164
1728	8.6350e-01	-10.8542	-26.970968	0.000215	2.154903	0.730101	0.017618
1729	8.6400e-01	-10.8254	-26.900409	0.000173	1.726014	0.584790	0.014112
1730	8.6450e-01	-10.8093	-26.816595	0.000205	2.050296	0.694659	0.016763
1731	8.6500e-01	-10.7484	-26.735346	0.000199	1.987532	0.673394	0.016250
1732	8.6550e-01	-10.7211	-26.658801	0.000187	1.872464	0.634408	0.015309
1733	8.6600e-01	-10.6922	-26.581401	0.000189	1.893386	0.641496	0.015480
1734	8.6650e-01	-10.6168	-26.503573	0.000190	1.903846	0.645041	0.015566
1735	8.6700e-01	-10.5976	-26.421041	0.000202	2.018914	0.684027	0.016506
1736	8.6750e-01	-10.5382	-26.343214	0.000190	1.903846	0.645041	0.015566
1737	8.6800e-01	-10.4933	-26.263675	0.000195	1.945689	0.659217	0.015908
1738	8.6850e-01	-10.4660	-26.181571	0.000201	2.008453	0.680482	0.016421
1739	8.6900e-01	-10.4227	-26.102033	0.000195	1.945689	0.659217	0.015908
1740	8.6950e-01	-10.3986	-26.018218	0.000205	2.050296	0.694659	0.016763
1741	8.7000e-01	-10.3553	-25.936542	0.000200	1.997993	0.676938	0.016335
1742	8.7050e-01	-10.3200	-25.854438	0.000201	2.008453	0.680482	0.016421
1743	8.7100e-01	-10.2462	-25.773189	0.000199	1.987532	0.673394	0.016250
1744	8.7150e-01	-10.2430	-25.693651	0.000195	1.945689	0.659217	0.015908
1745	8.7200e-01	-10.1949	-25.611119	0.000202	2.018914	0.684027	0.016506
1746	8.7250e-01	-10.1307	-25.538423	0.000178	1.778318	0.602510	0.014539
1747	8.7300e-01	-10.0922	-25.452470	0.000210	2.102599	0.712380	0.017191
1748	8.7350e-01	-10.0601	-25.372504	0.000196	1.956150	0.662761	0.015993
1749	8.7400e-01	-10.0505	-25.293821	0.000192	1.924768	0.652129	0.015737
1750	8.7450e-01	-9.9831	-25.211290	0.000202	2.018914	0.684027	0.016506
1751	8.7500e-01	-9.9575	-25.132179	0.000194	1.935228	0.655673	0.015822
1752	8.7550e-01	-9.9398	-25.050502	0.000200	1.997993	0.676938	0.016335
1753	8.7600e-01	-9.8692	-24.973102	0.000189	1.893386	0.641496	0.015480
1754	8.7650e-01	-9.8484	-24.882446	0.000222	2.217667	0.751366	0.018131
1755	8.7700e-01	-9.8131	-24.801197	0.000199	1.987532	0.673394	0.016250
1756	8.7750e-01	-9.7505	-24.726790	0.000182	1.820161	0.616687	0.014881
1757	8.7800e-01	-9.7056	-24.637416	0.000219	2.186285	0.740733	0.017875
1758	8.7850e-01	-9.7040	-24.555312	0.000201	2.008453	0.680482	0.016421
1759	8.7900e-01	-9.6126	-24.477912	0.000189	1.893386	0.641496	0.015480
1760	8.7950e-01	-9.5789	-24.393670	0.000206	2.060757	0.698203	0.016848
1761	8.8000e-01	-9.5612	-24.304724	0.000218	2.175824	0.737189	0.017789
1762	8.8050e-01	-9.4858	-24.229890	0.000183	1.830621	0.620231	0.014967
1763	8.8100e-01	-9.4890	-24.146930	-0.000203	-2.029375	-0.687571	0.016592
1764	8.8150e-01	-9.4313	-24.065254	0.000200	1.997993	0.676938	0.016335
1765	8.8200e-01	-9.4120	-23.981439	0.000205	2.050296	0.694659	0.016763
1766	8.8250e-01	-9.3431	-23.906605	0.000183	1.830621	0.620231	0.014967
1767	8.8300e-01	-9.3029	-23.826639	0.000196	1.956150	0.662761	0.015993
1768	8.8350e-01	-9.2564	-23.740686	0.000210	2.102599	0.712380	0.017191
1769	8.8400e-01	-9.2259	-23.650457	0.000221	2.207206	0.747822	0.018046
1770	8.8450e-01	-9.2099	-23.570919	0.000195	1.945689	0.659217	0.015908
1771	8.8500e-01	-9.1313	-23.486249	0.000207	2.071217	0.701747	0.016934
1772	8.8550e-01	-9.1136	-23.399869	0.000211	2.113060	0.715924	0.017276
1773	8.8600e-01	-9.0912	-23.310068	0.000220	2.196746	0.744278	0.017960
1774	8.8650e-01	-8.9917	-23.236944	0.000179	1.788779	0.606055	0.014625
1775	8.8700e-01	-8.9965	-23.154840	-0.000201	-2.008453	-0.680482	0.016421
1776	8.8750e-01	-8.9420	-23.065894	0.000218	2.175824	0.737189	0.017789
1777	8.8800e-01	-8.9035	-22.985072	0.000198	1.977071	0.669850	0.016164
1778	8.8850e-01	-8.8955	-22.904679	0.000197	1.966610	0.666306	0.016079
1779	8.8900e-01	-8.8602	-22.821719	0.000203	2.029375	0.687571	0.016592
1780	8.8950e-01	-8.7976	-22.736622	0.000208	2.081678	0.705292	0.017019
1781	8.9000e-01	-8.7447	-22.653235	0.000204	2.039835	0.691115	0.016677
1782	8.9050e-01	-8.7094	-22.566855	0.000211	2.113060	0.715924	0.017276
1783	8.9100e-01	-8.6773	-22.486034	0.000198	1.977071	0.669850	0.016164
1784	8.9150e-01	-8.6195	-22.399226	0.000212	2.123521	0.719468	0.017362
1785	8.9200e-01	-8.5842	-22.316266	0.000203	2.029375	0.687571	0.016592
1786	8.9250e-01	-8.5730	-22.230314	0.000210	2.102599	0.712380	0.017191
1787	8.9300e-01	-8.5024	-22.146499	0.000205	2.050296	0.694659	0.016763
1788	8.9350e-01	-8.4415	-22.067388	0.000194	1.935228	0.655673	0.015822
1789	8.9400e-01	-8.4447	-21.981863	-0.000209	-2.092139	-0.708836	0.017105
1790	8.9450e-01	-8.3966	-21.897621	0.000206	2.060757	0.698203	0.016848
1791	8.9500e-01	-8.3532	-21.808675	0.000218	2.175824	0.737189	0.017789
1792	8.9550e-01	-8.2843	-21.735124	0.000180	1.799239	0.609599	0.014710
1793	8.9600e-01	-8.2666	-21.641474	0.000229	2.290892	0.776175	0.018730
1794	8.9650e-01	-8.2474	-21.566212	0.000184	1.841082	0.623776	0.015052
1795	8.9700e-01	-8.1864	-21.479831	0.000211	2.113060	0.715924	0.017276
1796	8.9750e-01	-8.1351	-21.393023	0.000212	2.123521	0.719468	0.017362
1797	8.9800e-01	-8.1319	-21.309636	0.000204	2.039835	0.691115	0.016677
1798	8.9850e-01	-8.0725	-21.225394	0.000206	2.060757	0.698203	0.016848
1799	8.9900e-01	-8.0597	-21.140297	0.000208	2.081678	0.705292	0.017019
1800	8.9950e-01	-8.0276	-21.048357	0.000225	2.249049	0.761998	0.018388
1801	9.0000e-01	-7.9281	-20.967964	0.000197	1.966610	0.666306	0.016079
1802	9.0050e-01	-7.9041	-20.879873	0.000215	2.154903	0.730101	0.017618
1803	9.0100e-01	-7.8367	-20.793920	0.000210	2.102599	0.712380	0.017191
1804	9.0150e-01	-7.8383	-20.704547	-0.000219	-2.186285	-0.740733	0.017875
1805	9.0200e-01	-7.8046	-20.613463	0.000223	2.228128	0.754910	0.018217
1806	9.0250e-01	-7.7372	-20.532641	0.000198	1.977071	0.669850	0.016164
1807	9.0300e-01	-7.6955	-20.450537	0.000201	2.008453	0.680482	0.016421
1808	9.0350e-01	-7.6698	-20.364585	0.000210	2.102599	0.712380	0.017191
1809	9.0400e-01	-7.6506	-20.277777	0.000212	2.123521	0.719468	0.017362
1810	9.0450e-01	-7.5816	-20.194817	0.000203	2.029375	0.687571	0.016592
1811	9.0500e-01	-7.5591	-20.106299	0.000217	2.165364	0.733645	0.017704
1812	9.0550e-01	-7.4966	-20.016070	0.000221	2.207206	0.747822	0.018046
1813	9.0600e-01	-7.4629	-19.935676	0.000197	1.966610	0.666306	0.016079
1814	9.0650e-01	-7.4452	-19.853572	0.000201	2.008453	0.680482	0.016421
1815	9.0700e-01	-7.3971	-19.761633	0.000225	2.249049	0.761998	0.018388
1816	9.0750e-01	-7.3346	-19.676963	0.000207	2.071217	0.701747	0.016934
1817	9.0800e-01	-7.3089	-19.585879	0.000223	2.228128	0.754910	0.018217
1818	9.0850e-01	-7.2688	-19.508906	0.000188	1.882925	0.637952	0.015395
1819	9.0900e-01	-7.2094	-19.421671	0.000213	2.133982	0.723013	0.017447
1820	9.0950e-01	-7.1854	-19.332297	0.000219	2.186285	0.740733	0.017875
1821	9.1000e-01	-7.1565	-19.246772	0.000209	2.092139	0.708836	0.017105
1822	9.1050e-01	-7.0875	-19.161675	0.000208	2.081678	0.705292	0.017019
1823	9.1100e-01	-7.0650	-19.071873	0.000220	2.196746	0.744278	0.017960
1824	9.1150e-01	-7.0153	-18.992763	0.000194	1.935228	0.655673	0.015822
1825	9.1200e-01	-6.9961	-18.897830	0.000232	2.322274	0.786808	0.018987
1826	9.1250e-01	-6.9527	-18.816154	0.000200	1.997993	0.676938	0.016335
1827	9.1300e-01	-6.9191	-18.722504	0.000229	2.290892	0.776175	0.018730
1828	9.1350e-01	-6.8533	-18.636551	0.000210	2.102599	0.712380	0.017191
1829	9.1400e-01	-6.8164	-18.552309	0.000206	2.060757	0.698203	0.016848
1830	9.1450e-01	-6.7907	-18.459086	0.000228	2.280431	0.772631	0.018644
1831	9.1500e-01	-6.7811	-18.373989	0.000208	2.081678	0.705292	0.017019
1832	9.1550e-01	-6.7346	-18.284188	0.000220	2.196746	0.744278	0.017960
1833	9.1600e-01	-6.6993	-18.190110	0.000230	2.301353	0.779719	0.018816
1834	9.1650e-01	-6.6383	-18.102447	0.000214	2.144442	0.726557	0.017533
1835	9.1700e-01	-6.5902	-18.017777	0.000207	2.071217	0.701747	0.016934
1836	9.1750e-01	-6.5308	-17.933963	0.000205	2.050296	0.694659	0.016763
1837	9.1800e-01	-6.4955	-17.849720	0.000206	2.060757	0.698203	0.016848
1838	9.1850e-01	-6.4907	-17.753077	0.000236	2.364117	0.800984	0.019329
1839	9.1900e-01	-6.4362	-17.670545	0.000202	2.018914	0.684027	0.016506
1840	9.1950e-01	-6.4362	-17.564922	-0.000258	-2.583791	-0.875412	0.021125
1841	9.2000e-01	-6.3351	-17.496074	0.000168	1.684172	0.570613	0.013770
1842	9.2050e-01	-6.3191	-17.404135	0.000225	2.249049	0.761998	0.018388
1843	9.2100e-01	-6.2677	-17.314334	0.000220	2.196746	0.744278	0.017960
1844	9.2150e-01	-6.2228	-17.226243	0.000215	2.154903	0.730101	0.017618
1845	9.2200e-01	-6.1875	-17.137724	0.000217	2.165364	0.733645	0.017704
1846	9.2250e-01	-6.1266	-17.054337	0.000204	2.039835	0.691115	0.016677
1847	9.2300e-01	-6.1586	-16.954273	-0.000245	-2.447802	-0.829338	0.020013
1848	9.2350e-01	-6.0833	-16.871741	0.000202	2.018914	0.684027	0.016506
1849	9.2400e-01	-6.0512	-16.779802	0.000225	2.249049	0.761998	0.018388
1850	9.2450e-01	-6.0207	-16.695987	0.000205	2.050296	0.694659	0.016763
1851	9.2500e-01	-5.9276	-16.609179	0.000212	2.123521	0.719468	0.017362
1852	9.2550e-01	-5.9228	-16.522372	0.000212	2.123521	0.719468	0.017362
1853	9.2600e-01	-5.9036	-16.425728	0.000236	2.364117	0.800984	0.019329
1854	9.2650e-01	-5.8282	-16.344907	0.000198	1.977071	0.669850	0.016164
1855	9.2700e-01	-5.8073	-16.250830	0.000230	2.301353	0.779719	0.018816
1856	9.2750e-01	-5.7704	-16.163594	0.000213	2.133982	0.723013	0.017447
1857	9.2800e-01	-5.7464	-16.072937	0.000222	2.217667	0.751366	0.018131
1858	9.2850e-01	-5.6774	-15.982281	0.000222	2.217667	0.751366	0.018131
1859	9.2900e-01	-5.6244	-15.891624	0.000222	2.217667	0.751366	0.018131
1860	9.2950e-01	-5.6036	-15.807382	0.000206	2.060757	0.698203	0.016848
1861	9.3000e-01	-5.5555	-15.715015	0.000226	2.259510	0.765543	0.018473
1862	9.3050e-01	-5.5041	-15.621793	0.000228	2.280431	0.772631	0.018644
1863	9.3100e-01	-5.4624	-15.530281	0.000224	2.238588	0.758454	0.018302
1864	9.3150e-01	-5.4432	-15.434065	0.000235	2.353656	0.797440	0.019243
1865	9.3200e-01	-5.3966	-15.346402	0.000214	2.144442	0.726557	0.017533
1866	9.3250e-01	-5.3646	-15.250614	0.000234	2.343195	0.793896	0.019158
1867	9.3300e-01	-5.3068	-15.159957	0.000222	2.217667	0.751366	0.018131
1868	9.3350e-01	-5.2747	-15.071867	0.000215	2.154903	0.730101	0.017618
1869	9.3400e-01	-5.2346	-14.976079	0.000234	2.343195	0.793896	0.019158
1870	9.3450e-01	-5.2122	-14.887988	0.000215	2.154903	0.730101	0.017618
1871	9.3500e-01	-5.1592	-14.785785	0.000250	2.500106	0.847059	0.020440
1872	9.3550e-01	-5.1207	-14.704109	0.000200	1.997993	0.676938	0.016335
1873	9.3600e-01	-5.0565	-14.613025	0.000223	2.228128	0.754910	0.018217
1874	9.3650e-01	-5.0501	-14.517237	0.000234	2.343195	0.793896	0.019158
1875	9.3700e-01	-5.0068	-14.430429	0.000212	2.123521	0.719468	0.017362
1876	9.3750e-01	-4.9314	-14.338062	0.000226	2.259510	0.765543	0.018473
1877	9.3800e-01	-4.9218	-14.242701	0.000233	2.332735	0.790352	0.019072
1878	9.3850e-01	-4.8672	-14.153328	0.000219	2.186285	0.740733	0.017875
1879	9.3900e-01	-4.8271	-14.059678	0.000229	2.290892	0.776175	0.018730
1880	9.3950e-01	-4.8079	-13.969449	0.000221	2.207206	0.747822	0.018046
1881	9.4000e-01	-4.7774	-13.876654	0.000227	2.269971	0.769087	0.018559
1882	9.4050e-01	-4.7116	-13.787280	0.000219	2.186285	0.740733	0.017875
1883	9.4100e-01	-4.6731	-13.693630	0.000229	2.290892	0.776175	0.018730
1884	9.4150e-01	-4.6266	-13.600836	0.000227	2.269971	0.769087	0.018559
1885	9.4200e-01	-4.5673	-13.516166	0.000207	2.071217	0.701747	0.016934
1886	9.4250e-01	-4.5640	-13.423371	0.000227	2.269971	0.769087	0.018559
1887	9.4300e-01	-4.5175	-13.323734	0.000244	2.437342	0.825794	0.019927
1888	9.4350e-01	-4.4678	-13.230512	0.000228	2.280431	0.772631	0.018644
1889	9.4400e-01	-4.4020	-13.141994	0.000217	2.165364	0.733645	0.017704
1890	9.4450e-01	-4.4084	-13.046206	-0.000234	-2.343195	-0.793896	0.019158
1891	9.4500e-01	-4.3747	-12.955549	0.000222	2.217667	0.751366	0.018131
1892	9.4550e-01	-4.3170	-12.858051	0.000239	2.385038	0.808073	0.019500
1893	9.4600e-01	-4.2544	-12.762690	0.000233	2.332735	0.790352	0.019072
1894	9.4650e-01	-4.2320	-12.673316	0.000219	2.186285	0.740733	0.017875
1895	9.4700e-01	-4.1694	-12.581377	0.000225	2.249049	0.761998	0.018388
1896	9.4750e-01	-4.1437	-12.478747	0.000251	2.510567	0.850603	0.020526
1897	9.4800e-01	-4.1229	-12.382104	0.000236	2.364117	0.800984	0.019329
1898	9.4850e-01	-4.0635	-12.300427	0.000200	1.997993	0.676938	0.016335
1899	9.4900e-01	-4.0250	-12.203784	0.000236	2.364117	0.800984	0.019329
1900	9.4950e-01	-4.0186	-12.098160	0.000258	2.583791	0.875412	0.021125
1901	9.5000e-01	-3.9528	-11.999807	0.000241	2.405960	0.815161	0.019671
1902	9.5050e-01	-3.9320	-11.912571	0.000213	2.133982	0.723013	0.017447
1903	9.5100e-01	-3.8630	-11.823625	0.000218	2.175824	0.737189	0.017789
1904	9.5150e-01	-3.8453	-11.728265	0.000233	2.332735	0.790352	0.019072
1905	9.5200e-01	-3.7892	-11.635898	0.000226	2.259510	0.765543	0.018473
1906	9.5250e-01	-3.7555	-11.543530	0.000226	2.259510	0.765543	0.018473
1907	9.5300e-01	-3.7266	-11.434914	0.000266	2.657016	0.900221	0.021723
1908	9.5350e-01	-3.6978	-11.348533	0.000211	2.113060	0.715924	0.017276
1909	9.5400e-01	-3.6272	-11.257449	0.000223	2.228128	0.754910	0.018217
1910	9.5450e-01	-3.5774	-11.159095	0.000241	2.405960	0.815161	0.019671
1911	9.5500e-01	-3.5486	-11.058176	0.000247	2.468724	0.836426	0.020184
1912	9.5550e-01	-3.5197	-10.954263	0.000254	2.541949	0.861236	0.020783
1913	9.5600e-01	-3.4684	-10.861896	0.000226	2.259510	0.765543	0.018473
1914	9.5650e-01	-3.4234	-10.774233	0.000214	2.144442	0.726557	0.017533
1915	9.5700e-01	-3.4138	-10.679727	0.000231	2.311813	0.783264	0.018901
1916	9.5750e-01	-3.3192	-10.591637	0.000215	2.154903	0.730101	0.017618
1917	9.5800e-01	-3.2951	-10.492428	0.000243	2.426881	0.822250	0.019842
1918	9.5850e-01	-3.2678	-10.387659	0.000256	2.562870	0.868324	0.020954
1919	9.5900e-01	-3.2357	-10.288450	0.000243	2.426881	0.822250	0.019842
1920	9.5950e-01	-3.2037	-10.196511	0.000225	2.249049	0.761998	0.018388
1921	9.6000e-01	-3.1539	-10.100723	0.000234	2.343195	0.793896	0.019158
1922	9.6050e-01	-3.1010	-10.006645	0.000230	2.301353	0.779719	0.018816
1923	9.6100e-01	-3.0801	-9.907009	0.000244	2.437342	0.825794	0.019927
1924	9.6150e-01	-3.0304	-9.805234	0.000249	2.489645	0.843515	0.020355
1925	9.6200e-01	-2.9983	-9.706452	0.000242	2.416420	0.818705	0.019756
1926	9.6250e-01	-2.9775	-9.608098	0.000241	2.405960	0.815161	0.019671
1927	9.6300e-01	-2.9117	-9.510600	0.000239	2.385038	0.808073	0.019500
1928	9.6350e-01	-2.8956	-9.413101	0.000239	2.385038	0.808073	0.019500
1929	9.6400e-01	-2.8010	-9.320734	0.000226	2.259510	0.765543	0.018473
1930	9.6450e-01	-2.8106	-9.218532	-0.000250	-2.500106	-0.847059	0.020440
1931	9.6500e-01	-2.7657	-9.125737	0.000227	2.269971	0.769087	0.018559
1932	9.6550e-01	-2.7336	-9.029949	0.000234	2.343195	0.793896	0.019158
1933	9.6600e-01	-2.6967	-8.925181	0.000256	2.562870	0.868324	0.020954
1934	9.6650e-01	-2.6358	-8.836235	0.000218	2.175824	0.737189	0.017789
1935	9.6700e-01	-2.5940	-8.733177	0.000252	2.521027	0.854147	0.020612
1936	9.6750e-01	-2.5604	-8.630119	0.000252	2.521027	0.854147	0.020612
1937	9.6800e-01	-2.5186	-8.537752	0.000226	2.259510	0.765543	0.018473
1938	9.6850e-01	-2.4898	-8.436405	0.000248	2.479184	0.839970	0.020269
1939	9.6900e-01	-2.4192	-8.341900	0.000231	2.311813	0.783264	0.018901
1940	9.6950e-01	-2.3791	-8.241836	0.000245	2.447802	0.829338	0.020013
1941	9.7000e-01	-2.3807	-8.138350	-0.000253	-2.531488	-0.857691	0.020697
1942	9.7050e-01	-2.3310	-8.037858	0.000246	2.458263	0.832882	0.020098
1943	9.7100e-01	-2.2588	-7.939932	0.000240	2.395499	0.811617	0.019585
1944	9.7150e-01	-2.2138	-7.843717	0.000235	2.353656	0.797440	0.019243
1945	9.7200e-01	-2.1641	-7.738093	0.000258	2.583791	0.875412	0.021125
1946	9.7250e-01	-2.1368	-7.644443	0.000229	2.290892	0.776175	0.018730
1947	9.7300e-01	-2.1272	-7.536682	0.000264	2.636095	0.893133	0.021552
1948	9.7350e-01	-2.0871	-7.438328	0.000241	2.405960	0.815161	0.019671
1949	9.7400e-01	-2.0438	-7.337836	0.000246	2.458263	0.832882	0.020098
1950	9.7450e-01	-2.0165	-7.237772	0.000245	2.447802	0.829338	0.020013
1951	9.7500e-01	-1.9716	-7.134286	0.000253	2.531488	0.857691	0.020697
1952	9.7550e-01	-1.9042	-7.039353	0.000232	2.322274	0.786808	0.018987
1953	9.7600e-01	-1.8609	-6.937151	0.000250	2.500106	0.847059	0.020440
1954	9.7650e-01	-1.8449	-6.826824	0.000270	2.698859	0.914398	0.022065
1955	9.7700e-01	-1.7855	-6.731463	0.000233	2.332735	0.790352	0.019072
1956	9.7750e-01	-1.7550	-6.627123	0.000255	2.552409	0.864780	0.020868
1957	9.7800e-01	-1.7310	-6.523210	0.000254	2.541949	0.861236	0.020783
1958	9.7850e-01	-1.6941	-6.424428	0.000242	2.416420	0.818705	0.019756
1959	9.7900e-01	-1.6171	-6.322226	0.000250	2.500106	0.847059	0.020440
1960	9.7950e-01	-1.6090	-6.222162	0.000245	2.447802	0.829338	0.020013
1961	9.8000e-01	-1.5417	-6.119959	0.000250	2.500106	0.847059	0.020440
1962	9.8050e-01	-1.5016	-6.022888	0.000237	2.374578	0.804529	0.019414
1963	9.8100e-01	-1.4775	-5.919403	0.000253	2.531488	0.857691	0.020697
1964	9.8150e-01	-1.4117	-5.816345	0.000252	2.521027	0.854147	0.020612
1965	9.8200e-01	-1.4165	-5.711149	-0.000257	-2.573331	-0.871868	0.021039
1966	9.8250e-01	-1.3588	-5.610230	0.000247	2.468724	0.836426	0.020184
1967	9.8300e-01	-1.3107	-5.506744	0.000253	2.531488	0.857691	0.020697
1968	9.8350e-01	-1.2754	-5.401121	0.000258	2.583791	0.875412	0.021125
1969	9.8400e-01	-1.2288	-5.299346	0.000249	2.489645	0.843515	0.020355
1970	9.8450e-01	-1.1903	-5.204413	0.000232	2.322274	0.786808	0.018987
1971	9.8500e-01	-1.1631	-5.086389	0.000289	2.887152	0.978193	0.023605
1972	9.8550e-01	-1.1182	-4.990601	0.000234	2.343195	0.793896	0.019158
1973	9.8600e-01	-1.0813	-4.890964	0.000244	2.437342	0.825794	0.019927
1974	9.8650e-01	-1.0540	-4.780209	0.000271	2.709320	0.917942	0.022151
1975	9.8700e-01	-0.9898	-4.678007	0.000250	2.500106	0.847059	0.020440
1976	9.8750e-01	-0.9401	-4.579653	0.000241	2.405960	0.815161	0.019671
1977	9.8800e-01	-0.8952	-4.472319	0.000263	2.625634	0.889589	0.021467
1978	9.8850e-01	-0.8759	-4.373965	0.000241	2.405960	0.815161	0.019671
1979	9.8900e-01	-0.8294	-4.265348	0.000266	2.657016	0.900221	0.021723
1980	9.8950e-01	-0.8021	-4.164429	0.000247	2.468724	0.836426	0.020184
1981	9.9000e-01	-0.7620	-4.058378	0.000259	2.594252	0.878956	0.021210
1982	9.9050e-01	-0.6962	-3.951899	0.000260	2.604713	0.882501	0.021296
1983	9.9100e-01	-0.6818	-3.846703	0.000257	2.573331	0.871868	0.021039
1984	9.9150e-01	-0.6321	-3.732527	0.000279	2.793005	0.946296	0.022835
1985	9.9200e-01	-0.6160	-3.632891	0.000244	2.437342	0.825794	0.019927
1986	9.9250e-01	-0.5599	-3.527267	0.000258	2.583791	0.875412	0.021125
1987	9.9300e-01	-0.5150	-3.419506	0.000264	2.636095	0.893133	0.021552
1988	9.9350e-01	-0.4941	-3.321579	0.000240	2.395499	0.811617	0.019585
1989	9.9400e-01	-0.4396	-3.216384	0.000257	2.573331	0.871868	0.021039
1990	9.9450e-01	-0.3995	-3.111615	0.000256	2.562870	0.868324	0.020954
1991	9.9500e-01	-0.3449	-3.010268	0.000248	2.479184	0.839970	0.020269
1992	9.9550e-01	-0.3128	-2.905928	0.000255	2.552409	0.864780	0.020868
1993	9.9600e-01	-0.2551	-2.797311	0.000266	2.657016	0.900221	0.021723
1994	9.9650e-01	-0.2326	-2.696819	0.000246	2.458263	0.832882	0.020098
1995	9.9700e-01	-0.2086	-2.589057	0.000264	2.636095	0.893133	0.021552
1996	9.9750e-01	-0.1893	-2.478302	0.000271	2.709320	0.917942	0.022151
1997	9.9800e-01	-0.1043	-2.374389	0.000254	2.541949	0.861236	0.020783
1998	9.9850e-01	-0.0706	-2.266628	0.000264	2.636095	0.893133	0.021552
1999	9.9900e-01	-0.0449	-2.162715	0.000254	2.541949	0.861236	0.020783
2000	9.9950e-01	-0.0128	-2.049394	0.000277	2.772084	0.939207	0.022664
2001	1.0000e+00	0.0497	-1.950613	0.000277	2.772084	0.939207	0.019756

Center data before PMax,+/-Pr and +/-Vc Calc.

PMax (uC/cm2):	4.29e+01
Pr (uC/cm2):	3.78e-01
-Pr (uC/cm2):	-1.95e+00
PLoss (uC/cm2):	-1.05e+00
Vc:	5.72e-01
-Vc:	-1.45e-01
C (Max-Eff) (nF):	2.14e-01
K (Eff):	7.26e+02
Vert. (+/-Pr) Shift (uC/cm2):	-7.86e-01
Horiz. Shift (+/-Vc):	2.13e-01
Offset (uC/cm2):	9.06e-01

A (Loop Area - uC/cm2·Volts):	4.35e-02



Hysteresis Version: 5.48.1 - Radiant Technologies, Inc., 1999 - 9/12/24

