»»»»»»»»»»»»»»»»»»»»»»»»»»»»»»»»»»»» Hysteresis ««««««««««««««««««««««««««««««««««««
»»»  Executed Version:	5.48.1
»»»  Vision Version:	5.48.4 (R)
»»»  Vision Compiled:	9/18/24
»»»  Driver Version:	5.47.0
»»»  Windows Version:	Windows 8 or 8.1
»»»  Processor Information:	x86 (AMD or Intel) - 32 Processors
»»»  Tester Name:	PMF21124-494 (100V)
»»»  Tester S/N:	PMF21124-494
»»»  Internal Amp Type:	100V RevK 270k
»»»  Internal Amp S/N:	iAB2-596/K     
»»»  Execution Count:	1
»»»»»»»»»»»»»»»»»»»»»»»»»»»»»»»»»»»»»»»»»»««««««««««««««««««««««««««««««««««««««««««

Stored:	6/6/2025 - 16:13:48
Configured:	06/06/25 01:57:07 PM
Executed:	06/06/25 04:13:07 PM

»»»»»»»»»»»»»»»»»»»»»»»»»»»»»»»»»»» Sample Info ««««««««««««««««««««««««««««««««««««
Sample Name:	
Lot Name:	
Wafer Name:	
Die Row/Column:	0/0
Capacitor Number:	0
Sample Area (cm2):	1.00e-04
Sample Thickness (microns):	3.00e-01

Amplifier:	Internal

»»»»»»»»»»»»»»»»»»»»»»»»»»»»»»»»»»» Tester Info «««««««««««««««««««««««««««««««««««
Tester Name:	PMF21124-494 (100V)
Tester Serial Number:	PMF21124-494
Return Signal Amp. Level:	1.79 [Index: 2]

»»»»»»»»»»»»»»»»»»»»»»»»»»»»»»»» Hysteresis Info ««««««««««««««««««««««««««««««««««
Task Name:	Hyst-501
Volts:	20.00
Field:	666.67 (kV/cm)
DCBias:	0.00
DCField:	0.00 (kV/cm)
Hysteresis Period (ms):	1.00e+00
Preset:	Enabled
Preset Delay (ms):	1.00e+03
Profile:	Standard Bipolar

»»»»»»»»»»»»»»»»»»»»»»»»»»»»»»»»»»»»»» Data «««««««««««««««««««««««««««««««««««««««
Points:	2001

Valid Data

Point	Time (ms)	Drive Voltage	Measured Polarization (uC/cm2)	Capacitance (uF)	Normalized Capacitance (uF/cm2)	Dielectric Constant	Instantaneous Current (mA)
   1	0.0000e+00	0.0401	-1.042123	0.000301	3.013483	1.020996	0.024631
   2	5.0000e-04	0.0481	-0.918967	0.000301	3.013483	1.020996	0.024631
   3	1.0000e-03	0.1283	-0.934361	-0.000038	-0.376685	-0.127624	-0.003079
   4	1.5000e-03	0.1652	-0.827883	0.000261	2.605407	0.882736	0.021296
   5	2.0000e-03	0.1893	-0.672227	0.000381	3.808707	1.290425	0.031131
   6	2.5000e-03	0.2262	-0.599531	0.000178	1.778792	0.602671	0.014539
   7	3.0000e-03	0.2759	-0.513578	0.000210	2.103160	0.712570	0.017191
   8	3.5000e-03	0.3048	-0.391705	0.000298	2.982092	1.010360	0.024375
   9	4.0000e-03	0.3449	-0.297200	0.000231	2.312429	0.783472	0.018901
  10	4.5000e-03	0.3978	-0.206543	0.000222	2.218258	0.751566	0.018131
  11	5.0000e-03	0.4364	-0.095360	0.000272	2.720505	0.921732	0.022237
  12	5.5000e-03	0.4732	-0.016250	0.000194	1.935744	0.655848	0.015822
  13	6.0000e-03	0.5118	0.107334	0.000302	3.023946	1.024541	0.024717
  14	6.5000e-03	0.5454	0.226641	0.000292	2.919311	0.989089	0.023861
  15	7.0000e-03	0.6000	0.253582	0.000066	0.659199	0.223343	0.005388
  16	7.5000e-03	0.6529	0.379304	0.000308	3.076264	1.042266	0.025144
  17	8.0000e-03	0.6690	0.520848	0.000346	3.463412	1.173436	0.028309
  18	8.5000e-03	0.7299	0.632885	0.000274	2.741432	0.928822	0.022408
  19	9.0000e-03	0.7732	0.701733	0.000168	1.684621	0.570765	0.013770
  20	9.5000e-03	0.7941	0.815481	0.000278	2.783286	0.943003	0.022750
  21	1.0000e-02	0.8358	0.916401	0.000247	2.469382	0.836649	0.020184
  22	1.0500e-02	0.8615	1.057945	0.000346	3.463412	1.173436	0.028309
  23	1.1000e-02	0.9641	1.101135	0.000106	1.056812	0.358057	0.008638
  24	1.1500e-02	0.9433	1.215311	-0.000279	-2.793750	-0.946548	0.022835
  25	1.2000e-02	1.0171	1.302119	0.000212	2.124087	0.719660	0.017362
  26	1.2500e-02	1.0428	1.441952	0.000342	3.421558	1.159255	0.027967
  27	1.3000e-02	1.1214	1.494550	0.000129	1.287008	0.436050	0.010520
  28	1.3500e-02	1.1294	1.659186	0.000403	4.028440	1.364873	0.032927
  29	1.4000e-02	1.1486	1.748132	0.000218	2.176404	0.737386	0.017789
  30	1.4500e-02	1.2160	1.823822	0.000185	1.852036	0.627487	0.015138
  31	1.5000e-02	1.2465	1.964083	0.000343	3.432022	1.162800	0.028052
  32	1.5500e-02	1.2673	2.028654	0.000158	1.579986	0.535314	0.012914
  33	1.6000e-02	1.3235	2.162929	0.000329	3.285533	1.113169	0.026855
  34	1.6500e-02	1.3556	2.238191	0.000184	1.841573	0.623942	0.015052
  35	1.7000e-02	1.4181	2.356215	0.000289	2.887921	0.978454	0.023605
  36	1.7500e-02	1.4101	2.466543	-0.000270	-2.699578	-0.914642	0.022065
  37	1.8000e-02	1.4871	2.543943	0.000189	1.893890	0.641667	0.015480
  38	1.8500e-02	1.5336	2.649566	0.000258	2.584480	0.875645	0.021125
  39	1.9000e-02	1.5738	2.760321	0.000271	2.710042	0.918187	0.022151
  40	1.9500e-02	1.5834	2.869793	0.000268	2.678651	0.907552	0.021894
  41	2.0000e-02	1.6347	2.942062	0.000177	1.768328	0.599126	0.014454
  42	2.0500e-02	1.6973	3.061797	0.000293	2.929775	0.992635	0.023947
  43	2.1000e-02	1.7213	3.166138	0.000255	2.553089	0.865010	0.020868
  44	2.1500e-02	1.7438	3.299129	0.000325	3.254143	1.102533	0.026598
  45	2.2000e-02	1.7967	3.382088	0.000203	2.029915	0.687754	0.016592
  46	2.2500e-02	1.8481	3.494554	0.000275	2.751896	0.932367	0.022493
  47	2.3000e-02	1.9187	3.560836	0.000162	1.621840	0.549494	0.013256
  48	2.3500e-02	1.9203	3.697676	0.000335	3.348314	1.134440	0.027368
  49	2.4000e-02	1.9556	3.798595	0.000247	2.469382	0.836649	0.020184
  50	2.4500e-02	2.0085	3.871292	0.000178	1.778792	0.602671	0.014539
  51	2.5000e-02	2.0278	3.999579	0.000314	3.139044	1.063537	0.025658
  52	2.5500e-02	2.0550	4.117176	0.000288	2.877457	0.974909	0.023519
  53	2.6000e-02	2.1144	4.231780	0.000280	2.804213	0.950093	0.022921
  54	2.6500e-02	2.1705	4.311746	0.000196	1.956671	0.662938	0.015993
  55	2.7000e-02	2.1930	4.395988	0.000206	2.061306	0.698389	0.016848
  56	2.7500e-02	2.2459	4.492204	0.000235	2.354283	0.797653	0.019243
  57	2.8000e-02	2.2989	4.568748	0.000187	1.872963	0.634577	0.015309
  58	2.8500e-02	2.3454	4.662398	0.000229	2.291502	0.776382	0.018730
  59	2.9000e-02	2.3614	4.828317	0.000406	4.059831	1.375508	0.033184
  60	2.9500e-02	2.4272	4.869797	0.000101	1.014958	0.343877	0.008296
  61	3.0000e-02	2.4384	4.994236	0.000304	3.044873	1.031631	0.024888
  62	3.0500e-02	2.4625	5.164858	0.000417	4.174929	1.414504	0.034124
  63	3.1000e-02	2.5475	5.172555	0.000019	0.188343	0.063812	0.001539
  64	3.1500e-02	2.5748	5.302981	0.000319	3.191362	1.081263	0.026085
  65	3.2000e-02	2.6117	5.400907	0.000240	2.396137	0.811833	0.019585
  66	3.2500e-02	2.6454	5.517221	0.000285	2.846067	0.964274	0.023263
  67	3.3000e-02	2.6887	5.584358	0.000164	1.642767	0.556584	0.013427
  68	3.3500e-02	2.6967	5.721199	0.000335	3.348314	1.134440	0.027368
  69	3.4000e-02	2.7625	5.803730	0.000202	2.019452	0.684209	0.016506
  70	3.4500e-02	2.7978	5.898235	0.000231	2.312429	0.783472	0.018901
  71	3.5000e-02	2.8202	6.048332	0.000367	3.672682	1.244338	0.030019
  72	3.5500e-02	2.8892	6.084252	0.000088	0.878932	0.297790	0.007184
  73	3.6000e-02	2.9357	6.159942	0.000185	1.852036	0.627487	0.015138
  74	3.6500e-02	2.9678	6.280532	0.000295	2.950702	0.999725	0.024118
  75	3.7000e-02	3.0192	6.343821	0.000155	1.548595	0.524678	0.012658
  76	3.7500e-02	3.0176	6.506746	-0.000399	-3.986586	-1.350692	0.032585
  77	3.8000e-02	3.0849	6.587567	0.000198	1.977598	0.670028	0.016164
  78	3.8500e-02	3.1186	6.688487	0.000247	2.469382	0.836649	0.020184
  79	3.9000e-02	3.1700	6.797959	0.000268	2.678651	0.907552	0.021894
  80	3.9500e-02	3.2069	6.862103	0.000157	1.569522	0.531769	0.012829
  81	4.0000e-02	3.2438	7.010061	0.000362	3.620365	1.226613	0.029592
  82	4.0500e-02	3.2678	7.126375	0.000285	2.846067	0.964274	0.023263
  83	4.1000e-02	3.3416	7.165289	0.000095	0.952177	0.322606	0.007783
  84	4.1500e-02	3.3609	7.299136	0.000328	3.275070	1.109624	0.026769
  85	4.2000e-02	3.3930	7.338905	0.000097	0.973104	0.329696	0.007954
  86	4.2500e-02	3.4523	7.458640	0.000293	2.929775	0.992635	0.023947
  87	4.3000e-02	3.4908	7.556566	0.000240	2.396137	0.811833	0.019585
  88	4.3500e-02	3.5149	7.698965	0.000348	3.484339	1.180526	0.028480
  89	4.4000e-02	3.5662	7.768241	0.000170	1.695084	0.574310	0.013855
  90	4.4500e-02	3.5983	7.886265	0.000289	2.887921	0.978454	0.023605
  91	4.5000e-02	3.6320	7.998731	0.000275	2.751896	0.932367	0.022493
  92	4.5500e-02	3.7170	8.043204	0.000109	1.088202	0.368693	0.008895
  93	4.6000e-02	3.7154	8.172347	-0.000316	-3.159971	-1.070627	0.025829
  94	4.6500e-02	3.7523	8.303200	0.000320	3.201825	1.084808	0.026171
  95	4.7000e-02	3.8020	8.353232	0.000122	1.224227	0.414779	0.010006
  96	4.7500e-02	3.8213	8.447310	0.000230	2.301966	0.779927	0.018816
  97	4.8000e-02	3.8598	8.582439	0.000331	3.306460	1.120259	0.027026
  98	4.8500e-02	3.9191	8.620926	0.000094	0.941713	0.319061	0.007697
  99	4.9000e-02	3.9464	8.750924	0.000318	3.180898	1.077718	0.026000
 100	4.9500e-02	3.9977	8.826186	0.000184	1.841573	0.623942	0.015052
 101	5.0000e-02	4.0411	8.944210	0.000289	2.887921	0.978454	0.023605
 102	5.0500e-02	4.0491	9.061380	0.000287	2.866994	0.971364	0.023434
 103	5.1000e-02	4.1149	9.147760	0.000211	2.113623	0.716115	0.017276
 104	5.1500e-02	4.1518	9.244403	0.000236	2.364747	0.801198	0.019329
 105	5.2000e-02	4.2095	9.312823	0.000167	1.674157	0.567220	0.013684
 106	5.2500e-02	4.2416	9.424861	0.000274	2.741432	0.928822	0.022408
 107	5.3000e-02	4.2833	9.509531	0.000207	2.071769	0.701934	0.016934
 108	5.3500e-02	4.3074	9.601898	0.000226	2.260112	0.765747	0.018473
 109	5.4000e-02	4.3459	9.686568	0.000207	2.071769	0.701934	0.016934
 110	5.4500e-02	4.3876	9.806303	0.000293	2.929775	0.992635	0.023947
 111	5.5000e-02	4.4293	9.908505	0.000250	2.500772	0.847285	0.020440
 112	5.5500e-02	4.4694	9.993603	0.000208	2.082233	0.705480	0.017019
 113	5.6000e-02	4.5223	10.085114	0.000224	2.239185	0.758656	0.018302
 114	5.6500e-02	4.5753	10.204422	0.000292	2.919311	0.989089	0.023861
 115	5.7000e-02	4.6009	10.278401	0.000181	1.810182	0.613306	0.014796
 116	5.7500e-02	4.6202	10.397281	0.000291	2.908848	0.985544	0.023776
 117	5.8000e-02	4.7020	10.451162	0.000132	1.318399	0.446686	0.010776
 118	5.8500e-02	4.7229	10.526424	0.000184	1.841573	0.623942	0.015052
 119	5.9000e-02	4.7726	10.642310	0.000284	2.835603	0.960728	0.023177
 120	5.9500e-02	4.7999	10.726552	0.000206	2.061306	0.698389	0.016848
 121	6.0000e-02	4.8512	10.857406	0.000320	3.201825	1.084808	0.026171
 122	6.0500e-02	4.8753	10.944214	0.000212	2.124087	0.719660	0.017362
 123	6.1000e-02	4.9250	11.043850	0.000244	2.437991	0.826014	0.019927
 124	6.1500e-02	4.9811	11.092172	0.000118	1.182373	0.400599	0.009664
 125	6.2000e-02	4.9811	11.216611	-0.000304	-3.044873	-1.031631	0.024888
 126	6.2500e-02	5.0293	11.296149	0.000195	1.946208	0.659393	0.015908
 127	6.3000e-02	5.0870	11.368846	0.000178	1.778792	0.602671	0.014539
 128	6.3500e-02	5.1143	11.531343	0.000398	3.976123	1.347147	0.032500
 129	6.4000e-02	5.1929	11.580948	0.000121	1.213764	0.411234	0.009921
 130	6.4500e-02	5.1913	11.702393	-0.000297	-2.971629	-1.006815	0.024289
 131	6.5000e-02	5.2362	11.762688	0.000148	1.475351	0.499862	0.012059
 132	6.5500e-02	5.2715	11.869595	0.000262	2.615870	0.886281	0.021381
 133	6.6000e-02	5.3228	11.986764	0.000287	2.866994	0.971364	0.023434
 134	6.6500e-02	5.3613	12.038934	0.000128	1.276545	0.432505	0.010434
 135	6.7000e-02	5.3918	12.180478	0.000346	3.463412	1.173436	0.028309
 136	6.7500e-02	5.4672	12.206991	0.000065	0.648736	0.219798	0.005303
 137	6.8000e-02	5.4528	12.375475	-0.000412	-4.122612	-1.396779	0.033697
 138	6.8500e-02	5.5362	12.447316	0.000176	1.757865	0.595581	0.014368
 139	6.9000e-02	5.5619	12.526427	0.000194	1.935744	0.655848	0.015822
 140	6.9500e-02	5.5972	12.606393	0.000196	1.956671	0.662938	0.015993
 141	7.0000e-02	5.6325	12.769318	0.000399	3.986586	1.350692	0.032585
 142	7.0500e-02	5.6645	12.793265	0.000059	0.585955	0.198527	0.004789
 143	7.1000e-02	5.7191	12.878363	0.000208	2.082233	0.705480	0.017019
 144	7.1500e-02	5.7672	13.000236	0.000298	2.982092	1.010360	0.024375
 145	7.2000e-02	5.8025	13.072932	0.000178	1.778792	0.602671	0.014539
 146	7.2500e-02	5.8538	13.153753	0.000198	1.977598	0.670028	0.016164
 147	7.3000e-02	5.8763	13.255101	0.000248	2.479845	0.840194	0.020269
 148	7.3500e-02	5.9196	13.364573	0.000268	2.678651	0.907552	0.021894
 149	7.4000e-02	5.9645	13.430427	0.000161	1.611376	0.545949	0.013171
 150	7.4500e-02	5.9886	13.570260	0.000342	3.421558	1.159255	0.027967
 151	7.5000e-02	6.0528	13.620293	0.000122	1.224227	0.414779	0.010006
 152	7.5500e-02	6.0672	13.714798	0.000231	2.312429	0.783472	0.018901
 153	7.6000e-02	6.1218	13.835388	0.000295	2.950702	0.999725	0.024118
 154	7.6500e-02	6.1939	13.876440	0.000100	1.004494	0.340332	0.008210
 155	7.7000e-02	6.1843	13.982491	-0.000259	-2.594943	-0.879191	0.021210
 156	7.7500e-02	6.2260	14.093674	0.000272	2.720505	0.921732	0.022237
 157	7.8000e-02	6.3094	14.164660	0.000174	1.736938	0.588490	0.014197
 158	7.8500e-02	6.2998	14.298934	-0.000329	-3.285533	-1.113169	0.026855
 159	7.9000e-02	6.3463	14.363933	0.000159	1.590449	0.538859	0.013000
 160	7.9500e-02	6.4121	14.436202	0.000177	1.768328	0.599126	0.014454
 161	8.0000e-02	6.4426	14.543963	0.000264	2.636797	0.893371	0.021552
 162	8.0500e-02	6.4795	14.623502	0.000195	1.946208	0.659393	0.015908
 163	8.1000e-02	6.4747	14.783861	-0.000392	-3.923806	-1.329421	0.032072
 164	8.1500e-02	6.5934	14.758631	-0.000062	-0.617345	-0.209162	-0.005046
 165	8.2000e-02	6.5886	14.919418	-0.000393	-3.934269	-1.332966	0.032157
 166	8.2500e-02	6.6287	15.008792	0.000219	2.186868	0.740931	0.017875
 167	8.3000e-02	6.6880	15.094745	0.000210	2.103160	0.712570	0.017191
 168	8.3500e-02	6.7217	15.151191	0.000138	1.381180	0.467956	0.011289
 169	8.4000e-02	6.7394	15.244841	0.000229	2.291502	0.776382	0.018730
 170	8.4500e-02	6.8003	15.369280	0.000304	3.044873	1.031631	0.024888
 171	8.5000e-02	6.8388	15.433851	0.000158	1.579986	0.535314	0.012914
 172	8.5500e-02	6.8902	15.520232	0.000211	2.113623	0.716115	0.017276
 173	8.6000e-02	6.9062	15.615592	0.000233	2.333356	0.790563	0.019072
 174	8.6500e-02	6.9592	15.690854	0.000184	1.841573	0.623942	0.015052
 175	8.7000e-02	7.0073	15.783221	0.000226	2.260112	0.765747	0.018473
 176	8.7500e-02	7.0538	15.892693	0.000268	2.678651	0.907552	0.021894
 177	8.8000e-02	7.0682	15.996179	0.000253	2.532162	0.857920	0.020697
 178	8.8500e-02	7.1420	16.081704	0.000209	2.092696	0.709025	0.017105
 179	8.9000e-02	7.1661	16.121045	0.000096	0.962640	0.326151	0.007868
 180	8.9500e-02	7.1966	16.233083	0.000274	2.741432	0.928822	0.022408
 181	9.0000e-02	7.2463	16.320319	0.000213	2.134550	0.723205	0.017447
 182	9.0500e-02	7.2784	16.390449	0.000172	1.716011	0.581400	0.014026
 183	9.1000e-02	7.3041	16.508046	0.000288	2.877457	0.974909	0.023519
 184	9.1500e-02	7.3586	16.607683	0.000244	2.437991	0.826014	0.019927
 185	9.2000e-02	7.3971	16.668833	0.000150	1.496278	0.506953	0.012230
 186	9.2500e-02	7.4340	16.762483	0.000229	2.291502	0.776382	0.018730
 187	9.3000e-02	7.4837	16.872383	0.000269	2.689115	0.911097	0.021980
 188	9.3500e-02	7.5319	16.904882	0.000080	0.795225	0.269429	0.006500
 189	9.4000e-02	7.5736	17.061393	0.000383	3.829634	1.297515	0.031302
 190	9.4500e-02	7.6041	17.117412	0.000137	1.370716	0.464411	0.011204
 191	9.5000e-02	7.6345	17.213628	0.000235	2.354283	0.797653	0.019243
 192	9.5500e-02	7.6634	17.315403	0.000249	2.490309	0.843739	0.020355
 193	9.6000e-02	7.7356	17.409908	0.000231	2.312429	0.783472	0.018901
 194	9.6500e-02	7.7308	17.504413	-0.000231	-2.312429	-0.783472	0.018901
 195	9.7000e-02	7.7982	17.581813	0.000189	1.893890	0.641667	0.015480
 196	9.7500e-02	7.8303	17.635694	0.000132	1.318399	0.446686	0.010776
 197	9.8000e-02	7.8816	17.749015	0.000277	2.772823	0.939458	0.022664
 198	9.8500e-02	7.9105	17.835823	0.000212	2.124087	0.719660	0.017362
 199	9.9000e-02	7.9506	17.909802	0.000181	1.810182	0.613306	0.014796
 200	9.9500e-02	8.0099	17.983353	0.000180	1.799719	0.609761	0.014710
 201	1.0000e-01	8.0404	18.099240	0.000284	2.835603	0.960728	0.023177
 202	1.0050e-01	8.0950	18.194173	0.000232	2.322893	0.787017	0.018987
 203	1.0100e-01	8.1174	18.282691	0.000217	2.165941	0.733841	0.017704
 204	1.0150e-01	8.1752	18.328447	0.000112	1.119593	0.379328	0.009151
 205	1.0200e-01	8.1976	18.446044	0.000288	2.877457	0.974909	0.023519
 206	1.0250e-01	8.2137	18.552950	0.000262	2.615870	0.886281	0.021381
 207	1.0300e-01	8.3019	18.567062	0.000035	0.345295	0.116989	0.002822
 208	1.0350e-01	8.3356	18.668837	0.000249	2.490309	0.843739	0.020355
 209	1.0400e-01	8.3484	18.783868	0.000281	2.814676	0.953638	0.023006
 210	1.0450e-01	8.4062	18.859557	0.000185	1.852036	0.627487	0.015138
 211	1.0500e-01	8.4527	18.939523	0.000196	1.956671	0.662938	0.015993
 212	1.0550e-01	8.5008	19.012220	0.000178	1.778792	0.602671	0.014539
 213	1.0600e-01	8.5329	19.074653	0.000153	1.527668	0.517588	0.012487
 214	1.0650e-01	8.5698	19.222611	0.000362	3.620365	1.226613	0.029592
 215	1.0700e-01	8.6067	19.310275	0.000215	2.145014	0.726750	0.017533
 216	1.0750e-01	8.6580	19.377839	0.000165	1.653230	0.560130	0.013513
 217	1.0800e-01	8.6548	19.458660	-0.000198	-1.977598	-0.670028	0.016164
 218	1.0850e-01	8.7030	19.599777	0.000345	3.452949	1.169891	0.028223
 219	1.0900e-01	8.7719	19.624151	0.000060	0.596418	0.202072	0.004875
 220	1.0950e-01	8.8040	19.758426	0.000329	3.285533	1.113169	0.026855
 221	1.1000e-01	8.8489	19.839675	0.000199	1.988061	0.673573	0.016250
 222	1.1050e-01	8.8746	19.927338	0.000215	2.145014	0.726750	0.017533
 223	1.1100e-01	8.9308	19.986350	0.000144	1.443960	0.489227	0.011802
 224	1.1150e-01	8.9693	20.070592	0.000206	2.061306	0.698389	0.016848
 225	1.1200e-01	8.9645	20.180064	-0.000268	-2.678651	-0.907552	0.021894
 226	1.1250e-01	9.0511	20.253188	0.000179	1.789255	0.606216	0.014625
 227	1.1300e-01	9.0848	20.363088	0.000269	2.689115	0.911097	0.021980
 228	1.1350e-01	9.1169	20.416969	0.000132	1.318399	0.446686	0.010776
 229	1.1400e-01	9.1634	20.520454	0.000253	2.532162	0.857920	0.020697
 230	1.1450e-01	9.2308	20.559796	0.000096	0.962640	0.326151	0.007868
 231	1.1500e-01	9.2420	20.674399	0.000280	2.804213	0.950093	0.022921
 232	1.1550e-01	9.2628	20.769760	0.000233	2.333356	0.790563	0.019072
 233	1.1600e-01	9.3126	20.877949	0.000265	2.647261	0.896916	0.021638
 234	1.1650e-01	9.3591	20.944658	0.000163	1.632303	0.553039	0.013342
 235	1.1700e-01	9.4120	21.037453	0.000227	2.270575	0.769292	0.018559
 236	1.1750e-01	9.4393	21.139655	0.000250	2.500772	0.847285	0.020440
 237	1.1800e-01	9.4955	21.170444	0.000075	0.753371	0.255249	0.006158
 238	1.1850e-01	9.5067	21.304719	0.000329	3.285533	1.113169	0.026855
 239	1.1900e-01	9.5452	21.373994	0.000170	1.695084	0.574310	0.013855
 240	1.1950e-01	9.5821	21.459519	0.000209	2.092696	0.709025	0.017105
 241	1.2000e-01	9.6446	21.553169	0.000229	2.291502	0.776382	0.018730
 242	1.2050e-01	9.6575	21.630569	0.000189	1.893890	0.641667	0.015480
 243	1.2100e-01	9.7329	21.723792	0.000228	2.281039	0.772837	0.018644
 244	1.2150e-01	9.7313	21.828560	-0.000256	-2.563553	-0.868555	0.020954
 245	1.2200e-01	9.8243	21.835829	0.000018	0.177879	0.060267	0.001454
 246	1.2250e-01	9.8339	21.956420	0.000295	2.950702	0.999725	0.024118
 247	1.2300e-01	9.8692	22.055201	0.000242	2.417064	0.818924	0.019756
 248	1.2350e-01	9.9110	22.112931	0.000141	1.412570	0.478592	0.011546
 249	1.2400e-01	9.9703	22.186054	0.000179	1.789255	0.606216	0.014625
 250	1.2450e-01	10.0152	22.300230	0.000279	2.793750	0.946548	0.022835
 251	1.2500e-01	10.0216	22.421248	0.000296	2.961165	1.003270	0.024204
 252	1.2550e-01	10.0954	22.453320	0.000078	0.784761	0.265884	0.006414
 253	1.2600e-01	10.1099	22.521740	0.000167	1.674157	0.567220	0.013684
 254	1.2650e-01	10.1740	22.614107	0.000226	2.260112	0.765747	0.018473
 255	1.2700e-01	10.1885	22.747099	0.000325	3.254143	1.102533	0.026598
 256	1.2750e-01	10.2286	22.816374	0.000170	1.695084	0.574310	0.013855
 257	1.2800e-01	10.2735	22.887788	0.000175	1.747401	0.592036	0.014283
 258	1.2850e-01	10.3184	22.951931	0.000157	1.569522	0.531769	0.012829
 259	1.2900e-01	10.3682	23.027621	0.000185	1.852036	0.627487	0.015138
 260	1.2950e-01	10.3682	23.142652	-0.000281	-2.814676	-0.953638	0.023006
 261	1.3000e-01	10.4307	23.211072	0.000167	1.674157	0.567220	0.013684
 262	1.3050e-01	10.5061	23.294032	0.000203	2.029915	0.687754	0.016592
 263	1.3100e-01	10.5270	23.346629	0.000129	1.287008	0.436050	0.010520
 264	1.3150e-01	10.5494	23.506561	0.000391	3.913342	1.325876	0.031986
 265	1.3200e-01	10.5960	23.550179	0.000107	1.067275	0.361603	0.008724
 266	1.3250e-01	10.6425	23.627152	0.000188	1.883427	0.638122	0.015395
 267	1.3300e-01	10.6746	23.728499	0.000248	2.479845	0.840194	0.020269
 268	1.3350e-01	10.7066	23.802478	0.000181	1.810182	0.613306	0.014796
 269	1.3400e-01	10.7692	23.890996	0.000217	2.165941	0.733841	0.017704
 270	1.3450e-01	10.8141	23.955996	0.000159	1.590449	0.538859	0.013000
 271	1.3500e-01	10.8558	24.061191	0.000257	2.574016	0.872100	0.021039
 272	1.3550e-01	10.8831	24.118493	0.000140	1.402107	0.475047	0.011460
 273	1.3600e-01	10.9328	24.190334	0.000176	1.757865	0.595581	0.014368
 274	1.3650e-01	10.9713	24.267734	0.000189	1.893890	0.641667	0.015480
 275	1.3700e-01	11.0034	24.299379	0.000077	0.774298	0.262339	0.006329
 276	1.3750e-01	11.0131	24.472994	0.000425	4.248173	1.439320	0.034723
 277	1.3800e-01	11.0949	24.520888	0.000117	1.171910	0.397054	0.009579
 278	1.3850e-01	11.1318	24.575625	0.000134	1.339326	0.453776	0.010947
 279	1.3900e-01	11.1574	24.690656	0.000281	2.814676	0.953638	0.023006
 280	1.3950e-01	11.1863	24.793286	0.000251	2.511236	0.850830	0.020526
 281	1.4000e-01	11.2328	24.898909	0.000258	2.584480	0.875645	0.021125
 282	1.4050e-01	11.2938	24.907462	0.000021	0.209270	0.070902	0.001711
 283	1.4100e-01	11.3323	24.994697	0.000213	2.134550	0.723205	0.017447
 284	1.4150e-01	11.3532	25.145221	0.000368	3.683145	1.247883	0.030105
 285	1.4200e-01	11.4141	25.185418	0.000098	0.983567	0.333242	0.008039
 286	1.4250e-01	11.4494	25.250845	0.000160	1.600913	0.542404	0.013085
 287	1.4300e-01	11.4751	25.389395	0.000339	3.390168	1.148620	0.027710
 288	1.4350e-01	11.5168	25.428309	0.000095	0.952177	0.322606	0.007783
 289	1.4400e-01	11.5777	25.492025	0.000156	1.559059	0.528223	0.012743
 290	1.4450e-01	11.6211	25.573702	0.000200	1.998525	0.677119	0.016335
 291	1.4500e-01	11.6387	25.687023	0.000277	2.772823	0.939458	0.022664
 292	1.4550e-01	11.6788	25.767416	0.000197	1.967134	0.666483	0.016079
 293	1.4600e-01	11.7045	25.854652	0.000213	2.134550	0.723205	0.017447
 294	1.4650e-01	11.7606	25.934190	0.000195	1.946208	0.659393	0.015908
 295	1.4700e-01	11.8088	26.002182	0.000166	1.663694	0.563675	0.013598
 296	1.4750e-01	11.8200	26.115931	0.000278	2.783286	0.943003	0.022750
 297	1.4800e-01	11.8858	26.177936	0.000152	1.517205	0.514043	0.012401
 298	1.4850e-01	11.9162	26.254054	0.000186	1.862500	0.631032	0.015223
 299	1.4900e-01	11.9788	26.310500	0.000138	1.381180	0.467956	0.011289
 300	1.4950e-01	11.9981	26.437077	0.000310	3.097190	1.049357	0.025315
 301	1.5000e-01	12.0221	26.468294	0.000076	0.763834	0.258794	0.006243
 302	1.5050e-01	12.0654	26.573917	0.000258	2.584480	0.875645	0.021125
 303	1.5100e-01	12.1232	26.647041	0.000179	1.789255	0.606216	0.014625
 304	1.5150e-01	12.1216	26.754803	-0.000264	-2.636797	-0.893371	0.021552
 305	1.5200e-01	12.1970	26.803125	0.000118	1.182373	0.400599	0.009664
 306	1.5250e-01	12.2339	26.924570	0.000297	2.971629	1.006815	0.024289
 307	1.5300e-01	12.2708	26.963912	0.000096	0.962640	0.326151	0.007868
 308	1.5350e-01	12.3382	27.033187	0.000170	1.695084	0.574310	0.013855
 309	1.5400e-01	12.3638	27.101607	0.000167	1.674157	0.567220	0.013684
 310	1.5450e-01	12.4136	27.178580	0.000188	1.883427	0.638122	0.015395
 311	1.5500e-01	12.4649	27.265388	0.000212	2.124087	0.719660	0.017362
 312	1.5550e-01	12.4761	27.382984	0.000288	2.877457	0.974909	0.023519
 313	1.5600e-01	12.5130	27.450977	0.000166	1.663694	0.563675	0.013598
 314	1.5650e-01	12.5547	27.510844	0.000146	1.464887	0.496317	0.011974
 315	1.5700e-01	12.6237	27.587389	0.000187	1.872963	0.634577	0.015309
 316	1.5750e-01	12.6381	27.655809	0.000167	1.674157	0.567220	0.013684
 317	1.5800e-01	12.6863	27.759295	0.000253	2.532162	0.857920	0.020697
 318	1.5850e-01	12.7184	27.854655	0.000233	2.333356	0.790563	0.019072
 319	1.5900e-01	12.7585	27.927779	0.000179	1.789255	0.606216	0.014625
 320	1.5950e-01	12.8050	28.000475	0.000178	1.778792	0.602671	0.014539
 321	1.6000e-01	12.8146	28.068468	0.000166	1.663694	0.563675	0.013598
 322	1.6050e-01	12.8900	28.140309	0.000176	1.757865	0.595581	0.014368
 323	1.6100e-01	12.9365	28.203597	0.000155	1.548595	0.524678	0.012658
 324	1.6150e-01	12.9365	28.358825	-0.000380	-3.798244	-1.286880	0.031046
 325	1.6200e-01	13.0119	28.386193	0.000067	0.669663	0.226888	0.005474
 326	1.6250e-01	13.0424	28.453331	0.000164	1.642767	0.556584	0.013427
 327	1.6300e-01	13.0905	28.569217	0.000284	2.835603	0.960728	0.023177
 328	1.6350e-01	13.1162	28.612835	0.000107	1.067275	0.361603	0.008724
 329	1.6400e-01	13.1627	28.688097	0.000184	1.841573	0.623942	0.015052
 330	1.6450e-01	13.1900	28.799279	0.000272	2.720505	0.921732	0.022237
 331	1.6500e-01	13.1948	28.877535	0.000191	1.914817	0.648758	0.015651
 332	1.6550e-01	13.2750	28.965626	0.000216	2.155477	0.730295	0.017618
 333	1.6600e-01	13.3328	29.012664	0.000115	1.150983	0.389964	0.009408
 334	1.6650e-01	13.3520	29.108452	0.000234	2.343820	0.794108	0.019158
 335	1.6700e-01	13.4082	29.164899	0.000138	1.381180	0.467956	0.011289
 336	1.6750e-01	13.4451	29.244437	0.000195	1.946208	0.659393	0.015908
 337	1.6800e-01	13.4948	29.316706	0.000177	1.768328	0.599126	0.014454
 338	1.6850e-01	13.5108	29.435586	0.000291	2.908848	0.985544	0.023776
 339	1.6900e-01	13.5510	29.472789	0.000091	0.910323	0.308426	0.007441
 340	1.6950e-01	13.6167	29.557887	0.000208	2.082233	0.705480	0.017019
 341	1.7000e-01	13.6697	29.611340	0.000131	1.307935	0.443140	0.010691
 342	1.7050e-01	13.6729	29.681898	0.000173	1.726474	0.584945	0.014112
 343	1.7100e-01	13.7162	29.782818	0.000247	2.469382	0.836649	0.020184
 344	1.7150e-01	13.7852	29.855941	0.000179	1.789255	0.606216	0.014625
 345	1.7200e-01	13.7916	29.961992	0.000259	2.594943	0.879191	0.021210
 346	1.7250e-01	13.8237	30.003472	0.000101	1.014958	0.343877	0.008296
 347	1.7300e-01	13.8686	30.129622	0.000309	3.086727	1.045811	0.025230
 348	1.7350e-01	13.9023	30.183502	0.000132	1.318399	0.446686	0.010776
 349	1.7400e-01	13.9279	30.265179	0.000200	1.998525	0.677119	0.016335
 350	1.7450e-01	14.0033	30.303665	0.000094	0.941713	0.319061	0.007697
 351	1.7500e-01	14.0386	30.404157	0.000246	2.458918	0.833104	0.020098
 352	1.7550e-01	14.0627	30.519616	0.000283	2.825140	0.957183	0.023092
 353	1.7600e-01	14.1124	30.567510	0.000117	1.171910	0.397054	0.009579
 354	1.7650e-01	14.1638	30.624812	0.000140	1.402107	0.475047	0.011460
 355	1.7700e-01	14.2023	30.747112	0.000299	2.992556	1.013905	0.024460
 356	1.7750e-01	14.2600	30.755665	0.000021	0.209270	0.070902	0.001711
 357	1.7800e-01	14.2857	30.892077	0.000334	3.337851	1.130894	0.027282
 358	1.7850e-01	14.3130	30.964346	0.000177	1.768328	0.599126	0.014454
 359	1.7900e-01	14.3563	31.016089	0.000127	1.266081	0.428960	0.010349
 360	1.7950e-01	14.3739	31.134541	0.000290	2.898384	0.981999	0.023690
 361	1.8000e-01	14.4381	31.179869	0.000111	1.109129	0.375783	0.009066
 362	1.8050e-01	14.4734	31.222204	0.000104	1.035885	0.350967	0.008467
 363	1.8100e-01	14.5199	31.331249	0.000267	2.668188	0.904006	0.021809
 364	1.8150e-01	14.5664	31.402234	0.000174	1.736938	0.588490	0.014197
 365	1.8200e-01	14.5873	31.493319	0.000223	2.228722	0.755111	0.018217
 366	1.8250e-01	14.6418	31.531805	0.000094	0.941713	0.319061	0.007697
 367	1.8300e-01	14.6884	31.634863	0.000252	2.521699	0.854375	0.020612
 368	1.8350e-01	14.7172	31.722953	0.000216	2.155477	0.730295	0.017618
 369	1.8400e-01	14.7910	31.773841	0.000125	1.245154	0.421870	0.010177
 370	1.8450e-01	14.7990	31.849103	0.000184	1.841573	0.623942	0.015052
 371	1.8500e-01	14.8327	31.938904	0.000220	2.197331	0.744476	0.017960
 372	1.8550e-01	14.8696	31.979956	0.000100	1.004494	0.340332	0.008210
 373	1.8600e-01	14.9001	32.134329	0.000378	3.777317	1.279790	0.030875
 374	1.8650e-01	14.9547	32.181795	0.000116	1.161446	0.393509	0.009493
 375	1.8700e-01	15.0156	32.228406	0.000114	1.140519	0.386418	0.009322
 376	1.8750e-01	15.0301	32.321629	0.000228	2.281039	0.772837	0.018644
 377	1.8800e-01	15.0589	32.378075	0.000138	1.381180	0.467956	0.011289
 378	1.8850e-01	15.1135	32.458041	0.000196	1.956671	0.662938	0.015993
 379	1.8900e-01	15.1536	32.570079	0.000274	2.741432	0.928822	0.022408
 380	1.8950e-01	15.1873	32.600440	0.000074	0.742907	0.251704	0.006072
 381	1.9000e-01	15.2466	32.706492	0.000259	2.594943	0.879191	0.021210
 382	1.9050e-01	15.2787	32.802280	0.000234	2.343820	0.794108	0.019158
 383	1.9100e-01	15.3140	32.851029	0.000119	1.192837	0.404144	0.009750
 384	1.9150e-01	15.3653	32.891226	0.000098	0.983567	0.333242	0.008039
 385	1.9200e-01	15.3830	33.000270	0.000267	2.668188	0.904006	0.021809
 386	1.9250e-01	15.4359	33.079381	0.000194	1.935744	0.655848	0.015822
 387	1.9300e-01	15.4696	33.146090	0.000163	1.632303	0.553039	0.013342
 388	1.9350e-01	15.5226	33.224773	0.000193	1.925281	0.652303	0.015737
 389	1.9400e-01	15.5611	33.295332	0.000173	1.726474	0.584945	0.014112
 390	1.9450e-01	15.5803	33.377863	0.000202	2.019452	0.684209	0.016506
 391	1.9500e-01	15.6140	33.464243	0.000211	2.113623	0.716115	0.017276
 392	1.9550e-01	15.6830	33.533946	0.000171	1.705547	0.577855	0.013941
 393	1.9600e-01	15.7231	33.590821	0.000139	1.391643	0.471501	0.011375
 394	1.9650e-01	15.7728	33.646412	0.000136	1.360253	0.460866	0.011118
 395	1.9700e-01	15.7696	33.763154	-0.000286	-2.856530	-0.967819	0.023348
 396	1.9750e-01	15.8306	33.822593	0.000145	1.454424	0.492772	0.011888
 397	1.9800e-01	15.8787	33.913678	0.000223	2.228722	0.755111	0.018217
 398	1.9850e-01	15.9108	33.950453	0.000090	0.899859	0.304881	0.007355
 399	1.9900e-01	15.9493	34.072754	0.000299	2.992556	1.013905	0.024460
 400	1.9950e-01	15.9958	34.099267	0.000065	0.648736	0.219798	0.005303
 401	2.0000e-01	16.0455	34.178378	0.000194	1.935744	0.655848	0.015822
 402	2.0050e-01	16.0792	34.270317	0.000225	2.249648	0.762202	0.018388
 403	2.0100e-01	16.1354	34.337454	0.000164	1.642767	0.556584	0.013427
 404	2.0150e-01	16.1594	34.405019	0.000165	1.653230	0.560130	0.013513
 405	2.0200e-01	16.1691	34.533734	0.000315	3.149508	1.067082	0.025743
 406	2.0250e-01	16.2332	34.582056	0.000118	1.182373	0.400599	0.009664
 407	2.0300e-01	16.2669	34.602582	0.000050	0.502247	0.170166	0.004105
 408	2.0350e-01	16.3231	34.718041	0.000283	2.825140	0.957183	0.023092
 409	2.0400e-01	16.3519	34.794158	0.000186	1.862500	0.631032	0.015223
 410	2.0450e-01	16.4001	34.851032	0.000139	1.391643	0.471501	0.011375
 411	2.0500e-01	16.4658	34.897216	0.000113	1.130056	0.382873	0.009237
 412	2.0550e-01	16.4851	35.018234	0.000296	2.961165	1.003270	0.024204
 413	2.0600e-01	16.4979	35.094351	0.000186	1.862500	0.631032	0.015223
 414	2.0650e-01	16.5412	35.130272	0.000088	0.878932	0.297790	0.007184
 415	2.0700e-01	16.5974	35.233329	0.000252	2.521699	0.854375	0.020612
 416	2.0750e-01	16.6311	35.310729	0.000189	1.893890	0.641667	0.015480
 417	2.0800e-01	16.6936	35.405662	0.000232	2.322893	0.787017	0.018987
 418	2.0850e-01	16.7241	35.428754	0.000057	0.565028	0.191437	0.004618
 419	2.0900e-01	16.7578	35.509148	0.000197	1.967134	0.666483	0.016079
 420	2.0950e-01	16.7931	35.598521	0.000219	2.186868	0.740931	0.017875
 421	2.1000e-01	16.8573	35.643850	0.000111	1.109129	0.375783	0.009066
 422	2.1050e-01	16.8797	35.749901	0.000259	2.594943	0.879191	0.021210
 423	2.1100e-01	16.9279	35.781545	0.000077	0.774298	0.262339	0.006329
 424	2.1150e-01	16.9567	35.906411	0.000306	3.055337	1.035176	0.024973
 425	2.1200e-01	17.0033	35.959437	0.000130	1.297472	0.439595	0.010605
 426	2.1250e-01	17.0418	36.030423	0.000174	1.736938	0.588490	0.014197
 427	2.1300e-01	17.0803	36.061639	0.000076	0.763834	0.258794	0.006243
 428	2.1350e-01	17.1140	36.163414	0.000249	2.490309	0.843739	0.020355
 429	2.1400e-01	17.1669	36.274169	0.000271	2.710042	0.918187	0.022151
 430	2.1450e-01	17.2102	36.311373	0.000091	0.910323	0.308426	0.007441
 431	2.1500e-01	17.2102	36.387917	-0.000187	-1.872963	-0.634577	0.015309
 432	2.1550e-01	17.2728	36.471732	0.000205	2.050842	0.694844	0.016763
 433	2.1600e-01	17.3000	36.536303	0.000158	1.579986	0.535314	0.012914
 434	2.1650e-01	17.3642	36.596171	0.000146	1.464887	0.496317	0.011974
 435	2.1700e-01	17.4043	36.650052	0.000132	1.318399	0.446686	0.010776
 436	2.1750e-01	17.4300	36.765511	0.000283	2.825140	0.957183	0.023092
 437	2.1800e-01	17.5006	36.791596	0.000064	0.638272	0.216253	0.005217
 438	2.1850e-01	17.5407	36.877548	0.000210	2.103160	0.712570	0.017191
 439	2.1900e-01	17.5455	36.982317	0.000256	2.563553	0.868555	0.020954
 440	2.1950e-01	17.5920	37.063138	0.000198	1.977598	0.670028	0.016164
 441	2.2000e-01	17.6642	37.114453	0.000126	1.255618	0.425415	0.010263
 442	2.2050e-01	17.6947	37.182873	0.000167	1.674157	0.567220	0.013684
 443	2.2100e-01	17.7171	37.246589	0.000156	1.559059	0.528223	0.012743
 444	2.2150e-01	17.7733	37.299187	0.000129	1.287008	0.436050	0.010520
 445	2.2200e-01	17.7909	37.420205	0.000296	2.961165	1.003270	0.024204
 446	2.2250e-01	17.8840	37.468099	0.000117	1.171910	0.397054	0.009579
 447	2.2300e-01	17.8840	37.544216	-0.000186	-1.862500	-0.631032	0.015223
 448	2.2350e-01	17.9257	37.609215	0.000159	1.590449	0.538859	0.013000
 449	2.2400e-01	17.9674	37.651978	0.000105	1.046348	0.354512	0.008553
 450	2.2450e-01	17.9963	37.717832	0.000161	1.611376	0.545949	0.013171
 451	2.2500e-01	18.0284	37.846975	0.000316	3.159971	1.070627	0.025829
 452	2.2550e-01	18.0717	37.882040	0.000086	0.858005	0.290700	0.007013
 453	2.2600e-01	18.1134	38.003486	0.000297	2.971629	1.006815	0.024289
 454	2.2650e-01	18.1599	38.057794	0.000133	1.328862	0.450231	0.010862
 455	2.2700e-01	18.1968	38.096708	0.000095	0.952177	0.322606	0.007783
 456	2.2750e-01	18.2225	38.230555	0.000328	3.275070	1.109624	0.026769
 457	2.2800e-01	18.2883	38.203614	-0.000066	-0.659199	-0.223343	-0.005388
 458	2.2850e-01	18.2915	38.340027	0.000334	3.337851	1.130894	0.027282
 459	2.2900e-01	18.3620	38.401177	0.000150	1.496278	0.506953	0.012230
 460	2.2950e-01	18.3925	38.478150	0.000188	1.883427	0.638122	0.015395
 461	2.3000e-01	18.4358	38.551701	0.000180	1.799719	0.609761	0.014710
 462	2.3050e-01	18.4952	38.609003	0.000140	1.402107	0.475047	0.011460
 463	2.3100e-01	18.5128	38.675713	0.000163	1.632303	0.553039	0.013342
 464	2.3150e-01	18.5578	38.750975	0.000184	1.841573	0.623942	0.015052
 465	2.3200e-01	18.5915	38.848046	0.000238	2.375210	0.804743	0.019414
 466	2.3250e-01	18.6348	38.874131	0.000064	0.638272	0.216253	0.005217
 467	2.3300e-01	18.6701	38.958801	0.000207	2.071769	0.701934	0.016934
 468	2.3350e-01	18.6989	39.062286	0.000253	2.532162	0.857920	0.020697
 469	2.3400e-01	18.7471	39.105048	0.000105	1.046348	0.354512	0.008553
 470	2.3450e-01	18.8144	39.179455	0.000182	1.820646	0.616851	0.014881
 471	2.3500e-01	18.8289	39.248303	0.000168	1.684621	0.570765	0.013770
 472	2.3550e-01	18.8898	39.318861	0.000173	1.726474	0.584945	0.014112
 473	2.3600e-01	18.9219	39.405241	0.000211	2.113623	0.716115	0.017276
 474	2.3650e-01	18.9733	39.446293	0.000100	1.004494	0.340332	0.008210
 475	2.3700e-01	19.0086	39.485635	0.000096	0.962640	0.326151	0.007868
 476	2.3750e-01	19.0390	39.611357	0.000308	3.076264	1.042266	0.025144
 477	2.3800e-01	19.0856	39.645994	0.000085	0.847542	0.287155	0.006928
 478	2.3850e-01	19.1241	39.702869	0.000139	1.391643	0.471501	0.011375
 479	2.3900e-01	19.1497	39.821748	0.000291	2.908848	0.985544	0.023776
 480	2.3950e-01	19.2059	39.862373	0.000099	0.994031	0.336787	0.008125
 481	2.4000e-01	19.2540	39.934214	0.000176	1.757865	0.595581	0.014368
 482	2.4050e-01	19.2893	39.985957	0.000127	1.266081	0.428960	0.010349
 483	2.4100e-01	19.3214	40.097139	0.000272	2.720505	0.921732	0.022237
 484	2.4150e-01	19.3438	40.154013	0.000139	1.391643	0.471501	0.011375
 485	2.4200e-01	19.3775	40.247236	0.000228	2.281039	0.772837	0.018644
 486	2.4250e-01	19.4000	40.334899	0.000215	2.145014	0.726750	0.017533
 487	2.4300e-01	19.4690	40.365260	0.000074	0.742907	0.251704	0.006072
 488	2.4350e-01	19.5251	40.439667	0.000182	1.820646	0.616851	0.014881
 489	2.4400e-01	19.5476	40.505521	0.000161	1.611376	0.545949	0.013171
 490	2.4450e-01	19.6101	40.537593	0.000078	0.784761	0.265884	0.006414
 491	2.4500e-01	19.6647	40.631243	0.000229	2.291502	0.776382	0.018730
 492	2.4550e-01	19.6551	40.703939	-0.000178	-1.778792	-0.602671	0.014539
 493	2.4600e-01	19.7256	40.789037	0.000208	2.082233	0.705480	0.017019
 494	2.4650e-01	19.7353	40.848477	0.000145	1.454424	0.492772	0.011888
 495	2.4700e-01	19.8139	40.930581	0.000201	2.008988	0.680664	0.016421
 496	2.4750e-01	19.8476	40.967784	0.000091	0.910323	0.308426	0.007441
 497	2.4800e-01	19.8893	41.030645	0.000154	1.538132	0.521133	0.012572
 498	2.4850e-01	19.9326	41.108045	0.000189	1.893890	0.641667	0.015480
 499	2.4900e-01	19.9470	41.194426	0.000211	2.113623	0.716115	0.017276
 500	2.4950e-01	19.9855	41.301760	0.000263	2.626334	0.889826	0.021467
 501	2.5000e-01	20.0449	41.305608	0.000009	0.094171	0.031906	0.000770
 502	2.5050e-01	20.0096	41.303898	0.000004	0.041854	0.014180	-0.000342
 503	2.5100e-01	19.9454	41.256004	0.000117	1.171910	0.397054	-0.009579
 504	2.5150e-01	19.9278	41.167913	0.000216	2.155477	0.730295	-0.017618
 505	2.5200e-01	19.8476	41.170051	-0.000005	-0.052317	-0.017726	0.000428
 506	2.5250e-01	19.8251	41.048178	0.000298	2.982092	1.010360	-0.024375
 507	2.5300e-01	19.7914	40.974199	0.000181	1.810182	0.613306	-0.014796
 508	2.5350e-01	19.7256	40.935285	0.000095	0.952177	0.322606	-0.007783
 509	2.5400e-01	19.6968	40.918180	0.000042	0.418539	0.141805	-0.003421
 510	2.5450e-01	19.6535	40.814694	0.000253	2.532162	0.857920	-0.020697
 511	2.5500e-01	19.6069	40.763379	0.000126	1.255618	0.425415	-0.010263
 512	2.5550e-01	19.5684	40.743281	0.000049	0.491784	0.166621	-0.004020
 513	2.5600e-01	19.5315	40.650059	0.000228	2.281039	0.772837	-0.018644
 514	2.5650e-01	19.5027	40.560257	0.000220	2.197331	0.744476	-0.017960
 515	2.5700e-01	19.4369	40.522626	0.000092	0.920786	0.311971	-0.007526
 516	2.5750e-01	19.4096	40.439667	0.000203	2.029915	0.687754	-0.016592
 517	2.5800e-01	19.4016	40.353287	0.000211	2.113623	0.716115	-0.017276
 518	2.5850e-01	19.3454	40.314800	0.000094	0.941713	0.319061	-0.007697
 519	2.5900e-01	19.2925	40.278452	0.000089	0.889396	0.301335	-0.007270
 520	2.5950e-01	19.2909	40.172829	0.000258	2.584480	0.875645	-0.021125
 521	2.6000e-01	19.2091	40.129639	0.000106	1.056812	0.358057	-0.008638
 522	2.6050e-01	19.1802	40.070626	0.000144	1.443960	0.489227	-0.011802
 523	2.6100e-01	19.1417	40.023588	0.000115	1.150983	0.389964	-0.009408
 524	2.6150e-01	19.1112	39.931221	0.000226	2.260112	0.765747	-0.018473
 525	2.6200e-01	19.0727	39.894017	0.000091	0.910323	0.308426	-0.007441
 526	2.6250e-01	19.0246	39.847834	0.000113	1.130056	0.382873	-0.009237
 527	2.6300e-01	18.9636	39.726816	0.000296	2.961165	1.003270	-0.024204
 528	2.6350e-01	18.9428	39.695599	0.000076	0.763834	0.258794	-0.006243
 529	2.6400e-01	18.8850	39.647277	0.000118	1.182373	0.400599	-0.009664
 530	2.6450e-01	18.8594	39.569877	0.000189	1.893890	0.641667	-0.015480
 531	2.6500e-01	18.8080	39.477510	0.000226	2.260112	0.765747	-0.018473
 532	2.6550e-01	18.7840	39.421064	0.000138	1.381180	0.467956	-0.011289
 533	2.6600e-01	18.7551	39.365900	0.000135	1.349789	0.457321	-0.011033
 534	2.6650e-01	18.6957	39.292776	0.000179	1.789255	0.606216	-0.014625
 535	2.6700e-01	18.6508	39.238895	0.000132	1.318399	0.446686	-0.010776
 536	2.6750e-01	18.6348	39.154225	0.000207	2.071769	0.701934	-0.016934
 537	2.6800e-01	18.5594	39.103766	0.000123	1.234691	0.418325	-0.010092
 538	2.6850e-01	18.5433	39.018668	0.000208	2.082233	0.705480	-0.017019
 539	2.6900e-01	18.4872	38.966926	0.000127	1.266081	0.428960	-0.010349
 540	2.6950e-01	18.4743	38.878835	0.000216	2.155477	0.730295	-0.017618
 541	2.7000e-01	18.4198	38.847190	0.000077	0.774298	0.262339	-0.006329
 542	2.7050e-01	18.3653	38.774067	0.000179	1.789255	0.606216	-0.014625
 543	2.7100e-01	18.3332	38.687259	0.000212	2.124087	0.719660	-0.017362
 544	2.7150e-01	18.3043	38.639792	0.000116	1.161446	0.393509	-0.009493
 545	2.7200e-01	18.2690	38.574793	0.000159	1.590449	0.538859	-0.013000
 546	2.7250e-01	18.2321	38.498248	0.000187	1.872963	0.634577	-0.015309
 547	2.7300e-01	18.2080	38.428118	0.000172	1.716011	0.581400	-0.014026
 548	2.7350e-01	18.1118	38.358415	0.000171	1.705547	0.577855	-0.013941
 549	2.7400e-01	18.0861	38.318218	0.000098	0.983567	0.333242	-0.008039
 550	2.7450e-01	18.0669	38.226279	0.000225	2.249648	0.762202	-0.018388
 551	2.7500e-01	18.0203	38.140753	0.000209	2.092696	0.709025	-0.017105
 552	2.7550e-01	17.9834	38.058222	0.000202	2.019452	0.684209	-0.016506
 553	2.7600e-01	17.9546	38.041117	0.000042	0.418539	0.141805	-0.003421
 554	2.7650e-01	17.8840	37.996216	0.000110	1.098666	0.372238	-0.008980
 555	2.7700e-01	17.8760	37.873488	0.000300	3.003019	1.017450	-0.024546
 556	2.7750e-01	17.8086	37.840561	0.000081	0.805688	0.272975	-0.006585
 557	2.7800e-01	17.7653	37.773851	0.000163	1.632303	0.553039	-0.013342
 558	2.7850e-01	17.7284	37.662668	0.000272	2.720505	0.921732	-0.022237
 559	2.7900e-01	17.6915	37.652405	0.000025	0.251124	0.085083	-0.002053
 560	2.7950e-01	17.6690	37.581847	0.000173	1.726474	0.584945	-0.014112
 561	2.8000e-01	17.6161	37.492046	0.000220	2.197331	0.744476	-0.017960
 562	2.8050e-01	17.5599	37.437738	0.000133	1.328862	0.450231	-0.010862
 563	2.8100e-01	17.5006	37.394120	0.000107	1.067275	0.361603	-0.008724
 564	2.8150e-01	17.5134	37.291917	-0.000250	-2.500772	-0.847285	-0.020440
 565	2.8200e-01	17.4524	37.214517	0.000189	1.893890	0.641667	-0.015480
 566	2.8250e-01	17.4284	37.158498	0.000137	1.370716	0.464411	-0.011204
 567	2.8300e-01	17.3642	37.126854	0.000077	0.774298	0.262339	-0.006329
 568	2.8350e-01	17.3610	37.008829	0.000289	2.887921	0.978454	-0.023605
 569	2.8400e-01	17.3049	36.960080	0.000119	1.192837	0.404144	-0.009750
 570	2.8450e-01	17.2439	36.884818	0.000184	1.841573	0.623942	-0.015052
 571	2.8500e-01	17.2054	36.817681	0.000164	1.642767	0.556584	-0.013427
 572	2.8550e-01	17.1717	36.771497	0.000113	1.130056	0.382873	-0.009237
 573	2.8600e-01	17.1172	36.720610	0.000125	1.245154	0.421870	-0.010177
 574	2.8650e-01	17.0787	36.622256	0.000241	2.406601	0.815378	-0.019671
 575	2.8700e-01	17.0321	36.549987	0.000177	1.768328	0.599126	-0.014454
 576	2.8750e-01	17.0033	36.483278	0.000163	1.632303	0.553039	-0.013342
 577	2.8800e-01	16.9583	36.420417	0.000154	1.538132	0.521133	-0.012572
 578	2.8850e-01	16.9664	36.328050	-0.000226	-2.260112	-0.765747	-0.018473
 579	2.8900e-01	16.8974	36.262623	0.000160	1.600913	0.542404	-0.013085
 580	2.8950e-01	16.8412	36.220716	0.000103	1.025421	0.347422	-0.008381
 581	2.9000e-01	16.7915	36.157427	0.000155	1.548595	0.524678	-0.012658
 582	2.9050e-01	16.7915	36.091573	0.000161	1.611376	0.545949	-0.013171
 583	2.9100e-01	16.7546	35.974404	0.000287	2.866994	0.971364	-0.023434
 584	2.9150e-01	16.6856	35.979535	-0.000013	-0.125562	-0.042541	0.001026
 585	2.9200e-01	16.6712	35.861938	0.000288	2.877457	0.974909	-0.023519
 586	2.9250e-01	16.6439	35.776413	0.000209	2.092696	0.709025	-0.017105
 587	2.9300e-01	16.5605	35.725954	0.000123	1.234691	0.418325	-0.010092
 588	2.9350e-01	16.5461	35.637435	0.000217	2.165941	0.733841	-0.017704
 589	2.9400e-01	16.4995	35.551055	0.000211	2.113623	0.716115	-0.017276
 590	2.9450e-01	16.4370	35.568160	-0.000042	-0.418539	-0.141805	0.003421
 591	2.9500e-01	16.4097	35.451846	0.000285	2.846067	0.964274	-0.023263
 592	2.9550e-01	16.3953	35.391551	0.000148	1.475351	0.499862	-0.012059
 593	2.9600e-01	16.3231	35.299184	0.000226	2.260112	0.765747	-0.018473
 594	2.9650e-01	16.2862	35.229053	0.000172	1.716011	0.581400	-0.014026
 595	2.9700e-01	16.2413	35.139252	0.000220	2.197331	0.744476	-0.017960
 596	2.9750e-01	16.2060	35.107607	0.000077	0.774298	0.262339	-0.006329
 597	2.9800e-01	16.1899	35.001984	0.000258	2.584480	0.875645	-0.021125
 598	2.9850e-01	16.1691	34.918597	0.000204	2.040379	0.691299	-0.016677
 599	2.9900e-01	16.1065	34.883959	0.000085	0.847542	0.287155	-0.006928
 600	2.9950e-01	16.0471	34.817250	0.000163	1.632303	0.553039	-0.013342
 601	3.0000e-01	16.0006	34.782612	0.000085	0.847542	0.287155	-0.006928
 602	3.0050e-01	15.9669	34.661594	0.000296	2.961165	1.003270	-0.024204
 603	3.0100e-01	15.9445	34.576069	0.000209	2.092696	0.709025	-0.017105
 604	3.0150e-01	15.8851	34.556826	0.000047	0.470857	0.159531	-0.003849
 605	3.0200e-01	15.8594	34.510215	0.000114	1.140519	0.386418	-0.009322
 606	3.0250e-01	15.8402	34.385348	0.000306	3.055337	1.035176	-0.024973
 607	3.0300e-01	15.7873	34.280580	0.000256	2.563553	0.868555	-0.020954
 608	3.0350e-01	15.7231	34.251074	0.000072	0.721980	0.244614	-0.005901
 609	3.0400e-01	15.7022	34.213443	0.000092	0.920786	0.311971	-0.007526
 610	3.0450e-01	15.6316	34.145878	0.000165	1.653230	0.560130	-0.013513
 611	3.0500e-01	15.6445	34.014170	-0.000322	-3.222752	-1.091898	-0.026342
 612	3.0550e-01	15.5723	33.959861	0.000133	1.328862	0.450231	-0.010862
 613	3.0600e-01	15.5210	33.899994	0.000146	1.464887	0.496317	-0.011974
 614	3.0650e-01	15.4792	33.812758	0.000213	2.134550	0.723205	-0.017447
 615	3.0700e-01	15.4536	33.745193	0.000165	1.653230	0.560130	-0.013513
 616	3.0750e-01	15.3926	33.761015	-0.000039	-0.387149	-0.131170	0.003164
 617	3.0800e-01	15.3686	33.642563	0.000290	2.898384	0.981999	-0.023690
 618	3.0850e-01	15.3365	33.519407	0.000301	3.013483	1.020996	-0.024631
 619	3.0900e-01	15.2964	33.493750	0.000063	0.627809	0.212707	-0.005132
 620	3.0950e-01	15.2563	33.419343	0.000182	1.820646	0.616851	-0.014881
 621	3.1000e-01	15.1953	33.373587	0.000112	1.119593	0.379328	-0.009151
 622	3.1050e-01	15.1905	33.274378	0.000243	2.427528	0.822469	-0.019842
 623	3.1100e-01	15.1456	33.189708	0.000207	2.071769	0.701934	-0.016934
 624	3.1150e-01	15.0974	33.165333	0.000060	0.596418	0.202072	-0.004875
 625	3.1200e-01	15.0397	33.072111	0.000228	2.281039	0.772837	-0.018644
 626	3.1250e-01	15.0188	32.986586	0.000209	2.092696	0.709025	-0.017105
 627	3.1300e-01	14.9739	32.896785	0.000220	2.197331	0.744476	-0.017960
 628	3.1350e-01	14.9194	32.866423	0.000074	0.742907	0.251704	-0.006072
 629	3.1400e-01	14.8953	32.763793	0.000251	2.511236	0.850830	-0.020526
 630	3.1450e-01	14.8664	32.678696	0.000208	2.082233	0.705480	-0.017019
 631	3.1500e-01	14.8167	32.594454	0.000206	2.061306	0.698389	-0.016848
 632	3.1550e-01	14.7782	32.539718	0.000134	1.339326	0.453776	-0.010947
 633	3.1600e-01	14.7365	32.476857	0.000154	1.538132	0.521133	-0.012572
 634	3.1650e-01	14.6932	32.399029	0.000190	1.904354	0.645212	-0.015566
 635	3.1700e-01	14.6418	32.377648	0.000052	0.523174	0.177256	-0.004276
 636	3.1750e-01	14.6146	32.285281	0.000226	2.260112	0.765747	-0.018473
 637	3.1800e-01	14.5584	32.204459	0.000198	1.977598	0.670028	-0.016164
 638	3.1850e-01	14.5712	32.083014	-0.000297	-2.971629	-1.006815	-0.024289
 639	3.1900e-01	14.4814	32.039824	0.000106	1.056812	0.358057	-0.008638
 640	3.1950e-01	14.4445	32.002193	0.000092	0.920786	0.311971	-0.007526
 641	3.2000e-01	14.4204	31.902556	0.000244	2.437991	0.826014	-0.019927
 642	3.2050e-01	14.3739	31.811472	0.000223	2.228722	0.755111	-0.018217
 643	3.2100e-01	14.3450	31.775551	0.000088	0.878932	0.297790	-0.007184
 644	3.2150e-01	14.2937	31.650685	0.000306	3.055337	1.035176	-0.024973
 645	3.2200e-01	14.2536	31.595949	0.000134	1.339326	0.453776	-0.010947
 646	3.2250e-01	14.2215	31.572002	0.000059	0.585955	0.198527	-0.004789
 647	3.2300e-01	14.1782	31.453977	0.000289	2.887921	0.978454	-0.023605
 648	3.2350e-01	14.1124	31.405228	0.000119	1.192837	0.404144	-0.009750
 649	3.2400e-01	14.0996	31.312433	0.000227	2.270575	0.769292	-0.018559
 650	3.2450e-01	14.0595	31.241447	0.000174	1.736938	0.588490	-0.014197
 651	3.2500e-01	14.0146	31.218783	0.000055	0.554565	0.187892	-0.004533
 652	3.2550e-01	13.9809	31.047305	0.000420	4.195856	1.421595	-0.034296
 653	3.2600e-01	13.9263	31.042602	0.000012	0.115098	0.038996	-0.000941
 654	3.2650e-01	13.8975	30.956221	0.000211	2.113623	0.716115	-0.017276
 655	3.2700e-01	13.8574	30.834348	0.000298	2.982092	1.010360	-0.024375
 656	3.2750e-01	13.8028	30.826651	0.000019	0.188343	0.063812	-0.001539
 657	3.2800e-01	13.7788	30.728725	0.000240	2.396137	0.811833	-0.019585
 658	3.2850e-01	13.7322	30.665436	0.000155	1.548595	0.524678	-0.012658
 659	3.2900e-01	13.7034	30.587608	0.000190	1.904354	0.645212	-0.015566
 660	3.2950e-01	13.6504	30.508498	0.000194	1.935744	0.655848	-0.015822
 661	3.3000e-01	13.6071	30.468728	0.000097	0.973104	0.329696	-0.007954
 662	3.3050e-01	13.5814	30.380638	0.000216	2.155477	0.730295	-0.017618
 663	3.3100e-01	13.5349	30.273731	0.000262	2.615870	0.886281	-0.021381
 664	3.3150e-01	13.4964	30.224127	0.000121	1.213764	0.411234	-0.009921
 665	3.3200e-01	13.4627	30.115082	0.000267	2.668188	0.904006	-0.021809
 666	3.3250e-01	13.4082	30.082155	0.000081	0.805688	0.272975	-0.006585
 667	3.3300e-01	13.3681	30.018867	0.000155	1.548595	0.524678	-0.012658
 668	3.3350e-01	13.3440	29.894000	0.000306	3.055337	1.035176	-0.024973
 669	3.3400e-01	13.3087	29.840975	0.000130	1.297472	0.439595	-0.010605
 670	3.3450e-01	13.2397	29.734068	0.000262	2.615870	0.886281	-0.021381
 671	3.3500e-01	13.2060	29.680615	0.000131	1.307935	0.443140	-0.010691
 672	3.3550e-01	13.1772	29.617754	0.000154	1.538132	0.521133	-0.012572
 673	3.3600e-01	13.1290	29.562163	0.000136	1.360253	0.460866	-0.011118
 674	3.3650e-01	13.0841	29.495453	0.000163	1.632303	0.553039	-0.013342
 675	3.3700e-01	13.0857	29.365883	-0.000317	-3.170435	-1.074172	-0.025914
 676	3.3750e-01	13.0167	29.332528	0.000082	0.816152	0.276520	-0.006671
 677	3.3800e-01	12.9526	29.223484	0.000267	2.668188	0.904006	-0.021809
 678	3.3850e-01	12.9237	29.178583	0.000110	1.098666	0.372238	-0.008980
 679	3.3900e-01	12.9526	29.051578	-0.000311	-3.107654	-1.052902	-0.025401
 680	3.3950e-01	12.8676	28.997270	0.000133	1.328862	0.450231	-0.010862
 681	3.4000e-01	12.8515	28.941679	0.000136	1.360253	0.460866	-0.011118
 682	3.4050e-01	12.7681	28.871548	0.000172	1.716011	0.581400	-0.014026
 683	3.4100e-01	12.7280	28.807832	0.000156	1.559059	0.528223	-0.012743
 684	3.4150e-01	12.7007	28.693656	0.000279	2.793750	0.946548	-0.022835
 685	3.4200e-01	12.6638	28.643624	0.000122	1.224227	0.414779	-0.010006
 686	3.4250e-01	12.6077	28.569645	0.000181	1.810182	0.613306	-0.014796
 687	3.4300e-01	12.5868	28.499086	0.000173	1.726474	0.584945	-0.014112
 688	3.4350e-01	12.5660	28.439647	0.000145	1.454424	0.492772	-0.011888
 689	3.4400e-01	12.4761	28.344714	0.000232	2.322893	0.787017	-0.018987
 690	3.4450e-01	12.4665	28.222413	0.000299	2.992556	1.013905	-0.024460
 691	3.4500e-01	12.4248	28.201459	0.000051	0.512711	0.173711	-0.004191
 692	3.4550e-01	12.3462	28.140309	0.000150	1.496278	0.506953	-0.012230
 693	3.4600e-01	12.3253	28.067613	0.000178	1.778792	0.602671	-0.014539
 694	3.4650e-01	12.3109	27.958140	0.000268	2.678651	0.907552	-0.021894
 695	3.4700e-01	12.2419	27.890576	0.000165	1.653230	0.560130	-0.013513
 696	3.4750e-01	12.2307	27.830281	0.000148	1.475351	0.499862	-0.012059
 697	3.4800e-01	12.1777	27.724229	0.000259	2.594943	0.879191	-0.021210
 698	3.4850e-01	12.1633	27.650250	0.000181	1.810182	0.613306	-0.014796
 699	3.4900e-01	12.1039	27.542489	0.000264	2.636797	0.893371	-0.021552
 700	3.4950e-01	12.0590	27.511700	0.000075	0.753371	0.255249	-0.006158
 701	3.5000e-01	12.0253	27.467227	0.000109	1.088202	0.368693	-0.008895
 702	3.5050e-01	11.9981	27.336801	0.000319	3.191362	1.081263	-0.026085
 703	3.5100e-01	11.9403	27.272657	0.000157	1.569522	0.531769	-0.012829
 704	3.5150e-01	11.8826	27.216211	0.000138	1.381180	0.467956	-0.011289
 705	3.5200e-01	11.8424	27.135817	0.000197	1.967134	0.666483	-0.016079
 706	3.5250e-01	11.8072	27.039601	0.000235	2.354283	0.797653	-0.019243
 707	3.5300e-01	11.7654	27.001970	0.000092	0.920786	0.311971	-0.007526
 708	3.5350e-01	11.7382	26.883518	0.000290	2.898384	0.981999	-0.023690
 709	3.5400e-01	11.6997	26.813388	0.000172	1.716011	0.581400	-0.014026
 710	3.5450e-01	11.6467	26.748389	0.000159	1.590449	0.538859	-0.013000
 711	3.5500e-01	11.6323	26.643193	0.000257	2.574016	0.872100	-0.021039
 712	3.5550e-01	11.5681	26.578621	0.000158	1.579986	0.535314	-0.012914
 713	3.5600e-01	11.5521	26.482833	0.000234	2.343820	0.794108	-0.019158
 714	3.5650e-01	11.4911	26.413558	0.000170	1.695084	0.574310	-0.013855
 715	3.5700e-01	11.4542	26.342145	0.000175	1.747401	0.592036	-0.014283
 716	3.5750e-01	11.4334	26.250633	0.000224	2.239185	0.758656	-0.018302
 717	3.5800e-01	11.4045	26.158266	0.000226	2.260112	0.765747	-0.018473
 718	3.5850e-01	11.3291	26.115503	0.000105	1.046348	0.354512	-0.008553
 719	3.5900e-01	11.2778	26.032116	0.000204	2.040379	0.691299	-0.016677
 720	3.5950e-01	11.2633	25.959420	0.000178	1.778792	0.602671	-0.014539
 721	3.6000e-01	11.2120	25.839685	0.000293	2.929775	0.992635	-0.023947
 722	3.6050e-01	11.1959	25.826001	0.000033	0.334831	0.113444	-0.002737
 723	3.6100e-01	11.1574	25.685740	0.000343	3.432022	1.162800	-0.028052
 724	3.6150e-01	11.1157	25.623734	0.000152	1.517205	0.514043	-0.012401
 725	3.6200e-01	11.0596	25.571564	0.000128	1.276545	0.432505	-0.010434
 726	3.6250e-01	11.0115	25.482190	0.000219	2.186868	0.740931	-0.017875
 727	3.6300e-01	10.9681	25.408639	0.000180	1.799719	0.609761	-0.014710
 728	3.6350e-01	10.9200	25.337225	0.000175	1.747401	0.592036	-0.014283
 729	3.6400e-01	10.9072	25.246569	0.000222	2.218258	0.751566	-0.018131
 730	3.6450e-01	10.8623	25.170451	0.000186	1.862500	0.631032	-0.015223
 731	3.6500e-01	10.8157	25.102459	0.000166	1.663694	0.563675	-0.013598
 732	3.6550e-01	10.7853	25.004960	0.000239	2.385674	0.808288	-0.019500
 733	3.6600e-01	10.7532	24.938251	0.000163	1.632303	0.553039	-0.013342
 734	3.6650e-01	10.6954	24.856574	0.000200	1.998525	0.677119	-0.016335
 735	3.6700e-01	10.6714	24.780457	0.000186	1.862500	0.631032	-0.015223
 736	3.6750e-01	10.6072	24.696642	0.000205	2.050842	0.694844	-0.016763
 737	3.6800e-01	10.5655	24.589736	0.000262	2.615870	0.886281	-0.021381
 738	3.6850e-01	10.5494	24.504639	0.000208	2.082233	0.705480	-0.017019
 739	3.6900e-01	10.5157	24.464442	0.000098	0.983567	0.333242	-0.008039
 740	3.6950e-01	10.4564	24.372075	0.000226	2.260112	0.765747	-0.018473
 741	3.7000e-01	10.3922	24.278853	0.000228	2.281039	0.772837	-0.018644
 742	3.7050e-01	10.3826	24.232241	0.000114	1.140519	0.386418	-0.009322
 743	3.7100e-01	10.3281	24.152276	0.000196	1.956671	0.662938	-0.015993
 744	3.7150e-01	10.2976	24.065468	0.000212	2.124087	0.719660	-0.017362
 745	3.7200e-01	10.2639	23.997475	0.000166	1.663694	0.563675	-0.013598
 746	3.7250e-01	10.1949	23.900832	0.000236	2.364747	0.801198	-0.019329
 747	3.7300e-01	10.1901	23.814879	0.000210	2.103160	0.712570	-0.017191
 748	3.7350e-01	10.1323	23.727216	0.000215	2.145014	0.726750	-0.017533
 749	3.7400e-01	10.0970	23.646395	0.000198	1.977598	0.670028	-0.016164
 750	3.7450e-01	10.0505	23.569422	0.000188	1.883427	0.638122	-0.015395
 751	3.7500e-01	10.0329	23.489456	0.000196	1.956671	0.662938	-0.015993
 752	3.7550e-01	9.9655	23.407352	0.000201	2.008988	0.680664	-0.016421
 753	3.7600e-01	9.9029	23.326959	0.000197	1.967134	0.666483	-0.016079
 754	3.7650e-01	9.9013	23.280348	0.000114	1.140519	0.386418	-0.009322
 755	3.7700e-01	9.8500	23.176435	0.000254	2.542626	0.861465	-0.020783
 756	3.7750e-01	9.8067	23.104594	0.000176	1.757865	0.595581	-0.014368
 757	3.7800e-01	9.7553	22.965188	0.000341	3.411095	1.155710	-0.027881
 758	3.7850e-01	9.7602	22.886505	-0.000193	-1.925281	-0.652303	-0.015737
 759	3.7900e-01	9.7136	22.828348	0.000142	1.423033	0.482137	-0.011631
 760	3.7950e-01	9.6559	22.762921	0.000160	1.600913	0.542404	-0.013085
 761	3.8000e-01	9.6382	22.637627	0.000307	3.065800	1.038721	-0.025059
 762	3.8050e-01	9.5821	22.586312	0.000126	1.255618	0.425415	-0.010263
 763	3.8100e-01	9.5356	22.507629	0.000193	1.925281	0.652303	-0.015737
 764	3.8150e-01	9.5243	22.423814	0.000205	2.050842	0.694844	-0.016763
 765	3.8200e-01	9.4521	22.305790	0.000289	2.887921	0.978454	-0.023605
 766	3.8250e-01	9.4425	22.276283	0.000072	0.721980	0.244614	-0.005901
 767	3.8300e-01	9.3719	22.213850	0.000153	1.527668	0.517588	-0.012487
 768	3.8350e-01	9.3318	22.077438	0.000334	3.337851	1.130894	-0.027282
 769	3.8400e-01	9.2869	22.041090	0.000089	0.889396	0.301335	-0.007270
 770	3.8450e-01	9.2789	21.955137	0.000210	2.103160	0.712570	-0.017191
 771	3.8500e-01	9.2227	21.834119	0.000296	2.961165	1.003270	-0.024204
 772	3.8550e-01	9.1955	21.773824	0.000148	1.475351	0.499862	-0.012059
 773	3.8600e-01	9.1217	21.702838	0.000174	1.736938	0.588490	-0.014197
 774	3.8650e-01	9.0960	21.609188	0.000229	2.291502	0.776382	-0.018730
 775	3.8700e-01	9.0687	21.546327	0.000154	1.538132	0.521133	-0.012572
 776	3.8750e-01	9.0286	21.448401	0.000240	2.396137	0.811833	-0.019585
 777	3.8800e-01	8.9837	21.350475	0.000240	2.396137	0.811833	-0.019585
 778	3.8850e-01	8.9468	21.294456	0.000137	1.370716	0.464411	-0.011204
 779	3.8900e-01	8.9051	21.202089	0.000226	2.260112	0.765747	-0.018473
 780	3.8950e-01	8.8538	21.142221	0.000146	1.464887	0.496317	-0.011974
 781	3.9000e-01	8.8088	21.051565	0.000222	2.218258	0.751566	-0.018131
 782	3.9050e-01	8.7832	20.943375	0.000265	2.647261	0.896916	-0.021638
 783	3.9100e-01	8.7318	20.861699	0.000200	1.998525	0.677119	-0.016335
 784	3.9150e-01	8.7078	20.743247	0.000290	2.898384	0.981999	-0.023690
 785	3.9200e-01	8.6677	20.681669	0.000151	1.506741	0.510498	-0.012316
 786	3.9250e-01	8.6292	20.594433	0.000213	2.134550	0.723205	-0.017447
 787	3.9300e-01	8.5714	20.539697	0.000134	1.339326	0.453776	-0.010947
 788	3.9350e-01	8.5393	20.439205	0.000246	2.458918	0.833104	-0.020098
 789	3.9400e-01	8.4880	20.347693	0.000224	2.239185	0.758656	-0.018302
 790	3.9450e-01	8.4527	20.264307	0.000204	2.040379	0.691299	-0.016677
 791	3.9500e-01	8.4094	20.202728	0.000151	1.506741	0.510498	-0.012316
 792	3.9550e-01	8.3725	20.144999	0.000141	1.412570	0.478592	-0.011546
 793	3.9600e-01	8.3276	20.067599	0.000189	1.893890	0.641667	-0.015480
 794	3.9650e-01	8.2891	19.936318	0.000321	3.212289	1.088353	-0.026256
 795	3.9700e-01	8.2538	19.855497	0.000198	1.977598	0.670028	-0.016164
 796	3.9750e-01	8.2201	19.753722	0.000249	2.490309	0.843739	-0.020355
 797	3.9800e-01	8.1768	19.700696	0.000130	1.297472	0.439595	-0.010605
 798	3.9850e-01	8.1270	19.610040	0.000222	2.218258	0.751566	-0.018131
 799	3.9900e-01	8.0869	19.533067	0.000188	1.883427	0.638122	-0.015395
 800	3.9950e-01	8.0468	19.432148	0.000247	2.469382	0.836649	-0.020184
 801	4.0000e-01	8.0115	19.344057	0.000216	2.155477	0.730295	-0.017618
 802	4.0050e-01	7.9795	19.265374	0.000193	1.925281	0.652303	-0.015737
 803	4.0100e-01	7.9458	19.143501	0.000298	2.982092	1.010360	-0.024375
 804	4.0150e-01	7.8912	19.094751	0.000119	1.192837	0.404144	-0.009750
 805	4.0200e-01	7.8848	18.995542	0.000243	2.427528	0.822469	-0.019842
 806	4.0250e-01	7.8190	18.877945	0.000288	2.877457	0.974909	-0.023519
 807	4.0300e-01	7.7661	18.867682	0.000025	0.251124	0.085083	-0.002053
 808	4.0350e-01	7.7196	18.807815	0.000146	1.464887	0.496317	-0.011974
 809	4.0400e-01	7.6811	18.655580	0.000372	3.724999	1.262064	-0.030447
 810	4.0450e-01	7.6843	18.560220	-0.000233	-2.333356	-0.790563	-0.019072
 811	4.0500e-01	7.6057	18.494793	0.000160	1.600913	0.542404	-0.013085
 812	4.0550e-01	7.5591	18.405847	0.000218	2.176404	0.737386	-0.017789
 813	4.0600e-01	7.5752	18.298513	-0.000263	-2.626334	-0.889826	-0.021467
 814	4.0650e-01	7.4966	18.219402	0.000194	1.935744	0.655848	-0.015822
 815	4.0700e-01	7.4693	18.159107	0.000148	1.475351	0.499862	-0.012059
 816	4.0750e-01	7.3987	18.090687	0.000167	1.674157	0.567220	-0.013684
 817	4.0800e-01	7.3666	17.992761	0.000240	2.396137	0.811833	-0.019585
 818	4.0850e-01	7.3538	17.884999	0.000264	2.636797	0.893371	-0.021552
 819	4.0900e-01	7.2928	17.806316	0.000193	1.925281	0.652303	-0.015737
 820	4.0950e-01	7.2335	17.721647	0.000207	2.071769	0.701934	-0.016934
 821	4.1000e-01	7.1789	17.660069	0.000151	1.506741	0.510498	-0.012316
 822	4.1050e-01	7.1918	17.521518	-0.000339	-3.390168	-1.148620	-0.027710
 823	4.1100e-01	7.1404	17.442835	0.000193	1.925281	0.652303	-0.015737
 824	4.1150e-01	7.1132	17.356027	0.000212	2.124087	0.719660	-0.017362
 825	4.1200e-01	7.0394	17.305140	0.000125	1.245154	0.421870	-0.010177
 826	4.1250e-01	7.0089	17.213628	0.000224	2.239185	0.758656	-0.018302
 827	4.1300e-01	6.9880	17.084485	0.000316	3.159971	1.070627	-0.025829
 828	4.1350e-01	6.9527	17.003664	0.000198	1.977598	0.670028	-0.016164
 829	4.1400e-01	6.8982	16.939520	0.000157	1.569522	0.531769	-0.012829
 830	4.1450e-01	6.8565	16.830903	0.000266	2.657724	0.900461	-0.021723
 831	4.1500e-01	6.8019	16.786430	0.000109	1.088202	0.368693	-0.008895
 832	4.1550e-01	6.7602	16.653439	0.000325	3.254143	1.102533	-0.026598
 833	4.1600e-01	6.7394	16.599558	0.000132	1.318399	0.446686	-0.010776
 834	4.1650e-01	6.7169	16.497783	0.000249	2.490309	0.843739	-0.020355
 835	4.1700e-01	6.6624	16.402850	0.000232	2.322893	0.787017	-0.018987
 836	4.1750e-01	6.6271	16.324167	0.000193	1.925281	0.652303	-0.015737
 837	4.1800e-01	6.5709	16.225386	0.000242	2.417064	0.818924	-0.019756
 838	4.1850e-01	6.5196	16.170222	0.000135	1.349789	0.457321	-0.011033
 839	4.1900e-01	6.4923	16.071441	0.000242	2.417064	0.818924	-0.019756
 840	4.1950e-01	6.4683	15.923055	0.000363	3.630828	1.230158	-0.029677
 841	4.2000e-01	6.4266	15.850358	0.000178	1.778792	0.602671	-0.014539
 842	4.2050e-01	6.3752	15.780228	0.000172	1.716011	0.581400	-0.014026
 843	4.2100e-01	6.3415	15.675887	0.000255	2.553089	0.865010	-0.020868
 844	4.2150e-01	6.2870	15.645098	0.000075	0.753371	0.255249	-0.006158
 845	4.2200e-01	6.2453	15.506975	0.000338	3.379704	1.145075	-0.027625
 846	4.2250e-01	6.2340	15.425299	0.000200	1.998525	0.677119	-0.016335
 847	4.2300e-01	6.1490	15.358589	0.000163	1.632303	0.553039	-0.013342
 848	4.2350e-01	6.1185	15.259808	0.000242	2.417064	0.818924	-0.019756
 849	4.2400e-01	6.1057	15.156323	0.000253	2.532162	0.857920	-0.020697
 850	4.2450e-01	6.0656	15.043002	0.000277	2.772823	0.939458	-0.022664
 851	4.2500e-01	6.0207	14.980996	0.000152	1.517205	0.514043	-0.012401
 852	4.2550e-01	5.9838	14.888629	0.000226	2.260112	0.765747	-0.018473
 853	4.2600e-01	5.9276	14.809519	0.000194	1.935744	0.655848	-0.015822
 854	4.2650e-01	5.8779	14.738105	0.000175	1.747401	0.592036	-0.014283
 855	4.2700e-01	5.8410	14.634192	0.000254	2.542626	0.861465	-0.020783
 856	4.2750e-01	5.8394	14.522582	0.000273	2.730969	0.925277	-0.022322
 857	4.2800e-01	5.7913	14.452024	0.000173	1.726474	0.584945	-0.014112
 858	4.2850e-01	5.7287	14.349821	0.000250	2.500772	0.847285	-0.020440
 859	4.2900e-01	5.7271	14.250185	0.000244	2.437991	0.826014	-0.019927
 860	4.2950e-01	5.6790	14.156962	0.000228	2.281039	0.772837	-0.018644
 861	4.3000e-01	5.6276	14.107785	0.000120	1.203300	0.407689	-0.009835
 862	4.3050e-01	5.5747	13.982491	0.000307	3.065800	1.038721	-0.025059
 863	4.3100e-01	5.5571	13.884565	0.000240	2.396137	0.811833	-0.019585
 864	4.3150e-01	5.4881	13.836243	0.000118	1.182373	0.400599	-0.009664
 865	4.3200e-01	5.4720	13.704535	0.000322	3.222752	1.091898	-0.026342
 866	4.3250e-01	5.4287	13.666904	0.000092	0.920786	0.311971	-0.007526
 867	4.3300e-01	5.4047	13.492860	0.000426	4.258637	1.442865	-0.034809
 868	4.3350e-01	5.3309	13.436841	0.000137	1.370716	0.464411	-0.011204
 869	4.3400e-01	5.3052	13.346612	0.000221	2.207795	0.748021	-0.018046
 870	4.3450e-01	5.2603	13.270923	0.000185	1.852036	0.627487	-0.015138
 871	4.3500e-01	5.2122	13.168720	0.000250	2.500772	0.847285	-0.020440
 872	4.3550e-01	5.1801	13.081912	0.000212	2.124087	0.719660	-0.017362
 873	4.3600e-01	5.1496	12.974578	0.000263	2.626334	0.889826	-0.021467
 874	4.3650e-01	5.1111	12.876652	0.000240	2.396137	0.811833	-0.019585
 875	4.3700e-01	5.0790	12.784713	0.000225	2.249648	0.762202	-0.018388
 876	4.3750e-01	5.0196	12.694912	0.000220	2.197331	0.744476	-0.017960
 877	4.3800e-01	4.9795	12.633761	0.000150	1.496278	0.506953	-0.012230
 878	4.3850e-01	4.9426	12.515737	0.000289	2.887921	0.978454	-0.023605
 879	4.3900e-01	4.8608	12.460573	0.000135	1.349789	0.457321	-0.011033
 880	4.3950e-01	4.8560	12.315608	0.000355	3.547120	1.201797	-0.028993
 881	4.4000e-01	4.8127	12.268569	0.000115	1.150983	0.389964	-0.009408
 882	4.4050e-01	4.7533	12.172781	0.000234	2.343820	0.794108	-0.019158
 883	4.4100e-01	4.7325	12.062026	0.000271	2.710042	0.918187	-0.022151
 884	4.4150e-01	4.6812	11.955975	0.000259	2.594943	0.879191	-0.021210
 885	4.4200e-01	4.6282	11.887555	0.000167	1.674157	0.567220	-0.013684
 886	4.4250e-01	4.6250	11.798181	0.000219	2.186868	0.740931	-0.017875
 887	4.4300e-01	4.5785	11.675025	0.000301	3.013483	1.020996	-0.024631
 888	4.4350e-01	4.5512	11.567691	0.000263	2.626334	0.889826	-0.021467
 889	4.4400e-01	4.4999	11.469337	0.000241	2.406601	0.815378	-0.019671
 890	4.4450e-01	4.4485	11.407759	0.000151	1.506741	0.510498	-0.012316
 891	4.4500e-01	4.4293	11.270919	0.000335	3.348314	1.134440	-0.027368
 892	4.4550e-01	4.3828	11.216611	0.000133	1.328862	0.450231	-0.010862
 893	4.4600e-01	4.3539	11.112270	0.000255	2.553089	0.865010	-0.020868
 894	4.4650e-01	4.3138	10.997667	0.000280	2.804213	0.950093	-0.022921
 895	4.4700e-01	4.2480	10.918129	0.000195	1.946208	0.659393	-0.015908
 896	4.4750e-01	4.2127	10.825761	0.000226	2.260112	0.765747	-0.018473
 897	4.4800e-01	4.1822	10.714579	0.000272	2.720505	0.921732	-0.022237
 898	4.4850e-01	4.1341	10.632047	0.000202	2.019452	0.684209	-0.016506
 899	4.4900e-01	4.0940	10.516588	0.000283	2.825140	0.957183	-0.023092
 900	4.4950e-01	4.1165	10.398991	-0.000288	-2.877457	-0.974909	-0.023519
 901	4.5000e-01	4.0042	10.346394	0.000129	1.287008	0.436050	-0.010520
 902	4.5050e-01	3.9753	10.244619	0.000249	2.490309	0.843739	-0.020355
 903	4.5100e-01	3.9336	10.177054	0.000165	1.653230	0.560130	-0.013513
 904	4.5150e-01	3.8983	10.065871	0.000272	2.720505	0.921732	-0.022237
 905	4.5200e-01	3.8453	9.969656	0.000235	2.354283	0.797653	-0.019243
 906	4.5250e-01	3.8245	9.861039	0.000266	2.657724	0.900461	-0.021723
 907	4.5300e-01	3.7716	9.803309	0.000141	1.412570	0.478592	-0.011546
 908	4.5350e-01	3.7459	9.685285	0.000289	2.887921	0.978454	-0.023605
 909	4.5400e-01	3.7234	9.545879	0.000341	3.411095	1.155710	-0.027881
 910	4.5450e-01	3.6464	9.496274	0.000121	1.213764	0.411234	-0.009921
 911	4.5500e-01	3.6191	9.385947	0.000270	2.699578	0.914642	-0.022065
 912	4.5550e-01	3.5678	9.300422	0.000209	2.092696	0.709025	-0.017105
 913	4.5600e-01	3.5405	9.159306	0.000345	3.452949	1.169891	-0.028223
 914	4.5650e-01	3.5069	9.115260	0.000108	1.077739	0.365148	-0.008809
 915	4.5700e-01	3.4507	9.004505	0.000271	2.710042	0.918187	-0.022151
 916	4.5750e-01	3.4154	8.907862	0.000236	2.364747	0.801198	-0.019329
 917	4.5800e-01	3.3561	8.834738	0.000179	1.789255	0.606216	-0.014625
 918	4.5850e-01	3.3320	8.729115	0.000258	2.584480	0.875645	-0.021125
 919	4.5900e-01	3.2758	8.623919	0.000257	2.574016	0.872100	-0.021039
 920	4.5950e-01	3.2678	8.535828	0.000216	2.155477	0.730295	-0.017618
 921	4.6000e-01	3.2389	8.388725	0.000360	3.599438	1.219522	-0.029421
 922	4.6050e-01	3.1668	8.324154	0.000158	1.579986	0.535314	-0.012914
 923	4.6100e-01	3.1764	8.210833	-0.000277	-2.772823	-0.939458	-0.022664
 924	4.6150e-01	3.1074	8.092808	0.000289	2.887921	0.978454	-0.023605
 925	4.6200e-01	3.0689	8.010704	0.000201	2.008988	0.680664	-0.016421
 926	4.6250e-01	3.0127	7.915771	0.000232	2.322893	0.787017	-0.018987
 927	4.6300e-01	2.9742	7.810576	0.000257	2.574016	0.872100	-0.021039
 928	4.6350e-01	2.9293	7.723340	0.000213	2.134550	0.723205	-0.017447
 929	4.6400e-01	2.8812	7.643374	0.000196	1.956671	0.662938	-0.015993
 930	4.6450e-01	2.8475	7.506534	0.000335	3.348314	1.134440	-0.027368
 931	4.6500e-01	2.8411	7.390648	0.000284	2.835603	0.960728	-0.023177
 932	4.6550e-01	2.7849	7.302557	0.000216	2.155477	0.730295	-0.017618
 933	4.6600e-01	2.7224	7.212756	0.000220	2.197331	0.744476	-0.017960
 934	4.6650e-01	2.7208	7.081047	0.000322	3.222752	1.091898	-0.026342
 935	4.6700e-01	2.6550	7.003219	0.000190	1.904354	0.645212	-0.015566
 936	4.6750e-01	2.6213	6.915984	0.000213	2.134550	0.723205	-0.017447
 937	4.6800e-01	2.5716	6.820623	0.000233	2.333356	0.790563	-0.019072
 938	4.6850e-01	2.5571	6.691053	0.000317	3.170435	1.074172	-0.025914
 939	4.6900e-01	2.5058	6.611514	0.000195	1.946208	0.659393	-0.015908
 940	4.6950e-01	2.4561	6.547798	0.000156	1.559059	0.528223	-0.012743
 941	4.7000e-01	2.4080	6.404544	0.000351	3.505266	1.187616	-0.028651
 942	4.7050e-01	2.3743	6.314742	0.000220	2.197331	0.744476	-0.017960
 943	4.7100e-01	2.3518	6.205698	0.000267	2.668188	0.904006	-0.021809
 944	4.7150e-01	2.3181	6.063726	0.000347	3.473876	1.176981	-0.028394
 945	4.7200e-01	2.2668	6.003004	0.000149	1.485814	0.503408	-0.012145
 946	4.7250e-01	2.2138	5.890966	0.000274	2.741432	0.928822	-0.022408
 947	4.7300e-01	2.1866	5.770803	0.000294	2.940238	0.996180	-0.024033
 948	4.7350e-01	2.1336	5.707515	0.000155	1.548595	0.524678	-0.012658
 949	4.7400e-01	2.0775	5.592056	0.000283	2.825140	0.957183	-0.023092
 950	4.7450e-01	2.0582	5.530478	0.000151	1.506741	0.510498	-0.012316
 951	4.7500e-01	2.0261	5.349592	0.000443	4.426053	1.499587	-0.036177
 952	4.7550e-01	1.9780	5.287587	0.000152	1.517205	0.514043	-0.012401
 953	4.7600e-01	1.9604	5.146470	0.000345	3.452949	1.169891	-0.028223
 954	4.7650e-01	1.8962	5.091734	0.000134	1.339326	0.453776	-0.010947
 955	4.7700e-01	1.8272	4.997657	0.000230	2.301966	0.779927	-0.018816
 956	4.7750e-01	1.8288	4.871507	-0.000309	-3.086727	-1.045811	-0.025230
 957	4.7800e-01	1.7454	4.728680	0.000349	3.494803	1.184071	-0.028565
 958	4.7850e-01	1.7582	4.683352	-0.000111	-1.109129	-0.375783	-0.009066
 959	4.7900e-01	1.6909	4.558058	0.000307	3.065800	1.038721	-0.025059
 960	4.7950e-01	1.6652	4.444309	0.000278	2.783286	0.943003	-0.022750
 961	4.8000e-01	1.6299	4.332699	0.000273	2.730969	0.925277	-0.022322
 962	4.8050e-01	1.5802	4.247602	0.000208	2.082233	0.705480	-0.017019
 963	4.8100e-01	1.5401	4.152241	0.000233	2.333356	0.790563	-0.019072
 964	4.8150e-01	1.5144	4.020960	0.000321	3.212289	1.088353	-0.026256
 965	4.8200e-01	1.4534	3.901653	0.000292	2.919311	0.989089	-0.023861
 966	4.8250e-01	1.4246	3.806720	0.000232	2.322893	0.787017	-0.018987
 967	4.8300e-01	1.3620	3.746853	0.000146	1.464887	0.496317	-0.011974
 968	4.8350e-01	1.3443	3.582217	0.000403	4.028440	1.364873	-0.032927
 969	4.8400e-01	1.2657	3.515080	0.000164	1.642767	0.556584	-0.013427
 970	4.8450e-01	1.2625	3.400476	0.000280	2.804213	0.950093	-0.022921
 971	4.8500e-01	1.2112	3.314951	0.000209	2.092696	0.709025	-0.017105
 972	4.8550e-01	1.1567	3.200775	0.000279	2.793750	0.946548	-0.022835
 973	4.8600e-01	1.1149	3.134921	0.000161	1.611376	0.545949	-0.013171
 974	4.8650e-01	1.0925	2.957884	0.000433	4.331881	1.467681	-0.035407
 975	4.8700e-01	1.0620	2.877063	0.000198	1.977598	0.670028	-0.016164
 976	4.8750e-01	1.0283	2.750486	0.000310	3.097190	1.049357	-0.025315
 977	4.8800e-01	0.9866	2.653842	0.000236	2.364747	0.801198	-0.019329
 978	4.8850e-01	0.9465	2.542232	0.000273	2.730969	0.925277	-0.022322
 979	4.8900e-01	0.9128	2.423780	0.000290	2.898384	0.981999	-0.023690
 980	4.8950e-01	0.8583	2.360919	0.000154	1.538132	0.521133	-0.012572
 981	4.9000e-01	0.8198	2.221086	0.000342	3.421558	1.159255	-0.027967
 982	4.9050e-01	0.7797	2.120594	0.000246	2.458918	0.833104	-0.020098
 983	4.9100e-01	0.7187	2.031220	0.000219	2.186868	0.740931	-0.017875
 984	4.9150e-01	0.7123	1.881979	0.000365	3.651755	1.237248	-0.029848
 985	4.9200e-01	0.6529	1.792178	0.000220	2.197331	0.744476	-0.017960
 986	4.9250e-01	0.6289	1.681423	0.000271	2.710042	0.918187	-0.022151
 987	4.9300e-01	0.5904	1.569812	0.000273	2.730969	0.925277	-0.022322
 988	4.9350e-01	0.5535	1.420999	0.000364	3.641292	1.233703	-0.029763
 989	4.9400e-01	0.4877	1.386361	0.000085	0.847542	0.287155	-0.006928
 990	4.9450e-01	0.4364	1.285014	0.000248	2.479845	0.840194	-0.020269
 991	4.9500e-01	0.4251	1.142187	0.000349	3.494803	1.184071	-0.028565
 992	4.9550e-01	0.3898	1.066070	0.000186	1.862500	0.631032	-0.015223
 993	4.9600e-01	0.3353	0.927947	0.000338	3.379704	1.145075	-0.027625
 994	4.9650e-01	0.2872	0.816764	0.000272	2.720505	0.921732	-0.022237
 995	4.9700e-01	0.2631	0.667951	0.000364	3.641292	1.233703	-0.029763
 996	4.9750e-01	0.2519	0.567031	0.000247	2.469382	0.836649	-0.020184
 997	4.9800e-01	0.1684	0.496901	0.000172	1.716011	0.581400	-0.014026
 998	4.9850e-01	0.1348	0.408382	0.000217	2.165941	0.733841	-0.017704
 999	4.9900e-01	0.0930	0.276246	0.000323	3.233216	1.095443	-0.026427
1000	4.9950e-01	0.0850	0.132564	0.000352	3.515730	1.191161	-0.028736
1001	5.0000e-01	0.0770	0.025230	0.000263	2.626334	0.889826	-0.021467
1002	5.0050e-01	-0.0257	-0.033782	0.000144	1.443960	0.489227	-0.011802
1003	5.0100e-01	-0.0529	-0.129998	0.000235	2.354283	0.797653	-0.019243
1004	5.0150e-01	-0.0850	-0.221938	0.000225	2.249648	0.762202	-0.018388
1005	5.0200e-01	-0.1364	-0.346376	0.000304	3.044873	1.031631	-0.024888
1006	5.0250e-01	-0.1540	-0.434467	0.000216	2.155477	0.730295	-0.017618
1007	5.0300e-01	-0.2102	-0.565321	0.000320	3.201825	1.084808	-0.026171
1008	5.0350e-01	-0.2406	-0.652556	0.000213	2.134550	0.723205	-0.017447
1009	5.0400e-01	-0.3080	-0.790679	0.000338	3.379704	1.145075	-0.027625
1010	5.0450e-01	-0.3481	-0.871928	0.000199	1.988061	0.673573	-0.016250
1011	5.0500e-01	-0.3738	-1.015182	0.000351	3.505266	1.187616	-0.028651
1012	5.0550e-01	-0.4123	-1.072484	0.000140	1.402107	0.475047	-0.011460
1013	5.0600e-01	-0.4588	-1.183239	0.000271	2.710042	0.918187	-0.022151
1014	5.0650e-01	-0.4957	-1.311527	0.000314	3.139044	1.063537	-0.025658
1015	5.0700e-01	-0.5310	-1.432972	0.000297	2.971629	1.006815	-0.024289
1016	5.0750e-01	-0.5823	-1.475307	0.000104	1.035885	0.350967	-0.008467
1017	5.0800e-01	-0.6337	-1.602312	0.000311	3.107654	1.052902	-0.025401
1018	5.0850e-01	-0.6545	-1.731455	0.000316	3.159971	1.070627	-0.025829
1019	5.0900e-01	-0.7010	-1.828526	0.000238	2.375210	0.804743	-0.019414
1020	5.0950e-01	-0.7652	-1.925597	0.000238	2.375210	0.804743	-0.019414
1021	5.1000e-01	-0.7813	-2.043194	0.000288	2.877457	0.974909	-0.023519
1022	5.1050e-01	-0.8438	-2.130429	0.000213	2.134550	0.723205	-0.017447
1023	5.1100e-01	-0.8615	-2.266414	0.000333	3.327387	1.127349	-0.027197
1024	5.1150e-01	-0.8871	-2.366906	0.000246	2.458918	0.833104	-0.020098
1025	5.1200e-01	-0.9417	-2.465260	0.000241	2.406601	0.815378	-0.019671
1026	5.1250e-01	-0.9930	-2.573021	0.000264	2.636797	0.893371	-0.021552
1027	5.1300e-01	-1.0107	-2.673941	0.000247	2.469382	0.836649	-0.020184
1028	5.1350e-01	-1.0764	-2.779137	0.000257	2.574016	0.872100	-0.021039
1029	5.1400e-01	-1.0973	-2.894595	0.000283	2.825140	0.957183	-0.023092
1030	5.1450e-01	-1.1165	-3.020745	0.000309	3.086727	1.045811	-0.025230
1031	5.1500e-01	-1.1984	-3.079757	0.000144	1.443960	0.489227	-0.011802
1032	5.1550e-01	-1.2016	-3.237123	0.000385	3.850561	1.304605	-0.031473
1033	5.1600e-01	-1.2641	-3.313668	0.000187	1.872963	0.634577	-0.015309
1034	5.1650e-01	-1.3042	-3.403897	0.000221	2.207795	0.748021	-0.018046
1035	5.1700e-01	-1.3540	-3.496692	0.000227	2.270575	0.769292	-0.018559
1036	5.1750e-01	-1.3668	-3.649782	0.000375	3.745926	1.269154	-0.030618
1037	5.1800e-01	-1.4181	-3.710505	0.000149	1.485814	0.503408	-0.012145
1038	5.1850e-01	-1.4631	-3.837937	0.000312	3.118117	1.056447	-0.025486
1039	5.1900e-01	-1.4839	-3.932442	0.000231	2.312429	0.783472	-0.018901
1040	5.1950e-01	-1.5336	-4.028658	0.000235	2.354283	0.797653	-0.019243
1041	5.2000e-01	-1.5513	-4.158656	0.000318	3.180898	1.077718	-0.026000
1042	5.2050e-01	-1.6090	-4.277536	0.000291	2.908848	0.985544	-0.023776
1043	5.2100e-01	-1.6700	-4.334837	0.000140	1.402107	0.475047	-0.011460
1044	5.2150e-01	-1.6812	-4.454572	0.000293	2.929775	0.992635	-0.023947
1045	5.2200e-01	-1.7727	-4.550361	0.000234	2.343820	0.794108	-0.019158
1046	5.2250e-01	-1.7951	-4.656839	0.000261	2.605407	0.882736	-0.021296
1047	5.2300e-01	-1.7903	-4.794962	-0.000338	-3.379704	-1.145075	-0.027625
1048	5.2350e-01	-1.8320	-4.861672	0.000163	1.632303	0.553039	-0.013342
1049	5.2400e-01	-1.8834	-4.977131	0.000283	2.825140	0.957183	-0.023092
1050	5.2450e-01	-1.9411	-5.104991	0.000313	3.128581	1.059992	-0.025572
1051	5.2500e-01	-1.9540	-5.183674	0.000193	1.925281	0.652303	-0.015737
1052	5.2550e-01	-2.0294	-5.320941	0.000336	3.358778	1.137985	-0.027454
1053	5.2600e-01	-2.0598	-5.353868	0.000081	0.805688	0.272975	-0.006585
1054	5.2650e-01	-2.0935	-5.461630	0.000264	2.636797	0.893371	-0.021552
1055	5.2700e-01	-2.1256	-5.581793	0.000294	2.940238	0.996180	-0.024033
1056	5.2750e-01	-2.1577	-5.723337	0.000346	3.463412	1.173436	-0.028309
1057	5.2800e-01	-2.2251	-5.766527	0.000106	1.056812	0.358057	-0.008638
1058	5.2850e-01	-2.2620	-5.878137	0.000273	2.730969	0.925277	-0.022322
1059	5.2900e-01	-2.3085	-6.003431	0.000307	3.065800	1.038721	-0.025059
1060	5.2950e-01	-2.3374	-6.073562	0.000172	1.716011	0.581400	-0.014026
1061	5.3000e-01	-2.3566	-6.236915	0.000400	3.997050	1.354237	-0.032671
1062	5.3050e-01	-2.4272	-6.272835	0.000088	0.878932	0.297790	-0.007184
1063	5.3100e-01	-2.4449	-6.407109	0.000329	3.285533	1.113169	-0.026855
1064	5.3150e-01	-2.5026	-6.517864	0.000271	2.710042	0.918187	-0.022151
1065	5.3200e-01	-2.5539	-6.596547	0.000193	1.925281	0.652303	-0.015737
1066	5.3250e-01	-2.5892	-6.675658	0.000194	1.935744	0.655848	-0.015822
1067	5.3300e-01	-2.6293	-6.777861	0.000250	2.500772	0.847285	-0.020440
1068	5.3350e-01	-2.6710	-6.863386	0.000209	2.092696	0.709025	-0.017105
1069	5.3400e-01	-2.7063	-6.994667	0.000321	3.212289	1.088353	-0.026256
1070	5.3450e-01	-2.7352	-7.097724	0.000252	2.521699	0.854375	-0.020612
1071	5.3500e-01	-2.7753	-7.216177	0.000290	2.898384	0.981999	-0.023690
1072	5.3550e-01	-2.8234	-7.288018	0.000176	1.757865	0.595581	-0.014368
1073	5.3600e-01	-2.8620	-7.399200	0.000272	2.720505	0.921732	-0.022237
1074	5.3650e-01	-2.8956	-7.497554	0.000241	2.406601	0.815378	-0.019671
1075	5.3700e-01	-2.9694	-7.600184	0.000251	2.511236	0.850830	-0.020526
1076	5.3750e-01	-2.9502	-7.751563	-0.000370	-3.704072	-1.254974	-0.030276
1077	5.3800e-01	-3.0015	-7.797747	0.000113	1.130056	0.382873	-0.009237
1078	5.3850e-01	-3.0609	-7.926034	0.000314	3.139044	1.063537	-0.025658
1079	5.3900e-01	-3.1202	-7.939291	0.000032	0.324368	0.109899	-0.002651
1080	5.3950e-01	-3.1443	-8.074420	0.000331	3.306460	1.120259	-0.027026
1081	5.4000e-01	-3.1844	-8.135998	0.000151	1.506741	0.510498	-0.012316
1082	5.4050e-01	-3.2197	-8.294647	0.000388	3.881952	1.315241	-0.031730
1083	5.4100e-01	-3.2758	-8.351949	0.000140	1.402107	0.475047	-0.011460
1084	5.4150e-01	-3.3127	-8.444316	0.000226	2.260112	0.765747	-0.018473
1085	5.4200e-01	-3.3159	-8.587571	0.000351	3.505266	1.187616	-0.028651
1086	5.4250e-01	-3.3930	-8.632899	0.000111	1.109129	0.375783	-0.009066
1087	5.4300e-01	-3.4138	-8.773588	0.000344	3.442485	1.166346	-0.028138
1088	5.4350e-01	-3.4764	-8.870659	0.000238	2.375210	0.804743	-0.019414
1089	5.4400e-01	-3.5036	-8.942500	0.000176	1.757865	0.595581	-0.014368
1090	5.4450e-01	-3.5421	-9.027170	0.000207	2.071769	0.701934	-0.016934
1091	5.4500e-01	-3.5694	-9.148188	0.000296	2.961165	1.003270	-0.024204
1092	5.4550e-01	-3.5967	-9.234995	0.000212	2.124087	0.719660	-0.017362
1093	5.4600e-01	-3.6929	-9.308547	0.000180	1.799719	0.609761	-0.014710
1094	5.4650e-01	-3.6913	-9.430848	-0.000299	-2.992556	-1.013905	-0.024460
1095	5.4700e-01	-3.7058	-9.573247	0.000348	3.484339	1.180526	-0.028480
1096	5.4750e-01	-3.7764	-9.648937	0.000185	1.852036	0.627487	-0.015138
1097	5.4800e-01	-3.8277	-9.703673	0.000134	1.339326	0.453776	-0.010947
1098	5.4850e-01	-3.8534	-9.820842	0.000287	2.866994	0.971364	-0.023434
1099	5.4900e-01	-3.8951	-9.904229	0.000204	2.040379	0.691299	-0.016677
1100	5.4950e-01	-3.9544	-9.985905	0.000200	1.998525	0.677119	-0.016335
1101	5.5000e-01	-3.9769	-10.080411	0.000231	2.312429	0.783472	-0.018901
1102	5.5050e-01	-4.0106	-10.187317	0.000262	2.615870	0.886281	-0.021381
1103	5.5100e-01	-4.0764	-10.271131	0.000205	2.050842	0.694844	-0.016763
1104	5.5150e-01	-4.1052	-10.368630	0.000239	2.385674	0.808288	-0.019500
1105	5.5200e-01	-4.1229	-10.499483	0.000320	3.201825	1.084808	-0.026171
1106	5.5250e-01	-4.1678	-10.560206	0.000149	1.485814	0.503408	-0.012145
1107	5.5300e-01	-4.1999	-10.702178	0.000347	3.473876	1.176981	-0.028394
1108	5.5350e-01	-4.2352	-10.780433	0.000191	1.914817	0.648758	-0.015651
1109	5.5400e-01	-4.2849	-10.858261	0.000190	1.904354	0.645212	-0.015566
1110	5.5450e-01	-4.3186	-10.933523	0.000184	1.841573	0.623942	-0.015052
1111	5.5500e-01	-4.3780	-11.012634	0.000194	1.935744	0.655848	-0.015822
1112	5.5550e-01	-4.4132	-11.175559	0.000399	3.986586	1.350692	-0.032585
1113	5.5600e-01	-4.4758	-11.232433	0.000139	1.391643	0.471501	-0.011375
1114	5.5650e-01	-4.4774	-11.323517	0.000223	2.228722	0.755111	-0.018217
1115	5.5700e-01	-4.5480	-11.374405	0.000125	1.245154	0.421870	-0.010177
1116	5.5750e-01	-4.6106	-11.452660	0.000191	1.914817	0.648758	-0.015651
1117	5.5800e-01	-4.6346	-11.553580	0.000247	2.469382	0.836649	-0.020184
1118	5.5850e-01	-4.6555	-11.674170	0.000295	2.950702	0.999725	-0.024118
1119	5.5900e-01	-4.6988	-11.814431	0.000343	3.432022	1.162800	-0.028052
1120	5.5950e-01	-4.7132	-11.902094	0.000215	2.145014	0.726750	-0.017533
1121	5.6000e-01	-4.7566	-11.930745	0.000070	0.701053	0.237523	-0.005730
1122	5.6050e-01	-4.7967	-12.105644	0.000428	4.279564	1.449955	-0.034980
1123	5.6100e-01	-4.8464	-12.153538	0.000117	1.171910	0.397054	-0.009579
1124	5.6150e-01	-4.9106	-12.210412	0.000139	1.391643	0.471501	-0.011375
1125	5.6200e-01	-4.9314	-12.338272	0.000313	3.128581	1.059992	-0.025572
1126	5.6250e-01	-4.9747	-12.424225	0.000210	2.103160	0.712570	-0.017191
1127	5.6300e-01	-5.0389	-12.485803	0.000151	1.506741	0.510498	-0.012316
1128	5.6350e-01	-5.0405	-12.609814	0.000303	3.034410	1.028086	-0.024802
1129	5.6400e-01	-5.0886	-12.713299	0.000253	2.532162	0.857920	-0.020697
1130	5.6450e-01	-5.1384	-12.768891	0.000136	1.360253	0.460866	-0.011118
1131	5.6500e-01	-5.1624	-12.886915	0.000289	2.887921	0.978454	-0.023605
1132	5.6550e-01	-5.2105	-12.977572	0.000222	2.218258	0.751566	-0.018131
1133	5.6600e-01	-5.2555	-13.037439	0.000146	1.464887	0.496317	-0.011974
1134	5.6650e-01	-5.3100	-13.119971	0.000202	2.019452	0.684209	-0.016506
1135	5.6700e-01	-5.3517	-13.253390	0.000326	3.264606	1.106079	-0.026684
1136	5.6750e-01	-5.3742	-13.343619	0.000221	2.207795	0.748021	-0.018046
1137	5.6800e-01	-5.4560	-13.372270	0.000070	0.701053	0.237523	-0.005730
1138	5.6850e-01	-5.4752	-13.510393	0.000338	3.379704	1.145075	-0.027625
1139	5.6900e-01	-5.4865	-13.560853	0.000123	1.234691	0.418325	-0.010092
1140	5.6950e-01	-5.5474	-13.689140	0.000314	3.139044	1.063537	-0.025658
1141	5.7000e-01	-5.5683	-13.770817	0.000200	1.998525	0.677119	-0.016335
1142	5.7050e-01	-5.6357	-13.855914	0.000208	2.082233	0.705480	-0.017019
1143	5.7100e-01	-5.6469	-13.962820	0.000262	2.615870	0.886281	-0.021381
1144	5.7150e-01	-5.7079	-14.074858	0.000274	2.741432	0.928822	-0.022408
1145	5.7200e-01	-5.7175	-14.144561	0.000171	1.705547	0.577855	-0.013941
1146	5.7250e-01	-5.7977	-14.198870	0.000133	1.328862	0.450231	-0.010862
1147	5.7300e-01	-5.8105	-14.322453	0.000302	3.023946	1.024541	-0.024717
1148	5.7350e-01	-5.8667	-14.397715	0.000184	1.841573	0.623942	-0.015052
1149	5.7400e-01	-5.9036	-14.489227	0.000224	2.239185	0.758656	-0.018302
1150	5.7450e-01	-5.9325	-14.555937	0.000163	1.632303	0.553039	-0.013342
1151	5.7500e-01	-5.9453	-14.676527	0.000295	2.950702	0.999725	-0.024118
1152	5.7550e-01	-6.0255	-14.783861	0.000263	2.626334	0.889826	-0.021467
1153	5.7600e-01	-6.0704	-14.842018	0.000142	1.423033	0.482137	-0.011631
1154	5.7650e-01	-6.0865	-14.952773	0.000271	2.710042	0.918187	-0.022151
1155	5.7700e-01	-6.1763	-15.010075	0.000140	1.402107	0.475047	-0.011460
1156	5.7750e-01	-6.1570	-15.119974	-0.000269	-2.689115	-0.911097	-0.021980
1157	5.7800e-01	-6.2100	-15.159744	0.000097	0.973104	0.329696	-0.007954
1158	5.7850e-01	-6.2597	-15.285038	0.000307	3.065800	1.038721	-0.025059
1159	5.7900e-01	-6.3094	-15.345333	0.000148	1.475351	0.499862	-0.012059
1160	5.7950e-01	-6.3159	-15.504410	0.000389	3.892415	1.318786	-0.031815
1161	5.8000e-01	-6.3848	-15.524936	0.000050	0.502247	0.170166	-0.004105
1162	5.8050e-01	-6.3865	-15.648519	0.000302	3.023946	1.024541	-0.024717
1163	5.8100e-01	-6.4314	-15.766116	0.000288	2.877457	0.974909	-0.023519
1164	5.8150e-01	-6.4875	-15.825984	0.000146	1.464887	0.496317	-0.011974
1165	5.8200e-01	-6.5324	-15.911081	0.000208	2.082233	0.705480	-0.017019
1166	5.8250e-01	-6.5886	-15.937166	0.000064	0.638272	0.216253	-0.005217
1167	5.8300e-01	-6.6062	-16.060750	0.000302	3.023946	1.024541	-0.024717
1168	5.8350e-01	-6.6576	-16.147986	0.000213	2.134550	0.723205	-0.017447
1169	5.8400e-01	-6.6929	-16.251899	0.000254	2.542626	0.861465	-0.020783
1170	5.8450e-01	-6.7442	-16.323312	0.000175	1.747401	0.592036	-0.014283
1171	5.8500e-01	-6.7955	-16.395153	0.000176	1.757865	0.595581	-0.014368
1172	5.8550e-01	-6.7987	-16.570052	0.000428	4.279564	1.449955	-0.034980
1173	5.8600e-01	-6.8886	-16.604689	0.000085	0.847542	0.287155	-0.006928
1174	5.8650e-01	-6.8741	-16.675675	-0.000174	-1.736938	-0.588490	-0.014197
1175	5.8700e-01	-6.9560	-16.760345	0.000207	2.071769	0.701934	-0.016934
1176	5.8750e-01	-7.0057	-16.837745	0.000189	1.893890	0.641667	-0.015480
1177	5.8800e-01	-7.0538	-16.924981	0.000213	2.134550	0.723205	-0.017447
1178	5.8850e-01	-7.0602	-16.995967	0.000174	1.736938	0.588490	-0.014197
1179	5.8900e-01	-7.1180	-17.091327	0.000233	2.333356	0.790563	-0.019072
1180	5.8950e-01	-7.1436	-17.205075	0.000278	2.783286	0.943003	-0.022750
1181	5.9000e-01	-7.1613	-17.288035	0.000203	2.029915	0.687754	-0.016592
1182	5.9050e-01	-7.2207	-17.331652	0.000107	1.067275	0.361603	-0.008724
1183	5.9100e-01	-7.2575	-17.441552	0.000269	2.689115	0.911097	-0.021980
1184	5.9150e-01	-7.2944	-17.519380	0.000190	1.904354	0.645212	-0.015566
1185	5.9200e-01	-7.3169	-17.628852	0.000268	2.678651	0.907552	-0.021894
1186	5.9250e-01	-7.3859	-17.707107	0.000191	1.914817	0.648758	-0.015651
1187	5.9300e-01	-7.4148	-17.822139	0.000281	2.814676	0.953638	-0.023006
1188	5.9350e-01	-7.4468	-17.875592	0.000131	1.307935	0.443140	-0.010691
1189	5.9400e-01	-7.4837	-17.975656	0.000245	2.448455	0.829559	-0.020013
1190	5.9450e-01	-7.5415	-18.062892	0.000213	2.134550	0.723205	-0.017447
1191	5.9500e-01	-7.5720	-18.116772	0.000132	1.318399	0.446686	-0.010776
1192	5.9550e-01	-7.6345	-18.194173	0.000189	1.893890	0.641667	-0.015480
1193	5.9600e-01	-7.6666	-18.326309	0.000323	3.233216	1.095443	-0.026427
1194	5.9650e-01	-7.6859	-18.378051	0.000127	1.266081	0.428960	-0.010349
1195	5.9700e-01	-7.7645	-18.446044	0.000166	1.663694	0.563675	-0.013598
1196	5.9750e-01	-7.7837	-18.556799	0.000271	2.710042	0.918187	-0.022151
1197	5.9800e-01	-7.8303	-18.605976	0.000120	1.203300	0.407689	-0.009835
1198	5.9850e-01	-7.8399	-18.737257	0.000321	3.212289	1.088353	-0.026256
1199	5.9900e-01	-7.9008	-18.787716	0.000123	1.234691	0.418325	-0.010092
1200	5.9950e-01	-7.9345	-18.900182	0.000275	2.751896	0.932367	-0.022493
1201	6.0000e-01	-7.9795	-18.965609	0.000160	1.600913	0.542404	-0.013085
1202	6.0050e-01	-8.0019	-19.066100	0.000246	2.458918	0.833104	-0.020098
1203	6.0100e-01	-8.0484	-19.165737	0.000244	2.437991	0.826014	-0.019927
1204	6.0150e-01	-8.0950	-19.224749	0.000144	1.443960	0.489227	-0.011802
1205	6.0200e-01	-8.1479	-19.301294	0.000187	1.872963	0.634577	-0.015309
1206	6.0250e-01	-8.1768	-19.402642	0.000248	2.479845	0.840194	-0.020269
1207	6.0300e-01	-8.2281	-19.435569	0.000081	0.805688	0.272975	-0.006585
1208	6.0350e-01	-8.2730	-19.559152	0.000302	3.023946	1.024541	-0.024717
1209	6.0400e-01	-8.3051	-19.667769	0.000266	2.657724	0.900461	-0.021723
1210	6.0450e-01	-8.3484	-19.699841	0.000078	0.784761	0.265884	-0.006414
1211	6.0500e-01	-8.3837	-19.792636	0.000227	2.270575	0.769292	-0.018559
1212	6.0550e-01	-8.4190	-19.899115	0.000261	2.605407	0.882736	-0.021296
1213	6.0600e-01	-8.4703	-20.005166	0.000259	2.594943	0.879191	-0.021210
1214	6.0650e-01	-8.5056	-20.048783	0.000107	1.067275	0.361603	-0.008724
1215	6.0700e-01	-8.5185	-20.144144	0.000233	2.333356	0.790563	-0.019072
1216	6.0750e-01	-8.5778	-20.209143	0.000159	1.590449	0.538859	-0.013000
1217	6.0800e-01	-8.6003	-20.308352	0.000243	2.427528	0.822469	-0.019842
1218	6.0850e-01	-8.6613	-20.396015	0.000215	2.145014	0.726750	-0.017533
1219	6.0900e-01	-8.6661	-20.529007	0.000325	3.254143	1.102533	-0.026598
1220	6.0950e-01	-8.7447	-20.556375	0.000067	0.669663	0.226888	-0.005474
1221	6.1000e-01	-8.7848	-20.644038	0.000215	2.145014	0.726750	-0.017533
1222	6.1050e-01	-8.8185	-20.733411	0.000219	2.186868	0.740931	-0.017875
1223	6.1100e-01	-8.8457	-20.806535	0.000179	1.789255	0.606216	-0.014625
1224	6.1150e-01	-8.9003	-20.901041	0.000231	2.312429	0.783472	-0.018901
1225	6.1200e-01	-8.9260	-20.968178	0.000164	1.642767	0.556584	-0.013427
1226	6.1250e-01	-8.9821	-21.038736	0.000173	1.726474	0.584945	-0.014112
1227	6.1300e-01	-9.0142	-21.131103	0.000226	2.260112	0.765747	-0.018473
1228	6.1350e-01	-9.0639	-21.219194	0.000216	2.155477	0.730295	-0.017618
1229	6.1400e-01	-9.1008	-21.284620	0.000160	1.600913	0.542404	-0.013085
1230	6.1450e-01	-9.1297	-21.368863	0.000206	2.061306	0.698389	-0.016848
1231	6.1500e-01	-9.1714	-21.478335	0.000268	2.678651	0.907552	-0.021894
1232	6.1550e-01	-9.1826	-21.565570	0.000213	2.134550	0.723205	-0.017447
1233	6.1600e-01	-9.2532	-21.635701	0.000172	1.716011	0.581400	-0.014026
1234	6.1650e-01	-9.3126	-21.688299	0.000129	1.287008	0.436050	-0.010520
1235	6.1700e-01	-9.3527	-21.758857	0.000173	1.726474	0.584945	-0.014112
1236	6.1750e-01	-9.3848	-21.886289	0.000312	3.118117	1.056447	-0.025486
1237	6.1800e-01	-9.4505	-21.929907	0.000107	1.067275	0.361603	-0.008724
1238	6.1850e-01	-9.4537	-22.035958	0.000259	2.594943	0.879191	-0.021210
1239	6.1900e-01	-9.4810	-22.141154	0.000257	2.574016	0.872100	-0.021039
1240	6.1950e-01	-9.5307	-22.218126	0.000188	1.883427	0.638122	-0.015395
1241	6.2000e-01	-9.5789	-22.251054	0.000081	0.805688	0.272975	-0.006585
1242	6.2050e-01	-9.6029	-22.367368	0.000285	2.846067	0.964274	-0.023263
1243	6.2100e-01	-9.6446	-22.453320	0.000210	2.103160	0.712570	-0.017191
1244	6.2150e-01	-9.6960	-22.481544	0.000069	0.690590	0.233978	-0.005645
1245	6.2200e-01	-9.7297	-22.610686	0.000316	3.159971	1.070627	-0.025829
1246	6.2250e-01	-9.7890	-22.658580	0.000117	1.171910	0.397054	-0.009579
1247	6.2300e-01	-9.8195	-22.755224	0.000236	2.364747	0.801198	-0.019329
1248	6.2350e-01	-9.8805	-22.806111	0.000125	1.245154	0.421870	-0.010177
1249	6.2400e-01	-9.9158	-22.926274	0.000294	2.940238	0.996180	-0.024033
1250	6.2450e-01	-9.9286	-23.003674	0.000189	1.893890	0.641667	-0.015480
1251	6.2500e-01	-9.9751	-23.072522	0.000168	1.684621	0.570765	-0.013770
1252	6.2550e-01	-10.0297	-23.168310	0.000234	2.343820	0.794108	-0.019158
1253	6.2600e-01	-10.0457	-23.244427	0.000186	1.862500	0.631032	-0.015223
1254	6.2650e-01	-10.1051	-23.312847	0.000167	1.674157	0.567220	-0.013684
1255	6.2700e-01	-10.1388	-23.406925	0.000230	2.301966	0.779927	-0.018816
1256	6.2750e-01	-10.1869	-23.490739	0.000205	2.050842	0.694844	-0.016763
1257	6.2800e-01	-10.2206	-23.548469	0.000141	1.412570	0.478592	-0.011546
1258	6.2850e-01	-10.2815	-23.642546	0.000230	2.301966	0.779927	-0.018816
1259	6.2900e-01	-10.3168	-23.711394	0.000168	1.684621	0.570765	-0.013770
1260	6.2950e-01	-10.3361	-23.784090	0.000178	1.778792	0.602671	-0.014539
1261	6.3000e-01	-10.3842	-23.859352	0.000184	1.841573	0.623942	-0.015052
1262	6.3050e-01	-10.3970	-23.978232	0.000291	2.908848	0.985544	-0.023776
1263	6.3100e-01	-10.4548	-24.066750	0.000217	2.165941	0.733841	-0.017704
1264	6.3150e-01	-10.4997	-24.143295	0.000187	1.872963	0.634577	-0.015309
1265	6.3200e-01	-10.5398	-24.223689	0.000197	1.967134	0.666483	-0.016079
1266	6.3250e-01	-10.5879	-24.299379	0.000185	1.852036	0.627487	-0.015138
1267	6.3300e-01	-10.6040	-24.360529	0.000150	1.496278	0.506953	-0.012230
1268	6.3350e-01	-10.6762	-24.426811	0.000162	1.621840	0.549494	-0.013256
1269	6.3400e-01	-10.7083	-24.485396	0.000143	1.433497	0.485682	-0.011717
1270	6.3450e-01	-10.7275	-24.609835	0.000304	3.044873	1.031631	-0.024888
1271	6.3500e-01	-10.7949	-24.669702	0.000146	1.464887	0.496317	-0.011974
1272	6.3550e-01	-10.7933	-24.724011	-0.000133	-1.328862	-0.450231	-0.010862
1273	6.3600e-01	-10.8542	-24.830062	0.000259	2.594943	0.879191	-0.021210
1274	6.3650e-01	-10.8751	-24.919008	0.000218	2.176404	0.737386	-0.017789
1275	6.3700e-01	-10.9473	-24.977592	0.000143	1.433497	0.485682	-0.011717
1276	6.3750e-01	-10.9874	-25.057131	0.000195	1.946208	0.659393	-0.015908
1277	6.3800e-01	-11.0291	-25.093051	0.000088	0.878932	0.297790	-0.007184
1278	6.3850e-01	-11.0564	-25.204234	0.000272	2.720505	0.921732	-0.022237
1279	6.3900e-01	-11.0997	-25.301305	0.000238	2.375210	0.804743	-0.019414
1280	6.3950e-01	-11.1350	-25.365876	0.000158	1.579986	0.535314	-0.012914
1281	6.4000e-01	-11.1590	-25.461236	0.000233	2.333356	0.790563	-0.019072
1282	6.4050e-01	-11.2296	-25.516400	0.000135	1.349789	0.457321	-0.011033
1283	6.4100e-01	-11.2553	-25.591235	0.000183	1.831109	0.620397	-0.014967
1284	6.4150e-01	-11.2633	-25.746035	0.000379	3.787780	1.283335	-0.030960
1285	6.4200e-01	-11.3179	-25.781955	0.000088	0.878932	0.297790	-0.007184
1286	6.4250e-01	-11.3884	-25.800343	0.000045	0.449930	0.152440	-0.003678
1287	6.4300e-01	-11.4286	-25.907677	0.000263	2.626334	0.889826	-0.021467
1288	6.4350e-01	-11.4286	-25.961986	0.000133	1.328862	0.450231	-0.010862
1289	6.4400e-01	-11.5023	-26.076589	0.000280	2.804213	0.950093	-0.022921
1290	6.4450e-01	-11.5457	-26.142444	0.000161	1.611376	0.545949	-0.013171
1291	6.4500e-01	-11.5922	-26.222409	0.000196	1.956671	0.662938	-0.015993
1292	6.4550e-01	-11.6243	-26.311783	0.000219	2.186868	0.740931	-0.017875
1293	6.4600e-01	-11.6515	-26.393460	0.000200	1.998525	0.677119	-0.016335
1294	6.4650e-01	-11.7045	-26.468294	0.000183	1.831109	0.620397	-0.014967
1295	6.4700e-01	-11.7430	-26.552109	0.000205	2.050842	0.694844	-0.016763
1296	6.4750e-01	-11.7863	-26.614114	0.000152	1.517205	0.514043	-0.012401
1297	6.4800e-01	-11.8200	-26.694508	0.000197	1.967134	0.666483	-0.016079
1298	6.4850e-01	-11.8569	-26.774474	0.000196	1.956671	0.662938	-0.015993
1299	6.4900e-01	-11.9178	-26.829637	0.000135	1.349789	0.457321	-0.011033
1300	6.4950e-01	-11.9467	-26.913880	0.000206	2.061306	0.698389	-0.016848
1301	6.5000e-01	-11.9948	-26.977596	0.000156	1.559059	0.528223	-0.012743
1302	6.5050e-01	-12.0141	-27.069108	0.000224	2.239185	0.758656	-0.018302
1303	6.5100e-01	-12.0398	-27.170882	0.000249	2.490309	0.843739	-0.020355
1304	6.5150e-01	-12.0959	-27.235454	0.000158	1.579986	0.535314	-0.012914
1305	6.5200e-01	-12.1376	-27.312426	0.000188	1.883427	0.638122	-0.015395
1306	6.5250e-01	-12.1713	-27.378708	0.000162	1.621840	0.549494	-0.013256
1307	6.5300e-01	-12.2515	-27.428740	0.000122	1.224227	0.414779	-0.010006
1308	6.5350e-01	-12.2595	-27.566863	0.000338	3.379704	1.145075	-0.027625
1309	6.5400e-01	-12.3141	-27.624593	0.000141	1.412570	0.478592	-0.011546
1310	6.5450e-01	-12.3526	-27.685743	0.000150	1.496278	0.506953	-0.012230
1311	6.5500e-01	-12.3895	-27.769985	0.000206	2.061306	0.698389	-0.016848
1312	6.5550e-01	-12.4424	-27.816169	0.000113	1.130056	0.382873	-0.009237
1313	6.5600e-01	-12.4665	-27.902977	0.000212	2.124087	0.719660	-0.017362
1314	6.5650e-01	-12.5130	-27.948733	0.000112	1.119593	0.379328	-0.009151
1315	6.5700e-01	-12.5451	-28.043666	0.000232	2.322893	0.787017	-0.018987
1316	6.5750e-01	-12.5788	-28.164683	0.000296	2.961165	1.003270	-0.024204
1317	6.5800e-01	-12.6365	-28.181788	0.000042	0.418539	0.141805	-0.003421
1318	6.5850e-01	-12.6349	-28.267741	-0.000210	-2.103160	-0.712570	-0.017191
1319	6.5900e-01	-12.6895	-28.342576	0.000183	1.831109	0.620397	-0.014967
1320	6.5950e-01	-12.7504	-28.451620	0.000267	2.668188	0.904006	-0.021809
1321	6.6000e-01	-12.7970	-28.503363	0.000127	1.266081	0.428960	-0.010349
1322	6.6050e-01	-12.8274	-28.570072	0.000163	1.632303	0.553039	-0.013342
1323	6.6100e-01	-12.8868	-28.663295	0.000228	2.281039	0.772837	-0.018644
1324	6.6150e-01	-12.8740	-28.811681	-0.000363	-3.630828	-1.230158	-0.029677
1325	6.6200e-01	-12.9365	-28.821944	0.000025	0.251124	0.085083	-0.002053
1326	6.6250e-01	-12.9863	-28.894640	0.000178	1.778792	0.602671	-0.014539
1327	6.6300e-01	-13.0328	-28.964770	0.000172	1.716011	0.581400	-0.014026
1328	6.6350e-01	-13.0585	-29.034901	0.000172	1.716011	0.581400	-0.014026
1329	6.6400e-01	-13.1034	-29.124702	0.000220	2.197331	0.744476	-0.017960
1330	6.6450e-01	-13.1435	-29.192695	0.000166	1.663694	0.563675	-0.013598
1331	6.6500e-01	-13.1579	-29.272233	0.000195	1.946208	0.659393	-0.015908
1332	6.6550e-01	-13.2060	-29.341081	0.000168	1.684621	0.570765	-0.013770
1333	6.6600e-01	-13.2526	-29.428744	0.000215	2.145014	0.726750	-0.017533
1334	6.6650e-01	-13.3007	-29.476638	0.000117	1.171910	0.397054	-0.009579
1335	6.6700e-01	-13.3552	-29.495453	0.000046	0.460393	0.155985	-0.003763
1336	6.6750e-01	-13.3937	-29.630583	0.000331	3.306460	1.120259	-0.027026
1337	6.6800e-01	-13.4563	-29.659661	0.000071	0.711517	0.241068	-0.005816
1338	6.6850e-01	-13.4483	-29.762291	-0.000251	-2.511236	-0.850830	-0.020526
1339	6.6900e-01	-13.5060	-29.857652	0.000233	2.333356	0.790563	-0.019072
1340	6.6950e-01	-13.5429	-29.962420	0.000256	2.563553	0.868555	-0.020954
1341	6.7000e-01	-13.5798	-30.012880	0.000123	1.234691	0.418325	-0.010092
1342	6.7050e-01	-13.5991	-30.103964	0.000223	2.228722	0.755111	-0.018217
1343	6.7100e-01	-13.6536	-30.163832	0.000146	1.464887	0.496317	-0.011974
1344	6.7150e-01	-13.7146	-30.234390	0.000173	1.726474	0.584945	-0.014112
1345	6.7200e-01	-13.7386	-30.272448	0.000093	0.931250	0.315516	-0.007612
1346	6.7250e-01	-13.7868	-30.372085	0.000244	2.437991	0.826014	-0.019927
1347	6.7300e-01	-13.8542	-30.451196	0.000194	1.935744	0.655848	-0.015822
1348	6.7350e-01	-13.8959	-30.511491	0.000148	1.475351	0.499862	-0.012059
1349	6.7400e-01	-13.9087	-30.597016	0.000209	2.092696	0.709025	-0.017105
1350	6.7450e-01	-13.9488	-30.679120	0.000201	2.008988	0.680664	-0.016421
1351	6.7500e-01	-13.9889	-30.757376	0.000191	1.914817	0.648758	-0.015651
1352	6.7550e-01	-14.0418	-30.803131	0.000112	1.119593	0.379328	-0.009151
1353	6.7600e-01	-14.0515	-30.888229	0.000208	2.082233	0.705480	-0.017019
1354	6.7650e-01	-14.0884	-30.987438	0.000243	2.427528	0.822469	-0.019842
1355	6.7700e-01	-14.1541	-31.029345	0.000103	1.025421	0.347422	-0.008381
1356	6.7750e-01	-14.1926	-31.102469	0.000179	1.789255	0.606216	-0.014625
1357	6.7800e-01	-14.2215	-31.163620	0.000150	1.496278	0.506953	-0.012230
1358	6.7850e-01	-14.2536	-31.257269	0.000229	2.291502	0.776382	-0.018730
1359	6.7900e-01	-14.2761	-31.352202	0.000232	2.322893	0.787017	-0.018987
1360	6.7950e-01	-14.3354	-31.403090	0.000125	1.245154	0.421870	-0.010177
1361	6.8000e-01	-14.3852	-31.456115	0.000130	1.297472	0.439595	-0.010605
1362	6.8050e-01	-14.4429	-31.519404	0.000155	1.548595	0.524678	-0.012658
1363	6.8100e-01	-14.4413	-31.623317	-0.000254	-2.542626	-0.861465	-0.020783
1364	6.8150e-01	-14.4926	-31.722098	0.000242	2.417064	0.818924	-0.019756
1365	6.8200e-01	-14.5199	-31.790518	0.000167	1.674157	0.567220	-0.013684
1366	6.8250e-01	-14.5793	-31.860221	0.000171	1.705547	0.577855	-0.013941
1367	6.8300e-01	-14.6322	-31.911964	0.000127	1.266081	0.428960	-0.010349
1368	6.8350e-01	-14.6531	-32.028705	0.000286	2.856530	0.967819	-0.023348
1369	6.8400e-01	-14.6916	-32.041534	0.000031	0.313904	0.106354	-0.002566
1370	6.8450e-01	-14.7573	-32.128342	0.000212	2.124087	0.719660	-0.017362
1371	6.8500e-01	-14.7942	-32.214722	0.000211	2.113623	0.716115	-0.017276
1372	6.8550e-01	-14.8343	-32.250215	0.000087	0.868469	0.294245	-0.007099
1373	6.8600e-01	-14.8424	-32.354128	0.000254	2.542626	0.861465	-0.020783
1374	6.8650e-01	-14.8744	-32.448206	0.000230	2.301966	0.779927	-0.018816
1375	6.8700e-01	-14.9514	-32.514488	0.000162	1.621840	0.549494	-0.013256
1376	6.8750e-01	-14.9675	-32.593171	0.000193	1.925281	0.652303	-0.015737
1377	6.8800e-01	-15.0317	-32.635078	0.000103	1.025421	0.347422	-0.008381
1378	6.8850e-01	-15.0573	-32.720176	0.000208	2.082233	0.705480	-0.017019
1379	6.8900e-01	-15.0702	-32.786885	0.000163	1.632303	0.553039	-0.013342
1380	6.8950e-01	-15.1552	-32.844187	0.000140	1.402107	0.475047	-0.011460
1381	6.9000e-01	-15.2033	-32.897640	0.000131	1.307935	0.443140	-0.010691
1382	6.9050e-01	-15.1889	-33.033197	-0.000332	-3.316924	-1.123804	-0.027111
1383	6.9100e-01	-15.2595	-33.061848	0.000070	0.701053	0.237523	-0.005730
1384	6.9150e-01	-15.3060	-33.129841	0.000166	1.663694	0.563675	-0.013598
1385	6.9200e-01	-15.3300	-33.243589	0.000278	2.783286	0.943003	-0.022750
1386	6.9250e-01	-15.3653	-33.274378	0.000075	0.753371	0.255249	-0.006158
1387	6.9300e-01	-15.4119	-33.346219	0.000176	1.757865	0.595581	-0.014368
1388	6.9350e-01	-15.4632	-33.446283	0.000245	2.448455	0.829559	-0.020013
1389	6.9400e-01	-15.5097	-33.465954	0.000048	0.481320	0.163076	-0.003934
1390	6.9450e-01	-15.5386	-33.590393	0.000304	3.044873	1.031631	-0.024888
1391	6.9500e-01	-15.5803	-33.669504	0.000194	1.935744	0.655848	-0.015822
1392	6.9550e-01	-15.5947	-33.737068	0.000165	1.653230	0.560130	-0.013513
1393	6.9600e-01	-15.6541	-33.795225	0.000142	1.423033	0.482137	-0.011631
1394	6.9650e-01	-15.6750	-33.908119	0.000276	2.762359	0.935913	-0.022579
1395	6.9700e-01	-15.7455	-33.923513	0.000038	0.376685	0.127624	-0.003079
1396	6.9750e-01	-15.8033	-33.994499	0.000174	1.736938	0.588490	-0.014197
1397	6.9800e-01	-15.8338	-34.038972	0.000109	1.088202	0.368693	-0.008895
1398	6.9850e-01	-15.8354	-34.147589	0.000266	2.657724	0.900461	-0.021723
1399	6.9900e-01	-15.9044	-34.217292	0.000171	1.705547	0.577855	-0.013941
1400	6.9950e-01	-15.9381	-34.297258	0.000196	1.956671	0.662938	-0.015993
1401	7.0000e-01	-16.0054	-34.328474	0.000076	0.763834	0.258794	-0.006243
1402	7.0050e-01	-16.0295	-34.405874	0.000189	1.893890	0.641667	-0.015480
1403	7.0100e-01	-16.0503	-34.511070	0.000257	2.574016	0.872100	-0.021039
1404	7.0150e-01	-16.0824	-34.612845	0.000249	2.490309	0.843739	-0.020355
1405	7.0200e-01	-16.1274	-34.653897	0.000100	1.004494	0.340332	-0.008210
1406	7.0250e-01	-16.1835	-34.678272	0.000060	0.596418	0.202072	-0.004875
1407	7.0300e-01	-16.2380	-34.766362	0.000216	2.155477	0.730295	-0.017618
1408	7.0350e-01	-16.2188	-34.874552	-0.000265	-2.647261	-0.896916	-0.021638
1409	7.0400e-01	-16.3134	-34.907479	0.000081	0.805688	0.272975	-0.006585
1410	7.0450e-01	-16.3263	-34.995997	0.000217	2.165941	0.733841	-0.017704
1411	7.0500e-01	-16.3728	-35.081095	0.000208	2.082233	0.705480	-0.017019
1412	7.0550e-01	-16.4386	-35.140962	0.000146	1.464887	0.496317	-0.011974
1413	7.0600e-01	-16.4530	-35.165337	0.000060	0.596418	0.202072	-0.004875
1414	7.0650e-01	-16.5043	-35.260270	0.000232	2.322893	0.787017	-0.018987
1415	7.0700e-01	-16.5412	-35.319282	0.000144	1.443960	0.489227	-0.011802
1416	7.0750e-01	-16.5797	-35.421057	0.000249	2.490309	0.843739	-0.020355
1417	7.0800e-01	-16.6295	-35.497174	0.000186	1.862500	0.631032	-0.015223
1418	7.0850e-01	-16.6584	-35.561318	0.000157	1.569522	0.531769	-0.012829
1419	7.0900e-01	-16.7129	-35.631448	0.000172	1.716011	0.581400	-0.014026
1420	7.0950e-01	-16.7578	-35.694737	0.000155	1.548595	0.524678	-0.012658
1421	7.1000e-01	-16.7931	-35.783683	0.000218	2.176404	0.737386	-0.017789
1422	7.1050e-01	-16.8621	-35.824307	0.000099	0.994031	0.336787	-0.008125
1423	7.1100e-01	-16.8749	-35.883320	0.000144	1.443960	0.489227	-0.011802
1424	7.1150e-01	-16.9038	-35.989371	0.000259	2.594943	0.879191	-0.021210
1425	7.1200e-01	-16.9327	-36.051804	0.000153	1.527668	0.517588	-0.012487
1426	7.1250e-01	-17.0065	-36.098415	0.000114	1.140519	0.386418	-0.009322
1427	7.1300e-01	-17.0065	-36.195914	0.000239	2.385674	0.808288	-0.019500
1428	7.1350e-01	-17.0658	-36.266900	0.000174	1.736938	0.588490	-0.014197
1429	7.1400e-01	-17.0915	-36.331043	0.000157	1.569522	0.531769	-0.012829
1430	7.1450e-01	-17.1220	-36.397325	0.000162	1.621840	0.549494	-0.013256
1431	7.1500e-01	-17.1926	-36.473015	0.000185	1.852036	0.627487	-0.015138
1432	7.1550e-01	-17.2246	-36.537159	0.000157	1.569522	0.531769	-0.012829
1433	7.1600e-01	-17.2535	-36.598737	0.000151	1.506741	0.510498	-0.012316
1434	7.1650e-01	-17.3065	-36.663736	0.000159	1.590449	0.538859	-0.013000
1435	7.1700e-01	-17.3241	-36.744557	0.000198	1.977598	0.670028	-0.016164
1436	7.1750e-01	-17.3642	-36.835214	0.000222	2.218258	0.751566	-0.018131
1437	7.1800e-01	-17.4172	-36.915607	0.000197	1.967134	0.666483	-0.016079
1438	7.1850e-01	-17.4508	-36.973336	0.000141	1.412570	0.478592	-0.011546
1439	7.1900e-01	-17.5006	-37.006264	0.000081	0.805688	0.272975	-0.006585
1440	7.1950e-01	-17.5455	-37.108038	0.000249	2.490309	0.843739	-0.020355
1441	7.2000e-01	-17.5968	-37.122150	0.000035	0.345295	0.116989	-0.002822
1442	7.2050e-01	-17.6129	-37.219221	0.000238	2.375210	0.804743	-0.019414
1443	7.2100e-01	-17.6626	-37.308595	0.000219	2.186868	0.740931	-0.017875
1444	7.2150e-01	-17.6899	-37.349647	0.000100	1.004494	0.340332	-0.008210
1445	7.2200e-01	-17.7155	-37.476651	0.000311	3.107654	1.052902	-0.025401
1446	7.2250e-01	-17.7877	-37.510434	0.000083	0.826615	0.280065	-0.006756
1447	7.2300e-01	-17.8310	-37.598952	0.000217	2.165941	0.733841	-0.017704
1448	7.2350e-01	-17.8599	-37.628886	0.000073	0.732444	0.248159	-0.005987
1449	7.2400e-01	-17.8920	-37.725529	0.000236	2.364747	0.801198	-0.019329
1450	7.2450e-01	-17.9514	-37.766154	0.000099	0.994031	0.336787	-0.008125
1451	7.2500e-01	-17.9899	-37.873488	0.000263	2.626334	0.889826	-0.021467
1452	7.2550e-01	-18.0268	-37.923947	0.000123	1.234691	0.418325	-0.010092
1453	7.2600e-01	-18.0508	-37.994506	0.000173	1.726474	0.584945	-0.014112
1454	7.2650e-01	-18.0974	-38.043683	0.000120	1.203300	0.407689	-0.009835
1455	7.2700e-01	-18.1695	-38.103978	0.000148	1.475351	0.499862	-0.012059
1456	7.2750e-01	-18.1968	-38.183516	0.000195	1.946208	0.659393	-0.015908
1457	7.2800e-01	-18.2225	-38.253219	0.000171	1.705547	0.577855	-0.013941
1458	7.2850e-01	-18.2578	-38.356704	0.000253	2.532162	0.857920	-0.020697
1459	7.2900e-01	-18.2963	-38.430683	0.000181	1.810182	0.613306	-0.014796
1460	7.2950e-01	-18.3412	-38.456769	0.000064	0.638272	0.216253	-0.005217
1461	7.3000e-01	-18.3781	-38.557261	0.000246	2.458918	0.833104	-0.020098
1462	7.3050e-01	-18.4471	-38.592326	0.000086	0.858005	0.290700	-0.007013
1463	7.3100e-01	-18.4358	-38.718903	-0.000310	-3.097190	-1.049357	-0.025315
1464	7.3150e-01	-18.5080	-38.765514	0.000114	1.140519	0.386418	-0.009322
1465	7.3200e-01	-18.5610	-38.815119	0.000121	1.213764	0.411234	-0.009921
1466	7.3250e-01	-18.5834	-38.884394	0.000170	1.695084	0.574310	-0.013855
1467	7.3300e-01	-18.6027	-38.979327	0.000232	2.322893	0.787017	-0.018987
1468	7.3350e-01	-18.6155	-39.073832	0.000231	2.312429	0.783472	-0.018901
1469	7.3400e-01	-18.7118	-39.078108	0.000010	0.104635	0.035451	-0.000855
1470	7.3450e-01	-18.7519	-39.166627	0.000217	2.165941	0.733841	-0.017704
1471	7.3500e-01	-18.7711	-39.251724	0.000208	2.082233	0.705480	-0.017019
1472	7.3550e-01	-18.8241	-39.288500	0.000090	0.899859	0.304881	-0.007355
1473	7.3600e-01	-18.8642	-39.361196	0.000178	1.778792	0.602671	-0.014539
1474	7.3650e-01	-18.8979	-39.451853	0.000222	2.218258	0.751566	-0.018131
1475	7.3700e-01	-18.9267	-39.535667	0.000205	2.050842	0.694844	-0.016763
1476	7.3750e-01	-18.9797	-39.568594	0.000081	0.805688	0.272975	-0.006585
1477	7.3800e-01	-18.9989	-39.654975	0.000211	2.113623	0.716115	-0.017276
1478	7.3850e-01	-19.0503	-39.745204	0.000221	2.207795	0.748021	-0.018046
1479	7.3900e-01	-19.1048	-39.775993	0.000075	0.753371	0.255249	-0.006158
1480	7.3950e-01	-19.1577	-39.846123	0.000172	1.716011	0.581400	-0.014026
1481	7.4000e-01	-19.1834	-39.941484	0.000233	2.333356	0.790563	-0.019072
1482	7.4050e-01	-19.2540	-39.990233	0.000119	1.192837	0.404144	-0.009750
1483	7.4100e-01	-19.2588	-40.083027	0.000227	2.270575	0.769292	-0.018559
1484	7.4150e-01	-19.3230	-40.131349	0.000118	1.182373	0.400599	-0.009664
1485	7.4200e-01	-19.2941	-40.261347	-0.000318	-3.180898	-1.077718	-0.026000
1486	7.4250e-01	-19.3872	-40.255788	-0.000014	-0.136025	-0.046087	0.001112
1487	7.4300e-01	-19.4224	-40.333616	0.000190	1.904354	0.645212	-0.015566
1488	7.4350e-01	-19.4577	-40.408023	0.000182	1.820646	0.616851	-0.014881
1489	7.4400e-01	-19.4882	-40.509370	0.000248	2.479845	0.840194	-0.020269
1490	7.4450e-01	-19.5428	-40.566244	0.000139	1.391643	0.471501	-0.011375
1491	7.4500e-01	-19.5797	-40.615849	0.000121	1.213764	0.411234	-0.009921
1492	7.4550e-01	-19.6326	-40.698380	0.000202	2.019452	0.684209	-0.016506
1493	7.4600e-01	-19.6615	-40.766373	0.000166	1.663694	0.563675	-0.013598
1494	7.4650e-01	-19.7144	-40.781767	0.000038	0.376685	0.127624	-0.003079
1495	7.4700e-01	-19.7289	-40.896371	0.000280	2.804213	0.950093	-0.022921
1496	7.4750e-01	-19.7786	-40.979758	0.000204	2.040379	0.691299	-0.016677
1497	7.4800e-01	-19.8395	-41.028507	0.000119	1.192837	0.404144	-0.009750
1498	7.4850e-01	-19.8540	-41.093934	0.000160	1.600913	0.542404	-0.013085
1499	7.4900e-01	-19.8989	-41.191005	0.000238	2.375210	0.804743	-0.019414
1500	7.4950e-01	-19.9342	-41.244030	0.000130	1.297472	0.439595	-0.010605
1501	7.5000e-01	-19.9903	-41.305608	0.000151	1.506741	0.510498	-0.012316
1502	7.5050e-01	-19.9294	-41.294062	0.000028	0.282514	0.095718	0.002309
1503	7.5100e-01	-19.8684	-41.241464	0.000129	1.287008	0.436050	0.010520
1504	7.5150e-01	-19.8299	-41.226070	0.000038	0.376685	0.127624	0.003079
1505	7.5200e-01	-19.8091	-41.131992	0.000230	2.301966	0.779927	0.018816
1506	7.5250e-01	-19.7273	-41.093934	0.000093	0.931250	0.315516	0.007612
1507	7.5300e-01	-19.7192	-41.045184	0.000119	1.192837	0.404144	0.009750
1508	7.5350e-01	-19.7016	-40.990448	0.000134	1.339326	0.453776	0.010947
1509	7.5400e-01	-19.5989	-40.982751	0.000019	0.188343	0.063812	0.001539
1510	7.5450e-01	-19.5748	-40.866865	0.000284	2.835603	0.960728	0.023177
1511	7.5500e-01	-19.5267	-40.828806	0.000093	0.931250	0.315516	0.007612
1512	7.5550e-01	-19.5155	-40.751406	0.000189	1.893890	0.641667	0.015480
1513	7.5600e-01	-19.4674	-40.679565	0.000176	1.757865	0.595581	0.014368
1514	7.5650e-01	-19.4449	-40.638940	0.000099	0.994031	0.336787	0.008125
1515	7.5700e-01	-19.4048	-40.561968	0.000188	1.883427	0.638122	0.015395
1516	7.5750e-01	-19.3438	-40.537593	0.000060	0.596418	0.202072	0.004875
1517	7.5800e-01	-19.3214	-40.429832	0.000264	2.636797	0.893371	0.021552
1518	7.5850e-01	-19.3214	-40.333616	-0.000235	-2.354283	-0.797653	0.019243
1519	7.5900e-01	-19.2604	-40.333616	0.000000	0.000000	0.000000	0.000000
1520	7.5950e-01	-19.2235	-40.259637	0.000181	1.810182	0.613306	0.014796
1521	7.6000e-01	-19.1754	-40.242104	0.000043	0.429003	0.145350	0.003507
1522	7.6050e-01	-19.1241	-40.158717	0.000204	2.040379	0.691299	0.016677
1523	7.6100e-01	-19.0807	-40.094573	0.000157	1.569522	0.531769	0.012829
1524	7.6150e-01	-19.0487	-40.017173	0.000189	1.893890	0.641667	0.015480
1525	7.6200e-01	-19.0150	-39.977832	0.000096	0.962640	0.326151	0.007868
1526	7.6250e-01	-18.9604	-39.900859	0.000188	1.883427	0.638122	0.015395
1527	7.6300e-01	-18.9235	-39.873491	0.000067	0.669663	0.226888	0.005474
1528	7.6350e-01	-18.8834	-39.775565	0.000240	2.396137	0.811833	0.019585
1529	7.6400e-01	-18.8273	-39.735796	0.000097	0.973104	0.329696	0.007954
1530	7.6450e-01	-18.7856	-39.712704	0.000057	0.565028	0.191437	0.004618
1531	7.6500e-01	-18.7583	-39.615205	0.000239	2.385674	0.808288	0.019500
1532	7.6550e-01	-18.7503	-39.518135	0.000238	2.375210	0.804743	0.019414
1533	7.6600e-01	-18.6829	-39.482642	0.000087	0.868469	0.294245	0.007099
1534	7.6650e-01	-18.6364	-39.439879	0.000105	1.046348	0.354512	0.008553
1535	7.6700e-01	-18.6059	-39.401393	0.000094	0.941713	0.319061	0.007697
1536	7.6750e-01	-18.5674	-39.322710	0.000193	1.925281	0.652303	0.015737
1537	7.6800e-01	-18.5305	-39.254717	0.000166	1.663694	0.563675	0.013598
1538	7.6850e-01	-18.4952	-39.149522	0.000257	2.574016	0.872100	0.021039
1539	7.6900e-01	-18.4663	-39.093503	0.000137	1.370716	0.464411	0.011204
1540	7.6950e-01	-18.4038	-39.046464	0.000115	1.150983	0.389964	0.009408
1541	7.7000e-01	-18.3107	-39.004129	0.000104	1.035885	0.350967	0.008467
1542	7.7050e-01	-18.3396	-38.877979	-0.000309	-3.086727	-1.045811	0.025230
1543	7.7100e-01	-18.2722	-38.881828	-0.000009	-0.094171	-0.031906	-0.000770
1544	7.7150e-01	-18.2273	-38.792454	0.000219	2.186868	0.740931	0.017875
1545	7.7200e-01	-18.2000	-38.735153	0.000140	1.402107	0.475047	0.011460
1546	7.7250e-01	-18.1535	-38.662029	0.000179	1.789255	0.606216	0.014625
1547	7.7300e-01	-18.1407	-38.590615	0.000175	1.747401	0.592036	0.014283
1548	7.7350e-01	-18.0749	-38.549563	0.000100	1.004494	0.340332	0.008210
1549	7.7400e-01	-18.0171	-38.475156	0.000182	1.820646	0.616851	0.014881
1550	7.7450e-01	-17.9851	-38.473446	0.000004	0.041854	0.014180	0.000342
1551	7.7500e-01	-17.9594	-38.348579	0.000306	3.055337	1.035176	0.024973
1552	7.7550e-01	-17.9321	-38.295554	0.000130	1.297472	0.439595	0.010605
1553	7.7600e-01	-17.8744	-38.227561	0.000166	1.663694	0.563675	0.013598
1554	7.7650e-01	-17.8310	-38.161280	0.000162	1.621840	0.549494	0.013256
1555	7.7700e-01	-17.7990	-38.110392	0.000125	1.245154	0.421870	0.010177
1556	7.7750e-01	-17.7540	-38.050525	0.000146	1.464887	0.496317	0.011974
1557	7.7800e-01	-17.7268	-37.956447	0.000230	2.301966	0.779927	0.018816
1558	7.7850e-01	-17.6658	-37.949605	0.000017	0.167416	0.056722	0.001368
1559	7.7900e-01	-17.6321	-37.849541	0.000245	2.448455	0.829559	0.020013
1560	7.7950e-01	-17.6177	-37.771285	0.000191	1.914817	0.648758	0.015651
1561	7.8000e-01	-17.5551	-37.750759	0.000050	0.502247	0.170166	0.004105
1562	7.8050e-01	-17.5214	-37.620334	0.000319	3.191362	1.081263	0.026085
1563	7.8100e-01	-17.4749	-37.580137	0.000098	0.983567	0.333242	0.008039
1564	7.8150e-01	-17.4284	-37.527966	0.000128	1.276545	0.432505	0.010434
1565	7.8200e-01	-17.3995	-37.480072	0.000117	1.171910	0.397054	0.009579
1566	7.8250e-01	-17.3466	-37.403955	0.000186	1.862500	0.631032	0.015223
1567	7.8300e-01	-17.3065	-37.333825	0.000172	1.716011	0.581400	0.014026
1568	7.8350e-01	-17.2696	-37.281227	0.000129	1.287008	0.436050	0.010520
1569	7.8400e-01	-17.2327	-37.212379	0.000168	1.684621	0.570765	0.013770
1570	7.8450e-01	-17.1797	-37.179880	0.000080	0.795225	0.269429	0.006500
1571	7.8500e-01	-17.1460	-37.065276	0.000280	2.804213	0.950093	0.022921
1572	7.8550e-01	-17.1284	-36.983600	0.000200	1.998525	0.677119	0.016335
1573	7.8600e-01	-17.0771	-36.954521	0.000071	0.711517	0.241068	0.005816
1574	7.8650e-01	-17.0257	-36.848042	0.000261	2.605407	0.882736	0.021296
1575	7.8700e-01	-16.9968	-36.822385	0.000063	0.627809	0.212707	0.005132
1576	7.8750e-01	-16.9327	-36.741136	0.000199	1.988061	0.673573	0.016250
1577	7.8800e-01	-16.8942	-36.699656	0.000101	1.014958	0.343877	0.008296
1578	7.8850e-01	-16.8765	-36.624822	0.000183	1.831109	0.620397	0.014967
1579	7.8900e-01	-16.8428	-36.532882	0.000225	2.249648	0.762202	0.018388
1580	7.8950e-01	-16.7723	-36.488837	0.000108	1.077739	0.365148	0.008809
1581	7.9000e-01	-16.7562	-36.418279	0.000173	1.726474	0.584945	0.014112
1582	7.9050e-01	-16.7177	-36.340451	0.000190	1.904354	0.645212	0.015566
1583	7.9100e-01	-16.6632	-36.317787	0.000055	0.554565	0.187892	0.004533
1584	7.9150e-01	-16.6295	-36.232262	0.000209	2.092696	0.709025	0.017105
1585	7.9200e-01	-16.5974	-36.143316	0.000218	2.176404	0.737386	0.017789
1586	7.9250e-01	-16.5396	-36.129204	0.000035	0.345295	0.116989	0.002822
1587	7.9300e-01	-16.5188	-36.006903	0.000299	2.992556	1.013905	0.024460
1588	7.9350e-01	-16.4867	-35.951740	0.000135	1.349789	0.457321	0.011033
1589	7.9400e-01	-16.4177	-35.895721	0.000137	1.370716	0.464411	0.011204
1590	7.9450e-01	-16.3792	-35.885030	0.000026	0.261587	0.088628	0.002138
1591	7.9500e-01	-16.3712	-35.761446	0.000302	3.023946	1.024541	0.024717
1592	7.9550e-01	-16.3295	-35.697730	0.000156	1.559059	0.528223	0.012743
1593	7.9600e-01	-16.2862	-35.625889	0.000176	1.757865	0.595581	0.014368
1594	7.9650e-01	-16.2413	-35.566022	0.000146	1.464887	0.496317	0.011974
1595	7.9700e-01	-16.1883	-35.484773	0.000199	1.988061	0.673573	0.016250
1596	7.9750e-01	-16.1546	-35.454412	0.000074	0.742907	0.251704	0.006072
1597	7.9800e-01	-16.1001	-35.340663	0.000278	2.783286	0.943003	0.022750
1598	7.9850e-01	-16.0872	-35.280796	0.000146	1.464887	0.496317	0.011974
1599	7.9900e-01	-16.0343	-35.246586	0.000084	0.837079	0.283610	0.006842
1600	7.9950e-01	-16.0054	-35.152080	0.000231	2.312429	0.783472	0.018901
1601	8.0000e-01	-15.9589	-35.088364	0.000156	1.559059	0.528223	0.012743
1602	8.0050e-01	-15.9140	-35.023793	0.000158	1.579986	0.535314	0.012914
1603	8.0100e-01	-15.8771	-34.955800	0.000166	1.663694	0.563675	0.013598
1604	8.0150e-01	-15.8530	-34.866854	0.000218	2.176404	0.737386	0.017789
1605	8.0200e-01	-15.8017	-34.837348	0.000072	0.721980	0.244614	0.005901
1606	8.0250e-01	-15.7488	-34.746692	0.000222	2.218258	0.751566	0.018131
1607	8.0300e-01	-15.6958	-34.697087	0.000121	1.213764	0.411234	0.009921
1608	8.0350e-01	-15.6750	-34.589753	0.000263	2.626334	0.889826	0.021467
1609	8.0400e-01	-15.6204	-34.591891	-0.000005	-0.052317	-0.017726	-0.000428
1610	8.0450e-01	-15.5996	-34.491399	0.000246	2.458918	0.833104	0.020098
1611	8.0500e-01	-15.5659	-34.414427	0.000188	1.883427	0.638122	0.015395
1612	8.0550e-01	-15.5065	-34.352421	0.000152	1.517205	0.514043	0.012401
1613	8.0600e-01	-15.4776	-34.320777	0.000077	0.774298	0.262339	0.006329
1614	8.0650e-01	-15.4103	-34.235679	0.000208	2.082233	0.705480	0.017019
1615	8.0700e-01	-15.4022	-34.131339	0.000255	2.553089	0.865010	0.020868
1616	8.0750e-01	-15.3445	-34.075320	0.000137	1.370716	0.464411	0.011204
1617	8.0800e-01	-15.3268	-34.001341	0.000181	1.810182	0.613306	0.014796
1618	8.0850e-01	-15.2899	-33.972262	0.000071	0.711517	0.241068	0.005816
1619	8.0900e-01	-15.2450	-33.843975	0.000314	3.139044	1.063537	0.025658
1620	8.0950e-01	-15.2065	-33.821311	0.000055	0.554565	0.187892	0.004533
1621	8.1000e-01	-15.1375	-33.769140	0.000128	1.276545	0.432505	0.010434
1622	8.1050e-01	-15.1295	-33.664372	0.000256	2.563553	0.868555	0.020954
1623	8.1100e-01	-15.0461	-33.626741	0.000092	0.920786	0.311971	0.007526
1624	8.1150e-01	-15.0252	-33.526677	0.000245	2.448455	0.829559	0.020013
1625	8.1200e-01	-15.0220	-33.435593	0.000223	2.228722	0.755111	0.018217
1626	8.1250e-01	-14.9611	-33.387271	0.000118	1.182373	0.400599	0.009664
1627	8.1300e-01	-14.9354	-33.318851	0.000167	1.674157	0.567220	0.013684
1628	8.1350e-01	-14.8568	-33.259411	0.000145	1.454424	0.492772	0.011888
1629	8.1400e-01	-14.8231	-33.228622	0.000075	0.753371	0.255249	0.006158
1630	8.1450e-01	-14.7942	-33.134544	0.000230	2.301966	0.779927	0.018816
1631	8.1500e-01	-14.7413	-33.049875	0.000207	2.071769	0.701934	0.016934
1632	8.1550e-01	-14.7076	-32.951521	0.000241	2.406601	0.815378	0.019671
1633	8.1600e-01	-14.6707	-32.956225	-0.000012	-0.115098	-0.038996	-0.000941
1634	8.1650e-01	-14.6210	-32.889515	0.000163	1.632303	0.553039	0.013342
1635	8.1700e-01	-14.5696	-32.813398	0.000186	1.862500	0.631032	0.015223
1636	8.1750e-01	-14.5504	-32.733432	0.000196	1.956671	0.662938	0.015993
1637	8.1800e-01	-14.4991	-32.650473	0.000203	2.029915	0.687754	0.016592
1638	8.1850e-01	-14.4926	-32.556823	0.000229	2.291502	0.776382	0.018730
1639	8.1900e-01	-14.4237	-32.479422	0.000189	1.893890	0.641667	0.015480
1640	8.1950e-01	-14.4012	-32.424259	0.000135	1.349789	0.457321	0.011033
1641	8.2000e-01	-14.3467	-32.379786	0.000109	1.088202	0.368693	0.008895
1642	8.2050e-01	-14.3001	-32.333175	0.000114	1.140519	0.386418	0.009322
1643	8.2100e-01	-14.3049	-32.233110	-0.000245	-2.448455	-0.829559	0.020013
1644	8.2150e-01	-14.2360	-32.149723	0.000204	2.040379	0.691299	0.016677
1645	8.2200e-01	-14.2071	-32.075317	0.000182	1.820646	0.616851	0.014881
1646	8.2250e-01	-14.1381	-32.024857	0.000123	1.234691	0.418325	0.010092
1647	8.2300e-01	-14.1076	-31.936338	0.000217	2.165941	0.733841	0.017704
1648	8.2350e-01	-14.0852	-31.892721	0.000107	1.067275	0.361603	0.008724
1649	8.2400e-01	-14.0226	-31.827294	0.000160	1.600913	0.542404	0.013085
1650	8.2450e-01	-13.9825	-31.734072	0.000228	2.281039	0.772837	0.018644
1651	8.2500e-01	-13.9584	-31.675915	0.000142	1.423033	0.482137	0.011631
1652	8.2550e-01	-13.9103	-31.588679	0.000213	2.134550	0.723205	0.017447
1653	8.2600e-01	-13.8526	-31.557035	0.000077	0.774298	0.262339	0.006329
1654	8.2650e-01	-13.8028	-31.507858	0.000120	1.203300	0.407689	0.009835
1655	8.2700e-01	-13.7964	-31.345360	0.000398	3.976123	1.347147	0.032500
1656	8.2750e-01	-13.7499	-31.309012	0.000089	0.889396	0.301335	0.007270
1657	8.2800e-01	-13.7226	-31.279934	0.000071	0.711517	0.241068	0.005816
1658	8.2850e-01	-13.6745	-31.186284	0.000229	2.291502	0.776382	0.018730
1659	8.2900e-01	-13.6472	-31.098620	0.000215	2.145014	0.726750	0.017533
1660	8.2950e-01	-13.5991	-31.049444	0.000120	1.203300	0.407689	0.009835
1661	8.3000e-01	-13.5365	-31.009674	0.000097	0.973104	0.329696	0.007954
1662	8.3050e-01	-13.5108	-30.880104	0.000317	3.170435	1.074172	0.025914
1663	8.3100e-01	-13.4723	-30.808263	0.000176	1.757865	0.595581	0.014368
1664	8.3150e-01	-13.4306	-30.760369	0.000117	1.171910	0.397054	0.009579
1665	8.3200e-01	-13.3953	-30.707771	0.000129	1.287008	0.436050	0.010520
1666	8.3250e-01	-13.3488	-30.634647	0.000179	1.789255	0.606216	0.014625
1667	8.3300e-01	-13.3280	-30.523892	0.000271	2.710042	0.918187	0.022151
1668	8.3350e-01	-13.2574	-30.460176	0.000156	1.559059	0.528223	0.012743
1669	8.3400e-01	-13.2397	-30.368237	0.000225	2.249648	0.762202	0.018388
1670	8.3450e-01	-13.2301	-30.312218	0.000137	1.370716	0.464411	0.011204
1671	8.3500e-01	-13.1306	-30.269883	0.000104	1.035885	0.350967	0.008467
1672	8.3550e-01	-13.1419	-30.165970	-0.000254	-2.542626	-0.861465	0.020783
1673	8.3600e-01	-13.0633	-30.129194	0.000090	0.899859	0.304881	0.007355
1674	8.3650e-01	-13.0216	-30.037255	0.000225	2.249648	0.762202	0.018388
1675	8.3700e-01	-12.9863	-29.943605	0.000229	2.291502	0.776382	0.018730
1676	8.3750e-01	-12.9590	-29.849099	0.000231	2.312429	0.783472	0.018901
1677	8.3800e-01	-12.9044	-29.832422	0.000041	0.408076	0.138260	0.003335
1678	8.3850e-01	-12.8515	-29.755022	0.000189	1.893890	0.641667	0.015480
1679	8.3900e-01	-12.8820	-29.626734	-0.000314	-3.139044	-1.063537	0.025658
1680	8.3950e-01	-12.7841	-29.612623	0.000035	0.345295	0.116989	0.002822
1681	8.4000e-01	-12.7553	-29.530946	0.000200	1.998525	0.677119	0.016335
1682	8.4050e-01	-12.6975	-29.462526	0.000167	1.674157	0.567220	0.013684
1683	8.4100e-01	-12.6750	-29.393251	0.000170	1.695084	0.574310	0.013855
1684	8.4150e-01	-12.6253	-29.333383	0.000146	1.464887	0.496317	0.011974
1685	8.4200e-01	-12.6237	-29.237595	0.000234	2.343820	0.794108	0.019158
1686	8.4250e-01	-12.5547	-29.182859	0.000134	1.339326	0.453776	0.010947
1687	8.4300e-01	-12.5194	-29.129406	0.000131	1.307935	0.443140	0.010691
1688	8.4350e-01	-12.4873	-29.019934	0.000268	2.678651	0.907552	0.021894
1689	8.4400e-01	-12.4136	-28.972040	0.000117	1.171910	0.397054	0.009579
1690	8.4450e-01	-12.3734	-28.865561	0.000261	2.605407	0.882736	0.021296
1691	8.4500e-01	-12.3654	-28.810825	0.000134	1.339326	0.453776	0.010947
1692	8.4550e-01	-12.2997	-28.765069	0.000112	1.119593	0.379328	0.009151
1693	8.4600e-01	-12.2964	-28.630367	0.000330	3.295997	1.116714	0.026940
1694	8.4650e-01	-12.2403	-28.584611	0.000112	1.119593	0.379328	0.009151
1695	8.4700e-01	-12.1858	-28.529448	0.000135	1.349789	0.457321	0.011033
1696	8.4750e-01	-12.1617	-28.467442	0.000152	1.517205	0.514043	0.012401
1697	8.4800e-01	-12.1055	-28.391325	0.000186	1.862500	0.631032	0.015223
1698	8.4850e-01	-12.0927	-28.283991	0.000263	2.626334	0.889826	0.021467
1699	8.4900e-01	-12.0205	-28.226689	0.000140	1.402107	0.475047	0.011460
1700	8.4950e-01	-11.9852	-28.150144	0.000187	1.872963	0.634577	0.015309
1701	8.5000e-01	-11.9371	-28.109520	0.000099	0.994031	0.336787	0.008125
1702	8.5050e-01	-11.9082	-28.033830	0.000185	1.852036	0.627487	0.015138
1703	8.5100e-01	-11.8521	-27.953864	0.000196	1.956671	0.662938	0.015993
1704	8.5150e-01	-11.8232	-27.862352	0.000224	2.239185	0.758656	0.018302
1705	8.5200e-01	-11.7847	-27.774689	0.000215	2.145014	0.726750	0.017533
1706	8.5250e-01	-11.7590	-27.684033	0.000222	2.218258	0.751566	0.018131
1707	8.5300e-01	-11.7302	-27.646829	0.000091	0.910323	0.308426	0.007441
1708	8.5350e-01	-11.6660	-27.574561	0.000177	1.768328	0.599126	0.014454
1709	8.5400e-01	-11.6130	-27.471503	0.000252	2.521699	0.854375	0.020612
1710	8.5450e-01	-11.5954	-27.390254	0.000199	1.988061	0.673573	0.016250
1711	8.5500e-01	-11.5521	-27.356044	0.000084	0.837079	0.283610	0.006842
1712	8.5550e-01	-11.5232	-27.241440	0.000280	2.804213	0.950093	0.022921
1713	8.5600e-01	-11.5040	-27.192691	0.000119	1.192837	0.404144	0.009750
1714	8.5650e-01	-11.4270	-27.134962	0.000141	1.412570	0.478592	0.011546
1715	8.5700e-01	-11.3868	-27.048581	0.000211	2.113623	0.716115	0.017276
1716	8.5750e-01	-11.3596	-26.954504	0.000230	2.301966	0.779927	0.018816
1717	8.5800e-01	-11.2938	-26.906610	0.000117	1.171910	0.397054	0.009579
1718	8.5850e-01	-11.2601	-26.839473	0.000164	1.642767	0.556584	0.013427
1719	8.5900e-01	-11.2377	-26.715034	0.000304	3.044873	1.031631	0.024888
1720	8.5950e-01	-11.2024	-26.663291	0.000127	1.266081	0.428960	0.010349
1721	8.6000e-01	-11.1254	-26.623950	0.000096	0.962640	0.326151	0.007868
1722	8.6050e-01	-11.1029	-26.529872	0.000230	2.301966	0.779927	0.018816
1723	8.6100e-01	-11.0740	-26.446057	0.000205	2.050842	0.694844	0.016763
1724	8.6150e-01	-11.0307	-26.362671	0.000204	2.040379	0.691299	0.016677
1725	8.6200e-01	-10.9874	-26.314777	0.000117	1.171910	0.397054	0.009579
1726	8.6250e-01	-10.9457	-26.204449	0.000270	2.699578	0.914642	0.022065
1727	8.6300e-01	-10.8911	-26.162970	0.000101	1.014958	0.343877	0.008296
1728	8.6350e-01	-10.8767	-26.063333	0.000244	2.437991	0.826014	0.019927
1729	8.6400e-01	-10.8398	-25.995340	0.000166	1.663694	0.563675	0.013598
1730	8.6450e-01	-10.7917	-25.895276	0.000245	2.448455	0.829559	0.020013
1731	8.6500e-01	-10.7596	-25.823435	0.000176	1.757865	0.595581	0.014368
1732	8.6550e-01	-10.7211	-25.768271	0.000135	1.349789	0.457321	0.011033
1733	8.6600e-01	-10.6762	-25.663503	0.000256	2.563553	0.868555	0.020954
1734	8.6650e-01	-10.6313	-25.616892	0.000114	1.140519	0.386418	0.009322
1735	8.6700e-01	-10.6088	-25.509558	0.000263	2.626334	0.889826	0.021467
1736	8.6750e-01	-10.5559	-25.454394	0.000135	1.349789	0.457321	0.011033
1737	8.6800e-01	-10.4997	-25.420612	0.000083	0.826615	0.280065	0.006756
1738	8.6850e-01	-10.4788	-25.325679	0.000232	2.322893	0.787017	0.018987
1739	8.6900e-01	-10.4420	-25.211076	0.000280	2.804213	0.950093	0.022921
1740	8.6950e-01	-10.3714	-25.165747	0.000111	1.109129	0.375783	0.009066
1741	8.7000e-01	-10.3569	-25.073380	0.000226	2.260112	0.765747	0.018473
1742	8.7050e-01	-10.3168	-25.007098	0.000162	1.621840	0.549494	0.013256
1743	8.7100e-01	-10.2719	-24.944238	0.000154	1.538132	0.521133	0.012572
1744	8.7150e-01	-10.2158	-24.871114	0.000179	1.789255	0.606216	0.014625
1745	8.7200e-01	-10.1708	-24.783878	0.000213	2.134550	0.723205	0.017447
1746	8.7250e-01	-10.1548	-24.709044	0.000183	1.831109	0.620397	0.014967
1747	8.7300e-01	-10.1371	-24.618815	0.000221	2.207795	0.748021	0.018046
1748	8.7350e-01	-10.0874	-24.555954	0.000154	1.538132	0.521133	0.012572
1749	8.7400e-01	-10.0281	-24.474277	0.000200	1.998525	0.677119	0.016335
1750	8.7450e-01	-9.9799	-24.411416	0.000154	1.538132	0.521133	0.012572
1751	8.7500e-01	-9.9607	-24.328885	0.000202	2.019452	0.684209	0.016506
1752	8.7550e-01	-9.9093	-24.217275	0.000273	2.730969	0.925277	0.022322
1753	8.7600e-01	-9.8628	-24.166815	0.000123	1.234691	0.418325	0.010092
1754	8.7650e-01	-9.8163	-24.113362	0.000131	1.307935	0.443140	0.010691
1755	8.7700e-01	-9.7794	-24.026554	0.000212	2.124087	0.719660	0.017362
1756	8.7750e-01	-9.7489	-23.944877	0.000200	1.998525	0.677119	0.016335
1757	8.7800e-01	-9.7152	-23.873464	0.000175	1.747401	0.592036	0.014283
1758	8.7850e-01	-9.6783	-23.787084	0.000211	2.113623	0.716115	0.017276
1759	8.7900e-01	-9.6334	-23.719946	0.000164	1.642767	0.556584	0.013427
1760	8.7950e-01	-9.6318	-23.577547	0.000348	3.484339	1.180526	0.028480
1761	8.8000e-01	-9.5500	-23.559587	0.000044	0.439466	0.148895	0.003592
1762	8.8050e-01	-9.5179	-23.476200	0.000204	2.040379	0.691299	0.016677
1763	8.8100e-01	-9.4682	-23.423602	0.000129	1.287008	0.436050	0.010520
1764	8.8150e-01	-9.4120	-23.319261	0.000255	2.553089	0.865010	0.020868
1765	8.8200e-01	-9.3896	-23.236730	0.000202	2.019452	0.684209	0.016506
1766	8.8250e-01	-9.3447	-23.173014	0.000156	1.559059	0.528223	0.012743
1767	8.8300e-01	-9.3222	-23.086206	0.000212	2.124087	0.719660	0.017362
1768	8.8350e-01	-9.2757	-22.983576	0.000251	2.511236	0.850830	0.020526
1769	8.8400e-01	-9.2388	-22.903610	0.000196	1.956671	0.662938	0.015993
1770	8.8450e-01	-9.1746	-22.857426	0.000113	1.130056	0.382873	0.009237
1771	8.8500e-01	-9.1666	-22.745388	0.000274	2.741432	0.928822	0.022408
1772	8.8550e-01	-9.1104	-22.659863	0.000209	2.092696	0.709025	0.017105
1773	8.8600e-01	-9.0800	-22.591443	0.000167	1.674157	0.567220	0.013684
1774	8.8650e-01	-9.0382	-22.513615	0.000190	1.904354	0.645212	0.015566
1775	8.8700e-01	-8.9997	-22.442202	0.000175	1.747401	0.592036	0.014283
1776	8.8750e-01	-8.9468	-22.375920	0.000162	1.621840	0.549494	0.013256
1777	8.8800e-01	-8.9276	-22.281843	0.000230	2.301966	0.779927	0.018816
1778	8.8850e-01	-8.8457	-22.190758	0.000223	2.228722	0.755111	0.018217
1779	8.8900e-01	-8.8056	-22.135595	0.000135	1.349789	0.457321	0.011033
1780	8.8950e-01	-8.8056	-22.043655	-0.000225	-2.249648	-0.762202	0.018388
1781	8.9000e-01	-8.7399	-21.985498	0.000142	1.423033	0.482137	0.011631
1782	8.9050e-01	-8.6773	-21.930762	0.000134	1.339326	0.453776	0.010947
1783	8.9100e-01	-8.6773	-21.791784	-0.000340	-3.400631	-1.152165	0.027796
1784	8.9150e-01	-8.6131	-21.773824	0.000044	0.439466	0.148895	0.003592
1785	8.9200e-01	-8.5939	-21.638267	0.000332	3.316924	1.123804	0.027111
1786	8.9250e-01	-8.5441	-21.556590	0.000200	1.998525	0.677119	0.016335
1787	8.9300e-01	-8.4944	-21.490736	0.000161	1.611376	0.545949	0.013171
1788	8.9350e-01	-8.4832	-21.456526	0.000084	0.837079	0.283610	0.006842
1789	8.9400e-01	-8.4270	-21.328666	0.000313	3.128581	1.059992	0.025572
1790	8.9450e-01	-8.4062	-21.292745	0.000088	0.878932	0.297790	0.007184
1791	8.9500e-01	-8.3581	-21.176004	0.000286	2.856530	0.967819	0.023348
1792	8.9550e-01	-8.3099	-21.092617	0.000204	2.040379	0.691299	0.016677
1793	8.9600e-01	-8.2794	-20.958342	0.000329	3.285533	1.113169	0.026855
1794	8.9650e-01	-8.2233	-20.929691	0.000070	0.701053	0.237523	0.005730
1795	8.9700e-01	-8.1880	-20.866403	0.000155	1.548595	0.524678	0.012658
1796	8.9750e-01	-8.1319	-20.790286	0.000186	1.862500	0.631032	0.015223
1797	8.9800e-01	-8.0998	-20.664564	0.000308	3.076264	1.042266	0.025144
1798	8.9850e-01	-8.0484	-20.656439	0.000020	0.198806	0.067357	0.001625
1799	8.9900e-01	-8.0372	-20.517888	0.000339	3.390168	1.148620	0.027710
1800	8.9950e-01	-8.0003	-20.442199	0.000185	1.852036	0.627487	0.015138
1801	9.0000e-01	-7.9602	-20.370358	0.000176	1.757865	0.595581	0.014368
1802	9.0050e-01	-7.8928	-20.318615	0.000127	1.266081	0.428960	0.010349
1803	9.0100e-01	-7.8704	-20.202728	0.000284	2.835603	0.960728	0.023177
1804	9.0150e-01	-7.8110	-20.149275	0.000131	1.307935	0.443140	0.010691
1805	9.0200e-01	-7.7918	-20.037237	0.000274	2.741432	0.928822	0.022408
1806	9.0250e-01	-7.7677	-19.957272	0.000196	1.956671	0.662938	0.015993
1807	9.0300e-01	-7.7019	-19.890562	0.000163	1.632303	0.553039	0.013342
1808	9.0350e-01	-7.6682	-19.805037	0.000209	2.092696	0.709025	0.017105
1809	9.0400e-01	-7.6153	-19.716091	0.000218	2.176404	0.737386	0.017789
1810	9.0450e-01	-7.6057	-19.635270	0.000198	1.977598	0.670028	0.016164
1811	9.0500e-01	-7.5624	-19.559152	0.000186	1.862500	0.631032	0.015223
1812	9.0550e-01	-7.5046	-19.463792	0.000233	2.333356	0.790563	0.019072
1813	9.0600e-01	-7.4789	-19.369714	0.000230	2.301966	0.779927	0.018816
1814	9.0650e-01	-7.4260	-19.286328	0.000204	2.040379	0.691299	0.016677
1815	9.0700e-01	-7.4132	-19.181559	0.000256	2.563553	0.868555	0.020954
1816	9.0750e-01	-7.3554	-19.141363	0.000098	0.983567	0.333242	0.008039
1817	9.0800e-01	-7.3426	-19.037022	0.000255	2.553089	0.865010	0.020868
1818	9.0850e-01	-7.2880	-18.951069	0.000210	2.103160	0.712570	0.017191
1819	9.0900e-01	-7.1998	-18.903603	0.000116	1.161446	0.393509	0.009493
1820	9.0950e-01	-7.1950	-18.785578	0.000289	2.887921	0.978454	0.023605
1821	9.1000e-01	-7.1517	-18.733836	0.000127	1.266081	0.428960	0.010349
1822	9.1050e-01	-7.1164	-18.631206	0.000251	2.511236	0.850830	0.020526
1823	9.1100e-01	-7.0442	-18.590581	0.000099	0.994031	0.336787	0.008125
1824	9.1150e-01	-7.0233	-18.478971	0.000273	2.730969	0.925277	0.022322
1825	9.1200e-01	-6.9929	-18.387459	0.000224	2.239185	0.758656	0.018302
1826	9.1250e-01	-6.9383	-18.349401	0.000093	0.931250	0.315516	0.007612
1827	9.1300e-01	-6.8854	-18.220685	0.000315	3.149508	1.067082	0.025743
1828	9.1350e-01	-6.8629	-18.196738	0.000059	0.585955	0.198527	0.004789
1829	9.1400e-01	-6.8132	-18.059043	0.000337	3.369241	1.141530	0.027539
1830	9.1450e-01	-6.7650	-18.023550	0.000087	0.868469	0.294245	0.007099
1831	9.1500e-01	-6.7586	-17.891841	0.000322	3.222752	1.091898	0.026342
1832	9.1550e-01	-6.6913	-17.807599	0.000206	2.061306	0.698389	0.016848
1833	9.1600e-01	-6.7009	-17.724212	-0.000204	-2.040379	-0.691299	0.016677
1834	9.1650e-01	-6.6656	-17.648095	0.000186	1.862500	0.631032	0.015223
1835	9.1700e-01	-6.5934	-17.574971	0.000179	1.789255	0.606216	0.014625
1836	9.1750e-01	-6.5292	-17.469348	0.000258	2.584480	0.875645	0.021125
1837	9.1800e-01	-6.5324	-17.385533	-0.000205	-2.050842	-0.694844	0.016763
1838	9.1850e-01	-6.4635	-17.326521	0.000144	1.443960	0.489227	0.011802
1839	9.1900e-01	-6.4346	-17.216194	0.000270	2.699578	0.914642	0.022065
1840	9.1950e-01	-6.4105	-17.092610	0.000302	3.023946	1.024541	0.024717
1841	9.2000e-01	-6.3512	-17.064387	0.000069	0.690590	0.233978	0.005645
1842	9.2050e-01	-6.3111	-16.993828	0.000173	1.726474	0.584945	0.014112
1843	9.2100e-01	-6.2822	-16.917283	0.000187	1.872963	0.634577	0.015309
1844	9.2150e-01	-6.2228	-16.822351	0.000232	2.322893	0.787017	0.018987
1845	9.2200e-01	-6.2052	-16.720576	0.000249	2.490309	0.843739	0.020355
1846	9.2250e-01	-6.1314	-16.668406	0.000128	1.276545	0.432505	0.010434
1847	9.2300e-01	-6.1362	-16.543967	-0.000304	-3.044873	-1.031631	0.024888
1848	9.2350e-01	-6.0720	-16.446040	0.000240	2.396137	0.811833	0.019585
1849	9.2400e-01	-6.0207	-16.408409	0.000092	0.920786	0.311971	0.007526
1850	9.2450e-01	-5.9870	-16.323740	0.000207	2.071769	0.701934	0.016934
1851	9.2500e-01	-5.9774	-16.191176	0.000324	3.243679	1.098988	0.026513
1852	9.2550e-01	-5.9004	-16.106078	0.000208	2.082233	0.705480	0.017019
1853	9.2600e-01	-5.8683	-16.084269	0.000053	0.533638	0.180801	0.004362
1854	9.2650e-01	-5.8218	-15.944436	0.000342	3.421558	1.159255	0.027967
1855	9.2700e-01	-5.8057	-15.870457	0.000181	1.810182	0.613306	0.014796
1856	9.2750e-01	-5.7496	-15.768682	0.000249	2.490309	0.843739	0.020355
1857	9.2800e-01	-5.7207	-15.685723	0.000203	2.029915	0.687754	0.016592
1858	9.2850e-01	-5.6790	-15.604902	0.000198	1.977598	0.670028	0.016164
1859	9.2900e-01	-5.6084	-15.522797	0.000201	2.008988	0.680664	0.016421
1860	9.2950e-01	-5.5731	-15.460364	0.000153	1.527668	0.517588	0.012487
1861	9.3000e-01	-5.5490	-15.345761	0.000280	2.804213	0.950093	0.022921
1862	9.3050e-01	-5.5121	-15.279051	0.000163	1.632303	0.553039	0.013342
1863	9.3100e-01	-5.5025	-15.158033	0.000296	2.961165	1.003270	0.024204
1864	9.3150e-01	-5.4496	-15.085764	0.000177	1.768328	0.599126	0.014454
1865	9.3200e-01	-5.4063	-15.022476	0.000155	1.548595	0.524678	0.012658
1866	9.3250e-01	-5.3662	-14.922839	0.000244	2.437991	0.826014	0.019927
1867	9.3300e-01	-5.3212	-14.811229	0.000273	2.730969	0.925277	0.022322
1868	9.3350e-01	-5.2667	-14.740671	0.000173	1.726474	0.584945	0.014112
1869	9.3400e-01	-5.2474	-14.661560	0.000194	1.935744	0.655848	0.015822
1870	9.3450e-01	-5.1945	-14.568765	0.000227	2.270575	0.769292	0.018559
1871	9.3500e-01	-5.1672	-14.458438	0.000270	2.699578	0.914642	0.022065
1872	9.3550e-01	-5.1127	-14.365643	0.000227	2.270575	0.769292	0.018559
1873	9.3600e-01	-5.0694	-14.308769	0.000139	1.391643	0.471501	0.011375
1874	9.3650e-01	-5.0405	-14.199297	0.000268	2.678651	0.907552	0.021894
1875	9.3700e-01	-4.9972	-14.103509	0.000234	2.343820	0.794108	0.019158
1876	9.3750e-01	-4.9587	-14.060319	0.000106	1.056812	0.358057	0.008638
1877	9.3800e-01	-4.9090	-13.952985	0.000263	2.626334	0.889826	0.021467
1878	9.3850e-01	-4.8849	-13.847789	0.000257	2.574016	0.872100	0.021039
1879	9.3900e-01	-4.8384	-13.775521	0.000177	1.768328	0.599126	0.014454
1880	9.3950e-01	-4.8239	-13.661772	0.000278	2.783286	0.943003	0.022750
1881	9.4000e-01	-4.7533	-13.661345	0.000001	0.010463	0.003545	0.000086
1882	9.4050e-01	-4.6940	-13.508682	0.000374	3.735463	1.265609	0.030532
1883	9.4100e-01	-4.6763	-13.385954	0.000300	3.003019	1.017450	0.024546
1884	9.4150e-01	-4.6298	-13.304278	0.000200	1.998525	0.677119	0.016335
1885	9.4200e-01	-4.5721	-13.264081	0.000098	0.983567	0.333242	0.008039
1886	9.4250e-01	-4.5352	-13.138359	0.000308	3.076264	1.042266	0.025144
1887	9.4300e-01	-4.5111	-13.054117	0.000206	2.061306	0.698389	0.016848
1888	9.4350e-01	-4.4566	-12.984414	0.000171	1.705547	0.577855	0.013941
1889	9.4400e-01	-4.4566	-12.875369	-0.000267	-2.668188	-0.904006	0.021809
1890	9.4450e-01	-4.3892	-12.782147	0.000228	2.281039	0.772837	0.018644
1891	9.4500e-01	-4.3539	-12.717576	0.000158	1.579986	0.535314	0.012914
1892	9.4550e-01	-4.2929	-12.589288	0.000314	3.139044	1.063537	0.025658
1893	9.4600e-01	-4.2689	-12.523861	0.000160	1.600913	0.542404	0.013085
1894	9.4650e-01	-4.2272	-12.425508	0.000241	2.406601	0.815378	0.019671
1895	9.4700e-01	-4.1726	-12.363930	0.000151	1.506741	0.510498	0.012316
1896	9.4750e-01	-4.1726	-12.249754	-0.000279	-2.793750	-0.946548	0.022835
1897	9.4800e-01	-4.1325	-12.150117	0.000244	2.437991	0.826014	0.019927
1898	9.4850e-01	-4.0764	-12.070151	0.000196	1.956671	0.662938	0.015993
1899	9.4900e-01	-4.0379	-11.967093	0.000252	2.521699	0.854375	0.020612
1900	9.4950e-01	-3.9897	-11.893969	0.000179	1.789255	0.606216	0.014625
1901	9.5000e-01	-3.9496	-11.796043	0.000240	2.396137	0.811833	0.019585
1902	9.5050e-01	-3.9031	-11.716505	0.000195	1.946208	0.659393	0.015908
1903	9.5100e-01	-3.8919	-11.571540	0.000355	3.547120	1.201797	0.028993
1904	9.5150e-01	-3.8068	-11.527067	0.000109	1.088202	0.368693	0.008895
1905	9.5200e-01	-3.8213	-11.412891	-0.000279	-2.793750	-0.946548	0.022835
1906	9.5250e-01	-3.7571	-11.360293	0.000129	1.287008	0.436050	0.010520
1907	9.5300e-01	-3.7282	-11.211052	0.000365	3.651755	1.237248	0.029848
1908	9.5350e-01	-3.6721	-11.146908	0.000157	1.569522	0.531769	0.012829
1909	9.5400e-01	-3.6384	-11.051548	0.000233	2.333356	0.790563	0.019072
1910	9.5450e-01	-3.5871	-10.983983	0.000165	1.653230	0.560130	0.013513
1911	9.5500e-01	-3.5486	-10.886484	0.000239	2.385674	0.808288	0.019500
1912	9.5550e-01	-3.5245	-10.752210	0.000329	3.285533	1.113169	0.026855
1913	9.5600e-01	-3.4860	-10.706882	0.000111	1.109129	0.375783	0.009066
1914	9.5650e-01	-3.4170	-10.589285	0.000288	2.877457	0.974909	0.023519
1915	9.5700e-01	-3.3849	-10.509319	0.000196	1.956671	0.662938	0.015993
1916	9.5750e-01	-3.3528	-10.418662	0.000222	2.218258	0.751566	0.018131
1917	9.5800e-01	-3.3304	-10.283105	0.000332	3.316924	1.123804	0.027111
1918	9.5850e-01	-3.2566	-10.247184	0.000088	0.878932	0.297790	0.007184
1919	9.5900e-01	-3.2229	-10.156956	0.000221	2.207795	0.748021	0.018046
1920	9.5950e-01	-3.1956	-10.050049	0.000262	2.615870	0.886281	0.021381
1921	9.6000e-01	-3.1507	-9.912781	0.000336	3.358778	1.137985	0.027454
1922	9.6050e-01	-3.0657	-9.879854	0.000081	0.805688	0.272975	0.006585
1923	9.6100e-01	-3.0689	-9.762685	-0.000287	-2.866994	-0.971364	0.023434
1924	9.6150e-01	-3.0192	-9.668180	0.000231	2.312429	0.783472	0.018901
1925	9.6200e-01	-2.9983	-9.562984	0.000257	2.574016	0.872100	0.021039
1926	9.6250e-01	-2.9775	-9.480452	0.000202	2.019452	0.684209	0.016506
1927	9.6300e-01	-2.9101	-9.378250	0.000250	2.500772	0.847285	0.020440
1928	9.6350e-01	-2.8908	-9.281179	0.000238	2.375210	0.804743	0.019414
1929	9.6400e-01	-2.8475	-9.155030	0.000309	3.086727	1.045811	0.025230
1930	9.6450e-01	-2.7978	-9.085754	0.000170	1.695084	0.574310	0.013855
1931	9.6500e-01	-2.7368	-9.004078	0.000200	1.998525	0.677119	0.016335
1932	9.6550e-01	-2.7464	-8.871942	-0.000323	-3.233216	-1.095443	0.026427
1933	9.6600e-01	-2.6839	-8.772305	0.000244	2.437991	0.826014	0.019927
1934	9.6650e-01	-2.6085	-8.739378	0.000081	0.805688	0.272975	0.006585
1935	9.6700e-01	-2.5924	-8.601682	0.000337	3.369241	1.141530	0.027539
1936	9.6750e-01	-2.5684	-8.511453	0.000221	2.207795	0.748021	0.018046
1937	9.6800e-01	-2.5138	-8.450303	0.000150	1.496278	0.506953	0.012230
1938	9.6850e-01	-2.4609	-8.330996	0.000292	2.919311	0.989089	0.023861
1939	9.6900e-01	-2.4192	-8.217247	0.000278	2.783286	0.943003	0.022750
1940	9.6950e-01	-2.3999	-8.139847	0.000189	1.893890	0.641667	0.015480
1941	9.7000e-01	-2.3662	-7.999158	0.000344	3.442485	1.166346	0.028138
1942	9.7050e-01	-2.2828	-7.961955	0.000091	0.910323	0.308426	0.007441
1943	9.7100e-01	-2.2780	-7.819556	0.000348	3.484339	1.180526	0.028480
1944	9.7150e-01	-2.2379	-7.739590	0.000196	1.956671	0.662938	0.015993
1945	9.7200e-01	-2.1962	-7.647223	0.000226	2.260112	0.765747	0.018473
1946	9.7250e-01	-2.1577	-7.519363	0.000313	3.128581	1.059992	0.025572
1947	9.7300e-01	-2.1096	-7.446239	0.000179	1.789255	0.606216	0.014625
1948	9.7350e-01	-2.0630	-7.350878	0.000233	2.333356	0.790563	0.019072
1949	9.7400e-01	-2.0550	-7.231571	0.000292	2.919311	0.989089	0.023861
1950	9.7450e-01	-1.9812	-7.166572	0.000159	1.590449	0.538859	0.013000
1951	9.7500e-01	-1.9411	-7.057955	0.000266	2.657724	0.900461	0.021723
1952	9.7550e-01	-1.8930	-6.963022	0.000232	2.322893	0.787017	0.018987
1953	9.7600e-01	-1.8657	-6.822761	0.000343	3.432022	1.162800	0.028052
1954	9.7650e-01	-1.8545	-6.746216	0.000187	1.872963	0.634577	0.015309
1955	9.7700e-01	-1.8048	-6.667961	0.000191	1.914817	0.648758	0.015651
1956	9.7750e-01	-1.7631	-6.526417	0.000346	3.463412	1.173436	0.028309
1957	9.7800e-01	-1.6860	-6.468688	0.000141	1.412570	0.478592	0.011546
1958	9.7850e-01	-1.6748	-6.360071	0.000266	2.657724	0.900461	0.021723
1959	9.7900e-01	-1.6347	-6.260862	0.000243	2.427528	0.822469	0.019842
1960	9.7950e-01	-1.5962	-6.124022	0.000335	3.348314	1.134440	0.027368
1961	9.8000e-01	-1.5401	-6.076128	0.000117	1.171910	0.397054	0.009579
1962	9.8050e-01	-1.5192	-5.955110	0.000296	2.961165	1.003270	0.024204
1963	9.8100e-01	-1.4695	-5.853335	0.000249	2.490309	0.843739	0.020355
1964	9.8150e-01	-1.4262	-5.746001	0.000263	2.626334	0.889826	0.021467
1965	9.8200e-01	-1.3925	-5.646364	0.000244	2.437991	0.826014	0.019927
1966	9.8250e-01	-1.3283	-5.533471	0.000276	2.762359	0.935913	0.022579
1967	9.8300e-01	-1.3058	-5.453505	0.000196	1.956671	0.662938	0.015993
1968	9.8350e-01	-1.2625	-5.354724	0.000242	2.417064	0.818924	0.019756
1969	9.8400e-01	-1.2160	-5.243969	0.000271	2.710042	0.918187	0.022151
1970	9.8450e-01	-1.1871	-5.151174	0.000227	2.270575	0.769292	0.018559
1971	9.8500e-01	-1.1262	-5.021604	0.000317	3.170435	1.074172	0.025914
1972	9.8550e-01	-1.0989	-4.927526	0.000230	2.301966	0.779927	0.018816
1973	9.8600e-01	-1.0700	-4.791541	0.000333	3.327387	1.127349	0.027197
1974	9.8650e-01	-1.0267	-4.714569	0.000188	1.883427	0.638122	0.015395
1975	9.8700e-01	-1.0059	-4.619636	0.000232	2.322893	0.787017	0.018987
1976	9.8750e-01	-0.9625	-4.501184	0.000290	2.898384	0.981999	0.023690
1977	9.8800e-01	-0.8920	-4.430198	0.000174	1.736938	0.588490	0.014197
1978	9.8850e-01	-0.8486	-4.309180	0.000296	2.961165	1.003270	0.024204
1979	9.8900e-01	-0.8182	-4.241615	0.000165	1.653230	0.560130	0.013513
1980	9.8950e-01	-0.7909	-4.084677	0.000384	3.840098	1.301060	0.031388
1981	9.9000e-01	-0.7315	-4.032079	0.000129	1.287008	0.436050	0.010520
1982	9.9050e-01	-0.7171	-3.871292	0.000393	3.934269	1.332966	0.032157
1983	9.9100e-01	-0.6818	-3.811424	0.000146	1.464887	0.496317	0.011974
1984	9.9150e-01	-0.6048	-3.704090	0.000263	2.626334	0.889826	0.021467
1985	9.9200e-01	-0.6048	-3.589059	-0.000281	-2.814676	-0.953638	0.023006
1986	9.9250e-01	-0.5342	-3.526198	0.000154	1.538132	0.521133	0.012572
1987	9.9300e-01	-0.5005	-3.396628	0.000317	3.170435	1.074172	0.025914
1988	9.9350e-01	-0.4957	-3.283734	0.000276	2.762359	0.935913	0.022579
1989	9.9400e-01	-0.4492	-3.159723	0.000303	3.034410	1.028086	0.024802
1990	9.9450e-01	-0.3898	-3.068639	0.000223	2.228722	0.755111	0.018217
1991	9.9500e-01	-0.3946	-2.942062	-0.000310	-3.097190	-1.049357	0.025315
1992	9.9550e-01	-0.3208	-2.859958	0.000201	2.008988	0.680664	0.016421
1993	9.9600e-01	-0.2631	-2.753479	0.000261	2.605407	0.882736	0.021296
1994	9.9650e-01	-0.2342	-2.621343	0.000323	3.233216	1.095443	0.026427
1995	9.9700e-01	-0.1989	-2.554633	0.000163	1.632303	0.553039	0.013342
1996	9.9750e-01	-0.1652	-2.422497	0.000323	3.233216	1.095443	0.026427
1997	9.9800e-01	-0.1267	-2.310032	0.000275	2.751896	0.932367	0.022493
1998	9.9850e-01	-0.0449	-2.256579	0.000131	1.307935	0.443140	0.010691
1999	9.9900e-01	-0.0369	-2.123587	0.000325	3.254143	1.102533	0.026598
2000	9.9950e-01	0.0096	-2.041055	0.000202	2.019452	0.684209	0.016506
2001	1.0000e+00	0.0337	-1.901650	0.000202	2.019452	0.684209	0.027881

Center data before PMax,+/-Pr and +/-Vc Calc.

PMax (uC/cm2):	4.13e+01
Pr (uC/cm2):	-1.90e-02
-Pr (uC/cm2):	-1.90e+00
PLoss (uC/cm2):	-8.60e-01
Vc:	4.78e-01
-Vc:	3.31e-02
C (Max-Eff) (nF):	2.06e-01
K (Eff):	6.98e+02
Vert. (+/-Pr) Shift (uC/cm2):	-9.60e-01
Horiz. Shift (+/-Vc):	2.56e-01
Offset (uC/cm2):	1.01e+00

A (Loop Area - uC/cm2·Volts):	7.14e-02



Hysteresis Version: 5.48.1 - Radiant Technologies, Inc., 1999 - 9/12/24

