»»»»»»»»»»»»»»»»»»»»»»»»»»»»»»»»»»»» Hysteresis ««««««««««««««««««««««««««««««««««««
»»»  Executed Version:	5.48.1
»»»  Vision Version:	5.48.4 (R)
»»»  Vision Compiled:	9/18/24
»»»  Driver Version:	5.47.0
»»»  Windows Version:	Windows 8 or 8.1
»»»  Processor Information:	x86 (AMD or Intel) - 32 Processors
»»»  Tester Name:	PMF21124-494 (100V)
»»»  Tester S/N:	PMF21124-494
»»»  Internal Amp Type:	100V RevK 270k
»»»  Internal Amp S/N:	iAB2-596/K     
»»»  Execution Count:	1
»»»»»»»»»»»»»»»»»»»»»»»»»»»»»»»»»»»»»»»»»»««««««««««««««««««««««««««««««««««««««««««

Stored:	6/6/2025 - 16:57:6
Configured:	06/06/25 01:57:07 PM
Executed:	06/06/25 04:56:31 PM

»»»»»»»»»»»»»»»»»»»»»»»»»»»»»»»»»»» Sample Info ««««««««««««««««««««««««««««««««««««
Sample Name:	
Lot Name:	
Wafer Name:	
Die Row/Column:	0/0
Capacitor Number:	0
Sample Area (cm2):	1.00e-04
Sample Thickness (microns):	3.00e-01

Amplifier:	Internal

»»»»»»»»»»»»»»»»»»»»»»»»»»»»»»»»»»» Tester Info «««««««««««««««««««««««««««««««««««
Tester Name:	PMF21124-494 (100V)
Tester Serial Number:	PMF21124-494
Return Signal Amp. Level:	1.9 [Index: 2]

»»»»»»»»»»»»»»»»»»»»»»»»»»»»»»»» Hysteresis Info ««««««««««««««««««««««««««««««««««
Task Name:	Hyst-501
Volts:	20.00
Field:	666.67 (kV/cm)
DCBias:	0.00
DCField:	0.00 (kV/cm)
Hysteresis Period (ms):	2.00e+02
Preset:	Enabled
Preset Delay (ms):	1.00e+03
Profile:	Standard Bipolar

»»»»»»»»»»»»»»»»»»»»»»»»»»»»»»»»»»»»»» Data «««««««««««««««««««««««««««««««««««««««
Points:	2009

Valid Data

Point	Time (ms)	Drive Voltage	Measured Polarization (uC/cm2)	Capacitance (uF)	Normalized Capacitance (uF/cm2)	Dielectric Constant	Instantaneous Current (mA)
   1	0.0000e+00	0.0481	-1.648923	0.000140	1.401417	0.474813	0.000057
   2	9.9500e-02	0.0594	-1.592302	0.000140	1.401417	0.474813	0.000057
   3	1.9900e-01	0.1203	-1.516129	0.000189	1.885360	0.638777	0.000077
   4	2.9850e-01	0.1155	-1.435475	-0.000200	-1.996264	-0.676352	0.000081
   5	3.9800e-01	0.1845	-1.358080	0.000192	1.915606	0.649025	0.000078
   6	4.9750e-01	0.2102	-1.277834	0.000199	1.986181	0.672936	0.000081
   7	5.9700e-01	0.2695	-1.201253	0.000190	1.895442	0.642193	0.000077
   8	6.9650e-01	0.2952	-1.123043	0.000194	1.935771	0.655857	0.000079
   9	7.9600e-01	0.3481	-1.044834	0.000194	1.935771	0.655857	0.000079
  10	8.9550e-01	0.3834	-0.962958	0.000203	2.026510	0.686600	0.000082
  11	9.9500e-01	0.4011	-0.883119	0.000198	1.976099	0.669521	0.000080
  12	1.0945e+00	0.4652	-0.804094	0.000196	1.955935	0.662689	0.000079
  13	1.1940e+00	0.4749	-0.726699	0.000192	1.915606	0.649025	0.000078
  14	1.2935e+00	0.5134	-0.643194	0.000207	2.066839	0.700264	0.000084
  15	1.3930e+00	0.5936	-0.564984	0.000194	1.935771	0.655857	0.000079
  16	1.4925e+00	0.5936	-0.485145	-0.000198	-1.976099	-0.669521	0.000080
  17	1.5920e+00	0.6529	-0.402862	0.000204	2.036592	0.690016	0.000083
  18	1.6915e+00	0.6770	-0.320579	0.000204	2.036592	0.690016	0.000083
  19	1.7910e+00	0.7107	-0.240332	0.000199	1.986181	0.672936	0.000081
  20	1.8905e+00	0.7588	-0.158456	0.000203	2.026510	0.686600	0.000082
  21	1.9900e+00	0.8214	-0.073729	0.000210	2.097085	0.710512	0.000085
  22	2.0895e+00	0.8823	0.008962	0.000205	2.046674	0.693432	0.000083
  23	2.1890e+00	0.8791	0.092467	-0.000207	-2.066839	-0.700264	0.000084
  24	2.2885e+00	0.9337	0.174750	0.000204	2.036592	0.690016	0.000083
  25	2.3880e+00	0.9754	0.259070	0.000209	2.087003	0.707096	0.000085
  26	2.4875e+00	1.0171	0.345019	0.000213	2.127331	0.720759	0.000086
  27	2.5870e+00	1.0572	0.425673	0.000200	1.996264	0.676352	0.000081
  28	2.6865e+00	1.1149	0.507549	0.000203	2.026510	0.686600	0.000082
  29	2.7860e+00	1.1246	0.587388	0.000198	1.976099	0.669521	0.000080
  30	2.8855e+00	1.1743	0.672523	0.000211	2.107167	0.713928	0.000086
  31	2.9850e+00	1.2240	0.757250	0.000210	2.097085	0.710512	0.000085
  32	3.0845e+00	1.2689	0.838718	0.000202	2.016428	0.683184	0.000082
  33	3.1840e+00	1.2962	0.926704	0.000218	2.177742	0.737839	0.000088
  34	3.2835e+00	1.3235	1.011024	0.000209	2.087003	0.707096	0.000085
  35	3.3830e+00	1.3893	1.096566	0.000212	2.117249	0.717343	0.000086
  36	3.4825e+00	1.4133	1.182108	0.000212	2.117249	0.717343	0.000086
  37	3.5820e+00	1.4727	1.262762	0.000200	1.996264	0.676352	0.000081
  38	3.6815e+00	1.4871	1.348711	0.000213	2.127331	0.720759	0.000086
  39	3.7810e+00	1.5256	1.432216	0.000207	2.066839	0.700264	0.000084
  40	3.8805e+00	1.5866	1.517351	0.000211	2.107167	0.713928	0.000086
  41	3.9800e+00	1.6235	1.600042	0.000205	2.046674	0.693432	0.000083
  42	4.0795e+00	1.6219	1.687213	-0.000216	-2.157578	-0.731007	0.000088
  43	4.1790e+00	1.6909	1.772755	0.000212	2.117249	0.717343	0.000086
  44	4.2785e+00	1.7390	1.855038	0.000204	2.036592	0.690016	0.000083
  45	4.3780e+00	1.7791	1.934470	0.000197	1.966017	0.666105	0.000080
  46	4.4775e+00	1.8336	2.015124	0.000200	1.996264	0.676352	0.000081
  47	4.5770e+00	1.8593	2.099036	0.000208	2.076921	0.703680	0.000084
  48	4.6765e+00	1.8898	2.183356	0.000209	2.087003	0.707096	0.000085
  49	4.7760e+00	1.9251	2.271749	0.000219	2.187824	0.741255	0.000089
  50	4.8755e+00	1.9941	2.354440	0.000205	2.046674	0.693432	0.000083
  51	4.9750e+00	2.0053	2.439167	0.000210	2.097085	0.710512	0.000085
  52	5.0745e+00	2.0229	2.521043	0.000203	2.026510	0.686600	0.000082
  53	5.1740e+00	2.0855	2.608214	0.000216	2.157578	0.731007	0.000088
  54	5.2735e+00	2.1368	2.682758	0.000185	1.845031	0.625114	0.000075
  55	5.3730e+00	2.1577	2.770337	0.000217	2.167660	0.734423	0.000088
  56	5.4725e+00	2.2042	2.853027	0.000205	2.046674	0.693432	0.000083
  57	5.5720e+00	2.2652	2.935310	0.000204	2.036592	0.690016	0.000083
  58	5.6715e+00	2.2780	3.015557	0.000199	1.986181	0.672936	0.000081
  59	5.7710e+00	2.3197	3.092545	0.000191	1.905524	0.645609	0.000077
  60	5.8705e+00	2.3839	3.171162	0.000195	1.945853	0.659273	0.000079
  61	5.9700e+00	2.3983	3.253038	0.000203	2.026510	0.686600	0.000082
  62	6.0695e+00	2.4721	3.340209	0.000216	2.157578	0.731007	0.000088
  63	6.1690e+00	2.4914	3.412309	0.000178	1.784539	0.604618	0.000072
  64	6.2685e+00	2.5764	3.493777	0.000202	2.016428	0.683184	0.000082
  65	6.3680e+00	2.5748	3.571987	-0.000194	-1.935771	-0.655857	0.000079
  66	6.4675e+00	2.5989	3.650604	0.000195	1.945853	0.659273	0.000079
  67	6.5670e+00	2.6502	3.733294	0.000205	2.046674	0.693432	0.000083
  68	6.6665e+00	2.7144	3.816800	0.000207	2.066839	0.700264	0.000084
  69	6.7660e+00	2.7176	3.891343	0.000185	1.845031	0.625114	0.000075
  70	6.8655e+00	2.7689	3.970775	0.000197	1.966017	0.666105	0.000080
  71	6.9650e+00	2.8138	4.050614	0.000198	1.976099	0.669521	0.000080
  72	7.0645e+00	2.8379	4.129639	0.000196	1.955935	0.662689	0.000079
  73	7.1640e+00	2.8844	4.201738	0.000178	1.784539	0.604618	0.000072
  74	7.2635e+00	2.9165	4.278319	0.000190	1.895442	0.642193	0.000077
  75	7.3630e+00	2.9662	4.358973	0.000200	1.996264	0.676352	0.000081
  76	7.4625e+00	2.9999	4.439219	0.000199	1.986181	0.672936	0.000081
  77	7.5620e+00	3.0545	4.513763	0.000185	1.845031	0.625114	0.000075
  78	7.6615e+00	3.0689	4.596046	0.000204	2.036592	0.690016	0.000083
  79	7.7610e+00	3.1186	4.668146	0.000178	1.784539	0.604618	0.000072
  80	7.8605e+00	3.1571	4.751244	0.000206	2.056756	0.696848	0.000084
  81	7.9600e+00	3.1972	4.829861	0.000195	1.945853	0.659273	0.000079
  82	8.0595e+00	3.2470	4.901553	0.000177	1.774456	0.601202	0.000072
  83	8.1590e+00	3.2919	4.981799	0.000199	1.986181	0.672936	0.000081
  84	8.2585e+00	3.3368	5.060824	0.000196	1.955935	0.662689	0.000079
  85	8.3580e+00	3.3705	5.132923	0.000178	1.784539	0.604618	0.000072
  86	8.4575e+00	3.4074	5.207060	0.000183	1.834949	0.621698	0.000075
  87	8.5570e+00	3.4523	5.291380	0.000209	2.087003	0.707096	0.000085
  88	8.6565e+00	3.4972	5.365109	0.000182	1.824867	0.618282	0.000074
  89	8.7560e+00	3.5229	5.444133	0.000196	1.955935	0.662689	0.000079
  90	8.8555e+00	3.5502	5.517862	0.000182	1.824867	0.618282	0.000074
  91	8.9550e+00	3.6111	5.593221	0.000187	1.865196	0.631945	0.000076
  92	9.0545e+00	3.6240	5.668579	0.000187	1.865196	0.631945	0.000076
  93	9.1540e+00	3.7154	5.745567	0.000191	1.905524	0.645609	0.000077
  94	9.2535e+00	3.7266	5.817259	0.000177	1.774456	0.601202	0.000072
  95	9.3530e+00	3.7716	5.895061	0.000193	1.925689	0.652441	0.000078
  96	9.4525e+00	3.7860	5.972456	0.000192	1.915606	0.649025	0.000078
  97	9.5520e+00	3.8277	6.049852	0.000192	1.915606	0.649025	0.000078
  98	9.6515e+00	3.8646	6.124803	0.000186	1.855114	0.628529	0.000075
  99	9.7510e+00	3.9063	6.200568	0.000188	1.875278	0.635361	0.000076
 100	9.8505e+00	3.9721	6.274297	0.000182	1.824867	0.618282	0.000074
 101	9.9500e+00	4.0314	6.350878	0.000190	1.895442	0.642193	0.000077
 102	1.0050e+01	4.0346	6.427051	0.000189	1.885360	0.638777	0.000077
 103	1.0149e+01	4.1036	6.497114	0.000173	1.734128	0.587538	0.000070
 104	1.0248e+01	4.1261	6.570435	0.000181	1.814785	0.614866	0.000074
 105	1.0348e+01	4.1421	6.646201	0.000188	1.875278	0.635361	0.000076
 106	1.0447e+01	4.1726	6.717079	0.000175	1.754292	0.594370	0.000071
 107	1.0547e+01	4.2223	6.787549	0.000174	1.744210	0.590954	0.000071
 108	1.0646e+01	4.2913	6.862093	0.000185	1.845031	0.625114	0.000075
 109	1.0746e+01	4.3314	6.936229	0.000183	1.834949	0.621698	0.000075
 110	1.0845e+01	4.3539	7.007514	0.000176	1.764374	0.597786	0.000072
 111	1.0945e+01	4.4261	7.083687	0.000189	1.885360	0.638777	0.000077
 112	1.1044e+01	4.4373	7.150491	0.000165	1.653471	0.560211	0.000067
 113	1.1144e+01	4.4854	7.225850	0.000187	1.865196	0.631945	0.000076
 114	1.1243e+01	4.5127	7.301208	0.000187	1.865196	0.631945	0.000076
 115	1.1343e+01	4.5624	7.370863	0.000172	1.724046	0.584123	0.000070
 116	1.1443e+01	4.6202	7.441741	0.000175	1.754292	0.594370	0.000071
 117	1.1542e+01	4.6378	7.510582	0.000170	1.703881	0.577291	0.000069
 118	1.1642e+01	4.7148	7.581460	0.000175	1.754292	0.594370	0.000071
 119	1.1741e+01	4.7036	7.654781	-0.000181	-1.814785	-0.614866	0.000074
 120	1.1841e+01	4.7726	7.726474	0.000177	1.774456	0.601202	0.000072
 121	1.1940e+01	4.7870	7.795314	0.000170	1.703881	0.577291	0.000069
 122	1.2040e+01	4.8672	7.865377	0.000173	1.734128	0.587538	0.000070
 123	1.2139e+01	4.8624	7.938699	-0.000181	-1.814785	-0.614866	0.000074
 124	1.2239e+01	4.9250	8.013243	0.000185	1.845031	0.625114	0.000075
 125	1.2338e+01	4.9651	8.079640	0.000164	1.643389	0.556795	0.000067
 126	1.2438e+01	5.0052	8.153776	0.000183	1.834949	0.621698	0.000075
 127	1.2537e+01	5.0533	8.223024	0.000171	1.713964	0.580707	0.000070
 128	1.2636e+01	5.0966	8.295531	0.000179	1.794621	0.608034	0.000073
 129	1.2736e+01	5.1223	8.368038	0.000179	1.794621	0.608034	0.000073
 130	1.2835e+01	5.1384	8.438508	0.000174	1.744210	0.590954	0.000071
 131	1.2935e+01	5.1720	8.512237	0.000182	1.824867	0.618282	0.000074
 132	1.3034e+01	5.2490	8.585152	0.000180	1.804703	0.611450	0.000073
 133	1.3134e+01	5.2940	8.657251	0.000178	1.784539	0.604618	0.000072
 134	1.3233e+01	5.3132	8.726092	0.000170	1.703881	0.577291	0.000069
 135	1.3333e+01	5.3678	8.798599	0.000179	1.794621	0.608034	0.000073
 136	1.3432e+01	5.3918	8.867847	0.000171	1.713964	0.580707	0.000070
 137	1.3532e+01	5.4656	8.941576	0.000182	1.824867	0.618282	0.000074
 138	1.3632e+01	5.4608	9.007566	-0.000163	-1.633307	-0.553379	0.000066
 139	1.3731e+01	5.5041	9.082517	0.000186	1.855114	0.628529	0.000075
 140	1.3831e+01	5.5539	9.154209	0.000177	1.774456	0.601202	0.000072
 141	1.3930e+01	5.6084	9.228753	0.000185	1.845031	0.625114	0.000075
 142	1.4030e+01	5.6309	9.300852	0.000178	1.784539	0.604618	0.000072
 143	1.4129e+01	5.6790	9.376618	0.000188	1.875278	0.635361	0.000076
 144	1.4229e+01	5.7159	9.449125	0.000179	1.794621	0.608034	0.000073
 145	1.4328e+01	5.7704	9.523262	0.000183	1.834949	0.621698	0.000075
 146	1.4428e+01	5.8202	9.594954	0.000177	1.774456	0.601202	0.000072
 147	1.4527e+01	5.8202	9.664609	-0.000172	-1.724046	-0.584123	0.000070
 148	1.4627e+01	5.8699	9.741597	0.000191	1.905524	0.645609	0.000077
 149	1.4726e+01	5.9276	9.815733	0.000183	1.834949	0.621698	0.000075
 150	1.4825e+01	5.9677	9.888240	0.000179	1.794621	0.608034	0.000073
 151	1.4925e+01	6.0111	9.959933	0.000177	1.774456	0.601202	0.000072
 152	1.5024e+01	5.9998	10.029181	-0.000171	-1.713964	-0.580707	0.000070
 153	1.5124e+01	6.0736	10.106576	0.000192	1.915606	0.649025	0.000078
 154	1.5223e+01	6.1266	10.174195	0.000167	1.673635	0.567043	0.000068
 155	1.5323e+01	6.1763	10.251590	0.000192	1.915606	0.649025	0.000078
 156	1.5422e+01	6.1907	10.319616	0.000168	1.683717	0.570459	0.000068
 157	1.5522e+01	6.2485	10.395789	0.000189	1.885360	0.638777	0.000077
 158	1.5621e+01	6.2597	10.469518	0.000182	1.824867	0.618282	0.000074
 159	1.5721e+01	6.3046	10.546913	0.000192	1.915606	0.649025	0.000078
 160	1.5820e+01	6.3688	10.618606	0.000177	1.774456	0.601202	0.000072
 161	1.5920e+01	6.4105	10.691113	0.000179	1.794621	0.608034	0.000073
 162	1.6020e+01	6.4378	10.767693	0.000190	1.895442	0.642193	0.000077
 163	1.6119e+01	6.4586	10.836534	0.000170	1.703881	0.577291	0.000069
 164	1.6218e+01	6.5036	10.911485	0.000186	1.855114	0.628529	0.000075
 165	1.6318e+01	6.5372	10.979918	0.000169	1.693799	0.573875	0.000069
 166	1.6418e+01	6.5838	11.053647	0.000182	1.824867	0.618282	0.000074
 167	1.6517e+01	6.6255	11.127784	0.000183	1.834949	0.621698	0.000075
 168	1.6616e+01	6.6624	11.200291	0.000179	1.794621	0.608034	0.000073
 169	1.6716e+01	6.7265	11.269946	0.000172	1.724046	0.584123	0.000070
 170	1.6816e+01	6.7474	11.343268	0.000181	1.814785	0.614866	0.000074
 171	1.6915e+01	6.7939	11.414146	0.000175	1.754292	0.594370	0.000071
 172	1.7015e+01	6.8212	11.491133	0.000191	1.905524	0.645609	0.000077
 173	1.7114e+01	6.8453	11.558345	0.000166	1.663553	0.563627	0.000068
 174	1.7213e+01	6.9239	11.632889	0.000185	1.845031	0.625114	0.000075
 175	1.7313e+01	6.9560	11.705396	0.000179	1.794621	0.608034	0.000073
 176	1.7413e+01	6.9945	11.784420	0.000196	1.955935	0.662689	0.000079
 177	1.7512e+01	7.0233	11.852039	0.000167	1.673635	0.567043	0.000068
 178	1.7611e+01	7.0715	11.925768	0.000182	1.824867	0.618282	0.000074
 179	1.7711e+01	7.1420	11.999497	0.000182	1.824867	0.618282	0.000074
 180	1.7811e+01	7.1629	12.075263	0.000188	1.875278	0.635361	0.000076
 181	1.7910e+01	7.1870	12.144511	0.000171	1.713964	0.580707	0.000070
 182	1.8009e+01	7.2190	12.215796	0.000176	1.764374	0.597786	0.000072
 183	1.8109e+01	7.2768	12.290339	0.000185	1.845031	0.625114	0.000075
 184	1.8209e+01	7.2928	12.359995	0.000172	1.724046	0.584123	0.000070
 185	1.8308e+01	7.3714	12.433724	0.000182	1.824867	0.618282	0.000074
 186	1.8407e+01	7.3811	12.502972	0.000171	1.713964	0.580707	0.000070
 187	1.8507e+01	7.4100	12.583219	0.000199	1.986181	0.672936	0.000081
 188	1.8607e+01	7.4565	12.654911	0.000177	1.774456	0.601202	0.000072
 189	1.8706e+01	7.5142	12.731899	0.000191	1.905524	0.645609	0.000077
 190	1.8805e+01	7.5399	12.805220	0.000181	1.814785	0.614866	0.000074
 191	1.8905e+01	7.5704	12.875283	0.000173	1.734128	0.587538	0.000070
 192	1.9005e+01	7.6281	12.952271	0.000191	1.905524	0.645609	0.000077
 193	1.9104e+01	7.6634	13.026000	0.000182	1.824867	0.618282	0.000074
 194	1.9203e+01	7.7196	13.096878	0.000175	1.754292	0.594370	0.000071
 195	1.9303e+01	7.7228	13.171829	0.000186	1.855114	0.628529	0.000075
 196	1.9402e+01	7.7966	13.241892	0.000173	1.734128	0.587538	0.000070
 197	1.9502e+01	7.8383	13.315213	0.000181	1.814785	0.614866	0.000074
 198	1.9602e+01	7.8463	13.384462	0.000171	1.713964	0.580707	0.000070
 199	1.9701e+01	7.8864	13.461857	0.000192	1.915606	0.649025	0.000078
 200	1.9800e+01	7.9281	13.530698	0.000170	1.703881	0.577291	0.000069
 201	1.9900e+01	8.0099	13.610129	0.000197	1.966017	0.666105	0.000080
 202	2.0000e+01	8.0372	13.681822	0.000177	1.774456	0.601202	0.000072
 203	2.0099e+01	8.0934	13.752292	0.000174	1.744210	0.590954	0.000071
 204	2.0198e+01	8.1319	13.824392	0.000178	1.784539	0.604618	0.000072
 205	2.0298e+01	8.1591	13.902194	0.000193	1.925689	0.652441	0.000078
 206	2.0398e+01	8.1800	13.971442	0.000171	1.713964	0.580707	0.000070
 207	2.0497e+01	8.2361	14.052096	0.000200	1.996264	0.676352	0.000081
 208	2.0596e+01	8.2714	14.117678	0.000162	1.623224	0.549963	0.000066
 209	2.0696e+01	8.3083	14.191814	0.000183	1.834949	0.621698	0.000075
 210	2.0796e+01	8.3532	14.264729	0.000180	1.804703	0.611450	0.000073
 211	2.0895e+01	8.3950	14.336828	0.000178	1.784539	0.604618	0.000072
 212	2.0994e+01	8.4367	14.409335	0.000179	1.794621	0.608034	0.000073
 213	2.1094e+01	8.4671	14.473696	0.000159	1.592978	0.539716	0.000065
 214	2.1194e+01	8.4864	14.546203	0.000179	1.794621	0.608034	0.000073
 215	2.1293e+01	8.5233	14.618302	0.000178	1.784539	0.604618	0.000072
 216	2.1392e+01	8.6019	14.692031	0.000182	1.824867	0.618282	0.000074
 217	2.1492e+01	8.6131	14.760465	0.000169	1.693799	0.573875	0.000069
 218	2.1591e+01	8.6532	14.837860	0.000192	1.915606	0.649025	0.000078
 219	2.1691e+01	8.7190	14.904664	0.000165	1.653471	0.560211	0.000067
 220	2.1791e+01	8.7383	14.977986	0.000181	1.814785	0.614866	0.000074
 221	2.1890e+01	8.7768	15.046827	0.000170	1.703881	0.577291	0.000069
 222	2.1989e+01	8.8313	15.112816	0.000163	1.633307	0.553379	0.000066
 223	2.2089e+01	8.8730	15.185323	0.000179	1.794621	0.608034	0.000073
 224	2.2189e+01	8.9308	15.254979	0.000172	1.724046	0.584123	0.000070
 225	2.2288e+01	8.9532	15.328300	0.000181	1.814785	0.614866	0.000074
 226	2.2387e+01	8.9805	15.391846	0.000157	1.572814	0.532884	0.000064
 227	2.2487e+01	9.0270	15.462316	0.000174	1.744210	0.590954	0.000071
 228	2.2587e+01	9.0655	15.529527	0.000166	1.663553	0.563627	0.000068
 229	2.2686e+01	9.0944	15.597961	0.000169	1.693799	0.573875	0.000069
 230	2.2785e+01	9.1393	15.665580	0.000167	1.673635	0.567043	0.000068
 231	2.2885e+01	9.1955	15.734828	0.000171	1.713964	0.580707	0.000070
 232	2.2985e+01	9.2163	15.795522	0.000150	1.502239	0.508972	0.000061
 233	2.3084e+01	9.2725	15.868844	0.000181	1.814785	0.614866	0.000074
 234	2.3183e+01	9.3206	15.932797	0.000158	1.582896	0.536300	0.000064
 235	2.3283e+01	9.3222	15.996342	0.000157	1.572814	0.532884	0.000064
 236	2.3383e+01	9.3864	16.063554	0.000166	1.663553	0.563627	0.000068
 237	2.3482e+01	9.3896	16.137283	0.000182	1.824867	0.618282	0.000074
 238	2.3581e+01	9.4634	16.199199	0.000153	1.532485	0.519220	0.000062
 239	2.3681e+01	9.5051	16.263559	0.000159	1.592978	0.539716	0.000065
 240	2.3780e+01	9.5436	16.330363	0.000165	1.653471	0.560211	0.000067
 241	2.3880e+01	9.5709	16.395538	0.000161	1.613142	0.546547	0.000066
 242	2.3980e+01	9.6286	16.459898	0.000159	1.592978	0.539716	0.000065
 243	2.4079e+01	9.6735	16.528739	0.000170	1.703881	0.577291	0.000069
 244	2.4178e+01	9.7056	16.589840	0.000151	1.512321	0.512388	0.000061
 245	2.4278e+01	9.7393	16.659088	0.000171	1.713964	0.580707	0.000070
 246	2.4378e+01	9.7473	16.723041	0.000158	1.582896	0.536300	0.000064
 247	2.4477e+01	9.8356	16.786587	0.000157	1.572814	0.532884	0.000064
 248	2.4576e+01	9.8420	16.849317	0.000155	1.552649	0.526052	0.000063
 249	2.4676e+01	9.8821	16.917751	0.000169	1.693799	0.573875	0.000069
 250	2.4776e+01	9.9430	16.980889	0.000156	1.562732	0.529468	0.000063
 251	2.4875e+01	9.9880	17.046878	0.000163	1.633307	0.553379	0.000066
 252	2.4974e+01	10.0216	17.109202	0.000154	1.542567	0.522636	0.000063
 253	2.5074e+01	10.0778	17.174784	0.000162	1.623224	0.549963	0.000066
 254	2.5174e+01	10.1002	17.239959	0.000161	1.613142	0.546547	0.000066
 255	2.5273e+01	10.1195	17.304319	0.000159	1.592978	0.539716	0.000065
 256	2.5372e+01	10.1516	17.371123	0.000165	1.653471	0.560211	0.000067
 257	2.5472e+01	10.2013	17.433447	0.000154	1.542567	0.522636	0.000063
 258	2.5572e+01	10.2510	17.492919	0.000147	1.471992	0.498724	0.000060
 259	2.5671e+01	10.2976	17.560537	0.000167	1.673635	0.567043	0.000068
 260	2.5770e+01	10.3281	17.626120	0.000162	1.623224	0.549963	0.000066
 261	2.5870e+01	10.3601	17.685999	0.000148	1.482074	0.502140	0.000060
 262	2.5970e+01	10.4131	17.748730	0.000155	1.552649	0.526052	0.000063
 263	2.6069e+01	10.4436	17.817163	0.000169	1.693799	0.573875	0.000069
 264	2.6169e+01	10.5109	17.881931	0.000160	1.603060	0.543131	0.000065
 265	2.6268e+01	10.5446	17.943847	0.000153	1.532485	0.519220	0.000062
 266	2.6367e+01	10.5815	18.006985	0.000156	1.562732	0.529468	0.000063
 267	2.6467e+01	10.6569	18.066864	0.000148	1.482074	0.502140	0.000060
 268	2.6567e+01	10.6746	18.134483	0.000167	1.673635	0.567043	0.000068
 269	2.6666e+01	10.6890	18.194770	0.000149	1.492157	0.505556	0.000061
 270	2.6765e+01	10.7275	18.259945	0.000161	1.613142	0.546547	0.000066
 271	2.6865e+01	10.7628	18.319417	0.000147	1.471992	0.498724	0.000060
 272	2.6965e+01	10.8382	18.380925	0.000152	1.522403	0.515804	0.000062
 273	2.7064e+01	10.8302	18.438768	-0.000143	-1.431664	-0.485061	0.000058
 274	2.7163e+01	10.9024	18.502721	0.000158	1.582896	0.536300	0.000064
 275	2.7263e+01	10.9328	18.558934	0.000139	1.391335	0.471397	0.000056
 276	2.7363e+01	10.9649	18.620850	0.000153	1.532485	0.519220	0.000062
 277	2.7462e+01	11.0098	18.683581	0.000155	1.552649	0.526052	0.000063
 278	2.7561e+01	11.0644	18.747941	0.000159	1.592978	0.539716	0.000065
 279	2.7661e+01	11.0885	18.804969	0.000141	1.411499	0.478229	0.000057
 280	2.7761e+01	11.1238	18.866070	0.000151	1.512321	0.512388	0.000061
 281	2.7860e+01	11.1927	18.927579	0.000152	1.522403	0.515804	0.000062
 282	2.7959e+01	11.1943	18.989902	0.000154	1.542567	0.522636	0.000063
 283	2.8059e+01	11.2473	19.045301	0.000137	1.371171	0.464565	0.000056
 284	2.8159e+01	11.2874	19.109661	0.000159	1.592978	0.539716	0.000065
 285	2.8258e+01	11.3387	19.169948	0.000149	1.492157	0.505556	0.000061
 286	2.8358e+01	11.3724	19.228605	0.000145	1.451828	0.491893	0.000059
 287	2.8457e+01	11.3997	19.291743	0.000156	1.562732	0.529468	0.000063
 288	2.8556e+01	11.4606	19.346734	0.000136	1.361089	0.461149	0.000055
 289	2.8656e+01	11.5007	19.402948	0.000139	1.391335	0.471397	0.000056
 290	2.8756e+01	11.5280	19.465679	0.000155	1.552649	0.526052	0.000063
 291	2.8855e+01	11.5713	19.525965	0.000149	1.492157	0.505556	0.000061
 292	2.8954e+01	11.6146	19.582993	0.000141	1.411499	0.478229	0.000057
 293	2.9054e+01	11.6724	19.642058	0.000146	1.461910	0.495309	0.000059
 294	2.9154e+01	11.7173	19.703567	0.000152	1.522403	0.515804	0.000062
 295	2.9253e+01	11.7494	19.765890	0.000154	1.542567	0.522636	0.000063
 296	2.9352e+01	11.7622	19.824955	0.000146	1.461910	0.495309	0.000059
 297	2.9452e+01	11.8120	19.887685	0.000155	1.552649	0.526052	0.000063
 298	2.9552e+01	11.8473	19.946343	0.000145	1.451828	0.491893	0.000059
 299	2.9651e+01	11.8906	20.008259	0.000153	1.532485	0.519220	0.000062
 300	2.9750e+01	11.9291	20.067323	0.000146	1.461910	0.495309	0.000059
 301	2.9850e+01	11.9660	20.125166	0.000143	1.431664	0.485061	0.000058
 302	2.9950e+01	12.0221	20.186267	0.000151	1.512321	0.512388	0.000061
 303	3.0049e+01	12.0702	20.249406	0.000156	1.562732	0.529468	0.000063
 304	3.0148e+01	12.1023	20.308878	0.000147	1.471992	0.498724	0.000060
 305	3.0248e+01	12.1296	20.368757	0.000148	1.482074	0.502140	0.000060
 306	3.0348e+01	12.1521	20.429044	0.000149	1.492157	0.505556	0.000061
 307	3.0447e+01	12.2130	20.492996	0.000158	1.582896	0.536300	0.000064
 308	3.0547e+01	12.2499	20.550024	0.000141	1.411499	0.478229	0.000057
 309	3.0646e+01	12.2836	20.616014	0.000163	1.633307	0.553379	0.000066
 310	3.0745e+01	12.3366	20.675486	0.000147	1.471992	0.498724	0.000060
 311	3.0845e+01	12.3975	20.734143	0.000145	1.451828	0.491893	0.000059
 312	3.0945e+01	12.4087	20.798096	0.000158	1.582896	0.536300	0.000064
 313	3.1044e+01	12.4681	20.862049	0.000158	1.582896	0.536300	0.000064
 314	3.1143e+01	12.4938	20.923150	0.000151	1.512321	0.512388	0.000061
 315	3.1243e+01	12.5226	20.985474	0.000154	1.542567	0.522636	0.000063
 316	3.1343e+01	12.5483	21.053907	0.000169	1.693799	0.573875	0.000069
 317	3.1442e+01	12.6301	21.110120	0.000139	1.391335	0.471397	0.000056
 318	3.1541e+01	12.6526	21.172036	0.000153	1.532485	0.519220	0.000062
 319	3.1641e+01	12.6831	21.233953	0.000153	1.532485	0.519220	0.000062
 320	3.1741e+01	12.7151	21.299127	0.000161	1.613142	0.546547	0.000066
 321	3.1840e+01	12.7761	21.361858	0.000155	1.552649	0.526052	0.000063
 322	3.1939e+01	12.7938	21.421737	0.000148	1.482074	0.502140	0.000060
 323	3.2039e+01	12.8355	21.482839	0.000151	1.512321	0.512388	0.000061
 324	3.2139e+01	12.8788	21.547606	0.000160	1.603060	0.543131	0.000065
 325	3.2238e+01	12.9301	21.607893	0.000149	1.492157	0.505556	0.000061
 326	3.2337e+01	12.9702	21.669809	0.000153	1.532485	0.519220	0.000062
 327	3.2437e+01	13.0039	21.729688	0.000148	1.482074	0.502140	0.000060
 328	3.2536e+01	13.0440	21.793234	0.000157	1.572814	0.532884	0.000064
 329	3.2636e+01	13.0825	21.857187	0.000158	1.582896	0.536300	0.000064
 330	3.2736e+01	13.1178	21.920732	0.000157	1.572814	0.532884	0.000064
 331	3.2835e+01	13.1740	21.984685	0.000158	1.582896	0.536300	0.000064
 332	3.2934e+01	13.1948	22.047416	0.000155	1.552649	0.526052	0.000063
 333	3.3034e+01	13.2365	22.105258	0.000143	1.431664	0.485061	0.000058
 334	3.3133e+01	13.2911	22.168804	0.000157	1.572814	0.532884	0.000064
 335	3.3233e+01	13.3280	22.227461	0.000145	1.451828	0.491893	0.000059
 336	3.3333e+01	13.3777	22.293043	0.000162	1.623224	0.549963	0.000066
 337	3.3432e+01	13.4050	22.351293	0.000144	1.441746	0.488477	0.000059
 338	3.3532e+01	13.4563	22.415653	0.000159	1.592978	0.539716	0.000065
 339	3.3631e+01	13.4788	22.477162	0.000152	1.522403	0.515804	0.000062
 340	3.3730e+01	13.5092	22.540300	0.000156	1.562732	0.529468	0.000063
 341	3.3830e+01	13.5461	22.605068	0.000160	1.603060	0.543131	0.000065
 342	3.3929e+01	13.6055	22.667391	0.000154	1.542567	0.522636	0.000063
 343	3.4029e+01	13.6424	22.732973	0.000162	1.623224	0.549963	0.000066
 344	3.4129e+01	13.7034	22.793667	0.000150	1.502239	0.508972	0.000061
 345	3.4228e+01	13.7579	22.855583	0.000153	1.532485	0.519220	0.000062
 346	3.4328e+01	13.7451	22.915870	-0.000149	-1.492157	-0.505556	0.000061
 347	3.4427e+01	13.7852	22.976157	0.000149	1.492157	0.505556	0.000061
 348	3.4526e+01	13.8445	23.038887	0.000155	1.552649	0.526052	0.000063
 349	3.4626e+01	13.8798	23.099581	0.000150	1.502239	0.508972	0.000061
 350	3.4725e+01	13.9376	23.160683	0.000151	1.512321	0.512388	0.000061
 351	3.4825e+01	13.9376	23.226672	-0.000163	-1.633307	-0.553379	0.000066
 352	3.4925e+01	14.0274	23.285737	0.000146	1.461910	0.495309	0.000059
 353	3.5024e+01	14.0531	23.350097	0.000159	1.592978	0.539716	0.000065
 354	3.5123e+01	14.0579	23.411606	0.000152	1.522403	0.515804	0.000062
 355	3.5223e+01	14.1349	23.477188	0.000162	1.623224	0.549963	0.000066
 356	3.5322e+01	14.1333	23.543177	-0.000163	-1.633307	-0.553379	0.000066
 357	3.5422e+01	14.2103	23.602649	0.000147	1.471992	0.498724	0.000060
 358	3.5522e+01	14.2360	23.664973	0.000154	1.542567	0.522636	0.000063
 359	3.5621e+01	14.2841	23.730962	0.000163	1.633307	0.553379	0.000066
 360	3.5721e+01	14.3049	23.792064	0.000151	1.512321	0.512388	0.000061
 361	3.5820e+01	14.3611	23.858461	0.000164	1.643389	0.556795	0.000067
 362	3.5919e+01	14.3932	23.921599	0.000156	1.562732	0.529468	0.000063
 363	3.6019e+01	14.4541	23.981071	0.000147	1.471992	0.498724	0.000060
 364	3.6118e+01	14.4686	24.046653	0.000162	1.623224	0.549963	0.000066
 365	3.6218e+01	14.5327	24.100829	0.000134	1.340924	0.454318	0.000054
 366	3.6318e+01	14.5648	24.173744	0.000180	1.804703	0.611450	0.000073
 367	3.6417e+01	14.5921	24.232401	0.000145	1.451828	0.491893	0.000059
 368	3.6517e+01	14.6306	24.293910	0.000152	1.522403	0.515804	0.000062
 369	3.6616e+01	14.6659	24.359899	0.000163	1.633307	0.553379	0.000066
 370	3.6715e+01	14.7172	24.423852	0.000158	1.582896	0.536300	0.000064
 371	3.6815e+01	14.7525	24.485361	0.000152	1.522403	0.515804	0.000062
 372	3.6914e+01	14.8103	24.546869	0.000152	1.522403	0.515804	0.000062
 373	3.7014e+01	14.8103	24.612044	-0.000161	-1.613142	-0.546547	0.000066
 374	3.7114e+01	14.8969	24.677219	0.000161	1.613142	0.546547	0.000066
 375	3.7213e+01	14.8985	24.736691	0.000147	1.471992	0.498724	0.000060
 376	3.7313e+01	14.9627	24.797385	0.000150	1.502239	0.508972	0.000061
 377	3.7412e+01	15.0028	24.857265	0.000148	1.482074	0.502140	0.000060
 378	3.7511e+01	15.0252	24.922439	0.000161	1.613142	0.546547	0.000066
 379	3.7611e+01	15.0846	24.982319	0.000148	1.482074	0.502140	0.000060
 380	3.7711e+01	15.1231	25.043827	0.000152	1.522403	0.515804	0.000062
 381	3.7810e+01	15.1712	25.100855	0.000141	1.411499	0.478229	0.000057
 382	3.7910e+01	15.1969	25.162364	0.000152	1.522403	0.515804	0.000062
 383	3.8009e+01	15.2274	25.225095	0.000155	1.552649	0.526052	0.000063
 384	3.8108e+01	15.2691	25.288640	0.000157	1.572814	0.532884	0.000064
 385	3.8208e+01	15.3605	25.346890	0.000144	1.441746	0.488477	0.000059
 386	3.8307e+01	15.3477	25.411250	-0.000159	-1.592978	-0.539716	0.000065
 387	3.8407e+01	15.4103	25.472759	0.000152	1.522403	0.515804	0.000062
 388	3.8507e+01	15.4504	25.533453	0.000150	1.502239	0.508972	0.000061
 389	3.8606e+01	15.4712	25.592518	0.000146	1.461910	0.495309	0.000059
 390	3.8706e+01	15.5145	25.650360	0.000143	1.431664	0.485061	0.000058
 391	3.8805e+01	15.5530	25.710240	0.000148	1.482074	0.502140	0.000060
 392	3.8904e+01	15.6252	25.772971	0.000155	1.552649	0.526052	0.000063
 393	3.9004e+01	15.6397	25.828369	0.000137	1.371171	0.464565	0.000056
 394	3.9103e+01	15.6958	25.883360	0.000136	1.361089	0.461149	0.000055
 395	3.9203e+01	15.7086	25.942425	0.000146	1.461910	0.495309	0.000059
 396	3.9303e+01	15.7471	26.000675	0.000144	1.441746	0.488477	0.000059
 397	3.9402e+01	15.7873	26.057703	0.000141	1.411499	0.478229	0.000057
 398	3.9502e+01	15.8209	26.115138	0.000142	1.421582	0.481645	0.000058
 399	3.9601e+01	15.8643	26.170537	0.000137	1.371171	0.464565	0.000056
 400	3.9700e+01	15.9060	26.233268	0.000155	1.552649	0.526052	0.000063
 401	3.9800e+01	15.9541	26.288259	0.000136	1.361089	0.461149	0.000055
 402	3.9900e+01	15.9750	26.341621	0.000132	1.320760	0.447486	0.000054
 403	3.9999e+01	16.0487	26.400685	0.000146	1.461910	0.495309	0.000059
 404	4.0099e+01	16.0744	26.454047	0.000132	1.320760	0.447486	0.000054
 405	4.0198e+01	16.1209	26.514741	0.000150	1.502239	0.508972	0.000061
 406	4.0297e+01	16.1370	26.567289	0.000130	1.300596	0.440654	0.000053
 407	4.0397e+01	16.1755	26.625131	0.000143	1.431664	0.485061	0.000058
 408	4.0496e+01	16.2364	26.682974	0.000143	1.431664	0.485061	0.000058
 409	4.0596e+01	16.2926	26.739187	0.000139	1.391335	0.471397	0.000056
 410	4.0696e+01	16.3086	26.790920	0.000128	1.280432	0.433822	0.000052
 411	4.0795e+01	16.3600	26.844281	0.000132	1.320760	0.447486	0.000054
 412	4.0895e+01	16.3840	26.902939	0.000145	1.451828	0.491893	0.000059
 413	4.0994e+01	16.4177	26.956301	0.000132	1.320760	0.447486	0.000054
 414	4.1093e+01	16.4963	27.014143	0.000143	1.431664	0.485061	0.000058
 415	4.1193e+01	16.5172	27.064246	0.000124	1.240103	0.420158	0.000050
 416	4.1292e+01	16.5428	27.122496	0.000144	1.441746	0.488477	0.000059
 417	4.1392e+01	16.5701	27.177080	0.000135	1.351007	0.457733	0.000055
 418	4.1492e+01	16.6343	27.230442	0.000132	1.320760	0.447486	0.000054
 419	4.1591e+01	16.6584	27.290729	0.000149	1.492157	0.505556	0.000061
 420	4.1691e+01	16.7065	27.342869	0.000129	1.290514	0.437238	0.000052
 421	4.1790e+01	16.7530	27.398267	0.000137	1.371171	0.464565	0.000056
 422	4.1889e+01	16.7771	27.452851	0.000135	1.351007	0.457733	0.000055
 423	4.1989e+01	16.8316	27.505398	0.000130	1.300596	0.440654	0.000053
 424	4.2089e+01	16.8862	27.562019	0.000140	1.401417	0.474813	0.000057
 425	4.2188e+01	16.9038	27.615381	0.000132	1.320760	0.447486	0.000054
 426	4.2288e+01	16.9728	27.672002	0.000140	1.401417	0.474813	0.000057
 427	4.2387e+01	16.9856	27.724549	0.000130	1.300596	0.440654	0.000053
 428	4.2486e+01	17.0386	27.776281	0.000128	1.280432	0.433822	0.000052
 429	4.2586e+01	17.0738	27.825162	0.000121	1.209857	0.409911	0.000049
 430	4.2685e+01	17.1091	27.884634	0.000147	1.471992	0.498724	0.000060
 431	4.2785e+01	17.1749	27.935960	0.000127	1.270350	0.430406	0.000052
 432	4.2885e+01	17.2054	27.992580	0.000140	1.401417	0.474813	0.000057
 433	4.2984e+01	17.2327	28.047979	0.000137	1.371171	0.464565	0.000056
 434	4.3084e+01	17.2952	28.100933	0.000131	1.310678	0.444070	0.000053
 435	4.3183e+01	17.3257	28.154295	0.000132	1.320760	0.447486	0.000054
 436	4.3282e+01	17.3594	28.211730	0.000142	1.421582	0.481645	0.000058
 437	4.3382e+01	17.3835	28.262241	0.000125	1.250185	0.423574	0.000051
 438	4.3481e+01	17.4332	28.315603	0.000132	1.320760	0.447486	0.000054
 439	4.3581e+01	17.4845	28.370187	0.000135	1.351007	0.457733	0.000055
 440	4.3681e+01	17.5150	28.416624	0.000115	1.149364	0.389415	0.000047
 441	4.3780e+01	17.5407	28.469578	0.000131	1.310678	0.444070	0.000053
 442	4.3880e+01	17.5952	28.516830	0.000117	1.169528	0.396247	0.000047
 443	4.3979e+01	17.6081	28.570599	0.000133	1.330842	0.450902	0.000054
 444	4.4078e+01	17.6722	28.621924	0.000127	1.270350	0.430406	0.000052
 445	4.4178e+01	17.7155	28.675694	0.000133	1.330842	0.450902	0.000054
 446	4.4278e+01	17.7428	28.722131	0.000115	1.149364	0.389415	0.000047
 447	4.4377e+01	17.7781	28.779973	0.000143	1.431664	0.485061	0.000058
 448	4.4477e+01	17.8294	28.831298	0.000127	1.270350	0.430406	0.000052
 449	4.4576e+01	17.8647	28.885882	0.000135	1.351007	0.457733	0.000055
 450	4.4675e+01	17.9225	28.931912	0.000114	1.139282	0.385999	0.000046
 451	4.4775e+01	17.9385	28.984459	0.000130	1.300596	0.440654	0.000053
 452	4.4874e+01	18.0107	29.035377	0.000126	1.260267	0.426990	0.000051
 453	4.4974e+01	18.0187	29.086295	0.000126	1.260267	0.426990	0.000051
 454	4.5074e+01	18.0637	29.133954	0.000118	1.179610	0.399663	0.000048
 455	4.5173e+01	18.1246	29.186908	0.000131	1.310678	0.444070	0.000053
 456	4.5273e+01	18.1808	29.234160	0.000117	1.169528	0.396247	0.000047
 457	4.5372e+01	18.1936	29.287929	0.000133	1.330842	0.450902	0.000054
 458	4.5471e+01	18.2161	29.336811	0.000121	1.209857	0.409911	0.000049
 459	4.5571e+01	18.2754	29.386099	0.000122	1.219939	0.413326	0.000050
 460	4.5670e+01	18.3075	29.437832	0.000128	1.280432	0.433822	0.000052
 461	4.5770e+01	18.3460	29.493230	0.000137	1.371171	0.464565	0.000056
 462	4.5870e+01	18.3909	29.540074	0.000116	1.159446	0.392831	0.000047
 463	4.5969e+01	18.4326	29.592622	0.000130	1.300596	0.440654	0.000053
 464	4.6069e+01	18.4711	29.647206	0.000135	1.351007	0.457733	0.000055
 465	4.6168e+01	18.5016	29.696901	0.000123	1.230021	0.416742	0.000050
 466	4.6267e+01	18.5594	29.750263	0.000132	1.320760	0.447486	0.000054
 467	4.6367e+01	18.6203	29.803218	0.000131	1.310678	0.444070	0.000053
 468	4.6467e+01	18.6123	29.849247	-0.000114	-1.139282	-0.385999	0.000046
 469	4.6566e+01	18.6685	29.903831	0.000135	1.351007	0.457733	0.000055
 470	4.6666e+01	18.6925	29.955564	0.000128	1.280432	0.433822	0.000052
 471	4.6765e+01	18.7134	30.006482	0.000126	1.260267	0.426990	0.000051
 472	4.6864e+01	18.7711	30.058622	0.000129	1.290514	0.437238	0.000052
 473	4.6964e+01	18.8273	30.109539	0.000126	1.260267	0.426990	0.000051
 474	4.7063e+01	18.8513	30.164123	0.000135	1.351007	0.457733	0.000055
 475	4.7163e+01	18.8850	30.214226	0.000124	1.240103	0.420158	0.000050
 476	4.7263e+01	18.9235	30.273291	0.000146	1.461910	0.495309	0.000059
 477	4.7362e+01	18.9540	30.325431	0.000129	1.290514	0.437238	0.000052
 478	4.7462e+01	19.0294	30.379607	0.000134	1.340924	0.454318	0.000054
 479	4.7561e+01	19.0807	30.431340	0.000128	1.280432	0.433822	0.000052
 480	4.7660e+01	19.0823	30.486331	0.000136	1.361089	0.461149	0.000055
 481	4.7760e+01	19.1401	30.537656	0.000127	1.270350	0.430406	0.000052
 482	4.7859e+01	19.1866	30.595499	0.000143	1.431664	0.485061	0.000058
 483	4.7959e+01	19.2444	30.649676	0.000134	1.340924	0.454318	0.000054
 484	4.8059e+01	19.2749	30.702223	0.000130	1.300596	0.440654	0.000053
 485	4.8158e+01	19.3037	30.757621	0.000137	1.371171	0.464565	0.000056
 486	4.8258e+01	19.3326	30.808947	0.000127	1.270350	0.430406	0.000052
 487	4.8357e+01	19.3775	30.860679	0.000128	1.280432	0.433822	0.000052
 488	4.8456e+01	19.4273	30.917707	0.000141	1.411499	0.478229	0.000057
 489	4.8556e+01	19.4658	30.973513	0.000138	1.381253	0.467981	0.000056
 490	4.8656e+01	19.4994	31.023616	0.000124	1.240103	0.420158	0.000050
 491	4.8755e+01	19.5620	31.082681	0.000146	1.461910	0.495309	0.000059
 492	4.8855e+01	19.5444	31.137672	-0.000136	-1.361089	-0.461149	0.000055
 493	4.8954e+01	19.6101	31.197144	0.000147	1.471992	0.498724	0.000060
 494	4.9053e+01	19.6647	31.247247	0.000124	1.240103	0.420158	0.000050
 495	4.9153e+01	19.7048	31.301016	0.000133	1.330842	0.450902	0.000054
 496	4.9252e+01	19.7385	31.359674	0.000145	1.451828	0.491893	0.000059
 497	4.9352e+01	19.7722	31.412221	0.000130	1.300596	0.440654	0.000053
 498	4.9452e+01	19.8251	31.467619	0.000137	1.371171	0.464565	0.000056
 499	4.9551e+01	19.8299	31.522203	0.000135	1.351007	0.457733	0.000055
 500	4.9651e+01	19.8829	31.571492	0.000122	1.219939	0.413326	0.000050
 501	4.9750e+01	19.9599	31.631778	0.000149	1.492157	0.505556	0.000061
 502	4.9849e+01	20.0016	31.687177	0.000137	1.371171	0.464565	0.000056
 503	4.9949e+01	20.0192	31.741354	0.000134	1.340924	0.454318	0.000054
 504	5.0048e+01	19.9871	31.700212	0.000102	1.018296	0.345008	-0.000041
 505	5.0148e+01	19.9166	31.662737	0.000093	0.927557	0.314265	-0.000038
 506	5.0248e+01	19.9069	31.620780	0.000104	1.038460	0.351840	-0.000042
 507	5.0347e+01	19.8652	31.583712	0.000092	0.917475	0.310849	-0.000037
 508	5.0447e+01	19.8283	31.543385	0.000100	0.998132	0.338176	-0.000041
 509	5.0546e+01	19.7754	31.504280	0.000097	0.967885	0.327928	-0.000039
 510	5.0645e+01	19.7465	31.457029	0.000117	1.169528	0.396247	-0.000047
 511	5.0745e+01	19.7256	31.419553	0.000093	0.927557	0.314265	-0.000038
 512	5.0844e+01	19.6502	31.379226	0.000100	0.998132	0.338176	-0.000041
 513	5.0944e+01	19.6438	31.341751	0.000093	0.927557	0.314265	-0.000038
 514	5.1044e+01	19.5524	31.291240	0.000125	1.250185	0.423574	-0.000051
 515	5.1143e+01	19.5476	31.249691	0.000103	1.028378	0.348424	-0.000042
 516	5.1242e+01	19.5107	31.205291	0.000110	1.098953	0.372335	-0.000045
 517	5.1342e+01	19.4144	31.164964	0.000100	0.998132	0.338176	-0.000041
 518	5.1441e+01	19.4401	31.118120	-0.000116	-1.159446	-0.392831	-0.000047
 519	5.1541e+01	19.3952	31.079015	0.000097	0.967885	0.327928	-0.000039
 520	5.1641e+01	19.3503	31.038688	0.000100	0.998132	0.338176	-0.000041
 521	5.1740e+01	19.2797	30.993473	0.000112	1.119117	0.379167	-0.000045
 522	5.1840e+01	19.2733	30.951516	0.000104	1.038460	0.351840	-0.000042
 523	5.1939e+01	19.2251	30.908338	0.000107	1.068707	0.362088	-0.000043
 524	5.2038e+01	19.1898	30.868826	0.000098	0.977967	0.331344	-0.000040
 525	5.2138e+01	19.1449	30.827684	0.000102	1.018296	0.345008	-0.000041
 526	5.2237e+01	19.1128	30.785728	0.000104	1.038460	0.351840	-0.000042
 527	5.2337e+01	19.0663	30.742142	0.000108	1.078789	0.365504	-0.000044
 528	5.2437e+01	19.0182	30.700186	0.000104	1.038460	0.351840	-0.000042
 529	5.2536e+01	18.9684	30.655786	0.000110	1.098953	0.372335	-0.000045
 530	5.2636e+01	18.9428	30.618718	0.000092	0.917475	0.310849	-0.000037
 531	5.2735e+01	18.9155	30.570651	0.000119	1.189692	0.403079	-0.000048
 532	5.2834e+01	18.8610	30.525029	0.000113	1.129200	0.382583	-0.000046
 533	5.2934e+01	18.8144	30.484295	0.000101	1.008214	0.341592	-0.000041
 534	5.3033e+01	18.7583	30.437043	0.000117	1.169528	0.396247	-0.000047
 535	5.3133e+01	18.7342	30.397123	0.000099	0.988050	0.334760	-0.000040
 536	5.3233e+01	18.6909	30.353130	0.000109	1.088871	0.368919	-0.000044
 537	5.3332e+01	18.6749	30.311581	0.000103	1.028378	0.348424	-0.000042
 538	5.3431e+01	18.6284	30.269625	0.000104	1.038460	0.351840	-0.000042
 539	5.3531e+01	18.5738	30.225225	0.000110	1.098953	0.372335	-0.000045
 540	5.3630e+01	18.5321	30.182454	0.000106	1.058625	0.358672	-0.000043
 541	5.3730e+01	18.5128	30.135202	0.000117	1.169528	0.396247	-0.000047
 542	5.3830e+01	18.4679	30.092838	0.000105	1.048542	0.355256	-0.000043
 543	5.3929e+01	18.4342	30.052511	0.000100	0.998132	0.338176	-0.000041
 544	5.4029e+01	18.4086	30.005260	0.000117	1.169528	0.396247	-0.000047
 545	5.4128e+01	18.3380	29.959230	0.000114	1.139282	0.385999	-0.000046
 546	5.4227e+01	18.3059	29.915644	0.000108	1.078789	0.365504	-0.000044
 547	5.4327e+01	18.2546	29.870837	0.000111	1.109035	0.375751	-0.000045
 548	5.4426e+01	18.2514	29.824807	0.000114	1.139282	0.385999	-0.000046
 549	5.4526e+01	18.1936	29.776741	0.000119	1.189692	0.403079	-0.000048
 550	5.4626e+01	18.1439	29.732748	0.000109	1.088871	0.368919	-0.000044
 551	5.4725e+01	18.1310	29.687940	0.000111	1.109035	0.375751	-0.000045
 552	5.4825e+01	18.0524	29.645576	0.000105	1.048542	0.355256	-0.000043
 553	5.4924e+01	18.0220	29.602398	0.000107	1.068707	0.362088	-0.000043
 554	5.5023e+01	17.9915	29.551480	0.000126	1.260267	0.426990	-0.000051
 555	5.5123e+01	17.9401	29.509931	0.000103	1.028378	0.348424	-0.000042
 556	5.5222e+01	17.9145	29.460235	0.000123	1.230021	0.416742	-0.000050
 557	5.5322e+01	17.8744	29.420723	0.000098	0.977967	0.331344	-0.000040
 558	5.5422e+01	17.8310	29.366954	0.000133	1.330842	0.450902	-0.000054
 559	5.5521e+01	17.7893	29.322554	0.000110	1.098953	0.372335	-0.000045
 560	5.5620e+01	17.7204	29.274080	0.000120	1.199775	0.406495	-0.000049
 561	5.5720e+01	17.7155	29.228457	0.000113	1.129200	0.382583	-0.000046
 562	5.5819e+01	17.6610	29.175096	0.000132	1.320760	0.447486	-0.000054
 563	5.5919e+01	17.6321	29.124178	0.000126	1.260267	0.426990	-0.000051
 564	5.6019e+01	17.6016	29.078963	0.000112	1.119117	0.379167	-0.000045
 565	5.6118e+01	17.5760	29.029267	0.000123	1.230021	0.416742	-0.000050
 566	5.6218e+01	17.5102	28.977942	0.000127	1.270350	0.430406	-0.000052
 567	5.6317e+01	17.4813	28.933541	0.000110	1.098953	0.372335	-0.000045
 568	5.6416e+01	17.4059	28.877328	0.000139	1.391335	0.471397	-0.000056
 569	5.6516e+01	17.3706	28.831706	0.000113	1.129200	0.382583	-0.000046
 570	5.6615e+01	17.3642	28.780788	0.000126	1.260267	0.426990	-0.000051
 571	5.6715e+01	17.3113	28.731092	0.000123	1.230021	0.416742	-0.000050
 572	5.6815e+01	17.2744	28.680582	0.000125	1.250185	0.423574	-0.000051
 573	5.6914e+01	17.2343	28.629257	0.000127	1.270350	0.430406	-0.000052
 574	5.7014e+01	17.1765	28.577524	0.000128	1.280432	0.433822	-0.000052
 575	5.7113e+01	17.1460	28.524162	0.000132	1.320760	0.447486	-0.000054
 576	5.7212e+01	17.1380	28.480577	0.000108	1.078789	0.365504	-0.000044
 577	5.7312e+01	17.0787	28.424771	0.000138	1.381253	0.467981	-0.000056
 578	5.7411e+01	17.0418	28.373038	0.000128	1.280432	0.433822	-0.000052
 579	5.7511e+01	16.9760	28.324564	0.000120	1.199775	0.406495	-0.000049
 580	5.7611e+01	16.9343	28.272832	0.000128	1.280432	0.433822	-0.000052
 581	5.7710e+01	16.9231	28.219470	0.000132	1.320760	0.447486	-0.000054
 582	5.7809e+01	16.8733	28.165293	0.000134	1.340924	0.454318	-0.000054
 583	5.7909e+01	16.8124	28.121300	0.000109	1.088871	0.368919	-0.000044
 584	5.8008e+01	16.8059	28.065494	0.000138	1.381253	0.467981	-0.000056
 585	5.8108e+01	16.7546	28.012133	0.000132	1.320760	0.447486	-0.000054
 586	5.8208e+01	16.7209	27.963659	0.000120	1.199775	0.406495	-0.000049
 587	5.8307e+01	16.6953	27.908668	0.000136	1.361089	0.461149	-0.000055
 588	5.8407e+01	16.6391	27.861008	0.000118	1.179610	0.399663	-0.000048
 589	5.8506e+01	16.5958	27.807647	0.000132	1.320760	0.447486	-0.000054
 590	5.8605e+01	16.5541	27.753470	0.000134	1.340924	0.454318	-0.000054
 591	5.8705e+01	16.5396	27.704589	0.000121	1.209857	0.409911	-0.000049
 592	5.8804e+01	16.4803	27.651227	0.000132	1.320760	0.447486	-0.000054
 593	5.8904e+01	16.4225	27.594199	0.000141	1.411499	0.478229	-0.000057
 594	5.9004e+01	16.4017	27.540837	0.000132	1.320760	0.447486	-0.000054
 595	5.9103e+01	16.3712	27.489919	0.000126	1.260267	0.426990	-0.000051
 596	5.9203e+01	16.3070	27.436558	0.000132	1.320760	0.447486	-0.000054
 597	5.9302e+01	16.3167	27.386454	-0.000124	-1.240103	-0.420158	-0.000050
 598	5.9401e+01	16.2380	27.330648	0.000138	1.381253	0.467981	-0.000056
 599	5.9501e+01	16.1707	27.277287	0.000132	1.320760	0.447486	-0.000054
 600	5.9600e+01	16.1691	27.223517	0.000133	1.330842	0.450902	-0.000054
 601	5.9700e+01	16.1049	27.173007	0.000125	1.250185	0.423574	-0.000051
 602	5.9800e+01	16.0889	27.118830	0.000134	1.340924	0.454318	-0.000054
 603	5.9899e+01	16.0263	27.069135	0.000123	1.230021	0.416742	-0.000050
 604	5.9998e+01	15.9990	27.013329	0.000138	1.381253	0.467981	-0.000056
 605	6.0098e+01	15.9557	26.960781	0.000130	1.300596	0.440654	-0.000053
 606	6.0197e+01	15.9300	26.904976	0.000138	1.381253	0.467981	-0.000056
 607	6.0297e+01	15.8723	26.847948	0.000141	1.411499	0.478229	-0.000057
 608	6.0397e+01	15.8530	26.793364	0.000135	1.351007	0.457733	-0.000055
 609	6.0496e+01	15.8113	26.740409	0.000131	1.310678	0.444070	-0.000053
 610	6.0596e+01	15.7407	26.683789	0.000140	1.401417	0.474813	-0.000057
 611	6.0695e+01	15.7231	26.626761	0.000141	1.411499	0.478229	-0.000057
 612	6.0794e+01	15.7022	26.570955	0.000138	1.381253	0.467981	-0.000056
 613	6.0894e+01	15.6316	26.516371	0.000135	1.351007	0.457733	-0.000055
 614	6.0993e+01	15.5867	26.458935	0.000142	1.421582	0.481645	-0.000058
 615	6.1093e+01	15.5546	26.405981	0.000131	1.310678	0.444070	-0.000053
 616	6.1193e+01	15.5418	26.351804	0.000134	1.340924	0.454318	-0.000054
 617	6.1292e+01	15.4552	26.297628	0.000134	1.340924	0.454318	-0.000054
 618	6.1392e+01	15.4343	26.239378	0.000144	1.441746	0.488477	-0.000059
 619	6.1491e+01	15.4103	26.183572	0.000138	1.381253	0.467981	-0.000056
 620	6.1590e+01	15.3621	26.128581	0.000136	1.361089	0.461149	-0.000055
 621	6.1690e+01	15.3188	26.069109	0.000147	1.471992	0.498724	-0.000060
 622	6.1789e+01	15.3076	26.013710	0.000137	1.371171	0.464565	-0.000056
 623	6.1889e+01	15.2161	25.956275	0.000142	1.421582	0.481645	-0.000058
 624	6.1989e+01	15.2001	25.898025	0.000144	1.441746	0.488477	-0.000059
 625	6.2088e+01	15.1664	25.840182	0.000143	1.431664	0.485061	-0.000058
 626	6.2188e+01	15.1199	25.781932	0.000144	1.441746	0.488477	-0.000059
 627	6.2287e+01	15.1039	25.730607	0.000127	1.270350	0.430406	-0.000052
 628	6.2386e+01	15.0461	25.671542	0.000146	1.461910	0.495309	-0.000059
 629	6.2486e+01	14.9932	25.618180	0.000132	1.320760	0.447486	-0.000054
 630	6.2586e+01	14.9675	25.562782	0.000137	1.371171	0.464565	-0.000056
 631	6.2685e+01	14.9226	25.508605	0.000134	1.340924	0.454318	-0.000054
 632	6.2785e+01	14.8985	25.453614	0.000136	1.361089	0.461149	-0.000055
 633	6.2884e+01	14.8231	25.398623	0.000136	1.361089	0.461149	-0.000055
 634	6.2983e+01	14.8023	25.339558	0.000146	1.461910	0.495309	-0.000059
 635	6.3083e+01	14.7509	25.280901	0.000145	1.451828	0.491893	-0.000059
 636	6.3182e+01	14.7012	25.227946	0.000131	1.310678	0.444070	-0.000053
 637	6.3282e+01	14.6868	25.174584	0.000132	1.320760	0.447486	-0.000054
 638	6.3382e+01	14.6370	25.114298	0.000149	1.492157	0.505556	-0.000061
 639	6.3481e+01	14.5985	25.057270	0.000141	1.411499	0.478229	-0.000057
 640	6.3581e+01	14.5648	25.005945	0.000127	1.270350	0.430406	-0.000052
 641	6.3680e+01	14.5215	24.950139	0.000138	1.381253	0.467981	-0.000056
 642	6.3779e+01	14.4830	24.896369	0.000133	1.330842	0.450902	-0.000054
 643	6.3879e+01	14.4477	24.838527	0.000143	1.431664	0.485061	-0.000058
 644	6.3978e+01	14.3948	24.784758	0.000133	1.330842	0.450902	-0.000054
 645	6.4078e+01	14.3755	24.734247	0.000125	1.250185	0.423574	-0.000051
 646	6.4177e+01	14.3258	24.676404	0.000143	1.431664	0.485061	-0.000058
 647	6.4277e+01	14.2921	24.622635	0.000133	1.330842	0.450902	-0.000054
 648	6.4376e+01	14.2344	24.570495	0.000129	1.290514	0.437238	-0.000052
 649	6.4476e+01	14.1975	24.520392	0.000124	1.240103	0.420158	-0.000050
 650	6.4576e+01	14.1477	24.463364	0.000141	1.411499	0.478229	-0.000057
 651	6.4675e+01	14.1365	24.412446	0.000126	1.260267	0.426990	-0.000051
 652	6.4775e+01	14.0723	24.354196	0.000144	1.441746	0.488477	-0.000059
 653	6.4874e+01	14.0242	24.302464	0.000128	1.280432	0.433822	-0.000052
 654	6.4974e+01	14.0066	24.248287	0.000134	1.340924	0.454318	-0.000054
 655	6.5073e+01	13.9729	24.197370	0.000126	1.260267	0.426990	-0.000051
 656	6.5172e+01	13.9103	24.139120	0.000144	1.441746	0.488477	-0.000059
 657	6.5272e+01	13.8750	24.088202	0.000126	1.260267	0.426990	-0.000051
 658	6.5371e+01	13.8670	24.034840	0.000132	1.320760	0.447486	-0.000054
 659	6.5471e+01	13.8285	23.983515	0.000127	1.270350	0.430406	-0.000052
 660	6.5570e+01	13.7643	23.922413	0.000151	1.512321	0.512388	-0.000061
 661	6.5670e+01	13.7162	23.877606	0.000111	1.109035	0.375751	-0.000045
 662	6.5769e+01	13.6729	23.824651	0.000131	1.310678	0.444070	-0.000053
 663	6.5869e+01	13.6360	23.774548	0.000124	1.240103	0.420158	-0.000050
 664	6.5969e+01	13.6215	23.715076	0.000147	1.471992	0.498724	-0.000060
 665	6.6068e+01	13.5606	23.670268	0.000111	1.109035	0.375751	-0.000045
 666	6.6168e+01	13.5221	23.612426	0.000143	1.431664	0.485061	-0.000058
 667	6.6267e+01	13.4996	23.559878	0.000130	1.300596	0.440654	-0.000053
 668	6.6367e+01	13.4515	23.503665	0.000139	1.391335	0.471397	-0.000056
 669	6.6466e+01	13.4098	23.452747	0.000126	1.260267	0.426990	-0.000051
 670	6.6566e+01	13.3905	23.395312	0.000142	1.421582	0.481645	-0.000058
 671	6.6665e+01	13.3456	23.342765	0.000130	1.300596	0.440654	-0.000053
 672	6.6764e+01	13.3103	23.290625	0.000129	1.290514	0.437238	-0.000052
 673	6.6864e+01	13.2397	23.232782	0.000143	1.431664	0.485061	-0.000058
 674	6.6963e+01	13.2285	23.181865	0.000126	1.260267	0.426990	-0.000051
 675	6.7063e+01	13.1675	23.128910	0.000131	1.310678	0.444070	-0.000053
 676	6.7162e+01	13.1194	23.075141	0.000133	1.330842	0.450902	-0.000054
 677	6.7262e+01	13.0713	23.022186	0.000131	1.310678	0.444070	-0.000053
 678	6.7362e+01	13.0520	22.971676	0.000125	1.250185	0.423574	-0.000051
 679	6.7461e+01	13.0087	22.918314	0.000132	1.320760	0.447486	-0.000054
 680	6.7561e+01	12.9766	22.867803	0.000125	1.250185	0.423574	-0.000051
 681	6.7660e+01	12.9413	22.813627	0.000134	1.340924	0.454318	-0.000054
 682	6.7760e+01	12.8932	22.761894	0.000128	1.280432	0.433822	-0.000052
 683	6.7859e+01	12.8659	22.708940	0.000131	1.310678	0.444070	-0.000053
 684	6.7959e+01	12.7857	22.656393	0.000130	1.300596	0.440654	-0.000053
 685	6.8058e+01	12.7986	22.597735	-0.000145	-1.451828	-0.491893	-0.000059
 686	6.8157e+01	12.7200	22.544374	0.000132	1.320760	0.447486	-0.000054
 687	6.8257e+01	12.6670	22.490197	0.000134	1.340924	0.454318	-0.000054
 688	6.8356e+01	12.6510	22.439279	0.000126	1.260267	0.426990	-0.000051
 689	6.8456e+01	12.6173	22.387139	0.000129	1.290514	0.437238	-0.000052
 690	6.8555e+01	12.5788	22.335814	0.000127	1.270350	0.430406	-0.000052
 691	6.8655e+01	12.5242	22.280823	0.000136	1.361089	0.461149	-0.000055
 692	6.8754e+01	12.4857	22.231942	0.000121	1.209857	0.409911	-0.000049
 693	6.8854e+01	12.4280	22.179395	0.000130	1.300596	0.440654	-0.000053
 694	6.8954e+01	12.4280	22.124811	0.000135	1.351007	0.457733	-0.000055
 695	6.9053e+01	12.3815	22.075522	0.000122	1.219939	0.413326	-0.000050
 696	6.9153e+01	12.3478	22.017272	0.000144	1.441746	0.488477	-0.000059
 697	6.9252e+01	12.3013	21.973687	0.000108	1.078789	0.365504	-0.000044
 698	6.9352e+01	12.2579	21.916659	0.000141	1.411499	0.478229	-0.000057
 699	6.9451e+01	12.2082	21.859223	0.000142	1.421582	0.481645	-0.000058
 700	6.9550e+01	12.1537	21.803010	0.000139	1.391335	0.471397	-0.000056
 701	6.9650e+01	12.1344	21.752500	0.000125	1.250185	0.423574	-0.000051
 702	6.9749e+01	12.1264	21.704026	0.000120	1.199775	0.406495	-0.000049
 703	6.9849e+01	12.0558	21.651071	0.000131	1.310678	0.444070	-0.000053
 704	6.9948e+01	11.9900	21.597302	0.000133	1.330842	0.450902	-0.000054
 705	7.0048e+01	11.9676	21.543940	0.000132	1.320760	0.447486	-0.000054
 706	7.0147e+01	11.9355	21.493022	0.000126	1.260267	0.426990	-0.000051
 707	7.0247e+01	11.9098	21.443327	0.000123	1.230021	0.416742	-0.000050
 708	7.0347e+01	11.8633	21.381411	0.000153	1.532485	0.519220	-0.000062
 709	7.0446e+01	11.8280	21.330900	0.000125	1.250185	0.423574	-0.000051
 710	7.0546e+01	11.7558	21.278760	0.000129	1.290514	0.437238	-0.000052
 711	7.0645e+01	11.7318	21.225806	0.000131	1.310678	0.444070	-0.000053
 712	7.0745e+01	11.6852	21.171629	0.000134	1.340924	0.454318	-0.000054
 713	7.0844e+01	11.6451	21.118267	0.000132	1.320760	0.447486	-0.000054
 714	7.0944e+01	11.6050	21.063276	0.000136	1.361089	0.461149	-0.000055
 715	7.1043e+01	11.5521	21.007877	0.000137	1.371171	0.464565	-0.000056
 716	7.1142e+01	11.5457	20.954923	0.000131	1.310678	0.444070	-0.000053
 717	7.1242e+01	11.4783	20.901561	0.000132	1.320760	0.447486	-0.000054
 718	7.1341e+01	11.4558	20.842904	0.000145	1.451828	0.491893	-0.000059
 719	7.1441e+01	11.4221	20.794023	0.000121	1.209857	0.409911	-0.000049
 720	7.1540e+01	11.3612	20.737809	0.000139	1.391335	0.471397	-0.000056
 721	7.1640e+01	11.3532	20.684040	0.000133	1.330842	0.450902	-0.000054
 722	7.1740e+01	11.2810	20.629456	0.000135	1.351007	0.457733	-0.000055
 723	7.1839e+01	11.2681	20.574058	0.000137	1.371171	0.464565	-0.000056
 724	7.1939e+01	11.2184	20.516215	0.000143	1.431664	0.485061	-0.000058
 725	7.2038e+01	11.1687	20.457558	0.000145	1.451828	0.491893	-0.000059
 726	7.2138e+01	11.1398	20.405010	0.000130	1.300596	0.440654	-0.000053
 727	7.2237e+01	11.0949	20.345131	0.000148	1.482074	0.502140	-0.000060
 728	7.2337e+01	11.0628	20.288918	0.000139	1.391335	0.471397	-0.000056
 729	7.2436e+01	10.9986	20.227816	0.000151	1.512321	0.512388	-0.000061
 730	7.2535e+01	10.9617	20.168344	0.000147	1.471992	0.498724	-0.000060
 731	7.2635e+01	10.9425	20.111724	0.000140	1.401417	0.474813	-0.000057
 732	7.2734e+01	10.8767	20.056325	0.000137	1.371171	0.464565	-0.000056
 733	7.2834e+01	10.8703	19.996853	0.000147	1.471992	0.498724	-0.000060
 734	7.2933e+01	10.7917	19.942269	0.000135	1.351007	0.457733	-0.000055
 735	7.3033e+01	10.7692	19.881983	0.000149	1.492157	0.505556	-0.000061
 736	7.3132e+01	10.7179	19.822103	0.000148	1.482074	0.502140	-0.000060
 737	7.3232e+01	10.6986	19.761409	0.000150	1.502239	0.508972	-0.000061
 738	7.3332e+01	10.6665	19.704789	0.000140	1.401417	0.474813	-0.000057
 739	7.3431e+01	10.6232	19.642873	0.000153	1.532485	0.519220	-0.000062
 740	7.3531e+01	10.5976	19.584623	0.000144	1.441746	0.488477	-0.000059
 741	7.3630e+01	10.5462	19.525151	0.000147	1.471992	0.498724	-0.000060
 742	7.3730e+01	10.4917	19.462012	0.000156	1.562732	0.529468	-0.000063
 743	7.3829e+01	10.4259	19.404170	0.000143	1.431664	0.485061	-0.000058
 744	7.3928e+01	10.4018	19.342661	0.000152	1.522403	0.515804	-0.000062
 745	7.4028e+01	10.3649	19.281967	0.000150	1.502239	0.508972	-0.000061
 746	7.4127e+01	10.3345	19.221680	0.000149	1.492157	0.505556	-0.000061
 747	7.4227e+01	10.2719	19.155283	0.000164	1.643389	0.556795	-0.000067
 748	7.4326e+01	10.2575	19.097441	0.000143	1.431664	0.485061	-0.000058
 749	7.4426e+01	10.2190	19.035932	0.000152	1.522403	0.515804	-0.000062
 750	7.4525e+01	10.1837	18.975645	0.000149	1.492157	0.505556	-0.000061
 751	7.4625e+01	10.1195	18.914544	0.000151	1.512321	0.512388	-0.000061
 752	7.4725e+01	10.1115	18.854257	0.000149	1.492157	0.505556	-0.000061
 753	7.4824e+01	10.0537	18.793971	0.000149	1.492157	0.505556	-0.000061
 754	7.4924e+01	10.0040	18.733684	0.000149	1.492157	0.505556	-0.000061
 755	7.5023e+01	9.9880	18.670139	0.000157	1.572814	0.532884	-0.000064
 756	7.5123e+01	9.9061	18.614333	0.000138	1.381253	0.467981	-0.000056
 757	7.5222e+01	9.9013	18.547528	0.000165	1.653471	0.560211	-0.000067
 758	7.5322e+01	9.8532	18.484390	0.000156	1.562732	0.529468	-0.000063
 759	7.5421e+01	9.8115	18.421660	0.000155	1.552649	0.526052	-0.000063
 760	7.5520e+01	9.7890	18.360966	0.000150	1.502239	0.508972	-0.000061
 761	7.5620e+01	9.7393	18.297013	0.000158	1.582896	0.536300	-0.000064
 762	7.5719e+01	9.7184	18.235504	0.000152	1.522403	0.515804	-0.000062
 763	7.5819e+01	9.6735	18.174810	0.000150	1.502239	0.508972	-0.000061
 764	7.5918e+01	9.5997	18.114523	0.000149	1.492157	0.505556	-0.000061
 765	7.6018e+01	9.5741	18.051385	0.000156	1.562732	0.529468	-0.000063
 766	7.6118e+01	9.5500	17.986618	0.000160	1.603060	0.543131	-0.000065
 767	7.6217e+01	9.5243	17.921036	0.000162	1.623224	0.549963	-0.000066
 768	7.6317e+01	9.4618	17.861156	0.000148	1.482074	0.502140	-0.000060
 769	7.6416e+01	9.3992	17.798833	0.000154	1.542567	0.522636	-0.000063
 770	7.6516e+01	9.3960	17.734473	0.000159	1.592978	0.539716	-0.000065
 771	7.6615e+01	9.3206	17.666854	0.000167	1.673635	0.567043	-0.000068
 772	7.6715e+01	9.2901	17.610233	0.000140	1.401417	0.474813	-0.000057
 773	7.6814e+01	9.2516	17.544244	0.000163	1.633307	0.553379	-0.000066
 774	7.6913e+01	9.2292	17.482328	0.000153	1.532485	0.519220	-0.000062
 775	7.7013e+01	9.1890	17.406969	0.000187	1.865196	0.631945	-0.000076
 776	7.7112e+01	9.1329	17.346275	0.000150	1.502239	0.508972	-0.000061
 777	7.7212e+01	9.1104	17.279064	0.000166	1.663553	0.563627	-0.000068
 778	7.7311e+01	9.0479	17.216740	0.000154	1.542567	0.522636	-0.000063
 779	7.7411e+01	9.0158	17.148307	0.000169	1.693799	0.573875	-0.000069
 780	7.7510e+01	8.9741	17.085576	0.000155	1.552649	0.526052	-0.000063
 781	7.7610e+01	8.9340	17.020809	0.000160	1.603060	0.543131	-0.000065
 782	7.7710e+01	8.8971	16.959707	0.000151	1.512321	0.512388	-0.000061
 783	7.7809e+01	8.8746	16.890459	0.000171	1.713964	0.580707	-0.000070
 784	7.7909e+01	8.8104	16.826913	0.000157	1.572814	0.532884	-0.000064
 785	7.8008e+01	8.7768	16.758073	0.000170	1.703881	0.577291	-0.000069
 786	7.8108e+01	8.7415	16.692083	0.000163	1.633307	0.553379	-0.000066
 787	7.8207e+01	8.7142	16.624464	0.000167	1.673635	0.567043	-0.000068
 788	7.8306e+01	8.6645	16.559289	0.000161	1.613142	0.546547	-0.000066
 789	7.8406e+01	8.6147	16.492485	0.000165	1.653471	0.560211	-0.000067
 790	7.8505e+01	8.5762	16.425274	0.000166	1.663553	0.563627	-0.000068
 791	7.8605e+01	8.5602	16.358877	0.000164	1.643389	0.556795	-0.000067
 792	7.8704e+01	8.4912	16.288814	0.000173	1.734128	0.587538	-0.000070
 793	7.8804e+01	8.4655	16.222010	0.000165	1.653471	0.560211	-0.000067
 794	7.8903e+01	8.4318	16.156428	0.000162	1.623224	0.549963	-0.000066
 795	7.9003e+01	8.3597	16.092882	0.000157	1.572814	0.532884	-0.000064
 796	7.9103e+01	8.3757	16.024856	-0.000168	-1.683717	-0.570459	-0.000068
 797	7.9202e+01	8.3308	15.953978	0.000175	1.754292	0.594370	-0.000071
 798	7.9302e+01	8.2682	15.890840	0.000156	1.562732	0.529468	-0.000063
 799	7.9401e+01	8.2361	15.826480	0.000159	1.592978	0.539716	-0.000065
 800	7.9501e+01	8.1912	15.758454	0.000168	1.683717	0.570459	-0.000068
 801	7.9600e+01	8.1495	15.692872	0.000162	1.623224	0.549963	-0.000066
 802	7.9700e+01	8.1078	15.626882	0.000163	1.633307	0.553379	-0.000066
 803	7.9799e+01	8.0532	15.563337	0.000157	1.572814	0.532884	-0.000064
 804	7.9898e+01	8.0324	15.493681	0.000172	1.724046	0.584123	-0.000070
 805	7.9998e+01	7.9811	15.430136	0.000157	1.572814	0.532884	-0.000064
 806	8.0097e+01	7.9233	15.361702	0.000169	1.693799	0.573875	-0.000069
 807	8.0197e+01	7.9089	15.295305	0.000164	1.643389	0.556795	-0.000067
 808	8.0296e+01	7.8607	15.231353	0.000158	1.582896	0.536300	-0.000064
 809	8.0396e+01	7.8238	15.165363	0.000163	1.633307	0.553379	-0.000066
 810	8.0496e+01	7.7837	15.096115	0.000171	1.713964	0.580707	-0.000070
 811	8.0595e+01	7.7420	15.030940	0.000161	1.613142	0.546547	-0.000066
 812	8.0695e+01	7.7212	14.969839	0.000151	1.512321	0.512388	-0.000061
 813	8.0794e+01	7.7132	14.903849	0.000163	1.633307	0.553379	-0.000066
 814	8.0894e+01	7.6297	14.839082	0.000160	1.603060	0.543131	-0.000065
 815	8.0993e+01	7.5784	14.771870	0.000166	1.663553	0.563627	-0.000068
 816	8.1093e+01	7.5656	14.708325	0.000157	1.572814	0.532884	-0.000064
 817	8.1192e+01	7.5287	14.650482	0.000143	1.431664	0.485061	-0.000058
 818	8.1291e+01	7.5014	14.580419	0.000173	1.734128	0.587538	-0.000070
 819	8.1391e+01	7.4308	14.517689	0.000155	1.552649	0.526052	-0.000063
 820	8.1490e+01	7.3682	14.451292	0.000164	1.643389	0.556795	-0.000067
 821	8.1590e+01	7.3474	14.388154	0.000156	1.562732	0.529468	-0.000063
 822	8.1689e+01	7.3153	14.323386	0.000160	1.603060	0.543131	-0.000065
 823	8.1789e+01	7.2961	14.258211	0.000161	1.613142	0.546547	-0.000066
 824	8.1888e+01	7.2014	14.195073	0.000156	1.562732	0.529468	-0.000063
 825	8.1988e+01	7.1822	14.128676	0.000164	1.643389	0.556795	-0.000067
 826	8.2088e+01	7.1613	14.061058	0.000167	1.673635	0.567043	-0.000068
 827	8.2187e+01	7.1212	13.997919	0.000156	1.562732	0.529468	-0.000063
 828	8.2287e+01	7.0811	13.935189	0.000155	1.552649	0.526052	-0.000063
 829	8.2386e+01	7.0121	13.873273	0.000153	1.532485	0.519220	-0.000062
 830	8.2486e+01	7.0041	13.804024	0.000171	1.713964	0.580707	-0.000070
 831	8.2585e+01	6.9720	13.742516	0.000152	1.522403	0.515804	-0.000062
 832	8.2684e+01	6.9207	13.676119	0.000164	1.643389	0.556795	-0.000067
 833	8.2784e+01	6.8404	13.613388	0.000155	1.552649	0.526052	-0.000063
 834	8.2883e+01	6.8292	13.549028	0.000159	1.592978	0.539716	-0.000065
 835	8.2983e+01	6.7923	13.485483	0.000157	1.572814	0.532884	-0.000064
 836	8.3082e+01	6.7442	13.418271	0.000166	1.663553	0.563627	-0.000068
 837	8.3182e+01	6.7009	13.349837	0.000169	1.693799	0.573875	-0.000069
 838	8.3281e+01	6.6479	13.293217	0.000140	1.401417	0.474813	-0.000057
 839	8.3381e+01	6.6383	13.224376	0.000170	1.703881	0.577291	-0.000069
 840	8.3481e+01	6.5854	13.156757	0.000167	1.673635	0.567043	-0.000068
 841	8.3580e+01	6.5645	13.087509	0.000171	1.713964	0.580707	-0.000070
 842	8.3680e+01	6.5132	13.024778	0.000155	1.552649	0.526052	-0.000063
 843	8.3779e+01	6.4987	12.967750	0.000141	1.411499	0.478229	-0.000057
 844	8.3879e+01	6.4153	12.902168	0.000162	1.623224	0.549963	-0.000066
 845	8.3978e+01	6.3913	12.836993	0.000161	1.613142	0.546547	-0.000066
 846	8.4078e+01	6.3479	12.774670	0.000154	1.542567	0.522636	-0.000063
 847	8.4177e+01	6.3159	12.705829	0.000170	1.703881	0.577291	-0.000069
 848	8.4276e+01	6.3046	12.646764	0.000146	1.461910	0.495309	-0.000059
 849	8.4376e+01	6.2212	12.581182	0.000162	1.623224	0.549963	-0.000066
 850	8.4475e+01	6.2196	12.507046	0.000183	1.834949	0.621698	-0.000075
 851	8.4575e+01	6.1362	12.446352	0.000150	1.502239	0.508972	-0.000061
 852	8.4674e+01	6.1121	12.380362	0.000163	1.633307	0.553379	-0.000066
 853	8.4774e+01	6.0865	12.317224	0.000156	1.562732	0.529468	-0.000063
 854	8.4874e+01	6.0207	12.247568	0.000172	1.724046	0.584123	-0.000070
 855	8.4973e+01	5.9822	12.181579	0.000163	1.633307	0.553379	-0.000066
 856	8.5073e+01	5.9405	12.117626	0.000158	1.582896	0.536300	-0.000064
 857	8.5172e+01	5.9244	12.051637	0.000163	1.633307	0.553379	-0.000066
 858	8.5272e+01	5.9052	11.986462	0.000161	1.613142	0.546547	-0.000066
 859	8.5371e+01	5.8426	11.924953	0.000152	1.522403	0.515804	-0.000062
 860	8.5471e+01	5.7865	11.860186	0.000160	1.603060	0.543131	-0.000065
 861	8.5570e+01	5.7383	11.798270	0.000153	1.532485	0.519220	-0.000062
 862	8.5669e+01	5.7063	11.731873	0.000164	1.643389	0.556795	-0.000067
 863	8.5769e+01	5.7063	11.667105	0.000160	1.603060	0.543131	-0.000065
 864	8.5868e+01	5.6565	11.599486	0.000167	1.673635	0.567043	-0.000068
 865	8.5968e+01	5.5891	11.537570	0.000153	1.532485	0.519220	-0.000062
 866	8.6067e+01	5.5362	11.467508	0.000173	1.734128	0.587538	-0.000070
 867	8.6167e+01	5.5234	11.401518	0.000163	1.633307	0.553379	-0.000066
 868	8.6266e+01	5.4769	11.337565	0.000158	1.582896	0.536300	-0.000064
 869	8.6366e+01	5.4223	11.276871	0.000150	1.502239	0.508972	-0.000061
 870	8.6466e+01	5.4239	11.205586	-0.000176	-1.764374	-0.597786	-0.000072
 871	8.6565e+01	5.3597	11.144892	0.000150	1.502239	0.508972	-0.000061
 872	8.6665e+01	5.3357	11.082976	0.000153	1.532485	0.519220	-0.000062
 873	8.6764e+01	5.2619	11.015357	0.000167	1.673635	0.567043	-0.000068
 874	8.6864e+01	5.2346	10.946924	0.000169	1.693799	0.573875	-0.000069
 875	8.6963e+01	5.2073	10.880934	0.000163	1.633307	0.553379	-0.000066
 876	8.7063e+01	5.1384	10.821462	0.000147	1.471992	0.498724	-0.000060
 877	8.7162e+01	5.1432	10.747326	-0.000183	-1.834949	-0.621698	-0.000075
 878	8.7261e+01	5.0854	10.683780	0.000157	1.572814	0.532884	-0.000064
 879	8.7361e+01	5.0437	10.619828	0.000158	1.582896	0.536300	-0.000064
 880	8.7460e+01	4.9940	10.553023	0.000165	1.653471	0.560211	-0.000067
 881	8.7560e+01	4.9619	10.482961	0.000173	1.734128	0.587538	-0.000070
 882	8.7659e+01	4.9234	10.421452	0.000152	1.522403	0.515804	-0.000062
 883	8.7759e+01	4.8624	10.346093	0.000187	1.865196	0.631945	-0.000076
 884	8.7859e+01	4.8368	10.278882	0.000166	1.663553	0.563627	-0.000068
 885	8.7958e+01	4.7790	10.213707	0.000161	1.613142	0.546547	-0.000066
 886	8.8058e+01	4.7549	10.143644	0.000173	1.734128	0.587538	-0.000070
 887	8.8157e+01	4.7084	10.076433	0.000166	1.663553	0.563627	-0.000068
 888	8.8257e+01	4.7004	10.014109	0.000154	1.542567	0.522636	-0.000063
 889	8.8356e+01	4.6378	9.944454	0.000172	1.724046	0.584123	-0.000070
 890	8.8456e+01	4.5977	9.873576	0.000175	1.754292	0.594370	-0.000071
 891	8.8555e+01	4.5737	9.807179	0.000164	1.643389	0.556795	-0.000067
 892	8.8654e+01	4.5576	9.737524	0.000172	1.724046	0.584123	-0.000070
 893	8.8754e+01	4.4822	9.665424	0.000178	1.784539	0.604618	-0.000072
 894	8.8853e+01	4.4469	9.595361	0.000173	1.734128	0.587538	-0.000070
 895	8.8953e+01	4.3796	9.525706	0.000172	1.724046	0.584123	-0.000070
 896	8.9052e+01	4.3619	9.457679	0.000168	1.683717	0.570459	-0.000068
 897	8.9152e+01	4.3603	9.382728	0.000186	1.855114	0.628529	-0.000075
 898	8.9251e+01	4.2801	9.308999	0.000182	1.824867	0.618282	-0.000074
 899	8.9351e+01	4.2432	9.237307	0.000177	1.774456	0.601202	-0.000072
 900	8.9451e+01	4.2127	9.169281	0.000168	1.683717	0.570459	-0.000068
 901	8.9550e+01	4.1534	9.095552	0.000182	1.824867	0.618282	-0.000074
 902	8.9650e+01	4.1052	9.022230	0.000181	1.814785	0.614866	-0.000074
 903	8.9749e+01	4.0796	8.950538	0.000177	1.774456	0.601202	-0.000072
 904	8.9849e+01	4.0587	8.878438	0.000178	1.784539	0.604618	-0.000072
 905	8.9948e+01	4.0170	8.803487	0.000186	1.855114	0.628529	-0.000075
 906	9.0047e+01	3.9416	8.730166	0.000181	1.814785	0.614866	-0.000074
 907	9.0147e+01	3.9352	8.658473	0.000177	1.774456	0.601202	-0.000072
 908	9.0246e+01	3.8887	8.581078	0.000192	1.915606	0.649025	-0.000078
 909	9.0346e+01	3.8502	8.509386	0.000177	1.774456	0.601202	-0.000072
 910	9.0445e+01	3.8084	8.435250	0.000183	1.834949	0.621698	-0.000075
 911	9.0545e+01	3.7844	8.362335	0.000180	1.804703	0.611450	-0.000073
 912	9.0644e+01	3.7427	8.285347	0.000191	1.905524	0.645609	-0.000077
 913	9.0744e+01	3.6721	8.211211	0.000183	1.834949	0.621698	-0.000075
 914	9.0844e+01	3.6288	8.133409	0.000193	1.925689	0.652441	-0.000078
 915	9.0943e+01	3.6079	8.062124	0.000176	1.764374	0.597786	-0.000072
 916	9.1043e+01	3.5598	7.979841	0.000204	2.036592	0.690016	-0.000083
 917	9.1142e+01	3.5341	7.911814	0.000168	1.683717	0.570459	-0.000068
 918	9.1242e+01	3.5020	7.833197	0.000195	1.945853	0.659273	-0.000079
 919	9.1341e+01	3.4331	7.759061	0.000183	1.834949	0.621698	-0.000075
 920	9.1441e+01	3.3930	7.681666	0.000192	1.915606	0.649025	-0.000078
 921	9.1540e+01	3.3496	7.610381	0.000176	1.764374	0.597786	-0.000072
 922	9.1639e+01	3.3208	7.535837	0.000185	1.845031	0.625114	-0.000075
 923	9.1739e+01	3.2598	7.458849	0.000191	1.905524	0.645609	-0.000077
 924	9.1838e+01	3.2197	7.381047	0.000193	1.925689	0.652441	-0.000078
 925	9.1938e+01	3.2341	7.303245	-0.000193	-1.925689	-0.652441	-0.000078
 926	9.2037e+01	3.1619	7.228294	0.000186	1.855114	0.628529	-0.000075
 927	9.2137e+01	3.1331	7.152528	0.000188	1.875278	0.635361	-0.000076
 928	9.2237e+01	3.1122	7.072689	0.000198	1.976099	0.669521	-0.000080
 929	9.2336e+01	3.0593	6.995701	0.000191	1.905524	0.645609	-0.000077
 930	9.2436e+01	2.9791	6.914232	0.000202	2.016428	0.683184	-0.000082
 931	9.2535e+01	2.9742	6.836023	0.000194	1.935771	0.655857	-0.000079
 932	9.2635e+01	2.9309	6.763923	0.000178	1.784539	0.604618	-0.000072
 933	9.2734e+01	2.8668	6.682455	0.000202	2.016428	0.683184	-0.000082
 934	9.2834e+01	2.8491	6.603430	0.000196	1.955935	0.662689	-0.000079
 935	9.2933e+01	2.8106	6.531738	0.000177	1.774456	0.601202	-0.000072
 936	9.3032e+01	2.7593	6.454750	0.000191	1.905524	0.645609	-0.000077
 937	9.3132e+01	2.7464	6.372874	0.000203	2.026510	0.686600	-0.000082
 938	9.3231e+01	2.6855	6.295886	0.000191	1.905524	0.645609	-0.000077
 939	9.3331e+01	2.6550	6.217269	0.000195	1.945853	0.659273	-0.000079
 940	9.3430e+01	2.6342	6.140689	0.000190	1.895442	0.642193	-0.000077
 941	9.3530e+01	2.5491	6.055554	0.000211	2.107167	0.713928	-0.000086
 942	9.3629e+01	2.5427	5.976530	0.000196	1.955935	0.662689	-0.000079
 943	9.3729e+01	2.4817	5.893432	0.000206	2.056756	0.696848	-0.000084
 944	9.3829e+01	2.4609	5.815630	0.000193	1.925689	0.652441	-0.000078
 945	9.3928e+01	2.4224	5.733346	0.000204	2.036592	0.690016	-0.000083
 946	9.4028e+01	2.3662	5.650656	0.000205	2.046674	0.693432	-0.000083
 947	9.4127e+01	2.3229	5.571224	0.000197	1.966017	0.666105	-0.000080
 948	9.4227e+01	2.3181	5.492607	0.000195	1.945853	0.659273	-0.000079
 949	9.4326e+01	2.2315	5.409509	0.000206	2.056756	0.696848	-0.000084
 950	9.4425e+01	2.1850	5.330485	0.000196	1.955935	0.662689	-0.000079
 951	9.4525e+01	2.1753	5.249016	0.000202	2.016428	0.683184	-0.000082
 952	9.4624e+01	2.1224	5.161437	0.000217	2.167660	0.734423	-0.000088
 953	9.4724e+01	2.0630	5.083635	0.000193	1.925689	0.652441	-0.000078
 954	9.4823e+01	2.0550	5.000130	0.000207	2.066839	0.700264	-0.000084
 955	9.4923e+01	2.0005	4.919883	0.000199	1.986181	0.672936	-0.000081
 956	9.5022e+01	1.9748	4.834341	0.000212	2.117249	0.717343	-0.000086
 957	9.5122e+01	1.9363	4.754095	0.000199	1.986181	0.672936	-0.000081
 958	9.5222e+01	1.9074	4.669368	0.000210	2.097085	0.710512	-0.000085
 959	9.5321e+01	1.8417	4.585048	0.000209	2.087003	0.707096	-0.000085
 960	9.5421e+01	1.8336	4.503172	0.000203	2.026510	0.686600	-0.000082
 961	9.5520e+01	1.7454	4.418852	0.000209	2.087003	0.707096	-0.000085
 962	9.5620e+01	1.7518	4.336569	-0.000204	-2.036592	-0.690016	-0.000083
 963	9.5719e+01	1.7085	4.259581	0.000191	1.905524	0.645609	-0.000077
 964	9.5819e+01	1.6508	4.169151	0.000224	2.238235	0.758335	-0.000091
 965	9.5918e+01	1.6299	4.088090	0.000201	2.006346	0.679768	-0.000081
 966	9.6017e+01	1.5705	4.009880	0.000194	1.935771	0.655857	-0.000079
 967	9.6117e+01	1.5176	3.927597	0.000204	2.036592	0.690016	-0.000083
 968	9.6216e+01	1.4871	3.844092	0.000207	2.066839	0.700264	-0.000084
 969	9.6316e+01	1.4438	3.758142	0.000213	2.127331	0.720759	-0.000086
 970	9.6415e+01	1.4117	3.678303	0.000198	1.976099	0.669521	-0.000080
 971	9.6515e+01	1.3877	3.597649	0.000200	1.996264	0.676352	-0.000081
 972	9.6615e+01	1.3427	3.512107	0.000212	2.117249	0.717343	-0.000086
 973	9.6714e+01	1.3219	3.434712	0.000192	1.915606	0.649025	-0.000078
 974	9.6814e+01	1.2481	3.348763	0.000213	2.127331	0.720759	-0.000086
 975	9.6913e+01	1.2096	3.260777	0.000218	2.177742	0.737839	-0.000088
 976	9.7013e+01	1.1775	3.182567	0.000194	1.935771	0.655857	-0.000079
 977	9.7112e+01	1.1374	3.098247	0.000209	2.087003	0.707096	-0.000085
 978	9.7212e+01	1.0829	3.016372	0.000203	2.026510	0.686600	-0.000082
 979	9.7311e+01	1.0572	2.936532	0.000198	1.976099	0.669521	-0.000080
 980	9.7410e+01	1.0123	2.857508	0.000196	1.955935	0.662689	-0.000079
 981	9.7510e+01	0.9770	2.771966	0.000212	2.117249	0.717343	-0.000086
 982	9.7609e+01	0.9369	2.696608	0.000187	1.865196	0.631945	-0.000076
 983	9.7709e+01	0.9080	2.616769	0.000198	1.976099	0.669521	-0.000080
 984	9.7808e+01	0.8647	2.532041	0.000210	2.097085	0.710512	-0.000085
 985	9.7908e+01	0.8021	2.452202	0.000198	1.976099	0.669521	-0.000080
 986	9.8007e+01	0.7492	2.371956	0.000199	1.986181	0.672936	-0.000081
 987	9.8107e+01	0.7363	2.287636	0.000209	2.087003	0.707096	-0.000085
 988	9.8207e+01	0.6706	2.212685	0.000186	1.855114	0.628529	-0.000075
 989	9.8306e+01	0.6433	2.123884	0.000220	2.197906	0.744671	-0.000089
 990	9.8406e+01	0.6144	2.047304	0.000190	1.895442	0.642193	-0.000077
 991	9.8505e+01	0.5759	1.963798	0.000207	2.066839	0.700264	-0.000084
 992	9.8605e+01	0.5326	1.888033	0.000188	1.875278	0.635361	-0.000076
 993	9.8704e+01	0.4973	1.805750	0.000204	2.036592	0.690016	-0.000083
 994	9.8803e+01	0.4604	1.723466	0.000204	2.036592	0.690016	-0.000083
 995	9.8903e+01	0.4203	1.642813	0.000200	1.996264	0.676352	-0.000081
 996	9.9002e+01	0.3786	1.563381	0.000197	1.966017	0.666105	-0.000080
 997	9.9102e+01	0.3481	1.485986	0.000192	1.915606	0.649025	-0.000078
 998	9.9201e+01	0.3032	1.402888	0.000206	2.056756	0.696848	-0.000084
 999	9.9301e+01	0.2326	1.323456	0.000197	1.966017	0.666105	-0.000080
1000	9.9400e+01	0.2278	1.243209	0.000199	1.986181	0.672936	-0.000081
1001	9.9500e+01	0.1957	1.161334	0.000203	2.026510	0.686600	-0.000082
1002	9.9600e+01	0.1364	1.080680	0.000200	1.996264	0.676352	-0.000081
1003	9.9699e+01	0.0690	1.000026	0.000200	1.996264	0.676352	-0.000081
1004	9.9799e+01	0.0658	0.917335	0.000205	2.046674	0.693432	-0.000083
1005	9.9898e+01	0.0176	0.856234	0.000151	1.512321	0.512388	-0.000061
1006	9.9998e+01	-0.0096	0.777210	0.000196	1.955935	0.662689	-0.000079
1007	1.0010e+02	-0.0754	0.696963	0.000199	1.986181	0.672936	-0.000081
1008	1.0020e+02	-0.1107	0.612643	0.000209	2.087003	0.707096	-0.000085
1009	1.0030e+02	-0.1267	0.539729	0.000180	1.804703	0.611450	-0.000073
1010	1.0040e+02	-0.1700	0.456224	0.000207	2.066839	0.700264	-0.000084
1011	1.0050e+02	-0.2166	0.379643	0.000190	1.895442	0.642193	-0.000077
1012	1.0059e+02	-0.2711	0.296953	0.000205	2.046674	0.693432	-0.000083
1013	1.0069e+02	-0.2823	0.221187	0.000188	1.875278	0.635361	-0.000076
1014	1.0079e+02	-0.3208	0.142977	0.000194	1.935771	0.655857	-0.000079
1015	1.0089e+02	-0.3722	0.065582	0.000192	1.915606	0.649025	-0.000078
1016	1.0099e+02	-0.4283	-0.019145	0.000210	2.097085	0.710512	-0.000085
1017	1.0109e+02	-0.4732	-0.097355	0.000194	1.935771	0.655857	-0.000079
1018	1.0119e+02	-0.5005	-0.179231	0.000203	2.026510	0.686600	-0.000082
1019	1.0129e+02	-0.5631	-0.255811	0.000190	1.895442	0.642193	-0.000077
1020	1.0139e+02	-0.5759	-0.334836	0.000196	1.955935	0.662689	-0.000079
1021	1.0149e+02	-0.6064	-0.412638	0.000193	1.925689	0.652441	-0.000078
1022	1.0159e+02	-0.6529	-0.494514	0.000203	2.026510	0.686600	-0.000082
1023	1.0169e+02	-0.7139	-0.567428	0.000180	1.804703	0.611450	-0.000073
1024	1.0179e+02	-0.7299	-0.651748	0.000209	2.087003	0.707096	-0.000085
1025	1.0189e+02	-0.7781	-0.727514	0.000188	1.875278	0.635361	-0.000076
1026	1.0199e+02	-0.8069	-0.807353	0.000198	1.976099	0.669521	-0.000080
1027	1.0209e+02	-0.8470	-0.878231	0.000175	1.754292	0.594370	-0.000071
1028	1.0219e+02	-0.9000	-0.954404	0.000189	1.885360	0.638777	-0.000077
1029	1.0229e+02	-0.9337	-1.033428	0.000196	1.955935	0.662689	-0.000079
1030	1.0239e+02	-0.9593	-1.110823	0.000192	1.915606	0.649025	-0.000078
1031	1.0248e+02	-1.0091	-1.192699	0.000203	2.026510	0.686600	-0.000082
1032	1.0258e+02	-1.0187	-1.261540	0.000170	1.703881	0.577291	-0.000069
1033	1.0268e+02	-1.0925	-1.340564	0.000196	1.955935	0.662689	-0.000079
1034	1.0278e+02	-1.1438	-1.424477	0.000208	2.076921	0.703680	-0.000084
1035	1.0288e+02	-1.1518	-1.495355	0.000175	1.754292	0.594370	-0.000071
1036	1.0298e+02	-1.2208	-1.568269	0.000180	1.804703	0.611450	-0.000073
1037	1.0308e+02	-1.2160	-1.647293	-0.000196	-1.955935	-0.662689	-0.000079
1038	1.0318e+02	-1.2834	-1.724281	0.000191	1.905524	0.645609	-0.000077
1039	1.0328e+02	-1.3203	-1.805342	0.000201	2.006346	0.679768	-0.000081
1040	1.0338e+02	-1.3572	-1.870924	0.000162	1.623224	0.549963	-0.000066
1041	1.0348e+02	-1.4133	-1.945061	0.000183	1.834949	0.621698	-0.000075
1042	1.0358e+02	-1.4502	-2.025307	0.000199	1.986181	0.672936	-0.000081
1043	1.0368e+02	-1.4631	-2.100666	0.000187	1.865196	0.631945	-0.000076
1044	1.0378e+02	-1.5304	-2.172358	0.000177	1.774456	0.601202	-0.000072
1045	1.0388e+02	-1.5593	-2.249346	0.000191	1.905524	0.645609	-0.000077
1046	1.0398e+02	-1.6074	-2.325926	0.000190	1.895442	0.642193	-0.000077
1047	1.0408e+02	-1.6556	-2.401692	0.000188	1.875278	0.635361	-0.000076
1048	1.0418e+02	-1.6780	-2.477865	0.000189	1.885360	0.638777	-0.000077
1049	1.0428e+02	-1.7310	-2.550779	0.000180	1.804703	0.611450	-0.000073
1050	1.0438e+02	-1.7614	-2.626545	0.000188	1.875278	0.635361	-0.000076
1051	1.0447e+02	-1.7999	-2.705977	0.000197	1.966017	0.666105	-0.000080
1052	1.0457e+02	-1.8368	-2.779298	0.000181	1.814785	0.614866	-0.000074
1053	1.0467e+02	-1.8930	-2.858323	0.000196	1.955935	0.662689	-0.000079
1054	1.0477e+02	-1.9074	-2.931237	0.000180	1.804703	0.611450	-0.000073
1055	1.0487e+02	-1.9588	-3.000893	0.000172	1.724046	0.584123	-0.000070
1056	1.0497e+02	-2.0101	-3.083176	0.000204	2.036592	0.690016	-0.000083
1057	1.0507e+02	-2.0486	-3.155683	0.000179	1.794621	0.608034	-0.000073
1058	1.0517e+02	-2.0759	-3.228190	0.000179	1.794621	0.608034	-0.000073
1059	1.0527e+02	-2.1304	-3.302733	0.000185	1.845031	0.625114	-0.000075
1060	1.0537e+02	-2.1657	-3.380128	0.000192	1.915606	0.649025	-0.000078
1061	1.0547e+02	-2.1962	-3.455487	0.000187	1.865196	0.631945	-0.000076
1062	1.0557e+02	-2.2572	-3.535326	0.000198	1.976099	0.669521	-0.000080
1063	1.0567e+02	-2.2924	-3.610684	0.000187	1.865196	0.631945	-0.000076
1064	1.0577e+02	-2.3085	-3.687265	0.000190	1.895442	0.642193	-0.000077
1065	1.0587e+02	-2.3678	-3.768326	0.000201	2.006346	0.679768	-0.000081
1066	1.0597e+02	-2.3999	-3.842870	0.000185	1.845031	0.625114	-0.000075
1067	1.0607e+02	-2.4336	-3.915784	0.000180	1.804703	0.611450	-0.000073
1068	1.0617e+02	-2.4785	-3.997252	0.000202	2.016428	0.683184	-0.000082
1069	1.0627e+02	-2.5267	-4.073018	0.000188	1.875278	0.635361	-0.000076
1070	1.0637e+02	-2.5475	-4.149191	0.000189	1.885360	0.638777	-0.000077
1071	1.0647e+02	-2.6101	-4.224550	0.000187	1.865196	0.631945	-0.000076
1072	1.0656e+02	-2.6550	-4.301537	0.000191	1.905524	0.645609	-0.000077
1073	1.0666e+02	-2.6967	-4.378932	0.000192	1.915606	0.649025	-0.000078
1074	1.0676e+02	-2.7208	-4.456735	0.000193	1.925689	0.652441	-0.000078
1075	1.0686e+02	-2.7641	-4.530871	0.000183	1.834949	0.621698	-0.000075
1076	1.0696e+02	-2.7898	-4.607452	0.000190	1.895442	0.642193	-0.000077
1077	1.0706e+02	-2.8299	-4.684847	0.000192	1.915606	0.649025	-0.000078
1078	1.0716e+02	-2.8924	-4.762242	0.000192	1.915606	0.649025	-0.000078
1079	1.0726e+02	-2.9293	-4.842896	0.000200	1.996264	0.676352	-0.000081
1080	1.0736e+02	-2.9775	-4.917439	0.000185	1.845031	0.625114	-0.000075
1081	1.0746e+02	-3.0127	-4.996464	0.000196	1.955935	0.662689	-0.000079
1082	1.0756e+02	-3.0368	-5.073044	0.000190	1.895442	0.642193	-0.000077
1083	1.0766e+02	-3.0833	-5.149217	0.000189	1.885360	0.638777	-0.000077
1084	1.0776e+02	-3.1026	-5.224576	0.000187	1.865196	0.631945	-0.000076
1085	1.0786e+02	-3.1956	-5.302785	0.000194	1.935771	0.655857	-0.000079
1086	1.0796e+02	-3.1828	-5.375700	-0.000180	-1.804703	-0.611450	-0.000073
1087	1.0806e+02	-3.2470	-5.451465	0.000188	1.875278	0.635361	-0.000076
1088	1.0816e+02	-3.2967	-5.531305	0.000198	1.976099	0.669521	-0.000080
1089	1.0826e+02	-3.3256	-5.604219	0.000180	1.804703	0.611450	-0.000073
1090	1.0836e+02	-3.3657	-5.677133	0.000180	1.804703	0.611450	-0.000073
1091	1.0845e+02	-3.3865	-5.755343	0.000194	1.935771	0.655857	-0.000079
1092	1.0855e+02	-3.4635	-5.832331	0.000191	1.905524	0.645609	-0.000077
1093	1.0865e+02	-3.4748	-5.905245	0.000180	1.804703	0.611450	-0.000073
1094	1.0875e+02	-3.5165	-5.983047	0.000193	1.925689	0.652441	-0.000078
1095	1.0885e+02	-3.5823	-6.060442	0.000192	1.915606	0.649025	-0.000078
1096	1.0895e+02	-3.6336	-6.135801	0.000187	1.865196	0.631945	-0.000076
1097	1.0905e+02	-3.6416	-6.215640	0.000198	1.976099	0.669521	-0.000080
1098	1.0915e+02	-3.6913	-6.285703	0.000173	1.734128	0.587538	-0.000070
1099	1.0925e+02	-3.7250	-6.366357	0.000200	1.996264	0.676352	-0.000081
1100	1.0935e+02	-3.7475	-6.437642	0.000176	1.764374	0.597786	-0.000072
1101	1.0945e+02	-3.8325	-6.514222	0.000190	1.895442	0.642193	-0.000077
1102	1.0955e+02	-3.8293	-6.588358	-0.000183	-1.834949	-0.621698	-0.000075
1103	1.0965e+02	-3.8742	-6.664939	0.000190	1.895442	0.642193	-0.000077
1104	1.0975e+02	-3.9288	-6.743149	0.000194	1.935771	0.655857	-0.000079
1105	1.0985e+02	-3.9416	-6.816470	0.000181	1.814785	0.614866	-0.000074
1106	1.0995e+02	-3.9865	-6.890199	0.000182	1.824867	0.618282	-0.000074
1107	1.1005e+02	-4.0539	-6.971260	0.000201	2.006346	0.679768	-0.000081
1108	1.1015e+02	-4.0940	-7.042138	0.000175	1.754292	0.594370	-0.000071
1109	1.1025e+02	-4.1245	-7.117496	0.000187	1.865196	0.631945	-0.000076
1110	1.1035e+02	-4.1389	-7.194077	0.000190	1.895442	0.642193	-0.000077
1111	1.1044e+02	-4.2063	-7.269843	0.000188	1.875278	0.635361	-0.000076
1112	1.1054e+02	-4.2432	-7.350904	0.000201	2.006346	0.679768	-0.000081
1113	1.1064e+02	-4.2608	-7.423411	0.000179	1.794621	0.608034	-0.000073
1114	1.1074e+02	-4.3250	-7.503657	0.000199	1.986181	0.672936	-0.000081
1115	1.1084e+02	-4.3475	-7.578201	0.000185	1.845031	0.625114	-0.000075
1116	1.1094e+02	-4.4068	-7.651522	0.000181	1.814785	0.614866	-0.000074
1117	1.1104e+02	-4.4421	-7.727288	0.000188	1.875278	0.635361	-0.000076
1118	1.1114e+02	-4.4870	-7.801832	0.000185	1.845031	0.625114	-0.000075
1119	1.1124e+02	-4.5159	-7.880449	0.000195	1.945853	0.659273	-0.000079
1120	1.1134e+02	-4.5673	-7.954585	0.000183	1.834949	0.621698	-0.000075
1121	1.1144e+02	-4.6170	-8.027092	0.000179	1.794621	0.608034	-0.000073
1122	1.1154e+02	-4.6266	-8.104080	0.000191	1.905524	0.645609	-0.000077
1123	1.1164e+02	-4.6731	-8.184327	0.000199	1.986181	0.672936	-0.000081
1124	1.1174e+02	-4.7052	-8.256019	0.000177	1.774456	0.601202	-0.000072
1125	1.1184e+02	-4.7790	-8.330970	0.000186	1.855114	0.628529	-0.000075
1126	1.1194e+02	-4.7774	-8.408365	-0.000192	-1.915606	-0.649025	-0.000078
1127	1.1204e+02	-4.8255	-8.485353	0.000191	1.905524	0.645609	-0.000077
1128	1.1214e+02	-4.8640	-8.561526	0.000189	1.885360	0.638777	-0.000077
1129	1.1224e+02	-4.9138	-8.636069	0.000185	1.845031	0.625114	-0.000075
1130	1.1234e+02	-4.9651	-8.708169	0.000178	1.784539	0.604618	-0.000072
1131	1.1244e+02	-4.9908	-8.784342	0.000189	1.885360	0.638777	-0.000077
1132	1.1253e+02	-5.0341	-8.856442	0.000178	1.784539	0.604618	-0.000072
1133	1.1263e+02	-5.0614	-8.930171	0.000182	1.824867	0.618282	-0.000074
1134	1.1273e+02	-5.1544	-9.003900	0.000182	1.824867	0.618282	-0.000074
1135	1.1283e+02	-5.1496	-9.080888	-0.000191	-1.905524	-0.645609	-0.000077
1136	1.1293e+02	-5.1833	-9.150136	0.000171	1.713964	0.580707	-0.000070
1137	1.1303e+02	-5.2314	-9.227123	0.000191	1.905524	0.645609	-0.000077
1138	1.1313e+02	-5.2651	-9.296779	0.000172	1.724046	0.584123	-0.000070
1139	1.1323e+02	-5.2956	-9.374174	0.000192	1.915606	0.649025	-0.000078
1140	1.1333e+02	-5.3630	-9.446681	0.000179	1.794621	0.608034	-0.000073
1141	1.1343e+02	-5.3902	-9.520410	0.000182	1.824867	0.618282	-0.000074
1142	1.1353e+02	-5.4400	-9.584363	0.000158	1.582896	0.536300	-0.000064
1143	1.1363e+02	-5.4752	-9.664609	0.000199	1.986181	0.672936	-0.000081
1144	1.1373e+02	-5.4897	-9.733858	0.000171	1.713964	0.580707	-0.000070
1145	1.1383e+02	-5.5619	-9.810031	0.000189	1.885360	0.638777	-0.000077
1146	1.1393e+02	-5.5956	-9.877242	0.000166	1.663553	0.563627	-0.000068
1147	1.1403e+02	-5.6148	-9.945268	0.000168	1.683717	0.570459	-0.000068
1148	1.1413e+02	-5.6742	-10.017775	0.000179	1.794621	0.608034	-0.000073
1149	1.1423e+02	-5.7047	-10.085394	0.000167	1.673635	0.567043	-0.000068
1150	1.1433e+02	-5.7415	-10.153013	0.000167	1.673635	0.567043	-0.000068
1151	1.1442e+02	-5.7961	-10.225927	0.000180	1.804703	0.611450	-0.000073
1152	1.1452e+02	-5.8314	-10.295583	0.000172	1.724046	0.584123	-0.000070
1153	1.1462e+02	-5.8843	-10.366461	0.000175	1.754292	0.594370	-0.000071
1154	1.1472e+02	-5.9116	-10.430821	0.000159	1.592978	0.539716	-0.000065
1155	1.1482e+02	-5.9886	-10.505364	0.000185	1.845031	0.625114	-0.000075
1156	1.1492e+02	-5.9854	-10.573798	-0.000169	-1.693799	-0.573875	-0.000069
1157	1.1502e+02	-6.0271	-10.643046	0.000171	1.713964	0.580707	-0.000070
1158	1.1512e+02	-6.0704	-10.711072	0.000168	1.683717	0.570459	-0.000068
1159	1.1522e+02	-6.1153	-10.779913	0.000170	1.703881	0.577291	-0.000069
1160	1.1532e+02	-6.1554	-10.845903	0.000163	1.633307	0.553379	-0.000066
1161	1.1542e+02	-6.1715	-10.912300	0.000164	1.643389	0.556795	-0.000067
1162	1.1552e+02	-6.2324	-10.987251	0.000186	1.855114	0.628529	-0.000075
1163	1.1562e+02	-6.2645	-11.049981	0.000155	1.552649	0.526052	-0.000063
1164	1.1572e+02	-6.3046	-11.115156	0.000161	1.613142	0.546547	-0.000066
1165	1.1582e+02	-6.3560	-11.180331	0.000161	1.613142	0.546547	-0.000066
1166	1.1592e+02	-6.4057	-11.255282	0.000186	1.855114	0.628529	-0.000075
1167	1.1602e+02	-6.4346	-11.315161	0.000148	1.482074	0.502140	-0.000060
1168	1.1612e+02	-6.4635	-11.377892	0.000155	1.552649	0.526052	-0.000063
1169	1.1622e+02	-6.5004	-11.444289	0.000164	1.643389	0.556795	-0.000067
1170	1.1632e+02	-6.5276	-11.513537	0.000171	1.713964	0.580707	-0.000070
1171	1.1642e+02	-6.5854	-11.577490	0.000158	1.582896	0.536300	-0.000064
1172	1.1651e+02	-6.6030	-11.652034	0.000185	1.845031	0.625114	-0.000075
1173	1.1661e+02	-6.6800	-11.713135	0.000151	1.512321	0.512388	-0.000061
1174	1.1671e+02	-6.7153	-11.779532	0.000164	1.643389	0.556795	-0.000067
1175	1.1681e+02	-6.7586	-11.845114	0.000162	1.623224	0.549963	-0.000066
1176	1.1691e+02	-6.7923	-11.913548	0.000169	1.693799	0.573875	-0.000069
1177	1.1701e+02	-6.8292	-11.975464	0.000153	1.532485	0.519220	-0.000062
1178	1.1711e+02	-6.8485	-12.047156	0.000177	1.774456	0.601202	-0.000072
1179	1.1721e+02	-6.9191	-12.107850	0.000150	1.502239	0.508972	-0.000061
1180	1.1731e+02	-6.9399	-12.175469	0.000167	1.673635	0.567043	-0.000068
1181	1.1741e+02	-7.0009	-12.241051	0.000162	1.623224	0.549963	-0.000066
1182	1.1751e+02	-7.0426	-12.305818	0.000160	1.603060	0.543131	-0.000065
1183	1.1761e+02	-7.0666	-12.370586	0.000160	1.603060	0.543131	-0.000065
1184	1.1771e+02	-7.1068	-12.436575	0.000163	1.633307	0.553379	-0.000066
1185	1.1781e+02	-7.1420	-12.505824	0.000171	1.713964	0.580707	-0.000070
1186	1.1791e+02	-7.2094	-12.562444	0.000140	1.401417	0.474813	-0.000057
1187	1.1801e+02	-7.2223	-12.634137	0.000177	1.774456	0.601202	-0.000072
1188	1.1811e+02	-7.2656	-12.703385	0.000171	1.713964	0.580707	-0.000070
1189	1.1821e+02	-7.3201	-12.764894	0.000152	1.522403	0.515804	-0.000062
1190	1.1831e+02	-7.3442	-12.828439	0.000157	1.572814	0.532884	-0.000064
1191	1.1841e+02	-7.3907	-12.894836	0.000164	1.643389	0.556795	-0.000067
1192	1.1850e+02	-7.4292	-12.954715	0.000148	1.482074	0.502140	-0.000060
1193	1.1860e+02	-7.4773	-13.022741	0.000168	1.683717	0.570459	-0.000068
1194	1.1870e+02	-7.4821	-13.083435	0.000150	1.502239	0.508972	-0.000061
1195	1.1880e+02	-7.5511	-13.147796	0.000159	1.592978	0.539716	-0.000065
1196	1.1890e+02	-7.5976	-13.207268	0.000147	1.471992	0.498724	-0.000060
1197	1.1900e+02	-7.6169	-13.270406	0.000156	1.562732	0.529468	-0.000063
1198	1.1910e+02	-7.6811	-13.334766	0.000159	1.592978	0.539716	-0.000065
1199	1.1920e+02	-7.7035	-13.394238	0.000147	1.471992	0.498724	-0.000060
1200	1.1930e+02	-7.7484	-13.460227	0.000163	1.633307	0.553379	-0.000066
1201	1.1940e+02	-7.7902	-13.522958	0.000155	1.552649	0.526052	-0.000063
1202	1.1950e+02	-7.8511	-13.587725	0.000160	1.603060	0.543131	-0.000065
1203	1.1960e+02	-7.8784	-13.652086	0.000159	1.592978	0.539716	-0.000065
1204	1.1970e+02	-7.9217	-13.710743	0.000145	1.451828	0.491893	-0.000059
1205	1.1980e+02	-7.9442	-13.777140	0.000164	1.643389	0.556795	-0.000067
1206	1.1990e+02	-7.9730	-13.840685	0.000157	1.572814	0.532884	-0.000064
1207	1.2000e+02	-7.9987	-13.901379	0.000150	1.502239	0.508972	-0.000061
1208	1.2010e+02	-8.0869	-13.958000	0.000140	1.401417	0.474813	-0.000057
1209	1.2020e+02	-8.1142	-14.016250	0.000144	1.441746	0.488477	-0.000059
1210	1.2030e+02	-8.1671	-14.081832	0.000162	1.623224	0.549963	-0.000066
1211	1.2039e+02	-8.1816	-14.144970	0.000156	1.562732	0.529468	-0.000063
1212	1.2049e+02	-8.2089	-14.204849	0.000148	1.482074	0.502140	-0.000060
1213	1.2059e+02	-8.2602	-14.265543	0.000150	1.502239	0.508972	-0.000061
1214	1.2069e+02	-8.2987	-14.329904	0.000159	1.592978	0.539716	-0.000065
1215	1.2079e+02	-8.3340	-14.388968	0.000146	1.461910	0.495309	-0.000059
1216	1.2089e+02	-8.3853	-14.454958	0.000163	1.633307	0.553379	-0.000066
1217	1.2099e+02	-8.4302	-14.511986	0.000141	1.411499	0.478229	-0.000057
1218	1.2109e+02	-8.4607	-14.579605	0.000167	1.673635	0.567043	-0.000068
1219	1.2119e+02	-8.5281	-14.640299	0.000150	1.502239	0.508972	-0.000061
1220	1.2129e+02	-8.5554	-14.704659	0.000159	1.592978	0.539716	-0.000065
1221	1.2139e+02	-8.5859	-14.766167	0.000152	1.522403	0.515804	-0.000062
1222	1.2149e+02	-8.6244	-14.827676	0.000152	1.522403	0.515804	-0.000062
1223	1.2159e+02	-8.6837	-14.890407	0.000155	1.552649	0.526052	-0.000063
1224	1.2169e+02	-8.7238	-14.952323	0.000153	1.532485	0.519220	-0.000062
1225	1.2179e+02	-8.7575	-15.013424	0.000151	1.512321	0.512388	-0.000061
1226	1.2189e+02	-8.7655	-15.077377	0.000158	1.582896	0.536300	-0.000064
1227	1.2199e+02	-8.8088	-15.136442	0.000146	1.461910	0.495309	-0.000059
1228	1.2209e+02	-8.8506	-15.199173	0.000155	1.552649	0.526052	-0.000063
1229	1.2219e+02	-8.9003	-15.265569	0.000164	1.643389	0.556795	-0.000067
1230	1.2229e+02	-8.9484	-15.327078	0.000152	1.522403	0.515804	-0.000062
1231	1.2239e+02	-8.9645	-15.395104	0.000168	1.683717	0.570459	-0.000068
1232	1.2248e+02	-8.9917	-15.459057	0.000158	1.582896	0.536300	-0.000064
1233	1.2258e+02	-9.0623	-15.523010	0.000158	1.582896	0.536300	-0.000064
1234	1.2268e+02	-9.0816	-15.586148	0.000156	1.562732	0.529468	-0.000063
1235	1.2278e+02	-9.1153	-15.652952	0.000165	1.653471	0.560211	-0.000067
1236	1.2288e+02	-9.1842	-15.715683	0.000155	1.552649	0.526052	-0.000063
1237	1.2298e+02	-9.1955	-15.786561	0.000175	1.754292	0.594370	-0.000071
1238	1.2308e+02	-9.2564	-15.844811	0.000144	1.441746	0.488477	-0.000059
1239	1.2318e+02	-9.2933	-15.910393	0.000162	1.623224	0.549963	-0.000066
1240	1.2328e+02	-9.3158	-15.971494	0.000151	1.512321	0.512388	-0.000061
1241	1.2338e+02	-9.3543	-16.039113	0.000167	1.673635	0.567043	-0.000068
1242	1.2348e+02	-9.3928	-16.107139	0.000168	1.683717	0.570459	-0.000068
1243	1.2358e+02	-9.4794	-16.169055	0.000153	1.532485	0.519220	-0.000062
1244	1.2368e+02	-9.4698	-16.231786	-0.000155	-1.552649	-0.526052	-0.000063
1245	1.2378e+02	-9.5147	-16.298998	0.000166	1.663553	0.563627	-0.000068
1246	1.2388e+02	-9.5725	-16.358877	0.000148	1.482074	0.502140	-0.000060
1247	1.2398e+02	-9.6045	-16.429347	0.000174	1.744210	0.590954	-0.000071
1248	1.2408e+02	-9.6896	-16.490856	0.000152	1.522403	0.515804	-0.000062
1249	1.2418e+02	-9.7136	-16.556845	0.000163	1.633307	0.553379	-0.000066
1250	1.2428e+02	-9.7265	-16.619169	0.000154	1.542567	0.522636	-0.000063
1251	1.2438e+02	-9.7778	-16.692083	0.000180	1.804703	0.611450	-0.000073
1252	1.2447e+02	-9.8083	-16.753999	0.000153	1.532485	0.519220	-0.000062
1253	1.2457e+02	-9.8372	-16.817545	0.000157	1.572814	0.532884	-0.000064
1254	1.2467e+02	-9.9142	-16.882312	0.000160	1.603060	0.543131	-0.000065
1255	1.2477e+02	-9.9270	-16.947894	0.000162	1.623224	0.549963	-0.000066
1256	1.2487e+02	-9.9815	-17.010218	0.000154	1.542567	0.522636	-0.000063
1257	1.2497e+02	-10.0136	-17.077429	0.000166	1.663553	0.563627	-0.000068
1258	1.2507e+02	-10.0698	-17.143419	0.000163	1.633307	0.553379	-0.000066
1259	1.2517e+02	-10.1131	-17.204113	0.000150	1.502239	0.508972	-0.000061
1260	1.2527e+02	-10.1355	-17.275398	0.000176	1.764374	0.597786	-0.000072
1261	1.2537e+02	-10.1724	-17.333240	0.000143	1.431664	0.485061	-0.000058
1262	1.2547e+02	-10.1853	-17.400452	0.000166	1.663553	0.563627	-0.000068
1263	1.2557e+02	-10.2238	-17.468071	0.000167	1.673635	0.567043	-0.000068
1264	1.2567e+02	-10.3008	-17.536504	0.000169	1.693799	0.573875	-0.000069
1265	1.2577e+02	-10.3473	-17.597606	0.000151	1.512321	0.512388	-0.000061
1266	1.2587e+02	-10.3633	-17.662373	0.000160	1.603060	0.543131	-0.000065
1267	1.2597e+02	-10.4083	-17.723474	0.000151	1.512321	0.512388	-0.000061
1268	1.2607e+02	-10.4468	-17.793130	0.000172	1.724046	0.584123	-0.000070
1269	1.2617e+02	-10.4532	-17.853417	0.000149	1.492157	0.505556	-0.000061
1270	1.2627e+02	-10.5398	-17.919406	0.000163	1.633307	0.553379	-0.000066
1271	1.2636e+02	-10.5462	-17.984988	0.000162	1.623224	0.549963	-0.000066
1272	1.2646e+02	-10.6200	-18.049756	0.000160	1.603060	0.543131	-0.000065
1273	1.2656e+02	-10.6617	-18.112079	0.000154	1.542567	0.522636	-0.000063
1274	1.2666e+02	-10.6954	-18.177254	0.000161	1.613142	0.546547	-0.000066
1275	1.2676e+02	-10.7484	-18.237948	0.000150	1.502239	0.508972	-0.000061
1276	1.2686e+02	-10.7756	-18.310862	0.000180	1.804703	0.611450	-0.000073
1277	1.2696e+02	-10.8141	-18.369112	0.000144	1.441746	0.488477	-0.000059
1278	1.2706e+02	-10.8414	-18.438768	0.000172	1.724046	0.584123	-0.000070
1279	1.2716e+02	-10.9040	-18.506794	0.000168	1.683717	0.570459	-0.000068
1280	1.2726e+02	-10.9280	-18.571562	0.000160	1.603060	0.543131	-0.000065
1281	1.2736e+02	-10.9842	-18.643254	0.000177	1.774456	0.601202	-0.000072
1282	1.2746e+02	-11.0050	-18.705985	0.000155	1.552649	0.526052	-0.000063
1283	1.2756e+02	-11.0724	-18.770752	0.000160	1.603060	0.543131	-0.000065
1284	1.2766e+02	-11.0724	-18.833076	0.000154	1.542567	0.522636	-0.000063
1285	1.2776e+02	-11.1205	-18.903953	0.000175	1.754292	0.594370	-0.000071
1286	1.2786e+02	-11.1959	-18.965462	0.000152	1.522403	0.515804	-0.000062
1287	1.2796e+02	-11.2088	-19.030229	0.000160	1.603060	0.543131	-0.000065
1288	1.2806e+02	-11.2473	-19.094589	0.000159	1.592978	0.539716	-0.000065
1289	1.2816e+02	-11.2842	-19.160986	0.000164	1.643389	0.556795	-0.000067
1290	1.2826e+02	-11.3403	-19.224532	0.000157	1.572814	0.532884	-0.000064
1291	1.2835e+02	-11.3660	-19.292151	0.000167	1.673635	0.567043	-0.000068
1292	1.2845e+02	-11.3965	-19.358547	0.000164	1.643389	0.556795	-0.000067
1293	1.2855e+02	-11.4366	-19.427388	0.000170	1.703881	0.577291	-0.000069
1294	1.2865e+02	-11.4991	-19.488490	0.000151	1.512321	0.512388	-0.000061
1295	1.2875e+02	-11.5232	-19.558960	0.000174	1.744210	0.590954	-0.000071
1296	1.2885e+02	-11.5794	-19.625764	0.000165	1.653471	0.560211	-0.000067
1297	1.2895e+02	-11.5938	-19.690532	0.000160	1.603060	0.543131	-0.000065
1298	1.2905e+02	-11.6451	-19.752448	0.000153	1.532485	0.519220	-0.000062
1299	1.2915e+02	-11.6660	-19.818845	0.000164	1.643389	0.556795	-0.000067
1300	1.2925e+02	-11.7719	-19.881983	0.000156	1.562732	0.529468	-0.000063
1301	1.2935e+02	-11.7654	-19.943491	-0.000152	-1.522403	-0.515804	-0.000062
1302	1.2945e+02	-11.7927	-20.005407	0.000153	1.532485	0.519220	-0.000062
1303	1.2955e+02	-11.8521	-20.070990	0.000162	1.623224	0.549963	-0.000066
1304	1.2965e+02	-11.8906	-20.138201	0.000166	1.663553	0.563627	-0.000068
1305	1.2975e+02	-11.9339	-20.199302	0.000151	1.512321	0.512388	-0.000061
1306	1.2985e+02	-11.9580	-20.265292	0.000163	1.633307	0.553379	-0.000066
1307	1.2995e+02	-12.0013	-20.330467	0.000161	1.613142	0.546547	-0.000066
1308	1.3005e+02	-12.0606	-20.394420	0.000158	1.582896	0.536300	-0.000064
1309	1.3015e+02	-12.0879	-20.457965	0.000157	1.572814	0.532884	-0.000064
1310	1.3025e+02	-12.1328	-20.519066	0.000151	1.512321	0.512388	-0.000061
1311	1.3034e+02	-12.1841	-20.573650	0.000135	1.351007	0.457733	-0.000055
1312	1.3044e+02	-12.1986	-20.640862	0.000166	1.663553	0.563627	-0.000068
1313	1.3054e+02	-12.2756	-20.701148	0.000149	1.492157	0.505556	-0.000061
1314	1.3064e+02	-12.2948	-20.763879	0.000155	1.552649	0.526052	-0.000063
1315	1.3074e+02	-12.3029	-20.825388	0.000152	1.522403	0.515804	-0.000062
1316	1.3084e+02	-12.3606	-20.889341	0.000158	1.582896	0.536300	-0.000064
1317	1.3094e+02	-12.4328	-20.948813	0.000147	1.471992	0.498724	-0.000060
1318	1.3104e+02	-12.4440	-21.009099	0.000149	1.492157	0.505556	-0.000061
1319	1.3114e+02	-12.4841	-21.066942	0.000143	1.431664	0.485061	-0.000058
1320	1.3124e+02	-12.5323	-21.127229	0.000149	1.492157	0.505556	-0.000061
1321	1.3134e+02	-12.5595	-21.184257	0.000141	1.411499	0.478229	-0.000057
1322	1.3144e+02	-12.6077	-21.246580	0.000154	1.542567	0.522636	-0.000063
1323	1.3154e+02	-12.6478	-21.303608	0.000141	1.411499	0.478229	-0.000057
1324	1.3164e+02	-12.7039	-21.365524	0.000153	1.532485	0.519220	-0.000062
1325	1.3174e+02	-12.7392	-21.426626	0.000151	1.512321	0.512388	-0.000061
1326	1.3184e+02	-12.8034	-21.483246	0.000140	1.401417	0.474813	-0.000057
1327	1.3194e+02	-12.8098	-21.544348	0.000151	1.512321	0.512388	-0.000061
1328	1.3204e+02	-12.8467	-21.602190	0.000143	1.431664	0.485061	-0.000058
1329	1.3214e+02	-12.8852	-21.658403	0.000139	1.391335	0.471397	-0.000056
1330	1.3224e+02	-12.9333	-21.718283	0.000148	1.482074	0.502140	-0.000060
1331	1.3234e+02	-12.9558	-21.774089	0.000138	1.381253	0.467981	-0.000056
1332	1.3243e+02	-12.9911	-21.836005	0.000153	1.532485	0.519220	-0.000062
1333	1.3253e+02	-13.0248	-21.891403	0.000137	1.371171	0.464565	-0.000056
1334	1.3263e+02	-13.0825	-21.946395	0.000136	1.361089	0.461149	-0.000055
1335	1.3273e+02	-13.1322	-22.006274	0.000148	1.482074	0.502140	-0.000060
1336	1.3283e+02	-13.1708	-22.067375	0.000151	1.512321	0.512388	-0.000061
1337	1.3293e+02	-13.2012	-22.123181	0.000138	1.381253	0.467981	-0.000056
1338	1.3303e+02	-13.2365	-22.178173	0.000136	1.361089	0.461149	-0.000055
1339	1.3313e+02	-13.2670	-22.240089	0.000153	1.532485	0.519220	-0.000062
1340	1.3323e+02	-13.3103	-22.297117	0.000141	1.411499	0.478229	-0.000057
1341	1.3333e+02	-13.3729	-22.357403	0.000149	1.492157	0.505556	-0.000061
1342	1.3343e+02	-13.3921	-22.416061	0.000145	1.451828	0.491893	-0.000059
1343	1.3353e+02	-13.4691	-22.470645	0.000135	1.351007	0.457733	-0.000055
1344	1.3363e+02	-13.4756	-22.522377	0.000128	1.280432	0.433822	-0.000052
1345	1.3373e+02	-13.5108	-22.584293	0.000153	1.532485	0.519220	-0.000062
1346	1.3383e+02	-13.5558	-22.638877	0.000135	1.351007	0.457733	-0.000055
1347	1.3393e+02	-13.5590	-22.695498	0.000140	1.401417	0.474813	-0.000057
1348	1.3403e+02	-13.6488	-22.751711	0.000139	1.391335	0.471397	-0.000056
1349	1.3413e+02	-13.6633	-22.808331	0.000140	1.401417	0.474813	-0.000057
1350	1.3423e+02	-13.7194	-22.861286	0.000131	1.310678	0.444070	-0.000053
1351	1.3432e+02	-13.7723	-22.921980	0.000150	1.502239	0.508972	-0.000061
1352	1.3442e+02	-13.7932	-22.974935	0.000131	1.310678	0.444070	-0.000053
1353	1.3452e+02	-13.8445	-23.036851	0.000153	1.532485	0.519220	-0.000062
1354	1.3462e+02	-13.8798	-23.090213	0.000132	1.320760	0.447486	-0.000054
1355	1.3472e+02	-13.9151	-23.147648	0.000142	1.421582	0.481645	-0.000058
1356	1.3482e+02	-13.9600	-23.209157	0.000152	1.522403	0.515804	-0.000062
1357	1.3492e+02	-14.0066	-23.263333	0.000134	1.340924	0.454318	-0.000054
1358	1.3502e+02	-14.0531	-23.317102	0.000133	1.330842	0.450902	-0.000054
1359	1.3512e+02	-14.0563	-23.372501	0.000137	1.371171	0.464565	-0.000056
1360	1.3522e+02	-14.1477	-23.429122	0.000140	1.401417	0.474813	-0.000057
1361	1.3532e+02	-14.1461	-23.486557	-0.000142	-1.421582	-0.481645	-0.000058
1362	1.3542e+02	-14.1766	-23.534623	0.000119	1.189692	0.403079	-0.000048
1363	1.3552e+02	-14.2376	-23.585948	0.000127	1.270350	0.430406	-0.000052
1364	1.3562e+02	-14.2953	-23.642976	0.000141	1.411499	0.478229	-0.000057
1365	1.3572e+02	-14.3290	-23.694302	0.000127	1.270350	0.430406	-0.000052
1366	1.3582e+02	-14.3515	-23.752959	0.000145	1.451828	0.491893	-0.000059
1367	1.3592e+02	-14.3723	-23.800211	0.000117	1.169528	0.396247	-0.000047
1368	1.3602e+02	-14.4301	-23.857646	0.000142	1.421582	0.481645	-0.000058
1369	1.3612e+02	-14.4718	-23.915489	0.000143	1.431664	0.485061	-0.000058
1370	1.3622e+02	-14.5167	-23.972516	0.000141	1.411499	0.478229	-0.000057
1371	1.3631e+02	-14.5568	-24.021805	0.000122	1.219939	0.413326	-0.000050
1372	1.3641e+02	-14.6049	-24.078018	0.000139	1.391335	0.471397	-0.000056
1373	1.3651e+02	-14.6065	-24.134231	0.000139	1.391335	0.471397	-0.000056
1374	1.3661e+02	-14.6547	-24.185964	0.000128	1.280432	0.433822	-0.000052
1375	1.3671e+02	-14.7333	-24.236474	0.000125	1.250185	0.423574	-0.000051
1376	1.3681e+02	-14.7734	-24.288614	0.000129	1.290514	0.437238	-0.000052
1377	1.3691e+02	-14.8103	-24.342791	0.000134	1.340924	0.454318	-0.000054
1378	1.3701e+02	-14.8456	-24.396153	0.000132	1.320760	0.447486	-0.000054
1379	1.3711e+02	-14.8440	-24.444219	-0.000119	-1.189692	-0.403079	-0.000048
1380	1.3721e+02	-14.9354	-24.499618	0.000137	1.371171	0.464565	-0.000056
1381	1.3731e+02	-14.9707	-24.555016	0.000137	1.371171	0.464565	-0.000056
1382	1.3741e+02	-14.9900	-24.606749	0.000128	1.280432	0.433822	-0.000052
1383	1.3751e+02	-15.0236	-24.659296	0.000130	1.300596	0.440654	-0.000053
1384	1.3761e+02	-15.0990	-24.715509	0.000139	1.391335	0.471397	-0.000056
1385	1.3771e+02	-15.1119	-24.770093	0.000135	1.351007	0.457733	-0.000055
1386	1.3781e+02	-15.1616	-24.828751	0.000145	1.451828	0.491893	-0.000059
1387	1.3791e+02	-15.2001	-24.879668	0.000126	1.260267	0.426990	-0.000051
1388	1.3801e+02	-15.2161	-24.933845	0.000134	1.340924	0.454318	-0.000054
1389	1.3811e+02	-15.2643	-24.987207	0.000132	1.320760	0.447486	-0.000054
1390	1.3821e+02	-15.2932	-25.038939	0.000128	1.280432	0.433822	-0.000052
1391	1.3831e+02	-15.3686	-25.095153	0.000139	1.391335	0.471397	-0.000056
1392	1.3840e+02	-15.3814	-25.147292	0.000129	1.290514	0.437238	-0.000052
1393	1.3850e+02	-15.4295	-25.196988	0.000123	1.230021	0.416742	-0.000050
1394	1.3860e+02	-15.4616	-25.250350	0.000132	1.320760	0.447486	-0.000054
1395	1.3870e+02	-15.4825	-25.310229	0.000148	1.482074	0.502140	-0.000060
1396	1.3880e+02	-15.5546	-25.364813	0.000135	1.351007	0.457733	-0.000055
1397	1.3890e+02	-15.6012	-25.420212	0.000137	1.371171	0.464565	-0.000056
1398	1.3900e+02	-15.6605	-25.475611	0.000137	1.371171	0.464565	-0.000056
1399	1.3910e+02	-15.7103	-25.531009	0.000137	1.371171	0.464565	-0.000056
1400	1.3920e+02	-15.7279	-25.586408	0.000137	1.371171	0.464565	-0.000056
1401	1.3930e+02	-15.7520	-25.639770	0.000132	1.320760	0.447486	-0.000054
1402	1.3940e+02	-15.7985	-25.700871	0.000151	1.512321	0.512388	-0.000061
1403	1.3950e+02	-15.8290	-25.759121	0.000144	1.441746	0.488477	-0.000059
1404	1.3960e+02	-15.8883	-25.811668	0.000130	1.300596	0.440654	-0.000053
1405	1.3970e+02	-15.9124	-25.870733	0.000146	1.461910	0.495309	-0.000059
1406	1.3980e+02	-15.9942	-25.926131	0.000137	1.371171	0.464565	-0.000056
1407	1.3990e+02	-15.9974	-25.981123	0.000136	1.361089	0.461149	-0.000055
1408	1.4000e+02	-16.0487	-26.041817	0.000150	1.502239	0.508972	-0.000061
1409	1.4010e+02	-16.0921	-26.097215	0.000137	1.371171	0.464565	-0.000056
1410	1.4020e+02	-16.1049	-26.153429	0.000139	1.391335	0.471397	-0.000056
1411	1.4029e+02	-16.1594	-26.209642	0.000139	1.391335	0.471397	-0.000056
1412	1.4039e+02	-16.2044	-26.267077	0.000142	1.421582	0.481645	-0.000058
1413	1.4049e+02	-16.2220	-26.321661	0.000135	1.351007	0.457733	-0.000055
1414	1.4059e+02	-16.2637	-26.383170	0.000152	1.522403	0.515804	-0.000062
1415	1.4069e+02	-16.3022	-26.435310	0.000129	1.290514	0.437238	-0.000052
1416	1.4079e+02	-16.3327	-26.496411	0.000151	1.512321	0.512388	-0.000061
1417	1.4089e+02	-16.3872	-26.553846	0.000142	1.421582	0.481645	-0.000058
1418	1.4099e+02	-16.4161	-26.607208	0.000132	1.320760	0.447486	-0.000054
1419	1.4109e+02	-16.4963	-26.664643	0.000142	1.421582	0.481645	-0.000058
1420	1.4119e+02	-16.5316	-26.724523	0.000148	1.482074	0.502140	-0.000060
1421	1.4129e+02	-16.5493	-26.781551	0.000141	1.411499	0.478229	-0.000057
1422	1.4139e+02	-16.5621	-26.841023	0.000147	1.471992	0.498724	-0.000060
1423	1.4149e+02	-16.6086	-26.893163	0.000129	1.290514	0.437238	-0.000052
1424	1.4159e+02	-16.6519	-26.947746	0.000135	1.351007	0.457733	-0.000055
1425	1.4169e+02	-16.7386	-27.010885	0.000156	1.562732	0.529468	-0.000063
1426	1.4179e+02	-16.7498	-27.068320	0.000142	1.421582	0.481645	-0.000058
1427	1.4189e+02	-16.8156	-27.121274	0.000131	1.310678	0.444070	-0.000053
1428	1.4199e+02	-16.8059	-27.179932	-0.000145	-1.451828	-0.491893	-0.000059
1429	1.4209e+02	-16.8444	-27.235738	0.000138	1.381253	0.467981	-0.000056
1430	1.4219e+02	-16.9022	-27.295617	0.000148	1.482074	0.502140	-0.000060
1431	1.4228e+02	-16.9503	-27.355904	0.000149	1.492157	0.505556	-0.000061
1432	1.4238e+02	-17.0113	-27.412524	0.000140	1.401417	0.474813	-0.000057
1433	1.4248e+02	-17.0145	-27.468330	0.000138	1.381253	0.467981	-0.000056
1434	1.4258e+02	-17.0787	-27.530654	0.000154	1.542567	0.522636	-0.000063
1435	1.4268e+02	-17.1075	-27.589311	0.000145	1.451828	0.491893	-0.000059
1436	1.4278e+02	-17.1476	-27.649190	0.000148	1.482074	0.502140	-0.000060
1437	1.4288e+02	-17.2054	-27.704589	0.000137	1.371171	0.464565	-0.000056
1438	1.4298e+02	-17.1942	-27.756729	-0.000129	-1.290514	-0.437238	-0.000052
1439	1.4308e+02	-17.2840	-27.817015	0.000149	1.492157	0.505556	-0.000061
1440	1.4318e+02	-17.3065	-27.872007	0.000136	1.361089	0.461149	-0.000055
1441	1.4328e+02	-17.3466	-27.924961	0.000131	1.310678	0.444070	-0.000053
1442	1.4338e+02	-17.4059	-27.985248	0.000149	1.492157	0.505556	-0.000061
1443	1.4348e+02	-17.4252	-28.045535	0.000149	1.492157	0.505556	-0.000061
1444	1.4358e+02	-17.4669	-28.107451	0.000153	1.532485	0.519220	-0.000062
1445	1.4368e+02	-17.5198	-28.160405	0.000131	1.310678	0.444070	-0.000053
1446	1.4378e+02	-17.5728	-28.224358	0.000158	1.582896	0.536300	-0.000064
1447	1.4388e+02	-17.5728	-28.290348	0.000163	1.633307	0.553379	-0.000066
1448	1.4398e+02	-17.6225	-28.342487	0.000129	1.290514	0.437238	-0.000052
1449	1.4408e+02	-17.6466	-28.401552	0.000146	1.461910	0.495309	-0.000059
1450	1.4418e+02	-17.6883	-28.461431	0.000148	1.482074	0.502140	-0.000060
1451	1.4428e+02	-17.7524	-28.522125	0.000150	1.502239	0.508972	-0.000061
1452	1.4437e+02	-17.7540	-28.580375	0.000144	1.441746	0.488477	-0.000059
1453	1.4447e+02	-17.8278	-28.639847	0.000147	1.471992	0.498724	-0.000060
1454	1.4457e+02	-17.8615	-28.694839	0.000136	1.361089	0.461149	-0.000055
1455	1.4467e+02	-17.8952	-28.752681	0.000143	1.431664	0.485061	-0.000058
1456	1.4477e+02	-17.9498	-28.815412	0.000155	1.552649	0.526052	-0.000063
1457	1.4487e+02	-18.0027	-28.879365	0.000158	1.582896	0.536300	-0.000064
1458	1.4497e+02	-18.0187	-28.934356	0.000136	1.361089	0.461149	-0.000055
1459	1.4507e+02	-18.0588	-28.995865	0.000152	1.522403	0.515804	-0.000062
1460	1.4517e+02	-18.1070	-29.059410	0.000157	1.572814	0.532884	-0.000064
1461	1.4527e+02	-18.1439	-29.114809	0.000137	1.371171	0.464565	-0.000056
1462	1.4537e+02	-18.1984	-29.176318	0.000152	1.522403	0.515804	-0.000062
1463	1.4547e+02	-18.2241	-29.233753	0.000142	1.421582	0.481645	-0.000058
1464	1.4557e+02	-18.2658	-29.294447	0.000150	1.502239	0.508972	-0.000061
1465	1.4567e+02	-18.2802	-29.352290	0.000143	1.431664	0.485061	-0.000058
1466	1.4577e+02	-18.3348	-29.417464	0.000161	1.613142	0.546547	-0.000066
1467	1.4587e+02	-18.3909	-29.473678	0.000139	1.391335	0.471397	-0.000056
1468	1.4597e+02	-18.4230	-29.531113	0.000142	1.421582	0.481645	-0.000058
1469	1.4607e+02	-18.4679	-29.590178	0.000146	1.461910	0.495309	-0.000059
1470	1.4617e+02	-18.5064	-29.649650	0.000147	1.471992	0.498724	-0.000060
1471	1.4626e+02	-18.5353	-29.701789	0.000129	1.290514	0.437238	-0.000052
1472	1.4636e+02	-18.5850	-29.764928	0.000156	1.562732	0.529468	-0.000063
1473	1.4646e+02	-18.6139	-29.821141	0.000139	1.391335	0.471397	-0.000056
1474	1.4656e+02	-18.6749	-29.877354	0.000139	1.391335	0.471397	-0.000056
1475	1.4666e+02	-18.7278	-29.938863	0.000152	1.522403	0.515804	-0.000062
1476	1.4676e+02	-18.7583	-29.999964	0.000151	1.512321	0.512388	-0.000061
1477	1.4686e+02	-18.7936	-30.056992	0.000141	1.411499	0.478229	-0.000057
1478	1.4696e+02	-18.8048	-30.118908	0.000153	1.532485	0.519220	-0.000062
1479	1.4706e+02	-18.8417	-30.173085	0.000134	1.340924	0.454318	-0.000054
1480	1.4716e+02	-18.8738	-30.233372	0.000149	1.492157	0.505556	-0.000061
1481	1.4726e+02	-18.9107	-30.285919	0.000130	1.300596	0.440654	-0.000053
1482	1.4736e+02	-18.9668	-30.345391	0.000147	1.471992	0.498724	-0.000060
1483	1.4746e+02	-18.9941	-30.398753	0.000132	1.320760	0.447486	-0.000054
1484	1.4756e+02	-19.0166	-30.461483	0.000155	1.552649	0.526052	-0.000063
1485	1.4766e+02	-19.0840	-30.512401	0.000126	1.260267	0.426990	-0.000051
1486	1.4776e+02	-19.1144	-30.572281	0.000148	1.482074	0.502140	-0.000060
1487	1.4786e+02	-19.1818	-30.626864	0.000135	1.351007	0.457733	-0.000055
1488	1.4796e+02	-19.2123	-30.681448	0.000135	1.351007	0.457733	-0.000055
1489	1.4806e+02	-19.2396	-30.737254	0.000138	1.381253	0.467981	-0.000056
1490	1.4816e+02	-19.3005	-30.794282	0.000141	1.411499	0.478229	-0.000057
1491	1.4825e+02	-19.3182	-30.847644	0.000132	1.320760	0.447486	-0.000054
1492	1.4835e+02	-19.3743	-30.905894	0.000144	1.441746	0.488477	-0.000059
1493	1.4845e+02	-19.4224	-30.966588	0.000150	1.502239	0.508972	-0.000061
1494	1.4855e+02	-19.4561	-31.014247	0.000118	1.179610	0.399663	-0.000048
1495	1.4865e+02	-19.4978	-31.072090	0.000143	1.431664	0.485061	-0.000058
1496	1.4875e+02	-19.5219	-31.127081	0.000136	1.361089	0.461149	-0.000055
1497	1.4885e+02	-19.5765	-31.182887	0.000138	1.381253	0.467981	-0.000056
1498	1.4895e+02	-19.6037	-31.238286	0.000137	1.371171	0.464565	-0.000056
1499	1.4905e+02	-19.6615	-31.294092	0.000138	1.381253	0.467981	-0.000056
1500	1.4915e+02	-19.7064	-31.349897	0.000138	1.381253	0.467981	-0.000056
1501	1.4925e+02	-19.7208	-31.402037	0.000129	1.290514	0.437238	-0.000052
1502	1.4935e+02	-19.7786	-31.459473	0.000142	1.421582	0.481645	-0.000058
1503	1.4945e+02	-19.8299	-31.518537	0.000146	1.461910	0.495309	-0.000059
1504	1.4955e+02	-19.8331	-31.571899	0.000132	1.320760	0.447486	-0.000054
1505	1.4965e+02	-19.8700	-31.629742	0.000143	1.431664	0.485061	-0.000058
1506	1.4975e+02	-19.9166	-31.680660	0.000126	1.260267	0.426990	-0.000051
1507	1.4985e+02	-19.9839	-31.741354	0.000150	1.502239	0.508972	-0.000061
1508	1.4995e+02	-19.9166	-31.707952	0.000083	0.826735	0.280106	0.000034
1509	1.5005e+02	-19.8845	-31.675364	0.000081	0.806571	0.273274	0.000033
1510	1.5015e+02	-19.8797	-31.633815	0.000103	1.028378	0.348424	0.000042
1511	1.5025e+02	-19.8299	-31.596340	0.000093	0.927557	0.314265	0.000038
1512	1.5034e+02	-19.7738	-31.561308	0.000087	0.867064	0.293769	0.000035
1513	1.5044e+02	-19.7032	-31.520167	0.000102	1.018296	0.345008	0.000041
1514	1.5054e+02	-19.6855	-31.479840	0.000100	0.998132	0.338176	0.000041
1515	1.5064e+02	-19.6551	-31.442772	0.000092	0.917475	0.310849	0.000037
1516	1.5074e+02	-19.6150	-31.404481	0.000095	0.947721	0.321097	0.000038
1517	1.5084e+02	-19.6101	-31.359266	0.000112	1.119117	0.379167	0.000045
1518	1.5094e+02	-19.5331	-31.321383	0.000094	0.937639	0.317681	0.000038
1519	1.5104e+02	-19.4754	-31.282686	0.000096	0.957803	0.324513	0.000039
1520	1.5114e+02	-19.4497	-31.238693	0.000109	1.088871	0.368919	0.000044
1521	1.5124e+02	-19.4128	-31.203254	0.000088	0.877146	0.297185	0.000036
1522	1.5134e+02	-19.3952	-31.158854	0.000110	1.098953	0.372335	0.000045
1523	1.5144e+02	-19.3519	-31.117712	0.000102	1.018296	0.345008	0.000041
1524	1.5154e+02	-19.2973	-31.080644	0.000092	0.917475	0.310849	0.000037
1525	1.5164e+02	-19.2765	-31.039502	0.000102	1.018296	0.345008	0.000041
1526	1.5174e+02	-19.2075	-30.997546	0.000104	1.038460	0.351840	0.000042
1527	1.5184e+02	-19.1690	-30.954368	0.000107	1.068707	0.362088	0.000043
1528	1.5194e+02	-19.1176	-30.904672	0.000123	1.230021	0.416742	0.000050
1529	1.5204e+02	-19.0968	-30.859050	0.000113	1.129200	0.382583	0.000046
1530	1.5214e+02	-19.0487	-30.815057	0.000109	1.088871	0.368919	0.000044
1531	1.5224e+02	-19.0262	-30.766583	0.000120	1.199775	0.406495	0.000049
1532	1.5233e+02	-18.9813	-30.725441	0.000102	1.018296	0.345008	0.000041
1533	1.5243e+02	-18.9380	-30.676153	0.000122	1.219939	0.413326	0.000050
1534	1.5253e+02	-18.8818	-30.633789	0.000105	1.048542	0.355256	0.000043
1535	1.5263e+02	-18.8850	-30.588982	-0.000111	-1.109035	-0.375751	0.000045
1536	1.5273e+02	-18.8048	-30.543359	0.000113	1.129200	0.382583	0.000046
1537	1.5283e+02	-18.7679	-30.496922	0.000115	1.149364	0.389415	0.000047
1538	1.5293e+02	-18.7326	-30.452522	0.000110	1.098953	0.372335	0.000045
1539	1.5303e+02	-18.7166	-30.404863	0.000118	1.179610	0.399663	0.000048
1540	1.5313e+02	-18.6460	-30.356389	0.000120	1.199775	0.406495	0.000049
1541	1.5323e+02	-18.6075	-30.311581	0.000111	1.109035	0.375751	0.000045
1542	1.5333e+02	-18.5738	-30.265552	0.000114	1.139282	0.385999	0.000046
1543	1.5343e+02	-18.5225	-30.217078	0.000120	1.199775	0.406495	0.000049
1544	1.5353e+02	-18.5145	-30.166567	0.000125	1.250185	0.423574	0.000051
1545	1.5363e+02	-18.4455	-30.118501	0.000119	1.189692	0.403079	0.000048
1546	1.5373e+02	-18.4455	-30.065139	-0.000132	-1.320760	-0.447486	0.000054
1547	1.5383e+02	-18.3877	-30.025219	0.000099	0.988050	0.334760	0.000040
1548	1.5393e+02	-18.3107	-29.976338	0.000121	1.209857	0.409911	0.000049
1549	1.5403e+02	-18.3091	-29.927050	0.000122	1.219939	0.413326	0.000050
1550	1.5413e+02	-18.2337	-29.884279	0.000106	1.058625	0.358672	0.000043
1551	1.5422e+02	-18.2321	-29.832954	0.000127	1.270350	0.430406	0.000052
1552	1.5432e+02	-18.2016	-29.789775	0.000107	1.068707	0.362088	0.000043
1553	1.5442e+02	-18.1439	-29.744968	0.000111	1.109035	0.375751	0.000045
1554	1.5452e+02	-18.0957	-29.693235	0.000128	1.280432	0.433822	0.000052
1555	1.5462e+02	-18.0540	-29.643947	0.000122	1.219939	0.413326	0.000050
1556	1.5472e+02	-18.0139	-29.599139	0.000111	1.109035	0.375751	0.000045
1557	1.5482e+02	-17.9690	-29.552295	0.000116	1.159446	0.392831	0.000047
1558	1.5492e+02	-17.9562	-29.501784	0.000125	1.250185	0.423574	0.000051
1559	1.5502e+02	-17.9048	-29.453311	0.000120	1.199775	0.406495	0.000049
1560	1.5512e+02	-17.8663	-29.402393	0.000126	1.260267	0.426990	0.000051
1561	1.5522e+02	-17.8006	-29.357992	0.000110	1.098953	0.372335	0.000045
1562	1.5532e+02	-17.7749	-29.310741	0.000117	1.169528	0.396247	0.000047
1563	1.5542e+02	-17.7380	-29.260638	0.000124	1.240103	0.420158	0.000050
1564	1.5552e+02	-17.7059	-29.208498	0.000129	1.290514	0.437238	0.000052
1565	1.5562e+02	-17.6786	-29.167763	0.000101	1.008214	0.341592	0.000041
1566	1.5572e+02	-17.6177	-29.122548	0.000112	1.119117	0.379167	0.000045
1567	1.5582e+02	-17.5808	-29.077333	0.000112	1.119117	0.379167	0.000045
1568	1.5592e+02	-17.5311	-29.030489	0.000116	1.159446	0.392831	0.000047
1569	1.5602e+02	-17.5134	-28.984867	0.000113	1.129200	0.382583	0.000046
1570	1.5612e+02	-17.4942	-28.937615	0.000117	1.169528	0.396247	0.000047
1571	1.5622e+02	-17.4364	-28.894844	0.000106	1.058625	0.358672	0.000043
1572	1.5631e+02	-17.3851	-28.847592	0.000117	1.169528	0.396247	0.000047
1573	1.5641e+02	-17.3578	-28.799933	0.000118	1.179610	0.399663	0.000048
1574	1.5651e+02	-17.3177	-28.755533	0.000110	1.098953	0.372335	0.000045
1575	1.5661e+02	-17.2423	-28.708688	0.000116	1.159446	0.392831	0.000047
1576	1.5671e+02	-17.2279	-28.662251	0.000115	1.149364	0.389415	0.000047
1577	1.5681e+02	-17.1861	-28.616629	0.000113	1.129200	0.382583	0.000046
1578	1.5691e+02	-17.1460	-28.571007	0.000113	1.129200	0.382583	0.000046
1579	1.5701e+02	-17.1172	-28.524162	0.000116	1.159446	0.392831	0.000047
1580	1.5711e+02	-17.0241	-28.481391	0.000106	1.058625	0.358672	0.000043
1581	1.5721e+02	-17.0321	-28.434139	-0.000117	-1.169528	-0.396247	0.000047
1582	1.5731e+02	-16.9696	-28.389739	0.000110	1.098953	0.372335	0.000045
1583	1.5741e+02	-16.9134	-28.343709	0.000114	1.139282	0.385999	0.000046
1584	1.5751e+02	-16.9038	-28.297680	0.000114	1.139282	0.385999	0.000046
1585	1.5761e+02	-16.8653	-28.248799	0.000121	1.209857	0.409911	0.000049
1586	1.5771e+02	-16.8380	-28.202362	0.000115	1.149364	0.389415	0.000047
1587	1.5781e+02	-16.7739	-28.159183	0.000107	1.068707	0.362088	0.000043
1588	1.5791e+02	-16.7530	-28.117227	0.000104	1.038460	0.351840	0.000042
1589	1.5801e+02	-16.7097	-28.068346	0.000121	1.209857	0.409911	0.000049
1590	1.5811e+02	-16.6680	-28.018243	0.000124	1.240103	0.420158	0.000050
1591	1.5821e+02	-16.6375	-27.972620	0.000113	1.129200	0.382583	0.000046
1592	1.5830e+02	-16.5862	-27.931479	0.000102	1.018296	0.345008	0.000041
1593	1.5840e+02	-16.5637	-27.884227	0.000117	1.169528	0.396247	0.000047
1594	1.5850e+02	-16.5204	-27.837790	0.000115	1.149364	0.389415	0.000047
1595	1.5860e+02	-16.4562	-27.792982	0.000111	1.109035	0.375751	0.000045
1596	1.5870e+02	-16.4129	-27.744509	0.000120	1.199775	0.406495	0.000049
1597	1.5880e+02	-16.4049	-27.697664	0.000116	1.159446	0.392831	0.000047
1598	1.5890e+02	-16.3584	-27.656523	0.000102	1.018296	0.345008	0.000041
1599	1.5900e+02	-16.2862	-27.606419	0.000124	1.240103	0.420158	0.000050
1600	1.5910e+02	-16.2798	-27.562834	0.000108	1.078789	0.365504	0.000044
1601	1.5920e+02	-16.2220	-27.517619	0.000112	1.119117	0.379167	0.000045
1602	1.5930e+02	-16.1787	-27.468330	0.000122	1.219939	0.413326	0.000050
1603	1.5940e+02	-16.1482	-27.424337	0.000109	1.088871	0.368919	0.000044
1604	1.5950e+02	-16.0953	-27.379937	0.000110	1.098953	0.372335	0.000045
1605	1.5960e+02	-16.0536	-27.330648	0.000122	1.219939	0.413326	0.000050
1606	1.5970e+02	-16.0231	-27.283804	0.000116	1.159446	0.392831	0.000047
1607	1.5980e+02	-16.0054	-27.236552	0.000117	1.169528	0.396247	0.000047
1608	1.5990e+02	-15.9461	-27.191745	0.000111	1.109035	0.375751	0.000045
1609	1.6000e+02	-15.8931	-27.146937	0.000111	1.109035	0.375751	0.000045
1610	1.6010e+02	-15.8530	-27.098871	0.000119	1.189692	0.403079	0.000048
1611	1.6019e+02	-15.8514	-27.050397	0.000120	1.199775	0.406495	0.000049
1612	1.6029e+02	-15.8049	-27.007219	0.000107	1.068707	0.362088	0.000043
1613	1.6039e+02	-15.7375	-26.964040	0.000107	1.068707	0.362088	0.000043
1614	1.6049e+02	-15.7070	-26.919640	0.000110	1.098953	0.372335	0.000045
1615	1.6059e+02	-15.6734	-26.877684	0.000104	1.038460	0.351840	0.000042
1616	1.6069e+02	-15.6429	-26.827173	0.000125	1.250185	0.423574	0.000051
1617	1.6079e+02	-15.5867	-26.781958	0.000112	1.119117	0.379167	0.000045
1618	1.6089e+02	-15.5562	-26.733484	0.000120	1.199775	0.406495	0.000049
1619	1.6099e+02	-15.5242	-26.691935	0.000103	1.028378	0.348424	0.000042
1620	1.6109e+02	-15.4792	-26.644276	0.000118	1.179610	0.399663	0.000048
1621	1.6119e+02	-15.4536	-26.599876	0.000110	1.098953	0.372335	0.000045
1622	1.6129e+02	-15.3942	-26.557512	0.000105	1.048542	0.355256	0.000043
1623	1.6139e+02	-15.3557	-26.509853	0.000118	1.179610	0.399663	0.000048
1624	1.6149e+02	-15.3124	-26.460565	0.000122	1.219939	0.413326	0.000050
1625	1.6159e+02	-15.2546	-26.421460	0.000097	0.967885	0.327928	0.000039
1626	1.6169e+02	-15.2161	-26.371357	0.000124	1.240103	0.420158	0.000050
1627	1.6179e+02	-15.1937	-26.325327	0.000114	1.139282	0.385999	0.000046
1628	1.6189e+02	-15.1456	-26.280927	0.000110	1.098953	0.372335	0.000045
1629	1.6199e+02	-15.1119	-26.240192	0.000101	1.008214	0.341592	0.000041
1630	1.6209e+02	-15.0942	-26.190089	0.000124	1.240103	0.420158	0.000050
1631	1.6219e+02	-15.0268	-26.146911	0.000107	1.068707	0.362088	0.000043
1632	1.6228e+02	-14.9996	-26.103325	0.000108	1.078789	0.365504	0.000044
1633	1.6238e+02	-14.9579	-26.051593	0.000128	1.280432	0.433822	0.000052
1634	1.6248e+02	-14.9306	-26.005971	0.000113	1.129200	0.382583	0.000046
1635	1.6258e+02	-14.8520	-25.961163	0.000111	1.109035	0.375751	0.000045
1636	1.6268e+02	-14.8279	-25.913911	0.000117	1.169528	0.396247	0.000047
1637	1.6278e+02	-14.7942	-25.862179	0.000128	1.280432	0.433822	0.000052
1638	1.6288e+02	-14.7333	-25.815742	0.000115	1.149364	0.389415	0.000047
1639	1.6298e+02	-14.6884	-25.772971	0.000106	1.058625	0.358672	0.000043
1640	1.6308e+02	-14.6659	-25.722460	0.000125	1.250185	0.423574	0.000051
1641	1.6318e+02	-14.6258	-25.675208	0.000117	1.169528	0.396247	0.000047
1642	1.6328e+02	-14.6114	-25.628364	0.000116	1.159446	0.392831	0.000047
1643	1.6338e+02	-14.5536	-25.581112	0.000117	1.169528	0.396247	0.000047
1644	1.6348e+02	-14.4991	-25.535083	0.000114	1.139282	0.385999	0.000046
1645	1.6358e+02	-14.4670	-25.485794	0.000122	1.219939	0.413326	0.000050
1646	1.6368e+02	-14.4606	-25.435284	0.000125	1.250185	0.423574	0.000051
1647	1.6378e+02	-14.3691	-25.386402	0.000121	1.209857	0.409911	0.000049
1648	1.6388e+02	-14.3306	-25.335892	0.000125	1.250185	0.423574	0.000051
1649	1.6398e+02	-14.3290	-25.284974	0.000126	1.260267	0.426990	0.000051
1650	1.6408e+02	-14.3049	-25.237315	0.000118	1.179610	0.399663	0.000048
1651	1.6418e+02	-14.2263	-25.185175	0.000129	1.290514	0.437238	0.000052
1652	1.6427e+02	-14.1846	-25.133850	0.000127	1.270350	0.430406	0.000052
1653	1.6437e+02	-14.1686	-25.082525	0.000127	1.270350	0.430406	0.000052
1654	1.6447e+02	-14.1317	-25.030792	0.000128	1.280432	0.433822	0.000052
1655	1.6457e+02	-14.0868	-24.981911	0.000121	1.209857	0.409911	0.000049
1656	1.6467e+02	-14.0675	-24.931808	0.000124	1.240103	0.420158	0.000050
1657	1.6477e+02	-14.0050	-24.876817	0.000136	1.361089	0.461149	0.000055
1658	1.6487e+02	-13.9568	-24.826714	0.000124	1.240103	0.420158	0.000050
1659	1.6497e+02	-13.9215	-24.776203	0.000125	1.250185	0.423574	0.000051
1660	1.6507e+02	-13.8991	-24.722841	0.000132	1.320760	0.447486	0.000054
1661	1.6517e+02	-13.8269	-24.673146	0.000123	1.230021	0.416742	0.000050
1662	1.6527e+02	-13.7354	-24.621821	0.000127	1.270350	0.430406	0.000052
1663	1.6537e+02	-13.7563	-24.568051	-0.000133	-1.330842	-0.450902	0.000054
1664	1.6547e+02	-13.7306	-24.515097	0.000131	1.310678	0.444070	0.000053
1665	1.6557e+02	-13.6889	-24.463364	0.000128	1.280432	0.433822	0.000052
1666	1.6567e+02	-13.6424	-24.407558	0.000138	1.381253	0.467981	0.000056
1667	1.6577e+02	-13.5959	-24.357455	0.000124	1.240103	0.420158	0.000050
1668	1.6587e+02	-13.5542	-24.301242	0.000139	1.391335	0.471397	0.000056
1669	1.6597e+02	-13.4948	-24.247473	0.000133	1.330842	0.450902	0.000054
1670	1.6607e+02	-13.4707	-24.193704	0.000133	1.330842	0.450902	0.000054
1671	1.6616e+02	-13.4659	-24.139934	0.000133	1.330842	0.450902	0.000054
1672	1.6626e+02	-13.3921	-24.091053	0.000121	1.209857	0.409911	0.000049
1673	1.6636e+02	-13.3568	-24.034025	0.000141	1.411499	0.478229	0.000057
1674	1.6646e+02	-13.2975	-23.981885	0.000129	1.290514	0.437238	0.000052
1675	1.6656e+02	-13.2542	-23.928524	0.000132	1.320760	0.447486	0.000054
1676	1.6666e+02	-13.2221	-23.877606	0.000126	1.260267	0.426990	0.000051
1677	1.6676e+02	-13.2157	-23.823022	0.000135	1.351007	0.457733	0.000055
1678	1.6686e+02	-13.1836	-23.767216	0.000138	1.381253	0.467981	0.000056
1679	1.6696e+02	-13.1098	-23.713447	0.000133	1.330842	0.450902	0.000054
1680	1.6706e+02	-13.0761	-23.658455	0.000136	1.361089	0.461149	0.000055
1681	1.6716e+02	-13.0376	-23.606723	0.000128	1.280432	0.433822	0.000052
1682	1.6726e+02	-12.9718	-23.545622	0.000151	1.512321	0.512388	0.000061
1683	1.6736e+02	-12.9381	-23.493889	0.000128	1.280432	0.433822	0.000052
1684	1.6746e+02	-12.9462	-23.440120	-0.000133	-1.330842	-0.450902	0.000054
1685	1.6756e+02	-12.8772	-23.385129	0.000136	1.361089	0.461149	0.000055
1686	1.6766e+02	-12.8483	-23.328508	0.000140	1.401417	0.474813	0.000057
1687	1.6776e+02	-12.7905	-23.273517	0.000136	1.361089	0.461149	0.000055
1688	1.6786e+02	-12.7745	-23.219340	0.000134	1.340924	0.454318	0.000054
1689	1.6796e+02	-12.7264	-23.164756	0.000135	1.351007	0.457733	0.000055
1690	1.6806e+02	-12.6991	-23.114653	0.000124	1.240103	0.420158	0.000050
1691	1.6816e+02	-12.6510	-23.060069	0.000135	1.351007	0.457733	0.000055
1692	1.6825e+02	-12.6125	-23.000190	0.000148	1.482074	0.502140	0.000060
1693	1.6835e+02	-12.5531	-22.944384	0.000138	1.381253	0.467981	0.000056
1694	1.6845e+02	-12.5098	-22.888985	0.000137	1.371171	0.464565	0.000056
1695	1.6855e+02	-12.4777	-22.826255	0.000155	1.552649	0.526052	0.000063
1696	1.6865e+02	-12.4312	-22.771671	0.000135	1.351007	0.457733	0.000055
1697	1.6875e+02	-12.3895	-22.716272	0.000137	1.371171	0.464565	0.000056
1698	1.6885e+02	-12.3526	-22.659244	0.000141	1.411499	0.478229	0.000057
1699	1.6895e+02	-12.3349	-22.600994	0.000144	1.441746	0.488477	0.000059
1700	1.6905e+02	-12.3061	-22.545188	0.000138	1.381253	0.467981	0.000056
1701	1.6915e+02	-12.2515	-22.485309	0.000148	1.482074	0.502140	0.000060
1702	1.6925e+02	-12.2082	-22.425429	0.000148	1.482074	0.502140	0.000060
1703	1.6935e+02	-12.1553	-22.371253	0.000134	1.340924	0.454318	0.000054
1704	1.6945e+02	-12.1120	-22.317484	0.000133	1.330842	0.450902	0.000054
1705	1.6955e+02	-12.0863	-22.260863	0.000140	1.401417	0.474813	0.000057
1706	1.6965e+02	-12.0334	-22.204650	0.000139	1.391335	0.471397	0.000056
1707	1.6975e+02	-12.0237	-22.141104	0.000157	1.572814	0.532884	0.000064
1708	1.6985e+02	-11.9724	-22.084891	0.000139	1.391335	0.471397	0.000056
1709	1.6995e+02	-11.9259	-22.025012	0.000148	1.482074	0.502140	0.000060
1710	1.7005e+02	-11.8922	-21.969206	0.000138	1.381253	0.467981	0.000056
1711	1.7015e+02	-11.8408	-21.910549	0.000145	1.451828	0.491893	0.000059
1712	1.7024e+02	-11.7911	-21.850669	0.000148	1.482074	0.502140	0.000060
1713	1.7034e+02	-11.7574	-21.789975	0.000150	1.502239	0.508972	0.000061
1714	1.7044e+02	-11.7462	-21.727244	0.000155	1.552649	0.526052	0.000063
1715	1.7054e+02	-11.6997	-21.675105	0.000129	1.290514	0.437238	0.000052
1716	1.7064e+02	-11.6146	-21.611966	0.000156	1.562732	0.529468	0.000063
1717	1.7074e+02	-11.6211	-21.556975	-0.000136	-1.361089	-0.461149	0.000055
1718	1.7084e+02	-11.5617	-21.495059	0.000153	1.532485	0.519220	0.000062
1719	1.7094e+02	-11.5328	-21.440475	0.000135	1.351007	0.457733	0.000055
1720	1.7104e+02	-11.5216	-21.382633	0.000143	1.431664	0.485061	0.000058
1721	1.7114e+02	-11.4237	-21.322346	0.000149	1.492157	0.505556	0.000061
1722	1.7124e+02	-11.3740	-21.266133	0.000139	1.391335	0.471397	0.000056
1723	1.7134e+02	-11.3724	-21.208290	0.000143	1.431664	0.485061	0.000058
1724	1.7144e+02	-11.3451	-21.150447	0.000143	1.431664	0.485061	0.000058
1725	1.7154e+02	-11.2858	-21.088124	0.000154	1.542567	0.522636	0.000063
1726	1.7164e+02	-11.2441	-21.029874	0.000144	1.441746	0.488477	0.000059
1727	1.7174e+02	-11.1863	-20.974883	0.000136	1.361089	0.461149	0.000055
1728	1.7184e+02	-11.1687	-20.918262	0.000140	1.401417	0.474813	0.000057
1729	1.7194e+02	-11.1318	-20.862049	0.000139	1.391335	0.471397	0.000056
1730	1.7204e+02	-11.1093	-20.799725	0.000154	1.542567	0.522636	0.000063
1731	1.7213e+02	-11.0403	-20.743919	0.000138	1.381253	0.467981	0.000056
1732	1.7223e+02	-11.0131	-20.689336	0.000135	1.351007	0.457733	0.000055
1733	1.7233e+02	-10.9794	-20.629049	0.000149	1.492157	0.505556	0.000061
1734	1.7243e+02	-10.9328	-20.572021	0.000141	1.411499	0.478229	0.000057
1735	1.7253e+02	-10.9072	-20.519066	0.000131	1.310678	0.444070	0.000053
1736	1.7263e+02	-10.8655	-20.461224	0.000143	1.431664	0.485061	0.000058
1737	1.7273e+02	-10.8302	-20.407047	0.000134	1.340924	0.454318	0.000054
1738	1.7283e+02	-10.7756	-20.352871	0.000134	1.340924	0.454318	0.000054
1739	1.7293e+02	-10.7692	-20.292177	0.000150	1.502239	0.508972	0.000061
1740	1.7303e+02	-10.6794	-20.237185	0.000136	1.361089	0.461149	0.000055
1741	1.7313e+02	-10.6585	-20.185045	0.000129	1.290514	0.437238	0.000052
1742	1.7323e+02	-10.5944	-20.128832	0.000139	1.391335	0.471397	0.000056
1743	1.7333e+02	-10.5542	-20.072619	0.000139	1.391335	0.471397	0.000056
1744	1.7343e+02	-10.5238	-20.018442	0.000134	1.340924	0.454318	0.000054
1745	1.7353e+02	-10.4724	-19.960600	0.000143	1.431664	0.485061	0.000058
1746	1.7363e+02	-10.4307	-19.903979	0.000140	1.401417	0.474813	0.000057
1747	1.7373e+02	-10.4147	-19.846544	0.000142	1.421582	0.481645	0.000058
1748	1.7383e+02	-10.3778	-19.792775	0.000133	1.330842	0.450902	0.000054
1749	1.7393e+02	-10.3232	-19.732895	0.000148	1.482074	0.502140	0.000060
1750	1.7403e+02	-10.2847	-19.681977	0.000126	1.260267	0.426990	0.000051
1751	1.7413e+02	-10.2543	-19.630245	0.000128	1.280432	0.433822	0.000052
1752	1.7422e+02	-10.2029	-19.571180	0.000146	1.461910	0.495309	0.000059
1753	1.7432e+02	-10.1660	-19.515782	0.000137	1.371171	0.464565	0.000056
1754	1.7442e+02	-10.1388	-19.462420	0.000132	1.320760	0.447486	0.000054
1755	1.7452e+02	-10.0714	-19.404984	0.000142	1.421582	0.481645	0.000058
1756	1.7462e+02	-10.0505	-19.348771	0.000139	1.391335	0.471397	0.000056
1757	1.7472e+02	-10.0249	-19.290521	0.000144	1.441746	0.488477	0.000059
1758	1.7482e+02	-9.9783	-19.235123	0.000137	1.371171	0.464565	0.000056
1759	1.7492e+02	-9.9270	-19.185019	0.000124	1.240103	0.420158	0.000050
1760	1.7502e+02	-9.8885	-19.119845	0.000161	1.613142	0.546547	0.000066
1761	1.7512e+02	-9.8853	-19.067705	0.000129	1.290514	0.437238	0.000052
1762	1.7522e+02	-9.7890	-19.009862	0.000143	1.431664	0.485061	0.000058
1763	1.7532e+02	-9.7874	-18.960166	0.000123	1.230021	0.416742	0.000050
1764	1.7542e+02	-9.7585	-18.897028	0.000156	1.562732	0.529468	0.000063
1765	1.7552e+02	-9.7056	-18.844481	0.000130	1.300596	0.440654	0.000053
1766	1.7562e+02	-9.6430	-18.786638	0.000143	1.431664	0.485061	0.000058
1767	1.7572e+02	-9.5997	-18.733684	0.000131	1.310678	0.444070	0.000053
1768	1.7582e+02	-9.5965	-18.677471	0.000139	1.391335	0.471397	0.000056
1769	1.7592e+02	-9.5324	-18.624923	0.000130	1.300596	0.440654	0.000053
1770	1.7602e+02	-9.4778	-18.567081	0.000143	1.431664	0.485061	0.000058
1771	1.7612e+02	-9.4826	-18.508424	-0.000145	-1.451828	-0.491893	0.000059
1772	1.7621e+02	-9.3944	-18.456284	0.000129	1.290514	0.437238	0.000052
1773	1.7631e+02	-9.3623	-18.399663	0.000140	1.401417	0.474813	0.000057
1774	1.7641e+02	-9.3463	-18.344264	0.000137	1.371171	0.464565	0.000056
1775	1.7651e+02	-9.3366	-18.283570	0.000150	1.502239	0.508972	0.000061
1776	1.7661e+02	-9.2532	-18.226950	0.000140	1.401417	0.474813	0.000057
1777	1.7671e+02	-9.2356	-18.174403	0.000130	1.300596	0.440654	0.000053
1778	1.7681e+02	-9.2019	-18.116967	0.000142	1.421582	0.481645	0.000058
1779	1.7691e+02	-9.1281	-18.061161	0.000138	1.381253	0.467981	0.000056
1780	1.7701e+02	-9.1024	-18.008614	0.000130	1.300596	0.440654	0.000053
1781	1.7711e+02	-9.0607	-17.956067	0.000130	1.300596	0.440654	0.000053
1782	1.7721e+02	-9.0270	-17.900261	0.000138	1.381253	0.467981	0.000056
1783	1.7731e+02	-8.9612	-17.840789	0.000147	1.471992	0.498724	0.000060
1784	1.7741e+02	-8.9436	-17.790686	0.000124	1.240103	0.420158	0.000050
1785	1.7751e+02	-8.9003	-17.729992	0.000150	1.502239	0.508972	0.000061
1786	1.7761e+02	-8.8586	-17.680703	0.000122	1.219939	0.413326	0.000050
1787	1.7771e+02	-8.8473	-17.621639	0.000146	1.461910	0.495309	0.000059
1788	1.7781e+02	-8.7768	-17.565833	0.000138	1.381253	0.467981	0.000056
1789	1.7791e+02	-8.7431	-17.501880	0.000158	1.582896	0.536300	0.000064
1790	1.7801e+02	-8.6853	-17.451777	0.000124	1.240103	0.420158	0.000050
1791	1.7810e+02	-8.6356	-17.396378	0.000137	1.371171	0.464565	0.000056
1792	1.7820e+02	-8.6244	-17.344646	0.000128	1.280432	0.433822	0.000052
1793	1.7830e+02	-8.5794	-17.287618	0.000141	1.411499	0.478229	0.000057
1794	1.7840e+02	-8.5105	-17.235071	0.000130	1.300596	0.440654	0.000053
1795	1.7850e+02	-8.5008	-17.173969	0.000151	1.512321	0.512388	0.000061
1796	1.7860e+02	-8.4559	-17.121015	0.000131	1.310678	0.444070	0.000053
1797	1.7870e+02	-8.4302	-17.065209	0.000138	1.381253	0.467981	0.000056
1798	1.7880e+02	-8.4062	-17.013884	0.000127	1.270350	0.430406	0.000052
1799	1.7890e+02	-8.3420	-16.956448	0.000142	1.421582	0.481645	0.000058
1800	1.7900e+02	-8.3260	-16.900235	0.000139	1.391335	0.471397	0.000056
1801	1.7910e+02	-8.2393	-16.839948	0.000149	1.492157	0.505556	0.000061
1802	1.7920e+02	-8.2057	-16.786179	0.000133	1.330842	0.450902	0.000054
1803	1.7930e+02	-8.1736	-16.729966	0.000139	1.391335	0.471397	0.000056
1804	1.7940e+02	-8.1447	-16.672938	0.000141	1.411499	0.478229	0.000057
1805	1.7950e+02	-8.0693	-16.612651	0.000149	1.492157	0.505556	0.000061
1806	1.7960e+02	-8.0693	-16.554809	-0.000143	-1.431664	-0.485061	0.000058
1807	1.7970e+02	-8.0115	-16.497373	0.000142	1.421582	0.481645	0.000058
1808	1.7980e+02	-7.9714	-16.438716	0.000145	1.451828	0.491893	0.000059
1809	1.7990e+02	-7.9297	-16.382503	0.000139	1.391335	0.471397	0.000056
1810	1.8000e+02	-7.9249	-16.322623	0.000148	1.482074	0.502140	0.000060
1811	1.8009e+02	-7.8495	-16.263966	0.000145	1.451828	0.491893	0.000059
1812	1.8019e+02	-7.8383	-16.206938	0.000141	1.411499	0.478229	0.000057
1813	1.8029e+02	-7.7725	-16.151947	0.000136	1.361089	0.461149	0.000055
1814	1.8039e+02	-7.7468	-16.087179	0.000160	1.603060	0.543131	0.000065
1815	1.8049e+02	-7.7180	-16.033818	0.000132	1.320760	0.447486	0.000054
1816	1.8059e+02	-7.6458	-15.973123	0.000150	1.502239	0.508972	0.000061
1817	1.8069e+02	-7.6297	-15.911615	0.000152	1.522403	0.515804	0.000062
1818	1.8079e+02	-7.5880	-15.845625	0.000163	1.633307	0.553379	0.000066
1819	1.8089e+02	-7.5543	-15.790227	0.000137	1.371171	0.464565	0.000056
1820	1.8099e+02	-7.5158	-15.726274	0.000158	1.582896	0.536300	0.000064
1821	1.8109e+02	-7.4773	-15.669653	0.000140	1.401417	0.474813	0.000057
1822	1.8119e+02	-7.4132	-15.602034	0.000167	1.673635	0.567043	0.000068
1823	1.8129e+02	-7.4051	-15.543784	0.000144	1.441746	0.488477	0.000059
1824	1.8139e+02	-7.3394	-15.479832	0.000158	1.582896	0.536300	0.000064
1825	1.8149e+02	-7.3185	-15.419952	0.000148	1.482074	0.502140	0.000060
1826	1.8159e+02	-7.2736	-15.356814	0.000156	1.562732	0.529468	0.000063
1827	1.8169e+02	-7.1998	-15.296527	0.000149	1.492157	0.505556	0.000061
1828	1.8179e+02	-7.1725	-15.233797	0.000155	1.552649	0.526052	0.000063
1829	1.8189e+02	-7.1420	-15.172288	0.000152	1.522403	0.515804	0.000062
1830	1.8199e+02	-7.0955	-15.109150	0.000156	1.562732	0.529468	0.000063
1831	1.8209e+02	-7.0795	-15.043160	0.000163	1.633307	0.553379	0.000066
1832	1.8218e+02	-7.0265	-14.978800	0.000159	1.592978	0.539716	0.000065
1833	1.8228e+02	-6.9768	-14.914848	0.000158	1.582896	0.536300	0.000064
1834	1.8238e+02	-6.9624	-14.852524	0.000154	1.542567	0.522636	0.000063
1835	1.8248e+02	-6.9191	-14.784498	0.000168	1.683717	0.570459	0.000068
1836	1.8258e+02	-6.8549	-14.723804	0.000150	1.502239	0.508972	0.000061
1837	1.8268e+02	-6.8084	-14.661073	0.000155	1.552649	0.526052	0.000063
1838	1.8278e+02	-6.8068	-14.601601	0.000147	1.471992	0.498724	0.000060
1839	1.8288e+02	-6.7314	-14.532353	0.000171	1.713964	0.580707	0.000070
1840	1.8298e+02	-6.7153	-14.465956	0.000164	1.643389	0.556795	0.000067
1841	1.8308e+02	-6.6704	-14.404040	0.000153	1.532485	0.519220	0.000062
1842	1.8318e+02	-6.6399	-14.344161	0.000148	1.482074	0.502140	0.000060
1843	1.8328e+02	-6.5661	-14.272061	0.000178	1.784539	0.604618	0.000072
1844	1.8338e+02	-6.5372	-14.212996	0.000146	1.461910	0.495309	0.000059
1845	1.8348e+02	-6.5116	-14.146599	0.000164	1.643389	0.556795	0.000067
1846	1.8358e+02	-6.4602	-14.084683	0.000153	1.532485	0.519220	0.000062
1847	1.8368e+02	-6.4105	-14.015435	0.000171	1.713964	0.580707	0.000070
1848	1.8378e+02	-6.3993	-13.953926	0.000152	1.522403	0.515804	0.000062
1849	1.8388e+02	-6.3592	-13.892825	0.000151	1.512321	0.512388	0.000061
1850	1.8398e+02	-6.2854	-13.821133	0.000177	1.774456	0.601202	0.000072
1851	1.8407e+02	-6.2902	-13.754736	-0.000164	-1.643389	-0.556795	0.000067
1852	1.8417e+02	-6.2389	-13.692820	0.000153	1.532485	0.519220	0.000062
1853	1.8427e+02	-6.2020	-13.626423	0.000164	1.643389	0.556795	0.000067
1854	1.8437e+02	-6.1474	-13.558804	0.000167	1.673635	0.567043	0.000068
1855	1.8447e+02	-6.1298	-13.494851	0.000158	1.582896	0.536300	0.000064
1856	1.8457e+02	-6.0865	-13.434972	0.000148	1.482074	0.502140	0.000060
1857	1.8467e+02	-6.0223	-13.364909	0.000173	1.734128	0.587538	0.000070
1858	1.8477e+02	-5.9838	-13.292809	0.000178	1.784539	0.604618	0.000072
1859	1.8487e+02	-5.9405	-13.228857	0.000158	1.582896	0.536300	0.000064
1860	1.8497e+02	-5.9068	-13.161238	0.000167	1.673635	0.567043	0.000068
1861	1.8507e+02	-5.8827	-13.098100	0.000156	1.562732	0.529468	0.000063
1862	1.8517e+02	-5.8635	-13.024778	0.000181	1.814785	0.614866	0.000074
1863	1.8527e+02	-5.7784	-12.961640	0.000156	1.562732	0.529468	0.000063
1864	1.8537e+02	-5.7624	-12.891577	0.000173	1.734128	0.587538	0.000070
1865	1.8547e+02	-5.6950	-12.824366	0.000166	1.663553	0.563627	0.000068
1866	1.8557e+02	-5.7047	-12.751859	-0.000179	-1.794621	-0.608034	0.000073
1867	1.8567e+02	-5.6501	-12.681388	0.000174	1.744210	0.590954	0.000071
1868	1.8577e+02	-5.5795	-12.610511	0.000175	1.754292	0.594370	0.000071
1869	1.8587e+02	-5.5667	-12.542892	0.000167	1.673635	0.567043	0.000068
1870	1.8597e+02	-5.5234	-12.476902	0.000163	1.633307	0.553379	0.000066
1871	1.8606e+02	-5.4865	-12.408876	0.000168	1.683717	0.570459	0.000068
1872	1.8616e+02	-5.4207	-12.333518	0.000187	1.865196	0.631945	0.000076
1873	1.8626e+02	-5.3998	-12.271194	0.000154	1.542567	0.522636	0.000063
1874	1.8636e+02	-5.3742	-12.208871	0.000154	1.542567	0.522636	0.000063
1875	1.8646e+02	-5.3228	-12.130661	0.000194	1.935771	0.655857	0.000079
1876	1.8656e+02	-5.2394	-12.059784	0.000175	1.754292	0.594370	0.000071
1877	1.8666e+02	-5.2378	-11.987277	0.000179	1.794621	0.608034	0.000073
1878	1.8676e+02	-5.1961	-11.918843	0.000169	1.693799	0.573875	0.000069
1879	1.8686e+02	-5.1560	-11.854483	0.000159	1.592978	0.539716	0.000065
1880	1.8696e+02	-5.1047	-11.778310	0.000189	1.885360	0.638777	0.000077
1881	1.8706e+02	-5.0790	-11.712320	0.000163	1.633307	0.553379	0.000066
1882	1.8716e+02	-5.0389	-11.639813	0.000179	1.794621	0.608034	0.000073
1883	1.8726e+02	-5.0084	-11.567714	0.000178	1.784539	0.604618	0.000072
1884	1.8736e+02	-4.9635	-11.494392	0.000181	1.814785	0.614866	0.000074
1885	1.8746e+02	-4.9041	-11.421885	0.000179	1.794621	0.608034	0.000073
1886	1.8756e+02	-4.8785	-11.359154	0.000155	1.552649	0.526052	0.000063
1887	1.8766e+02	-4.8416	-11.285425	0.000182	1.824867	0.618282	0.000074
1888	1.8776e+02	-4.8031	-11.221065	0.000159	1.592978	0.539716	0.000065
1889	1.8786e+02	-4.7694	-11.146522	0.000185	1.845031	0.625114	0.000075
1890	1.8796e+02	-4.7293	-11.074422	0.000178	1.784539	0.604618	0.000072
1891	1.8806e+02	-4.7020	-11.005581	0.000170	1.703881	0.577291	0.000069
1892	1.8815e+02	-4.6346	-10.938777	0.000165	1.653471	0.560211	0.000067
1893	1.8825e+02	-4.6009	-10.861789	0.000191	1.905524	0.645609	0.000077
1894	1.8835e+02	-4.5528	-10.794170	0.000167	1.673635	0.567043	0.000068
1895	1.8845e+02	-4.4951	-10.724922	0.000171	1.713964	0.580707	0.000070
1896	1.8855e+02	-4.4774	-10.650378	0.000185	1.845031	0.625114	0.000075
1897	1.8865e+02	-4.4165	-10.581945	0.000169	1.693799	0.573875	0.000069
1898	1.8875e+02	-4.3699	-10.507808	0.000183	1.834949	0.621698	0.000075
1899	1.8885e+02	-4.3699	-10.440597	-0.000166	-1.663553	-0.563627	0.000068
1900	1.8895e+02	-4.3218	-10.374200	0.000164	1.643389	0.556795	0.000067
1901	1.8905e+02	-4.3009	-10.305359	0.000170	1.703881	0.577291	0.000069
1902	1.8915e+02	-4.2432	-10.236926	0.000169	1.693799	0.573875	0.000069
1903	1.8925e+02	-4.1967	-10.164419	0.000179	1.794621	0.608034	0.000073
1904	1.8935e+02	-4.1694	-10.102910	0.000152	1.522403	0.515804	0.000062
1905	1.8945e+02	-4.1197	-10.032847	0.000173	1.734128	0.587538	0.000070
1906	1.8955e+02	-4.0908	-9.963191	0.000172	1.724046	0.584123	0.000070
1907	1.8965e+02	-4.0330	-9.894758	0.000169	1.693799	0.573875	0.000069
1908	1.8975e+02	-3.9977	-9.825510	0.000171	1.713964	0.580707	0.000070
1909	1.8985e+02	-3.9609	-9.756261	0.000171	1.713964	0.580707	0.000070
1910	1.8995e+02	-3.9207	-9.687013	0.000171	1.713964	0.580707	0.000070
1911	1.9004e+02	-3.8758	-9.616136	0.000175	1.754292	0.594370	0.000071
1912	1.9014e+02	-3.8277	-9.546480	0.000172	1.724046	0.584123	0.000070
1913	1.9024e+02	-3.8052	-9.484157	0.000154	1.542567	0.522636	0.000063
1914	1.9034e+02	-3.7764	-9.408798	0.000187	1.865196	0.631945	0.000076
1915	1.9044e+02	-3.7010	-9.341587	0.000166	1.663553	0.563627	0.000068
1916	1.9054e+02	-3.6801	-9.270302	0.000176	1.764374	0.597786	0.000072
1917	1.9064e+02	-3.6288	-9.202276	0.000168	1.683717	0.570459	0.000068
1918	1.9074e+02	-3.5951	-9.135879	0.000164	1.643389	0.556795	0.000067
1919	1.9084e+02	-3.5534	-9.067445	0.000169	1.693799	0.573875	0.000069
1920	1.9094e+02	-3.5117	-9.000641	0.000165	1.653471	0.560211	0.000067
1921	1.9104e+02	-3.4892	-8.928541	0.000178	1.784539	0.604618	0.000072
1922	1.9114e+02	-3.4395	-8.859293	0.000171	1.713964	0.580707	0.000070
1923	1.9124e+02	-3.4042	-8.792489	0.000165	1.653471	0.560211	0.000067
1924	1.9134e+02	-3.3432	-8.719982	0.000179	1.794621	0.608034	0.000073
1925	1.9144e+02	-3.3224	-8.651548	0.000169	1.693799	0.573875	0.000069
1926	1.9154e+02	-3.2807	-8.585966	0.000162	1.623224	0.549963	0.000066
1927	1.9164e+02	-3.2438	-8.508979	0.000191	1.905524	0.645609	0.000077
1928	1.9174e+02	-3.2165	-8.442582	0.000164	1.643389	0.556795	0.000067
1929	1.9184e+02	-3.1748	-8.370889	0.000177	1.774456	0.601202	0.000072
1930	1.9194e+02	-3.1427	-8.300827	0.000173	1.734128	0.587538	0.000070
1931	1.9203e+02	-3.0978	-8.233615	0.000166	1.663553	0.563627	0.000068
1932	1.9213e+02	-3.0737	-8.161515	0.000178	1.784539	0.604618	0.000072
1933	1.9223e+02	-2.9983	-8.097155	0.000159	1.592978	0.539716	0.000065
1934	1.9233e+02	-2.9662	-8.024241	0.000180	1.804703	0.611450	0.000073
1935	1.9243e+02	-2.9277	-7.958659	0.000162	1.623224	0.549963	0.000066
1936	1.9253e+02	-2.8892	-7.886152	0.000179	1.794621	0.608034	0.000073
1937	1.9263e+02	-2.8411	-7.818533	0.000167	1.673635	0.567043	0.000068
1938	1.9273e+02	-2.8138	-7.745619	0.000180	1.804703	0.611450	0.000073
1939	1.9283e+02	-2.7561	-7.671075	0.000185	1.845031	0.625114	0.000075
1940	1.9293e+02	-2.7256	-7.604678	0.000164	1.643389	0.556795	0.000067
1941	1.9303e+02	-2.6967	-7.530134	0.000185	1.845031	0.625114	0.000075
1942	1.9313e+02	-2.6518	-7.458442	0.000177	1.774456	0.601202	0.000072
1943	1.9323e+02	-2.6181	-7.387565	0.000175	1.754292	0.594370	0.000071
1944	1.9333e+02	-2.5588	-7.317909	0.000172	1.724046	0.584123	0.000070
1945	1.9343e+02	-2.5170	-7.244995	0.000180	1.804703	0.611450	0.000073
1946	1.9353e+02	-2.5058	-7.177783	0.000166	1.663553	0.563627	0.000068
1947	1.9363e+02	-2.4432	-7.106091	0.000177	1.774456	0.601202	0.000072
1948	1.9373e+02	-2.3887	-7.041731	0.000159	1.592978	0.539716	0.000065
1949	1.9383e+02	-2.3839	-6.969631	0.000178	1.784539	0.604618	0.000072
1950	1.9393e+02	-2.3358	-6.898753	0.000175	1.754292	0.594370	0.000071
1951	1.9403e+02	-2.3310	-6.827876	0.000175	1.754292	0.594370	0.000071
1952	1.9412e+02	-2.2716	-6.764330	0.000157	1.572814	0.532884	0.000064
1953	1.9422e+02	-2.2203	-6.689787	0.000185	1.845031	0.625114	0.000075
1954	1.9432e+02	-2.1721	-6.619724	0.000173	1.734128	0.587538	0.000070
1955	1.9442e+02	-2.1112	-6.545587	0.000183	1.834949	0.621698	0.000075
1956	1.9452e+02	-2.0839	-6.473080	0.000179	1.794621	0.608034	0.000073
1957	1.9462e+02	-2.0646	-6.406684	0.000164	1.643389	0.556795	0.000067
1958	1.9472e+02	-2.0101	-6.331733	0.000186	1.855114	0.628529	0.000075
1959	1.9482e+02	-1.9620	-6.261670	0.000173	1.734128	0.587538	0.000070
1960	1.9492e+02	-1.9395	-6.194051	0.000167	1.673635	0.567043	0.000068
1961	1.9502e+02	-1.9074	-6.121137	0.000180	1.804703	0.611450	0.000073
1962	1.9512e+02	-1.8561	-6.048222	0.000180	1.804703	0.611450	0.000073
1963	1.9522e+02	-1.8112	-5.978974	0.000171	1.713964	0.580707	0.000070
1964	1.9532e+02	-1.7759	-5.904838	0.000183	1.834949	0.621698	0.000075
1965	1.9542e+02	-1.7406	-5.836811	0.000168	1.683717	0.570459	0.000068
1966	1.9552e+02	-1.6684	-5.761453	0.000187	1.865196	0.631945	0.000076
1967	1.9562e+02	-1.6508	-5.692205	0.000171	1.713964	0.580707	0.000070
1968	1.9572e+02	-1.5978	-5.616032	0.000189	1.885360	0.638777	0.000077
1969	1.9582e+02	-1.5609	-5.545969	0.000173	1.734128	0.587538	0.000070
1970	1.9592e+02	-1.5272	-5.475499	0.000174	1.744210	0.590954	0.000071
1971	1.9601e+02	-1.5048	-5.399733	0.000188	1.875278	0.635361	0.000076
1972	1.9611e+02	-1.4470	-5.324374	0.000187	1.865196	0.631945	0.000076
1973	1.9621e+02	-1.4214	-5.247387	0.000191	1.905524	0.645609	0.000077
1974	1.9631e+02	-1.3636	-5.180175	0.000166	1.663553	0.563627	0.000068
1975	1.9641e+02	-1.3315	-5.106446	0.000182	1.824867	0.618282	0.000074
1976	1.9651e+02	-1.2898	-5.027422	0.000196	1.955935	0.662689	0.000079
1977	1.9661e+02	-1.2417	-4.949212	0.000194	1.935771	0.655857	0.000079
1978	1.9671e+02	-1.2417	-4.880371	-0.000170	-1.703881	-0.577291	0.000069
1979	1.9681e+02	-1.2048	-4.807864	0.000179	1.794621	0.608034	0.000073
1980	1.9691e+02	-1.1294	-4.728025	0.000198	1.976099	0.669521	0.000080
1981	1.9701e+02	-1.1037	-4.651852	0.000189	1.885360	0.638777	0.000077
1982	1.9711e+02	-1.0347	-4.573642	0.000194	1.935771	0.655857	0.000079
1983	1.9721e+02	-1.0059	-4.503987	0.000172	1.724046	0.584123	0.000070
1984	1.9731e+02	-0.9914	-4.423333	0.000200	1.996264	0.676352	0.000081
1985	1.9741e+02	-0.9128	-4.347974	0.000187	1.865196	0.631945	0.000076
1986	1.9751e+02	-0.8727	-4.266913	0.000201	2.006346	0.679768	0.000081
1987	1.9761e+02	-0.8486	-4.185445	0.000202	2.016428	0.683184	0.000082
1988	1.9771e+02	-0.7973	-4.109272	0.000189	1.885360	0.638777	0.000077
1989	1.9781e+02	-0.7748	-4.028618	0.000200	1.996264	0.676352	0.000081
1990	1.9791e+02	-0.7444	-3.949186	0.000197	1.966017	0.666105	0.000080
1991	1.9800e+02	-0.6930	-3.870569	0.000195	1.945853	0.659273	0.000079
1992	1.9810e+02	-0.6449	-3.791544	0.000196	1.955935	0.662689	0.000079
1993	1.9820e+02	-0.6016	-3.710076	0.000202	2.016428	0.683184	0.000082
1994	1.9830e+02	-0.5695	-3.633903	0.000189	1.885360	0.638777	0.000077
1995	1.9840e+02	-0.5214	-3.554064	0.000198	1.976099	0.669521	0.000080
1996	1.9850e+02	-0.4941	-3.469744	0.000209	2.087003	0.707096	0.000085
1997	1.9860e+02	-0.4460	-3.395608	0.000183	1.834949	0.621698	0.000075
1998	1.9870e+02	-0.4123	-3.313324	0.000204	2.036592	0.690016	0.000083
1999	1.9880e+02	-0.3850	-3.233078	0.000199	1.986181	0.672936	0.000081
2000	1.9890e+02	-0.3337	-3.148758	0.000209	2.087003	0.707096	0.000085
2001	1.9900e+02	-0.3064	-3.067697	0.000201	2.006346	0.679768	0.000081
2002	1.9910e+02	-0.2342	-2.988672	0.000196	1.955935	0.662689	0.000079
2003	1.9920e+02	-0.2262	-2.903945	0.000210	2.097085	0.710512	0.000085
2004	1.9930e+02	-0.1749	-2.822069	0.000203	2.026510	0.686600	0.000082
2005	1.9940e+02	-0.1444	-2.739379	0.000205	2.046674	0.693432	0.000083
2006	1.9950e+02	-0.0786	-2.661169	0.000194	1.935771	0.655857	0.000079
2007	1.9960e+02	-0.0578	-2.576442	0.000210	2.097085	0.710512	0.000085
2008	1.9970e+02	-0.0225	-2.492122	0.000209	2.087003	0.707096	0.000085
2009	1.9980e+02	0.0209	-2.407394	0.000209	2.087003	0.707096	0.000085

Center data before PMax,+/-Pr and +/-Vc Calc.

PMax (uC/cm2):	3.17e+01
Pr (uC/cm2):	8.05e-01
-Pr (uC/cm2):	-2.41e+00
PLoss (uC/cm2):	-7.58e-01
Vc:	8.76e-01
-Vc:	-4.16e-01
C (Max-Eff) (nF):	1.59e-01
K (Eff):	5.37e+02
Vert. (+/-Pr) Shift (uC/cm2):	-8.01e-01
Horiz. Shift (+/-Vc):	2.30e-01
Offset (uC/cm2):	1.66e+00

A (Loop Area - uC/cm2·Volts):	1.72e-03



Hysteresis Version: 5.48.1 - Radiant Technologies, Inc., 1999 - 9/12/24

