»»»»»»»»»»»»»»»»»»»»»»»»»»»»»»»»»»»» Hysteresis ««««««««««««««««««««««««««««««««««««
»»»  Executed Version:	5.48.1
»»»  Vision Version:	5.48.4 (R)
»»»  Vision Compiled:	9/18/24
»»»  Driver Version:	5.47.0
»»»  Windows Version:	Windows 8 or 8.1
»»»  Processor Information:	x86 (AMD or Intel) - 32 Processors
»»»  Tester Name:	PMF21124-494 (100V)
»»»  Tester S/N:	PMF21124-494
»»»  Internal Amp Type:	100V RevK 270k
»»»  Internal Amp S/N:	iAB2-596/K     
»»»  Execution Count:	1
»»»»»»»»»»»»»»»»»»»»»»»»»»»»»»»»»»»»»»»»»»««««««««««««««««««««««««««««««««««««««««««

Stored:	6/6/2025 - 17:39:52
Configured:	06/06/25 01:57:07 PM
Executed:	06/06/25 05:39:22 PM

»»»»»»»»»»»»»»»»»»»»»»»»»»»»»»»»»»» Sample Info ««««««««««««««««««««««««««««««««««««
Sample Name:	
Lot Name:	
Wafer Name:	
Die Row/Column:	0/0
Capacitor Number:	0
Sample Area (cm2):	1.00e-04
Sample Thickness (microns):	3.00e-01

Amplifier:	Internal

»»»»»»»»»»»»»»»»»»»»»»»»»»»»»»»»»»» Tester Info «««««««««««««««««««««««««««««««««««
Tester Name:	PMF21124-494 (100V)
Tester Serial Number:	PMF21124-494
Return Signal Amp. Level:	1.79 [Index: 2]

»»»»»»»»»»»»»»»»»»»»»»»»»»»»»»»» Hysteresis Info ««««««««««««««««««««««««««««««««««
Task Name:	Hyst-501
Volts:	20.00
Field:	666.67 (kV/cm)
DCBias:	0.00
DCField:	0.00 (kV/cm)
Hysteresis Period (ms):	1.00e+00
Preset:	Enabled
Preset Delay (ms):	1.00e+03
Profile:	Standard Bipolar

»»»»»»»»»»»»»»»»»»»»»»»»»»»»»»»»»»»»»» Data «««««««««««««««««««««««««««««««««««««««
Points:	2001

Valid Data

Point	Time (ms)	Drive Voltage	Measured Polarization (uC/cm2)	Capacitance (uF)	Normalized Capacitance (uF/cm2)	Dielectric Constant	Instantaneous Current (mA)
   1	0.0000e+00	0.0241	-0.930513	0.000202	2.023428	0.685556	0.016421
   2	5.0000e-04	0.0417	-0.848409	0.000202	2.023428	0.685556	0.016421
   3	1.0000e-03	0.1267	-0.845843	0.000006	0.063232	0.021424	0.000513
   4	1.5000e-03	0.1396	-0.732522	0.000279	2.792753	0.946210	0.022664
   5	2.0000e-03	0.2230	-0.658971	0.000181	1.812654	0.614144	0.014710
   6	2.5000e-03	0.2390	-0.529828	0.000318	3.182684	1.078323	0.025829
   7	3.0000e-03	0.2936	-0.423349	0.000262	2.624134	0.889080	0.021296
   8	3.5000e-03	0.3305	-0.304897	0.000292	2.919217	0.989057	0.023690
   9	4.0000e-03	0.3722	-0.222365	0.000203	2.033967	0.689127	0.016506
  10	4.5000e-03	0.4155	-0.083387	0.000343	3.425074	1.160446	0.027796
  11	5.0000e-03	0.4444	0.021381	0.000258	2.581979	0.874798	0.020954
  12	5.5000e-03	0.4877	0.128288	0.000263	2.634672	0.892651	0.021381
  13	6.0000e-03	0.5294	0.245029	0.000288	2.877062	0.974775	0.023348
  14	6.5000e-03	0.5791	0.349370	0.000257	2.571440	0.871227	0.020868
  15	7.0000e-03	0.6048	0.473809	0.000307	3.066758	1.039046	0.024888
  16	7.5000e-03	0.6080	0.587985	0.000281	2.813830	0.953351	0.022835
  17	8.0000e-03	0.6770	0.709430	0.000299	2.992988	1.014052	0.024289
  18	8.5000e-03	0.7235	0.802225	0.000229	2.286895	0.774821	0.018559
  19	9.0000e-03	0.7444	0.922388	0.000296	2.961372	1.003340	0.024033
  20	9.5000e-03	0.8117	1.036991	0.000282	2.824369	0.956922	0.022921
  21	1.0000e-02	0.8326	1.158437	0.000299	2.992988	1.014052	0.024289
  22	1.0500e-02	0.8727	1.265771	0.000265	2.645211	0.896222	0.021467
  23	1.1000e-02	0.9545	1.358565	0.000229	2.286895	0.774821	0.018559
  24	1.1500e-02	0.9417	1.487708	-0.000318	-3.182684	-1.078323	0.025829
  25	1.2000e-02	0.9962	1.587773	0.000247	2.466053	0.835521	0.020013
  26	1.2500e-02	1.0363	1.714777	0.000313	3.129991	1.060470	0.025401
  27	1.3000e-02	1.0829	1.817407	0.000253	2.529285	0.856945	0.020526
  28	1.3500e-02	1.1470	1.920037	0.000253	2.529285	0.856945	0.020526
  29	1.4000e-02	1.1727	2.052174	0.000326	3.256455	1.103317	0.026427
  30	1.4500e-02	1.2256	2.151810	0.000246	2.455514	0.831951	0.019927
  31	1.5000e-02	1.2369	2.275394	0.000305	3.045681	1.031905	0.024717
  32	1.5500e-02	1.2593	2.404965	0.000319	3.193223	1.081893	0.025914
  33	1.6000e-02	1.3010	2.545226	0.000346	3.456690	1.171158	0.028052
  34	1.6500e-02	1.3636	2.615356	0.000173	1.728345	0.585579	0.014026
  35	1.7000e-02	1.4005	2.747920	0.000327	3.266994	1.106887	0.026513
  36	1.7500e-02	1.4342	2.827886	0.000197	1.970735	0.667703	0.015993
  37	1.8000e-02	1.4823	2.957456	0.000319	3.193223	1.081893	0.025914
  38	1.8500e-02	1.5288	3.057521	0.000247	2.466053	0.835521	0.020013
  39	1.9000e-02	1.5657	3.189229	0.000325	3.245916	1.099746	0.026342
  40	1.9500e-02	1.6026	3.289721	0.000248	2.476592	0.839092	0.020098
  41	2.0000e-02	1.6588	3.416726	0.000313	3.129991	1.060470	0.025401
  42	2.0500e-02	1.6796	3.512086	0.000235	2.350128	0.796245	0.019072
  43	2.1000e-02	1.7470	3.618993	0.000263	2.634672	0.892651	0.021381
  44	2.1500e-02	1.7647	3.770800	0.000374	3.741235	1.267565	0.030361
  45	2.2000e-02	1.8208	3.849483	0.000194	1.939119	0.656991	0.015737
  46	2.2500e-02	1.8641	3.967935	0.000292	2.919217	0.989057	0.023690
  47	2.3000e-02	1.8689	4.085532	0.000290	2.898139	0.981916	0.023519
  48	2.3500e-02	1.9042	4.210398	0.000308	3.077297	1.042616	0.024973
  49	2.4000e-02	1.9909	4.286943	0.000189	1.886425	0.639138	0.015309
  50	2.4500e-02	2.0021	4.432764	0.000359	3.593693	1.217576	0.029164
  51	2.5000e-02	2.0470	4.538815	0.000261	2.613595	0.885510	0.021210
  52	2.5500e-02	2.0759	4.652563	0.000280	2.803291	0.949781	0.022750
  53	2.6000e-02	2.1320	4.767594	0.000283	2.834907	0.960493	0.023006
  54	2.6500e-02	2.1497	4.886046	0.000292	2.919217	0.989057	0.023690
  55	2.7000e-02	2.1946	4.983117	0.000239	2.392282	0.810527	0.019414
  56	2.7500e-02	2.2427	5.113115	0.000320	3.203761	1.085464	0.026000
  57	2.8000e-02	2.2924	5.204200	0.000224	2.244741	0.760539	0.018217
  58	2.8500e-02	2.3181	5.337191	0.000328	3.277532	1.110458	0.026598
  59	2.9000e-02	2.3566	5.444525	0.000265	2.645211	0.896222	0.021467
  60	2.9500e-02	2.4208	5.559984	0.000285	2.845446	0.964063	0.023092
  61	3.0000e-02	2.4449	5.655772	0.000236	2.360666	0.799815	0.019158
  62	3.0500e-02	2.4914	5.777645	0.000300	3.003526	1.017622	0.024375
  63	3.1000e-02	2.5170	5.893532	0.000286	2.855985	0.967634	0.023177
  64	3.1500e-02	2.5796	5.974780	0.000200	2.002351	0.678415	0.016250
  65	3.2000e-02	2.6069	6.095371	0.000297	2.971910	1.006910	0.024118
  66	3.2500e-02	2.6518	6.201849	0.000262	2.624134	0.889080	0.021296
  67	3.3000e-02	2.6630	6.300631	0.000243	2.434437	0.824810	0.019756
  68	3.3500e-02	2.7240	6.440037	0.000344	3.435613	1.164017	0.027881
  69	3.4000e-02	2.7545	6.550364	0.000272	2.718982	0.921216	0.022065
  70	3.4500e-02	2.8042	6.665395	0.000283	2.834907	0.960493	0.023006
  71	3.5000e-02	2.8507	6.773584	0.000267	2.666288	0.903363	0.021638
  72	3.5500e-02	2.8972	6.883912	0.000272	2.718982	0.921216	0.022065
  73	3.6000e-02	2.9085	7.000653	0.000288	2.877062	0.974775	0.023348
  74	3.6500e-02	2.9710	7.111836	0.000274	2.740059	0.928357	0.022237
  75	3.7000e-02	3.0160	7.207196	0.000235	2.350128	0.796245	0.019072
  76	3.7500e-02	3.0593	7.306833	0.000246	2.455514	0.831951	0.019927
  77	3.8000e-02	3.0817	7.458212	0.000373	3.730696	1.263994	0.030276
  78	3.8500e-02	3.1058	7.569395	0.000274	2.740059	0.928357	0.022237
  79	3.9000e-02	3.1668	7.669459	0.000247	2.466053	0.835521	0.020013
  80	3.9500e-02	3.2037	7.754984	0.000211	2.107738	0.714121	0.017105
  81	4.0000e-02	3.2614	7.881989	0.000313	3.129991	1.060470	0.025401
  82	4.0500e-02	3.2357	8.028237	-0.000360	-3.604232	-1.221147	0.029250
  83	4.1000e-02	3.3272	8.095802	0.000167	1.665113	0.564155	0.013513
  84	4.1500e-02	3.3641	8.194156	0.000242	2.423898	0.821239	0.019671
  85	4.2000e-02	3.3769	8.330140	0.000335	3.351303	1.135452	0.027197
  86	4.2500e-02	3.4667	8.408823	0.000194	1.939119	0.656991	0.015737
  87	4.3000e-02	3.4924	8.516585	0.000266	2.655750	0.899792	0.021552
  88	4.3500e-02	3.5454	8.609807	0.000230	2.297434	0.778392	0.018644
  89	4.4000e-02	3.5502	8.750068	0.000346	3.456690	1.171158	0.028052
  90	4.4500e-02	3.6240	8.842863	0.000229	2.286895	0.774821	0.018559
  91	4.5000e-02	3.6480	8.955329	0.000277	2.771675	0.939069	0.022493
  92	4.5500e-02	3.6865	9.088320	0.000328	3.277532	1.110458	0.026598
  93	4.6000e-02	3.7427	9.184536	0.000237	2.371205	0.803386	0.019243
  94	4.6500e-02	3.7555	9.310685	0.000311	3.108913	1.053328	0.025230
  95	4.7000e-02	3.8052	9.405618	0.000234	2.339589	0.792674	0.018987
  96	4.7500e-02	3.8502	9.489860	0.000208	2.076122	0.703409	0.016848
  97	4.8000e-02	3.8694	9.605319	0.000285	2.845446	0.964063	0.023092
  98	4.8500e-02	3.9159	9.719067	0.000280	2.803291	0.949781	0.022750
  99	4.9000e-02	3.9721	9.841368	0.000301	3.014065	1.021193	0.024460
 100	4.9500e-02	4.0314	9.888407	0.000116	1.159256	0.392766	0.009408
 101	5.0000e-02	4.0459	10.012418	0.000306	3.056220	1.035475	0.024802
 102	5.0500e-02	4.0731	10.140278	0.000315	3.151068	1.067611	0.025572
 103	5.1000e-02	4.0892	10.274125	0.000330	3.298610	1.117599	0.026769
 104	5.1500e-02	4.1678	10.354946	0.000199	1.991812	0.674844	0.016164
 105	5.2000e-02	4.1999	10.482806	0.000315	3.151068	1.067611	0.025572
 106	5.2500e-02	4.2480	10.571752	0.000219	2.192047	0.742686	0.017789
 107	5.3000e-02	4.2993	10.675665	0.000256	2.560901	0.867657	0.020783
 108	5.3500e-02	4.3186	10.788130	0.000277	2.771675	0.939069	0.022493
 109	5.4000e-02	4.3683	10.895892	0.000266	2.655750	0.899792	0.021552
 110	5.4500e-02	4.3988	10.985266	0.000220	2.202586	0.746256	0.017875
 111	5.5000e-02	4.4293	11.128948	0.000354	3.540999	1.199723	0.028736
 112	5.5500e-02	4.5175	11.211907	0.000204	2.044506	0.692697	0.016592
 113	5.6000e-02	4.5432	11.323945	0.000276	2.761136	0.935498	0.022408
 114	5.6500e-02	4.5640	11.413746	0.000221	2.213125	0.749827	0.017960
 115	5.7000e-02	4.6074	11.541606	0.000315	3.151068	1.067611	0.025572
 116	5.7500e-02	4.6426	11.637394	0.000236	2.360666	0.799815	0.019158
 117	5.8000e-02	4.6651	11.763544	0.000311	3.108913	1.053328	0.025230
 118	5.8500e-02	4.7180	11.875582	0.000276	2.761136	0.935498	0.022408
 119	5.9000e-02	4.7405	11.967093	0.000226	2.255279	0.764109	0.018302
 120	5.9500e-02	4.8143	12.066302	0.000244	2.444976	0.828380	0.019842
 121	6.0000e-02	4.8432	12.173209	0.000263	2.634672	0.892651	0.021381
 122	6.0500e-02	4.8672	12.282253	0.000269	2.687366	0.910504	0.021809
 123	6.1000e-02	4.9218	12.401561	0.000294	2.940294	0.996199	0.023861
 124	6.1500e-02	4.9683	12.493500	0.000227	2.265818	0.767680	0.018388
 125	6.2000e-02	4.9924	12.594847	0.000250	2.497669	0.846233	0.020269
 126	6.2500e-02	5.0421	12.696194	0.000250	2.497669	0.846233	0.020269
 127	6.3000e-02	5.0694	12.785568	0.000220	2.202586	0.746256	0.017875
 128	6.3500e-02	5.1400	12.927540	0.000350	3.498845	1.185441	0.028394
 129	6.4000e-02	5.1640	13.002374	0.000184	1.844271	0.624856	0.014967
 130	6.4500e-02	5.2105	13.100300	0.000241	2.413360	0.817668	0.019585
 131	6.5000e-02	5.2539	13.209345	0.000269	2.687366	0.910504	0.021809
 132	6.5500e-02	5.2747	13.306843	0.000240	2.402821	0.814098	0.019500
 133	6.6000e-02	5.3309	13.408618	0.000251	2.508208	0.849804	0.020355
 134	6.6500e-02	5.3405	13.538189	0.000319	3.193223	1.081893	0.025914
 135	6.7000e-02	5.3838	13.647233	0.000269	2.687366	0.910504	0.021809
 136	6.7500e-02	5.4400	13.752429	0.000259	2.592517	0.878369	0.021039
 137	6.8000e-02	5.4881	13.847789	0.000235	2.350128	0.796245	0.019072
 138	6.8500e-02	5.5362	13.922196	0.000183	1.833732	0.621285	0.014881
 139	6.9000e-02	5.5859	14.027392	0.000259	2.592517	0.878369	0.021039
 140	6.9500e-02	5.6052	14.132588	0.000259	2.592517	0.878369	0.021039
 141	7.0000e-02	5.6421	14.254461	0.000300	3.003526	1.017622	0.024375
 142	7.0500e-02	5.6822	14.342124	0.000216	2.160431	0.731974	0.017533
 143	7.1000e-02	5.7496	14.432781	0.000223	2.234202	0.756968	0.018131
 144	7.1500e-02	5.7736	14.554654	0.000300	3.003526	1.017622	0.024375
 145	7.2000e-02	5.8121	14.651297	0.000238	2.381744	0.806957	0.019329
 146	7.2500e-02	5.8153	14.781295	0.000320	3.203761	1.085464	0.026000
 147	7.3000e-02	5.8891	14.859551	0.000193	1.928580	0.653421	0.015651
 148	7.3500e-02	5.9677	14.945931	0.000213	2.128815	0.721262	0.017276
 149	7.4000e-02	5.9629	15.077212	-0.000324	-3.235377	-1.096176	0.026256
 150	7.4500e-02	5.9998	15.182835	0.000260	2.603056	0.881939	0.021125
 151	7.5000e-02	6.0303	15.285038	0.000252	2.518747	0.853374	0.020440
 152	7.5500e-02	6.0592	15.373129	0.000217	2.170970	0.735545	0.017618
 153	7.6000e-02	6.0929	15.495857	0.000302	3.024604	1.024763	0.024546
 154	7.6500e-02	6.1779	15.573257	0.000191	1.907503	0.646279	0.015480
 155	7.7000e-02	6.2052	15.674177	0.000249	2.487131	0.842663	0.020184
 156	7.7500e-02	6.2517	15.783221	0.000269	2.687366	0.910504	0.021809
 157	7.8000e-02	6.2693	15.870029	0.000214	2.139354	0.724833	0.017362
 158	7.8500e-02	6.3415	15.967528	0.000240	2.402821	0.814098	0.019500
 159	7.9000e-02	6.3704	16.081276	0.000280	2.803291	0.949781	0.022750
 160	7.9500e-02	6.3832	16.195880	0.000282	2.824369	0.956922	0.022921
 161	8.0000e-02	6.4233	16.304924	0.000269	2.687366	0.910504	0.021809
 162	8.0500e-02	6.4811	16.383607	0.000194	1.939119	0.656991	0.015737
 163	8.1000e-02	6.4971	16.512322	0.000317	3.172145	1.074752	0.025743
 164	8.1500e-02	6.5854	16.579460	0.000165	1.654574	0.560585	0.013427
 165	8.2000e-02	6.6175	16.651301	0.000177	1.770500	0.599862	0.014368
 166	8.2500e-02	6.6351	16.803535	0.000375	3.751773	1.271135	0.030447
 167	8.3000e-02	6.6816	16.877514	0.000182	1.823193	0.617715	0.014796
 168	8.3500e-02	6.7217	16.976723	0.000244	2.444976	0.828380	0.019842
 169	8.4000e-02	6.7426	17.080636	0.000256	2.560901	0.867657	0.020783
 170	8.4500e-02	6.8116	17.200799	0.000296	2.961372	1.003340	0.024033
 171	8.5000e-02	6.8501	17.266653	0.000162	1.622958	0.549873	0.013171
 172	8.5500e-02	6.8741	17.378691	0.000276	2.761136	0.935498	0.022408
 173	8.6000e-02	6.9287	17.485170	0.000262	2.624134	0.889080	0.021296
 174	8.6500e-02	6.9832	17.578820	0.000231	2.307973	0.781962	0.018730
 175	8.7000e-02	7.0105	17.667338	0.000218	2.181509	0.739115	0.017704
 176	8.7500e-02	7.0362	17.780659	0.000279	2.792753	0.946210	0.022664
 177	8.8000e-02	7.0843	17.866184	0.000211	2.107738	0.714121	0.017105
 178	8.8500e-02	7.1260	17.963255	0.000239	2.392282	0.810527	0.019414
 179	8.9000e-02	7.1228	18.085128	-0.000300	-3.003526	-1.017622	0.024375
 180	8.9500e-02	7.1966	18.182199	0.000239	2.392282	0.810527	0.019414
 181	9.0000e-02	7.2463	18.272428	0.000222	2.223663	0.753398	0.018046
 182	9.0500e-02	7.2640	18.382755	0.000272	2.718982	0.921216	0.022065
 183	9.1000e-02	7.3153	18.493510	0.000273	2.729520	0.924787	0.022151
 184	9.1500e-02	7.3634	18.603410	0.000271	2.708443	0.917645	0.021980
 185	9.2000e-02	7.4051	18.677389	0.000182	1.823193	0.617715	0.014796
 186	9.2500e-02	7.4276	18.757355	0.000197	1.970735	0.667703	0.015993
 187	9.3000e-02	7.4821	18.851433	0.000232	2.318512	0.785533	0.018816
 188	9.3500e-02	7.5239	18.964753	0.000279	2.792753	0.946210	0.022664
 189	9.4000e-02	7.5511	19.038305	0.000181	1.812654	0.614144	0.014710
 190	9.4500e-02	7.5912	19.172152	0.000330	3.298610	1.117599	0.026769
 191	9.5000e-02	7.6329	19.258104	0.000212	2.118276	0.717691	0.017191
 192	9.5500e-02	7.6907	19.328662	0.000174	1.738884	0.589150	0.014112
 193	9.6000e-02	7.6891	19.476621	-0.000365	-3.646386	-1.235429	0.029592
 194	9.6500e-02	7.7581	19.540765	0.000158	1.580803	0.535591	0.012829
 195	9.7000e-02	7.8126	19.640401	0.000246	2.455514	0.831951	0.019927
 196	9.7500e-02	7.8335	19.756288	0.000286	2.855985	0.967634	0.023177
 197	9.8000e-02	7.8912	19.840530	0.000208	2.076122	0.703409	0.016848
 198	9.8500e-02	7.9329	19.949147	0.000268	2.676827	0.906934	0.021723
 199	9.9000e-02	7.9522	20.043224	0.000232	2.318512	0.785533	0.018816
 200	9.9500e-02	7.9891	20.133026	0.000221	2.213125	0.749827	0.017960
 201	1.0000e-01	8.0500	20.221544	0.000218	2.181509	0.739115	0.017704
 202	1.0050e-01	8.0885	20.331016	0.000270	2.697904	0.914075	0.021894
 203	1.0100e-01	8.1062	20.435357	0.000257	2.571440	0.871227	0.020868
 204	1.0150e-01	8.1623	20.515750	0.000198	1.981273	0.671274	0.016079
 205	1.0200e-01	8.2040	20.600420	0.000209	2.086660	0.706980	0.016934
 206	1.0250e-01	8.2313	20.685517	0.000210	2.097199	0.710550	0.017019
 207	1.0300e-01	8.2634	20.832621	0.000363	3.625309	1.228288	0.029421
 208	1.0350e-01	8.3228	20.895054	0.000154	1.538649	0.521308	0.012487
 209	1.0400e-01	8.3821	20.995546	0.000248	2.476592	0.839092	0.020098
 210	1.0450e-01	8.4190	21.074656	0.000195	1.949657	0.660562	0.015822
 211	1.0500e-01	8.4495	21.204227	0.000319	3.193223	1.081893	0.025914
 212	1.0550e-01	8.4463	21.295739	-0.000226	-2.255279	-0.764109	0.018302
 213	1.0600e-01	8.5281	21.400934	0.000259	2.592517	0.878369	0.021039
 214	1.0650e-01	8.5842	21.486460	0.000211	2.107738	0.714121	0.017105
 215	1.0700e-01	8.5923	21.587379	0.000249	2.487131	0.842663	0.020184
 216	1.0750e-01	8.6452	21.673759	0.000213	2.128815	0.721262	0.017276
 217	1.0800e-01	8.6645	21.766982	0.000230	2.297434	0.778392	0.018644
 218	1.0850e-01	8.7607	21.832836	0.000162	1.622958	0.549873	0.013171
 219	1.0900e-01	8.7639	21.954282	0.000299	2.992988	1.014052	0.024289
 220	1.0950e-01	8.8072	22.054346	0.000247	2.466053	0.835521	0.020013
 221	1.1000e-01	8.8345	22.144575	0.000222	2.223663	0.753398	0.018046
 222	1.1050e-01	8.8858	22.214278	0.000172	1.717806	0.582009	0.013941
 223	1.1100e-01	8.9211	22.345131	0.000322	3.224839	1.092605	0.026171
 224	1.1150e-01	8.9693	22.407992	0.000155	1.549187	0.524879	0.012572
 225	1.1200e-01	9.0158	22.494800	0.000214	2.139354	0.724833	0.017362
 226	1.1250e-01	9.0543	22.611114	0.000287	2.866523	0.971204	0.023263
 227	1.1300e-01	9.0703	22.713316	0.000252	2.518747	0.853374	0.020440
 228	1.1350e-01	9.1409	22.796276	0.000204	2.044506	0.692697	0.016592
 229	1.1400e-01	9.1730	22.890781	0.000233	2.329050	0.789104	0.018901
 230	1.1450e-01	9.1874	22.987852	0.000239	2.392282	0.810527	0.019414
 231	1.1500e-01	9.2468	23.073805	0.000212	2.118276	0.717691	0.017191
 232	1.1550e-01	9.2693	23.193540	0.000295	2.950833	0.999769	0.023947
 233	1.1600e-01	9.3350	23.272223	0.000194	1.939119	0.656991	0.015737
 234	1.1650e-01	9.3607	23.338932	0.000164	1.644035	0.557014	0.013342
 235	1.1700e-01	9.3928	23.456957	0.000291	2.908678	0.985487	0.023605
 236	1.1750e-01	9.4233	23.551890	0.000234	2.339589	0.792674	0.018987
 237	1.1800e-01	9.4778	23.654092	0.000252	2.518747	0.853374	0.020440
 238	1.1850e-01	9.5211	23.735768	0.000201	2.012890	0.681985	0.016335
 239	1.1900e-01	9.5660	23.811886	0.000188	1.875887	0.635568	0.015223
 240	1.1950e-01	9.5869	23.916226	0.000257	2.571440	0.871227	0.020868
 241	1.2000e-01	9.6270	24.038955	0.000302	3.024604	1.024763	0.024546
 242	1.2050e-01	9.6896	24.122342	0.000206	2.055044	0.696268	0.016677
 243	1.2100e-01	9.7281	24.197604	0.000185	1.854809	0.628426	0.015052
 244	1.2150e-01	9.7313	24.342996	0.000358	3.583154	1.214006	0.029079
 245	1.2200e-01	9.8115	24.384904	0.000103	1.032791	0.349919	0.008381
 246	1.2250e-01	9.8436	24.467008	0.000202	2.023428	0.685556	0.016421
 247	1.2300e-01	9.8660	24.571776	0.000258	2.581979	0.874798	0.020954
 248	1.2350e-01	9.9126	24.654308	0.000203	2.033967	0.689127	0.016506
 249	1.2400e-01	9.9382	24.769339	0.000283	2.834907	0.960493	0.023006
 250	1.2450e-01	10.0200	24.840325	0.000175	1.749422	0.592720	0.014197
 251	1.2500e-01	10.0473	24.925850	0.000211	2.107738	0.714121	0.017105
 252	1.2550e-01	10.1019	25.010519	0.000209	2.086660	0.706980	0.016934
 253	1.2600e-01	10.1371	25.116571	0.000261	2.613595	0.885510	0.021210
 254	1.2650e-01	10.1933	25.188839	0.000178	1.781038	0.603432	0.014454
 255	1.2700e-01	10.1981	25.309857	0.000298	2.982449	1.010481	0.024204
 256	1.2750e-01	10.2382	25.388540	0.000194	1.939119	0.656991	0.015737
 257	1.2800e-01	10.2928	25.488604	0.000247	2.466053	0.835521	0.020013
 258	1.2850e-01	10.3152	25.568143	0.000196	1.960196	0.664132	0.015908
 259	1.2900e-01	10.3682	25.661365	0.000230	2.297434	0.778392	0.018644
 260	1.2950e-01	10.4259	25.741759	0.000198	1.981273	0.671274	0.016079
 261	1.3000e-01	10.4660	25.838402	0.000238	2.381744	0.806957	0.019329
 262	1.3050e-01	10.4676	25.947019	0.000268	2.676827	0.906934	0.021723
 263	1.3100e-01	10.5350	26.019715	0.000179	1.791577	0.607003	0.014539
 264	1.3150e-01	10.5494	26.127477	0.000266	2.655750	0.899792	0.021552
 265	1.3200e-01	10.6056	26.202739	0.000185	1.854809	0.628426	0.015052
 266	1.3250e-01	10.6425	26.316059	0.000279	2.792753	0.946210	0.022664
 267	1.3300e-01	10.6714	26.415696	0.000246	2.455514	0.831951	0.019927
 268	1.3350e-01	10.7083	26.520892	0.000259	2.592517	0.878369	0.021039
 269	1.3400e-01	10.7724	26.570496	0.000122	1.222488	0.414190	0.009921
 270	1.3450e-01	10.8077	26.680396	0.000271	2.708443	0.917645	0.021980
 271	1.3500e-01	10.8558	26.759507	0.000195	1.949657	0.660562	0.015822
 272	1.3550e-01	10.8719	26.859571	0.000247	2.466053	0.835521	0.020013
 273	1.3600e-01	10.9152	26.958780	0.000244	2.444976	0.828380	0.019842
 274	1.3650e-01	10.9681	27.027628	0.000170	1.696729	0.574867	0.013770
 275	1.3700e-01	11.0355	27.097758	0.000173	1.728345	0.585579	0.014026
 276	1.3750e-01	11.0355	27.207658	-0.000271	-2.708443	-0.917645	0.021980
 277	1.3800e-01	11.0869	27.285486	0.000192	1.918041	0.649850	0.015566
 278	1.3850e-01	11.1286	27.393675	0.000267	2.666288	0.903363	0.021638
 279	1.3900e-01	11.1430	27.476634	0.000204	2.044506	0.692697	0.016592
 280	1.3950e-01	11.1959	27.569857	0.000230	2.297434	0.778392	0.018644
 281	1.4000e-01	11.2409	27.643408	0.000181	1.812654	0.614144	0.014710
 282	1.4050e-01	11.2778	27.748604	0.000259	2.592517	0.878369	0.021039
 283	1.4100e-01	11.3243	27.845675	0.000239	2.392282	0.810527	0.019414
 284	1.4150e-01	11.3756	27.914095	0.000169	1.686190	0.571297	0.013684
 285	1.4200e-01	11.3949	28.009883	0.000236	2.360666	0.799815	0.019158
 286	1.4250e-01	11.4350	28.130473	0.000297	2.971910	1.006910	0.024118
 287	1.4300e-01	11.4879	28.195900	0.000161	1.612419	0.546302	0.013085
 288	1.4350e-01	11.5184	28.280998	0.000210	2.097199	0.710550	0.017019
 289	1.4400e-01	11.5505	28.376358	0.000235	2.350128	0.796245	0.019072
 290	1.4450e-01	11.5842	28.455896	0.000196	1.960196	0.664132	0.015908
 291	1.4500e-01	11.6323	28.549974	0.000232	2.318512	0.785533	0.018816
 292	1.4550e-01	11.6788	28.637637	0.000216	2.160431	0.731974	0.017533
 293	1.4600e-01	11.7253	28.731287	0.000231	2.307973	0.781962	0.018730
 294	1.4650e-01	11.7622	28.807832	0.000189	1.886425	0.639138	0.015309
 295	1.4700e-01	11.7911	28.923291	0.000285	2.845446	0.964063	0.023092
 296	1.4750e-01	11.8280	28.988290	0.000160	1.601881	0.542732	0.013000
 297	1.4800e-01	11.9002	29.079802	0.000226	2.255279	0.764109	0.018302
 298	1.4850e-01	11.9339	29.167465	0.000216	2.160431	0.731974	0.017533
 299	1.4900e-01	11.9772	29.233747	0.000163	1.633497	0.553444	0.013256
 300	1.4950e-01	11.9836	29.335094	0.000250	2.497669	0.846233	0.020269
 301	1.5000e-01	12.0494	29.425750	0.000223	2.234202	0.756968	0.018131
 302	1.5050e-01	12.1136	29.517262	0.000226	2.255279	0.764109	0.018302
 303	1.5100e-01	12.1232	29.585255	0.000168	1.675652	0.567726	0.013598
 304	1.5150e-01	12.1793	29.681043	0.000236	2.360666	0.799815	0.019158
 305	1.5200e-01	12.2002	29.789232	0.000267	2.666288	0.903363	0.021638
 306	1.5250e-01	12.2579	29.857224	0.000168	1.675652	0.567726	0.013598
 307	1.5300e-01	12.2612	29.950874	0.000231	2.307973	0.781962	0.018730
 308	1.5350e-01	12.3221	30.038537	0.000216	2.160431	0.731974	0.017533
 309	1.5400e-01	12.3799	30.117220	0.000194	1.939119	0.656991	0.015737
 310	1.5450e-01	12.3863	30.215147	0.000241	2.413360	0.817668	0.019585
 311	1.5500e-01	12.4569	30.311790	0.000238	2.381744	0.806957	0.019329
 312	1.5550e-01	12.4793	30.395605	0.000207	2.065583	0.699838	0.016763
 313	1.5600e-01	12.5178	30.469584	0.000182	1.823193	0.617715	0.014796
 314	1.5650e-01	12.5307	30.574780	0.000259	2.592517	0.878369	0.021039
 315	1.5700e-01	12.5836	30.666291	0.000226	2.255279	0.764109	0.018302
 316	1.5750e-01	12.6670	30.725731	0.000146	1.464878	0.496314	0.011888
 317	1.5800e-01	12.6702	30.828789	0.000254	2.539824	0.860516	0.020612
 318	1.5850e-01	12.7328	30.895498	0.000164	1.644035	0.557014	0.013342
 319	1.5900e-01	12.7585	31.001122	0.000260	2.603056	0.881939	0.021125
 320	1.5950e-01	12.8162	31.065266	0.000158	1.580803	0.535591	0.012829
 321	1.6000e-01	12.8499	31.149936	0.000209	2.086660	0.706980	0.016934
 322	1.6050e-01	12.8724	31.259835	0.000271	2.708443	0.917645	0.021980
 323	1.6100e-01	12.9173	31.333814	0.000182	1.823193	0.617715	0.014796
 324	1.6150e-01	12.9381	31.437727	0.000256	2.560901	0.867657	0.020783
 325	1.6200e-01	12.9879	31.514272	0.000189	1.886425	0.639138	0.015309
 326	1.6250e-01	13.0360	31.604074	0.000221	2.213125	0.749827	0.017960
 327	1.6300e-01	13.1034	31.665224	0.000151	1.507032	0.510596	0.012230
 328	1.6350e-01	13.1371	31.746900	0.000201	2.012890	0.681985	0.016335
 329	1.6400e-01	13.1675	31.849103	0.000252	2.518747	0.853374	0.020440
 330	1.6450e-01	13.1980	31.932490	0.000206	2.055044	0.696268	0.016677
 331	1.6500e-01	13.2429	32.034265	0.000251	2.508208	0.849804	0.020355
 332	1.6550e-01	13.3119	32.096698	0.000154	1.538649	0.521308	0.012487
 333	1.6600e-01	13.3007	32.173243	-0.000189	-1.886425	-0.639138	0.015309
 334	1.6650e-01	13.3649	32.263044	0.000221	2.213125	0.749827	0.017960
 335	1.6700e-01	13.4178	32.367812	0.000258	2.581979	0.874798	0.020954
 336	1.6750e-01	13.4451	32.434522	0.000164	1.644035	0.557014	0.013342
 337	1.6800e-01	13.4691	32.522613	0.000217	2.170970	0.735545	0.017618
 338	1.6850e-01	13.5189	32.596592	0.000182	1.823193	0.617715	0.014796
 339	1.6900e-01	13.5526	32.692380	0.000236	2.360666	0.799815	0.019158
 340	1.6950e-01	13.5943	32.793727	0.000250	2.497669	0.846233	0.020269
 341	1.7000e-01	13.6215	32.874121	0.000198	1.981273	0.671274	0.016079
 342	1.7050e-01	13.6921	32.935271	0.000151	1.507032	0.510596	0.012230
 343	1.7100e-01	13.7194	33.027638	0.000228	2.276357	0.771251	0.018473
 344	1.7150e-01	13.7579	33.129413	0.000251	2.508208	0.849804	0.020355
 345	1.7200e-01	13.7723	33.214510	0.000210	2.097199	0.710550	0.017019
 346	1.7250e-01	13.8044	33.311154	0.000238	2.381744	0.806957	0.019329
 347	1.7300e-01	13.8702	33.380429	0.000171	1.707268	0.578438	0.013855
 348	1.7350e-01	13.8991	33.474079	0.000231	2.307973	0.781962	0.018730
 349	1.7400e-01	13.9552	33.550196	0.000188	1.875887	0.635568	0.015223
 350	1.7450e-01	13.9921	33.610491	0.000149	1.485955	0.503455	0.012059
 351	1.7500e-01	14.0435	33.693451	0.000204	2.044506	0.692697	0.016592
 352	1.7550e-01	14.0996	33.804206	0.000273	2.729520	0.924787	0.022151
 353	1.7600e-01	14.0932	33.875619	-0.000176	-1.759961	-0.596291	0.014283
 354	1.7650e-01	14.1558	33.950881	0.000185	1.854809	0.628426	0.015052
 355	1.7700e-01	14.2087	34.035123	0.000208	2.076122	0.703409	0.016848
 356	1.7750e-01	14.2311	34.124069	0.000219	2.192047	0.742686	0.017789
 357	1.7800e-01	14.2921	34.217719	0.000231	2.307973	0.781962	0.018730
 358	1.7850e-01	14.3274	34.286567	0.000170	1.696729	0.574867	0.013770
 359	1.7900e-01	14.3659	34.370809	0.000208	2.076122	0.703409	0.016848
 360	1.7950e-01	14.4108	34.450775	0.000197	1.970735	0.667703	0.015993
 361	1.8000e-01	14.4301	34.540149	0.000220	2.202586	0.746256	0.017875
 362	1.8050e-01	14.4718	34.625246	0.000210	2.097199	0.710550	0.017019
 363	1.8100e-01	14.5295	34.706923	0.000201	2.012890	0.681985	0.016335
 364	1.8150e-01	14.5600	34.780046	0.000180	1.802116	0.610573	0.014625
 365	1.8200e-01	14.5985	34.865999	0.000212	2.118276	0.717691	0.017191
 366	1.8250e-01	14.6274	34.942544	0.000189	1.886425	0.639138	0.015309
 367	1.8300e-01	14.6932	35.024220	0.000201	2.012890	0.681985	0.016335
 368	1.8350e-01	14.7317	35.096489	0.000178	1.781038	0.603432	0.014454
 369	1.8400e-01	14.7589	35.209810	0.000279	2.792753	0.946210	0.022664
 370	1.8450e-01	14.8231	35.264974	0.000136	1.359491	0.460608	0.011033
 371	1.8500e-01	14.8552	35.350499	0.000211	2.107738	0.714121	0.017105
 372	1.8550e-01	14.8696	35.461254	0.000273	2.729520	0.924787	0.022151
 373	1.8600e-01	14.9178	35.518128	0.000140	1.401646	0.474890	0.011375
 374	1.8650e-01	14.9755	35.595528	0.000191	1.907503	0.646279	0.015480
 375	1.8700e-01	15.0204	35.689178	0.000231	2.307973	0.781962	0.018730
 376	1.8750e-01	15.0333	35.795229	0.000261	2.613595	0.885510	0.021210
 377	1.8800e-01	15.0942	35.853386	0.000143	1.433262	0.485602	0.011631
 378	1.8850e-01	15.1247	35.941904	0.000218	2.181509	0.739115	0.017704
 379	1.8900e-01	15.1616	36.015456	0.000181	1.812654	0.614144	0.014710
 380	1.8950e-01	15.2049	36.109106	0.000231	2.307973	0.781962	0.018730
 381	1.9000e-01	15.2129	36.183085	0.000182	1.823193	0.617715	0.014796
 382	1.9050e-01	15.2899	36.263479	0.000198	1.981273	0.671274	0.016079
 383	1.9100e-01	15.3317	36.352425	0.000219	2.192047	0.742686	0.017789
 384	1.9150e-01	15.3605	36.408871	0.000139	1.391107	0.471320	0.011289
 385	1.9200e-01	15.3862	36.510218	0.000250	2.497669	0.846233	0.020269
 386	1.9250e-01	15.4504	36.593605	0.000206	2.055044	0.696268	0.016677
 387	1.9300e-01	15.4744	36.687683	0.000232	2.318512	0.785533	0.018816
 388	1.9350e-01	15.5418	36.753965	0.000163	1.633497	0.553444	0.013256
 389	1.9400e-01	15.5611	36.812122	0.000143	1.433262	0.485602	0.011631
 390	1.9450e-01	15.6108	36.944258	0.000326	3.256455	1.103317	0.026427
 391	1.9500e-01	15.6140	37.009257	0.000160	1.601881	0.542732	0.013000
 392	1.9550e-01	15.6653	37.077677	0.000169	1.686190	0.571297	0.013684
 393	1.9600e-01	15.7070	37.173893	0.000237	2.371205	0.803386	0.019243
 394	1.9650e-01	15.7744	37.254286	0.000198	1.981273	0.671274	0.016079
 395	1.9700e-01	15.8177	37.311588	0.000141	1.412184	0.478461	0.011460
 396	1.9750e-01	15.8274	37.405238	0.000231	2.307973	0.781962	0.018730
 397	1.9800e-01	15.8675	37.485204	0.000197	1.970735	0.667703	0.015993
 398	1.9850e-01	15.9348	37.541223	0.000138	1.380568	0.467749	0.011204
 399	1.9900e-01	15.9493	37.644281	0.000254	2.539824	0.860516	0.020612
 400	1.9950e-01	16.0215	37.709707	0.000161	1.612419	0.546302	0.013085
 401	2.0000e-01	16.0487	37.803785	0.000232	2.318512	0.785533	0.018816
 402	2.0050e-01	16.0792	37.900000	0.000237	2.371205	0.803386	0.019243
 403	2.0100e-01	16.1113	37.969276	0.000171	1.707268	0.578438	0.013855
 404	2.0150e-01	16.1626	38.050097	0.000199	1.991812	0.674844	0.016164
 405	2.0200e-01	16.1739	38.136905	0.000214	2.139354	0.724833	0.017362
 406	2.0250e-01	16.1995	38.214305	0.000191	1.907503	0.646279	0.015480
 407	2.0300e-01	16.2765	38.270752	0.000139	1.391107	0.471320	0.011289
 408	2.0350e-01	16.3279	38.370388	0.000246	2.455514	0.831951	0.019927
 409	2.0400e-01	16.3680	38.438808	0.000169	1.686190	0.571297	0.013684
 410	2.0450e-01	16.3985	38.521340	0.000203	2.033967	0.689127	0.016506
 411	2.0500e-01	16.4322	38.605582	0.000208	2.076122	0.703409	0.016848
 412	2.0550e-01	16.4755	38.672292	0.000164	1.644035	0.557014	0.013342
 413	2.0600e-01	16.5188	38.727455	0.000136	1.359491	0.460608	0.011033
 414	2.0650e-01	16.5605	38.841204	0.000280	2.803291	0.949781	0.022750
 415	2.0700e-01	16.5878	38.903209	0.000153	1.528110	0.517738	0.012401
 416	2.0750e-01	16.6423	38.988734	0.000211	2.107738	0.714121	0.017105
 417	2.0800e-01	16.6728	39.074259	0.000211	2.107738	0.714121	0.017105
 418	2.0850e-01	16.7305	39.143962	0.000172	1.717806	0.582009	0.013941
 419	2.0900e-01	16.7835	39.226066	0.000202	2.023428	0.685556	0.016421
 420	2.0950e-01	16.7867	39.301328	0.000185	1.854809	0.628426	0.015052
 421	2.1000e-01	16.8621	39.379584	0.000193	1.928580	0.653421	0.015651
 422	2.1050e-01	16.8589	39.464254	-0.000209	-2.086660	-0.706980	0.016934
 423	2.1100e-01	16.9054	39.568594	0.000257	2.571440	0.871227	0.020868
 424	2.1150e-01	16.9567	39.634876	0.000163	1.633497	0.553444	0.013256
 425	2.1200e-01	16.9968	39.712276	0.000191	1.907503	0.646279	0.015480
 426	2.1250e-01	17.0610	39.763164	0.000125	1.254104	0.424902	0.010177
 427	2.1300e-01	17.1043	39.835860	0.000179	1.791577	0.607003	0.014539
 428	2.1350e-01	17.1380	39.934214	0.000242	2.423898	0.821239	0.019671
 429	2.1400e-01	17.1605	40.012042	0.000192	1.918041	0.649850	0.015566
 430	2.1450e-01	17.2086	40.096284	0.000208	2.076122	0.703409	0.016848
 431	2.1500e-01	17.2760	40.153586	0.000141	1.412184	0.478461	0.011460
 432	2.1550e-01	17.2567	40.245953	-0.000228	-2.276357	-0.771251	0.018473
 433	2.1600e-01	17.3145	40.349438	0.000255	2.550363	0.864086	0.020697
 434	2.1650e-01	17.3434	40.402464	0.000131	1.306797	0.442755	0.010605
 435	2.1700e-01	17.3995	40.477726	0.000185	1.854809	0.628426	0.015052
 436	2.1750e-01	17.4508	40.540159	0.000154	1.538649	0.521308	0.012487
 437	2.1800e-01	17.4685	40.649631	0.000270	2.697904	0.914075	0.021894
 438	2.1850e-01	17.5022	40.727886	0.000193	1.928580	0.653421	0.015651
 439	2.1900e-01	17.5696	40.813839	0.000212	2.118276	0.717691	0.017191
 440	2.1950e-01	17.6161	40.863871	0.000123	1.233027	0.417761	0.010006
 441	2.2000e-01	17.6401	40.945548	0.000201	2.012890	0.681985	0.016335
 442	2.2050e-01	17.7059	41.016533	0.000175	1.749422	0.592720	0.014197
 443	2.2100e-01	17.7236	41.095217	0.000194	1.939119	0.656991	0.015737
 444	2.2150e-01	17.7508	41.178176	0.000204	2.044506	0.692697	0.016592
 445	2.2200e-01	17.7781	41.265411	0.000215	2.149893	0.728403	0.017447
 446	2.2250e-01	17.8503	41.324851	0.000146	1.464878	0.496314	0.011888
 447	2.2300e-01	17.8888	41.411659	0.000214	2.139354	0.724833	0.017362
 448	2.2350e-01	17.9353	41.472382	0.000150	1.496494	0.507026	0.012145
 449	2.2400e-01	17.9385	41.557479	0.000210	2.097199	0.710550	0.017019
 450	2.2450e-01	18.0123	41.632741	0.000185	1.854809	0.628426	0.015052
 451	2.2500e-01	18.0428	41.713990	0.000200	2.002351	0.678415	0.016250
 452	2.2550e-01	18.0765	41.805502	0.000226	2.255279	0.764109	0.018302
 453	2.2600e-01	18.0925	41.876488	0.000175	1.749422	0.592720	0.014197
 454	2.2650e-01	18.1711	41.949184	0.000179	1.791577	0.607003	0.014539
 455	2.2700e-01	18.2225	42.012045	0.000155	1.549187	0.524879	0.012572
 456	2.2750e-01	18.2498	42.069775	0.000142	1.422723	0.482032	0.011546
 457	2.2800e-01	18.2578	42.198062	0.000316	3.161607	1.071181	0.025658
 458	2.2850e-01	18.3107	42.273752	0.000187	1.865348	0.631997	0.015138
 459	2.2900e-01	18.3781	42.323784	0.000123	1.233027	0.417761	0.010006
 460	2.2950e-01	18.4070	42.395625	0.000177	1.770500	0.599862	0.014368
 461	2.3000e-01	18.4423	42.511511	0.000286	2.855985	0.967634	0.023177
 462	2.3050e-01	18.4824	42.550425	0.000096	0.959021	0.324925	0.007783
 463	2.3100e-01	18.5289	42.641082	0.000223	2.234202	0.756968	0.018131
 464	2.3150e-01	18.5770	42.692397	0.000126	1.264643	0.428473	0.010263
 465	2.3200e-01	18.5915	42.787330	0.000234	2.339589	0.792674	0.018987
 466	2.3250e-01	18.6364	42.870289	0.000204	2.044506	0.692697	0.016592
 467	2.3300e-01	18.6861	42.939564	0.000171	1.707268	0.578438	0.013855
 468	2.3350e-01	18.7262	43.013544	0.000182	1.823193	0.617715	0.014796
 469	2.3400e-01	18.7743	43.081536	0.000168	1.675652	0.567726	0.013598
 470	2.3450e-01	18.8177	43.159364	0.000192	1.918041	0.649850	0.015566
 471	2.3500e-01	18.8497	43.247027	0.000216	2.160431	0.731974	0.017533
 472	2.3550e-01	18.9011	43.311598	0.000159	1.591342	0.539161	0.012914
 473	2.3600e-01	18.9219	43.387716	0.000188	1.875887	0.635568	0.015223
 474	2.3650e-01	18.9476	43.477089	0.000220	2.202586	0.746256	0.017875
 475	2.3700e-01	19.0053	43.557055	0.000197	1.970735	0.667703	0.015993
 476	2.3750e-01	19.0663	43.620344	0.000156	1.559726	0.528449	0.012658
 477	2.3800e-01	19.0904	43.679356	0.000145	1.454339	0.492743	0.011802
 478	2.3850e-01	19.1144	43.770440	0.000224	2.244741	0.760539	0.018217
 479	2.3900e-01	19.1658	43.844847	0.000183	1.833732	0.621285	0.014881
 480	2.3950e-01	19.2043	43.913695	0.000170	1.696729	0.574867	0.013770
 481	2.4000e-01	19.2540	43.989812	0.000188	1.875887	0.635568	0.015223
 482	2.4050e-01	19.3085	44.061225	0.000176	1.759961	0.596291	0.014283
 483	2.4100e-01	19.3342	44.160007	0.000243	2.434437	0.824810	0.019756
 484	2.4150e-01	19.3663	44.218592	0.000144	1.443800	0.489173	0.011717
 485	2.4200e-01	19.4048	44.308393	0.000221	2.213125	0.749827	0.017960
 486	2.4250e-01	19.4096	44.406319	0.000241	2.413360	0.817668	0.019585
 487	2.4300e-01	19.4642	44.459345	0.000131	1.306797	0.442755	0.010605
 488	2.4350e-01	19.5283	44.489706	0.000075	0.748247	0.253513	0.006072
 489	2.4400e-01	19.5572	44.594474	0.000258	2.581979	0.874798	0.020954
 490	2.4450e-01	19.5957	44.675723	0.000200	2.002351	0.678415	0.016250
 491	2.4500e-01	19.6583	44.730887	0.000136	1.359491	0.460608	0.011033
 492	2.4550e-01	19.6743	44.825392	0.000233	2.329050	0.789104	0.018901
 493	2.4600e-01	19.7289	44.882266	0.000140	1.401646	0.474890	0.011375
 494	2.4650e-01	19.7674	44.974205	0.000227	2.265818	0.767680	0.018388
 495	2.4700e-01	19.8123	45.004994	0.000076	0.758786	0.257084	0.006158
 496	2.4750e-01	19.8588	45.111045	0.000261	2.613595	0.885510	0.021210
 497	2.4800e-01	19.8941	45.165782	0.000135	1.348952	0.457037	0.010947
 498	2.4850e-01	19.9166	45.259004	0.000230	2.297434	0.778392	0.018644
 499	2.4900e-01	19.9647	45.331700	0.000179	1.791577	0.607003	0.014539
 500	2.4950e-01	20.0080	45.393706	0.000153	1.528110	0.517738	0.012401
 501	2.5000e-01	20.0369	45.486928	0.000230	2.297434	0.778392	0.018644
 502	2.5050e-01	19.9871	45.477948	0.000022	0.221312	0.074983	-0.001796
 503	2.5100e-01	19.9502	45.433475	0.000110	1.096024	0.371343	-0.008895
 504	2.5150e-01	19.9005	45.388574	0.000111	1.106562	0.374913	-0.008980
 505	2.5200e-01	19.8572	45.328279	0.000149	1.485955	0.503455	-0.012059
 506	2.5250e-01	19.8347	45.257293	0.000175	1.749422	0.592720	-0.014197
 507	2.5300e-01	19.7770	45.194005	0.000156	1.559726	0.528449	-0.012658
 508	2.5350e-01	19.7369	45.148249	0.000113	1.127640	0.382055	-0.009151
 509	2.5400e-01	19.7048	45.078974	0.000171	1.707268	0.578438	-0.013855
 510	2.5450e-01	19.6390	44.999008	0.000197	1.970735	0.667703	-0.015993
 511	2.5500e-01	19.6085	44.947265	0.000128	1.275181	0.432043	-0.010349
 512	2.5550e-01	19.6005	44.871148	0.000188	1.875887	0.635568	-0.015223
 513	2.5600e-01	19.5187	44.849766	0.000053	0.526934	0.178530	-0.004276
 514	2.5650e-01	19.5075	44.751840	0.000241	2.413360	0.817668	-0.019585
 515	2.5700e-01	19.4609	44.696677	0.000136	1.359491	0.460608	-0.011033
 516	2.5750e-01	19.4176	44.603027	0.000231	2.307973	0.781962	-0.018730
 517	2.5800e-01	19.4241	44.523916	-0.000195	-1.949657	-0.660562	-0.015822
 518	2.5850e-01	19.3422	44.482436	0.000102	1.022253	0.346349	-0.008296
 519	2.5900e-01	19.3069	44.409740	0.000179	1.791577	0.607003	-0.014539
 520	2.5950e-01	19.2700	44.359280	0.000124	1.243565	0.421331	-0.010092
 521	2.6000e-01	19.2139	44.285729	0.000181	1.812654	0.614144	-0.014710
 522	2.6050e-01	19.1754	44.229282	0.000139	1.391107	0.471320	-0.011289
 523	2.6100e-01	19.1289	44.160862	0.000169	1.686190	0.571297	-0.013684
 524	2.6150e-01	19.0984	44.103133	0.000142	1.422723	0.482032	-0.011546
 525	2.6200e-01	19.0535	44.045403	0.000142	1.422723	0.482032	-0.011546
 526	2.6250e-01	19.0037	43.966720	0.000194	1.939119	0.656991	-0.015737
 527	2.6300e-01	18.9861	43.889748	0.000190	1.896964	0.642709	-0.015395
 528	2.6350e-01	18.9636	43.828597	0.000151	1.507032	0.510596	-0.012230
 529	2.6400e-01	18.8995	43.770868	0.000142	1.422723	0.482032	-0.011546
 530	2.6450e-01	18.8722	43.705014	0.000162	1.622958	0.549873	-0.013171
 531	2.6500e-01	18.8128	43.625048	0.000197	1.970735	0.667703	-0.015993
 532	2.6550e-01	18.7743	43.563042	0.000153	1.528110	0.517738	-0.012401
 533	2.6600e-01	18.7166	43.467254	0.000236	2.360666	0.799815	-0.019158
 534	2.6650e-01	18.6861	43.416794	0.000124	1.243565	0.421331	-0.010092
 535	2.6700e-01	18.6492	43.365907	0.000125	1.254104	0.424902	-0.010177
 536	2.6750e-01	18.6235	43.272257	0.000231	2.307973	0.781962	-0.018730
 537	2.6800e-01	18.5818	43.208113	0.000158	1.580803	0.535591	-0.012829
 538	2.6850e-01	18.5321	43.143542	0.000159	1.591342	0.539161	-0.012914
 539	2.6900e-01	18.4904	43.080681	0.000155	1.549187	0.524879	-0.012572
 540	2.6950e-01	18.4711	43.017820	0.000155	1.549187	0.524879	-0.012572
 541	2.7000e-01	18.4246	42.932722	0.000210	2.097199	0.710550	-0.017019
 542	2.7050e-01	18.4006	42.878414	0.000134	1.338413	0.453467	-0.010862
 543	2.7100e-01	18.3396	42.801014	0.000191	1.907503	0.646279	-0.015480
 544	2.7150e-01	18.2883	42.728317	0.000179	1.791577	0.607003	-0.014539
 545	2.7200e-01	18.2674	42.652628	0.000187	1.865348	0.631997	-0.015138
 546	2.7250e-01	18.2209	42.591050	0.000152	1.517571	0.514167	-0.012316
 547	2.7300e-01	18.2016	42.513222	0.000192	1.918041	0.649850	-0.015566
 548	2.7350e-01	18.1503	42.448651	0.000159	1.591342	0.539161	-0.012914
 549	2.7400e-01	18.1134	42.377665	0.000175	1.749422	0.592720	-0.014197
 550	2.7450e-01	18.0316	42.332764	0.000111	1.106562	0.374913	-0.008980
 551	2.7500e-01	18.0187	42.241252	0.000226	2.255279	0.764109	-0.018302
 552	2.7550e-01	17.9867	42.173260	0.000168	1.675652	0.567726	-0.013598
 553	2.7600e-01	17.9466	42.107833	0.000161	1.612419	0.546302	-0.013085
 554	2.7650e-01	17.8936	42.047538	0.000149	1.485955	0.503455	-0.012059
 555	2.7700e-01	17.8728	41.944480	0.000254	2.539824	0.860516	-0.020612
 556	2.7750e-01	17.8230	41.904711	0.000098	0.980098	0.332066	-0.007954
 557	2.7800e-01	17.8054	41.817903	0.000214	2.139354	0.724833	-0.017362
 558	2.7850e-01	17.7284	41.768299	0.000122	1.222488	0.414190	-0.009921
 559	2.7900e-01	17.7043	41.683629	0.000209	2.086660	0.706980	-0.016934
 560	2.7950e-01	17.6674	41.619485	0.000158	1.580803	0.535591	-0.012829
 561	2.8000e-01	17.6177	41.552776	0.000164	1.644035	0.557014	-0.013342
 562	2.8050e-01	17.6032	41.458270	0.000233	2.329050	0.789104	-0.018901
 563	2.8100e-01	17.5311	41.390278	0.000168	1.675652	0.567726	-0.013598
 564	2.8150e-01	17.4845	41.325707	0.000159	1.591342	0.539161	-0.012914
 565	2.8200e-01	17.4653	41.269260	0.000139	1.391107	0.471320	-0.011289
 566	2.8250e-01	17.4059	41.183735	0.000211	2.107738	0.714121	-0.017105
 567	2.8300e-01	17.3738	41.111894	0.000177	1.770500	0.599862	-0.014368
 568	2.8350e-01	17.3337	41.035777	0.000188	1.875887	0.635568	-0.015223
 569	2.8400e-01	17.2824	40.990021	0.000113	1.127640	0.382055	-0.009151
 570	2.8450e-01	17.2439	40.912193	0.000192	1.918041	0.649850	-0.015566
 571	2.8500e-01	17.2102	40.840779	0.000176	1.759961	0.596291	-0.014283
 572	2.8550e-01	17.1797	40.774498	0.000163	1.633497	0.553444	-0.013256
 573	2.8600e-01	17.1573	40.697097	0.000191	1.907503	0.646279	-0.015480
 574	2.8650e-01	17.0979	40.601309	0.000236	2.360666	0.799815	-0.019158
 575	2.8700e-01	17.0466	40.540587	0.000150	1.496494	0.507026	-0.012145
 576	2.8750e-01	17.0177	40.485851	0.000135	1.348952	0.457037	-0.010947
 577	2.8800e-01	16.9840	40.396904	0.000219	2.192047	0.742686	-0.017789
 578	2.8850e-01	16.9343	40.326346	0.000174	1.738884	0.589150	-0.014112
 579	2.8900e-01	16.8781	40.265623	0.000150	1.496494	0.507026	-0.012145
 580	2.8950e-01	16.8685	40.183519	0.000202	2.023428	0.685556	-0.016421
 581	2.9000e-01	16.8220	40.103126	0.000198	1.981273	0.671274	-0.016079
 582	2.9050e-01	16.7594	40.075330	0.000069	0.685015	0.232089	-0.005559
 583	2.9100e-01	16.7273	39.983818	0.000226	2.255279	0.764109	-0.018302
 584	2.9150e-01	16.6760	39.891451	0.000228	2.276357	0.771251	-0.018473
 585	2.9200e-01	16.6503	39.853393	0.000094	0.937943	0.317784	-0.007612
 586	2.9250e-01	16.5974	39.766585	0.000214	2.139354	0.724833	-0.017362
 587	2.9300e-01	16.5749	39.670369	0.000237	2.371205	0.803386	-0.019243
 588	2.9350e-01	16.5364	39.621620	0.000120	1.201411	0.407049	-0.009750
 589	2.9400e-01	16.4931	39.526259	0.000235	2.350128	0.796245	-0.019072
 590	2.9450e-01	16.4514	39.472806	0.000132	1.317336	0.446326	-0.010691
 591	2.9500e-01	16.4193	39.397544	0.000185	1.854809	0.628426	-0.015052
 592	2.9550e-01	16.3552	39.353071	0.000110	1.096024	0.371343	-0.008895
 593	2.9600e-01	16.3407	39.232481	0.000297	2.971910	1.006910	-0.024118
 594	2.9650e-01	16.3006	39.185442	0.000116	1.159256	0.392766	-0.009408
 595	2.9700e-01	16.2589	39.102483	0.000204	2.044506	0.692697	-0.016592
 596	2.9750e-01	16.2332	39.024227	0.000193	1.928580	0.653421	-0.015651
 597	2.9800e-01	16.1931	38.954097	0.000173	1.728345	0.585579	-0.014026
 598	2.9850e-01	16.1594	38.841631	0.000277	2.771675	0.939069	-0.022493
 599	2.9900e-01	16.1001	38.795020	0.000115	1.148717	0.389196	-0.009322
 600	2.9950e-01	16.0536	38.731304	0.000157	1.570265	0.532020	-0.012743
 601	3.0000e-01	16.0279	38.670581	0.000150	1.496494	0.507026	-0.012145
 602	3.0050e-01	15.9733	38.595747	0.000184	1.844271	0.624856	-0.014967
 603	3.0100e-01	15.9172	38.513643	0.000202	2.023428	0.685556	-0.016421
 604	3.0150e-01	15.8899	38.441802	0.000177	1.770500	0.599862	-0.014368
 605	3.0200e-01	15.8739	38.385355	0.000139	1.391107	0.471320	-0.011289
 606	3.0250e-01	15.8290	38.296409	0.000219	2.192047	0.742686	-0.017789
 607	3.0300e-01	15.7905	38.221575	0.000184	1.844271	0.624856	-0.014967
 608	3.0350e-01	15.7327	38.122793	0.000243	2.434437	0.824810	-0.019756
 609	3.0400e-01	15.6798	38.054373	0.000169	1.686190	0.571297	-0.013684
 610	3.0450e-01	15.6349	38.009045	0.000112	1.117101	0.378484	-0.009066
 611	3.0500e-01	15.5996	37.946184	0.000155	1.549187	0.524879	-0.012572
 612	3.0550e-01	15.5931	37.818752	0.000314	3.140529	1.064040	-0.025486
 613	3.0600e-01	15.5482	37.761450	0.000141	1.412184	0.478461	-0.011460
 614	3.0650e-01	15.4728	37.715694	0.000113	1.127640	0.382055	-0.009151
 615	3.0700e-01	15.4712	37.622044	0.000231	2.307973	0.781962	-0.018730
 616	3.0750e-01	15.4568	37.548065	0.000182	1.823193	0.617715	-0.014796
 617	3.0800e-01	15.3653	37.455270	0.000229	2.286895	0.774821	-0.018559
 618	3.0850e-01	15.3365	37.381719	0.000181	1.812654	0.614144	-0.014710
 619	3.0900e-01	15.2915	37.323134	0.000144	1.443800	0.489173	-0.011717
 620	3.0950e-01	15.2643	37.241458	0.000201	2.012890	0.681985	-0.016335
 621	3.1000e-01	15.2178	37.156360	0.000210	2.097199	0.710550	-0.017019
 622	3.1050e-01	15.1696	37.087940	0.000169	1.686190	0.571297	-0.013684
 623	3.1100e-01	15.1600	37.003270	0.000209	2.086660	0.706980	-0.016934
 624	3.1150e-01	15.0830	36.937844	0.000161	1.612419	0.546302	-0.013085
 625	3.1200e-01	15.0541	36.856595	0.000200	2.002351	0.678415	-0.016250
 626	3.1250e-01	15.0092	36.790313	0.000163	1.633497	0.553444	-0.013256
 627	3.1300e-01	14.9627	36.718472	0.000177	1.770500	0.599862	-0.014368
 628	3.1350e-01	14.9242	36.641927	0.000189	1.886425	0.639138	-0.015309
 629	3.1400e-01	14.8889	36.559395	0.000203	2.033967	0.689127	-0.016506
 630	3.1450e-01	14.8472	36.505087	0.000134	1.338413	0.453467	-0.010862
 631	3.1500e-01	14.8167	36.421700	0.000206	2.055044	0.696268	-0.016677
 632	3.1550e-01	14.7622	36.332754	0.000219	2.192047	0.742686	-0.017789
 633	3.1600e-01	14.7589	36.248512	0.000208	2.076122	0.703409	-0.016848
 634	3.1650e-01	14.7156	36.161276	0.000215	2.149893	0.728403	-0.017447
 635	3.1700e-01	14.6739	36.090290	0.000175	1.749422	0.592720	-0.014197
 636	3.1750e-01	14.6194	36.024864	0.000161	1.612419	0.546302	-0.013085
 637	3.1800e-01	14.5745	35.948746	0.000188	1.875887	0.635568	-0.015223
 638	3.1850e-01	14.5440	35.883320	0.000161	1.612419	0.546302	-0.013085
 639	3.1900e-01	14.5360	35.765723	0.000290	2.898139	0.981916	-0.023519
 640	3.1950e-01	14.4493	35.719112	0.000115	1.148717	0.389196	-0.009322
 641	3.2000e-01	14.4237	35.642567	0.000189	1.886425	0.639138	-0.015309
 642	3.2050e-01	14.3900	35.549344	0.000230	2.297434	0.778392	-0.018644
 643	3.2100e-01	14.3386	35.504871	0.000110	1.096024	0.371343	-0.008895
 644	3.2150e-01	14.3049	35.412077	0.000229	2.286895	0.774821	-0.018559
 645	3.2200e-01	14.2536	35.338525	0.000181	1.812654	0.614144	-0.014710
 646	3.2250e-01	14.2199	35.266256	0.000178	1.781038	0.603432	-0.014454
 647	3.2300e-01	14.1878	35.168330	0.000241	2.413360	0.817668	-0.019585
 648	3.2350e-01	14.1477	35.109746	0.000144	1.443800	0.489173	-0.011717
 649	3.2400e-01	14.0787	35.033628	0.000188	1.875887	0.635568	-0.015223
 650	3.2450e-01	14.0723	34.944255	0.000220	2.202586	0.746256	-0.017875
 651	3.2500e-01	14.0274	34.860440	0.000207	2.065583	0.699838	-0.016763
 652	3.2550e-01	13.9729	34.784750	0.000187	1.865348	0.631997	-0.015138
 653	3.2600e-01	13.9103	34.711626	0.000180	1.802116	0.610573	-0.014625
 654	3.2650e-01	13.8911	34.641068	0.000174	1.738884	0.589150	-0.014112
 655	3.2700e-01	13.8654	34.548274	0.000229	2.286895	0.774821	-0.018559
 656	3.2750e-01	13.7996	34.505083	0.000106	1.064408	0.360631	-0.008638
 657	3.2800e-01	13.8076	34.386631	-0.000292	-2.919217	-0.989057	-0.023690
 658	3.2850e-01	13.7338	34.320777	0.000162	1.622958	0.549873	-0.013171
 659	3.2900e-01	13.6969	34.245942	0.000184	1.844271	0.624856	-0.014967
 660	3.2950e-01	13.6568	34.161273	0.000209	2.086660	0.706980	-0.016934
 661	3.3000e-01	13.6023	34.085583	0.000187	1.865348	0.631997	-0.015138
 662	3.3050e-01	13.5830	34.018018	0.000167	1.665113	0.564155	-0.013513
 663	3.3100e-01	13.5301	33.923941	0.000232	2.318512	0.785533	-0.018816
 664	3.3150e-01	13.4932	33.843975	0.000197	1.970735	0.667703	-0.015993
 665	3.3200e-01	13.4740	33.782397	0.000152	1.517571	0.514167	-0.012316
 666	3.3250e-01	13.4146	33.671214	0.000274	2.740059	0.928357	-0.022237
 667	3.3300e-01	13.4034	33.585689	0.000211	2.107738	0.714121	-0.017105
 668	3.3350e-01	13.3504	33.507861	0.000192	1.918041	0.649850	-0.015566
 669	3.3400e-01	13.3167	33.431744	0.000188	1.875887	0.635568	-0.015223
 670	3.3450e-01	13.2574	33.369311	0.000154	1.538649	0.521308	-0.012487
 671	3.3500e-01	13.2269	33.297042	0.000178	1.781038	0.603432	-0.014454
 672	3.3550e-01	13.1900	33.206813	0.000222	2.223663	0.753398	-0.018046
 673	3.3600e-01	13.1419	33.131551	0.000185	1.854809	0.628426	-0.015052
 674	3.3650e-01	13.0986	33.060993	0.000174	1.738884	0.589150	-0.014112
 675	3.3700e-01	13.0424	32.987869	0.000180	1.802116	0.610573	-0.014625
 676	3.3750e-01	13.0280	32.902344	0.000211	2.107738	0.714121	-0.017105
 677	3.3800e-01	12.9606	32.819812	0.000203	2.033967	0.689127	-0.016506
 678	3.3850e-01	12.9317	32.750109	0.000172	1.717806	0.582009	-0.013941
 679	3.3900e-01	12.9510	32.626526	-0.000305	-3.045681	-1.031905	-0.024717
 680	3.3950e-01	12.8676	32.574783	0.000128	1.275181	0.432043	-0.010349
 681	3.4000e-01	12.8162	32.533731	0.000101	1.011714	0.342778	-0.008210
 682	3.4050e-01	12.7986	32.434522	0.000244	2.444976	0.828380	-0.019842
 683	3.4100e-01	12.7456	32.331037	0.000255	2.550363	0.864086	-0.020697
 684	3.4150e-01	12.7055	32.257913	0.000180	1.802116	0.610573	-0.014625
 685	3.4200e-01	12.6558	32.173243	0.000209	2.086660	0.706980	-0.016934
 686	3.4250e-01	12.6269	32.091139	0.000202	2.023428	0.685556	-0.016421
 687	3.4300e-01	12.5708	32.028705	0.000154	1.538649	0.521308	-0.012487
 688	3.4350e-01	12.5339	31.927786	0.000249	2.487131	0.842663	-0.020184
 689	3.4400e-01	12.5018	31.858083	0.000172	1.717806	0.582009	-0.013941
 690	3.4450e-01	12.4537	31.787525	0.000174	1.738884	0.589150	-0.014112
 691	3.4500e-01	12.4248	31.702855	0.000209	2.086660	0.706980	-0.016934
 692	3.4550e-01	12.3847	31.619896	0.000204	2.044506	0.692697	-0.016592
 693	3.4600e-01	12.3526	31.532233	0.000216	2.160431	0.731974	-0.017533
 694	3.4650e-01	12.3029	31.443286	0.000219	2.192047	0.742686	-0.017789
 695	3.4700e-01	12.2467	31.374011	0.000171	1.707268	0.578438	-0.013855
 696	3.4750e-01	12.2371	31.288058	0.000212	2.118276	0.717691	-0.017191
 697	3.4800e-01	12.1809	31.188849	0.000244	2.444976	0.828380	-0.019842
 698	3.4850e-01	12.1440	31.139673	0.000121	1.211949	0.410620	-0.009835
 699	3.4900e-01	12.1023	31.041319	0.000242	2.423898	0.821239	-0.019671
 700	3.4950e-01	12.0366	30.968622	0.000179	1.791577	0.607003	-0.014539
 701	3.5000e-01	11.9997	30.883525	0.000210	2.097199	0.710550	-0.017019
 702	3.5050e-01	11.9628	30.800993	0.000203	2.033967	0.689127	-0.016506
 703	3.5100e-01	11.9547	30.735139	0.000162	1.622958	0.549873	-0.013171
 704	3.5150e-01	11.9098	30.638923	0.000237	2.371205	0.803386	-0.019243
 705	3.5200e-01	11.8505	30.559813	0.000195	1.949657	0.660562	-0.015822
 706	3.5250e-01	11.8104	30.474288	0.000211	2.107738	0.714121	-0.017105
 707	3.5300e-01	11.7703	30.413137	0.000151	1.507032	0.510596	-0.012230
 708	3.5350e-01	11.7478	30.329323	0.000207	2.065583	0.699838	-0.016763
 709	3.5400e-01	11.7061	30.209160	0.000296	2.961372	1.003340	-0.024033
 710	3.5450e-01	11.6740	30.135608	0.000181	1.812654	0.614144	-0.014710
 711	3.5500e-01	11.6339	30.051794	0.000207	2.065583	0.699838	-0.016763
 712	3.5550e-01	11.5761	29.988505	0.000156	1.559726	0.528449	-0.012658
 713	3.5600e-01	11.5328	29.894855	0.000231	2.307973	0.781962	-0.018730
 714	3.5650e-01	11.4895	29.800778	0.000232	2.318512	0.785533	-0.018816
 715	3.5700e-01	11.4638	29.717818	0.000204	2.044506	0.692697	-0.016592
 716	3.5750e-01	11.4270	29.620320	0.000240	2.402821	0.814098	-0.019500
 717	3.5800e-01	11.3724	29.570288	0.000123	1.233027	0.417761	-0.010006
 718	3.5850e-01	11.3884	29.460388	-0.000271	-2.708443	-0.917645	-0.021980
 719	3.5900e-01	11.3050	29.378284	0.000202	2.023428	0.685556	-0.016421
 720	3.5950e-01	11.2601	29.313713	0.000159	1.591342	0.539161	-0.012914
 721	3.6000e-01	11.2264	29.217925	0.000236	2.360666	0.799815	-0.019158
 722	3.6050e-01	11.1687	29.143945	0.000182	1.823193	0.617715	-0.014796
 723	3.6100e-01	11.1302	29.054999	0.000219	2.192047	0.742686	-0.017789
 724	3.6150e-01	11.0901	28.958356	0.000238	2.381744	0.806957	-0.019329
 725	3.6200e-01	11.0532	28.901482	0.000140	1.401646	0.474890	-0.011375
 726	3.6250e-01	11.0259	28.799707	0.000251	2.508208	0.849804	-0.020355
 727	3.6300e-01	10.9762	28.704774	0.000234	2.339589	0.792674	-0.018987
 728	3.6350e-01	10.9312	28.609841	0.000234	2.339589	0.792674	-0.018987
 729	3.6400e-01	10.9232	28.523889	0.000212	2.118276	0.717691	-0.017191
 730	3.6450e-01	10.8607	28.457179	0.000164	1.644035	0.557014	-0.013342
 731	3.6500e-01	10.8302	28.381062	0.000188	1.875887	0.635568	-0.015223
 732	3.6550e-01	10.7580	28.280998	0.000247	2.466053	0.835521	-0.020013
 733	3.6600e-01	10.7339	28.203170	0.000192	1.918041	0.649850	-0.015566
 734	3.6650e-01	10.7163	28.095836	0.000265	2.645211	0.896222	-0.021467
 735	3.6700e-01	10.6377	28.042810	0.000131	1.306797	0.442755	-0.010605
 736	3.6750e-01	10.6248	27.974390	0.000169	1.686190	0.571297	-0.013684
 737	3.6800e-01	10.5927	27.856793	0.000290	2.898139	0.981916	-0.023519
 738	3.6850e-01	10.5286	27.785807	0.000175	1.749422	0.592720	-0.014197
 739	3.6900e-01	10.4965	27.683605	0.000252	2.518747	0.853374	-0.020440
 740	3.6950e-01	10.4259	27.633573	0.000123	1.233027	0.417761	-0.010006
 741	3.7000e-01	10.4403	27.530088	-0.000255	-2.550363	-0.864086	-0.020697
 742	3.7050e-01	10.3794	27.442852	0.000215	2.149893	0.728403	-0.017447
 743	3.7100e-01	10.3489	27.338511	0.000257	2.571440	0.871227	-0.020868
 744	3.7150e-01	10.3008	27.270947	0.000167	1.665113	0.564155	-0.013513
 745	3.7200e-01	10.2575	27.189270	0.000201	2.012890	0.681985	-0.016335
 746	3.7250e-01	10.2061	27.081509	0.000266	2.655750	0.899792	-0.021552
 747	3.7300e-01	10.2013	26.993418	0.000217	2.170970	0.735545	-0.017618
 748	3.7350e-01	10.1371	26.945096	0.000119	1.190872	0.403478	-0.009664
 749	3.7400e-01	10.0922	26.840756	0.000257	2.571440	0.871227	-0.020868
 750	3.7450e-01	10.0489	26.738553	0.000252	2.518747	0.853374	-0.020440
 751	3.7500e-01	10.0184	26.641482	0.000239	2.392282	0.810527	-0.019414
 752	3.7550e-01	9.9398	26.587174	0.000134	1.338413	0.453467	-0.010862
 753	3.7600e-01	9.9222	26.500794	0.000213	2.128815	0.721262	-0.017276
 754	3.7650e-01	9.9110	26.390894	0.000271	2.708443	0.917645	-0.021980
 755	3.7700e-01	9.8580	26.298099	0.000229	2.286895	0.774821	-0.018559
 756	3.7750e-01	9.8452	26.214712	0.000206	2.055044	0.696268	-0.016677
 757	3.7800e-01	9.7650	26.146720	0.000168	1.675652	0.567726	-0.013598
 758	3.7850e-01	9.7650	26.031689	0.000283	2.834907	0.960493	-0.023006
 759	3.7900e-01	9.7120	25.948302	0.000206	2.055044	0.696268	-0.016677
 760	3.7950e-01	9.6414	25.881592	0.000164	1.644035	0.557014	-0.013342
 761	3.8000e-01	9.6013	25.782811	0.000243	2.434437	0.824810	-0.019756
 762	3.8050e-01	9.5901	25.704128	0.000194	1.939119	0.656991	-0.015737
 763	3.8100e-01	9.5307	25.622879	0.000200	2.002351	0.678415	-0.016250
 764	3.8150e-01	9.5131	25.512552	0.000272	2.718982	0.921216	-0.022065
 765	3.8200e-01	9.4698	25.425316	0.000215	2.149893	0.728403	-0.017447
 766	3.8250e-01	9.4217	25.355185	0.000173	1.728345	0.585579	-0.014026
 767	3.8300e-01	9.3751	25.264529	0.000223	2.234202	0.756968	-0.018131
 768	3.8350e-01	9.3447	25.170879	0.000231	2.307973	0.781962	-0.018730
 769	3.8400e-01	9.3110	25.066966	0.000256	2.560901	0.867657	-0.020783
 770	3.8450e-01	9.2709	25.021638	0.000112	1.117101	0.378484	-0.009066
 771	3.8500e-01	9.1987	24.909172	0.000277	2.771675	0.939069	-0.022493
 772	3.8550e-01	9.1714	24.829206	0.000197	1.970735	0.667703	-0.015993
 773	3.8600e-01	9.1441	24.742398	0.000214	2.139354	0.724833	-0.017362
 774	3.8650e-01	9.0976	24.629933	0.000277	2.771675	0.939069	-0.022493
 775	3.8700e-01	9.0575	24.568355	0.000152	1.517571	0.514167	-0.012316
 776	3.8750e-01	9.0062	24.482830	0.000211	2.107738	0.714121	-0.017105
 777	3.8800e-01	8.9645	24.375068	0.000266	2.655750	0.899792	-0.021552
 778	3.8850e-01	8.9195	24.294247	0.000199	1.991812	0.674844	-0.016164
 779	3.8900e-01	8.8955	24.186486	0.000266	2.655750	0.899792	-0.021552
 780	3.8950e-01	8.8217	24.120204	0.000163	1.633497	0.553444	-0.013256
 781	3.9000e-01	8.8088	24.018001	0.000252	2.518747	0.853374	-0.020440
 782	3.9050e-01	8.7752	23.918364	0.000246	2.455514	0.831951	-0.019927
 783	3.9100e-01	8.7447	23.824287	0.000232	2.318512	0.785533	-0.018816
 784	3.9150e-01	8.7030	23.726361	0.000241	2.413360	0.817668	-0.019585
 785	3.9200e-01	8.6356	23.660934	0.000161	1.612419	0.546302	-0.013085
 786	3.9250e-01	8.6244	23.551034	0.000271	2.708443	0.917645	-0.021980
 787	3.9300e-01	8.5650	23.496726	0.000134	1.338413	0.453467	-0.010862
 788	3.9350e-01	8.5682	23.374425	-0.000301	-3.014065	-1.021193	-0.024460
 789	3.9400e-01	8.4816	23.308571	0.000162	1.622958	0.549873	-0.013171
 790	3.9450e-01	8.4415	23.208079	0.000248	2.476592	0.839092	-0.020098
 791	3.9500e-01	8.4431	23.101600	-0.000262	-2.624134	-0.889080	-0.021296
 792	3.9550e-01	8.3645	23.007950	0.000231	2.307973	0.781962	-0.018730
 793	3.9600e-01	8.3147	22.910024	0.000241	2.413360	0.817668	-0.019585
 794	3.9650e-01	8.3212	22.836900	-0.000180	-1.802116	-0.610573	-0.014625
 795	3.9700e-01	8.2409	22.761638	0.000185	1.854809	0.628426	-0.015052
 796	3.9750e-01	8.2137	22.662429	0.000244	2.444976	0.828380	-0.019842
 797	3.9800e-01	8.1832	22.538418	0.000306	3.056220	1.035475	-0.024802
 798	3.9850e-01	8.1431	22.478123	0.000149	1.485955	0.503455	-0.012059
 799	3.9900e-01	8.1046	22.371216	0.000263	2.634672	0.892651	-0.021381
 800	3.9950e-01	8.0549	22.287402	0.000207	2.065583	0.699838	-0.016763
 801	4.0000e-01	8.0099	22.192469	0.000234	2.339589	0.792674	-0.018987
 802	4.0050e-01	7.9923	22.078293	0.000281	2.813830	0.953351	-0.022835
 803	4.0100e-01	7.9217	22.016715	0.000152	1.517571	0.514167	-0.012316
 804	4.0150e-01	7.8944	21.915368	0.000250	2.497669	0.846233	-0.020269
 805	4.0200e-01	7.8720	21.834547	0.000199	1.991812	0.674844	-0.016164
 806	4.0250e-01	7.8287	21.731916	0.000253	2.529285	0.856945	-0.020526
 807	4.0300e-01	7.7629	21.629714	0.000252	2.518747	0.853374	-0.020440
 808	4.0350e-01	7.7276	21.555307	0.000183	1.833732	0.621285	-0.014881
 809	4.0400e-01	7.7067	21.457809	0.000240	2.402821	0.814098	-0.019500
 810	4.0450e-01	7.6378	21.376987	0.000199	1.991812	0.674844	-0.016164
 811	4.0500e-01	7.6281	21.290607	0.000213	2.128815	0.721262	-0.017276
 812	4.0550e-01	7.5768	21.179425	0.000274	2.740059	0.928357	-0.022237
 813	4.0600e-01	7.5415	21.098603	0.000199	1.991812	0.674844	-0.016164
 814	4.0650e-01	7.5014	20.986993	0.000275	2.750598	0.931928	-0.022322
 815	4.0700e-01	7.4436	20.893771	0.000230	2.297434	0.778392	-0.018644
 816	4.0750e-01	7.4420	20.772325	0.000299	2.992988	1.014052	-0.024289
 817	4.0800e-01	7.3394	20.714596	0.000142	1.422723	0.482032	-0.011546
 818	4.0850e-01	7.3362	20.603841	0.000273	2.729520	0.924787	-0.022151
 819	4.0900e-01	7.3121	20.518744	0.000210	2.097199	0.710550	-0.017019
 820	4.0950e-01	7.2640	20.390884	0.000315	3.151068	1.067611	-0.025572
 821	4.1000e-01	7.2062	20.333154	0.000142	1.422723	0.482032	-0.011546
 822	4.1050e-01	7.1629	20.231379	0.000251	2.508208	0.849804	-0.020355
 823	4.1100e-01	7.1485	20.143716	0.000216	2.160431	0.731974	-0.017533
 824	4.1150e-01	7.0955	20.046218	0.000240	2.402821	0.814098	-0.019500
 825	4.1200e-01	7.0281	19.966679	0.000196	1.960196	0.664132	-0.015908
 826	4.1250e-01	7.0217	19.860628	0.000261	2.613595	0.885510	-0.021210
 827	4.1300e-01	6.9768	19.756715	0.000256	2.560901	0.867657	-0.020783
 828	4.1350e-01	6.9142	19.669052	0.000216	2.160431	0.731974	-0.017533
 829	4.1400e-01	6.9046	19.577540	0.000226	2.255279	0.764109	-0.018302
 830	4.1450e-01	6.8773	19.449253	0.000316	3.161607	1.071181	-0.025658
 831	4.1500e-01	6.8453	19.365866	0.000206	2.055044	0.696268	-0.016677
 832	4.1550e-01	6.7923	19.282907	0.000204	2.044506	0.692697	-0.016592
 833	4.1600e-01	6.7362	19.164454	0.000292	2.919217	0.989057	-0.023690
 834	4.1650e-01	6.7105	19.083633	0.000199	1.991812	0.674844	-0.016164
 835	4.1700e-01	6.6528	18.985279	0.000242	2.423898	0.821239	-0.019671
 836	4.1750e-01	6.6078	18.892057	0.000230	2.297434	0.778392	-0.018644
 837	4.1800e-01	6.5629	18.797979	0.000232	2.318512	0.785533	-0.018816
 838	4.1850e-01	6.5549	18.707751	0.000222	2.223663	0.753398	-0.018046
 839	4.1900e-01	6.4987	18.606831	0.000249	2.487131	0.842663	-0.020184
 840	4.1950e-01	6.4891	18.473839	0.000328	3.277532	1.110458	-0.026598
 841	4.2000e-01	6.3961	18.439202	0.000085	0.853634	0.289219	-0.006928
 842	4.2050e-01	6.3816	18.312625	0.000312	3.119452	1.056899	-0.025315
 843	4.2100e-01	6.3367	18.226672	0.000212	2.118276	0.717691	-0.017191
 844	4.2150e-01	6.3255	18.119338	0.000265	2.645211	0.896222	-0.021467
 845	4.2200e-01	6.2405	18.048780	0.000174	1.738884	0.589150	-0.014112
 846	4.2250e-01	6.1923	17.950426	0.000242	2.423898	0.821239	-0.019671
 847	4.2300e-01	6.1811	17.835823	0.000282	2.824369	0.956922	-0.022921
 848	4.2350e-01	6.1426	17.731482	0.000257	2.571440	0.871227	-0.020868
 849	4.2400e-01	6.1089	17.625003	0.000262	2.624134	0.889080	-0.021296
 850	4.2450e-01	6.0496	17.522801	0.000252	2.518747	0.853374	-0.020440
 851	4.2500e-01	6.0175	17.444118	0.000194	1.939119	0.656991	-0.015737
 852	4.2550e-01	5.9950	17.338922	0.000259	2.592517	0.878369	-0.021039
 853	4.2600e-01	5.9244	17.240141	0.000243	2.434437	0.824810	-0.019756
 854	4.2650e-01	5.8988	17.163596	0.000189	1.886425	0.639138	-0.015309
 855	4.2700e-01	5.8651	17.064387	0.000244	2.444976	0.828380	-0.019842
 856	4.2750e-01	5.8073	16.954059	0.000272	2.718982	0.921216	-0.022065
 857	4.2800e-01	5.8009	16.844587	0.000270	2.697904	0.914075	-0.021894
 858	4.2850e-01	5.7383	16.727418	0.000289	2.887601	0.978346	-0.023434
 859	4.2900e-01	5.6806	16.673109	0.000134	1.338413	0.453467	-0.010862
 860	4.2950e-01	5.6726	16.538407	0.000332	3.319687	1.124740	-0.026940
 861	4.3000e-01	5.6164	16.447323	0.000224	2.244741	0.760539	-0.018217
 862	4.3050e-01	5.5827	16.344266	0.000254	2.539824	0.860516	-0.020612
 863	4.3100e-01	5.5539	16.246767	0.000240	2.402821	0.814098	-0.019500
 864	4.3150e-01	5.4993	16.153545	0.000230	2.297434	0.778392	-0.018644
 865	4.3200e-01	5.4833	16.029106	0.000307	3.066758	1.039046	-0.024888
 866	4.3250e-01	5.3774	15.935028	0.000232	2.318512	0.785533	-0.018816
 867	4.3300e-01	5.3822	15.856773	-0.000193	-1.928580	-0.653421	-0.015651
 868	4.3350e-01	5.3244	15.749011	0.000266	2.655750	0.899792	-0.021552
 869	4.3400e-01	5.2811	15.645526	0.000255	2.550363	0.864086	-0.020697
 870	4.3450e-01	5.2603	15.553586	0.000227	2.265818	0.767680	-0.018388
 871	4.3500e-01	5.2105	15.460364	0.000230	2.297434	0.778392	-0.018644
 872	4.3550e-01	5.1769	15.334642	0.000310	3.098374	1.049758	-0.025144
 873	4.3600e-01	5.1239	15.232868	0.000251	2.508208	0.849804	-0.020355
 874	4.3650e-01	5.1127	15.141783	0.000224	2.244741	0.760539	-0.018217
 875	4.3700e-01	5.0662	15.001095	0.000347	3.467229	1.174729	-0.028138
 876	4.3750e-01	5.0180	14.943365	0.000142	1.422723	0.482032	-0.011546
 877	4.3800e-01	4.9651	14.829617	0.000280	2.803291	0.949781	-0.022750
 878	4.3850e-01	4.9106	14.740671	0.000219	2.192047	0.742686	-0.017789
 879	4.3900e-01	4.8881	14.629916	0.000273	2.729520	0.924787	-0.022151
 880	4.3950e-01	4.8753	14.497352	0.000327	3.266994	1.106887	-0.026513
 881	4.4000e-01	4.7999	14.434064	0.000156	1.559726	0.528449	-0.012658
 882	4.4050e-01	4.7774	14.322026	0.000276	2.761136	0.935498	-0.022408
 883	4.4100e-01	4.7501	14.210843	0.000274	2.740059	0.928357	-0.022237
 884	4.4150e-01	4.7148	14.113345	0.000240	2.402821	0.814098	-0.019500
 885	4.4200e-01	4.6491	13.987623	0.000310	3.098374	1.049758	-0.025144
 886	4.4250e-01	4.6154	13.917920	0.000172	1.717806	0.582009	-0.013941
 887	4.4300e-01	4.5801	13.774238	0.000354	3.540999	1.199723	-0.028736
 888	4.4350e-01	4.5320	13.688713	0.000211	2.107738	0.714121	-0.017105
 889	4.4400e-01	4.5223	13.590786	0.000241	2.413360	0.817668	-0.019585
 890	4.4450e-01	4.4678	13.490722	0.000247	2.466053	0.835521	-0.020013
 891	4.4500e-01	4.4181	13.391941	0.000243	2.434437	0.824810	-0.019756
 892	4.4550e-01	4.3972	13.278192	0.000280	2.803291	0.949781	-0.022750
 893	4.4600e-01	4.3234	13.185398	0.000229	2.286895	0.774821	-0.018559
 894	4.4650e-01	4.2833	13.075498	0.000271	2.708443	0.917645	-0.021980
 895	4.4700e-01	4.2432	12.963033	0.000277	2.771675	0.939069	-0.022493
 896	4.4750e-01	4.2223	12.853561	0.000270	2.697904	0.914075	-0.021894
 897	4.4800e-01	4.2031	12.735536	0.000291	2.908678	0.985487	-0.023605
 898	4.4850e-01	4.1630	12.633333	0.000252	2.518747	0.853374	-0.020440
 899	4.4900e-01	4.1213	12.529421	0.000256	2.560901	0.867657	-0.020783
 900	4.4950e-01	4.0667	12.413534	0.000286	2.855985	0.967634	-0.023177
 901	4.5000e-01	4.0090	12.313042	0.000248	2.476592	0.839092	-0.020098
 902	4.5050e-01	3.9769	12.223241	0.000221	2.213125	0.749827	-0.017960
 903	4.5100e-01	3.9159	12.128308	0.000234	2.339589	0.792674	-0.018987
 904	4.5150e-01	3.8935	12.004724	0.000305	3.045681	1.031905	-0.024717
 905	4.5200e-01	3.8566	11.913213	0.000226	2.255279	0.764109	-0.018302
 906	4.5250e-01	3.8149	11.798609	0.000282	2.824369	0.956922	-0.022921
 907	4.5300e-01	3.7716	11.669038	0.000319	3.193223	1.081893	-0.025914
 908	4.5350e-01	3.7379	11.576244	0.000229	2.286895	0.774821	-0.018559
 909	4.5400e-01	3.7058	11.463778	0.000277	2.771675	0.939069	-0.022493
 910	4.5450e-01	3.6288	11.370984	0.000229	2.286895	0.774821	-0.018559
 911	4.5500e-01	3.6272	11.237137	0.000330	3.298610	1.117599	-0.026769
 912	4.5550e-01	3.5598	11.164441	0.000179	1.791577	0.607003	-0.014539
 913	4.5600e-01	3.5213	11.049837	0.000282	2.824369	0.956922	-0.022921
 914	4.5650e-01	3.4972	10.943358	0.000262	2.624134	0.889080	-0.021296
 915	4.5700e-01	3.4379	10.839873	0.000255	2.550363	0.864086	-0.020697
 916	4.5750e-01	3.4090	10.720138	0.000295	2.950833	0.999769	-0.023947
 917	4.5800e-01	3.3737	10.613232	0.000263	2.634672	0.892651	-0.021381
 918	4.5850e-01	3.3336	10.493924	0.000294	2.940294	0.996199	-0.023861
 919	4.5900e-01	3.2791	10.419090	0.000184	1.844271	0.624856	-0.014967
 920	4.5950e-01	3.2614	10.275408	0.000354	3.540999	1.199723	-0.028736
 921	4.6000e-01	3.2069	10.172778	0.000253	2.529285	0.856945	-0.020526
 922	4.6050e-01	3.1764	10.063733	0.000269	2.687366	0.910504	-0.021809
 923	4.6100e-01	3.1234	9.956399	0.000265	2.645211	0.896222	-0.021467
 924	4.6150e-01	3.0994	9.845644	0.000273	2.729520	0.924787	-0.022151
 925	4.6200e-01	3.0593	9.734462	0.000274	2.740059	0.928357	-0.022237
 926	4.6250e-01	3.0047	9.617720	0.000288	2.877062	0.974775	-0.023348
 927	4.6300e-01	2.9694	9.531767	0.000212	2.118276	0.717691	-0.017191
 928	4.6350e-01	2.9165	9.413315	0.000292	2.919217	0.989057	-0.023690
 929	4.6400e-01	2.8732	9.294008	0.000294	2.940294	0.996199	-0.023861
 930	4.6450e-01	2.8491	9.191805	0.000252	2.518747	0.853374	-0.020440
 931	4.6500e-01	2.8090	9.069504	0.000301	3.014065	1.021193	-0.024460
 932	4.6550e-01	2.7753	8.943355	0.000311	3.108913	1.053328	-0.025230
 933	4.6600e-01	2.7513	8.824048	0.000294	2.940294	0.996199	-0.023861
 934	4.6650e-01	2.6887	8.736384	0.000216	2.160431	0.731974	-0.017533
 935	4.6700e-01	2.6534	8.633327	0.000254	2.539824	0.860516	-0.020612
 936	4.6750e-01	2.6374	8.485796	0.000364	3.635848	1.231859	-0.029506
 937	4.6800e-01	2.5860	8.390863	0.000234	2.339589	0.792674	-0.018987
 938	4.6850e-01	2.5379	8.270700	0.000296	2.961372	1.003340	-0.024033
 939	4.6900e-01	2.4882	8.175768	0.000234	2.339589	0.792674	-0.018987
 940	4.6950e-01	2.4368	8.046625	0.000318	3.182684	1.078323	-0.025829
 941	4.7000e-01	2.4368	7.912778	0.000330	3.298610	1.117599	-0.026769
 942	4.7050e-01	2.3486	7.837516	0.000185	1.854809	0.628426	-0.015052
 943	4.7100e-01	2.3406	7.698538	0.000343	3.425074	1.160446	-0.027796
 944	4.7150e-01	2.2989	7.597191	0.000250	2.497669	0.846233	-0.020269
 945	4.7200e-01	2.2588	7.477456	0.000295	2.950833	0.999769	-0.023947
 946	4.7250e-01	2.2235	7.348740	0.000317	3.172145	1.074752	-0.025743
 947	4.7300e-01	2.1657	7.267919	0.000199	1.991812	0.674844	-0.016164
 948	4.7350e-01	2.1417	7.138776	0.000318	3.182684	1.078323	-0.025829
 949	4.7400e-01	2.0999	7.010489	0.000316	3.161607	1.071181	-0.025658
 950	4.7450e-01	2.0438	6.910424	0.000247	2.466053	0.835521	-0.020013
 951	4.7500e-01	2.0069	6.796676	0.000280	2.803291	0.949781	-0.022750
 952	4.7550e-01	1.9636	6.698750	0.000241	2.413360	0.817668	-0.019585
 953	4.7600e-01	1.9251	6.552930	0.000359	3.593693	1.217576	-0.029164
 954	4.7650e-01	1.8962	6.439181	0.000280	2.803291	0.949781	-0.022750
 955	4.7700e-01	1.8593	6.334413	0.000258	2.581979	0.874798	-0.020954
 956	4.7750e-01	1.7999	6.209974	0.000307	3.066758	1.039046	-0.024888
 957	4.7800e-01	1.7598	6.102640	0.000265	2.645211	0.896222	-0.021467
 958	4.7850e-01	1.7197	5.981195	0.000299	2.992988	1.014052	-0.024289
 959	4.7900e-01	1.7069	5.867019	0.000281	2.813830	0.953351	-0.022835
 960	4.7950e-01	1.6620	5.733600	0.000329	3.288071	1.114029	-0.026684
 961	4.8000e-01	1.5834	5.633963	0.000246	2.455514	0.831951	-0.019927
 962	4.8050e-01	1.5834	5.504393	0.000319	3.193223	1.081893	-0.025914
 963	4.8100e-01	1.5288	5.376105	0.000316	3.161607	1.071181	-0.025658
 964	4.8150e-01	1.5304	5.281172	-0.000234	-2.339589	-0.792674	-0.018987
 965	4.8200e-01	1.4759	5.128938	0.000375	3.751773	1.271135	-0.030447
 966	4.8250e-01	1.4214	5.047261	0.000201	2.012890	0.681985	-0.016335
 967	4.8300e-01	1.3524	4.933940	0.000279	2.792753	0.946210	-0.022664
 968	4.8350e-01	1.3540	4.800094	-0.000330	-3.298610	-1.117599	-0.026769
 969	4.8400e-01	1.2962	4.682924	0.000289	2.887601	0.978346	-0.023434
 970	4.8450e-01	1.2353	4.575590	0.000265	2.645211	0.896222	-0.021467
 971	4.8500e-01	1.2016	4.452862	0.000302	3.024604	1.024763	-0.024546
 972	4.8550e-01	1.1775	4.330561	0.000301	3.014065	1.021193	-0.024460
 973	4.8600e-01	1.1214	4.208260	0.000301	3.014065	1.021193	-0.024460
 974	4.8650e-01	1.1085	4.091519	0.000288	2.877062	0.974775	-0.023348
 975	4.8700e-01	1.0524	3.964942	0.000312	3.119452	1.056899	-0.025315
 976	4.8750e-01	1.0059	3.855897	0.000269	2.687366	0.910504	-0.021809
 977	4.8800e-01	0.9657	3.750701	0.000259	2.592517	0.878369	-0.021039
 978	4.8850e-01	0.9096	3.608302	0.000351	3.509383	1.189011	-0.028480
 979	4.8900e-01	0.9032	3.509521	0.000243	2.434437	0.824810	-0.019756
 980	4.8950e-01	0.8518	3.368404	0.000348	3.477767	1.178299	-0.028223
 981	4.9000e-01	0.8198	3.237979	0.000321	3.214300	1.089034	-0.026085
 982	4.9050e-01	0.7764	3.139197	0.000243	2.434437	0.824810	-0.019756
 983	4.9100e-01	0.7412	3.025021	0.000281	2.813830	0.953351	-0.022835
 984	4.9150e-01	0.6978	2.877490	0.000364	3.635848	1.231859	-0.029506
 985	4.9200e-01	0.6337	2.785551	0.000227	2.265818	0.767680	-0.018388
 986	4.9250e-01	0.5855	2.661540	0.000306	3.056220	1.035475	-0.024802
 987	4.9300e-01	0.5679	2.513154	0.000366	3.656925	1.239000	-0.029677
 988	4.9350e-01	0.5326	2.394274	0.000293	2.929755	0.992628	-0.023776
 989	4.9400e-01	0.4941	2.263421	0.000322	3.224839	1.092605	-0.026171
 990	4.9450e-01	0.4588	2.164639	0.000243	2.434437	0.824810	-0.019756
 991	4.9500e-01	0.4235	2.022240	0.000351	3.509383	1.189011	-0.028480
 992	4.9550e-01	0.3626	1.911913	0.000272	2.718982	0.921216	-0.022065
 993	4.9600e-01	0.3385	1.782770	0.000318	3.182684	1.078323	-0.025829
 994	4.9650e-01	0.3032	1.679712	0.000254	2.539824	0.860516	-0.020612
 995	4.9700e-01	0.2631	1.536458	0.000353	3.530461	1.196152	-0.028651
 996	4.9750e-01	0.2021	1.427841	0.000268	2.676827	0.906934	-0.021723
 997	4.9800e-01	0.1781	1.324783	0.000254	2.539824	0.860516	-0.020612
 998	4.9850e-01	0.1171	1.178108	0.000361	3.614770	1.224717	-0.029335
 999	4.9900e-01	0.0946	1.039985	0.000340	3.403996	1.153305	-0.027625
1000	4.9950e-01	0.0658	0.949756	0.000222	2.223663	0.753398	-0.018046
1001	5.0000e-01	0.0465	0.776995	0.000426	4.257630	1.442524	-0.034552
1002	5.0050e-01	-0.0465	0.724397	0.000130	1.296259	0.439184	-0.010520
1003	5.0100e-01	-0.0561	0.591406	0.000328	3.277532	1.110458	-0.026598
1004	5.0150e-01	-0.1075	0.477230	0.000281	2.813830	0.953351	-0.022835
1005	5.0200e-01	-0.1107	0.353218	0.000306	3.056220	1.035475	-0.024802
1006	5.0250e-01	-0.1524	0.196708	0.000386	3.857160	1.306841	-0.031302
1007	5.0300e-01	-0.2086	0.099209	0.000240	2.402821	0.814098	-0.019500
1008	5.0350e-01	-0.2471	-0.014539	0.000280	2.803291	0.949781	-0.022750
1009	5.0400e-01	-0.3112	-0.123584	0.000269	2.687366	0.910504	-0.021809
1010	5.0450e-01	-0.3353	-0.249733	0.000311	3.108913	1.053328	-0.025230
1011	5.0500e-01	-0.3754	-0.394271	0.000356	3.562077	1.206864	-0.028907
1012	5.0550e-01	-0.4283	-0.501177	0.000263	2.634672	0.892651	-0.021381
1013	5.0600e-01	-0.4380	-0.639727	0.000341	3.414535	1.156876	-0.027710
1014	5.0650e-01	-0.4909	-0.756897	0.000289	2.887601	0.978346	-0.023434
1015	5.0700e-01	-0.5085	-0.882191	0.000309	3.087836	1.046187	-0.025059
1016	5.0750e-01	-0.6016	-0.990808	0.000268	2.676827	0.906934	-0.021723
1017	5.0800e-01	-0.6192	-1.113964	0.000304	3.035142	1.028334	-0.024631
1018	5.0850e-01	-0.6353	-1.253797	0.000345	3.446151	1.167588	-0.027967
1019	5.0900e-01	-0.6994	-1.357710	0.000256	2.560901	0.867657	-0.020783
1020	5.0950e-01	-0.7428	-1.460340	0.000253	2.529285	0.856945	-0.020526
1021	5.1000e-01	-0.7700	-1.609154	0.000367	3.667464	1.242570	-0.029763
1022	5.1050e-01	-0.8069	-1.746422	0.000338	3.382919	1.146164	-0.027454
1023	5.1100e-01	-0.8871	-1.857177	0.000273	2.729520	0.924787	-0.022151
1024	5.1150e-01	-0.9048	-1.962372	0.000259	2.592517	0.878369	-0.021039
1025	5.1200e-01	-0.9176	-2.091943	0.000319	3.193223	1.081893	-0.025914
1026	5.1250e-01	-0.9914	-2.194573	0.000253	2.529285	0.856945	-0.020526
1027	5.1300e-01	-1.0107	-2.338683	0.000355	3.551538	1.203294	-0.028822
1028	5.1350e-01	-1.0508	-2.456707	0.000291	2.908678	0.985487	-0.023605
1029	5.1400e-01	-1.1053	-2.590982	0.000331	3.309148	1.121170	-0.026855
1030	5.1450e-01	-1.1198	-2.723973	0.000328	3.277532	1.110458	-0.026598
1031	5.1500e-01	-1.2128	-2.793676	0.000172	1.717806	0.582009	-0.013941
1032	5.1550e-01	-1.2208	-2.950187	0.000386	3.857160	1.306841	-0.031302
1033	5.1600e-01	-1.2481	-3.067356	0.000289	2.887601	0.978346	-0.023434
1034	5.1650e-01	-1.2946	-3.194788	0.000314	3.140529	1.064040	-0.025486
1035	5.1700e-01	-1.3427	-3.302550	0.000266	2.655750	0.899792	-0.021552
1036	5.1750e-01	-1.3812	-3.431693	0.000318	3.182684	1.078323	-0.025829
1037	5.1800e-01	-1.4053	-3.546724	0.000283	2.834907	0.960493	-0.023006
1038	5.1850e-01	-1.4711	-3.683136	0.000336	3.361842	1.139023	-0.027282
1039	5.1900e-01	-1.4839	-3.784056	0.000249	2.487131	0.842663	-0.020184
1040	5.1950e-01	-1.5080	-3.911061	0.000313	3.129991	1.060470	-0.025401
1041	5.2000e-01	-1.5946	-4.003000	0.000227	2.265818	0.767680	-0.018388
1042	5.2050e-01	-1.6251	-4.165925	0.000402	4.015240	1.360400	-0.032585
1043	5.2100e-01	-1.6588	-4.258292	0.000228	2.276357	0.771251	-0.018473
1044	5.2150e-01	-1.6989	-4.407534	0.000368	3.678002	1.246141	-0.029848
1045	5.2200e-01	-1.7422	-4.499046	0.000226	2.255279	0.764109	-0.018302
1046	5.2250e-01	-1.7871	-4.607235	0.000267	2.666288	0.903363	-0.021638
1047	5.2300e-01	-1.8128	-4.732957	0.000310	3.098374	1.049758	-0.025144
1048	5.2350e-01	-1.8609	-4.868514	0.000334	3.340764	1.131882	-0.027111
1049	5.2400e-01	-1.9026	-4.969433	0.000249	2.487131	0.842663	-0.020184
1050	5.2450e-01	-1.9507	-5.082754	0.000279	2.792753	0.946210	-0.022664
1051	5.2500e-01	-1.9732	-5.192654	0.000271	2.708443	0.917645	-0.021980
1052	5.2550e-01	-2.0342	-5.321797	0.000318	3.182684	1.078323	-0.025829
1053	5.2600e-01	-2.0422	-5.435117	0.000279	2.792753	0.946210	-0.022664
1054	5.2650e-01	-2.0791	-5.570674	0.000334	3.340764	1.131882	-0.027111
1055	5.2700e-01	-2.1272	-5.681857	0.000274	2.740059	0.928357	-0.022237
1056	5.2750e-01	-2.1753	-5.797316	0.000285	2.845446	0.964063	-0.023092
1057	5.2800e-01	-2.2058	-5.923465	0.000311	3.108913	1.053328	-0.025230
1058	5.2850e-01	-2.2507	-6.016260	0.000229	2.286895	0.774821	-0.018559
1059	5.2900e-01	-2.3117	-6.156521	0.000346	3.456690	1.171158	-0.028052
1060	5.2950e-01	-2.3213	-6.281815	0.000309	3.087836	1.046187	-0.025059
1061	5.3000e-01	-2.3727	-6.375465	0.000231	2.307973	0.781962	-0.018730
1062	5.3050e-01	-2.4063	-6.505036	0.000319	3.193223	1.081893	-0.025914
1063	5.3100e-01	-2.4705	-6.602107	0.000239	2.392282	0.810527	-0.019414
1064	5.3150e-01	-2.4689	-6.735953	-0.000330	-3.298610	-1.117599	-0.026769
1065	5.3200e-01	-2.5475	-6.844143	0.000267	2.666288	0.903363	-0.021638
1066	5.3250e-01	-2.5684	-6.930523	0.000213	2.128815	0.721262	-0.017276
1067	5.3300e-01	-2.6149	-7.072922	0.000351	3.509383	1.189011	-0.028480
1068	5.3350e-01	-2.6470	-7.187098	0.000281	2.813830	0.953351	-0.022835
1069	5.3400e-01	-2.6887	-7.296570	0.000270	2.697904	0.914075	-0.021894
1070	5.3450e-01	-2.7481	-7.394496	0.000241	2.413360	0.817668	-0.019585
1071	5.3500e-01	-2.7946	-7.536895	0.000351	3.509383	1.189011	-0.028480
1072	5.3550e-01	-2.8122	-7.633539	0.000238	2.381744	0.806957	-0.019329
1073	5.3600e-01	-2.8780	-7.743866	0.000272	2.718982	0.921216	-0.022065
1074	5.3650e-01	-2.9037	-7.872581	0.000317	3.172145	1.074752	-0.025743
1075	5.3700e-01	-2.9502	-7.958962	0.000213	2.128815	0.721262	-0.017276
1076	5.3750e-01	-2.9791	-8.072710	0.000280	2.803291	0.949781	-0.022750
1077	5.3800e-01	-2.9983	-8.216392	0.000354	3.540999	1.199723	-0.028736
1078	5.3850e-01	-3.0689	-8.304483	0.000217	2.170970	0.735545	-0.017618
1079	5.3900e-01	-3.1379	-8.406685	0.000252	2.518747	0.853374	-0.020440
1080	5.3950e-01	-3.1106	-8.572176	-0.000408	-4.078473	-1.381824	-0.033098
1081	5.4000e-01	-3.1956	-8.648294	0.000188	1.875887	0.635568	-0.015223
1082	5.4050e-01	-3.2582	-8.771877	0.000305	3.045681	1.031905	-0.024717
1083	5.4100e-01	-3.2839	-8.842435	0.000174	1.738884	0.589150	-0.014112
1084	5.4150e-01	-3.2999	-8.968157	0.000310	3.098374	1.049758	-0.025144
1085	5.4200e-01	-3.3496	-9.078485	0.000272	2.718982	0.921216	-0.022065
1086	5.4250e-01	-3.3881	-9.211904	0.000329	3.288071	1.114029	-0.026684
1087	5.4300e-01	-3.4106	-9.315817	0.000256	2.560901	0.867657	-0.020783
1088	5.4350e-01	-3.4603	-9.415026	0.000244	2.444976	0.828380	-0.019842
1089	5.4400e-01	-3.5101	-9.509103	0.000232	2.318512	0.785533	-0.018816
1090	5.4450e-01	-3.5309	-9.650220	0.000348	3.477767	1.178299	-0.028223
1091	5.4500e-01	-3.5758	-9.754560	0.000257	2.571440	0.871227	-0.020868
1092	5.4550e-01	-3.6416	-9.855052	0.000248	2.476592	0.839092	-0.020098
1093	5.4600e-01	-3.6480	-9.963669	0.000268	2.676827	0.906934	-0.021723
1094	5.4650e-01	-3.7074	-10.076134	0.000277	2.771675	0.939069	-0.022493
1095	5.4700e-01	-3.7314	-10.195014	0.000293	2.929755	0.992628	-0.023776
1096	5.4750e-01	-3.7908	-10.301920	0.000263	2.634672	0.892651	-0.021381
1097	5.4800e-01	-3.8518	-10.395143	0.000230	2.297434	0.778392	-0.018644
1098	5.4850e-01	-3.8630	-10.502049	0.000263	2.634672	0.892651	-0.021381
1099	5.4900e-01	-3.9256	-10.610666	0.000268	2.676827	0.906934	-0.021723
1100	5.4950e-01	-3.9721	-10.719283	0.000268	2.676827	0.906934	-0.021723
1101	5.5000e-01	-3.9785	-10.834742	0.000285	2.845446	0.964063	-0.023092
1102	5.5050e-01	-3.9849	-10.952339	0.000290	2.898139	0.981916	-0.023519
1103	5.5100e-01	-4.0330	-11.051120	0.000243	2.434437	0.824810	-0.019756
1104	5.5150e-01	-4.1165	-11.125527	0.000183	1.833732	0.621285	-0.014881
1105	5.5200e-01	-4.1357	-11.262367	0.000337	3.372380	1.142593	-0.027368
1106	5.5250e-01	-4.1710	-11.379536	0.000289	2.887601	0.978346	-0.023434
1107	5.5300e-01	-4.2175	-11.463351	0.000207	2.065583	0.699838	-0.016763
1108	5.5350e-01	-4.2624	-11.571968	0.000268	2.676827	0.906934	-0.021723
1109	5.5400e-01	-4.3266	-11.682723	0.000273	2.729520	0.924787	-0.022151
1110	5.5450e-01	-4.3362	-11.794760	0.000276	2.761136	0.935498	-0.022408
1111	5.5500e-01	-4.3876	-11.890976	0.000237	2.371205	0.803386	-0.019243
1112	5.5550e-01	-4.4325	-11.988902	0.000241	2.413360	0.817668	-0.019585
1113	5.5600e-01	-4.4742	-12.079559	0.000223	2.234202	0.756968	-0.018131
1114	5.5650e-01	-4.4886	-12.210840	0.000324	3.235377	1.096176	-0.026256
1115	5.5700e-01	-4.5223	-12.315608	0.000258	2.581979	0.874798	-0.020954
1116	5.5750e-01	-4.5769	-12.428073	0.000277	2.771675	0.939069	-0.022493
1117	5.5800e-01	-4.6266	-12.508895	0.000199	1.991812	0.674844	-0.016164
1118	5.5850e-01	-4.6555	-12.637182	0.000316	3.161607	1.071181	-0.025658
1119	5.5900e-01	-4.6908	-12.717148	0.000197	1.970735	0.667703	-0.015993
1120	5.5950e-01	-4.7405	-12.842442	0.000309	3.087836	1.046187	-0.025059
1121	5.6000e-01	-4.7806	-12.939941	0.000240	2.402821	0.814098	-0.019500
1122	5.6050e-01	-4.8111	-13.035729	0.000236	2.360666	0.799815	-0.019158
1123	5.6100e-01	-4.8929	-13.136648	0.000249	2.487131	0.842663	-0.020184
1124	5.6150e-01	-4.9009	-13.246976	0.000272	2.718982	0.921216	-0.022065
1125	5.6200e-01	-4.9410	-13.329080	0.000202	2.023428	0.685556	-0.016421
1126	5.6250e-01	-4.9827	-13.440690	0.000275	2.750598	0.931928	-0.022322
1127	5.6300e-01	-5.0373	-13.535195	0.000233	2.329050	0.789104	-0.018901
1128	5.6350e-01	-5.0565	-13.632266	0.000239	2.392282	0.810527	-0.019414
1129	5.6400e-01	-5.1015	-13.759698	0.000314	3.140529	1.064040	-0.025486
1130	5.6450e-01	-5.1159	-13.856342	0.000238	2.381744	0.806957	-0.019329
1131	5.6500e-01	-5.1624	-13.967952	0.000275	2.750598	0.931928	-0.022322
1132	5.6550e-01	-5.2442	-14.071010	0.000254	2.539824	0.860516	-0.020612
1133	5.6600e-01	-5.2747	-14.144561	0.000181	1.812654	0.614144	-0.014710
1134	5.6650e-01	-5.2956	-14.271138	0.000312	3.119452	1.056899	-0.025315
1135	5.6700e-01	-5.3630	-14.357091	0.000212	2.118276	0.717691	-0.017191
1136	5.6750e-01	-5.4111	-14.463570	0.000262	2.624134	0.889080	-0.021296
1137	5.6800e-01	-5.4400	-14.555509	0.000227	2.265818	0.767680	-0.018388
1138	5.6850e-01	-5.4560	-14.648304	0.000229	2.286895	0.774821	-0.018559
1139	5.6900e-01	-5.5170	-14.760342	0.000276	2.761136	0.935498	-0.022408
1140	5.6950e-01	-5.5442	-14.899747	0.000344	3.435613	1.164017	-0.027881
1141	5.7000e-01	-5.5859	-14.974582	0.000184	1.844271	0.624856	-0.014967
1142	5.7050e-01	-5.6180	-15.080205	0.000260	2.603056	0.881939	-0.021125
1143	5.7100e-01	-5.6485	-15.184974	0.000258	2.581979	0.874798	-0.020954
1144	5.7150e-01	-5.6950	-15.277768	0.000229	2.286895	0.774821	-0.018559
1145	5.7200e-01	-5.7496	-15.365004	0.000215	2.149893	0.728403	-0.017447
1146	5.7250e-01	-5.8025	-15.482173	0.000289	2.887601	0.978346	-0.023434
1147	5.7300e-01	-5.8410	-15.562994	0.000199	1.991812	0.674844	-0.016164
1148	5.7350e-01	-5.8715	-15.664769	0.000251	2.508208	0.849804	-0.020355
1149	5.7400e-01	-5.8827	-15.783649	0.000293	2.929755	0.992628	-0.023776
1150	5.7450e-01	-5.9260	-15.873450	0.000221	2.213125	0.749827	-0.017960
1151	5.7500e-01	-5.9790	-15.957692	0.000208	2.076122	0.703409	-0.016848
1152	5.7550e-01	-6.0592	-16.059895	0.000252	2.518747	0.853374	-0.020440
1153	5.7600e-01	-6.0560	-16.147558	-0.000216	-2.160431	-0.731974	-0.017533
1154	5.7650e-01	-6.0993	-16.261734	0.000281	2.813830	0.953351	-0.022835
1155	5.7700e-01	-6.1683	-16.360943	0.000244	2.444976	0.828380	-0.019842
1156	5.7750e-01	-6.1988	-16.456303	0.000235	2.350128	0.796245	-0.019072
1157	5.7800e-01	-6.2324	-16.556795	0.000248	2.476592	0.839092	-0.020098
1158	5.7850e-01	-6.2661	-16.660708	0.000256	2.560901	0.867657	-0.020783
1159	5.7900e-01	-6.2934	-16.729556	0.000170	1.696729	0.574867	-0.013770
1160	5.7950e-01	-6.3447	-16.846298	0.000288	2.877062	0.974775	-0.023348
1161	5.8000e-01	-6.3961	-16.959618	0.000279	2.792753	0.946210	-0.022664
1162	5.8050e-01	-6.4282	-17.052413	0.000229	2.286895	0.774821	-0.018559
1163	5.8100e-01	-6.4346	-17.181556	0.000318	3.182684	1.078323	-0.025829
1164	5.8150e-01	-6.5052	-17.229022	0.000117	1.169794	0.396337	-0.009493
1165	5.8200e-01	-6.5372	-17.306850	0.000192	1.918041	0.649850	-0.015566
1166	5.8250e-01	-6.5838	-17.413329	0.000262	2.624134	0.889080	-0.021296
1167	5.8300e-01	-6.6383	-17.508689	0.000235	2.350128	0.796245	-0.019072
1168	5.8350e-01	-6.6848	-17.592076	0.000206	2.055044	0.696268	-0.016677
1169	5.8400e-01	-6.7105	-17.710956	0.000293	2.929755	0.992628	-0.023776
1170	5.8450e-01	-6.7474	-17.798619	0.000216	2.160431	0.731974	-0.017533
1171	5.8500e-01	-6.7971	-17.892269	0.000231	2.307973	0.781962	-0.018730
1172	5.8550e-01	-6.8212	-17.994899	0.000253	2.529285	0.856945	-0.020526
1173	5.8600e-01	-6.8485	-18.094963	0.000247	2.466053	0.835521	-0.020013
1174	5.8650e-01	-6.8998	-18.177923	0.000204	2.044506	0.692697	-0.016592
1175	5.8700e-01	-6.9207	-18.284401	0.000262	2.624134	0.889080	-0.021296
1176	5.8750e-01	-6.9688	-18.377196	0.000229	2.286895	0.774821	-0.018559
1177	5.8800e-01	-7.0330	-18.480254	0.000254	2.539824	0.860516	-0.020612
1178	5.8850e-01	-7.0747	-18.555944	0.000187	1.865348	0.631997	-0.015138
1179	5.8900e-01	-7.1324	-18.669692	0.000280	2.803291	0.949781	-0.022750
1180	5.8950e-01	-7.1581	-18.783868	0.000281	2.813830	0.953351	-0.022835
1181	5.9000e-01	-7.1789	-18.858275	0.000183	1.833732	0.621285	-0.014881
1182	5.9050e-01	-7.2078	-18.961760	0.000255	2.550363	0.864086	-0.020697
1183	5.9100e-01	-7.2672	-19.047285	0.000211	2.107738	0.714121	-0.017105
1184	5.9150e-01	-7.2880	-19.150770	0.000255	2.550363	0.864086	-0.020697
1185	5.9200e-01	-7.3506	-19.231164	0.000198	1.981273	0.671274	-0.016079
1186	5.9250e-01	-7.3859	-19.314551	0.000206	2.055044	0.696268	-0.016677
1187	5.9300e-01	-7.4260	-19.411622	0.000239	2.392282	0.810527	-0.019414
1188	5.9350e-01	-7.4645	-19.509548	0.000241	2.413360	0.817668	-0.019585
1189	5.9400e-01	-7.4902	-19.613033	0.000255	2.550363	0.864086	-0.020697
1190	5.9450e-01	-7.5463	-19.685302	0.000178	1.781038	0.603432	-0.014454
1191	5.9500e-01	-7.5880	-19.796057	0.000273	2.729520	0.924787	-0.022151
1192	5.9550e-01	-7.6329	-19.893128	0.000239	2.392282	0.810527	-0.019414
1193	5.9600e-01	-7.6666	-19.978653	0.000211	2.107738	0.714121	-0.017105
1194	5.9650e-01	-7.6746	-20.092829	0.000281	2.813830	0.953351	-0.022835
1195	5.9700e-01	-7.7356	-20.171084	0.000193	1.928580	0.653421	-0.015651
1196	5.9750e-01	-7.7629	-20.252761	0.000201	2.012890	0.681985	-0.016335
1197	5.9800e-01	-7.7709	-20.369502	0.000288	2.877062	0.974775	-0.023348
1198	5.9850e-01	-7.8575	-20.434074	0.000159	1.591342	0.539161	-0.012914
1199	5.9900e-01	-7.9089	-20.535849	0.000251	2.508208	0.849804	-0.020355
1200	5.9950e-01	-7.9458	-20.622229	0.000213	2.128815	0.721262	-0.017276
1201	6.0000e-01	-7.9811	-20.714168	0.000227	2.265818	0.767680	-0.018388
1202	6.0050e-01	-8.0452	-20.804825	0.000223	2.234202	0.756968	-0.018131
1203	6.0100e-01	-8.0516	-20.897192	0.000228	2.276357	0.771251	-0.018473
1204	6.0150e-01	-8.1270	-20.978013	0.000199	1.991812	0.674844	-0.016164
1205	6.0200e-01	-8.1303	-21.086630	0.000268	2.676827	0.906934	-0.021723
1206	6.0250e-01	-8.1768	-21.187549	0.000249	2.487131	0.842663	-0.020184
1207	6.0300e-01	-8.2201	-21.285048	0.000240	2.402821	0.814098	-0.019500
1208	6.0350e-01	-8.2987	-21.360738	0.000187	1.865348	0.631997	-0.015138
1209	6.0400e-01	-8.2618	-21.472348	-0.000275	-2.750598	-0.931928	-0.022322
1210	6.0450e-01	-8.3404	-21.539485	0.000165	1.654574	0.560585	-0.013427
1211	6.0500e-01	-8.3933	-21.626293	0.000214	2.139354	0.724833	-0.017362
1212	6.0550e-01	-8.4126	-21.744745	0.000292	2.919217	0.989057	-0.023690
1213	6.0600e-01	-8.4639	-21.829843	0.000210	2.097199	0.710550	-0.017019
1214	6.0650e-01	-8.4928	-21.909381	0.000196	1.960196	0.664132	-0.015908
1215	6.0700e-01	-8.5602	-21.987209	0.000192	1.918041	0.649850	-0.015566
1216	6.0750e-01	-8.5826	-22.093687	0.000262	2.624134	0.889080	-0.021296
1217	6.0800e-01	-8.6388	-22.174081	0.000198	1.981273	0.671274	-0.016079
1218	6.0850e-01	-8.6677	-22.269014	0.000234	2.339589	0.792674	-0.018987
1219	6.0900e-01	-8.6949	-22.360953	0.000227	2.265818	0.767680	-0.018388
1220	6.0950e-01	-8.7190	-22.471281	0.000272	2.718982	0.921216	-0.022065
1221	6.1000e-01	-8.7896	-22.551246	0.000197	1.970735	0.667703	-0.015993
1222	6.1050e-01	-8.8056	-22.630785	0.000196	1.960196	0.664132	-0.015908
1223	6.1100e-01	-8.8554	-22.723579	0.000229	2.286895	0.774821	-0.018559
1224	6.1150e-01	-8.9051	-22.800980	0.000191	1.907503	0.646279	-0.015480
1225	6.1200e-01	-8.9420	-22.909596	0.000268	2.676827	0.906934	-0.021723
1226	6.1250e-01	-8.9837	-22.989562	0.000197	1.970735	0.667703	-0.015993
1227	6.1300e-01	-8.9981	-23.086206	0.000238	2.381744	0.806957	-0.019329
1228	6.1350e-01	-9.0399	-23.175152	0.000219	2.192047	0.742686	-0.017789
1229	6.1400e-01	-9.1008	-23.245710	0.000174	1.738884	0.589150	-0.014112
1230	6.1450e-01	-9.1586	-23.326103	0.000198	1.981273	0.671274	-0.016079
1231	6.1500e-01	-9.1906	-23.426595	0.000248	2.476592	0.839092	-0.020098
1232	6.1550e-01	-9.2131	-23.523239	0.000238	2.381744	0.806957	-0.019329
1233	6.1600e-01	-9.2532	-23.630573	0.000265	2.645211	0.896222	-0.021467
1234	6.1650e-01	-9.3013	-23.705407	0.000184	1.844271	0.624856	-0.014967
1235	6.1700e-01	-9.3302	-23.798202	0.000229	2.286895	0.774821	-0.018559
1236	6.1750e-01	-9.4088	-23.879451	0.000200	2.002351	0.678415	-0.016250
1237	6.1800e-01	-9.4650	-23.953857	0.000183	1.833732	0.621285	-0.014881
1238	6.1850e-01	-9.4666	-24.067178	0.000279	2.792753	0.946210	-0.022664
1239	6.1900e-01	-9.4987	-24.134315	0.000165	1.654574	0.560585	-0.013427
1240	6.1950e-01	-9.5580	-24.241649	0.000265	2.645211	0.896222	-0.021467
1241	6.2000e-01	-9.5885	-24.319905	0.000193	1.928580	0.653421	-0.015651
1242	6.2050e-01	-9.6238	-24.416120	0.000237	2.371205	0.803386	-0.019243
1243	6.2100e-01	-9.6222	-24.502073	-0.000212	-2.118276	-0.717691	-0.017191
1244	6.2150e-01	-9.7297	-24.572631	0.000174	1.738884	0.589150	-0.014112
1245	6.2200e-01	-9.7409	-24.672695	0.000247	2.466053	0.835521	-0.020013
1246	6.2250e-01	-9.7810	-24.775753	0.000254	2.539824	0.860516	-0.020612
1247	6.2300e-01	-9.8131	-24.849732	0.000182	1.823193	0.617715	-0.014796
1248	6.2350e-01	-9.8628	-24.940389	0.000223	2.234202	0.756968	-0.018131
1249	6.2400e-01	-9.8869	-25.022493	0.000202	2.023428	0.685556	-0.016421
1250	6.2450e-01	-9.9462	-25.109301	0.000214	2.139354	0.724833	-0.017362
1251	6.2500e-01	-9.9799	-25.205944	0.000238	2.381744	0.806957	-0.019329
1252	6.2550e-01	-9.9944	-25.299166	0.000230	2.297434	0.778392	-0.018644
1253	6.2600e-01	-10.0473	-25.394099	0.000234	2.339589	0.792674	-0.018987
1254	6.2650e-01	-10.0906	-25.448835	0.000135	1.348952	0.457037	-0.010947
1255	6.2700e-01	-10.1436	-25.539064	0.000222	2.223663	0.753398	-0.018046
1256	6.2750e-01	-10.1516	-25.647681	0.000268	2.676827	0.906934	-0.021723
1257	6.2800e-01	-10.2013	-25.732779	0.000210	2.097199	0.710550	-0.017019
1258	6.2850e-01	-10.2510	-25.803764	0.000175	1.749422	0.592720	-0.014197
1259	6.2900e-01	-10.2912	-25.895276	0.000226	2.255279	0.764109	-0.018302
1260	6.2950e-01	-10.3088	-25.996196	0.000249	2.487131	0.842663	-0.020184
1261	6.3000e-01	-10.3649	-26.056491	0.000149	1.485955	0.503455	-0.012059
1262	6.3050e-01	-10.4387	-26.117641	0.000151	1.507032	0.510596	-0.012230
1263	6.3100e-01	-10.4516	-26.238232	0.000297	2.971910	1.006910	-0.024118
1264	6.3150e-01	-10.4869	-26.317770	0.000196	1.960196	0.664132	-0.015908
1265	6.3200e-01	-10.5334	-26.407571	0.000221	2.213125	0.749827	-0.017960
1266	6.3250e-01	-10.5911	-26.484116	0.000189	1.886425	0.639138	-0.015309
1267	6.3300e-01	-10.6152	-26.582470	0.000242	2.423898	0.821239	-0.019671
1268	6.3350e-01	-10.6826	-26.658587	0.000188	1.875887	0.635568	-0.015223
1269	6.3400e-01	-10.7099	-26.735987	0.000191	1.907503	0.646279	-0.015480
1270	6.3450e-01	-10.7468	-26.850163	0.000281	2.813830	0.953351	-0.022835
1271	6.3500e-01	-10.8125	-26.935688	0.000211	2.107738	0.714121	-0.017105
1272	6.3550e-01	-10.8222	-26.998122	0.000154	1.538649	0.521308	-0.012487
1273	6.3600e-01	-10.8591	-27.090916	0.000229	2.286895	0.774821	-0.018559
1274	6.3650e-01	-10.8959	-27.172165	0.000200	2.002351	0.678415	-0.016250
1275	6.3700e-01	-10.9425	-27.256835	0.000209	2.086660	0.706980	-0.016934
1276	6.3750e-01	-11.0034	-27.324400	0.000167	1.665113	0.564155	-0.013513
1277	6.3800e-01	-10.9778	-27.436010	-0.000275	-2.750598	-0.931928	-0.022322
1278	6.3850e-01	-11.0516	-27.530088	0.000232	2.318512	0.785533	-0.018816
1279	6.3900e-01	-11.0852	-27.603639	0.000181	1.812654	0.614144	-0.014710
1280	6.3950e-01	-11.1157	-27.693868	0.000222	2.223663	0.753398	-0.018046
1281	6.4000e-01	-11.1927	-27.772979	0.000195	1.949657	0.660562	-0.015822
1282	6.4050e-01	-11.1895	-27.859359	-0.000213	-2.128815	-0.721262	-0.017276
1283	6.4100e-01	-11.2264	-27.967121	0.000266	2.655750	0.899792	-0.021552
1284	6.4150e-01	-11.2954	-28.035968	0.000170	1.696729	0.574867	-0.013770
1285	6.4200e-01	-11.3387	-28.100967	0.000160	1.601881	0.542732	-0.013000
1286	6.4250e-01	-11.3820	-28.198893	0.000241	2.413360	0.817668	-0.019585
1287	6.4300e-01	-11.4253	-28.268596	0.000172	1.717806	0.582009	-0.013941
1288	6.4350e-01	-11.4671	-28.354121	0.000211	2.107738	0.714121	-0.017105
1289	6.4400e-01	-11.4847	-28.439647	0.000211	2.107738	0.714121	-0.017105
1290	6.4450e-01	-11.5425	-28.523889	0.000208	2.076122	0.703409	-0.016848
1291	6.4500e-01	-11.5681	-28.619677	0.000236	2.360666	0.799815	-0.019158
1292	6.4550e-01	-11.6387	-28.682965	0.000156	1.559726	0.528449	-0.012658
1293	6.4600e-01	-11.6548	-28.785595	0.000253	2.529285	0.856945	-0.020526
1294	6.4650e-01	-11.7013	-28.856581	0.000175	1.749422	0.592720	-0.014197
1295	6.4700e-01	-11.7462	-28.928850	0.000178	1.781038	0.603432	-0.014454
1296	6.4750e-01	-11.7638	-29.033618	0.000258	2.581979	0.874798	-0.020954
1297	6.4800e-01	-11.8216	-29.110163	0.000189	1.886425	0.639138	-0.015309
1298	6.4850e-01	-11.8713	-29.195260	0.000210	2.097199	0.710550	-0.017019
1299	6.4900e-01	-11.8874	-29.286345	0.000224	2.244741	0.760539	-0.018217
1300	6.4950e-01	-11.9547	-29.346640	0.000149	1.485955	0.503455	-0.012059
1301	6.5000e-01	-11.9932	-29.436013	0.000220	2.202586	0.746256	-0.017875
1302	6.5050e-01	-12.0141	-29.534795	0.000243	2.434437	0.824810	-0.019756
1303	6.5100e-01	-12.0831	-29.569005	0.000084	0.843095	0.285648	-0.006842
1304	6.5150e-01	-12.1087	-29.700713	0.000325	3.245916	1.099746	-0.026342
1305	6.5200e-01	-12.1280	-29.755022	0.000134	1.338413	0.453467	-0.010862
1306	6.5250e-01	-12.1633	-29.862356	0.000265	2.645211	0.896222	-0.021467
1307	6.5300e-01	-12.1970	-29.932486	0.000173	1.728345	0.585579	-0.014026
1308	6.5350e-01	-12.2531	-30.023571	0.000224	2.244741	0.760539	-0.018217
1309	6.5400e-01	-12.3029	-30.117220	0.000231	2.307973	0.781962	-0.018730
1310	6.5450e-01	-12.3285	-30.177516	0.000149	1.485955	0.503455	-0.012059
1311	6.5500e-01	-12.3895	-30.275014	0.000240	2.402821	0.814098	-0.019500
1312	6.5550e-01	-12.4103	-30.343007	0.000168	1.675652	0.567726	-0.013598
1313	6.5600e-01	-12.4585	-30.428532	0.000211	2.107738	0.714121	-0.017105
1314	6.5650e-01	-12.4761	-30.525175	0.000238	2.381744	0.806957	-0.019329
1315	6.5700e-01	-12.5371	-30.588891	0.000157	1.570265	0.532020	-0.012743
1316	6.5750e-01	-12.5756	-30.691521	0.000253	2.529285	0.856945	-0.020526
1317	6.5800e-01	-12.6333	-30.757803	0.000163	1.633497	0.553444	-0.013256
1318	6.5850e-01	-12.6494	-30.838624	0.000199	1.991812	0.674844	-0.016164
1319	6.5900e-01	-12.6895	-30.949379	0.000273	2.729520	0.924787	-0.022151
1320	6.5950e-01	-12.7777	-30.988721	0.000097	0.969559	0.328496	-0.007868
1321	6.6000e-01	-12.7809	-31.073818	0.000210	2.097199	0.710550	-0.017019
1322	6.6050e-01	-12.8258	-31.140528	0.000164	1.644035	0.557014	-0.013342
1323	6.6100e-01	-12.8836	-31.205954	0.000161	1.612419	0.546302	-0.013085
1324	6.6150e-01	-12.8499	-31.365459	-0.000393	-3.930931	-1.331835	-0.031901
1325	6.6200e-01	-12.9413	-31.415063	0.000122	1.222488	0.414190	-0.009921
1326	6.6250e-01	-12.9766	-31.468516	0.000132	1.317336	0.446326	-0.010691
1327	6.6300e-01	-13.0055	-31.550620	0.000202	2.023428	0.685556	-0.016421
1328	6.6350e-01	-13.0520	-31.638711	0.000217	2.170970	0.735545	-0.017618
1329	6.6400e-01	-13.1114	-31.720388	0.000201	2.012890	0.681985	-0.016335
1330	6.6450e-01	-13.1515	-31.807196	0.000214	2.139354	0.724833	-0.017362
1331	6.6500e-01	-13.1836	-31.888444	0.000200	2.002351	0.678415	-0.016250
1332	6.6550e-01	-13.2141	-31.964989	0.000189	1.886425	0.639138	-0.015309
1333	6.6600e-01	-13.2750	-32.037258	0.000178	1.781038	0.603432	-0.014454
1334	6.6650e-01	-13.2895	-32.124921	0.000216	2.160431	0.731974	-0.017533
1335	6.6700e-01	-13.3424	-32.195052	0.000173	1.728345	0.585579	-0.014026
1336	6.6750e-01	-13.3681	-32.297682	0.000253	2.529285	0.856945	-0.020526
1337	6.6800e-01	-13.4130	-32.362681	0.000160	1.601881	0.542732	-0.013000
1338	6.6850e-01	-13.4435	-32.452910	0.000222	2.223663	0.753398	-0.018046
1339	6.6900e-01	-13.4948	-32.509356	0.000139	1.391107	0.471320	-0.011289
1340	6.6950e-01	-13.5349	-32.620539	0.000274	2.740059	0.928357	-0.022237
1341	6.7000e-01	-13.5830	-32.685538	0.000160	1.601881	0.542732	-0.013000
1342	6.7050e-01	-13.6183	-32.769780	0.000208	2.076122	0.703409	-0.016848
1343	6.7100e-01	-13.6809	-32.827509	0.000142	1.422723	0.482032	-0.011546
1344	6.7150e-01	-13.7001	-32.931422	0.000256	2.560901	0.867657	-0.020783
1345	6.7200e-01	-13.7451	-33.017375	0.000212	2.118276	0.717691	-0.017191
1346	6.7250e-01	-13.7595	-33.099907	0.000203	2.033967	0.689127	-0.016506
1347	6.7300e-01	-13.8173	-33.169610	0.000172	1.717806	0.582009	-0.013941
1348	6.7350e-01	-13.8702	-33.226911	0.000141	1.412184	0.478461	-0.011460
1349	6.7400e-01	-13.8766	-33.330397	0.000255	2.550363	0.864086	-0.020697
1350	6.7450e-01	-13.9568	-33.396679	0.000163	1.633497	0.553444	-0.013256
1351	6.7500e-01	-13.9648	-33.495888	0.000244	2.444976	0.828380	-0.019842
1352	6.7550e-01	-13.9713	-33.576709	0.000199	1.991812	0.674844	-0.016164
1353	6.7600e-01	-14.0691	-33.624603	0.000118	1.180333	0.399908	-0.009579
1354	6.7650e-01	-14.1156	-33.714832	0.000222	2.223663	0.753398	-0.018046
1355	6.7700e-01	-14.1205	-33.812758	0.000241	2.413360	0.817668	-0.019585
1356	6.7750e-01	-14.1750	-33.891014	0.000193	1.928580	0.653421	-0.015651
1357	6.7800e-01	-14.2247	-33.930355	0.000097	0.969559	0.328496	-0.007868
1358	6.7850e-01	-14.2905	-34.044959	0.000282	2.824369	0.956922	-0.022921
1359	6.7900e-01	-14.3017	-34.112951	0.000168	1.675652	0.567726	-0.013598
1360	6.7950e-01	-14.3467	-34.195055	0.000202	2.023428	0.685556	-0.016421
1361	6.8000e-01	-14.3611	-34.296402	0.000250	2.497669	0.846233	-0.020269
1362	6.8050e-01	-14.3932	-34.353704	0.000141	1.412184	0.478461	-0.011460
1363	6.8100e-01	-14.4349	-34.444788	0.000224	2.244741	0.760539	-0.018217
1364	6.8150e-01	-14.4862	-34.520050	0.000185	1.854809	0.628426	-0.015052
1365	6.8200e-01	-14.5472	-34.591891	0.000177	1.770500	0.599862	-0.014368
1366	6.8250e-01	-14.5809	-34.651759	0.000148	1.475416	0.499885	-0.011974
1367	6.8300e-01	-14.6210	-34.731725	0.000197	1.970735	0.667703	-0.015993
1368	6.8350e-01	-14.6932	-34.832217	0.000248	2.476592	0.839092	-0.020098
1369	6.8400e-01	-14.6755	-34.920735	-0.000218	-2.181509	-0.739115	-0.017704
1370	6.8450e-01	-14.7413	-34.979747	0.000145	1.454339	0.492743	-0.011802
1371	6.8500e-01	-14.8023	-35.055010	0.000185	1.854809	0.628426	-0.015052
1372	6.8550e-01	-14.8231	-35.126423	0.000176	1.759961	0.596291	-0.014283
1373	6.8600e-01	-14.8568	-35.219645	0.000230	2.297434	0.778392	-0.018644
1374	6.8650e-01	-14.8857	-35.283361	0.000157	1.570265	0.532020	-0.012743
1375	6.8700e-01	-14.9322	-35.367604	0.000208	2.076122	0.703409	-0.016848
1376	6.8750e-01	-14.9627	-35.476648	0.000269	2.687366	0.910504	-0.021809
1377	6.8800e-01	-15.0349	-35.540792	0.000158	1.580803	0.535591	-0.012829
1378	6.8850e-01	-15.0493	-35.589113	0.000119	1.190872	0.403478	-0.009664
1379	6.8900e-01	-15.1183	-35.689605	0.000248	2.476592	0.839092	-0.020098
1380	6.8950e-01	-15.1279	-35.741776	0.000129	1.285720	0.435614	-0.010434
1381	6.9000e-01	-15.1536	-35.848682	0.000263	2.634672	0.892651	-0.021381
1382	6.9050e-01	-15.2033	-35.906411	0.000142	1.422723	0.482032	-0.011546
1383	6.9100e-01	-15.2306	-36.005621	0.000244	2.444976	0.828380	-0.019842
1384	6.9150e-01	-15.2867	-36.073613	0.000168	1.675652	0.567726	-0.013598
1385	6.9200e-01	-15.3525	-36.131770	0.000143	1.433262	0.485602	-0.011631
1386	6.9250e-01	-15.3766	-36.223282	0.000226	2.255279	0.764109	-0.018302
1387	6.9300e-01	-15.4215	-36.311800	0.000218	2.181509	0.739115	-0.017704
1388	6.9350e-01	-15.4247	-36.411009	0.000244	2.444976	0.828380	-0.019842
1389	6.9400e-01	-15.5049	-36.470449	0.000146	1.464878	0.496314	-0.011888
1390	6.9450e-01	-15.5562	-36.526040	0.000137	1.370030	0.464179	-0.011118
1391	6.9500e-01	-15.5691	-36.626532	0.000248	2.476592	0.839092	-0.020098
1392	6.9550e-01	-15.6012	-36.671861	0.000112	1.117101	0.378484	-0.009066
1393	6.9600e-01	-15.6942	-36.774491	0.000253	2.529285	0.856945	-0.020526
1394	6.9650e-01	-15.6718	-36.856595	-0.000202	-2.023428	-0.685556	-0.016421
1395	6.9700e-01	-15.7471	-36.909620	0.000131	1.306797	0.442755	-0.010605
1396	6.9750e-01	-15.7792	-36.987021	0.000191	1.907503	0.646279	-0.015480
1397	6.9800e-01	-15.8225	-37.079388	0.000228	2.276357	0.771251	-0.018473
1398	6.9850e-01	-15.8675	-37.160636	0.000200	2.002351	0.678415	-0.016250
1399	6.9900e-01	-15.9236	-37.240602	0.000197	1.970735	0.667703	-0.015993
1400	6.9950e-01	-15.9509	-37.302608	0.000153	1.528110	0.517738	-0.012401
1401	7.0000e-01	-15.9798	-37.385995	0.000206	2.055044	0.696268	-0.016677
1402	7.0050e-01	-16.0070	-37.485204	0.000244	2.444976	0.828380	-0.019842
1403	7.0100e-01	-16.0503	-37.545499	0.000149	1.485955	0.503455	-0.012059
1404	7.0150e-01	-16.0744	-37.649412	0.000256	2.560901	0.867657	-0.020783
1405	7.0200e-01	-16.1290	-37.740924	0.000226	2.255279	0.764109	-0.018302
1406	7.0250e-01	-16.1514	-37.792239	0.000126	1.264643	0.428473	-0.010263
1407	7.0300e-01	-16.2332	-37.844409	0.000129	1.285720	0.435614	-0.010434
1408	7.0350e-01	-16.2621	-37.938059	0.000231	2.307973	0.781962	-0.018730
1409	7.0400e-01	-16.3054	-38.006052	0.000168	1.675652	0.567726	-0.013598
1410	7.0450e-01	-16.3519	-38.087300	0.000200	2.002351	0.678415	-0.016250
1411	7.0500e-01	-16.3696	-38.179240	0.000227	2.265818	0.767680	-0.018388
1412	7.0550e-01	-16.4129	-38.255357	0.000188	1.875887	0.635568	-0.015223
1413	7.0600e-01	-16.4354	-38.334895	0.000196	1.960196	0.664132	-0.015908
1414	7.0650e-01	-16.4963	-38.393052	0.000143	1.433262	0.485602	-0.011631
1415	7.0700e-01	-16.5589	-38.485419	0.000228	2.276357	0.771251	-0.018473
1416	7.0750e-01	-16.5765	-38.551701	0.000163	1.633497	0.553444	-0.013256
1417	7.0800e-01	-16.6263	-38.635088	0.000206	2.055044	0.696268	-0.016677
1418	7.0850e-01	-16.6375	-38.726600	0.000226	2.255279	0.764109	-0.018302
1419	7.0900e-01	-16.6856	-38.804000	0.000191	1.907503	0.646279	-0.015480
1420	7.0950e-01	-16.7402	-38.875841	0.000177	1.770500	0.599862	-0.014368
1421	7.1000e-01	-16.7963	-38.950248	0.000183	1.833732	0.621285	-0.014881
1422	7.1050e-01	-16.8284	-39.010971	0.000150	1.496494	0.507026	-0.012145
1423	7.1100e-01	-16.8525	-39.094785	0.000207	2.065583	0.699838	-0.016763
1424	7.1150e-01	-16.9118	-39.182021	0.000215	2.149893	0.728403	-0.017447
1425	7.1200e-01	-16.9214	-39.264553	0.000203	2.033967	0.689127	-0.016506
1426	7.1250e-01	-16.9744	-39.329124	0.000159	1.591342	0.539161	-0.012914
1427	7.1300e-01	-17.0370	-39.383860	0.000135	1.348952	0.457037	-0.010947
1428	7.1350e-01	-17.0771	-39.481359	0.000240	2.402821	0.814098	-0.019500
1429	7.1400e-01	-17.0899	-39.574153	0.000229	2.286895	0.774821	-0.018559
1430	7.1450e-01	-17.1444	-39.669941	0.000236	2.360666	0.799815	-0.019158
1431	7.1500e-01	-17.1894	-39.712704	0.000105	1.053869	0.357060	-0.008553
1432	7.1550e-01	-17.2102	-39.812341	0.000246	2.455514	0.831951	-0.019927
1433	7.1600e-01	-17.2439	-39.892307	0.000197	1.970735	0.667703	-0.015993
1434	7.1650e-01	-17.3000	-39.958589	0.000163	1.633497	0.553444	-0.013256
1435	7.1700e-01	-17.3000	-40.052666	0.000232	2.318512	0.785533	-0.018816
1436	7.1750e-01	-17.3706	-40.121086	0.000169	1.686190	0.571297	-0.013684
1437	7.1800e-01	-17.4268	-40.191644	0.000174	1.738884	0.589150	-0.014112
1438	7.1850e-01	-17.4524	-40.289143	0.000240	2.402821	0.814098	-0.019500
1439	7.1900e-01	-17.5006	-40.361839	0.000179	1.791577	0.607003	-0.014539
1440	7.1950e-01	-17.5391	-40.438812	0.000190	1.896964	0.642709	-0.015395
1441	7.2000e-01	-17.5728	-40.514929	0.000188	1.875887	0.635568	-0.015223
1442	7.2050e-01	-17.6225	-40.607296	0.000228	2.276357	0.771251	-0.018473
1443	7.2100e-01	-17.6514	-40.679137	0.000177	1.770500	0.599862	-0.014368
1444	7.2150e-01	-17.6770	-40.758675	0.000196	1.960196	0.664132	-0.015908
1445	7.2200e-01	-17.7348	-40.824102	0.000161	1.612419	0.546302	-0.013085
1446	7.2250e-01	-17.7701	-40.916897	0.000229	2.286895	0.774821	-0.018559
1447	7.2300e-01	-17.8198	-40.996435	0.000196	1.960196	0.664132	-0.015908
1448	7.2350e-01	-17.8535	-41.074691	0.000193	1.928580	0.653421	-0.015651
1449	7.2400e-01	-17.9032	-41.165347	0.000223	2.234202	0.756968	-0.018131
1450	7.2450e-01	-17.9369	-41.235905	0.000174	1.738884	0.589150	-0.014112
1451	7.2500e-01	-17.9658	-41.305181	0.000171	1.707268	0.578438	-0.013855
1452	7.2550e-01	-17.9915	-41.409521	0.000257	2.571440	0.871227	-0.020868
1453	7.2600e-01	-18.0588	-41.465540	0.000138	1.380568	0.467749	-0.011204
1454	7.2650e-01	-18.0893	-41.558762	0.000230	2.297434	0.778392	-0.018644
1455	7.2700e-01	-18.1615	-41.647708	0.000219	2.192047	0.742686	-0.017789
1456	7.2750e-01	-18.1776	-41.719549	0.000177	1.770500	0.599862	-0.014368
1457	7.2800e-01	-18.2321	-41.791818	0.000178	1.781038	0.603432	-0.014454
1458	7.2850e-01	-18.2578	-41.853824	0.000153	1.528110	0.517738	-0.012401
1459	7.2900e-01	-18.3171	-41.959875	0.000261	2.613595	0.885510	-0.021210
1460	7.2950e-01	-18.3524	-42.026157	0.000163	1.633497	0.553444	-0.013256
1461	7.3000e-01	-18.3893	-42.102702	0.000189	1.886425	0.639138	-0.015309
1462	7.3050e-01	-18.4198	-42.192931	0.000222	2.223663	0.753398	-0.018046
1463	7.3100e-01	-18.4503	-42.265627	0.000179	1.791577	0.607003	-0.014539
1464	7.3150e-01	-18.5273	-42.353718	0.000217	2.170970	0.735545	-0.017618
1465	7.3200e-01	-18.5385	-42.450789	0.000239	2.392282	0.810527	-0.019414
1466	7.3250e-01	-18.5610	-42.530755	0.000197	1.970735	0.667703	-0.015993
1467	7.3300e-01	-18.6171	-42.588484	0.000142	1.422723	0.482032	-0.011546
1468	7.3350e-01	-18.6476	-42.694963	0.000262	2.624134	0.889080	-0.021296
1469	7.3400e-01	-18.6861	-42.770225	0.000185	1.854809	0.628426	-0.015052
1470	7.3450e-01	-18.7455	-42.842493	0.000178	1.781038	0.603432	-0.014454
1471	7.3500e-01	-18.7583	-42.940847	0.000242	2.423898	0.821239	-0.019671
1472	7.3550e-01	-18.8000	-42.994728	0.000133	1.327875	0.449896	-0.010776
1473	7.3600e-01	-18.8610	-43.080681	0.000212	2.118276	0.717691	-0.017191
1474	7.3650e-01	-18.9139	-43.168771	0.000217	2.170970	0.735545	-0.017618
1475	7.3700e-01	-18.9332	-43.259856	0.000224	2.244741	0.760539	-0.018217
1476	7.3750e-01	-18.9620	-43.360775	0.000249	2.487131	0.842663	-0.020184
1477	7.3800e-01	-19.0118	-43.419788	0.000145	1.454339	0.492743	-0.011802
1478	7.3850e-01	-19.0342	-43.526694	0.000263	2.634672	0.892651	-0.021381
1479	7.3900e-01	-19.0888	-43.588699	0.000153	1.528110	0.517738	-0.012401
1480	7.3950e-01	-19.1561	-43.663962	0.000185	1.854809	0.628426	-0.015052
1481	7.4000e-01	-19.1690	-43.757611	0.000231	2.307973	0.781962	-0.018730
1482	7.4050e-01	-19.2139	-43.838005	0.000198	1.981273	0.671274	-0.016079
1483	7.4100e-01	-19.2508	-43.935504	0.000240	2.402821	0.814098	-0.019500
1484	7.4150e-01	-19.2989	-44.017180	0.000201	2.012890	0.681985	-0.016335
1485	7.4200e-01	-19.3150	-44.112113	0.000234	2.339589	0.792674	-0.018987
1486	7.4250e-01	-19.3791	-44.164711	0.000130	1.296259	0.439184	-0.010520
1487	7.4300e-01	-19.4257	-44.272472	0.000266	2.655750	0.899792	-0.021552
1488	7.4350e-01	-19.4481	-44.345169	0.000179	1.791577	0.607003	-0.014539
1489	7.4400e-01	-19.4994	-44.425135	0.000197	1.970735	0.667703	-0.015993
1490	7.4450e-01	-19.5363	-44.507666	0.000203	2.033967	0.689127	-0.016506
1491	7.4500e-01	-19.5813	-44.569244	0.000152	1.517571	0.514167	-0.012316
1492	7.4550e-01	-19.5909	-44.695394	0.000311	3.108913	1.053328	-0.025230
1493	7.4600e-01	-19.6567	-44.766807	0.000176	1.759961	0.596291	-0.014283
1494	7.4650e-01	-19.6807	-44.844207	0.000191	1.907503	0.646279	-0.015480
1495	7.4700e-01	-19.7433	-44.934864	0.000223	2.234202	0.756968	-0.018131
1496	7.4750e-01	-19.7706	-45.016113	0.000200	2.002351	0.678415	-0.016250
1497	7.4800e-01	-19.8251	-45.116605	0.000248	2.476592	0.839092	-0.020098
1498	7.4850e-01	-19.8460	-45.194432	0.000192	1.918041	0.649850	-0.015566
1499	7.4900e-01	-19.8989	-45.299628	0.000259	2.592517	0.878369	-0.021039
1500	7.4950e-01	-19.9390	-45.362917	0.000156	1.559726	0.528449	-0.012658
1501	7.5000e-01	-19.9695	-45.448442	0.000211	2.107738	0.714121	-0.017105
1502	7.5050e-01	-19.9198	-45.486928	-0.000095	-0.948482	-0.321354	-0.007697
1503	7.5100e-01	-19.8636	-45.444593	0.000104	1.043330	0.353490	0.008467
1504	7.5150e-01	-19.8315	-45.393706	0.000125	1.254104	0.424902	0.010177
1505	7.5200e-01	-19.8043	-45.364200	0.000073	0.727170	0.246372	0.005901
1506	7.5250e-01	-19.7465	-45.316306	0.000118	1.180333	0.399908	0.009579
1507	7.5300e-01	-19.7064	-45.273971	0.000104	1.043330	0.353490	0.008467
1508	7.5350e-01	-19.6727	-45.237195	0.000091	0.906327	0.307072	0.007355
1509	7.5400e-01	-19.6182	-45.191011	0.000114	1.138178	0.385625	0.009237
1510	7.5450e-01	-19.6021	-45.117460	0.000181	1.812654	0.614144	0.014710
1511	7.5500e-01	-19.5315	-45.063151	0.000134	1.338413	0.453467	0.010862
1512	7.5550e-01	-19.5027	-45.020817	0.000104	1.043330	0.353490	0.008467
1513	7.5600e-01	-19.4577	-44.989172	0.000078	0.779863	0.264225	0.006329
1514	7.5650e-01	-19.4321	-44.907923	0.000200	2.002351	0.678415	0.016250
1515	7.5700e-01	-19.3888	-44.857464	0.000124	1.243565	0.421331	0.010092
1516	7.5750e-01	-19.3358	-44.816839	0.000100	1.001175	0.339207	0.008125
1517	7.5800e-01	-19.3005	-44.740722	0.000188	1.875887	0.635568	0.015223
1518	7.5850e-01	-19.2861	-44.666315	0.000183	1.833732	0.621285	0.014881
1519	7.5900e-01	-19.2139	-44.653059	0.000033	0.326699	0.110689	0.002651
1520	7.5950e-01	-19.1802	-44.584639	0.000169	1.686190	0.571297	0.013684
1521	7.6000e-01	-19.1818	-44.511087	-0.000181	-1.812654	-0.614144	0.014710
1522	7.6050e-01	-19.1273	-44.457634	0.000132	1.317336	0.446326	0.010691
1523	7.6100e-01	-19.0823	-44.396056	0.000152	1.517571	0.514167	0.012316
1524	7.6150e-01	-19.0567	-44.325498	0.000174	1.738884	0.589150	0.014112
1525	7.6200e-01	-18.9652	-44.302406	0.000057	0.569089	0.192813	0.004618
1526	7.6250e-01	-18.9733	-44.211750	-0.000223	-2.234202	-0.756968	0.018131
1527	7.6300e-01	-18.9059	-44.155731	0.000138	1.380568	0.467749	0.011204
1528	7.6350e-01	-18.8545	-44.123231	0.000080	0.800940	0.271366	0.006500
1529	7.6400e-01	-18.8353	-44.044120	0.000195	1.949657	0.660562	0.015822
1530	7.6450e-01	-18.8144	-43.962444	0.000201	2.012890	0.681985	0.016335
1531	7.6500e-01	-18.7503	-43.910701	0.000128	1.275181	0.432043	0.010349
1532	7.6550e-01	-18.7005	-43.876064	0.000085	0.853634	0.289219	0.006928
1533	7.6600e-01	-18.7005	-43.780703	-0.000235	-2.350128	-0.796245	0.019072
1534	7.6650e-01	-18.6284	-43.738368	0.000104	1.043330	0.353490	0.008467
1535	7.6700e-01	-18.6027	-43.668665	0.000172	1.717806	0.582009	0.013941
1536	7.6750e-01	-18.5433	-43.604522	0.000158	1.580803	0.535591	0.012829
1537	7.6800e-01	-18.5257	-43.556628	0.000118	1.180333	0.399908	0.009579
1538	7.6850e-01	-18.4920	-43.473668	0.000204	2.044506	0.692697	0.016592
1539	7.6900e-01	-18.4294	-43.424919	0.000120	1.201411	0.407049	0.009750
1540	7.6950e-01	-18.3989	-43.346664	0.000193	1.928580	0.653421	0.015651
1541	7.7000e-01	-18.3572	-43.274395	0.000178	1.781038	0.603432	0.014454
1542	7.7050e-01	-18.3155	-43.212817	0.000152	1.517571	0.514167	0.012316
1543	7.7100e-01	-18.2626	-43.181173	0.000078	0.779863	0.264225	0.006329
1544	7.7150e-01	-18.2385	-43.094365	0.000214	2.139354	0.724833	0.017362
1545	7.7200e-01	-18.2048	-43.036208	0.000143	1.433262	0.485602	0.011631
1546	7.7250e-01	-18.1551	-42.958380	0.000192	1.918041	0.649850	0.015566
1547	7.7300e-01	-18.1038	-42.918183	0.000099	0.990637	0.335637	0.008039
1548	7.7350e-01	-18.0990	-42.835224	0.000204	2.044506	0.692697	0.016592
1549	7.7400e-01	-18.0011	-42.782626	0.000130	1.296259	0.439184	0.010520
1550	7.7450e-01	-17.9786	-42.716344	0.000163	1.633497	0.553444	0.013256
1551	7.7500e-01	-17.9466	-42.636806	0.000196	1.960196	0.664132	0.015908
1552	7.7550e-01	-17.9032	-42.580787	0.000138	1.380568	0.467749	0.011204
1553	7.7600e-01	-17.8872	-42.499538	0.000200	2.002351	0.678415	0.016250
1554	7.7650e-01	-17.8166	-42.460624	0.000096	0.959021	0.324925	0.007783
1555	7.7700e-01	-17.7797	-42.394342	0.000163	1.633497	0.553444	0.013256
1556	7.7750e-01	-17.7573	-42.322929	0.000176	1.759961	0.596291	0.014283
1557	7.7800e-01	-17.7204	-42.266055	0.000140	1.401646	0.474890	0.011375
1558	7.7850e-01	-17.6690	-42.200628	0.000161	1.612419	0.546302	0.013085
1559	7.7900e-01	-17.6482	-42.122372	0.000193	1.928580	0.653421	0.015651
1560	7.7950e-01	-17.6225	-42.049676	0.000179	1.791577	0.607003	0.014539
1561	7.8000e-01	-17.5615	-41.990664	0.000145	1.454339	0.492743	0.011802
1562	7.8050e-01	-17.5150	-41.920533	0.000173	1.728345	0.585579	0.014026
1563	7.8100e-01	-17.4749	-41.863232	0.000141	1.412184	0.478461	0.011460
1564	7.8150e-01	-17.4428	-41.791818	0.000176	1.759961	0.596291	0.014283
1565	7.8200e-01	-17.3883	-41.734516	0.000141	1.412184	0.478461	0.011460
1566	7.8250e-01	-17.3578	-41.658399	0.000188	1.875887	0.635568	0.015223
1567	7.8300e-01	-17.2952	-41.584847	0.000181	1.812654	0.614144	0.014710
1568	7.8350e-01	-17.2728	-41.530539	0.000134	1.338413	0.453467	0.010862
1569	7.8400e-01	-17.1990	-41.462974	0.000167	1.665113	0.564155	0.013513
1570	7.8450e-01	-17.1797	-41.409093	0.000133	1.327875	0.449896	0.010776
1571	7.8500e-01	-17.1444	-41.312450	0.000238	2.381744	0.806957	0.019329
1572	7.8550e-01	-17.1348	-41.267550	0.000111	1.106562	0.374913	0.008980
1573	7.8600e-01	-17.0835	-41.181597	0.000212	2.118276	0.717691	0.017191
1574	7.8650e-01	-17.0049	-41.134130	0.000117	1.169794	0.396337	0.009493
1575	7.8700e-01	-16.9696	-41.055447	0.000194	1.939119	0.656991	0.015737
1576	7.8750e-01	-16.9407	-41.000284	0.000136	1.359491	0.460608	0.011033
1577	7.8800e-01	-16.9102	-40.914759	0.000211	2.107738	0.714121	0.017105
1578	7.8850e-01	-16.8749	-40.833937	0.000199	1.991812	0.674844	0.016164
1579	7.8900e-01	-16.8348	-40.767656	0.000163	1.633497	0.553444	0.013256
1580	7.8950e-01	-16.8188	-40.708216	0.000146	1.464878	0.496314	0.011888
1581	7.9000e-01	-16.7418	-40.659894	0.000119	1.190872	0.403478	0.009664
1582	7.9050e-01	-16.7225	-40.571803	0.000217	2.170970	0.735545	0.017618
1583	7.9100e-01	-16.6985	-40.496114	0.000187	1.865348	0.631997	0.015138
1584	7.9150e-01	-16.6215	-40.440522	0.000137	1.370030	0.464179	0.011118
1585	7.9200e-01	-16.5894	-40.374668	0.000162	1.622958	0.549873	0.013171
1586	7.9250e-01	-16.5557	-40.301544	0.000180	1.802116	0.610573	0.014625
1587	7.9300e-01	-16.5108	-40.220295	0.000200	2.002351	0.678415	0.016250
1588	7.9350e-01	-16.4658	-40.166414	0.000133	1.327875	0.449896	0.010776
1589	7.9400e-01	-16.4209	-40.083883	0.000203	2.033967	0.689127	0.016506
1590	7.9450e-01	-16.4065	-40.025726	0.000143	1.433262	0.485602	0.011631
1591	7.9500e-01	-16.3600	-39.944477	0.000200	2.002351	0.678415	0.016250
1592	7.9550e-01	-16.3231	-39.894872	0.000122	1.222488	0.414190	0.009921
1593	7.9600e-01	-16.2332	-39.818755	0.000188	1.875887	0.635568	0.015223
1594	7.9650e-01	-16.1979	-39.780269	0.000095	0.948482	0.321354	0.007697
1595	7.9700e-01	-16.1691	-39.698592	0.000201	2.012890	0.681985	0.016335
1596	7.9750e-01	-16.1338	-39.622475	0.000188	1.875887	0.635568	0.015223
1597	7.9800e-01	-16.1081	-39.522411	0.000247	2.466053	0.835521	0.020013
1598	7.9850e-01	-16.0840	-39.450142	0.000178	1.781038	0.603432	0.014454
1599	7.9900e-01	-16.0295	-39.406524	0.000107	1.074946	0.364202	0.008724
1600	7.9950e-01	-15.9733	-39.347512	0.000145	1.454339	0.492743	0.011802
1601	8.0000e-01	-15.9525	-39.243599	0.000256	2.560901	0.867657	0.020783
1602	8.0050e-01	-15.9076	-39.162778	0.000199	1.991812	0.674844	0.016164
1603	8.0100e-01	-15.8787	-39.140541	0.000055	0.548012	0.185671	0.004447
1604	8.0150e-01	-15.8466	-39.049885	0.000223	2.234202	0.756968	0.018131
1605	8.0200e-01	-15.8081	-38.984886	0.000160	1.601881	0.542732	0.013000
1606	8.0250e-01	-15.7584	-38.892946	0.000227	2.265818	0.767680	0.018388
1607	8.0300e-01	-15.7183	-38.853605	0.000097	0.969559	0.328496	0.007868
1608	8.0350e-01	-15.6669	-38.778343	0.000185	1.854809	0.628426	0.015052
1609	8.0400e-01	-15.6349	-38.698804	0.000196	1.960196	0.664132	0.015908
1610	8.0450e-01	-15.5787	-38.626108	0.000179	1.791577	0.607003	0.014539
1611	8.0500e-01	-15.5723	-38.539300	0.000214	2.139354	0.724833	0.017362
1612	8.0550e-01	-15.5177	-38.493544	0.000113	1.127640	0.382055	0.009151
1613	8.0600e-01	-15.4744	-38.428118	0.000161	1.612419	0.546302	0.013085
1614	8.0650e-01	-15.4343	-38.354139	0.000182	1.823193	0.617715	0.014796
1615	8.0700e-01	-15.3686	-38.265620	0.000218	2.181509	0.739115	0.017704
1616	8.0750e-01	-15.3252	-38.226706	0.000096	0.959021	0.324925	0.007783
1617	8.0800e-01	-15.3060	-38.145885	0.000199	1.991812	0.674844	0.016164
1618	8.0850e-01	-15.2514	-38.060788	0.000210	2.097199	0.710550	0.017019
1619	8.0900e-01	-15.2322	-37.974835	0.000212	2.118276	0.717691	0.017191
1620	8.0950e-01	-15.2161	-37.921809	0.000131	1.306797	0.442755	0.010605
1621	8.1000e-01	-15.1552	-37.852106	0.000172	1.717806	0.582009	0.013941
1622	8.1050e-01	-15.1247	-37.756318	0.000236	2.360666	0.799815	0.019158
1623	8.1100e-01	-15.0750	-37.702438	0.000133	1.327875	0.449896	0.010776
1624	8.1150e-01	-15.0381	-37.637439	0.000160	1.601881	0.542732	0.013000
1625	8.1200e-01	-15.0044	-37.542506	0.000234	2.339589	0.792674	0.018987
1626	8.1250e-01	-14.9402	-37.484776	0.000142	1.422723	0.482032	0.011546
1627	8.1300e-01	-14.9017	-37.420205	0.000159	1.591342	0.539161	0.012914
1628	8.1350e-01	-14.8648	-37.378725	0.000102	1.022253	0.346349	0.008296
1629	8.1400e-01	-14.8247	-37.281227	0.000240	2.402821	0.814098	0.019500
1630	8.1450e-01	-14.8119	-37.205537	0.000187	1.865348	0.631997	0.015138
1631	8.1500e-01	-14.7381	-37.135406	0.000173	1.728345	0.585579	0.014026
1632	8.1550e-01	-14.7188	-37.067414	0.000168	1.675652	0.567726	0.013598
1633	8.1600e-01	-14.6691	-36.968205	0.000244	2.444976	0.828380	0.019842
1634	8.1650e-01	-14.6065	-36.946396	0.000054	0.537473	0.182101	0.004362
1635	8.1700e-01	-14.5953	-36.849325	0.000239	2.392282	0.810527	0.019414
1636	8.1750e-01	-14.5504	-36.768504	0.000199	1.991812	0.674844	0.016164
1637	8.1800e-01	-14.4862	-36.703077	0.000161	1.612419	0.546302	0.013085
1638	8.1850e-01	-14.4782	-36.623539	0.000196	1.960196	0.664132	0.015908
1639	8.1900e-01	-14.4204	-36.549132	0.000183	1.833732	0.621285	0.014881
1640	8.1950e-01	-14.3900	-36.480285	0.000170	1.696729	0.574867	0.013770
1641	8.2000e-01	-14.3547	-36.388345	0.000227	2.265818	0.767680	0.018388
1642	8.2050e-01	-14.3065	-36.338313	0.000123	1.233027	0.417761	0.010006
1643	8.2100e-01	-14.2713	-36.257919	0.000198	1.981273	0.671274	0.016079
1644	8.2150e-01	-14.2087	-36.204039	0.000133	1.327875	0.449896	0.010776
1645	8.2200e-01	-14.2039	-36.127066	0.000190	1.896964	0.642709	0.015395
1646	8.2250e-01	-14.1558	-36.018022	0.000269	2.687366	0.910504	0.021809
1647	8.2300e-01	-14.1285	-35.957726	0.000149	1.485955	0.503455	0.012059
1648	8.2350e-01	-14.0868	-35.876478	0.000200	2.002351	0.678415	0.016250
1649	8.2400e-01	-14.0322	-35.811051	0.000161	1.612419	0.546302	0.013085
1650	8.2450e-01	-13.9937	-35.742631	0.000169	1.686190	0.571297	0.013684
1651	8.2500e-01	-13.9584	-35.676349	0.000163	1.633497	0.553444	0.013256
1652	8.2550e-01	-13.9135	-35.597238	0.000195	1.949657	0.660562	0.015822
1653	8.2600e-01	-13.8718	-35.525825	0.000176	1.759961	0.596291	0.014283
1654	8.2650e-01	-13.8301	-35.446714	0.000195	1.949657	0.660562	0.015822
1655	8.2700e-01	-13.7980	-35.377439	0.000171	1.707268	0.578438	0.013855
1656	8.2750e-01	-13.7258	-35.318854	0.000144	1.443800	0.489173	0.011717
1657	8.2800e-01	-13.6873	-35.238033	0.000199	1.991812	0.674844	0.016164
1658	8.2850e-01	-13.6536	-35.172606	0.000161	1.612419	0.546302	0.013085
1659	8.2900e-01	-13.6039	-35.093068	0.000196	1.960196	0.664132	0.015908
1660	8.2950e-01	-13.5991	-35.004122	0.000219	2.192047	0.742686	0.017789
1661	8.3000e-01	-13.5397	-34.945537	0.000144	1.443800	0.489173	0.011717
1662	8.3050e-01	-13.4980	-34.840342	0.000259	2.592517	0.878369	0.021039
1663	8.3100e-01	-13.4836	-34.773632	0.000164	1.644035	0.557014	0.013342
1664	8.3150e-01	-13.4499	-34.700508	0.000180	1.802116	0.610573	0.014625
1665	8.3200e-01	-13.3729	-34.656890	0.000107	1.074946	0.364202	0.008724
1666	8.3250e-01	-13.3552	-34.554260	0.000253	2.529285	0.856945	0.020526
1667	8.3300e-01	-13.3199	-34.477288	0.000190	1.896964	0.642709	0.015395
1668	8.3350e-01	-13.2686	-34.415282	0.000153	1.528110	0.517738	0.012401
1669	8.3400e-01	-13.2285	-34.318211	0.000239	2.392282	0.810527	0.019414
1670	8.3450e-01	-13.1980	-34.246370	0.000177	1.770500	0.599862	0.014368
1671	8.3500e-01	-13.1483	-34.179661	0.000164	1.644035	0.557014	0.013342
1672	8.3550e-01	-13.0921	-34.118083	0.000152	1.517571	0.514167	0.012316
1673	8.3600e-01	-13.0601	-34.042820	0.000185	1.854809	0.628426	0.015052
1674	8.3650e-01	-13.0296	-33.970552	0.000178	1.781038	0.603432	0.014454
1675	8.3700e-01	-13.0039	-33.859797	0.000273	2.729520	0.924787	0.022151
1676	8.3750e-01	-12.9574	-33.800357	0.000146	1.464878	0.496314	0.011888
1677	8.3800e-01	-12.8964	-33.731509	0.000170	1.696729	0.574867	0.013770
1678	8.3850e-01	-12.8884	-33.640425	0.000224	2.244741	0.760539	0.018217
1679	8.3900e-01	-12.8804	-33.540361	0.000247	2.466053	0.835521	0.020013
1680	8.3950e-01	-12.7889	-33.498881	0.000102	1.022253	0.346349	0.008296
1681	8.4000e-01	-12.7553	-33.424902	0.000182	1.823193	0.617715	0.014796
1682	8.4050e-01	-12.7216	-33.354344	0.000174	1.738884	0.589150	0.014112
1683	8.4100e-01	-12.6542	-33.279509	0.000184	1.844271	0.624856	0.014967
1684	8.4150e-01	-12.6510	-33.185004	0.000233	2.329050	0.789104	0.018901
1685	8.4200e-01	-12.5980	-33.105894	0.000195	1.949657	0.660562	0.015822
1686	8.4250e-01	-12.5531	-33.036618	0.000171	1.707268	0.578438	0.013855
1687	8.4300e-01	-12.5307	-32.967343	0.000171	1.707268	0.578438	0.013855
1688	8.4350e-01	-12.4681	-32.895930	0.000176	1.759961	0.596291	0.014283
1689	8.4400e-01	-12.4248	-32.820667	0.000185	1.854809	0.628426	0.015052
1690	8.4450e-01	-12.4023	-32.734287	0.000213	2.128815	0.721262	0.017276
1691	8.4500e-01	-12.3686	-32.657742	0.000189	1.886425	0.639138	0.015309
1692	8.4550e-01	-12.3013	-32.585474	0.000178	1.781038	0.603432	0.014454
1693	8.4600e-01	-12.2948	-32.508501	0.000190	1.896964	0.642709	0.015395
1694	8.4650e-01	-12.2162	-32.434949	0.000181	1.812654	0.614144	0.014710
1695	8.4700e-01	-12.1938	-32.335313	0.000246	2.455514	0.831951	0.019927
1696	8.4750e-01	-12.1440	-32.267748	0.000167	1.665113	0.564155	0.013513
1697	8.4800e-01	-12.1007	-32.224558	0.000106	1.064408	0.360631	0.008638
1698	8.4850e-01	-12.0590	-32.136039	0.000218	2.181509	0.739115	0.017704
1699	8.4900e-01	-12.0237	-32.056073	0.000197	1.970735	0.667703	0.015993
1700	8.4950e-01	-11.9900	-31.985088	0.000175	1.749422	0.592720	0.014197
1701	8.5000e-01	-11.9227	-31.899990	0.000210	2.097199	0.710550	0.017019
1702	8.5050e-01	-11.9098	-31.790946	0.000269	2.687366	0.910504	0.021809
1703	8.5100e-01	-11.8665	-31.745190	0.000113	1.127640	0.382055	0.009151
1704	8.5150e-01	-11.8152	-31.663086	0.000202	2.023428	0.685556	0.016421
1705	8.5200e-01	-11.7879	-31.567725	0.000235	2.350128	0.796245	0.019072
1706	8.5250e-01	-11.7462	-31.495884	0.000177	1.770500	0.599862	0.014368
1707	8.5300e-01	-11.6852	-31.437727	0.000143	1.433262	0.485602	0.011631
1708	8.5350e-01	-11.6515	-31.342795	0.000234	2.339589	0.792674	0.018987
1709	8.5400e-01	-11.6098	-31.258125	0.000209	2.086660	0.706980	0.016934
1710	8.5450e-01	-11.5842	-31.193553	0.000159	1.591342	0.539161	0.012914
1711	8.5500e-01	-11.5665	-31.086219	0.000265	2.645211	0.896222	0.021467
1712	8.5550e-01	-11.5136	-31.028490	0.000142	1.422723	0.482032	0.011546
1713	8.5600e-01	-11.4510	-30.960070	0.000169	1.686190	0.571297	0.013684
1714	8.5650e-01	-11.4382	-30.866848	0.000230	2.297434	0.778392	0.018644
1715	8.5700e-01	-11.3933	-30.788165	0.000194	1.939119	0.656991	0.015737
1716	8.5750e-01	-11.3628	-30.689383	0.000243	2.434437	0.824810	0.019756
1717	8.5800e-01	-11.3195	-30.639779	0.000122	1.222488	0.414190	0.009921
1718	8.5850e-01	-11.2970	-30.533727	0.000261	2.613595	0.885510	0.021210
1719	8.5900e-01	-11.2553	-30.460176	0.000181	1.812654	0.614144	0.014710
1720	8.5950e-01	-11.1799	-30.413137	0.000116	1.159256	0.392766	0.009408
1721	8.6000e-01	-11.1254	-30.340441	0.000179	1.791577	0.607003	0.014539
1722	8.6050e-01	-11.1414	-30.230114	-0.000272	-2.718982	-0.921216	0.022065
1723	8.6100e-01	-11.0580	-30.179226	0.000125	1.254104	0.424902	0.010177
1724	8.6150e-01	-11.0131	-30.093273	0.000212	2.118276	0.717691	0.017191
1725	8.6200e-01	-10.9874	-29.978242	0.000283	2.834907	0.960493	0.023006
1726	8.6250e-01	-10.9328	-29.934197	0.000109	1.085485	0.367772	0.008809
1727	8.6300e-01	-10.9248	-29.820449	0.000280	2.803291	0.949781	0.022750
1728	8.6350e-01	-10.8623	-29.758443	0.000153	1.528110	0.517738	0.012401
1729	8.6400e-01	-10.8462	-29.672490	0.000212	2.118276	0.717691	0.017191
1730	8.6450e-01	-10.7612	-29.598511	0.000182	1.823193	0.617715	0.014796
1731	8.6500e-01	-10.7628	-29.518973	-0.000196	-1.960196	-0.664132	0.015908
1732	8.6550e-01	-10.7099	-29.429171	0.000221	2.213125	0.749827	0.017960
1733	8.6600e-01	-10.6954	-29.366310	0.000155	1.549187	0.524879	0.012572
1734	8.6650e-01	-10.6232	-29.279503	0.000214	2.139354	0.724833	0.017362
1735	8.6700e-01	-10.5976	-29.204668	0.000184	1.844271	0.624856	0.014967
1736	8.6750e-01	-10.5190	-29.124702	0.000197	1.970735	0.667703	0.015993
1737	8.6800e-01	-10.5125	-29.031052	0.000231	2.307973	0.781962	0.018730
1738	8.6850e-01	-10.4740	-28.961777	0.000171	1.707268	0.578438	0.013855
1739	8.6900e-01	-10.4163	-28.890791	0.000175	1.749422	0.592720	0.014197
1740	8.6950e-01	-10.4163	-28.769773	-0.000298	-2.982449	-1.010481	0.024204
1741	8.7000e-01	-10.3345	-28.721452	0.000119	1.190872	0.403478	0.009664
1742	8.7050e-01	-10.3024	-28.641058	0.000198	1.981273	0.671274	0.016079
1743	8.7100e-01	-10.2671	-28.561092	0.000197	1.970735	0.667703	0.015993
1744	8.7150e-01	-10.2254	-28.473429	0.000216	2.160431	0.731974	0.017533
1745	8.7200e-01	-10.1981	-28.368661	0.000258	2.581979	0.874798	0.020954
1746	8.7250e-01	-10.1420	-28.283136	0.000211	2.107738	0.714121	0.017105
1747	8.7300e-01	-10.1099	-28.234386	0.000120	1.201411	0.407049	0.009750
1748	8.7350e-01	-10.0698	-28.159552	0.000184	1.844271	0.624856	0.014967
1749	8.7400e-01	-10.0569	-28.042383	0.000289	2.887601	0.978346	0.023434
1750	8.7450e-01	-9.9880	-27.965410	0.000190	1.896964	0.642709	0.015395
1751	8.7500e-01	-9.9607	-27.879885	0.000211	2.107738	0.714121	0.017105
1752	8.7550e-01	-9.9045	-27.807189	0.000179	1.791577	0.607003	0.014539
1753	8.7600e-01	-9.8837	-27.734492	0.000179	1.791577	0.607003	0.014539
1754	8.7650e-01	-9.8436	-27.632718	0.000251	2.508208	0.849804	0.020355
1755	8.7700e-01	-9.8067	-27.562587	0.000173	1.728345	0.585579	0.014026
1756	8.7750e-01	-9.7714	-27.485187	0.000191	1.907503	0.646279	0.015480
1757	8.7800e-01	-9.7233	-27.386405	0.000243	2.434437	0.824810	0.019756
1758	8.7850e-01	-9.6350	-27.329959	0.000139	1.391107	0.471320	0.011289
1759	8.7900e-01	-9.6126	-27.226474	0.000255	2.550363	0.864086	0.020697
1760	8.7950e-01	-9.5997	-27.106739	0.000295	2.950833	0.999769	0.023947
1761	8.8000e-01	-9.5420	-27.076805	0.000074	0.737708	0.249942	0.005987
1762	8.8050e-01	-9.5163	-26.995556	0.000200	2.002351	0.678415	0.016250
1763	8.8100e-01	-9.4682	-26.904044	0.000226	2.255279	0.764109	0.018302
1764	8.8150e-01	-9.4233	-26.823223	0.000199	1.991812	0.674844	0.016164
1765	8.8200e-01	-9.4056	-26.728718	0.000233	2.329050	0.789104	0.018901
1766	8.8250e-01	-9.3559	-26.638061	0.000223	2.234202	0.756968	0.018131
1767	8.8300e-01	-9.3174	-26.570069	0.000168	1.675652	0.567726	0.013598
1768	8.8350e-01	-9.2612	-26.489675	0.000198	1.981273	0.671274	0.016079
1769	8.8400e-01	-9.2420	-26.402012	0.000216	2.160431	0.731974	0.017533
1770	8.8450e-01	-9.1874	-26.311356	0.000223	2.234202	0.756968	0.018131
1771	8.8500e-01	-9.1521	-26.233100	0.000193	1.928580	0.653421	0.015651
1772	8.8550e-01	-9.0960	-26.143726	0.000220	2.202586	0.746256	0.017875
1773	8.8600e-01	-9.0880	-26.070602	0.000180	1.802116	0.610573	0.014625
1774	8.8650e-01	-9.0511	-25.959848	0.000273	2.729520	0.924787	0.022151
1775	8.8700e-01	-9.0030	-25.876033	0.000207	2.065583	0.699838	0.016763
1776	8.8750e-01	-8.9404	-25.806330	0.000172	1.717806	0.582009	0.013941
1777	8.8800e-01	-8.9227	-25.719950	0.000213	2.128815	0.721262	0.017276
1778	8.8850e-01	-8.8666	-25.643405	0.000189	1.886425	0.639138	0.015309
1779	8.8900e-01	-8.8345	-25.553604	0.000221	2.213125	0.749827	0.017960
1780	8.8950e-01	-8.7832	-25.471499	0.000202	2.023428	0.685556	0.016421
1781	8.9000e-01	-8.7190	-25.387257	0.000208	2.076122	0.703409	0.016848
1782	8.9050e-01	-8.7254	-25.292752	-0.000233	-2.329050	-0.789104	0.018901
1783	8.9100e-01	-8.6580	-25.229464	0.000156	1.559726	0.528449	0.012658
1784	8.9150e-01	-8.6260	-25.133248	0.000237	2.371205	0.803386	0.019243
1785	8.9200e-01	-8.5939	-25.028480	0.000258	2.581979	0.874798	0.020954
1786	8.9250e-01	-8.5618	-24.928843	0.000246	2.455514	0.831951	0.019927
1787	8.9300e-01	-8.5040	-24.884370	0.000110	1.096024	0.371343	0.008895
1788	8.9350e-01	-8.4880	-24.788154	0.000237	2.371205	0.803386	0.019243
1789	8.9400e-01	-8.4367	-24.696215	0.000227	2.265818	0.767680	0.018388
1790	8.9450e-01	-8.4110	-24.594440	0.000251	2.508208	0.849804	0.020355
1791	8.9500e-01	-8.3661	-24.529013	0.000161	1.612419	0.546302	0.013085
1792	8.9550e-01	-8.3228	-24.429804	0.000244	2.444976	0.828380	0.019842
1793	8.9600e-01	-8.2955	-24.348556	0.000200	2.002351	0.678415	0.016250
1794	8.9650e-01	-8.2313	-24.256188	0.000228	2.276357	0.771251	0.018473
1795	8.9700e-01	-8.1880	-24.176650	0.000196	1.960196	0.664132	0.015908
1796	8.9750e-01	-8.1335	-24.105237	0.000176	1.759961	0.596291	0.014283
1797	8.9800e-01	-8.0837	-24.008593	0.000238	2.381744	0.806957	0.019329
1798	8.9850e-01	-8.0484	-23.932904	0.000187	1.865348	0.631997	0.015138
1799	8.9900e-01	-8.0067	-23.839254	0.000231	2.307973	0.781962	0.018730
1800	8.9950e-01	-7.9955	-23.734486	0.000258	2.581979	0.874798	0.020954
1801	9.0000e-01	-7.9586	-23.687447	0.000116	1.159256	0.392766	0.009408
1802	9.0050e-01	-7.9105	-23.558304	0.000318	3.182684	1.078323	0.025829
1803	9.0100e-01	-7.8479	-23.503996	0.000134	1.338413	0.453467	0.010862
1804	9.0150e-01	-7.8351	-23.377846	0.000311	3.108913	1.053328	0.025230
1805	9.0200e-01	-7.7982	-23.314558	0.000156	1.559726	0.528449	0.012658
1806	9.0250e-01	-7.7292	-23.233309	0.000200	2.002351	0.678415	0.016250
1807	9.0300e-01	-7.7148	-23.140514	0.000229	2.286895	0.774821	0.018559
1808	9.0350e-01	-7.6746	-23.054134	0.000213	2.128815	0.721262	0.017276
1809	9.0400e-01	-7.6506	-22.942096	0.000276	2.761136	0.935498	0.022408
1810	9.0450e-01	-7.5768	-22.875386	0.000164	1.644035	0.557014	0.013342
1811	9.0500e-01	-7.5543	-22.808677	0.000164	1.644035	0.557014	0.013342
1812	9.0550e-01	-7.5190	-22.686804	0.000300	3.003526	1.017622	0.024375
1813	9.0600e-01	-7.4613	-22.617528	0.000171	1.707268	0.578438	0.013855
1814	9.0650e-01	-7.4212	-22.516609	0.000249	2.487131	0.842663	0.020184
1815	9.0700e-01	-7.3891	-22.447334	0.000171	1.707268	0.578438	0.013855
1816	9.0750e-01	-7.3650	-22.333158	0.000281	2.813830	0.953351	0.022835
1817	9.0800e-01	-7.3185	-22.251054	0.000202	2.023428	0.685556	0.016421
1818	9.0850e-01	-7.2656	-22.153555	0.000240	2.402821	0.814098	0.019500
1819	9.0900e-01	-7.2271	-22.086845	0.000164	1.644035	0.557014	0.013342
1820	9.0950e-01	-7.1966	-21.978656	0.000267	2.666288	0.903363	0.021638
1821	9.1000e-01	-7.1340	-21.903822	0.000184	1.844271	0.624856	0.014967
1822	9.1050e-01	-7.0923	-21.828132	0.000187	1.865348	0.631997	0.015138
1823	9.1100e-01	-7.0779	-21.707542	0.000297	2.971910	1.006910	0.024118
1824	9.1150e-01	-7.0041	-21.627148	0.000198	1.981273	0.671274	0.016079
1825	9.1200e-01	-7.0233	-21.522380	-0.000258	-2.581979	-0.874798	0.020954
1826	9.1250e-01	-6.9543	-21.458664	0.000157	1.570265	0.532020	0.012743
1827	9.1300e-01	-6.9223	-21.360738	0.000241	2.413360	0.817668	0.019585
1828	9.1350e-01	-6.8356	-21.289324	0.000176	1.759961	0.596291	0.014283
1829	9.1400e-01	-6.8244	-21.160181	0.000318	3.182684	1.078323	0.025829
1830	9.1450e-01	-6.7875	-21.087058	0.000180	1.802116	0.610573	0.014625
1831	9.1500e-01	-6.7554	-20.992980	0.000232	2.318512	0.785533	0.018816
1832	9.1550e-01	-6.7458	-20.880515	0.000277	2.771675	0.939069	0.022493
1833	9.1600e-01	-6.6736	-20.809956	0.000174	1.738884	0.589150	0.014112
1834	9.1650e-01	-6.6094	-20.721010	0.000219	2.192047	0.742686	0.017789
1835	9.1700e-01	-6.5918	-20.642755	0.000193	1.928580	0.653421	0.015651
1836	9.1750e-01	-6.5693	-20.531145	0.000275	2.750598	0.931928	0.022322
1837	9.1800e-01	-6.5132	-20.451606	0.000196	1.960196	0.664132	0.015908
1838	9.1850e-01	-6.4651	-20.372923	0.000194	1.939119	0.656991	0.015737
1839	9.1900e-01	-6.4490	-20.263879	0.000269	2.687366	0.910504	0.021809
1840	9.1950e-01	-6.4314	-20.134308	0.000319	3.193223	1.081893	0.025914
1841	9.2000e-01	-6.3447	-20.103947	0.000075	0.748247	0.253513	0.006072
1842	9.2050e-01	-6.3046	-20.012008	0.000227	2.265818	0.767680	0.018388
1843	9.2100e-01	-6.2838	-19.905957	0.000261	2.613595	0.885510	0.021210
1844	9.2150e-01	-6.2308	-19.819576	0.000213	2.128815	0.721262	0.017276
1845	9.2200e-01	-6.2052	-19.734906	0.000209	2.086660	0.706980	0.016934
1846	9.2250e-01	-6.1426	-19.636125	0.000243	2.434437	0.824810	0.019756
1847	9.2300e-01	-6.1137	-19.512541	0.000305	3.045681	1.031905	0.024717
1848	9.2350e-01	-6.0656	-19.445832	0.000164	1.644035	0.557014	0.013342
1849	9.2400e-01	-6.0399	-19.351327	0.000233	2.329050	0.789104	0.018901
1850	9.2450e-01	-5.9966	-19.276065	0.000185	1.854809	0.628426	0.015052
1851	9.2500e-01	-5.9694	-19.151626	0.000307	3.066758	1.039046	0.024888
1852	9.2550e-01	-5.9100	-19.082778	0.000170	1.696729	0.574867	0.013770
1853	9.2600e-01	-5.8683	-18.993404	0.000220	2.202586	0.746256	0.017875
1854	9.2650e-01	-5.8266	-18.904886	0.000218	2.181509	0.739115	0.017704
1855	9.2700e-01	-5.8089	-18.788572	0.000287	2.866523	0.971204	0.023263
1856	9.2750e-01	-5.7432	-18.694494	0.000232	2.318512	0.785533	0.018816
1857	9.2800e-01	-5.7383	-18.598706	0.000236	2.360666	0.799815	0.019158
1858	9.2850e-01	-5.6774	-18.514036	0.000209	2.086660	0.706980	0.016934
1859	9.2900e-01	-5.6293	-18.416110	0.000241	2.413360	0.817668	0.019585
1860	9.2950e-01	-5.5715	-18.346407	0.000172	1.717806	0.582009	0.013941
1861	9.3000e-01	-5.5506	-18.228383	0.000291	2.908678	0.985487	0.023605
1862	9.3050e-01	-5.5202	-18.141575	0.000214	2.139354	0.724833	0.017362
1863	9.3100e-01	-5.4817	-18.050918	0.000223	2.234202	0.756968	0.018131
1864	9.3150e-01	-5.4432	-17.942729	0.000267	2.666288	0.903363	0.021638
1865	9.3200e-01	-5.3790	-17.876019	0.000164	1.644035	0.557014	0.013342
1866	9.3250e-01	-5.3549	-17.746449	0.000319	3.193223	1.081893	0.025914
1867	9.3300e-01	-5.3357	-17.666911	0.000196	1.960196	0.664132	0.015908
1868	9.3350e-01	-5.2827	-17.566846	0.000247	2.466053	0.835521	0.020013
1869	9.3400e-01	-5.2266	-17.492012	0.000184	1.844271	0.624856	0.014967
1870	9.3450e-01	-5.1945	-17.393230	0.000243	2.434437	0.824810	0.019756
1871	9.3500e-01	-5.1432	-17.294449	0.000243	2.434437	0.824810	0.019756
1872	9.3550e-01	-5.1047	-17.206786	0.000216	2.160431	0.731974	0.017533
1873	9.3600e-01	-5.0742	-17.117840	0.000219	2.192047	0.742686	0.017789
1874	9.3650e-01	-5.0068	-17.015210	0.000253	2.529285	0.856945	0.020526
1875	9.3700e-01	-4.9940	-16.895902	0.000294	2.940294	0.996199	0.023861
1876	9.3750e-01	-4.9330	-16.839883	0.000138	1.380568	0.467749	0.011204
1877	9.3800e-01	-4.9073	-16.729556	0.000272	2.718982	0.921216	0.022065
1878	9.3850e-01	-4.8961	-16.588867	0.000347	3.467229	1.174729	0.028138
1879	9.3900e-01	-4.8352	-16.491369	0.000240	2.402821	0.814098	0.019500
1880	9.3950e-01	-4.7710	-16.438343	0.000131	1.306797	0.442755	0.010605
1881	9.4000e-01	-4.7774	-16.313049	-0.000309	-3.087836	-1.046187	0.025059
1882	9.4050e-01	-4.7261	-16.230090	0.000204	2.044506	0.692697	0.016592
1883	9.4100e-01	-4.6635	-16.123611	0.000262	2.624134	0.889080	0.021296
1884	9.4150e-01	-4.6266	-16.042362	0.000200	2.002351	0.678415	0.016250
1885	9.4200e-01	-4.5977	-15.931180	0.000274	2.740059	0.928357	0.022237
1886	9.4250e-01	-4.5544	-15.834109	0.000239	2.392282	0.810527	0.019414
1887	9.4300e-01	-4.5320	-15.732334	0.000251	2.508208	0.849804	0.020355
1888	9.4350e-01	-4.4582	-15.632697	0.000246	2.455514	0.831951	0.019927
1889	9.4400e-01	-4.4148	-15.573685	0.000145	1.454339	0.492743	0.011802
1890	9.4450e-01	-4.3828	-15.444970	0.000317	3.172145	1.074752	0.025743
1891	9.4500e-01	-4.3378	-15.346616	0.000242	2.423898	0.821239	0.019671
1892	9.4550e-01	-4.3266	-15.238854	0.000266	2.655750	0.899792	0.021552
1893	9.4600e-01	-4.2833	-15.135797	0.000254	2.539824	0.860516	0.020612
1894	9.4650e-01	-4.2464	-15.022476	0.000279	2.792753	0.946210	0.022664
1895	9.4700e-01	-4.1726	-14.949780	0.000179	1.791577	0.607003	0.014539
1896	9.4750e-01	-4.1421	-14.865110	0.000209	2.086660	0.706980	0.016934
1897	9.4800e-01	-4.0972	-14.762907	0.000252	2.518747	0.853374	0.020440
1898	9.4850e-01	-4.0603	-14.631626	0.000324	3.235377	1.096176	0.026256
1899	9.4900e-01	-4.0346	-14.526858	0.000258	2.581979	0.874798	0.020954
1900	9.4950e-01	-4.0010	-14.450741	0.000188	1.875887	0.635568	0.015223
1901	9.5000e-01	-3.9592	-14.345117	0.000260	2.603056	0.881939	0.021125
1902	9.5050e-01	-3.9223	-14.230514	0.000282	2.824369	0.956922	0.022921
1903	9.5100e-01	-3.8871	-14.127884	0.000253	2.529285	0.856945	0.020526
1904	9.5150e-01	-3.8470	-14.029958	0.000241	2.413360	0.817668	0.019585
1905	9.5200e-01	-3.8068	-13.929038	0.000249	2.487131	0.842663	0.020184
1906	9.5250e-01	-3.7603	-13.829401	0.000246	2.455514	0.831951	0.019927
1907	9.5300e-01	-3.7298	-13.739600	0.000221	2.213125	0.749827	0.017960
1908	9.5350e-01	-3.6785	-13.637825	0.000251	2.508208	0.849804	0.020355
1909	9.5400e-01	-3.6111	-13.539044	0.000243	2.434437	0.824810	0.019756
1910	9.5450e-01	-3.6095	-13.418026	0.000298	2.982449	1.010481	0.024204
1911	9.5500e-01	-3.5710	-13.316679	0.000250	2.497669	0.846233	0.020269
1912	9.5550e-01	-3.5229	-13.223456	0.000230	2.297434	0.778392	0.018644
1913	9.5600e-01	-3.5004	-13.116122	0.000265	2.645211	0.896222	0.021467
1914	9.5650e-01	-3.4315	-13.022045	0.000232	2.318512	0.785533	0.018816
1915	9.5700e-01	-3.3817	-12.940796	0.000200	2.002351	0.678415	0.016250
1916	9.5750e-01	-3.3721	-12.803101	0.000339	3.393458	1.149735	0.027539
1917	9.5800e-01	-3.3063	-12.719286	0.000207	2.065583	0.699838	0.016763
1918	9.5850e-01	-3.2726	-12.614090	0.000259	2.592517	0.878369	0.021039
1919	9.5900e-01	-3.2518	-12.505046	0.000269	2.687366	0.910504	0.021809
1920	9.5950e-01	-3.1764	-12.390870	0.000281	2.813830	0.953351	0.022835
1921	9.6000e-01	-3.1652	-12.272845	0.000291	2.908678	0.985487	0.023605
1922	9.6050e-01	-3.1138	-12.202287	0.000174	1.738884	0.589150	0.014112
1923	9.6100e-01	-3.0769	-12.082125	0.000296	2.961372	1.003340	0.024033
1924	9.6150e-01	-3.0432	-11.972652	0.000270	2.697904	0.914075	0.021894
1925	9.6200e-01	-2.9694	-11.898246	0.000183	1.833732	0.621285	0.014881
1926	9.6250e-01	-2.9438	-11.767392	0.000322	3.224839	1.092605	0.026171
1927	9.6300e-01	-2.9341	-11.671604	0.000236	2.360666	0.799815	0.019158
1928	9.6350e-01	-2.8780	-11.549303	0.000301	3.014065	1.021193	0.024460
1929	9.6400e-01	-2.8411	-11.453515	0.000236	2.360666	0.799815	0.019158
1930	9.6450e-01	-2.7914	-11.359438	0.000232	2.318512	0.785533	0.018816
1931	9.6500e-01	-2.7641	-11.245262	0.000281	2.813830	0.953351	0.022835
1932	9.6550e-01	-2.7384	-11.119540	0.000310	3.098374	1.049758	0.025144
1933	9.6600e-01	-2.6823	-11.032304	0.000215	2.149893	0.728403	0.017447
1934	9.6650e-01	-2.6390	-10.918129	0.000281	2.813830	0.953351	0.022835
1935	9.6700e-01	-2.5571	-10.834742	0.000206	2.055044	0.696268	0.016677
1936	9.6750e-01	-2.5684	-10.710303	-0.000307	-3.066758	-1.039046	0.024888
1937	9.6800e-01	-2.5154	-10.615370	0.000234	2.339589	0.792674	0.018987
1938	9.6850e-01	-2.4529	-10.490931	0.000307	3.066758	1.039046	0.024888
1939	9.6900e-01	-2.4144	-10.403268	0.000216	2.160431	0.731974	0.017533
1940	9.6950e-01	-2.3887	-10.304486	0.000243	2.434437	0.824810	0.019756
1941	9.7000e-01	-2.3438	-10.171922	0.000327	3.266994	1.106887	0.026513
1942	9.7050e-01	-2.3277	-10.063733	0.000267	2.666288	0.903363	0.021638
1943	9.7100e-01	-2.2604	-9.983767	0.000197	1.970735	0.667703	0.015993
1944	9.7150e-01	-2.2170	-9.841368	0.000351	3.509383	1.189011	0.028480
1945	9.7200e-01	-2.2010	-9.758836	0.000203	2.033967	0.689127	0.016506
1946	9.7250e-01	-2.1449	-9.652358	0.000262	2.624134	0.889080	0.021296
1947	9.7300e-01	-2.1064	-9.537754	0.000282	2.824369	0.956922	0.022921
1948	9.7350e-01	-2.0711	-9.415453	0.000301	3.014065	1.021193	0.024460
1949	9.7400e-01	-2.0310	-9.316672	0.000243	2.434437	0.824810	0.019756
1950	9.7450e-01	-2.0213	-9.180259	0.000336	3.361842	1.139023	0.027282
1951	9.7500e-01	-1.9363	-9.097728	0.000203	2.033967	0.689127	0.016506
1952	9.7550e-01	-1.9010	-8.996381	0.000250	2.497669	0.846233	0.020269
1953	9.7600e-01	-1.8705	-8.862961	0.000329	3.288071	1.114029	0.026684
1954	9.7650e-01	-1.8368	-8.736812	0.000311	3.108913	1.053328	0.025230
1955	9.7700e-01	-1.8176	-8.623491	0.000279	2.792753	0.946210	0.022664
1956	9.7750e-01	-1.7390	-8.520434	0.000254	2.539824	0.860516	0.020612
1957	9.7800e-01	-1.7165	-8.436191	0.000208	2.076122	0.703409	0.016848
1958	9.7850e-01	-1.6828	-8.312180	0.000306	3.056220	1.035475	0.024802
1959	9.7900e-01	-1.6331	-8.185603	0.000312	3.119452	1.056899	0.025315
1960	9.7950e-01	-1.5978	-8.091098	0.000233	2.329050	0.789104	0.018901
1961	9.8000e-01	-1.5834	-7.941429	0.000369	3.688541	1.249712	0.029934
1962	9.8050e-01	-1.5096	-7.893535	0.000118	1.180333	0.399908	0.009579
1963	9.8100e-01	-1.4903	-7.746859	0.000361	3.614770	1.224717	0.029335
1964	9.8150e-01	-1.4454	-7.635249	0.000275	2.750598	0.931928	0.022322
1965	9.8200e-01	-1.4053	-7.545876	0.000220	2.202586	0.746256	0.017875
1966	9.8250e-01	-1.3716	-7.406042	0.000345	3.446151	1.167588	0.027967
1967	9.8300e-01	-1.2930	-7.314530	0.000226	2.255279	0.764109	0.018302
1968	9.8350e-01	-1.2689	-7.167855	0.000361	3.614770	1.224717	0.029335
1969	9.8400e-01	-1.2353	-7.069501	0.000242	2.423898	0.821239	0.019671
1970	9.8450e-01	-1.1855	-6.963878	0.000260	2.603056	0.881939	0.021125
1971	9.8500e-01	-1.1502	-6.837301	0.000312	3.119452	1.056899	0.025315
1972	9.8550e-01	-1.0861	-6.741512	0.000236	2.360666	0.799815	0.019158
1973	9.8600e-01	-1.0620	-6.620067	0.000299	2.992988	1.014052	0.024289
1974	9.8650e-01	-1.0363	-6.492207	0.000315	3.151068	1.067611	0.025572
1975	9.8700e-01	-0.9834	-6.386583	0.000260	2.603056	0.881939	0.021125
1976	9.8750e-01	-0.9625	-6.267276	0.000294	2.940294	0.996199	0.023861
1977	9.8800e-01	-0.9032	-6.172343	0.000234	2.339589	0.792674	0.018987
1978	9.8850e-01	-0.8711	-6.042773	0.000319	3.193223	1.081893	0.025914
1979	9.8900e-01	-0.8518	-5.896525	0.000360	3.604232	1.221147	0.029250
1980	9.8950e-01	-0.7925	-5.812283	0.000208	2.076122	0.703409	0.016848
1981	9.9000e-01	-0.7524	-5.697252	0.000283	2.834907	0.960493	0.023006
1982	9.9050e-01	-0.7123	-5.574095	0.000304	3.035142	1.028334	0.024631
1983	9.9100e-01	-0.6577	-5.480018	0.000232	2.318512	0.785533	0.018816
1984	9.9150e-01	-0.6417	-5.327783	0.000375	3.751773	1.271135	0.030447
1985	9.9200e-01	-0.5727	-5.228147	0.000246	2.455514	0.831951	0.019927
1986	9.9250e-01	-0.5470	-5.113971	0.000281	2.813830	0.953351	0.022835
1987	9.9300e-01	-0.5294	-4.986538	0.000314	3.140529	1.064040	0.025486
1988	9.9350e-01	-0.4925	-4.844994	0.000349	3.488306	1.181870	0.028309
1989	9.9400e-01	-0.4299	-4.744930	0.000247	2.466053	0.835521	0.020013
1990	9.9450e-01	-0.4155	-4.626478	0.000292	2.919217	0.989057	0.023690
1991	9.9500e-01	-0.3545	-4.524275	0.000252	2.518747	0.853374	0.020440
1992	9.9550e-01	-0.3128	-4.426349	0.000241	2.413360	0.817668	0.019585
1993	9.9600e-01	-0.2823	-4.298917	0.000314	3.140529	1.064040	0.025486
1994	9.9650e-01	-0.2438	-4.140696	0.000390	3.899315	1.321124	0.031644
1995	9.9700e-01	-0.1845	-4.050467	0.000222	2.223663	0.753398	0.018046
1996	9.9750e-01	-0.1460	-3.934580	0.000286	2.855985	0.967634	0.023177
1997	9.9800e-01	-0.1059	-3.810996	0.000305	3.045681	1.031905	0.024717
1998	9.9850e-01	-0.0738	-3.668170	0.000352	3.519922	1.192582	0.028565
1999	9.9900e-01	-0.0241	-3.562974	0.000259	2.592517	0.878369	0.021039
2000	9.9950e-01	0.0016	-3.442383	0.000297	2.971910	1.006910	0.024118
2001	1.0000e+00	0.0433	-3.336760	0.000297	2.971910	1.006910	0.021125

Center data before PMax,+/-Pr and +/-Vc Calc.

PMax (uC/cm2):	4.55e+01
Pr (uC/cm2):	7.51e-01
-Pr (uC/cm2):	-3.34e+00
PLoss (uC/cm2):	-2.41e+00
Vc:	4.38e-01
-Vc:	-2.42e-01
C (Max-Eff) (nF):	2.27e-01
K (Eff):	7.69e+02
Vert. (+/-Pr) Shift (uC/cm2):	-1.29e+00
Horiz. Shift (+/-Vc):	9.82e-02
Offset (uC/cm2):	9.29e-01

A (Loop Area - uC/cm2·Volts):	1.25e-01



Hysteresis Version: 5.48.1 - Radiant Technologies, Inc., 1999 - 9/12/24

