»»»»»»»»»»»»»»»»»»»»»»»»»»»»»»»»»»»» Hysteresis ««««««««««««««««««««««««««««««««««««
»»»  Executed Version:	5.48.1
»»»  Vision Version:	5.48.4 (R)
»»»  Vision Compiled:	9/18/24
»»»  Driver Version:	5.47.0
»»»  Windows Version:	Windows 8 or 8.1
»»»  Processor Information:	x86 (AMD or Intel) - 32 Processors
»»»  Tester Name:	PMF21124-494 (100V)
»»»  Tester S/N:	PMF21124-494
»»»  Internal Amp Type:	100V RevK 270k
»»»  Internal Amp S/N:	iAB2-596/K     
»»»  Execution Count:	1
»»»»»»»»»»»»»»»»»»»»»»»»»»»»»»»»»»»»»»»»»»««««««««««««««««««««««««««««««««««««««««««

Stored:	6/9/2025 - 11:33:58
Configured:	06/09/25 11:17:29 AM
Executed:	06/09/25 11:33:31 AM

»»»»»»»»»»»»»»»»»»»»»»»»»»»»»»»»»»» Sample Info ««««««««««««««««««««««««««««««««««««
Sample Name:	
Lot Name:	
Wafer Name:	
Die Row/Column:	0/0
Capacitor Number:	0
Sample Area (cm2):	1.00e-04
Sample Thickness (microns):	3.00e-01

Amplifier:	Internal

»»»»»»»»»»»»»»»»»»»»»»»»»»»»»»»»»»» Tester Info «««««««««««««««««««««««««««««««««««
Tester Name:	PMF21124-494 (100V)
Tester Serial Number:	PMF21124-494
Return Signal Amp. Level:	1.79 [Index: 2]

»»»»»»»»»»»»»»»»»»»»»»»»»»»»»»»» Hysteresis Info ««««««««««««««««««««««««««««««««««
Task Name:	Hyst-785
Volts:	20.00
Field:	666.67 (kV/cm)
DCBias:	0.00
DCField:	0.00 (kV/cm)
Hysteresis Period (ms):	1.00e+00
Preset:	Enabled
Preset Delay (ms):	1.00e+03
Profile:	Standard Bipolar

»»»»»»»»»»»»»»»»»»»»»»»»»»»»»»»»»»»»»» Data «««««««««««««««««««««««««««««««««««««««
Points:	2001

Valid Data

Point	Time (ms)	Drive Voltage	Measured Polarization (uC/cm2)	Capacitance (uF)	Normalized Capacitance (uF/cm2)	Dielectric Constant	Instantaneous Current (mA)
   1	0.0000e+00	0.0529	-0.958950	-0.000193	-1.925369	-0.652333	0.015737
   2	5.0000e-04	0.0241	-0.880267	-0.000193	-1.925369	-0.652333	0.015737
   3	1.0000e-03	0.1299	-0.854181	0.000064	0.638302	0.216262	0.005217
   4	1.5000e-03	0.1428	-0.763525	0.000222	2.218360	0.751601	0.018131
   5	2.0000e-03	0.1717	-0.678000	0.000209	2.092792	0.709057	0.017105
   6	2.5000e-03	0.2310	-0.588626	0.000219	2.186968	0.740965	0.017875
   7	3.0000e-03	0.2519	-0.483003	0.000258	2.584598	0.875686	0.021125
   8	3.5000e-03	0.3176	-0.371393	0.000273	2.731094	0.925320	0.022322
   9	4.0000e-03	0.3610	-0.280308	0.000223	2.228824	0.755146	0.018217
  10	4.5000e-03	0.4091	-0.190935	0.000219	2.186968	0.740965	0.017875
  11	5.0000e-03	0.4524	-0.076331	0.000280	2.804342	0.950137	0.022921
  12	5.5000e-03	0.4684	0.046397	0.000300	3.003157	1.017497	0.024546
  13	6.0000e-03	0.4973	0.122515	0.000186	1.862585	0.631061	0.015223
  14	6.5000e-03	0.5567	0.249519	0.000311	3.107796	1.052950	0.025401
  15	7.0000e-03	0.6401	0.331196	0.000200	1.998617	0.677150	0.016335
  16	7.5000e-03	0.6224	0.448365	-0.000287	-2.867125	-0.971408	0.023434
  17	8.0000e-03	0.6658	0.554844	0.000261	2.605526	0.882776	0.021296
  18	8.5000e-03	0.7187	0.656191	0.000248	2.479959	0.840233	0.020269
  19	9.0000e-03	0.7556	0.772933	0.000286	2.856661	0.967863	0.023348
  20	9.5000e-03	0.7829	0.871286	0.000241	2.406711	0.815416	0.019671
  21	1.0000e-02	0.8214	0.963226	0.000225	2.249752	0.762236	0.018388
  22	1.0500e-02	0.9176	1.065856	0.000251	2.511351	0.850869	0.020526
  23	1.1000e-02	0.9240	1.167631	0.000249	2.490423	0.843778	0.020355
  24	1.1500e-02	0.9465	1.279241	0.000273	2.731094	0.925320	0.022322
  25	1.2000e-02	0.9978	1.381871	0.000251	2.511351	0.850869	0.020526
  26	1.2500e-02	1.0251	1.488350	0.000261	2.605526	0.882776	0.021296
  27	1.3000e-02	1.0668	1.580717	0.000226	2.260216	0.765782	0.018473
  28	1.3500e-02	1.1069	1.666670	0.000210	2.103256	0.712602	0.017191
  29	1.4000e-02	1.1599	1.775286	0.000266	2.657846	0.900503	0.021723
  30	1.4500e-02	1.1984	1.884331	0.000267	2.668310	0.904048	0.021809
  31	1.5000e-02	1.2160	2.008770	0.000305	3.045013	1.031678	0.024888
  32	1.5500e-02	1.2689	2.103703	0.000232	2.322999	0.787053	0.018987
  33	1.6000e-02	1.2754	2.226859	0.000301	3.013621	1.021042	0.024631
  34	1.6500e-02	1.3331	2.314094	0.000213	2.134648	0.723238	0.017447
  35	1.7000e-02	1.4342	2.394488	0.000197	1.967225	0.666514	0.016079
  36	1.7500e-02	1.4101	2.543729	-0.000365	-3.651922	-1.237305	0.029848
  37	1.8000e-02	1.4599	2.631392	0.000215	2.145112	0.726784	0.017533
  38	1.8500e-02	1.5385	2.707082	0.000185	1.852121	0.627516	0.015138
  39	1.9000e-02	1.5481	2.831521	0.000305	3.045013	1.031678	0.024888
  40	1.9500e-02	1.5930	2.930302	0.000242	2.417175	0.818961	0.019756
  41	2.0000e-02	1.6331	3.036353	0.000260	2.595062	0.879231	0.021210
  42	2.0500e-02	1.6668	3.142832	0.000261	2.605526	0.882776	0.021296
  43	2.1000e-02	1.6989	3.245462	0.000251	2.511351	0.850869	0.020526
  44	2.1500e-02	1.7614	3.357072	0.000273	2.731094	0.925320	0.022322
  45	2.2000e-02	1.7807	3.458419	0.000248	2.479959	0.840233	0.020269
  46	2.2500e-02	1.8208	3.568319	0.000269	2.689238	0.911138	0.021980
  47	2.3000e-02	1.8721	3.653844	0.000209	2.092792	0.709057	0.017105
  48	2.3500e-02	1.9010	3.771441	0.000288	2.877589	0.974954	0.023519
  49	2.4000e-02	1.9443	3.877920	0.000261	2.605526	0.882776	0.021296
  50	2.4500e-02	2.0037	3.964300	0.000211	2.113720	0.716148	0.017276
  51	2.5000e-02	2.0278	4.065647	0.000248	2.479959	0.840233	0.020269
  52	2.5500e-02	2.0550	4.172981	0.000263	2.626454	0.889867	0.021467
  53	2.6000e-02	2.1048	4.296993	0.000303	3.034549	1.028133	0.024802
  54	2.6500e-02	2.1769	4.383801	0.000212	2.124184	0.719693	0.017362
  55	2.7000e-02	2.2058	4.485575	0.000249	2.490423	0.843778	0.020355
  56	2.7500e-02	2.2908	4.577942	0.000226	2.260216	0.765782	0.018473
  57	2.8000e-02	2.2748	4.705802	-0.000313	-3.128724	-1.060041	0.025572
  58	2.8500e-02	2.3181	4.808432	0.000251	2.511351	0.850869	0.020526
  59	2.9000e-02	2.3759	4.884977	0.000187	1.873049	0.634606	0.015309
  60	2.9500e-02	2.3983	5.018824	0.000328	3.275220	1.109675	0.026769
  61	3.0000e-02	2.4497	5.107770	0.000218	2.176504	0.737419	0.017789
  62	3.0500e-02	2.4882	5.222801	0.000281	2.814806	0.953682	0.023006
  63	3.1000e-02	2.4978	5.319017	0.000235	2.354391	0.797689	0.019243
  64	3.1500e-02	2.5202	5.422502	0.000253	2.532279	0.857959	0.020697
  65	3.2000e-02	2.6085	5.515725	0.000228	2.281144	0.772872	0.018644
  66	3.2500e-02	2.6229	5.629473	0.000278	2.783414	0.943046	0.022750
  67	3.3000e-02	2.6775	5.723550	0.000230	2.302071	0.779963	0.018816
  68	3.3500e-02	2.7079	5.817628	0.000230	2.302071	0.779963	0.018816
  69	3.4000e-02	2.7593	5.921969	0.000255	2.553206	0.865050	0.020868
  70	3.4500e-02	2.7946	6.042131	0.000294	2.940373	0.996225	0.024033
  71	3.5000e-02	2.8315	6.126373	0.000206	2.061400	0.698421	0.016848
  72	3.5500e-02	2.8764	6.217885	0.000224	2.239288	0.758691	0.018302
  73	3.6000e-02	2.8876	6.327785	0.000269	2.689238	0.911138	0.021980
  74	3.6500e-02	2.9678	6.461632	0.000328	3.275220	1.109675	0.026769
  75	3.7000e-02	3.0256	6.529197	0.000165	1.653306	0.560155	0.013513
  76	3.7500e-02	3.0176	6.643800	-0.000280	-2.804342	-0.950137	0.022921
  77	3.8000e-02	3.0641	6.749424	0.000258	2.584598	0.875686	0.021125
  78	3.8500e-02	3.1090	6.849488	0.000245	2.448567	0.829597	0.020013
  79	3.9000e-02	3.1652	6.927743	0.000191	1.914905	0.648787	0.015651
  80	3.9500e-02	3.1940	7.044057	0.000285	2.846197	0.964318	0.023263
  81	4.0000e-02	3.2309	7.143694	0.000244	2.438103	0.826052	0.019927
  82	4.0500e-02	3.2774	7.251883	0.000265	2.647382	0.896957	0.021638
  83	4.1000e-02	3.3111	7.333132	0.000199	1.988153	0.673604	0.016250
  84	4.1500e-02	3.3416	7.448163	0.000281	2.814806	0.953682	0.023006
  85	4.2000e-02	3.4106	7.546945	0.000242	2.417175	0.818961	0.019756
  86	4.2500e-02	3.4234	7.640595	0.000229	2.291607	0.776418	0.018730
  87	4.3000e-02	3.4892	7.744935	0.000255	2.553206	0.865050	0.020868
  88	4.3500e-02	3.5229	7.828750	0.000205	2.050936	0.694876	0.016763
  89	4.4000e-02	3.5421	7.944209	0.000283	2.825269	0.957227	0.023092
  90	4.4500e-02	3.6208	8.044273	0.000245	2.448567	0.829597	0.020013
  91	4.5000e-02	3.6544	8.136212	0.000225	2.249752	0.762236	0.018388
  92	4.5500e-02	3.6705	8.247822	0.000273	2.731094	0.925320	0.022322
  93	4.6000e-02	3.7395	8.326078	0.000191	1.914905	0.648787	0.015651
  94	4.6500e-02	3.7523	8.450089	0.000303	3.034549	1.028133	0.024802
  95	4.7000e-02	3.7732	8.531338	0.000199	1.988153	0.673604	0.016250
  96	4.7500e-02	3.8309	8.648507	0.000287	2.867125	0.971408	0.023434
  97	4.8000e-02	3.8630	8.743013	0.000231	2.312535	0.783508	0.018901
  98	4.8500e-02	3.8967	8.858899	0.000284	2.835733	0.960772	0.023177
  99	4.9000e-02	3.9721	8.931168	0.000177	1.768409	0.599153	0.014454
 100	4.9500e-02	3.9961	9.021824	0.000222	2.218360	0.751601	0.018131
 101	5.0000e-02	4.0379	9.131724	0.000269	2.689238	0.911138	0.021980
 102	5.0500e-02	4.0635	9.231361	0.000244	2.438103	0.826052	0.019927
 103	5.1000e-02	4.0844	9.328004	0.000236	2.364855	0.801235	0.019329
 104	5.1500e-02	4.1421	9.435765	0.000264	2.636918	0.893412	0.021552
 105	5.2000e-02	4.1887	9.553790	0.000289	2.888053	0.978499	0.023605
 106	5.2500e-02	4.2544	9.621355	0.000165	1.653306	0.560155	0.013513
 107	5.3000e-02	4.2929	9.730399	0.000267	2.668310	0.904048	0.021809
 108	5.3500e-02	4.3234	9.815924	0.000209	2.092792	0.709057	0.017105
 109	5.4000e-02	4.3683	9.933949	0.000289	2.888053	0.978499	0.023605
 110	5.4500e-02	4.3972	10.028027	0.000230	2.302071	0.779963	0.018816
 111	5.5000e-02	4.4197	10.122104	0.000230	2.302071	0.779963	0.018816
 112	5.5500e-02	4.4726	10.224734	0.000251	2.511351	0.850869	0.020526
 113	5.6000e-02	4.5320	10.312825	0.000216	2.155576	0.730329	0.017618
 114	5.6500e-02	4.5239	10.401771	-0.000218	-2.176504	-0.737419	0.017789
 115	5.7000e-02	4.5769	10.519368	0.000288	2.877589	0.974954	0.023519
 116	5.7500e-02	4.6587	10.599334	0.000196	1.956761	0.662968	0.015993
 117	5.8000e-02	4.6763	10.702392	0.000252	2.521815	0.854414	0.020612
 118	5.8500e-02	4.7453	10.796041	0.000229	2.291607	0.776418	0.018730
 119	5.9000e-02	4.7261	10.899099	-0.000252	-2.521815	-0.854414	0.020612
 120	5.9500e-02	4.7951	11.007716	0.000266	2.657846	0.900503	0.021723
 121	6.0000e-02	4.8319	11.102649	0.000232	2.322999	0.787053	0.018987
 122	6.0500e-02	4.8929	11.182615	0.000196	1.956761	0.662968	0.015993
 123	6.1000e-02	4.9025	11.294653	0.000274	2.741558	0.928865	0.022408
 124	6.1500e-02	4.9635	11.402842	0.000265	2.647382	0.896957	0.021638
 125	6.2000e-02	4.9908	11.469979	0.000164	1.642842	0.556610	0.013427
 126	6.2500e-02	5.0630	11.563201	0.000228	2.281144	0.772872	0.018644
 127	6.3000e-02	5.0694	11.674811	0.000273	2.731094	0.925320	0.022322
 128	6.3500e-02	5.1143	11.767606	0.000227	2.270680	0.769327	0.018559
 129	6.4000e-02	5.1111	11.883065	-0.000283	-2.825269	-0.957227	0.023092
 130	6.4500e-02	5.1913	11.959182	0.000186	1.862585	0.631061	0.015223
 131	6.5000e-02	5.2587	12.038293	0.000194	1.935833	0.655878	0.015822
 132	6.5500e-02	5.2779	12.149048	0.000271	2.710166	0.918229	0.022151
 133	6.6000e-02	5.3116	12.222599	0.000180	1.799801	0.609789	0.014710
 134	6.6500e-02	5.3533	12.335920	0.000277	2.772950	0.939501	0.022664
 135	6.7000e-02	5.3982	12.454372	0.000290	2.898517	0.982044	0.023690
 136	6.7500e-02	5.4255	12.552298	0.000240	2.396247	0.811870	0.019585
 137	6.8000e-02	5.4881	12.632692	0.000197	1.967225	0.666514	0.016079
 138	6.8500e-02	5.5089	12.734894	0.000250	2.500887	0.847323	0.020440
 139	6.9000e-02	5.5635	12.795617	0.000149	1.485882	0.503431	0.012145
 140	6.9500e-02	5.5859	12.923905	0.000314	3.139188	1.063586	0.025658
 141	7.0000e-02	5.6036	13.022259	0.000241	2.406711	0.815416	0.019671
 142	7.0500e-02	5.6645	13.106073	0.000205	2.050936	0.694876	0.016763
 143	7.1000e-02	5.7255	13.221104	0.000281	2.814806	0.953682	0.023006
 144	7.1500e-02	5.7768	13.295511	0.000182	1.820729	0.616880	0.014881
 145	7.2000e-02	5.7704	13.406266	-0.000271	-2.710166	-0.918229	0.022151
 146	7.2500e-02	5.8298	13.478107	0.000176	1.757945	0.595608	0.014368
 147	7.3000e-02	5.8827	13.590573	0.000275	2.752022	0.932410	0.022493
 148	7.3500e-02	5.9276	13.669683	0.000194	1.935833	0.655878	0.015822
 149	7.4000e-02	5.9597	13.767610	0.000240	2.396247	0.811870	0.019585
 150	7.4500e-02	5.9918	13.855273	0.000215	2.145112	0.726784	0.017533
 151	7.5000e-02	6.0079	13.955765	0.000246	2.459031	0.833142	0.020098
 152	7.5500e-02	6.0800	14.048559	0.000227	2.270680	0.769327	0.018559
 153	7.6000e-02	6.1057	14.144347	0.000234	2.343927	0.794144	0.019158
 154	7.6500e-02	6.1538	14.249543	0.000257	2.574134	0.872140	0.021039
 155	7.7000e-02	6.2196	14.329082	0.000195	1.946297	0.659423	0.015908
 156	7.7500e-02	6.2260	14.424014	0.000232	2.322999	0.787053	0.018987
 157	7.8000e-02	6.2758	14.514671	0.000222	2.218360	0.751601	0.018131
 158	7.8500e-02	6.3239	14.604472	0.000220	2.197432	0.744510	0.017960
 159	7.9000e-02	6.3479	14.712234	0.000264	2.636918	0.893412	0.021552
 160	7.9500e-02	6.4025	14.788779	0.000187	1.873049	0.634606	0.015309
 161	8.0000e-02	6.4185	14.895685	0.000262	2.615990	0.886321	0.021381
 162	8.0500e-02	6.4715	15.003874	0.000265	2.647382	0.896957	0.021638
 163	8.1000e-02	6.4971	15.117195	0.000277	2.772950	0.939501	0.022664
 164	8.1500e-02	6.5709	15.178773	0.000151	1.506810	0.510521	0.012316
 165	8.2000e-02	6.5998	15.265153	0.000211	2.113720	0.716148	0.017276
 166	8.2500e-02	6.6143	15.361797	0.000236	2.364855	0.801235	0.019329
 167	8.3000e-02	6.6913	15.448177	0.000211	2.113720	0.716148	0.017276
 168	8.3500e-02	6.7105	15.549524	0.000248	2.479959	0.840233	0.020269
 169	8.4000e-02	6.7763	15.635477	0.000210	2.103256	0.712602	0.017191
 170	8.4500e-02	6.8036	15.721857	0.000211	2.113720	0.716148	0.017276
 171	8.5000e-02	6.8388	15.815935	0.000230	2.302071	0.779963	0.018816
 172	8.5500e-02	6.8918	15.910440	0.000231	2.312535	0.783508	0.018901
 173	8.6000e-02	6.9255	15.993827	0.000204	2.040472	0.691331	0.016677
 174	8.6500e-02	6.9383	16.094746	0.000247	2.469495	0.836687	0.020184
 175	8.7000e-02	6.9752	16.179844	0.000208	2.082328	0.705512	0.017019
 176	8.7500e-02	7.0458	16.283757	0.000254	2.542743	0.861504	0.020783
 177	8.8000e-02	7.0811	16.374413	0.000222	2.218360	0.751601	0.018131
 178	8.8500e-02	7.1196	16.475760	0.000248	2.479959	0.840233	0.020269
 179	8.9000e-02	7.1773	16.577963	0.000250	2.500887	0.847323	0.020440
 180	8.9500e-02	7.1789	16.657074	0.000194	1.935833	0.655878	0.015822
 181	9.0000e-02	7.2126	16.750723	0.000229	2.291607	0.776418	0.018730
 182	9.0500e-02	7.2832	16.847794	0.000238	2.375319	0.804780	0.019414
 183	9.1000e-02	7.2912	16.917925	0.000172	1.716090	0.581427	0.014026
 184	9.1500e-02	7.3410	17.029535	0.000273	2.731094	0.925320	0.022322
 185	9.2000e-02	7.4132	17.102231	0.000178	1.778873	0.602699	0.014539
 186	9.2500e-02	7.4404	17.201013	0.000242	2.417175	0.818961	0.019756
 187	9.3000e-02	7.4581	17.302788	0.000249	2.490423	0.843778	0.020355
 188	9.3500e-02	7.5094	17.389596	0.000212	2.124184	0.719693	0.017362
 189	9.4000e-02	7.5399	17.484528	0.000232	2.322999	0.787053	0.018987
 190	9.4500e-02	7.6073	17.567915	0.000204	2.040472	0.691331	0.016677
 191	9.5000e-02	7.6201	17.647454	0.000195	1.946297	0.659423	0.015908
 192	9.5500e-02	7.6843	17.744525	0.000238	2.375319	0.804780	0.019414
 193	9.6000e-02	7.7083	17.833898	0.000219	2.186968	0.740965	0.017875
 194	9.6500e-02	7.7500	17.924127	0.000221	2.207896	0.748055	0.018046
 195	9.7000e-02	7.7837	18.030178	0.000260	2.595062	0.879231	0.021210
 196	9.7500e-02	7.8447	18.122118	0.000225	2.249752	0.762236	0.018388
 197	9.8000e-02	7.8976	18.199518	0.000189	1.893977	0.641697	0.015480
 198	9.8500e-02	7.8992	18.299155	0.000244	2.438103	0.826052	0.019927
 199	9.9000e-02	7.9313	18.388956	0.000220	2.197432	0.744510	0.017960
 200	9.9500e-02	7.9987	18.468067	0.000194	1.935833	0.655878	0.015822
 201	1.0000e-01	8.0388	18.565565	0.000239	2.385783	0.808325	0.019500
 202	1.0050e-01	8.0565	18.677175	0.000273	2.731094	0.925320	0.022322
 203	1.0100e-01	8.0950	18.756286	0.000194	1.935833	0.655878	0.015822
 204	1.0150e-01	8.1511	18.837107	0.000198	1.977689	0.670059	0.016164
 205	1.0200e-01	8.2040	18.906810	0.000171	1.705626	0.577882	0.013941
 206	1.0250e-01	8.2105	19.021841	0.000281	2.814806	0.953682	0.023006
 207	1.0300e-01	8.2907	19.097103	0.000184	1.841657	0.623970	0.015052
 208	1.0350e-01	8.3115	19.204437	0.000263	2.626454	0.889867	0.021467
 209	1.0400e-01	8.3244	19.281837	0.000189	1.893977	0.641697	0.015480
 210	1.0450e-01	8.3982	19.368218	0.000211	2.113720	0.716148	0.017276
 211	1.0500e-01	8.4302	19.454598	0.000211	2.113720	0.716148	0.017276
 212	1.0550e-01	8.4543	19.551241	0.000236	2.364855	0.801235	0.019329
 213	1.0600e-01	8.5297	19.647029	0.000234	2.343927	0.794144	0.019158
 214	1.0650e-01	8.5457	19.734693	0.000215	2.145112	0.726784	0.017533
 215	1.0700e-01	8.5891	19.836467	0.000249	2.490423	0.843778	0.020355
 216	1.0750e-01	8.6420	19.911729	0.000184	1.841657	0.623970	0.015052
 217	1.0800e-01	8.7014	19.998110	0.000211	2.113720	0.716148	0.017276
 218	1.0850e-01	8.7142	20.091760	0.000229	2.291607	0.776418	0.018730
 219	1.0900e-01	8.7495	20.194390	0.000251	2.511351	0.850869	0.020526
 220	1.0950e-01	8.7976	20.277777	0.000204	2.040472	0.691331	0.016677
 221	1.1000e-01	8.8297	20.368861	0.000223	2.228824	0.755146	0.018217
 222	1.1050e-01	8.8522	20.458235	0.000219	2.186968	0.740965	0.017875
 223	1.1100e-01	8.9292	20.539056	0.000198	1.977689	0.670059	0.016164
 224	1.1150e-01	8.9500	20.625864	0.000212	2.124184	0.719693	0.017362
 225	1.1200e-01	8.9885	20.732342	0.000261	2.605526	0.882776	0.021296
 226	1.1250e-01	9.0270	20.813164	0.000198	1.977689	0.670059	0.016164
 227	1.1300e-01	9.0591	20.896123	0.000203	2.030008	0.687785	0.016592
 228	1.1350e-01	9.0928	20.979082	0.000203	2.030008	0.687785	0.016592
 229	1.1400e-01	9.1521	21.084278	0.000257	2.574134	0.872140	0.021039
 230	1.1450e-01	9.2131	21.144146	0.000146	1.464955	0.496340	0.011974
 231	1.1500e-01	9.2596	21.245493	0.000248	2.479959	0.840233	0.020269
 232	1.1550e-01	9.2933	21.332301	0.000212	2.124184	0.719693	0.017362
 233	1.1600e-01	9.2997	21.413977	0.000200	1.998617	0.677150	0.016335
 234	1.1650e-01	9.3447	21.504206	0.000221	2.207896	0.748055	0.018046
 235	1.1700e-01	9.4072	21.586738	0.000202	2.019544	0.684240	0.016506
 236	1.1750e-01	9.4377	21.681670	0.000232	2.322999	0.787053	0.018987
 237	1.1800e-01	9.4778	21.761636	0.000196	1.956761	0.662968	0.015993
 238	1.1850e-01	9.5019	21.852293	0.000222	2.218360	0.751601	0.018131
 239	1.1900e-01	9.5404	21.964331	0.000274	2.741558	0.928865	0.022408
 240	1.1950e-01	9.5869	22.038738	0.000182	1.820729	0.616880	0.014881
 241	1.2000e-01	9.6350	22.118276	0.000195	1.946297	0.659423	0.015908
 242	1.2050e-01	9.6719	22.215347	0.000238	2.375319	0.804780	0.019414
 243	1.2100e-01	9.6864	22.300017	0.000207	2.071864	0.701967	0.016934
 244	1.2150e-01	9.7473	22.404785	0.000256	2.563670	0.868595	0.020954
 245	1.2200e-01	9.8115	22.460804	0.000137	1.370779	0.464432	0.011204
 246	1.2250e-01	9.8516	22.539914	0.000194	1.935833	0.655878	0.015822
 247	1.2300e-01	9.8692	22.640406	0.000246	2.459031	0.833142	0.020098
 248	1.2350e-01	9.9061	22.732773	0.000226	2.260216	0.765782	0.018473
 249	1.2400e-01	9.9559	22.807608	0.000183	1.831193	0.620425	0.014967
 250	1.2450e-01	9.9703	22.910666	0.000252	2.521815	0.854414	0.020612
 251	1.2500e-01	10.0393	22.995335	0.000207	2.071864	0.701967	0.016934
 252	1.2550e-01	10.0698	23.077012	0.000200	1.998617	0.677150	0.016335
 253	1.2600e-01	10.1323	23.159971	0.000203	2.030008	0.687785	0.016592
 254	1.2650e-01	10.1548	23.247207	0.000213	2.134648	0.723238	0.017447
 255	1.2700e-01	10.1917	23.339574	0.000226	2.260216	0.765782	0.018473
 256	1.2750e-01	10.2398	23.429803	0.000221	2.207896	0.748055	0.018046
 257	1.2800e-01	10.2751	23.531577	0.000249	2.490423	0.843778	0.020355
 258	1.2850e-01	10.3329	23.598287	0.000163	1.632378	0.553065	0.013342
 259	1.2900e-01	10.3521	23.682957	0.000207	2.071864	0.701967	0.016934
 260	1.2950e-01	10.3794	23.765916	0.000203	2.030008	0.687785	0.016592
 261	1.3000e-01	10.4083	23.868974	0.000252	2.521815	0.854414	0.020612
 262	1.3050e-01	10.4644	23.942098	0.000179	1.789337	0.606244	0.014625
 263	1.3100e-01	10.5190	24.029761	0.000215	2.145112	0.726784	0.017533
 264	1.3150e-01	10.5446	24.126832	0.000238	2.375319	0.804780	0.019414
 265	1.3200e-01	10.5847	24.194824	0.000166	1.663770	0.563700	0.013598
 266	1.3250e-01	10.6473	24.286336	0.000224	2.239288	0.758691	0.018302
 267	1.3300e-01	10.6874	24.374854	0.000217	2.166040	0.733874	0.017704
 268	1.3350e-01	10.7018	24.462518	0.000215	2.145112	0.726784	0.017533
 269	1.3400e-01	10.7612	24.551464	0.000218	2.176504	0.737419	0.017789
 270	1.3450e-01	10.7917	24.626726	0.000184	1.841657	0.623970	0.015052
 271	1.3500e-01	10.8494	24.714389	0.000215	2.145112	0.726784	0.017533
 272	1.3550e-01	10.8976	24.793072	0.000193	1.925369	0.652333	0.015737
 273	1.3600e-01	10.8783	24.880735	-0.000215	-2.145112	-0.726784	0.017533
 274	1.3650e-01	10.9521	24.975240	0.000231	2.312535	0.783508	0.018901
 275	1.3700e-01	11.0002	25.044516	0.000170	1.695162	0.574336	0.013855
 276	1.3750e-01	11.0323	25.133462	0.000218	2.176504	0.737419	0.017789
 277	1.3800e-01	11.0836	25.226684	0.000228	2.281144	0.772872	0.018644
 278	1.3850e-01	11.1061	25.297242	0.000173	1.726554	0.584972	0.014112
 279	1.3900e-01	11.1623	25.397306	0.000245	2.448567	0.829597	0.020013
 280	1.3950e-01	11.2056	25.448622	0.000126	1.255675	0.425434	0.010263
 281	1.4000e-01	11.2120	25.554673	0.000260	2.595062	0.879231	0.021210
 282	1.4050e-01	11.2890	25.642763	0.000216	2.155576	0.730329	0.017618
 283	1.4100e-01	11.3050	25.728716	0.000210	2.103256	0.712602	0.017191
 284	1.4150e-01	11.3371	25.823649	0.000232	2.322999	0.787053	0.018987
 285	1.4200e-01	11.3981	25.898056	0.000182	1.820729	0.616880	0.014881
 286	1.4250e-01	11.4462	25.984436	0.000211	2.113720	0.716148	0.017276
 287	1.4300e-01	11.4622	26.073810	0.000219	2.186968	0.740965	0.017875
 288	1.4350e-01	11.5136	26.151637	0.000190	1.904441	0.645242	0.015566
 289	1.4400e-01	11.5665	26.238018	0.000211	2.113720	0.716148	0.017276
 290	1.4450e-01	11.6130	26.307293	0.000170	1.695162	0.574336	0.013855
 291	1.4500e-01	11.5986	26.399233	-0.000225	-2.249752	-0.762236	0.018388
 292	1.4550e-01	11.6708	26.502290	0.000252	2.521815	0.854414	0.020612
 293	1.4600e-01	11.6997	26.571138	0.000168	1.684698	0.570791	0.013770
 294	1.4650e-01	11.7558	26.654952	0.000205	2.050936	0.694876	0.016763
 295	1.4700e-01	11.7815	26.738339	0.000204	2.040472	0.691331	0.016677
 296	1.4750e-01	11.8216	26.809325	0.000174	1.737018	0.588517	0.014197
 297	1.4800e-01	11.8489	26.905113	0.000234	2.343927	0.794144	0.019158
 298	1.4850e-01	11.9227	26.994487	0.000219	2.186968	0.740965	0.017875
 299	1.4900e-01	11.9676	27.065045	0.000173	1.726554	0.584972	0.014112
 300	1.4950e-01	11.9981	27.177083	0.000274	2.741558	0.928865	0.022408
 301	1.5000e-01	12.0253	27.230536	0.000131	1.307995	0.443161	0.010691
 302	1.5050e-01	12.0767	27.318199	0.000215	2.145112	0.726784	0.017533
 303	1.5100e-01	12.1136	27.401586	0.000204	2.040472	0.691331	0.016677
 304	1.5150e-01	12.1713	27.496947	0.000233	2.333463	0.790599	0.019072
 305	1.5200e-01	12.2114	27.565367	0.000167	1.674234	0.567246	0.013684
 306	1.5250e-01	12.2435	27.637635	0.000177	1.768409	0.599153	0.014454
 307	1.5300e-01	12.2451	27.731713	0.000230	2.302071	0.779963	0.018816
 308	1.5350e-01	12.3141	27.824080	0.000226	2.260216	0.765782	0.018473
 309	1.5400e-01	12.3446	27.907894	0.000205	2.050936	0.694876	0.016763
 310	1.5450e-01	12.4280	27.984867	0.000188	1.883513	0.638151	0.015395
 311	1.5500e-01	12.4521	28.076379	0.000224	2.239288	0.758691	0.018302
 312	1.5550e-01	12.4697	28.150358	0.000181	1.810265	0.613334	0.014796
 313	1.5600e-01	12.5178	28.238876	0.000217	2.166040	0.733874	0.017704
 314	1.5650e-01	12.5451	28.319270	0.000197	1.967225	0.666514	0.016079
 315	1.5700e-01	12.6093	28.395387	0.000186	1.862585	0.631061	0.015223
 316	1.5750e-01	12.6237	28.479629	0.000206	2.061400	0.698421	0.016848
 317	1.5800e-01	12.6766	28.554892	0.000184	1.841657	0.623970	0.015052
 318	1.5850e-01	12.7071	28.642555	0.000215	2.145112	0.726784	0.017533
 319	1.5900e-01	12.7585	28.720810	0.000191	1.914905	0.648787	0.015651
 320	1.5950e-01	12.8194	28.798210	0.000189	1.893977	0.641697	0.015480
 321	1.6000e-01	12.8162	28.884163	-0.000210	-2.103256	-0.712602	0.017191
 322	1.6050e-01	12.8659	28.973537	0.000219	2.186968	0.740965	0.017875
 323	1.6100e-01	12.9157	29.032549	0.000144	1.444027	0.489249	0.011802
 324	1.6150e-01	12.9141	29.144159	-0.000273	-2.731094	-0.925320	0.022322
 325	1.6200e-01	12.9911	29.203171	0.000144	1.444027	0.489249	0.011802
 326	1.6250e-01	13.0280	29.298960	0.000234	2.343927	0.794144	0.019158
 327	1.6300e-01	13.0697	29.368235	0.000170	1.695162	0.574336	0.013855
 328	1.6350e-01	13.1339	29.434089	0.000161	1.611450	0.545974	0.013171
 329	1.6400e-01	13.1387	29.540140	0.000260	2.595062	0.879231	0.021210
 330	1.6450e-01	13.1740	29.619251	0.000194	1.935833	0.655878	0.015822
 331	1.6500e-01	13.2269	29.691947	0.000178	1.778873	0.602699	0.014539
 332	1.6550e-01	13.2734	29.771485	0.000195	1.946297	0.659423	0.015908
 333	1.6600e-01	13.3199	29.856155	0.000207	2.071864	0.701967	0.016934
 334	1.6650e-01	13.3248	29.942108	0.000210	2.103256	0.712602	0.017191
 335	1.6700e-01	13.3905	30.024640	0.000202	2.019544	0.684240	0.016506
 336	1.6750e-01	13.4290	30.081086	0.000138	1.381243	0.467978	0.011289
 337	1.6800e-01	13.4499	30.187565	0.000261	2.605526	0.882776	0.021296
 338	1.6850e-01	13.5028	30.268814	0.000199	1.988153	0.673604	0.016250
 339	1.6900e-01	13.5317	30.352628	0.000205	2.050936	0.694876	0.016763
 340	1.6950e-01	13.5991	30.417200	0.000158	1.580058	0.535338	0.012914
 341	1.7000e-01	13.6649	30.486903	0.000171	1.705626	0.577882	0.013941
 342	1.7050e-01	13.6633	30.588677	-0.000249	-2.490423	-0.843778	0.020355
 343	1.7100e-01	13.6969	30.669926	0.000199	1.988153	0.673604	0.016250
 344	1.7150e-01	13.7611	30.735353	0.000160	1.600986	0.542429	0.013085
 345	1.7200e-01	13.7964	30.818312	0.000203	2.030008	0.687785	0.016592
 346	1.7250e-01	13.8140	30.888870	0.000173	1.726554	0.584972	0.014112
 347	1.7300e-01	13.8558	30.982520	0.000229	2.291607	0.776418	0.018730
 348	1.7350e-01	13.9087	31.059920	0.000189	1.893977	0.641697	0.015480
 349	1.7400e-01	13.9616	31.134327	0.000182	1.820729	0.616880	0.014881
 350	1.7450e-01	13.9841	31.227549	0.000228	2.281144	0.772872	0.018644
 351	1.7500e-01	14.0178	31.311792	0.000206	2.061400	0.698421	0.016848
 352	1.7550e-01	14.0739	31.388337	0.000187	1.873049	0.634606	0.015309
 353	1.7600e-01	14.1269	31.444356	0.000137	1.370779	0.464432	0.011204
 354	1.7650e-01	14.2071	31.532874	0.000217	2.166040	0.733874	0.017704
 355	1.7700e-01	14.1862	31.612412	-0.000195	-1.946297	-0.659423	0.015908
 356	1.7750e-01	14.2247	31.692378	0.000196	1.956761	0.662968	0.015993
 357	1.7800e-01	14.2697	31.789877	0.000239	2.385783	0.808325	0.019500
 358	1.7850e-01	14.3370	31.851882	0.000152	1.517274	0.514066	0.012401
 359	1.7900e-01	14.3226	31.946815	-0.000232	-2.322999	-0.787053	0.018987
 360	1.7950e-01	14.3980	32.020794	0.000181	1.810265	0.613334	0.014796
 361	1.8000e-01	14.4301	32.100333	0.000195	1.946297	0.659423	0.015908
 362	1.8050e-01	14.4670	32.174312	0.000181	1.810265	0.613334	0.014796
 363	1.8100e-01	14.5295	32.253850	0.000195	1.946297	0.659423	0.015908
 364	1.8150e-01	14.5536	32.342796	0.000218	2.176504	0.737419	0.017789
 365	1.8200e-01	14.5600	32.438584	0.000234	2.343927	0.794144	0.019158
 366	1.8250e-01	14.6338	32.479209	0.000099	0.994076	0.336802	0.008125
 367	1.8300e-01	14.6723	32.563878	0.000207	2.071864	0.701967	0.016934
 368	1.8350e-01	14.7285	32.633581	0.000171	1.705626	0.577882	0.013941
 369	1.8400e-01	14.7333	32.725948	0.000226	2.260216	0.765782	0.018473
 370	1.8450e-01	14.7926	32.803776	0.000190	1.904441	0.645242	0.015566
 371	1.8500e-01	14.8199	32.878183	0.000182	1.820729	0.616880	0.014881
 372	1.8550e-01	14.8600	32.953445	0.000184	1.841657	0.623970	0.015052
 373	1.8600e-01	14.8985	33.039825	0.000211	2.113720	0.716148	0.017276
 374	1.8650e-01	14.9595	33.121074	0.000199	1.988153	0.673604	0.016250
 375	1.8700e-01	15.0092	33.188211	0.000164	1.642842	0.556610	0.013427
 376	1.8750e-01	15.0573	33.273309	0.000208	2.082328	0.705512	0.017019
 377	1.8800e-01	15.0317	33.347716	-0.000182	-1.820729	-0.616880	0.014881
 378	1.8850e-01	15.0974	33.427682	0.000196	1.956761	0.662968	0.015993
 379	1.8900e-01	15.1584	33.502516	0.000183	1.831193	0.620425	0.014967
 380	1.8950e-01	15.1825	33.590607	0.000216	2.155576	0.730329	0.017618
 381	1.9000e-01	15.2530	33.658599	0.000166	1.663770	0.563700	0.013598
 382	1.9050e-01	15.2932	33.721460	0.000154	1.538202	0.521157	0.012572
 383	1.9100e-01	15.3156	33.817676	0.000235	2.354391	0.797689	0.019243
 384	1.9150e-01	15.3653	33.870701	0.000130	1.297531	0.439615	0.010605
 385	1.9200e-01	15.3686	33.963924	0.000228	2.281144	0.772872	0.018644
 386	1.9250e-01	15.4343	34.065271	0.000248	2.479959	0.840233	0.020269
 387	1.9300e-01	15.4776	34.126849	0.000151	1.506810	0.510521	0.012316
 388	1.9350e-01	15.5226	34.195697	0.000168	1.684698	0.570791	0.013770
 389	1.9400e-01	15.5210	34.283787	-0.000216	-2.155576	-0.730329	0.017618
 390	1.9450e-01	15.5819	34.360760	0.000188	1.883513	0.638151	0.015395
 391	1.9500e-01	15.6252	34.443292	0.000202	2.019544	0.684240	0.016506
 392	1.9550e-01	15.6429	34.503587	0.000148	1.475419	0.499885	0.012059
 393	1.9600e-01	15.7038	34.607500	0.000254	2.542743	0.861504	0.020783
 394	1.9650e-01	15.7391	34.675920	0.000167	1.674234	0.567246	0.013684
 395	1.9700e-01	15.7889	34.751182	0.000184	1.841657	0.623970	0.015052
 396	1.9750e-01	15.8434	34.834569	0.000204	2.040472	0.691331	0.016677
 397	1.9800e-01	15.8594	34.912396	0.000190	1.904441	0.645242	0.015566
 398	1.9850e-01	15.9316	34.977823	0.000160	1.600986	0.542429	0.013085
 399	1.9900e-01	15.9589	35.047098	0.000170	1.695162	0.574336	0.013855
 400	1.9950e-01	15.9878	35.123216	0.000186	1.862585	0.631061	0.015223
 401	2.0000e-01	16.0263	35.198905	0.000185	1.852121	0.627516	0.015138
 402	2.0050e-01	16.0696	35.273312	0.000182	1.820729	0.616880	0.014881
 403	2.0100e-01	16.1065	35.361403	0.000216	2.155576	0.730329	0.017618
 404	2.0150e-01	16.1450	35.425547	0.000157	1.569594	0.531793	0.012829
 405	2.0200e-01	16.1691	35.534591	0.000267	2.668310	0.904048	0.021809
 406	2.0250e-01	16.2268	35.592748	0.000142	1.423099	0.482159	0.011631
 407	2.0300e-01	16.3086	35.652616	0.000146	1.464955	0.496340	0.011974
 408	2.0350e-01	16.3150	35.741990	0.000219	2.186968	0.740965	0.017875
 409	2.0400e-01	16.3423	35.826232	0.000206	2.061400	0.698421	0.016848
 410	2.0450e-01	16.4193	35.883106	0.000139	1.391707	0.471523	0.011375
 411	2.0500e-01	16.4338	35.957940	0.000183	1.831193	0.620425	0.014967
 412	2.0550e-01	16.4594	36.044321	0.000211	2.113720	0.716148	0.017276
 413	2.0600e-01	16.5172	36.117872	0.000180	1.799801	0.609789	0.014710
 414	2.0650e-01	16.5445	36.187147	0.000170	1.695162	0.574336	0.013855
 415	2.0700e-01	16.5926	36.256423	0.000170	1.695162	0.574336	0.013855
 416	2.0750e-01	16.6295	36.339382	0.000203	2.030008	0.687785	0.016592
 417	2.0800e-01	16.6551	36.427045	0.000215	2.145112	0.726784	0.017533
 418	2.0850e-01	16.7193	36.504018	0.000188	1.883513	0.638151	0.015395
 419	2.0900e-01	16.7546	36.588260	0.000206	2.061400	0.698421	0.016848
 420	2.0950e-01	16.8172	36.630595	0.000104	1.035932	0.350983	0.008467
 421	2.1000e-01	16.8396	36.709278	0.000193	1.925369	0.652333	0.015737
 422	2.1050e-01	16.8460	36.802500	0.000228	2.281144	0.772872	0.018644
 423	2.1100e-01	16.8958	36.868354	0.000161	1.611450	0.545974	0.013171
 424	2.1150e-01	16.9471	36.955590	0.000213	2.134648	0.723238	0.017447
 425	2.1200e-01	17.0065	37.026148	0.000173	1.726554	0.584972	0.014112
 426	2.1250e-01	17.0321	37.099272	0.000179	1.789337	0.606244	0.014625
 427	2.1300e-01	17.0867	37.168975	0.000171	1.705626	0.577882	0.013941
 428	2.1350e-01	17.1348	37.263908	0.000232	2.322999	0.787053	0.018987
 429	2.1400e-01	17.1557	37.315651	0.000127	1.266139	0.428980	0.010349
 430	2.1450e-01	17.1749	37.393478	0.000190	1.904441	0.645242	0.015566
 431	2.1500e-01	17.2391	37.468313	0.000183	1.831193	0.620425	0.014967
 432	2.1550e-01	17.2808	37.549562	0.000199	1.988153	0.673604	0.016250
 433	2.1600e-01	17.3209	37.621403	0.000176	1.757945	0.595608	0.014368
 434	2.1650e-01	17.3787	37.699230	0.000190	1.904441	0.645242	0.015566
 435	2.1700e-01	17.3915	37.762519	0.000155	1.548666	0.524702	0.012658
 436	2.1750e-01	17.4348	37.848899	0.000211	2.113720	0.716148	0.017276
 437	2.1800e-01	17.4589	37.922878	0.000181	1.810265	0.613334	0.014796
 438	2.1850e-01	17.5182	37.986595	0.000156	1.559130	0.528248	0.012743
 439	2.1900e-01	17.5680	38.058863	0.000177	1.768409	0.599153	0.014454
 440	2.1950e-01	17.5984	38.134125	0.000184	1.841657	0.623970	0.015052
 441	2.2000e-01	17.6305	38.224782	0.000222	2.218360	0.751601	0.018131
 442	2.2050e-01	17.6851	38.291919	0.000164	1.642842	0.556610	0.013427
 443	2.2100e-01	17.6947	38.361194	0.000170	1.695162	0.574336	0.013855
 444	2.2150e-01	17.7573	38.433035	0.000176	1.757945	0.595608	0.014368
 445	2.2200e-01	17.8086	38.515567	0.000202	2.019544	0.684240	0.016506
 446	2.2250e-01	17.8310	38.580566	0.000159	1.590522	0.538883	0.013000
 447	2.2300e-01	17.8728	38.660532	0.000196	1.956761	0.662968	0.015993
 448	2.2350e-01	17.9161	38.737505	0.000188	1.883513	0.638151	0.015395
 449	2.2400e-01	17.9610	38.800793	0.000155	1.548666	0.524702	0.012658
 450	2.2450e-01	17.9947	38.876055	0.000184	1.841657	0.623970	0.015052
 451	2.2500e-01	18.0396	38.949179	0.000179	1.789337	0.606244	0.014625
 452	2.2550e-01	18.0845	39.019737	0.000173	1.726554	0.584972	0.014112
 453	2.2600e-01	18.0990	39.120657	0.000247	2.469495	0.836687	0.020184
 454	2.2650e-01	18.1551	39.176676	0.000137	1.370779	0.464432	0.011204
 455	2.2700e-01	18.2129	39.254076	0.000189	1.893977	0.641697	0.015480
 456	2.2750e-01	18.2514	39.320358	0.000162	1.621914	0.549519	0.013256
 457	2.2800e-01	18.2738	39.377232	0.000139	1.391707	0.471523	0.011375
 458	2.2850e-01	18.3332	39.459764	0.000202	2.019544	0.684240	0.016506
 459	2.2900e-01	18.3669	39.538874	0.000194	1.935833	0.655878	0.015822
 460	2.2950e-01	18.3861	39.630386	0.000224	2.239288	0.758691	0.018302
 461	2.3000e-01	18.4342	39.696240	0.000161	1.611450	0.545974	0.013171
 462	2.3050e-01	18.4759	39.769792	0.000180	1.799801	0.609789	0.014710
 463	2.3100e-01	18.5032	39.842916	0.000179	1.789337	0.606244	0.014625
 464	2.3150e-01	18.5578	39.917750	0.000183	1.831193	0.620425	0.014967
 465	2.3200e-01	18.6123	39.984032	0.000162	1.621914	0.549519	0.013256
 466	2.3250e-01	18.6348	40.055446	0.000175	1.747481	0.592063	0.014283
 467	2.3300e-01	18.6524	40.133273	0.000190	1.904441	0.645242	0.015566
 468	2.3350e-01	18.7214	40.193141	0.000146	1.464955	0.496340	0.011974
 469	2.3400e-01	18.7711	40.267548	0.000182	1.820729	0.616880	0.014881
 470	2.3450e-01	18.7808	40.353500	0.000210	2.103256	0.712602	0.017191
 471	2.3500e-01	18.8193	40.443302	0.000220	2.197432	0.744510	0.017960
 472	2.3550e-01	18.8802	40.483926	0.000099	0.994076	0.336802	0.008125
 473	2.3600e-01	18.9348	40.539517	0.000136	1.360315	0.460887	0.011118
 474	2.3650e-01	18.9348	40.646851	-0.000263	-2.626454	-0.889867	0.021467
 475	2.3700e-01	19.0150	40.712706	0.000161	1.611450	0.545974	0.013171
 476	2.3750e-01	19.0358	40.760600	0.000117	1.171964	0.397072	0.009579
 477	2.3800e-01	19.0759	40.849118	0.000217	2.166040	0.733874	0.017704
 478	2.3850e-01	19.1064	40.917111	0.000166	1.663770	0.563700	0.013598
 479	2.3900e-01	19.1417	40.991517	0.000182	1.820729	0.616880	0.014881
 480	2.3950e-01	19.2043	41.065924	0.000182	1.820729	0.616880	0.014881
 481	2.4000e-01	19.2348	41.154015	0.000216	2.155576	0.730329	0.017618
 482	2.4050e-01	19.2572	41.226284	0.000177	1.768409	0.599153	0.014454
 483	2.4100e-01	19.3326	41.295131	0.000168	1.684698	0.570791	0.013770
 484	2.4150e-01	19.3342	41.341742	0.000114	1.140572	0.386436	0.009322
 485	2.4200e-01	19.3727	41.430689	0.000218	2.176504	0.737419	0.017789
 486	2.4250e-01	19.4096	41.535884	0.000257	2.574134	0.872140	0.021039
 487	2.4300e-01	19.4882	41.575226	0.000096	0.962684	0.326166	0.007868
 488	2.4350e-01	19.5347	41.644074	0.000168	1.684698	0.570791	0.013770
 489	2.4400e-01	19.5829	41.686836	0.000105	1.046396	0.354529	0.008553
 490	2.4450e-01	19.6021	41.780486	0.000229	2.291607	0.776418	0.018730
 491	2.4500e-01	19.6262	41.860880	0.000197	1.967225	0.666514	0.016079
 492	2.4550e-01	19.6727	41.932293	0.000175	1.747481	0.592063	0.014283
 493	2.4600e-01	19.7128	42.001141	0.000168	1.684698	0.570791	0.013770
 494	2.4650e-01	19.7706	42.074692	0.000180	1.799801	0.609789	0.014710
 495	2.4700e-01	19.8251	42.142685	0.000166	1.663770	0.563700	0.013598
 496	2.4750e-01	19.8444	42.211532	0.000168	1.684698	0.570791	0.013770
 497	2.4800e-01	19.8893	42.288077	0.000187	1.873049	0.634606	0.015309
 498	2.4850e-01	19.9149	42.362056	0.000181	1.810265	0.613334	0.014796
 499	2.4900e-01	19.9470	42.416792	0.000134	1.339387	0.453797	0.010947
 500	2.4950e-01	19.9952	42.491627	0.000183	1.831193	0.620425	0.014967
 501	2.5000e-01	20.0272	42.572020	0.000197	1.967225	0.666514	0.016079
 502	2.5050e-01	20.0016	42.586987	-0.000037	-0.366239	-0.124085	0.002993
 503	2.5100e-01	19.9198	42.551494	0.000087	0.868509	0.294259	-0.007099
 504	2.5150e-01	19.8957	42.496331	0.000135	1.349851	0.457342	-0.011033
 505	2.5200e-01	19.8652	42.424490	0.000176	1.757945	0.595608	-0.014368
 506	2.5250e-01	19.8123	42.363339	0.000150	1.496346	0.506976	-0.012230
 507	2.5300e-01	19.7882	42.308603	0.000134	1.339387	0.453797	-0.010947
 508	2.5350e-01	19.7433	42.250446	0.000142	1.423099	0.482159	-0.011631
 509	2.5400e-01	19.6887	42.182881	0.000165	1.653306	0.560155	-0.013513
 510	2.5450e-01	19.6663	42.120020	0.000154	1.538202	0.521157	-0.012572
 511	2.5500e-01	19.6182	42.060153	0.000146	1.464955	0.496340	-0.011974
 512	2.5550e-01	19.5765	41.990450	0.000171	1.705626	0.577882	-0.013941
 513	2.5600e-01	19.5347	41.918181	0.000177	1.768409	0.599153	-0.014454
 514	2.5650e-01	19.4786	41.870715	0.000116	1.161500	0.393527	-0.009493
 515	2.5700e-01	19.4577	41.802723	0.000166	1.663770	0.563700	-0.013598
 516	2.5750e-01	19.4176	41.736868	0.000161	1.611450	0.545974	-0.013171
 517	2.5800e-01	19.3936	41.628251	0.000266	2.657846	0.900503	-0.021723
 518	2.5850e-01	19.3278	41.589338	0.000095	0.952220	0.322621	-0.007783
 519	2.5900e-01	19.3021	41.532036	0.000140	1.402171	0.475068	-0.011460
 520	2.5950e-01	19.2492	41.458912	0.000179	1.789337	0.606244	-0.014625
 521	2.6000e-01	19.1995	41.417005	0.000103	1.025468	0.347438	-0.008381
 522	2.6050e-01	19.1706	41.337466	0.000195	1.946297	0.659423	-0.015908
 523	2.6100e-01	19.1209	41.260921	0.000187	1.873049	0.634606	-0.015309
 524	2.6150e-01	19.1128	41.207041	0.000132	1.318459	0.446706	-0.010776
 525	2.6200e-01	19.0807	41.142041	0.000159	1.590522	0.538883	-0.013000
 526	2.6250e-01	19.0310	41.064641	0.000189	1.893977	0.641697	-0.015480
 527	2.6300e-01	18.9717	41.009050	0.000136	1.360315	0.460887	-0.011118
 528	2.6350e-01	18.9283	40.953459	0.000136	1.360315	0.460887	-0.011118
 529	2.6400e-01	18.8930	40.868789	0.000207	2.071864	0.701967	-0.016934
 530	2.6450e-01	18.8610	40.802935	0.000161	1.611450	0.545974	-0.013171
 531	2.6500e-01	18.8385	40.728100	0.000183	1.831193	0.620425	-0.014967
 532	2.6550e-01	18.7791	40.674647	0.000131	1.307995	0.443161	-0.010691
 533	2.6600e-01	18.7374	40.609220	0.000160	1.600986	0.542429	-0.013085
 534	2.6650e-01	18.6797	40.532248	0.000188	1.883513	0.638151	-0.015395
 535	2.6700e-01	18.6669	40.458696	0.000180	1.799801	0.609789	-0.014710
 536	2.6750e-01	18.6267	40.393697	0.000159	1.590522	0.538883	-0.013000
 537	2.6800e-01	18.5433	40.331264	0.000153	1.527738	0.517612	-0.012487
 538	2.6850e-01	18.5337	40.256857	0.000182	1.820729	0.616880	-0.014881
 539	2.6900e-01	18.4776	40.193569	0.000155	1.548666	0.524702	-0.012658
 540	2.6950e-01	18.4599	40.133701	0.000146	1.464955	0.496340	-0.011974
 541	2.7000e-01	18.4038	40.074689	0.000144	1.444027	0.489249	-0.011802
 542	2.7050e-01	18.3701	39.969921	0.000256	2.563670	0.868595	-0.020954
 543	2.7100e-01	18.2995	39.924165	0.000112	1.119644	0.379346	-0.009151
 544	2.7150e-01	18.2947	39.854034	0.000172	1.716090	0.581427	-0.014026
 545	2.7200e-01	18.2674	39.782193	0.000176	1.757945	0.595608	-0.014368
 546	2.7250e-01	18.2209	39.700517	0.000200	1.998617	0.677150	-0.016335
 547	2.7300e-01	18.1551	39.672293	0.000069	0.690621	0.233989	-0.005645
 548	2.7350e-01	18.1583	39.585058	-0.000213	-2.134648	-0.723238	-0.017447
 549	2.7400e-01	18.0797	39.521342	0.000156	1.559130	0.528248	-0.012743
 550	2.7450e-01	18.0829	39.437955	-0.000204	-2.040472	-0.691331	-0.016677
 551	2.7500e-01	18.0236	39.371673	0.000162	1.621914	0.549519	-0.013256
 552	2.7550e-01	17.9802	39.292562	0.000194	1.935833	0.655878	-0.015822
 553	2.7600e-01	17.9353	39.217728	0.000183	1.831193	0.620425	-0.014967
 554	2.7650e-01	17.8904	39.157433	0.000148	1.475419	0.499885	-0.012059
 555	2.7700e-01	17.8503	39.109111	0.000118	1.182428	0.400617	-0.009664
 556	2.7750e-01	17.8198	39.038980	0.000172	1.716090	0.581427	-0.014026
 557	2.7800e-01	17.7845	38.959870	0.000194	1.935833	0.655878	-0.015822
 558	2.7850e-01	17.7204	38.889312	0.000173	1.726554	0.584972	-0.014112
 559	2.7900e-01	17.7075	38.814477	0.000183	1.831193	0.620425	-0.014967
 560	2.7950e-01	17.6578	38.752471	0.000152	1.517274	0.514066	-0.012401
 561	2.8000e-01	17.6289	38.705860	0.000114	1.140572	0.386436	-0.009322
 562	2.8050e-01	17.6000	38.595105	0.000271	2.710166	0.918229	-0.022151
 563	2.8100e-01	17.5343	38.541225	0.000132	1.318459	0.446706	-0.010776
 564	2.8150e-01	17.5022	38.453134	0.000216	2.155576	0.730329	-0.017618
 565	2.8200e-01	17.4589	38.420207	0.000081	0.805725	0.272987	-0.006585
 566	2.8250e-01	17.4043	38.347083	0.000179	1.789337	0.606244	-0.014625
 567	2.8300e-01	17.4091	38.258564	-0.000217	-2.166040	-0.733874	-0.017704
 568	2.8350e-01	17.3273	38.209815	0.000119	1.192892	0.404163	-0.009750
 569	2.8400e-01	17.2888	38.127283	0.000202	2.019544	0.684240	-0.016506
 570	2.8450e-01	17.2648	38.054587	0.000178	1.778873	0.602699	-0.014539
 571	2.8500e-01	17.2038	37.992581	0.000152	1.517274	0.514066	-0.012401
 572	2.8550e-01	17.1926	37.904063	0.000217	2.166040	0.733874	-0.017704
 573	2.8600e-01	17.1140	37.838209	0.000161	1.611450	0.545974	-0.013171
 574	2.8650e-01	17.0867	37.782617	0.000136	1.360315	0.460887	-0.011118
 575	2.8700e-01	17.0498	37.712487	0.000172	1.716090	0.581427	-0.014026
 576	2.8750e-01	17.0065	37.643211	0.000170	1.695162	0.574336	-0.013855
 577	2.8800e-01	16.9519	37.578212	0.000159	1.590522	0.538883	-0.013000
 578	2.8850e-01	16.9487	37.480286	0.000240	2.396247	0.811870	-0.019585
 579	2.8900e-01	16.9118	37.407590	0.000178	1.778873	0.602699	-0.014539
 580	2.8950e-01	16.8316	37.358841	0.000119	1.192892	0.404163	-0.009750
 581	2.9000e-01	16.8236	37.285289	0.000180	1.799801	0.609789	-0.014710
 582	2.9050e-01	16.7867	37.198909	0.000211	2.113720	0.716148	-0.017276
 583	2.9100e-01	16.7418	37.132199	0.000163	1.632378	0.553065	-0.013342
 584	2.9150e-01	16.6953	37.066345	0.000161	1.611450	0.545974	-0.013171
 585	2.9200e-01	16.6535	36.992793	0.000180	1.799801	0.609789	-0.014710
 586	2.9250e-01	16.6279	36.918814	0.000181	1.810265	0.613334	-0.014796
 587	2.9300e-01	16.5749	36.839276	0.000195	1.946297	0.659423	-0.015908
 588	2.9350e-01	16.5300	36.781547	0.000141	1.412635	0.478614	-0.011546
 589	2.9400e-01	16.5204	36.696022	0.000209	2.092792	0.709057	-0.017105
 590	2.9450e-01	16.4803	36.620759	0.000184	1.841657	0.623970	-0.015052
 591	2.9500e-01	16.4177	36.591681	0.000071	0.711549	0.241079	-0.005816
 592	2.9550e-01	16.3648	36.497176	0.000231	2.312535	0.783508	-0.018901
 593	2.9600e-01	16.3327	36.413361	0.000205	2.050936	0.694876	-0.016763
 594	2.9650e-01	16.2990	36.350928	0.000153	1.527738	0.517612	-0.012487
 595	2.9700e-01	16.2461	36.287639	0.000155	1.548666	0.524702	-0.012658
 596	2.9750e-01	16.2300	36.205963	0.000200	1.998617	0.677150	-0.016335
 597	2.9800e-01	16.1867	36.127708	0.000191	1.914905	0.648787	-0.015651
 598	2.9850e-01	16.1402	36.064419	0.000155	1.548666	0.524702	-0.012658
 599	2.9900e-01	16.0792	35.982743	0.000200	1.998617	0.677150	-0.016335
 600	2.9950e-01	16.0536	35.912184	0.000173	1.726554	0.584972	-0.014112
 601	3.0000e-01	16.0231	35.859159	0.000130	1.297531	0.439615	-0.010605
 602	3.0050e-01	16.0086	35.778338	0.000198	1.977689	0.670059	-0.016164
 603	3.0100e-01	15.9381	35.700510	0.000190	1.904441	0.645242	-0.015566
 604	3.0150e-01	15.9060	35.644063	0.000138	1.381243	0.467978	-0.011289
 605	3.0200e-01	15.8402	35.581630	0.000153	1.527738	0.517612	-0.012487
 606	3.0250e-01	15.8001	35.499954	0.000200	1.998617	0.677150	-0.016335
 607	3.0300e-01	15.7808	35.425974	0.000181	1.810265	0.613334	-0.014796
 608	3.0350e-01	15.7311	35.351140	0.000183	1.831193	0.620425	-0.014967
 609	3.0400e-01	15.6926	35.276733	0.000182	1.820729	0.616880	-0.014881
 610	3.0450e-01	15.6397	35.201471	0.000184	1.841657	0.623970	-0.015052
 611	3.0500e-01	15.5947	35.136900	0.000158	1.580058	0.535338	-0.012914
 612	3.0550e-01	15.5659	35.065059	0.000176	1.757945	0.595608	-0.014368
 613	3.0600e-01	15.5482	34.979961	0.000208	2.082328	0.705512	-0.017019
 614	3.0650e-01	15.4680	34.915390	0.000158	1.580058	0.535338	-0.012914
 615	3.0700e-01	15.4456	34.831575	0.000205	2.050936	0.694876	-0.016763
 616	3.0750e-01	15.4054	34.747761	0.000205	2.050936	0.694876	-0.016763
 617	3.0800e-01	15.3637	34.677203	0.000173	1.726554	0.584972	-0.014112
 618	3.0850e-01	15.3525	34.611776	0.000160	1.600986	0.542429	-0.013085
 619	3.0900e-01	15.2707	34.550626	0.000150	1.496346	0.506976	-0.012230
 620	3.0950e-01	15.2530	34.481350	0.000170	1.695162	0.574336	-0.013855
 621	3.1000e-01	15.2097	34.382996	0.000241	2.406711	0.815416	-0.019671
 622	3.1050e-01	15.1520	34.331254	0.000127	1.266139	0.428980	-0.010349
 623	3.1100e-01	15.1375	34.249150	0.000201	2.009081	0.680695	-0.016421
 624	3.1150e-01	15.0910	34.179874	0.000170	1.695162	0.574336	-0.013855
 625	3.1200e-01	15.0477	34.087935	0.000225	2.249752	0.762236	-0.018388
 626	3.1250e-01	14.9980	34.027212	0.000149	1.485882	0.503431	-0.012145
 627	3.1300e-01	15.0060	33.940832	-0.000211	-2.113720	-0.716148	-0.017276
 628	3.1350e-01	14.9547	33.877971	0.000154	1.538202	0.521157	-0.012572
 629	3.1400e-01	14.8969	33.806985	0.000174	1.737018	0.588517	-0.014197
 630	3.1450e-01	14.8456	33.724026	0.000203	2.030008	0.687785	-0.016592
 631	3.1500e-01	14.8039	33.650474	0.000180	1.799801	0.609789	-0.014710
 632	3.1550e-01	14.7413	33.595311	0.000135	1.349851	0.457342	-0.011033
 633	3.1600e-01	14.7124	33.518766	0.000187	1.873049	0.634606	-0.015309
 634	3.1650e-01	14.6900	33.416563	0.000250	2.500887	0.847323	-0.020440
 635	3.1700e-01	14.6450	33.361400	0.000135	1.349851	0.457342	-0.011033
 636	3.1750e-01	14.6274	33.273736	0.000215	2.145112	0.726784	-0.017533
 637	3.1800e-01	14.5745	33.214297	0.000145	1.454491	0.492795	-0.011888
 638	3.1850e-01	14.5408	33.112949	0.000248	2.479959	0.840233	-0.020269
 639	3.1900e-01	14.5023	33.059924	0.000130	1.297531	0.439615	-0.010605
 640	3.1950e-01	14.4702	32.975254	0.000207	2.071864	0.701967	-0.016934
 641	3.2000e-01	14.4076	32.921373	0.000132	1.318459	0.446706	-0.010776
 642	3.2050e-01	14.3803	32.833282	0.000216	2.155576	0.730329	-0.017618
 643	3.2100e-01	14.3402	32.769566	0.000156	1.559130	0.528248	-0.012743
 644	3.2150e-01	14.2873	32.680620	0.000218	2.176504	0.737419	-0.017789
 645	3.2200e-01	14.2825	32.599371	0.000199	1.988153	0.673604	-0.016250
 646	3.2250e-01	14.1894	32.545491	0.000132	1.318459	0.446706	-0.010776
 647	3.2300e-01	14.1814	32.480492	0.000159	1.590522	0.538883	-0.013000
 648	3.2350e-01	14.1269	32.380427	0.000245	2.448567	0.829597	-0.020013
 649	3.2400e-01	14.0900	32.310297	0.000172	1.716090	0.581427	-0.014026
 650	3.2450e-01	14.0531	32.243160	0.000164	1.642842	0.556610	-0.013427
 651	3.2500e-01	14.0130	32.155069	0.000216	2.155576	0.730329	-0.017618
 652	3.2550e-01	13.9713	32.093063	0.000152	1.517274	0.514066	-0.012401
 653	3.2600e-01	13.9263	32.031913	0.000150	1.496346	0.506976	-0.012230
 654	3.2650e-01	13.8959	31.929283	0.000251	2.511351	0.850869	-0.020526
 655	3.2700e-01	13.8654	31.838626	0.000222	2.218360	0.751601	-0.018131
 656	3.2750e-01	13.8124	31.784318	0.000133	1.328923	0.450251	-0.010862
 657	3.2800e-01	13.7659	31.710338	0.000181	1.810265	0.613334	-0.014796
 658	3.2850e-01	13.7194	31.641918	0.000167	1.674234	0.567246	-0.013684
 659	3.2900e-01	13.6777	31.561097	0.000198	1.977689	0.670059	-0.016164
 660	3.2950e-01	13.6472	31.499092	0.000152	1.517274	0.514066	-0.012401
 661	3.3000e-01	13.6151	31.401165	0.000240	2.396247	0.811870	-0.019585
 662	3.3050e-01	13.5654	31.333173	0.000166	1.663770	0.563700	-0.013598
 663	3.3100e-01	13.5269	31.256628	0.000187	1.873049	0.634606	-0.015309
 664	3.3150e-01	13.4595	31.178800	0.000190	1.904441	0.645242	-0.015566
 665	3.3200e-01	13.4547	31.091565	0.000213	2.134648	0.723238	-0.017447
 666	3.3250e-01	13.4018	31.029131	0.000153	1.527738	0.517612	-0.012487
 667	3.3300e-01	13.3617	30.951304	0.000190	1.904441	0.645242	-0.015566
 668	3.3350e-01	13.3472	30.869200	0.000201	2.009081	0.680695	-0.016421
 669	3.3400e-01	13.2975	30.787523	0.000200	1.998617	0.677150	-0.016335
 670	3.3450e-01	13.2542	30.698149	0.000219	2.186968	0.740965	-0.017875
 671	3.3500e-01	13.2028	30.638709	0.000145	1.454491	0.492795	-0.011888
 672	3.3550e-01	13.1675	30.552757	0.000210	2.103256	0.712602	-0.017191
 673	3.3600e-01	13.1050	30.489468	0.000155	1.548666	0.524702	-0.012658
 674	3.3650e-01	13.0681	30.415061	0.000182	1.820729	0.616880	-0.014881
 675	3.3700e-01	13.0552	30.329964	0.000208	2.082328	0.705512	-0.017019
 676	3.3750e-01	12.9879	30.266676	0.000155	1.548666	0.524702	-0.012658
 677	3.3800e-01	12.9622	30.180295	0.000211	2.113720	0.716148	-0.017276
 678	3.3850e-01	12.9333	30.115724	0.000158	1.580058	0.535338	-0.012914
 679	3.3900e-01	12.9221	29.991712	0.000303	3.034549	1.028133	-0.024802
 680	3.3950e-01	12.8451	29.950660	0.000100	1.004540	0.340347	-0.008210
 681	3.4000e-01	12.7970	29.873260	0.000189	1.893977	0.641697	-0.015480
 682	3.4050e-01	12.7649	29.795860	0.000189	1.893977	0.641697	-0.015480
 683	3.4100e-01	12.7296	29.711190	0.000207	2.071864	0.701967	-0.016934
 684	3.4150e-01	12.6863	29.642343	0.000168	1.684698	0.570791	-0.013770
 685	3.4200e-01	12.6718	29.543561	0.000242	2.417175	0.818961	-0.019756
 686	3.4250e-01	12.6109	29.494812	0.000119	1.192892	0.404163	-0.009750
 687	3.4300e-01	12.5788	29.397741	0.000238	2.375319	0.804780	-0.019414
 688	3.4350e-01	12.5595	29.302381	0.000233	2.333463	0.790599	-0.019072
 689	3.4400e-01	12.4970	29.249355	0.000130	1.297531	0.439615	-0.010605
 690	3.4450e-01	12.4424	29.184784	0.000158	1.580058	0.535338	-0.012914
 691	3.4500e-01	12.4200	29.090278	0.000231	2.312535	0.783508	-0.018901
 692	3.4550e-01	12.3927	29.005609	0.000207	2.071864	0.701967	-0.016934
 693	3.4600e-01	12.3478	28.931629	0.000181	1.810265	0.613334	-0.014796
 694	3.4650e-01	12.2740	28.857223	0.000182	1.820729	0.616880	-0.014881
 695	3.4700e-01	12.2724	28.769132	0.000216	2.155576	0.730329	-0.017618
 696	3.4750e-01	12.1954	28.702422	0.000163	1.632378	0.553065	-0.013342
 697	3.4800e-01	12.1954	28.616042	0.000211	2.113720	0.716148	-0.017276
 698	3.4850e-01	12.1296	28.518971	0.000238	2.375319	0.804780	-0.019414
 699	3.4900e-01	12.1007	28.450123	0.000168	1.684698	0.570791	-0.013770
 700	3.4950e-01	12.0542	28.377427	0.000178	1.778873	0.602699	-0.014539
 701	3.5000e-01	11.9916	28.306869	0.000173	1.726554	0.584972	-0.014112
 702	3.5050e-01	11.9660	28.228186	0.000193	1.925369	0.652333	-0.015737
 703	3.5100e-01	11.9162	28.136674	0.000224	2.239288	0.758691	-0.018302
 704	3.5150e-01	11.8906	28.047300	0.000219	2.186968	0.740965	-0.017875
 705	3.5200e-01	11.8537	27.989999	0.000140	1.402171	0.475068	-0.011460
 706	3.5250e-01	11.8232	27.896349	0.000229	2.291607	0.776418	-0.018730
 707	3.5300e-01	11.7510	27.825790	0.000173	1.726554	0.584972	-0.014112
 708	3.5350e-01	11.7093	27.754805	0.000174	1.737018	0.588517	-0.014197
 709	3.5400e-01	11.7221	27.649181	-0.000258	-2.584598	-0.875686	-0.021125
 710	3.5450e-01	11.6531	27.564939	0.000206	2.061400	0.698421	-0.016848
 711	3.5500e-01	11.6066	27.500368	0.000158	1.580058	0.535338	-0.012914
 712	3.5550e-01	11.6050	27.399020	0.000248	2.479959	0.840233	-0.020269
 713	3.5600e-01	11.5200	27.333166	0.000161	1.611450	0.545974	-0.013171
 714	3.5650e-01	11.4991	27.263036	0.000172	1.716090	0.581427	-0.014026
 715	3.5700e-01	11.4446	27.174517	0.000217	2.166040	0.733874	-0.017704
 716	3.5750e-01	11.4141	27.101821	0.000178	1.778873	0.602699	-0.014539
 717	3.5800e-01	11.3564	27.034684	0.000164	1.642842	0.556610	-0.013427
 718	3.5850e-01	11.3259	26.941889	0.000227	2.270680	0.769327	-0.018559
 719	3.5900e-01	11.3034	26.851232	0.000222	2.218360	0.751601	-0.018131
 720	3.5950e-01	11.2569	26.790510	0.000149	1.485882	0.503431	-0.012145
 721	3.6000e-01	11.1959	26.699425	0.000223	2.228824	0.755146	-0.018217
 722	3.6050e-01	11.1719	26.616894	0.000202	2.019544	0.684240	-0.016506
 723	3.6100e-01	11.1558	26.550184	0.000163	1.632378	0.553065	-0.013342
 724	3.6150e-01	11.0965	26.441995	0.000265	2.647382	0.896957	-0.021638
 725	3.6200e-01	11.0467	26.364595	0.000189	1.893977	0.641697	-0.015480
 726	3.6250e-01	10.9697	26.295320	0.000170	1.695162	0.574336	-0.013855
 727	3.6300e-01	10.9810	26.226472	-0.000168	-1.684698	-0.570791	-0.013770
 728	3.6350e-01	10.9617	26.121276	0.000257	2.574134	0.872140	-0.021039
 729	3.6400e-01	10.9040	26.028054	0.000228	2.281144	0.772872	-0.018644
 730	3.6450e-01	10.8510	25.977594	0.000123	1.234747	0.418344	-0.010092
 731	3.6500e-01	10.8093	25.885227	0.000226	2.260216	0.765782	-0.018473
 732	3.6550e-01	10.7997	25.783880	0.000248	2.479959	0.840233	-0.020269
 733	3.6600e-01	10.7275	25.735558	0.000118	1.182428	0.400617	-0.009664
 734	3.6650e-01	10.7066	25.644046	0.000224	2.239288	0.758691	-0.018302
 735	3.6700e-01	10.6473	25.555528	0.000217	2.166040	0.733874	-0.017704
 736	3.6750e-01	10.6024	25.492667	0.000154	1.538202	0.521157	-0.012572
 737	3.6800e-01	10.5847	25.390464	0.000250	2.500887	0.847323	-0.020440
 738	3.6850e-01	10.5174	25.335728	0.000134	1.339387	0.453797	-0.010947
 739	3.6900e-01	10.5029	25.230533	0.000257	2.574134	0.872140	-0.021039
 740	3.6950e-01	10.4532	25.155271	0.000184	1.841657	0.623970	-0.015052
 741	3.7000e-01	10.4083	25.068035	0.000213	2.134648	0.723238	-0.017447
 742	3.7050e-01	10.3649	24.984220	0.000205	2.050936	0.694876	-0.016763
 743	3.7100e-01	10.3489	24.893564	0.000222	2.218360	0.751601	-0.018131
 744	3.7150e-01	10.2687	24.815309	0.000191	1.914905	0.648787	-0.015651
 745	3.7200e-01	10.2190	24.739619	0.000185	1.852121	0.627516	-0.015138
 746	3.7250e-01	10.1901	24.662219	0.000189	1.893977	0.641697	-0.015480
 747	3.7300e-01	10.1740	24.563437	0.000242	2.417175	0.818961	-0.019756
 748	3.7350e-01	10.1259	24.504853	0.000143	1.433563	0.485704	-0.011717
 749	3.7400e-01	10.1051	24.416334	0.000217	2.166040	0.733874	-0.017704
 750	3.7450e-01	10.0730	24.325250	0.000223	2.228824	0.755146	-0.018217
 751	3.7500e-01	10.0040	24.252554	0.000178	1.778873	0.602699	-0.014539
 752	3.7550e-01	9.9527	24.151634	0.000247	2.469495	0.836687	-0.020184
 753	3.7600e-01	9.9495	24.069958	0.000200	1.998617	0.677150	-0.016335
 754	3.7650e-01	9.8805	23.998972	0.000174	1.737018	0.588517	-0.014197
 755	3.7700e-01	9.8580	23.901901	0.000238	2.375319	0.804780	-0.019414
 756	3.7750e-01	9.8035	23.826211	0.000185	1.852121	0.627516	-0.015138
 757	3.7800e-01	9.7489	23.751377	0.000183	1.831193	0.620425	-0.014967
 758	3.7850e-01	9.7200	23.654734	0.000236	2.364855	0.801235	-0.019329
 759	3.7900e-01	9.6928	23.581182	0.000180	1.799801	0.609789	-0.014710
 760	3.7950e-01	9.6719	23.484966	0.000235	2.354391	0.797689	-0.019243
 761	3.8000e-01	9.6206	23.388323	0.000236	2.364855	0.801235	-0.019329
 762	3.8050e-01	9.5692	23.319903	0.000167	1.674234	0.567246	-0.013684
 763	3.8100e-01	9.5612	23.224970	0.000232	2.322999	0.787053	-0.018987
 764	3.8150e-01	9.5195	23.138590	0.000211	2.113720	0.716148	-0.017276
 765	3.8200e-01	9.4778	23.065038	0.000180	1.799801	0.609789	-0.014710
 766	3.8250e-01	9.4152	22.990631	0.000182	1.820729	0.616880	-0.014881
 767	3.8300e-01	9.3703	22.918790	0.000176	1.757945	0.595608	-0.014368
 768	3.8350e-01	9.3254	22.815733	0.000252	2.521815	0.854414	-0.020612
 769	3.8400e-01	9.2773	22.736194	0.000195	1.946297	0.659423	-0.015908
 770	3.8450e-01	9.2452	22.641689	0.000231	2.312535	0.783508	-0.018901
 771	3.8500e-01	9.1955	22.562151	0.000195	1.946297	0.659423	-0.015908
 772	3.8550e-01	9.1826	22.487317	0.000183	1.831193	0.620425	-0.014967
 773	3.8600e-01	9.1153	22.377844	0.000268	2.678774	0.907593	-0.021894
 774	3.8650e-01	9.0784	22.306859	0.000174	1.737018	0.588517	-0.014197
 775	3.8700e-01	9.0366	22.231597	0.000184	1.841657	0.623970	-0.015052
 776	3.8750e-01	9.0190	22.125118	0.000261	2.605526	0.882776	-0.021296
 777	3.8800e-01	8.9580	22.039593	0.000209	2.092792	0.709057	-0.017105
 778	3.8850e-01	8.9179	21.952785	0.000212	2.124184	0.719693	-0.017362
 779	3.8900e-01	8.8762	21.883510	0.000170	1.695162	0.574336	-0.013855
 780	3.8950e-01	8.8345	21.809103	0.000182	1.820729	0.616880	-0.014881
 781	3.9000e-01	8.8169	21.721012	0.000216	2.155576	0.730329	-0.017618
 782	3.9050e-01	8.7864	21.626079	0.000232	2.322999	0.787053	-0.018987
 783	3.9100e-01	8.7318	21.523022	0.000252	2.521815	0.854414	-0.020612
 784	3.9150e-01	8.7078	21.436641	0.000211	2.113720	0.716148	-0.017276
 785	3.9200e-01	8.6468	21.360096	0.000187	1.873049	0.634606	-0.015309
 786	3.9250e-01	8.6276	21.271150	0.000218	2.176504	0.737419	-0.017789
 787	3.9300e-01	8.5586	21.204441	0.000163	1.632378	0.553065	-0.013342
 788	3.9350e-01	8.5185	21.102666	0.000249	2.490423	0.843778	-0.020355
 789	3.9400e-01	8.4832	21.029114	0.000180	1.799801	0.609789	-0.014710
 790	3.9450e-01	8.4447	20.923491	0.000258	2.584598	0.875686	-0.021125
 791	3.9500e-01	8.4206	20.810170	0.000277	2.772950	0.939501	-0.022664
 792	3.9550e-01	8.3757	20.737902	0.000177	1.768409	0.599153	-0.014454
 793	3.9600e-01	8.3179	20.668626	0.000170	1.695162	0.574336	-0.013855
 794	3.9650e-01	8.2730	20.598923	0.000171	1.705626	0.577882	-0.013941
 795	3.9700e-01	8.2458	20.516392	0.000202	2.019544	0.684240	-0.016506
 796	3.9750e-01	8.2185	20.427873	0.000217	2.166040	0.733874	-0.017704
 797	3.9800e-01	8.1463	20.318401	0.000268	2.678774	0.907593	-0.021894
 798	3.9850e-01	8.1206	20.241429	0.000188	1.883513	0.638151	-0.015395
 799	3.9900e-01	8.0918	20.158469	0.000203	2.030008	0.687785	-0.016592
 800	3.9950e-01	8.0404	20.068240	0.000221	2.207896	0.748055	-0.018046
 801	4.0000e-01	8.0067	19.960479	0.000264	2.636918	0.893412	-0.021552
 802	4.0050e-01	7.9714	19.886072	0.000182	1.820729	0.616880	-0.014881
 803	4.0100e-01	7.9313	19.816797	0.000170	1.695162	0.574336	-0.013855
 804	4.0150e-01	7.9169	19.707752	0.000267	2.668310	0.904048	-0.021809
 805	4.0200e-01	7.8672	19.618379	0.000219	2.186968	0.740965	-0.017875
 806	4.0250e-01	7.8174	19.534136	0.000206	2.061400	0.698421	-0.016848
 807	4.0300e-01	7.7741	19.445618	0.000217	2.166040	0.733874	-0.017704
 808	4.0350e-01	7.7468	19.361803	0.000205	2.050936	0.694876	-0.016763
 809	4.0400e-01	7.6875	19.272002	0.000220	2.197432	0.744510	-0.017960
 810	4.0450e-01	7.6394	19.182628	0.000219	2.186968	0.740965	-0.017875
 811	4.0500e-01	7.5768	19.115491	0.000164	1.642842	0.556610	-0.013427
 812	4.0550e-01	7.5415	19.019703	0.000234	2.343927	0.794144	-0.019158
 813	4.0600e-01	7.5094	18.926908	0.000227	2.270680	0.769327	-0.018559
 814	4.0650e-01	7.4773	18.828982	0.000240	2.396247	0.811870	-0.019585
 815	4.0700e-01	7.4292	18.742602	0.000211	2.113720	0.716148	-0.017276
 816	4.0750e-01	7.4260	18.641255	0.000248	2.479959	0.840233	-0.020269
 817	4.0800e-01	7.3763	18.565565	0.000185	1.852121	0.627516	-0.015138
 818	4.0850e-01	7.3265	18.457376	0.000265	2.647382	0.896957	-0.021638
 819	4.0900e-01	7.2640	18.388528	0.000168	1.684698	0.570791	-0.013770
 820	4.0950e-01	7.2559	18.278629	0.000269	2.689238	0.911138	-0.021980
 821	4.1000e-01	7.1741	18.201228	0.000189	1.893977	0.641697	-0.015480
 822	4.1050e-01	7.1822	18.107151	-0.000230	-2.302071	-0.779963	-0.018816
 823	4.1100e-01	7.1356	18.035310	0.000176	1.757945	0.595608	-0.014368
 824	4.1150e-01	7.1132	17.947647	0.000215	2.145112	0.726784	-0.017533
 825	4.1200e-01	7.0554	17.837747	0.000269	2.689238	0.911138	-0.021980
 826	4.1250e-01	6.9848	17.764195	0.000180	1.799801	0.609789	-0.014710
 827	4.1300e-01	6.9463	17.681664	0.000202	2.019544	0.684240	-0.016506
 828	4.1350e-01	6.9511	17.566205	-0.000283	-2.825269	-0.957227	-0.023092
 829	4.1400e-01	6.9142	17.491370	0.000183	1.831193	0.620425	-0.014967
 830	4.1450e-01	6.8549	17.383609	0.000264	2.636918	0.893412	-0.021552
 831	4.1500e-01	6.7827	17.300650	0.000203	2.030008	0.687785	-0.016592
 832	4.1550e-01	6.7795	17.219401	0.000199	1.988153	0.673604	-0.016250
 833	4.1600e-01	6.7121	17.118909	0.000246	2.459031	0.833142	-0.020098
 834	4.1650e-01	6.6961	17.025259	0.000229	2.291607	0.776418	-0.018730
 835	4.1700e-01	6.6399	16.938023	0.000213	2.134648	0.723238	-0.017447
 836	4.1750e-01	6.6014	16.853354	0.000207	2.071864	0.701967	-0.016934
 837	4.1800e-01	6.5324	16.751151	0.000250	2.500887	0.847323	-0.020440
 838	4.1850e-01	6.5068	16.679738	0.000175	1.747481	0.592063	-0.014283
 839	4.1900e-01	6.4891	16.575825	0.000254	2.542743	0.861504	-0.020783
 840	4.1950e-01	6.4570	16.482602	0.000228	2.281144	0.772872	-0.018644
 841	4.2000e-01	6.3816	16.404775	0.000190	1.904441	0.645242	-0.015566
 842	4.2050e-01	6.3881	16.300006	-0.000256	-2.563670	-0.868595	-0.020954
 843	4.2100e-01	6.3560	16.207639	0.000226	2.260216	0.765782	-0.018473
 844	4.2150e-01	6.2870	16.132805	0.000183	1.831193	0.620425	-0.014967
 845	4.2200e-01	6.2308	16.051984	0.000198	1.977689	0.670059	-0.016164
 846	4.2250e-01	6.2292	15.935242	0.000286	2.856661	0.967863	-0.023348
 847	4.2300e-01	6.1747	15.857414	0.000190	1.904441	0.645242	-0.015566
 848	4.2350e-01	6.1185	15.753074	0.000255	2.553206	0.865050	-0.020868
 849	4.2400e-01	6.0977	15.648733	0.000255	2.553206	0.865050	-0.020868
 850	4.2450e-01	6.0335	15.566629	0.000201	2.009081	0.680695	-0.016421
 851	4.2500e-01	6.0079	15.488801	0.000190	1.904441	0.645242	-0.015566
 852	4.2550e-01	5.9629	15.390875	0.000240	2.396247	0.811870	-0.019585
 853	4.2600e-01	5.9100	15.299363	0.000224	2.239288	0.758691	-0.018302
 854	4.2650e-01	5.8972	15.216832	0.000202	2.019544	0.684240	-0.016506
 855	4.2700e-01	5.8731	15.114202	0.000251	2.511351	0.850869	-0.020526
 856	4.2750e-01	5.8009	15.022262	0.000225	2.249752	0.762236	-0.018388
 857	4.2800e-01	5.7383	14.928185	0.000230	2.302071	0.779963	-0.018816
 858	4.2850e-01	5.7047	14.848646	0.000195	1.946297	0.659423	-0.015908
 859	4.2900e-01	5.6934	14.737036	0.000273	2.731094	0.925320	-0.022322
 860	4.2950e-01	5.6629	14.640393	0.000236	2.364855	0.801235	-0.019329
 861	4.3000e-01	5.6212	14.560854	0.000195	1.946297	0.659423	-0.015908
 862	4.3050e-01	5.5715	14.447106	0.000278	2.783414	0.943046	-0.022750
 863	4.3100e-01	5.5571	14.355594	0.000224	2.239288	0.758691	-0.018302
 864	4.3150e-01	5.5009	14.259379	0.000235	2.354391	0.797689	-0.019243
 865	4.3200e-01	5.4624	14.165301	0.000230	2.302071	0.779963	-0.018816
 866	4.3250e-01	5.4031	14.081486	0.000205	2.050936	0.694876	-0.016763
 867	4.3300e-01	5.3678	13.987409	0.000230	2.302071	0.779963	-0.018816
 868	4.3350e-01	5.3325	13.884779	0.000251	2.511351	0.850869	-0.020526
 869	4.3400e-01	5.3068	13.797971	0.000212	2.124184	0.719693	-0.017362
 870	4.3450e-01	5.2619	13.699617	0.000241	2.406711	0.815416	-0.019671
 871	4.3500e-01	5.2122	13.611954	0.000215	2.145112	0.726784	-0.017533
 872	4.3550e-01	5.1817	13.513172	0.000242	2.417175	0.818961	-0.019756
 873	4.3600e-01	5.1384	13.434062	0.000194	1.935833	0.655878	-0.015822
 874	4.3650e-01	5.0838	13.321169	0.000276	2.762486	0.935955	-0.022579
 875	4.3700e-01	5.0229	13.239920	0.000199	1.988153	0.673604	-0.016250
 876	4.3750e-01	5.0036	13.136007	0.000254	2.542743	0.861504	-0.020783
 877	4.3800e-01	4.9571	13.033805	0.000250	2.500887	0.847323	-0.020440
 878	4.3850e-01	4.9122	12.942293	0.000224	2.239288	0.758691	-0.018302
 879	4.3900e-01	4.9154	12.857195	-0.000208	-2.082328	-0.705512	-0.017019
 880	4.3950e-01	4.8576	12.746013	0.000272	2.720630	0.921774	-0.022237
 881	4.4000e-01	4.7902	12.663909	0.000201	2.009081	0.680695	-0.016421
 882	4.4050e-01	4.7710	12.571969	0.000225	2.249752	0.762236	-0.018388
 883	4.4100e-01	4.7277	12.454800	0.000287	2.867125	0.971408	-0.023434
 884	4.4150e-01	4.6763	12.383814	0.000174	1.737018	0.588517	-0.014197
 885	4.4200e-01	4.6459	12.272204	0.000273	2.731094	0.925320	-0.022322
 886	4.4250e-01	4.6009	12.175988	0.000235	2.354391	0.797689	-0.019243
 887	4.4300e-01	4.5624	12.086187	0.000220	2.197432	0.744510	-0.017960
 888	4.4350e-01	4.5079	11.995530	0.000222	2.218360	0.751601	-0.018131
 889	4.4400e-01	4.4999	11.889479	0.000260	2.595062	0.879231	-0.021210
 890	4.4450e-01	4.4485	11.793691	0.000234	2.343927	0.794144	-0.019158
 891	4.4500e-01	4.4116	11.696620	0.000238	2.375319	0.804780	-0.019414
 892	4.4550e-01	4.4084	11.596984	0.000244	2.438103	0.826052	-0.019927
 893	4.4600e-01	4.3282	11.485801	0.000272	2.720630	0.921774	-0.022237
 894	4.4650e-01	4.2913	11.411394	0.000182	1.820729	0.616880	-0.014881
 895	4.4700e-01	4.2272	11.319882	0.000224	2.239288	0.758691	-0.018302
 896	4.4750e-01	4.2047	11.227515	0.000226	2.260216	0.765782	-0.018473
 897	4.4800e-01	4.1694	11.113767	0.000278	2.783414	0.943046	-0.022750
 898	4.4850e-01	4.1389	11.017551	0.000235	2.354391	0.797689	-0.019243
 899	4.4900e-01	4.1036	10.913211	0.000255	2.553206	0.865050	-0.020868
 900	4.4950e-01	4.0555	10.821271	0.000225	2.249752	0.762236	-0.018388
 901	4.5000e-01	3.9994	10.736174	0.000208	2.082328	0.705512	-0.017019
 902	4.5050e-01	3.9673	10.624564	0.000273	2.731094	0.925320	-0.022322
 903	4.5100e-01	3.9400	10.510815	0.000278	2.783414	0.943046	-0.022750
 904	4.5150e-01	3.9352	10.407330	0.000253	2.532279	0.857959	-0.020697
 905	4.5200e-01	3.8758	10.317101	0.000221	2.207896	0.748055	-0.018046
 906	4.5250e-01	3.7988	10.235852	0.000199	1.988153	0.673604	-0.016250
 907	4.5300e-01	3.7796	10.122104	0.000278	2.783414	0.943046	-0.022750
 908	4.5350e-01	3.7186	10.037434	0.000207	2.071864	0.701967	-0.016934
 909	4.5400e-01	3.6913	9.924114	0.000277	2.772950	0.939501	-0.022664
 910	4.5450e-01	3.6432	9.836450	0.000215	2.145112	0.726784	-0.017533
 911	4.5500e-01	3.6111	9.731682	0.000256	2.563670	0.868595	-0.020954
 912	4.5550e-01	3.5774	9.626914	0.000256	2.563670	0.868595	-0.020954
 913	4.5600e-01	3.5213	9.520435	0.000261	2.605526	0.882776	-0.021296
 914	4.5650e-01	3.4844	9.447739	0.000178	1.778873	0.602699	-0.014539
 915	4.5700e-01	3.4427	9.333991	0.000278	2.783414	0.943046	-0.022750
 916	4.5750e-01	3.4010	9.240341	0.000229	2.291607	0.776418	-0.018730
 917	4.5800e-01	3.3545	9.125737	0.000280	2.804342	0.950137	-0.022921
 918	4.5850e-01	3.3095	9.026100	0.000244	2.438103	0.826052	-0.019927
 919	4.5900e-01	3.2774	8.942286	0.000205	2.050936	0.694876	-0.016763
 920	4.5950e-01	3.2229	8.848636	0.000229	2.291607	0.776418	-0.018730
 921	4.6000e-01	3.2373	8.705382	-0.000351	-3.505427	-1.187671	-0.028651
 922	4.6050e-01	3.1844	8.624560	0.000198	1.977689	0.670059	-0.016164
 923	4.6100e-01	3.1234	8.524068	0.000246	2.459031	0.833142	-0.020098
 924	4.6150e-01	3.0978	8.435550	0.000217	2.166040	0.733874	-0.017704
 925	4.6200e-01	3.0657	8.322657	0.000276	2.762486	0.935955	-0.022579
 926	4.6250e-01	3.0224	8.218316	0.000255	2.553206	0.865050	-0.020868
 927	4.6300e-01	2.9582	8.140916	0.000189	1.893977	0.641697	-0.015480
 928	4.6350e-01	2.9277	8.014767	0.000309	3.086868	1.045859	-0.025230
 929	4.6400e-01	2.9053	7.916841	0.000240	2.396247	0.811870	-0.019585
 930	4.6450e-01	2.8828	7.805658	0.000272	2.720630	0.921774	-0.022237
 931	4.6500e-01	2.7994	7.712008	0.000229	2.291607	0.776418	-0.018730
 932	4.6550e-01	2.7545	7.621779	0.000221	2.207896	0.748055	-0.018046
 933	4.6600e-01	2.7160	7.523853	0.000240	2.396247	0.811870	-0.019585
 934	4.6650e-01	2.6807	7.413953	0.000269	2.689238	0.911138	-0.021980
 935	4.6700e-01	2.6422	7.306192	0.000264	2.636918	0.893412	-0.021552
 936	4.6750e-01	2.6309	7.191160	0.000281	2.814806	0.953682	-0.023006
 937	4.6800e-01	2.5700	7.110767	0.000197	1.967225	0.666514	-0.016079
 938	4.6850e-01	2.5219	6.995736	0.000281	2.814806	0.953682	-0.023006
 939	4.6900e-01	2.4994	6.891823	0.000254	2.542743	0.861504	-0.020783
 940	4.6950e-01	2.4513	6.781495	0.000270	2.699702	0.914684	-0.022065
 941	4.7000e-01	2.4063	6.685280	0.000235	2.354391	0.797689	-0.019243
 942	4.7050e-01	2.3855	6.565972	0.000292	2.919445	0.989135	-0.023861
 943	4.7100e-01	2.3293	6.460776	0.000257	2.574134	0.872140	-0.021039
 944	4.7150e-01	2.2812	6.380383	0.000197	1.967225	0.666514	-0.016079
 945	4.7200e-01	2.2892	6.278608	-0.000249	-2.490423	-0.843778	-0.020355
 946	4.7250e-01	2.1946	6.179827	0.000242	2.417175	0.818961	-0.019756
 947	4.7300e-01	2.1689	6.054532	0.000307	3.065941	1.038769	-0.025059
 948	4.7350e-01	2.1240	5.953185	0.000248	2.479959	0.840233	-0.020269
 949	4.7400e-01	2.0759	5.865094	0.000216	2.155576	0.730329	-0.017618
 950	4.7450e-01	2.0839	5.738945	-0.000309	-3.086868	-1.045859	-0.025230
 951	4.7500e-01	2.0069	5.618355	0.000295	2.950837	0.999771	-0.024118
 952	4.7550e-01	1.9556	5.556777	0.000151	1.506810	0.510521	-0.012316
 953	4.7600e-01	1.9058	5.444311	0.000275	2.752022	0.932410	-0.022493
 954	4.7650e-01	1.8898	5.317734	0.000310	3.097332	1.049405	-0.025315
 955	4.7700e-01	1.8320	5.236913	0.000198	1.977689	0.670059	-0.016164
 956	4.7750e-01	1.8240	5.109481	0.000312	3.118260	1.056495	-0.025486
 957	4.7800e-01	1.7999	4.991456	0.000289	2.888053	0.978499	-0.023605
 958	4.7850e-01	1.7117	4.917049	0.000182	1.820729	0.616880	-0.014881
 959	4.7900e-01	1.6716	4.810143	0.000262	2.615990	0.886321	-0.021381
 960	4.7950e-01	1.6267	4.713927	0.000235	2.354391	0.797689	-0.019243
 961	4.8000e-01	1.6123	4.587350	0.000310	3.097332	1.049405	-0.025315
 962	4.8050e-01	1.5770	4.490279	0.000238	2.375319	0.804780	-0.019414
 963	4.8100e-01	1.5385	4.374393	0.000284	2.835733	0.960772	-0.023177
 964	4.8150e-01	1.5032	4.255941	0.000290	2.898517	0.982044	-0.023690
 965	4.8200e-01	1.4262	4.156731	0.000243	2.427639	0.822506	-0.019842
 966	4.8250e-01	1.4101	4.052391	0.000255	2.553206	0.865050	-0.020868
 967	4.8300e-01	1.3508	3.952327	0.000245	2.448567	0.829597	-0.020013
 968	4.8350e-01	1.3155	3.845420	0.000262	2.615990	0.886321	-0.021381
 969	4.8400e-01	1.3299	3.710718	-0.000330	-3.296148	-1.116765	-0.026940
 970	4.8450e-01	1.2449	3.609371	0.000248	2.479959	0.840233	-0.020269
 971	4.8500e-01	1.1695	3.537530	0.000176	1.757945	0.595608	-0.014368
 972	4.8550e-01	1.1743	3.403256	-0.000329	-3.285684	-1.113220	-0.026855
 973	4.8600e-01	1.1165	3.316875	0.000211	2.113720	0.716148	-0.017276
 974	4.8650e-01	1.1053	3.192009	0.000306	3.055477	1.035224	-0.024973
 975	4.8700e-01	1.0492	3.079971	0.000274	2.741558	0.928865	-0.022408
 976	4.8750e-01	0.9898	2.975203	0.000256	2.563670	0.868595	-0.020954
 977	4.8800e-01	0.9657	2.855468	0.000293	2.929909	0.992680	-0.023947
 978	4.8850e-01	0.9353	2.751982	0.000253	2.532279	0.857959	-0.020697
 979	4.8900e-01	0.8903	2.645931	0.000260	2.595062	0.879231	-0.021210
 980	4.8950e-01	0.8438	2.551426	0.000231	2.312535	0.783508	-0.018901
 981	4.9000e-01	0.8326	2.433402	0.000289	2.888053	0.978499	-0.023605
 982	4.9050e-01	0.7652	2.336331	0.000238	2.375319	0.804780	-0.019414
 983	4.9100e-01	0.7331	2.210609	0.000308	3.076405	1.042314	-0.025144
 984	4.9150e-01	0.6962	2.107124	0.000253	2.532279	0.857959	-0.020697
 985	4.9200e-01	0.6642	1.996796	0.000270	2.699702	0.914684	-0.022065
 986	4.9250e-01	0.6064	1.899298	0.000239	2.385783	0.808325	-0.019500
 987	4.9300e-01	0.5663	1.773148	0.000309	3.086868	1.045859	-0.025230
 988	4.9350e-01	0.5663	1.662821	0.000270	2.699702	0.914684	-0.022065
 989	4.9400e-01	0.4941	1.556770	0.000260	2.595062	0.879231	-0.021210
 990	4.9450e-01	0.4396	1.470817	0.000210	2.103256	0.712602	-0.017191
 991	4.9500e-01	0.3930	1.343812	0.000311	3.107796	1.052950	-0.025401
 992	4.9550e-01	0.3786	1.234340	0.000268	2.678774	0.907593	-0.021894
 993	4.9600e-01	0.3353	1.127434	0.000262	2.615990	0.886321	-0.021381
 994	4.9650e-01	0.2968	1.011548	0.000284	2.835733	0.960772	-0.023177
 995	4.9700e-01	0.2535	0.905069	0.000261	2.605526	0.882776	-0.021296
 996	4.9750e-01	0.2182	0.789610	0.000283	2.825269	0.957227	-0.023092
 997	4.9800e-01	0.1572	0.679710	0.000269	2.689238	0.911138	-0.021980
 998	4.9850e-01	0.1219	0.579646	0.000245	2.448567	0.829597	-0.020013
 999	4.9900e-01	0.0963	0.466325	0.000277	2.772950	0.939501	-0.022664
1000	4.9950e-01	0.0561	0.368399	0.000240	2.396247	0.811870	-0.019585
1001	5.0000e-01	0.0578	0.219586	-0.000364	-3.641458	-1.233760	-0.029763
1002	5.0050e-01	-0.0305	0.151166	0.000167	1.674234	0.567246	-0.013684
1003	5.0100e-01	-0.0594	0.040411	0.000271	2.710166	0.918229	-0.022151
1004	5.0150e-01	-0.1139	-0.056233	0.000236	2.364855	0.801235	-0.019329
1005	5.0200e-01	-0.1428	-0.160146	0.000254	2.542743	0.861504	-0.020783
1006	5.0250e-01	-0.1877	-0.266624	0.000261	2.605526	0.882776	-0.021296
1007	5.0300e-01	-0.1941	-0.377379	0.000271	2.710166	0.918229	-0.022151
1008	5.0350e-01	-0.2535	-0.494121	0.000286	2.856661	0.967863	-0.023348
1009	5.0400e-01	-0.3096	-0.589054	0.000232	2.322999	0.787053	-0.018987
1010	5.0450e-01	-0.3577	-0.716914	0.000313	3.128724	1.060041	-0.025572
1011	5.0500e-01	-0.3995	-0.816550	0.000244	2.438103	0.826052	-0.019927
1012	5.0550e-01	-0.4155	-0.937568	0.000296	2.961301	1.003316	-0.024204
1013	5.0600e-01	-0.4749	-1.040198	0.000251	2.511351	0.850869	-0.020526
1014	5.0650e-01	-0.5358	-1.142401	0.000250	2.500887	0.847323	-0.020440
1015	5.0700e-01	-0.5278	-1.270261	-0.000313	-3.128724	-1.060041	-0.025572
1016	5.0750e-01	-0.5679	-1.370753	0.000246	2.459031	0.833142	-0.020098
1017	5.0800e-01	-0.6353	-1.484501	0.000278	2.783414	0.943046	-0.022750
1018	5.0850e-01	-0.6642	-1.572592	0.000216	2.155576	0.730329	-0.017618
1019	5.0900e-01	-0.7043	-1.698741	0.000309	3.086868	1.045859	-0.025230
1020	5.0950e-01	-0.7460	-1.798806	0.000245	2.448567	0.829597	-0.020013
1021	5.1000e-01	-0.7941	-1.905712	0.000262	2.615990	0.886321	-0.021381
1022	5.1050e-01	-0.8198	-2.031006	0.000307	3.065941	1.038769	-0.025059
1023	5.1100e-01	-0.8278	-2.127650	0.000236	2.364855	0.801235	-0.019329
1024	5.1150e-01	-0.8920	-2.238832	0.000272	2.720630	0.921774	-0.022237
1025	5.1200e-01	-0.9128	-2.351725	0.000276	2.762486	0.935955	-0.022579
1026	5.1250e-01	-0.9898	-2.435540	0.000205	2.050936	0.694876	-0.016763
1027	5.1300e-01	-1.0267	-2.571525	0.000333	3.327540	1.127401	-0.027197
1028	5.1350e-01	-1.0893	-2.668596	0.000238	2.375319	0.804780	-0.019414
1029	5.1400e-01	-1.1246	-2.770798	0.000250	2.500887	0.847323	-0.020440
1030	5.1450e-01	-1.1550	-2.868724	0.000240	2.396247	0.811870	-0.019585
1031	5.1500e-01	-1.1984	-2.980334	0.000273	2.731094	0.925320	-0.022322
1032	5.1550e-01	-1.2144	-3.109905	0.000317	3.170580	1.074222	-0.025914
1033	5.1600e-01	-1.2673	-3.208259	0.000241	2.406711	0.815416	-0.019671
1034	5.1650e-01	-1.3026	-3.302764	0.000231	2.312535	0.783508	-0.018901
1035	5.1700e-01	-1.3460	-3.400690	0.000240	2.396247	0.811870	-0.019585
1036	5.1750e-01	-1.3909	-3.505886	0.000257	2.574134	0.872140	-0.021039
1037	5.1800e-01	-1.4358	-3.623055	0.000287	2.867125	0.971408	-0.023434
1038	5.1850e-01	-1.4951	-3.719698	0.000236	2.364855	0.801235	-0.019329
1039	5.1900e-01	-1.5224	-3.812921	0.000228	2.281144	0.772872	-0.018644
1040	5.1950e-01	-1.5208	-3.948050	-0.000331	-3.306612	-1.120310	-0.027026
1041	5.2000e-01	-1.5786	-4.053246	0.000257	2.574134	0.872140	-0.021039
1042	5.2050e-01	-1.6106	-4.158870	0.000258	2.584598	0.875686	-0.021125
1043	5.2100e-01	-1.6844	-4.261072	0.000250	2.500887	0.847323	-0.020440
1044	5.2150e-01	-1.6860	-4.372255	0.000272	2.720630	0.921774	-0.022237
1045	5.2200e-01	-1.7310	-4.489852	0.000288	2.877589	0.974954	-0.023519
1046	5.2250e-01	-1.7807	-4.580936	0.000223	2.228824	0.755146	-0.018217
1047	5.2300e-01	-1.8529	-4.678007	0.000238	2.375319	0.804780	-0.019414
1048	5.2350e-01	-1.8641	-4.783203	0.000257	2.574134	0.872140	-0.021039
1049	5.2400e-01	-1.8930	-4.894813	0.000273	2.731094	0.925320	-0.022322
1050	5.2450e-01	-1.9283	-4.994022	0.000243	2.427639	0.822506	-0.019842
1051	5.2500e-01	-1.9652	-5.108625	0.000280	2.804342	0.950137	-0.022921
1052	5.2550e-01	-2.0390	-5.205269	0.000236	2.364855	0.801235	-0.019329
1053	5.2600e-01	-2.0470	-5.319445	0.000279	2.793878	0.946591	-0.022835
1054	5.2650e-01	-2.0999	-5.411384	0.000225	2.249752	0.762236	-0.018388
1055	5.2700e-01	-2.1802	-5.512731	0.000248	2.479959	0.840233	-0.020269
1056	5.2750e-01	-2.2106	-5.615789	0.000252	2.521815	0.854414	-0.020612
1057	5.2800e-01	-2.2267	-5.731675	0.000284	2.835733	0.960772	-0.023177
1058	5.2850e-01	-2.3069	-5.827036	0.000233	2.333463	0.790599	-0.019072
1059	5.2900e-01	-2.3117	-5.921969	0.000232	2.322999	0.787053	-0.018987
1060	5.2950e-01	-2.3566	-6.039138	0.000287	2.867125	0.971408	-0.023434
1061	5.3000e-01	-2.3887	-6.154597	0.000283	2.825269	0.957227	-0.023092
1062	5.3050e-01	-2.4144	-6.249530	0.000232	2.322999	0.787053	-0.018987
1063	5.3100e-01	-2.4689	-6.354298	0.000256	2.563670	0.868595	-0.020954
1064	5.3150e-01	-2.4866	-6.457355	0.000252	2.521815	0.854414	-0.020612
1065	5.3200e-01	-2.5491	-6.554426	0.000238	2.375319	0.804780	-0.019414
1066	5.3250e-01	-2.5796	-6.648076	0.000229	2.291607	0.776418	-0.018730
1067	5.3300e-01	-2.6085	-6.765246	0.000287	2.867125	0.971408	-0.023434
1068	5.3350e-01	-2.6694	-6.855902	0.000222	2.218360	0.751601	-0.018131
1069	5.3400e-01	-2.7063	-6.948697	0.000227	2.270680	0.769327	-0.018559
1070	5.3450e-01	-2.7561	-7.061162	0.000275	2.752022	0.932410	-0.022493
1071	5.3500e-01	-2.7753	-7.169352	0.000265	2.647382	0.896957	-0.021638
1072	5.3550e-01	-2.8186	-7.281389	0.000274	2.741558	0.928865	-0.022408
1073	5.3600e-01	-2.8908	-7.360928	0.000195	1.946297	0.659423	-0.015908
1074	5.3650e-01	-2.9502	-7.469544	0.000266	2.657846	0.900503	-0.021723
1075	5.3700e-01	-2.9438	-7.579017	-0.000268	-2.678774	-0.907593	-0.021894
1076	5.3750e-01	-2.9839	-7.679508	0.000246	2.459031	0.833142	-0.020098
1077	5.3800e-01	-3.0513	-7.743225	0.000156	1.559130	0.528248	-0.012743
1078	5.3850e-01	-3.0673	-7.880065	0.000335	3.348468	1.134492	-0.027368
1079	5.3900e-01	-3.1106	-7.985261	0.000257	2.574134	0.872140	-0.021039
1080	5.3950e-01	-3.1571	-8.077200	0.000225	2.249752	0.762236	-0.018388
1081	5.4000e-01	-3.1716	-8.190521	0.000277	2.772950	0.939501	-0.022664
1082	5.4050e-01	-3.1972	-8.288875	0.000241	2.406711	0.815416	-0.019671
1083	5.4100e-01	-3.2726	-8.370979	0.000201	2.009081	0.680695	-0.016421
1084	5.4150e-01	-3.3079	-8.476174	0.000257	2.574134	0.872140	-0.021039
1085	5.4200e-01	-3.3336	-8.567686	0.000224	2.239288	0.758691	-0.018302
1086	5.4250e-01	-3.4026	-8.669889	0.000250	2.500887	0.847323	-0.020440
1087	5.4300e-01	-3.4266	-8.762683	0.000227	2.270680	0.769327	-0.018559
1088	5.4350e-01	-3.4796	-8.886267	0.000302	3.024085	1.024588	-0.024717
1089	5.4400e-01	-3.4988	-8.991463	0.000257	2.574134	0.872140	-0.021039
1090	5.4450e-01	-3.5309	-9.082547	0.000223	2.228824	0.755146	-0.018217
1091	5.4500e-01	-3.5710	-9.199716	0.000287	2.867125	0.971408	-0.023434
1092	5.4550e-01	-3.6368	-9.270702	0.000174	1.737018	0.588517	-0.014197
1093	5.4600e-01	-3.6849	-9.366063	0.000233	2.333463	0.790599	-0.019072
1094	5.4650e-01	-3.6721	-9.497344	-0.000321	-3.212436	-1.088403	-0.026256
1095	5.4700e-01	-3.7651	-9.562770	0.000160	1.600986	0.542429	-0.013085
1096	5.4750e-01	-3.7812	-9.658558	0.000234	2.343927	0.794144	-0.019158
1097	5.4800e-01	-3.8165	-9.757767	0.000243	2.427639	0.822506	-0.019842
1098	5.4850e-01	-3.8502	-9.869378	0.000273	2.731094	0.925320	-0.022322
1099	5.4900e-01	-3.9384	-9.954047	0.000207	2.071864	0.701967	-0.016934
1100	5.4950e-01	-3.9544	-10.072927	0.000291	2.908981	0.985589	-0.023776
1101	5.5000e-01	-3.9961	-10.162301	0.000219	2.186968	0.740965	-0.017875
1102	5.5050e-01	-4.0042	-10.253385	0.000223	2.228824	0.755146	-0.018217
1103	5.5100e-01	-4.0908	-10.356015	0.000251	2.511351	0.850869	-0.020526
1104	5.5150e-01	-4.1341	-10.443678	0.000215	2.145112	0.726784	-0.017533
1105	5.5200e-01	-4.1662	-10.538611	0.000232	2.322999	0.787053	-0.018987
1106	5.5250e-01	-4.1967	-10.640386	0.000249	2.490423	0.843778	-0.020355
1107	5.5300e-01	-4.2320	-10.749430	0.000267	2.668310	0.904048	-0.021809
1108	5.5350e-01	-4.2400	-10.851633	0.000250	2.500887	0.847323	-0.020440
1109	5.5400e-01	-4.3074	-10.919198	0.000165	1.653306	0.560155	-0.013513
1110	5.5450e-01	-4.3459	-11.019262	0.000245	2.448567	0.829597	-0.020013
1111	5.5500e-01	-4.3394	-11.138142	-0.000291	-2.908981	-0.985589	-0.023776
1112	5.5550e-01	-4.3972	-11.232647	0.000231	2.312535	0.783508	-0.018901
1113	5.5600e-01	-4.4662	-11.310475	0.000190	1.904441	0.645242	-0.015566
1114	5.5650e-01	-4.4758	-11.414815	0.000255	2.553206	0.865050	-0.020868
1115	5.5700e-01	-4.5352	-11.514452	0.000244	2.438103	0.826052	-0.019927
1116	5.5750e-01	-4.5833	-11.609385	0.000232	2.322999	0.787053	-0.018987
1117	5.5800e-01	-4.6218	-11.719712	0.000270	2.699702	0.914684	-0.022065
1118	5.5850e-01	-4.6972	-11.791553	0.000176	1.757945	0.595608	-0.014368
1119	5.5900e-01	-4.7004	-11.894611	0.000252	2.521815	0.854414	-0.020612
1120	5.5950e-01	-4.7309	-12.004083	0.000268	2.678774	0.907593	-0.021894
1121	5.6000e-01	-4.8143	-12.077207	0.000179	1.789337	0.606244	-0.014625
1122	5.6050e-01	-4.8512	-12.184541	0.000263	2.626454	0.889867	-0.021467
1123	5.6100e-01	-4.8560	-12.279474	0.000232	2.322999	0.787053	-0.018987
1124	5.6150e-01	-4.8945	-12.367564	0.000216	2.155576	0.730329	-0.017618
1125	5.6200e-01	-4.9475	-12.468912	0.000248	2.479959	0.840233	-0.020269
1126	5.6250e-01	-4.9988	-12.553581	0.000207	2.071864	0.701967	-0.016934
1127	5.6300e-01	-5.0245	-12.645948	0.000226	2.260216	0.765782	-0.018473
1128	5.6350e-01	-5.0517	-12.737888	0.000225	2.249752	0.762236	-0.018388
1129	5.6400e-01	-5.1111	-12.835386	0.000239	2.385783	0.808325	-0.019500
1130	5.6450e-01	-5.1368	-12.951701	0.000285	2.846197	0.964318	-0.023263
1131	5.6500e-01	-5.1881	-13.022686	0.000174	1.737018	0.588517	-0.014197
1132	5.6550e-01	-5.2507	-13.117619	0.000232	2.322999	0.787053	-0.018987
1133	5.6600e-01	-5.2699	-13.233078	0.000283	2.825269	0.957227	-0.023092
1134	5.6650e-01	-5.3084	-13.307485	0.000182	1.820729	0.616880	-0.014881
1135	5.6700e-01	-5.3228	-13.412681	0.000257	2.574134	0.872140	-0.021039
1136	5.6750e-01	-5.4031	-13.499916	0.000213	2.134648	0.723238	-0.017447
1137	5.6800e-01	-5.4303	-13.582448	0.000202	2.019544	0.684240	-0.016506
1138	5.6850e-01	-5.4704	-13.664124	0.000200	1.998617	0.677150	-0.016335
1139	5.6900e-01	-5.5186	-13.753070	0.000218	2.176504	0.737419	-0.017789
1140	5.6950e-01	-5.5426	-13.856983	0.000254	2.542743	0.861504	-0.020783
1141	5.7000e-01	-5.5763	-13.955765	0.000242	2.417175	0.818961	-0.019756
1142	5.7050e-01	-5.6228	-14.039579	0.000205	2.050936	0.694876	-0.016763
1143	5.7100e-01	-5.6806	-14.126387	0.000212	2.124184	0.719693	-0.017362
1144	5.7150e-01	-5.7143	-14.224313	0.000240	2.396247	0.811870	-0.019585
1145	5.7200e-01	-5.7592	-14.313687	0.000219	2.186968	0.740965	-0.017875
1146	5.7250e-01	-5.7849	-14.432994	0.000292	2.919445	0.989135	-0.023861
1147	5.7300e-01	-5.8218	-14.510822	0.000190	1.904441	0.645242	-0.015566
1148	5.7350e-01	-5.8779	-14.590361	0.000195	1.946297	0.659423	-0.015908
1149	5.7400e-01	-5.8891	-14.715227	0.000306	3.055477	1.035224	-0.024973
1150	5.7450e-01	-5.9581	-14.791772	0.000187	1.873049	0.634606	-0.015309
1151	5.7500e-01	-6.0014	-14.882429	0.000222	2.218360	0.751601	-0.018131
1152	5.7550e-01	-6.0255	-14.964105	0.000200	1.998617	0.677150	-0.016335
1153	5.7600e-01	-6.0752	-15.066307	0.000250	2.500887	0.847323	-0.020440
1154	5.7650e-01	-6.1234	-15.156964	0.000222	2.218360	0.751601	-0.018131
1155	5.7700e-01	-6.1250	-15.258311	0.000248	2.479959	0.840233	-0.020269
1156	5.7750e-01	-6.1779	-15.337850	0.000195	1.946297	0.659423	-0.015908
1157	5.7800e-01	-6.2421	-15.423375	0.000209	2.092792	0.709057	-0.017105
1158	5.7850e-01	-6.2726	-15.520446	0.000238	2.375319	0.804780	-0.019414
1159	5.7900e-01	-6.3046	-15.600411	0.000196	1.956761	0.662968	-0.015993
1160	5.7950e-01	-6.3319	-15.708173	0.000264	2.636918	0.893412	-0.021552
1161	5.8000e-01	-6.3993	-15.791988	0.000205	2.050936	0.694876	-0.016763
1162	5.8050e-01	-6.4378	-15.880078	0.000216	2.155576	0.730329	-0.017618
1163	5.8100e-01	-6.4410	-16.014780	0.000330	3.296148	1.116765	-0.026940
1164	5.8150e-01	-6.5148	-16.069089	0.000133	1.328923	0.450251	-0.010862
1165	5.8200e-01	-6.5405	-16.151193	0.000201	2.009081	0.680695	-0.016421
1166	5.8250e-01	-6.6030	-16.240566	0.000219	2.186968	0.740965	-0.017875
1167	5.8300e-01	-6.6511	-16.331651	0.000223	2.228824	0.755146	-0.018217
1168	5.8350e-01	-6.6929	-16.423162	0.000224	2.239288	0.758691	-0.018302
1169	5.8400e-01	-6.6961	-16.495004	0.000176	1.757945	0.595608	-0.014368
1170	5.8450e-01	-6.7522	-16.594640	0.000244	2.438103	0.826052	-0.019927
1171	5.8500e-01	-6.7731	-16.703257	0.000266	2.657846	0.900503	-0.021723
1172	5.8550e-01	-6.7875	-16.787072	0.000205	2.050936	0.694876	-0.016763
1173	5.8600e-01	-6.8421	-16.868320	0.000199	1.988153	0.673604	-0.016250
1174	5.8650e-01	-6.9158	-16.952135	0.000205	2.050936	0.694876	-0.016763
1175	5.8700e-01	-6.9704	-17.044502	0.000226	2.260216	0.765782	-0.018473
1176	5.8750e-01	-6.9848	-17.141145	0.000236	2.364855	0.801235	-0.019329
1177	5.8800e-01	-7.0169	-17.237789	0.000236	2.364855	0.801235	-0.019329
1178	5.8850e-01	-7.0795	-17.313906	0.000186	1.862585	0.631061	-0.015223
1179	5.8900e-01	-7.1180	-17.412687	0.000242	2.417175	0.818961	-0.019756
1180	5.8950e-01	-7.1693	-17.488805	0.000186	1.862585	0.631061	-0.015223
1181	5.9000e-01	-7.1998	-17.600415	0.000273	2.731094	0.925320	-0.022322
1182	5.9050e-01	-7.2239	-17.684657	0.000206	2.061400	0.698421	-0.016848
1183	5.9100e-01	-7.2319	-17.788570	0.000254	2.542743	0.861504	-0.020783
1184	5.9150e-01	-7.2977	-17.869819	0.000199	1.988153	0.673604	-0.016250
1185	5.9200e-01	-7.3474	-17.934818	0.000159	1.590522	0.538883	-0.013000
1186	5.9250e-01	-7.3939	-18.022909	0.000216	2.155576	0.730329	-0.017618
1187	5.9300e-01	-7.4292	-18.120835	0.000240	2.396247	0.811870	-0.019585
1188	5.9350e-01	-7.4228	-18.215340	-0.000231	-2.312535	-0.783508	-0.018901
1189	5.9400e-01	-7.5158	-18.279484	0.000157	1.569594	0.531793	-0.012829
1190	5.9450e-01	-7.5415	-18.393232	0.000278	2.783414	0.943046	-0.022750
1191	5.9500e-01	-7.5752	-18.489020	0.000234	2.343927	0.794144	-0.019158
1192	5.9550e-01	-7.6345	-18.562999	0.000181	1.810265	0.613334	-0.014796
1193	5.9600e-01	-7.6666	-18.664774	0.000249	2.490423	0.843778	-0.020355
1194	5.9650e-01	-7.7276	-18.742602	0.000190	1.904441	0.645242	-0.015566
1195	5.9700e-01	-7.7452	-18.825561	0.000203	2.030008	0.687785	-0.016592
1196	5.9750e-01	-7.8110	-18.919211	0.000229	2.291607	0.776418	-0.018730
1197	5.9800e-01	-7.8431	-18.998750	0.000195	1.946297	0.659423	-0.015908
1198	5.9850e-01	-7.8944	-19.085130	0.000211	2.113720	0.716148	-0.017276
1199	5.9900e-01	-7.8784	-19.171510	-0.000211	-2.113720	-0.716148	-0.017276
1200	5.9950e-01	-7.9377	-19.253187	0.000200	1.998617	0.677150	-0.016335
1201	6.0000e-01	-7.9859	-19.343415	0.000221	2.207896	0.748055	-0.018046
1202	6.0050e-01	-8.0099	-19.420816	0.000189	1.893977	0.641697	-0.015480
1203	6.0100e-01	-8.0613	-19.534564	0.000278	2.783414	0.943046	-0.022750
1204	6.0150e-01	-8.1142	-19.603412	0.000168	1.684698	0.570791	-0.013770
1205	6.0200e-01	-8.1415	-19.695351	0.000225	2.249752	0.762236	-0.018388
1206	6.0250e-01	-8.1992	-19.781731	0.000211	2.113720	0.716148	-0.017276
1207	6.0300e-01	-8.2377	-19.856566	0.000183	1.831193	0.620425	-0.014967
1208	6.0350e-01	-8.2570	-19.960906	0.000255	2.553206	0.865050	-0.020868
1209	6.0400e-01	-8.2891	-20.051991	0.000223	2.228824	0.755146	-0.018217
1210	6.0450e-01	-8.3212	-20.137516	0.000209	2.092792	0.709057	-0.017105
1211	6.0500e-01	-8.4078	-20.200804	0.000155	1.548666	0.524702	-0.012658
1212	6.0550e-01	-8.4206	-20.298303	0.000239	2.385783	0.808325	-0.019500
1213	6.0600e-01	-8.4687	-20.379979	0.000200	1.998617	0.677150	-0.016335
1214	6.0650e-01	-8.5377	-20.470636	0.000222	2.218360	0.751601	-0.018131
1215	6.0700e-01	-8.5345	-20.557444	-0.000212	-2.124184	-0.719693	-0.017362
1216	6.0750e-01	-8.5810	-20.646390	0.000218	2.176504	0.737419	-0.017789
1217	6.0800e-01	-8.6324	-20.729349	0.000203	2.030008	0.687785	-0.016592
1218	6.0850e-01	-8.6404	-20.808032	0.000193	1.925369	0.652333	-0.015737
1219	6.0900e-01	-8.6885	-20.901682	0.000229	2.291607	0.776418	-0.018730
1220	6.0950e-01	-8.7495	-20.978227	0.000187	1.873049	0.634606	-0.015309
1221	6.1000e-01	-8.7928	-21.068028	0.000220	2.197432	0.744510	-0.017960
1222	6.1050e-01	-8.8441	-21.140725	0.000178	1.778873	0.602699	-0.014539
1223	6.1100e-01	-8.8746	-21.246348	0.000258	2.584598	0.875686	-0.021125
1224	6.1150e-01	-8.8746	-21.358386	0.000274	2.741558	0.928865	-0.022408
1225	6.1200e-01	-8.9468	-21.425523	0.000164	1.642842	0.556610	-0.013427
1226	6.1250e-01	-9.0110	-21.493515	0.000166	1.663770	0.563700	-0.013598
1227	6.1300e-01	-9.0559	-21.581179	0.000215	2.145112	0.726784	-0.017533
1228	6.1350e-01	-9.0896	-21.661144	0.000196	1.956761	0.662968	-0.015993
1229	6.1400e-01	-9.1008	-21.754367	0.000228	2.281144	0.772872	-0.018644
1230	6.1450e-01	-9.1393	-21.828346	0.000181	1.810265	0.613334	-0.014796
1231	6.1500e-01	-9.2019	-21.925845	0.000239	2.385783	0.808325	-0.019500
1232	6.1550e-01	-9.2324	-22.004955	0.000194	1.935833	0.655878	-0.015822
1233	6.1600e-01	-9.2917	-22.096039	0.000223	2.228824	0.755146	-0.018217
1234	6.1650e-01	-9.3190	-22.185413	0.000219	2.186968	0.740965	-0.017875
1235	6.1700e-01	-9.3703	-22.270083	0.000207	2.071864	0.701967	-0.016934
1236	6.1750e-01	-9.4120	-22.333799	0.000156	1.559130	0.528248	-0.012743
1237	6.1800e-01	-9.4201	-22.435574	0.000249	2.490423	0.843778	-0.020355
1238	6.1850e-01	-9.4377	-22.536493	0.000247	2.469495	0.836687	-0.020184
1239	6.1900e-01	-9.5163	-22.595933	0.000145	1.454491	0.492795	-0.011888
1240	6.1950e-01	-9.5468	-22.695142	0.000243	2.427639	0.822506	-0.019842
1241	6.2000e-01	-9.5869	-22.763990	0.000168	1.684698	0.570791	-0.013770
1242	6.2050e-01	-9.6270	-22.849087	0.000208	2.082328	0.705512	-0.017019
1243	6.2100e-01	-9.6703	-22.950862	0.000249	2.490423	0.843778	-0.020355
1244	6.2150e-01	-9.7168	-23.032539	0.000200	1.998617	0.677150	-0.016335
1245	6.2200e-01	-9.7425	-23.107373	0.000183	1.831193	0.620425	-0.014967
1246	6.2250e-01	-9.7794	-23.188622	0.000199	1.988153	0.673604	-0.016250
1247	6.2300e-01	-9.8211	-23.289114	0.000246	2.459031	0.833142	-0.020098
1248	6.2350e-01	-9.8869	-23.352830	0.000156	1.559130	0.528248	-0.012743
1249	6.2400e-01	-9.8933	-23.427237	0.000182	1.820729	0.616880	-0.014881
1250	6.2450e-01	-9.9142	-23.536709	0.000268	2.678774	0.907593	-0.021894
1251	6.2500e-01	-10.0152	-23.605557	0.000168	1.684698	0.570791	-0.013770
1252	6.2550e-01	-10.0441	-23.680391	0.000183	1.831193	0.620425	-0.014967
1253	6.2600e-01	-10.0601	-23.765916	0.000209	2.092792	0.709057	-0.017105
1254	6.2650e-01	-10.0986	-23.858711	0.000227	2.270680	0.769327	-0.018559
1255	6.2700e-01	-10.1291	-23.928841	0.000172	1.716090	0.581427	-0.014026
1256	6.2750e-01	-10.2013	-24.019925	0.000223	2.228824	0.755146	-0.018217
1257	6.2800e-01	-10.2494	-24.099036	0.000194	1.935833	0.655878	-0.015822
1258	6.2850e-01	-10.2543	-24.196535	0.000239	2.385783	0.808325	-0.019500
1259	6.2900e-01	-10.2992	-24.269659	0.000179	1.789337	0.606244	-0.014625
1260	6.2950e-01	-10.3633	-24.356039	0.000211	2.113720	0.716148	-0.017276
1261	6.3000e-01	-10.3649	-24.433867	0.000190	1.904441	0.645242	-0.015566
1262	6.3050e-01	-10.4099	-24.509556	0.000185	1.852121	0.627516	-0.015138
1263	6.3100e-01	-10.4612	-24.611331	0.000249	2.490423	0.843778	-0.020355
1264	6.3150e-01	-10.5029	-24.689587	0.000191	1.914905	0.648787	-0.015651
1265	6.3200e-01	-10.5398	-24.755441	0.000161	1.611450	0.545974	-0.013171
1266	6.3250e-01	-10.6040	-24.843532	0.000216	2.155576	0.730329	-0.017618
1267	6.3300e-01	-10.6617	-24.923498	0.000196	1.956761	0.662968	-0.015993
1268	6.3350e-01	-10.7002	-24.999615	0.000186	1.862585	0.631061	-0.015223
1269	6.3400e-01	-10.7259	-25.087706	0.000216	2.155576	0.730329	-0.017618
1270	6.3450e-01	-10.7291	-25.172376	0.000207	2.071864	0.701967	-0.016934
1271	6.3500e-01	-10.7869	-25.267308	0.000232	2.322999	0.787053	-0.018987
1272	6.3550e-01	-10.8125	-25.329314	0.000152	1.517274	0.514066	-0.012401
1273	6.3600e-01	-10.8655	-25.415694	0.000211	2.113720	0.716148	-0.017276
1274	6.3650e-01	-10.8992	-25.491812	0.000186	1.862585	0.631061	-0.015223
1275	6.3700e-01	-10.9457	-25.593587	0.000249	2.490423	0.843778	-0.020355
1276	6.3750e-01	-10.9746	-25.665000	0.000175	1.747481	0.592063	-0.014283
1277	6.3800e-01	-11.0419	-25.751380	0.000211	2.113720	0.716148	-0.017276
1278	6.3850e-01	-11.0724	-25.824504	0.000179	1.789337	0.606244	-0.014625
1279	6.3900e-01	-11.1414	-25.906608	0.000201	2.009081	0.680695	-0.016421
1280	6.3950e-01	-11.1590	-26.001541	0.000232	2.322999	0.787053	-0.018987
1281	6.4000e-01	-11.2008	-26.062691	0.000150	1.496346	0.506976	-0.012230
1282	6.4050e-01	-11.2393	-26.158052	0.000233	2.333463	0.790599	-0.019072
1283	6.4100e-01	-11.2858	-26.227755	0.000171	1.705626	0.577882	-0.013941
1284	6.4150e-01	-11.3355	-26.314135	0.000211	2.113720	0.716148	-0.017276
1285	6.4200e-01	-11.3628	-26.401798	0.000215	2.145112	0.726784	-0.017533
1286	6.4250e-01	-11.3836	-26.493310	0.000224	2.239288	0.758691	-0.018302
1287	6.4300e-01	-11.4622	-26.532224	0.000095	0.952220	0.322621	-0.007783
1288	6.4350e-01	-11.4318	-26.648110	-0.000284	-2.835733	-0.960772	-0.023177
1289	6.4400e-01	-11.4847	-26.714392	0.000162	1.621914	0.549519	-0.013256
1290	6.4450e-01	-11.5521	-26.804621	0.000221	2.207896	0.748055	-0.018046
1291	6.4500e-01	-11.5794	-26.879028	0.000182	1.820729	0.616880	-0.014881
1292	6.4550e-01	-11.6435	-26.968402	0.000219	2.186968	0.740965	-0.017875
1293	6.4600e-01	-11.6756	-27.031263	0.000154	1.538202	0.521157	-0.012572
1294	6.4650e-01	-11.6740	-27.128334	-0.000238	-2.375319	-0.804780	-0.019414
1295	6.4700e-01	-11.7189	-27.197609	0.000170	1.695162	0.574336	-0.013855
1296	6.4750e-01	-11.7895	-27.291259	0.000229	2.291607	0.776418	-0.018730
1297	6.4800e-01	-11.8072	-27.362245	0.000174	1.737018	0.588517	-0.014197
1298	6.4850e-01	-11.8858	-27.439645	0.000189	1.893977	0.641697	-0.015480
1299	6.4900e-01	-11.9162	-27.527736	0.000216	2.155576	0.730329	-0.017618
1300	6.4950e-01	-11.9724	-27.596156	0.000167	1.674234	0.567246	-0.013684
1301	6.5000e-01	-12.0334	-27.663293	0.000164	1.642842	0.556610	-0.013427
1302	6.5050e-01	-12.0237	-27.754377	-0.000223	-2.228824	-0.755146	-0.018217
1303	6.5100e-01	-12.0590	-27.832632	0.000191	1.914905	0.648787	-0.015651
1304	6.5150e-01	-12.1168	-27.910888	0.000191	1.914905	0.648787	-0.015651
1305	6.5200e-01	-12.1312	-28.007959	0.000238	2.375319	0.804780	-0.019414
1306	6.5250e-01	-12.2082	-28.080655	0.000178	1.778873	0.602699	-0.014539
1307	6.5300e-01	-12.2467	-28.139667	0.000144	1.444027	0.489249	-0.011802
1308	6.5350e-01	-12.2756	-28.226903	0.000213	2.134648	0.723238	-0.017447
1309	6.5400e-01	-12.3093	-28.331244	0.000255	2.553206	0.865050	-0.020868
1310	6.5450e-01	-12.3574	-28.385124	0.000132	1.318459	0.446706	-0.010776
1311	6.5500e-01	-12.3991	-28.465518	0.000197	1.967225	0.666514	-0.016079
1312	6.5550e-01	-12.4152	-28.553181	0.000215	2.145112	0.726784	-0.017533
1313	6.5600e-01	-12.4537	-28.627160	0.000181	1.810265	0.613334	-0.014796
1314	6.5650e-01	-12.5194	-28.709692	0.000202	2.019544	0.684240	-0.016506
1315	6.5700e-01	-12.5307	-28.774691	0.000159	1.590522	0.538883	-0.013000
1316	6.5750e-01	-12.5836	-28.873900	0.000243	2.427639	0.822506	-0.019842
1317	6.5800e-01	-12.6157	-28.939327	0.000160	1.600986	0.542429	-0.013085
1318	6.5850e-01	-12.6766	-29.029983	0.000222	2.218360	0.751601	-0.018131
1319	6.5900e-01	-12.7232	-29.091561	0.000151	1.506810	0.510521	-0.012316
1320	6.5950e-01	-12.7585	-29.188632	0.000238	2.375319	0.804780	-0.019414
1321	6.6000e-01	-12.8002	-29.245934	0.000140	1.402171	0.475068	-0.011460
1322	6.6050e-01	-12.8098	-29.349847	0.000254	2.542743	0.861504	-0.020783
1323	6.6100e-01	-12.8595	-29.414846	0.000159	1.590522	0.538883	-0.013000
1324	6.6150e-01	-12.8868	-29.529022	0.000279	2.793878	0.946591	-0.022835
1325	6.6200e-01	-12.9349	-29.578199	0.000120	1.203356	0.407708	-0.009835
1326	6.6250e-01	-12.9847	-29.644908	0.000163	1.632378	0.553065	-0.013342
1327	6.6300e-01	-13.0376	-29.720598	0.000185	1.852121	0.627516	-0.015138
1328	6.6350e-01	-13.0857	-29.783459	0.000154	1.538202	0.521157	-0.012572
1329	6.6400e-01	-13.1371	-29.888227	0.000256	2.563670	0.868595	-0.020954
1330	6.6450e-01	-13.1451	-29.967765	0.000195	1.946297	0.659423	-0.015908
1331	6.6500e-01	-13.1964	-30.037041	0.000170	1.695162	0.574336	-0.013855
1332	6.6550e-01	-13.2221	-30.108882	0.000176	1.757945	0.595608	-0.014368
1333	6.6600e-01	-13.2590	-30.190131	0.000199	1.988153	0.673604	-0.016250
1334	6.6650e-01	-13.3183	-30.252991	0.000154	1.538202	0.521157	-0.012572
1335	6.6700e-01	-13.3408	-30.350062	0.000238	2.375319	0.804780	-0.019414
1336	6.6750e-01	-13.3889	-30.413351	0.000155	1.548666	0.524702	-0.012658
1337	6.6800e-01	-13.4194	-30.485620	0.000177	1.768409	0.599153	-0.014454
1338	6.6850e-01	-13.4740	-30.578842	0.000228	2.281144	0.772872	-0.018644
1339	6.6900e-01	-13.4996	-30.654104	0.000184	1.841657	0.623970	-0.015052
1340	6.6950e-01	-13.5333	-30.740484	0.000211	2.113720	0.716148	-0.017276
1341	6.7000e-01	-13.5846	-30.802490	0.000152	1.517274	0.514066	-0.012401
1342	6.7050e-01	-13.6488	-30.890153	0.000215	2.145112	0.726784	-0.017533
1343	6.7100e-01	-13.6889	-30.939758	0.000121	1.213819	0.411253	-0.009921
1344	6.7150e-01	-13.6969	-31.033408	0.000229	2.291607	0.776418	-0.018730
1345	6.7200e-01	-13.7788	-31.102255	0.000168	1.684698	0.570791	-0.013770
1346	6.7250e-01	-13.7836	-31.195050	0.000227	2.270680	0.769327	-0.018559
1347	6.7300e-01	-13.8493	-31.268174	0.000179	1.789337	0.606244	-0.014625
1348	6.7350e-01	-13.8606	-31.349850	0.000200	1.998617	0.677150	-0.016335
1349	6.7400e-01	-13.8894	-31.419126	0.000170	1.695162	0.574336	-0.013855
1350	6.7450e-01	-13.9247	-31.494388	0.000184	1.841657	0.623970	-0.015052
1351	6.7500e-01	-13.9969	-31.573926	0.000195	1.946297	0.659423	-0.015908
1352	6.7550e-01	-14.0354	-31.641491	0.000165	1.653306	0.560155	-0.013513
1353	6.7600e-01	-14.0771	-31.701786	0.000148	1.475419	0.499885	-0.012059
1354	6.7650e-01	-14.1253	-31.803988	0.000250	2.500887	0.847323	-0.020440
1355	6.7700e-01	-14.1541	-31.879250	0.000184	1.841657	0.623970	-0.015052
1356	6.7750e-01	-14.1702	-31.962637	0.000204	2.040472	0.691331	-0.016677
1357	6.7800e-01	-14.2295	-32.028492	0.000161	1.611450	0.545974	-0.013171
1358	6.7850e-01	-14.2729	-32.111879	0.000204	2.040472	0.691331	-0.016677
1359	6.7900e-01	-14.3370	-32.182864	0.000174	1.737018	0.588517	-0.014197
1360	6.7950e-01	-14.3418	-32.250429	0.000165	1.653306	0.560155	-0.013513
1361	6.8000e-01	-14.4060	-32.328257	0.000190	1.904441	0.645242	-0.015566
1362	6.8050e-01	-14.4622	-32.393256	0.000159	1.590522	0.538883	-0.013000
1363	6.8100e-01	-14.4477	-32.479209	-0.000210	-2.103256	-0.712602	-0.017191
1364	6.8150e-01	-14.5071	-32.562596	0.000204	2.040472	0.691331	-0.016677
1365	6.8200e-01	-14.5488	-32.627595	0.000159	1.590522	0.538883	-0.013000
1366	6.8250e-01	-14.5985	-32.696442	0.000168	1.684698	0.570791	-0.013770
1367	6.8300e-01	-14.6226	-32.773415	0.000188	1.883513	0.638151	-0.015395
1368	6.8350e-01	-14.6803	-32.849532	0.000186	1.862585	0.631061	-0.015223
1369	6.8400e-01	-14.7028	-32.934202	0.000207	2.071864	0.701967	-0.016934
1370	6.8450e-01	-14.7220	-32.989366	0.000135	1.349851	0.457342	-0.011033
1371	6.8500e-01	-14.7766	-33.084298	0.000232	2.322999	0.787053	-0.018987
1372	6.8550e-01	-14.8504	-33.143311	0.000144	1.444027	0.489249	-0.011802
1373	6.8600e-01	-14.8616	-33.250645	0.000263	2.626454	0.889867	-0.021467
1374	6.8650e-01	-14.9162	-33.325051	0.000182	1.820729	0.616880	-0.014881
1375	6.8700e-01	-14.9675	-33.384491	0.000145	1.454491	0.492795	-0.011888
1376	6.8750e-01	-15.0060	-33.441366	0.000139	1.391707	0.471523	-0.011375
1377	6.8800e-01	-15.0349	-33.528601	0.000213	2.134648	0.723238	-0.017447
1378	6.8850e-01	-15.0637	-33.620968	0.000226	2.260216	0.765782	-0.018473
1379	6.8900e-01	-15.1151	-33.670145	0.000120	1.203356	0.407708	-0.009835
1380	6.8950e-01	-15.1584	-33.757808	0.000215	2.145112	0.726784	-0.017533
1381	6.9000e-01	-15.1953	-33.828794	0.000174	1.737018	0.588517	-0.014197
1382	6.9050e-01	-15.2194	-33.908332	0.000195	1.946297	0.659423	-0.015908
1383	6.9100e-01	-15.2819	-33.986588	0.000191	1.914905	0.648787	-0.015651
1384	6.9150e-01	-15.2723	-34.063560	-0.000188	-1.883513	-0.638151	-0.015395
1385	6.9200e-01	-15.3381	-34.125994	0.000153	1.527738	0.517612	-0.012487
1386	6.9250e-01	-15.3718	-34.212802	0.000212	2.124184	0.719693	-0.017362
1387	6.9300e-01	-15.4279	-34.285070	0.000177	1.768409	0.599153	-0.014454
1388	6.9350e-01	-15.4760	-34.341089	0.000137	1.370779	0.464432	-0.011204
1389	6.9400e-01	-15.5129	-34.430890	0.000220	2.197432	0.744510	-0.017960
1390	6.9450e-01	-15.5627	-34.518554	0.000215	2.145112	0.726784	-0.017533
1391	6.9500e-01	-15.5643	-34.598092	0.000195	1.946297	0.659423	-0.015908
1392	6.9550e-01	-15.6284	-34.665229	0.000164	1.642842	0.556610	-0.013427
1393	6.9600e-01	-15.6653	-34.726379	0.000150	1.496346	0.506976	-0.012230
1394	6.9650e-01	-15.7119	-34.801642	0.000184	1.841657	0.623970	-0.015052
1395	6.9700e-01	-15.7760	-34.864930	0.000155	1.548666	0.524702	-0.012658
1396	6.9750e-01	-15.7953	-34.935488	0.000173	1.726554	0.584972	-0.014112
1397	6.9800e-01	-15.8354	-35.036408	0.000247	2.469495	0.836687	-0.020184
1398	6.9850e-01	-15.8675	-35.094565	0.000142	1.423099	0.482159	-0.011631
1399	6.9900e-01	-15.9220	-35.170255	0.000185	1.852121	0.627516	-0.015138
1400	6.9950e-01	-15.9589	-35.245944	0.000185	1.852121	0.627516	-0.015138
1401	7.0000e-01	-15.9974	-35.323344	0.000189	1.893977	0.641697	-0.015480
1402	7.0050e-01	-16.0311	-35.391764	0.000167	1.674234	0.567246	-0.013684
1403	7.0100e-01	-16.0921	-35.462750	0.000174	1.737018	0.588517	-0.014197
1404	7.0150e-01	-16.1241	-35.542289	0.000195	1.946297	0.659423	-0.015908
1405	7.0200e-01	-16.1466	-35.635083	0.000227	2.270680	0.769327	-0.018559
1406	7.0250e-01	-16.2011	-35.679129	0.000108	1.077788	0.365164	-0.008809
1407	7.0300e-01	-16.2396	-35.762516	0.000204	2.040472	0.691331	-0.016677
1408	7.0350e-01	-16.3070	-35.803995	0.000102	1.015004	0.343893	-0.008296
1409	7.0400e-01	-16.3038	-35.899783	-0.000234	-2.343927	-0.794144	-0.019158
1410	7.0450e-01	-16.3279	-35.976328	0.000187	1.873049	0.634606	-0.015309
1411	7.0500e-01	-16.3808	-36.052445	0.000186	1.862585	0.631061	-0.015223
1412	7.0550e-01	-16.4017	-36.137115	0.000207	2.071864	0.701967	-0.016934
1413	7.0600e-01	-16.4931	-36.177740	0.000099	0.994076	0.336802	-0.008125
1414	7.0650e-01	-16.5252	-36.276949	0.000243	2.427639	0.822506	-0.019842
1415	7.0700e-01	-16.5316	-36.347935	0.000174	1.737018	0.588517	-0.014197
1416	7.0750e-01	-16.5926	-36.416782	0.000168	1.684698	0.570791	-0.013770
1417	7.0800e-01	-16.6648	-36.487768	0.000174	1.737018	0.588517	-0.014197
1418	7.0850e-01	-16.6503	-36.551057	-0.000155	-1.548666	-0.524702	-0.012658
1419	7.0900e-01	-16.6969	-36.636154	0.000208	2.082328	0.705512	-0.017019
1420	7.0950e-01	-16.7370	-36.719541	0.000204	2.040472	0.691331	-0.016677
1421	7.1000e-01	-16.7851	-36.780264	0.000149	1.485882	0.503431	-0.012145
1422	7.1050e-01	-16.8108	-36.853815	0.000180	1.799801	0.609789	-0.014710
1423	7.1100e-01	-16.8669	-36.914966	0.000150	1.496346	0.506976	-0.012230
1424	7.1150e-01	-16.8878	-36.998353	0.000204	2.040472	0.691331	-0.016677
1425	7.1200e-01	-16.9423	-37.060358	0.000152	1.517274	0.514066	-0.012401
1426	7.1250e-01	-16.9952	-37.131344	0.000174	1.737018	0.588517	-0.014197
1427	7.1300e-01	-17.0225	-37.217724	0.000211	2.113720	0.716148	-0.017276
1428	7.1350e-01	-17.0594	-37.284862	0.000164	1.642842	0.556610	-0.013427
1429	7.1400e-01	-17.1236	-37.351571	0.000163	1.632378	0.553065	-0.013342
1430	7.1450e-01	-17.1460	-37.450780	0.000243	2.427639	0.822506	-0.019842
1431	7.1500e-01	-17.1605	-37.501240	0.000123	1.234747	0.418344	-0.010092
1432	7.1550e-01	-17.2487	-37.579068	0.000190	1.904441	0.645242	-0.015566
1433	7.1600e-01	-17.2872	-37.653902	0.000183	1.831193	0.620425	-0.014967
1434	7.1650e-01	-17.2984	-37.727026	0.000179	1.789337	0.606244	-0.014625
1435	7.1700e-01	-17.3305	-37.790742	0.000156	1.559130	0.528248	-0.012743
1436	7.1750e-01	-17.3514	-37.883965	0.000228	2.281144	0.772872	-0.018644
1437	7.1800e-01	-17.4396	-37.942977	0.000144	1.444027	0.489249	-0.011802
1438	7.1850e-01	-17.4637	-38.021660	0.000193	1.925369	0.652333	-0.015737
1439	7.1900e-01	-17.4861	-38.089652	0.000166	1.663770	0.563700	-0.013598
1440	7.1950e-01	-17.5535	-38.164914	0.000184	1.841657	0.623970	-0.015052
1441	7.2000e-01	-17.5872	-38.226492	0.000151	1.506810	0.510521	-0.012316
1442	7.2050e-01	-17.6337	-38.301754	0.000184	1.841657	0.623970	-0.015052
1443	7.2100e-01	-17.6626	-38.389845	0.000216	2.155576	0.730329	-0.017618
1444	7.2150e-01	-17.6995	-38.452279	0.000153	1.527738	0.517612	-0.012487
1445	7.2200e-01	-17.7220	-38.539514	0.000213	2.134648	0.723238	-0.017447
1446	7.2250e-01	-17.7765	-38.598526	0.000144	1.444027	0.489249	-0.011802
1447	7.2300e-01	-17.8503	-38.667374	0.000168	1.684698	0.570791	-0.013770
1448	7.2350e-01	-17.8792	-38.742636	0.000184	1.841657	0.623970	-0.015052
1449	7.2400e-01	-17.9385	-38.817898	0.000184	1.841657	0.623970	-0.015052
1450	7.2450e-01	-17.9610	-38.886746	0.000168	1.684698	0.570791	-0.013770
1451	7.2500e-01	-17.9867	-38.963718	0.000188	1.883513	0.638151	-0.015395
1452	7.2550e-01	-18.0155	-39.039836	0.000186	1.862585	0.631061	-0.015223
1453	7.2600e-01	-18.0685	-39.106545	0.000163	1.632378	0.553065	-0.013342
1454	7.2650e-01	-18.1086	-39.169406	0.000154	1.538202	0.521157	-0.012572
1455	7.2700e-01	-18.1487	-39.245096	0.000185	1.852121	0.627516	-0.015138
1456	7.2750e-01	-18.1984	-39.319930	0.000183	1.831193	0.620425	-0.014967
1457	7.2800e-01	-18.2514	-39.382363	0.000153	1.527738	0.517612	-0.012487
1458	7.2850e-01	-18.2562	-39.475158	0.000227	2.270680	0.769327	-0.018559
1459	7.2900e-01	-18.2754	-39.549137	0.000181	1.810265	0.613334	-0.014796
1460	7.2950e-01	-18.3556	-39.598742	0.000121	1.213819	0.411253	-0.009921
1461	7.3000e-01	-18.4182	-39.668445	0.000171	1.705626	0.577882	-0.013941
1462	7.3050e-01	-18.4262	-39.736865	0.000167	1.674234	0.567246	-0.013684
1463	7.3100e-01	-18.4792	-39.821107	0.000206	2.061400	0.698421	-0.016848
1464	7.3150e-01	-18.4984	-39.890382	0.000170	1.695162	0.574336	-0.013855
1465	7.3200e-01	-18.5305	-39.972486	0.000201	2.009081	0.680695	-0.016421
1466	7.3250e-01	-18.5642	-40.043045	0.000173	1.726554	0.584972	-0.014112
1467	7.3300e-01	-18.6508	-40.111465	0.000167	1.674234	0.567246	-0.013684
1468	7.3350e-01	-18.6733	-40.177319	0.000161	1.611450	0.545974	-0.013171
1469	7.3400e-01	-18.6877	-40.249160	0.000176	1.757945	0.595608	-0.014368
1470	7.3450e-01	-18.7503	-40.325705	0.000187	1.873049	0.634606	-0.015309
1471	7.3500e-01	-18.7840	-40.398401	0.000178	1.778873	0.602699	-0.014539
1472	7.3550e-01	-18.8321	-40.464255	0.000161	1.611450	0.545974	-0.013171
1473	7.3600e-01	-18.8738	-40.542938	0.000193	1.925369	0.652333	-0.015737
1474	7.3650e-01	-18.9059	-40.601951	0.000144	1.444027	0.489249	-0.011802
1475	7.3700e-01	-18.9524	-40.685765	0.000205	2.050936	0.694876	-0.016763
1476	7.3750e-01	-19.0294	-40.746060	0.000148	1.475419	0.499885	-0.012059
1477	7.3800e-01	-19.0631	-40.815336	0.000170	1.695162	0.574336	-0.013855
1478	7.3850e-01	-19.0583	-40.906848	-0.000224	-2.239288	-0.758691	-0.018302
1479	7.3900e-01	-19.1096	-40.966287	0.000145	1.454491	0.492795	-0.011888
1480	7.3950e-01	-19.1561	-41.043688	0.000189	1.893977	0.641697	-0.015480
1481	7.4000e-01	-19.2043	-41.111680	0.000166	1.663770	0.563700	-0.013598
1482	7.4050e-01	-19.2059	-41.189508	0.000190	1.904441	0.645242	-0.015566
1483	7.4100e-01	-19.2396	-41.282303	0.000227	2.270680	0.769327	-0.018559
1484	7.4150e-01	-19.3118	-41.324637	0.000104	1.035932	0.350983	-0.008467
1485	7.4200e-01	-19.3021	-41.431116	-0.000261	-2.605526	-0.882776	-0.021296
1486	7.4250e-01	-19.3679	-41.479438	0.000118	1.182428	0.400617	-0.009664
1487	7.4300e-01	-19.4257	-41.547430	0.000166	1.663770	0.563700	-0.013598
1488	7.4350e-01	-19.4561	-41.618416	0.000174	1.737018	0.588517	-0.014197
1489	7.4400e-01	-19.4962	-41.678711	0.000148	1.475419	0.499885	-0.012059
1490	7.4450e-01	-19.5668	-41.752690	0.000181	1.810265	0.613334	-0.014796
1491	7.4500e-01	-19.5845	-41.833084	0.000197	1.967225	0.666514	-0.016079
1492	7.4550e-01	-19.6262	-41.909629	0.000187	1.873049	0.634606	-0.015309
1493	7.4600e-01	-19.6502	-42.002424	0.000227	2.270680	0.769327	-0.018559
1494	7.4650e-01	-19.7160	-42.057587	0.000135	1.349851	0.457342	-0.011033
1495	7.4700e-01	-19.7497	-42.128573	0.000174	1.737018	0.588517	-0.014197
1496	7.4750e-01	-19.8107	-42.202125	0.000180	1.799801	0.609789	-0.014710
1497	7.4800e-01	-19.8283	-42.271400	0.000170	1.695162	0.574336	-0.013855
1498	7.4850e-01	-19.8700	-42.350938	0.000195	1.946297	0.659423	-0.015908
1499	7.4900e-01	-19.9230	-42.420641	0.000171	1.705626	0.577882	-0.013941
1500	7.4950e-01	-19.9727	-42.483074	0.000153	1.527738	0.517612	-0.012487
1501	7.5000e-01	-19.9759	-42.551067	0.000166	1.663770	0.563700	-0.013598
1502	7.5050e-01	-19.9326	-42.586987	-0.000088	-0.878973	-0.297804	-0.007184
1503	7.5100e-01	-19.8797	-42.545935	0.000100	1.004540	0.340347	0.008210
1504	7.5150e-01	-19.8412	-42.503173	0.000105	1.046396	0.354529	0.008553
1505	7.5200e-01	-19.8123	-42.448864	0.000133	1.328923	0.450251	0.010862
1506	7.5250e-01	-19.7658	-42.390280	0.000143	1.433563	0.485704	0.011717
1507	7.5300e-01	-19.7064	-42.346234	0.000108	1.077788	0.365164	0.008809
1508	7.5350e-01	-19.6759	-42.290215	0.000137	1.370779	0.464432	0.011204
1509	7.5400e-01	-19.6358	-42.209394	0.000198	1.977689	0.670059	0.016164
1510	7.5450e-01	-19.6117	-42.156796	0.000129	1.287067	0.436070	0.010520
1511	7.5500e-01	-19.5684	-42.092652	0.000157	1.569594	0.531793	0.012829
1512	7.5550e-01	-19.5283	-42.045186	0.000116	1.161500	0.393527	0.009493
1513	7.5600e-01	-19.4658	-41.969924	0.000184	1.841657	0.623970	0.015052
1514	7.5650e-01	-19.4449	-41.905780	0.000157	1.569594	0.531793	0.012829
1515	7.5700e-01	-19.4208	-41.848906	0.000139	1.391707	0.471523	0.011375
1516	7.5750e-01	-19.3775	-41.773644	0.000184	1.841657	0.623970	0.015052
1517	7.5800e-01	-19.3134	-41.743710	0.000073	0.732477	0.248170	0.005987
1518	7.5850e-01	-19.3567	-41.632528	-0.000272	-2.720630	-0.921774	0.022237
1519	7.5900e-01	-19.2251	-41.613712	0.000046	0.460414	0.155993	0.003763
1520	7.5950e-01	-19.1930	-41.561542	0.000128	1.276603	0.432525	0.010434
1521	7.6000e-01	-19.2075	-41.469175	-0.000226	-2.260216	-0.765782	0.018473
1522	7.6050e-01	-19.1465	-41.431971	0.000091	0.910365	0.308440	0.007441
1523	7.6100e-01	-19.0968	-41.346874	0.000208	2.082328	0.705512	0.017019
1524	7.6150e-01	-19.0503	-41.300263	0.000114	1.140572	0.386436	0.009322
1525	7.6200e-01	-19.0118	-41.257073	0.000106	1.056860	0.358074	0.008638
1526	7.6250e-01	-18.9588	-41.178390	0.000193	1.925369	0.652333	0.015737
1527	7.6300e-01	-18.9332	-41.127502	0.000125	1.245211	0.421889	0.010177
1528	7.6350e-01	-18.9027	-41.056516	0.000174	1.737018	0.588517	0.014197
1529	7.6400e-01	-18.8353	-40.985958	0.000173	1.726554	0.584972	0.014112
1530	7.6450e-01	-18.8225	-40.924380	0.000151	1.506810	0.510521	0.012316
1531	7.6500e-01	-18.7583	-40.864513	0.000146	1.464955	0.496340	0.011974
1532	7.6550e-01	-18.7487	-40.799941	0.000158	1.580058	0.535338	0.012914
1533	7.6600e-01	-18.6733	-40.729383	0.000173	1.726554	0.584972	0.014112
1534	7.6650e-01	-18.6284	-40.645141	0.000206	2.061400	0.698421	0.016848
1535	7.6700e-01	-18.6011	-40.603234	0.000103	1.025468	0.347438	0.008381
1536	7.6750e-01	-18.5321	-40.552346	0.000125	1.245211	0.421889	0.010177
1537	7.6800e-01	-18.5241	-40.486492	0.000161	1.611450	0.545974	0.013171
1538	7.6850e-01	-18.4888	-40.421065	0.000160	1.600986	0.542429	0.013085
1539	7.6900e-01	-18.4808	-40.345376	0.000185	1.852121	0.627516	0.015138
1540	7.6950e-01	-18.3861	-40.294916	0.000123	1.234747	0.418344	0.010092
1541	7.7000e-01	-18.3701	-40.212384	0.000202	2.019544	0.684240	0.016506
1542	7.7050e-01	-18.3091	-40.160214	0.000128	1.276603	0.432525	0.010434
1543	7.7100e-01	-18.2866	-40.087518	0.000178	1.778873	0.602699	0.014539
1544	7.7150e-01	-18.2802	-40.004986	0.000202	2.019544	0.684240	0.016506
1545	7.7200e-01	-18.2032	-39.957092	0.000117	1.171964	0.397072	0.009579
1546	7.7250e-01	-18.1711	-39.887389	0.000171	1.705626	0.577882	0.013941
1547	7.7300e-01	-18.1359	-39.822818	0.000158	1.580058	0.535338	0.012914
1548	7.7350e-01	-18.0974	-39.749694	0.000179	1.789337	0.606244	0.014625
1549	7.7400e-01	-18.0444	-39.698379	0.000126	1.255675	0.425434	0.010263
1550	7.7450e-01	-17.9979	-39.644070	0.000133	1.328923	0.450251	0.010862
1551	7.7500e-01	-17.9738	-39.576933	0.000164	1.642842	0.556610	0.013427
1552	7.7550e-01	-17.9289	-39.496112	0.000198	1.977689	0.670059	0.016164
1553	7.7600e-01	-17.8808	-39.437527	0.000143	1.433563	0.485704	0.011717
1554	7.7650e-01	-17.8599	-39.360127	0.000189	1.893977	0.641697	0.015480
1555	7.7700e-01	-17.7958	-39.303253	0.000139	1.391707	0.471523	0.011375
1556	7.7750e-01	-17.7605	-39.232695	0.000173	1.726554	0.584972	0.014112
1557	7.7800e-01	-17.7091	-39.172827	0.000146	1.464955	0.496340	0.011974
1558	7.7850e-01	-17.6979	-39.100558	0.000177	1.768409	0.599153	0.014454
1559	7.7900e-01	-17.6353	-39.037698	0.000154	1.538202	0.521157	0.012572
1560	7.7950e-01	-17.5856	-38.983389	0.000133	1.328923	0.450251	0.010862
1561	7.8000e-01	-17.5583	-38.910693	0.000178	1.778873	0.602699	0.014539
1562	7.8050e-01	-17.5070	-38.833720	0.000188	1.883513	0.638151	0.015395
1563	7.8100e-01	-17.4845	-38.768294	0.000160	1.600986	0.542429	0.013085
1564	7.8150e-01	-17.4589	-38.706716	0.000151	1.506810	0.510521	0.012316
1565	7.8200e-01	-17.4027	-38.618625	0.000216	2.155576	0.730329	0.017618
1566	7.8250e-01	-17.3835	-38.576290	0.000104	1.035932	0.350983	0.008467
1567	7.8300e-01	-17.3225	-38.486916	0.000219	2.186968	0.740965	0.017875
1568	7.8350e-01	-17.2792	-38.423628	0.000155	1.548666	0.524702	0.012658
1569	7.8400e-01	-17.2150	-38.386424	0.000091	0.910365	0.308440	0.007441
1570	7.8450e-01	-17.1942	-38.293630	0.000227	2.270680	0.769327	0.018559
1571	7.8500e-01	-17.1348	-38.244453	0.000120	1.203356	0.407708	0.009835
1572	7.8550e-01	-17.1156	-38.170473	0.000181	1.810265	0.613334	0.014796
1573	7.8600e-01	-17.0755	-38.114027	0.000138	1.381243	0.467978	0.011289
1574	7.8650e-01	-17.0337	-38.035344	0.000193	1.925369	0.652333	0.015737
1575	7.8700e-01	-16.9840	-37.963503	0.000176	1.757945	0.595608	0.014368
1576	7.8750e-01	-16.9599	-37.885247	0.000191	1.914905	0.648787	0.015651
1577	7.8800e-01	-16.9359	-37.830939	0.000133	1.328923	0.450251	0.010862
1578	7.8850e-01	-16.9086	-37.756105	0.000183	1.831193	0.620425	0.014967
1579	7.8900e-01	-16.8444	-37.679987	0.000186	1.862585	0.631061	0.015223
1580	7.8950e-01	-16.7867	-37.628245	0.000127	1.266139	0.428980	0.010349
1581	7.9000e-01	-16.7610	-37.559825	0.000167	1.674234	0.567246	0.013684
1582	7.9050e-01	-16.7193	-37.500385	0.000145	1.454491	0.492795	0.011888
1583	7.9100e-01	-16.6920	-37.404169	0.000235	2.354391	0.797689	0.019243
1584	7.9150e-01	-16.6439	-37.343446	0.000149	1.485882	0.503431	0.012145
1585	7.9200e-01	-16.5797	-37.285289	0.000142	1.423099	0.482159	0.011631
1586	7.9250e-01	-16.5445	-37.225422	0.000146	1.464955	0.496340	0.011974
1587	7.9300e-01	-16.5124	-37.151442	0.000181	1.810265	0.613334	0.014796
1588	7.9350e-01	-16.4851	-37.075325	0.000186	1.862585	0.631061	0.015223
1589	7.9400e-01	-16.4241	-37.010326	0.000159	1.590522	0.538883	0.013000
1590	7.9450e-01	-16.3985	-36.932926	0.000189	1.893977	0.641697	0.015480
1591	7.9500e-01	-16.3985	-36.861085	-0.000176	-1.757945	-0.595608	0.014368
1592	7.9550e-01	-16.3006	-36.813618	0.000116	1.161500	0.393527	0.009493
1593	7.9600e-01	-16.2894	-36.739212	0.000182	1.820729	0.616880	0.014881
1594	7.9650e-01	-16.2332	-36.665660	0.000180	1.799801	0.609789	0.014710
1595	7.9700e-01	-16.1963	-36.597668	0.000166	1.663770	0.563700	0.013598
1596	7.9750e-01	-16.1642	-36.540366	0.000140	1.402171	0.475068	0.011460
1597	7.9800e-01	-16.1145	-36.459972	0.000197	1.967225	0.666514	0.016079
1598	7.9850e-01	-16.0872	-36.381289	0.000193	1.925369	0.652333	0.015737
1599	7.9900e-01	-16.0391	-36.330830	0.000123	1.234747	0.418344	0.010092
1600	7.9950e-01	-15.9974	-36.253002	0.000190	1.904441	0.645242	0.015566
1601	8.0000e-01	-15.9894	-36.179023	0.000181	1.810265	0.613334	0.014796
1602	8.0050e-01	-15.9429	-36.101622	0.000189	1.893977	0.641697	0.015480
1603	8.0100e-01	-15.8723	-36.053301	0.000118	1.182428	0.400617	0.009664
1604	8.0150e-01	-15.8514	-35.960934	0.000226	2.260216	0.765782	0.018473
1605	8.0200e-01	-15.8225	-35.894224	0.000163	1.632378	0.553065	0.013342
1606	8.0250e-01	-15.7455	-35.838633	0.000136	1.360315	0.460887	0.011118
1607	8.0300e-01	-15.7231	-35.775772	0.000154	1.538202	0.521157	0.012572
1608	8.0350e-01	-15.6734	-35.706497	0.000170	1.695162	0.574336	0.013855
1609	8.0400e-01	-15.6349	-35.626531	0.000196	1.956761	0.662968	0.015993
1610	8.0450e-01	-15.5723	-35.555545	0.000174	1.737018	0.588517	0.014197
1611	8.0500e-01	-15.5578	-35.499526	0.000137	1.370779	0.464432	0.011204
1612	8.0550e-01	-15.5290	-35.418705	0.000198	1.977689	0.670059	0.016164
1613	8.0600e-01	-15.4568	-35.352851	0.000161	1.611450	0.545974	0.013171
1614	8.0650e-01	-15.4407	-35.283148	0.000171	1.705626	0.577882	0.013941
1615	8.0700e-01	-15.4022	-35.207458	0.000185	1.852121	0.627516	0.015138
1616	8.0750e-01	-15.3637	-35.133051	0.000182	1.820729	0.616880	0.014881
1617	8.0800e-01	-15.3204	-35.069763	0.000155	1.548666	0.524702	0.012658
1618	8.0850e-01	-15.2835	-35.003481	0.000162	1.621914	0.549519	0.013256
1619	8.0900e-01	-15.2643	-34.922659	0.000198	1.977689	0.670059	0.016164
1620	8.0950e-01	-15.2049	-34.863220	0.000145	1.454491	0.492795	0.011888
1621	8.1000e-01	-15.1648	-34.784109	0.000194	1.935833	0.655878	0.015822
1622	8.1050e-01	-15.1071	-34.717827	0.000162	1.621914	0.549519	0.013256
1623	8.1100e-01	-15.0798	-34.635295	0.000202	2.019544	0.684240	0.016506
1624	8.1150e-01	-15.0028	-34.579276	0.000137	1.370779	0.464432	0.011204
1625	8.1200e-01	-15.0172	-34.493751	-0.000209	-2.092792	-0.709057	0.017105
1626	8.1250e-01	-14.9771	-34.424048	0.000171	1.705626	0.577882	0.013941
1627	8.1300e-01	-14.9402	-34.370595	0.000131	1.307995	0.443161	0.010691
1628	8.1350e-01	-14.8664	-34.299182	0.000175	1.747481	0.592063	0.014283
1629	8.1400e-01	-14.8311	-34.227341	0.000176	1.757945	0.595608	0.014368
1630	8.1450e-01	-14.8392	-34.131980	-0.000233	-2.333463	-0.790599	0.019072
1631	8.1500e-01	-14.7509	-34.074251	0.000141	1.412635	0.478614	0.011546
1632	8.1550e-01	-14.7365	-33.994713	0.000195	1.946297	0.659423	0.015908
1633	8.1600e-01	-14.6835	-33.928858	0.000161	1.611450	0.545974	0.013171
1634	8.1650e-01	-14.6386	-33.857017	0.000176	1.757945	0.595608	0.014368
1635	8.1700e-01	-14.6017	-33.799716	0.000140	1.402171	0.475068	0.011460
1636	8.1750e-01	-14.5568	-33.721888	0.000190	1.904441	0.645242	0.015566
1637	8.1800e-01	-14.4991	-33.648764	0.000179	1.789337	0.606244	0.014625
1638	8.1850e-01	-14.4846	-33.576495	0.000177	1.768409	0.599153	0.014454
1639	8.1900e-01	-14.4573	-33.478569	0.000240	2.396247	0.811870	0.019585
1640	8.1950e-01	-14.4237	-33.430247	0.000118	1.182428	0.400617	0.009664
1641	8.2000e-01	-14.3852	-33.348571	0.000200	1.998617	0.677150	0.016335
1642	8.2050e-01	-14.3306	-33.279296	0.000170	1.695162	0.574336	0.013855
1643	8.2100e-01	-14.2809	-33.212586	0.000163	1.632378	0.553065	0.013342
1644	8.2150e-01	-14.2648	-33.135613	0.000188	1.883513	0.638151	0.015395
1645	8.2200e-01	-14.1991	-33.063345	0.000177	1.768409	0.599153	0.014454
1646	8.2250e-01	-14.1429	-32.997063	0.000162	1.621914	0.549519	0.013256
1647	8.2300e-01	-14.1156	-32.929498	0.000165	1.653306	0.560155	0.013513
1648	8.2350e-01	-14.0900	-32.832855	0.000236	2.364855	0.801235	0.019329
1649	8.2400e-01	-14.0659	-32.763579	0.000170	1.695162	0.574336	0.013855
1650	8.2450e-01	-14.0098	-32.711837	0.000127	1.266139	0.428980	0.010349
1651	8.2500e-01	-13.9873	-32.625029	0.000212	2.124184	0.719693	0.017362
1652	8.2550e-01	-13.9071	-32.561313	0.000156	1.559130	0.528248	0.012743
1653	8.2600e-01	-13.8622	-32.485195	0.000186	1.862585	0.631061	0.015223
1654	8.2650e-01	-13.8253	-32.386414	0.000242	2.417175	0.818961	0.019756
1655	8.2700e-01	-13.8269	-32.321415	-0.000159	-1.590522	-0.538883	0.013000
1656	8.2750e-01	-13.7739	-32.270528	0.000125	1.245211	0.421889	0.010177
1657	8.2800e-01	-13.7258	-32.206384	0.000157	1.569594	0.531793	0.012829
1658	8.2850e-01	-13.6921	-32.133687	0.000178	1.778873	0.602699	0.014539
1659	8.2900e-01	-13.6536	-32.055432	0.000191	1.914905	0.648787	0.015651
1660	8.2950e-01	-13.6135	-31.979315	0.000186	1.862585	0.631061	0.015223
1661	8.3000e-01	-13.5622	-31.894217	0.000208	2.082328	0.705512	0.017019
1662	8.3050e-01	-13.5028	-31.824514	0.000171	1.705626	0.577882	0.013941
1663	8.3100e-01	-13.4948	-31.743693	0.000198	1.977689	0.670059	0.016164
1664	8.3150e-01	-13.4467	-31.674418	0.000170	1.695162	0.574336	0.013855
1665	8.3200e-01	-13.3905	-31.617116	0.000140	1.402171	0.475068	0.011460
1666	8.3250e-01	-13.3328	-31.540144	0.000188	1.883513	0.638151	0.015395
1667	8.3300e-01	-13.3264	-31.457184	0.000203	2.030008	0.687785	0.016592
1668	8.3350e-01	-13.2943	-31.375508	0.000200	1.998617	0.677150	0.016335
1669	8.3400e-01	-13.2173	-31.299818	0.000185	1.852121	0.627516	0.015138
1670	8.3450e-01	-13.1964	-31.234391	0.000160	1.600986	0.542429	0.013085
1671	8.3500e-01	-13.1451	-31.175379	0.000144	1.444027	0.489249	0.011802
1672	8.3550e-01	-13.0921	-31.089854	0.000209	2.092792	0.709057	0.017105
1673	8.3600e-01	-13.0745	-31.004757	0.000208	2.082328	0.705512	0.017019
1674	8.3650e-01	-13.0488	-30.940613	0.000157	1.569594	0.531793	0.012829
1675	8.3700e-01	-13.0023	-30.864068	0.000187	1.873049	0.634606	0.015309
1676	8.3750e-01	-12.9750	-30.785385	0.000193	1.925369	0.652333	0.015737
1677	8.3800e-01	-12.9253	-30.712261	0.000179	1.789337	0.606244	0.014625
1678	8.3850e-01	-12.8547	-30.642130	0.000172	1.716090	0.581427	0.014026
1679	8.3900e-01	-12.8868	-30.542066	-0.000245	-2.448567	-0.829597	0.020013
1680	8.3950e-01	-12.7905	-30.500587	0.000102	1.015004	0.343893	0.008296
1681	8.4000e-01	-12.7376	-30.428745	0.000176	1.757945	0.595608	0.014368
1682	8.4050e-01	-12.7135	-30.351773	0.000188	1.883513	0.638151	0.015395
1683	8.4100e-01	-12.6766	-30.288057	0.000156	1.559130	0.528248	0.012743
1684	8.4150e-01	-12.6478	-30.192696	0.000233	2.333463	0.790599	0.019072
1685	8.4200e-01	-12.6141	-30.102040	0.000222	2.218360	0.751601	0.018131
1686	8.4250e-01	-12.5660	-30.054573	0.000116	1.161500	0.393527	0.009493
1687	8.4300e-01	-12.5226	-29.970759	0.000205	2.050936	0.694876	0.016763
1688	8.4350e-01	-12.5050	-29.898063	0.000178	1.778873	0.602699	0.014539
1689	8.4400e-01	-12.4505	-29.821945	0.000186	1.862585	0.631061	0.015223
1690	8.4450e-01	-12.4103	-29.759084	0.000154	1.538202	0.521157	0.012572
1691	8.4500e-01	-12.3718	-29.673132	0.000210	2.103256	0.712602	0.017191
1692	8.4550e-01	-12.3093	-29.597014	0.000186	1.862585	0.631061	0.015223
1693	8.4600e-01	-12.2724	-29.519187	0.000190	1.904441	0.645242	0.015566
1694	8.4650e-01	-12.2435	-29.458464	0.000149	1.485882	0.503431	0.012145
1695	8.4700e-01	-12.2243	-29.370373	0.000216	2.155576	0.730329	0.017618
1696	8.4750e-01	-12.1505	-29.289124	0.000199	1.988153	0.673604	0.016250
1697	8.4800e-01	-12.1152	-29.204882	0.000206	2.061400	0.698421	0.016848
1698	8.4850e-01	-12.0943	-29.129620	0.000184	1.841657	0.623970	0.015052
1699	8.4900e-01	-12.0398	-29.056496	0.000179	1.789337	0.606244	0.014625
1700	8.4950e-01	-12.0093	-28.976530	0.000196	1.956761	0.662968	0.015993
1701	8.5000e-01	-11.9660	-28.921794	0.000134	1.339387	0.453797	0.010947
1702	8.5050e-01	-11.9435	-28.830282	0.000224	2.239288	0.758691	0.018302
1703	8.5100e-01	-11.8649	-28.748606	0.000200	1.998617	0.677150	0.016335
1704	8.5150e-01	-11.8585	-28.696435	0.000128	1.276603	0.432525	0.010434
1705	8.5200e-01	-11.8152	-28.601930	0.000231	2.312535	0.783508	0.018901
1706	8.5250e-01	-11.7606	-28.536931	0.000159	1.590522	0.538883	0.013000
1707	8.5300e-01	-11.7350	-28.449696	0.000213	2.134648	0.723238	0.017447
1708	8.5350e-01	-11.7029	-28.367592	0.000201	2.009081	0.680695	0.016421
1709	8.5400e-01	-11.6708	-28.289336	0.000191	1.914905	0.648787	0.015651
1710	8.5450e-01	-11.6034	-28.227331	0.000152	1.517274	0.514066	0.012401
1711	8.5500e-01	-11.5457	-28.148648	0.000193	1.925369	0.652333	0.015737
1712	8.5550e-01	-11.5376	-28.060557	0.000216	2.155576	0.730329	0.017618
1713	8.5600e-01	-11.4783	-27.993420	0.000164	1.642842	0.556610	0.013427
1714	8.5650e-01	-11.4334	-27.910460	0.000203	2.030008	0.687785	0.016592
1715	8.5700e-01	-11.3965	-27.843323	0.000164	1.642842	0.556610	0.013427
1716	8.5750e-01	-11.3772	-27.756943	0.000211	2.113720	0.716148	0.017276
1717	8.5800e-01	-11.3435	-27.683391	0.000180	1.799801	0.609789	0.014710
1718	8.5850e-01	-11.2954	-27.600004	0.000204	2.040472	0.691331	0.016677
1719	8.5900e-01	-11.2633	-27.518328	0.000200	1.998617	0.677150	0.016335
1720	8.5950e-01	-11.1911	-27.460598	0.000141	1.412635	0.478614	0.011546
1721	8.6000e-01	-11.1286	-27.384909	0.000185	1.852121	0.627516	0.015138
1722	8.6050e-01	-11.1173	-27.296818	0.000216	2.155576	0.730329	0.017618
1723	8.6100e-01	-11.1061	-27.212576	0.000206	2.061400	0.698421	0.016848
1724	8.6150e-01	-11.0564	-27.139452	0.000179	1.789337	0.606244	0.014625
1725	8.6200e-01	-11.0050	-27.064617	0.000183	1.831193	0.620425	0.014967
1726	8.6250e-01	-10.9922	-26.973533	0.000223	2.228824	0.755146	0.018217
1727	8.6300e-01	-10.9232	-26.889719	0.000205	2.050936	0.694876	0.016763
1728	8.6350e-01	-10.8976	-26.811463	0.000191	1.914905	0.648787	0.015651
1729	8.6400e-01	-10.8366	-26.738767	0.000178	1.778873	0.602699	0.014539
1730	8.6450e-01	-10.7933	-26.657091	0.000200	1.998617	0.677150	0.016335
1731	8.6500e-01	-10.7532	-26.591664	0.000160	1.600986	0.542429	0.013085
1732	8.6550e-01	-10.7163	-26.511270	0.000197	1.967225	0.666514	0.016079
1733	8.6600e-01	-10.6441	-26.462093	0.000120	1.203356	0.407708	0.009835
1734	8.6650e-01	-10.6329	-26.367161	0.000232	2.322999	0.787053	0.018987
1735	8.6700e-01	-10.6200	-26.270090	0.000238	2.375319	0.804780	0.019414
1736	8.6750e-01	-10.5334	-26.219630	0.000123	1.234747	0.418344	0.010092
1737	8.6800e-01	-10.5302	-26.133677	0.000210	2.103256	0.712602	0.017191
1738	8.6850e-01	-10.5029	-26.039600	0.000230	2.302071	0.779963	0.018816
1739	8.6900e-01	-10.4708	-25.952792	0.000212	2.124184	0.719693	0.017362
1740	8.6950e-01	-10.4179	-25.871971	0.000198	1.977689	0.670059	0.016164
1741	8.7000e-01	-10.3521	-25.801840	0.000172	1.716090	0.581427	0.014026
1742	8.7050e-01	-10.3200	-25.721019	0.000198	1.977689	0.670059	0.016164
1743	8.7100e-01	-10.2719	-25.646184	0.000183	1.831193	0.620425	0.014967
1744	8.7150e-01	-10.2703	-25.546548	0.000244	2.438103	0.826052	0.019927
1745	8.7200e-01	-10.1821	-25.482404	0.000157	1.569594	0.531793	0.012829
1746	8.7250e-01	-10.1548	-25.401583	0.000198	1.977689	0.670059	0.016164
1747	8.7300e-01	-10.1307	-25.325465	0.000186	1.862585	0.631061	0.015223
1748	8.7350e-01	-10.0617	-25.255763	0.000171	1.705626	0.577882	0.013941
1749	8.7400e-01	-10.0794	-25.160830	-0.000232	-2.322999	-0.787053	0.018987
1750	8.7450e-01	-10.0088	-25.074022	0.000212	2.124184	0.719693	0.017362
1751	8.7500e-01	-9.9623	-24.991062	0.000203	2.030008	0.687785	0.016592
1752	8.7550e-01	-9.9238	-24.926491	0.000158	1.580058	0.535338	0.012914
1753	8.7600e-01	-9.8965	-24.853367	0.000179	1.789337	0.606244	0.014625
1754	8.7650e-01	-9.8195	-24.774256	0.000194	1.935833	0.655878	0.015822
1755	8.7700e-01	-9.7826	-24.687876	0.000211	2.113720	0.716148	0.017276
1756	8.7750e-01	-9.7425	-24.608338	0.000195	1.946297	0.659423	0.015908
1757	8.7800e-01	-9.7297	-24.524096	0.000206	2.061400	0.698421	0.016848
1758	8.7850e-01	-9.6703	-24.442419	0.000200	1.998617	0.677150	0.016335
1759	8.7900e-01	-9.6318	-24.359460	0.000203	2.030008	0.687785	0.016592
1760	8.7950e-01	-9.5692	-24.280777	0.000193	1.925369	0.652333	0.015737
1761	8.8000e-01	-9.5548	-24.211502	0.000170	1.695162	0.574336	0.013855
1762	8.8050e-01	-9.5211	-24.124694	0.000212	2.124184	0.719693	0.017362
1763	8.8100e-01	-9.4906	-24.049432	0.000184	1.841657	0.623970	0.015052
1764	8.8150e-01	-9.4505	-23.959630	0.000220	2.197432	0.744510	0.017960
1765	8.8200e-01	-9.4104	-23.875816	0.000205	2.050936	0.694876	0.016763
1766	8.8250e-01	-9.3527	-23.809106	0.000163	1.632378	0.553065	0.013342
1767	8.8300e-01	-9.3158	-23.715884	0.000228	2.281144	0.772872	0.018644
1768	8.8350e-01	-9.2837	-23.642760	0.000179	1.789337	0.606244	0.014625
1769	8.8400e-01	-9.2404	-23.552959	0.000220	2.197432	0.744510	0.017960
1770	8.8450e-01	-9.1906	-23.475559	0.000189	1.893977	0.641697	0.015480
1771	8.8500e-01	-9.1570	-23.380198	0.000233	2.333463	0.790599	0.019072
1772	8.8550e-01	-9.0912	-23.320331	0.000146	1.464955	0.496340	0.011974
1773	8.8600e-01	-9.0751	-23.239082	0.000199	1.988153	0.673604	0.016250
1774	8.8650e-01	-9.0800	-23.156122	-0.000203	-2.030008	-0.687785	0.016592
1775	8.8700e-01	-9.0174	-23.056913	0.000243	2.427639	0.822506	0.019842
1776	8.8750e-01	-8.9853	-22.966684	0.000221	2.207896	0.748055	0.018046
1777	8.8800e-01	-8.9340	-22.900830	0.000161	1.611450	0.545974	0.013171
1778	8.8850e-01	-8.8987	-22.817871	0.000203	2.030008	0.687785	0.016592
1779	8.8900e-01	-8.8249	-22.744319	0.000180	1.799801	0.609789	0.014710
1780	8.8950e-01	-8.8088	-22.639551	0.000256	2.563670	0.868595	0.020954
1781	8.9000e-01	-8.7543	-22.577545	0.000152	1.517274	0.514066	0.012401
1782	8.9050e-01	-8.7350	-22.502711	0.000183	1.831193	0.620425	0.014967
1783	8.9100e-01	-8.6853	-22.416331	0.000211	2.113720	0.716148	0.017276
1784	8.9150e-01	-8.6340	-22.320115	0.000235	2.354391	0.797689	0.019243
1785	8.9200e-01	-8.5987	-22.237156	0.000203	2.030008	0.687785	0.016592
1786	8.9250e-01	-8.5313	-22.173012	0.000157	1.569594	0.531793	0.012829
1787	8.9300e-01	-8.5105	-22.078079	0.000232	2.322999	0.787053	0.018987
1788	8.9350e-01	-8.5072	-21.982719	0.000233	2.333463	0.790599	0.019072
1789	8.9400e-01	-8.4335	-21.904891	0.000190	1.904441	0.645242	0.015566
1790	8.9450e-01	-8.4030	-21.827491	0.000189	1.893977	0.641697	0.015480
1791	8.9500e-01	-8.3356	-21.755650	0.000176	1.757945	0.595608	0.014368
1792	8.9550e-01	-8.3067	-21.659434	0.000235	2.354391	0.797689	0.019243
1793	8.9600e-01	-8.2666	-21.582461	0.000188	1.883513	0.638151	0.015395
1794	8.9650e-01	-8.2201	-21.502923	0.000195	1.946297	0.659423	0.015908
1795	8.9700e-01	-8.2040	-21.417826	0.000208	2.082328	0.705512	0.017019
1796	8.9750e-01	-8.1704	-21.339143	0.000193	1.925369	0.652333	0.015737
1797	8.9800e-01	-8.1303	-21.246776	0.000226	2.260216	0.765782	0.018473
1798	8.9850e-01	-8.1046	-21.166810	0.000196	1.956761	0.662968	0.015993
1799	8.9900e-01	-8.0388	-21.079146	0.000215	2.145112	0.726784	0.017533
1800	8.9950e-01	-8.0035	-20.990628	0.000217	2.166040	0.733874	0.017704
1801	9.0000e-01	-7.9490	-20.910234	0.000197	1.967225	0.666514	0.016079
1802	9.0050e-01	-7.9361	-20.817440	0.000227	2.270680	0.769327	0.018559
1803	9.0100e-01	-7.8752	-20.750730	0.000163	1.632378	0.553065	0.013342
1804	9.0150e-01	-7.8351	-20.653659	0.000238	2.375319	0.804780	0.019414
1805	9.0200e-01	-7.7757	-20.592937	0.000149	1.485882	0.503431	0.012145
1806	9.0250e-01	-7.7741	-20.492872	0.000245	2.448567	0.829597	0.020013
1807	9.0300e-01	-7.7260	-20.397084	0.000234	2.343927	0.794144	0.019158
1808	9.0350e-01	-7.6714	-20.337217	0.000146	1.464955	0.496340	0.011974
1809	9.0400e-01	-7.6297	-20.214488	0.000300	3.003157	1.017497	0.024546
1810	9.0450e-01	-7.6153	-20.158897	0.000136	1.360315	0.460887	0.011118
1811	9.0500e-01	-7.5720	-20.069951	0.000218	2.176504	0.737419	0.017789
1812	9.0550e-01	-7.5126	-19.987419	0.000202	2.019544	0.684240	0.016506
1813	9.0600e-01	-7.4870	-19.898045	0.000219	2.186968	0.740965	0.017875
1814	9.0650e-01	-7.4549	-19.808672	0.000219	2.186968	0.740965	0.017875
1815	9.0700e-01	-7.3827	-19.726568	0.000201	2.009081	0.680695	0.016421
1816	9.0750e-01	-7.3570	-19.645319	0.000199	1.988153	0.673604	0.016250
1817	9.0800e-01	-7.3185	-19.552097	0.000228	2.281144	0.772872	0.018644
1818	9.0850e-01	-7.2720	-19.466999	0.000208	2.082328	0.705512	0.017019
1819	9.0900e-01	-7.2656	-19.372494	0.000231	2.312535	0.783508	0.018901
1820	9.0950e-01	-7.1998	-19.297232	0.000184	1.841657	0.623970	0.015052
1821	9.1000e-01	-7.1613	-19.211707	0.000209	2.092792	0.709057	0.017105
1822	9.1050e-01	-7.1260	-19.118057	0.000229	2.291607	0.776418	0.018730
1823	9.1100e-01	-7.0811	-19.037236	0.000198	1.977689	0.670059	0.016164
1824	9.1150e-01	-7.0410	-18.953849	0.000204	2.040472	0.691331	0.016677
1825	9.1200e-01	-6.9945	-18.854640	0.000243	2.427639	0.822506	0.019842
1826	9.1250e-01	-6.9495	-18.793062	0.000151	1.506810	0.510521	0.012316
1827	9.1300e-01	-6.9287	-18.698129	0.000232	2.322999	0.787053	0.018987
1828	9.1350e-01	-6.8725	-18.625005	0.000179	1.789337	0.606244	0.014625
1829	9.1400e-01	-6.8388	-18.524941	0.000245	2.448567	0.829597	0.020013
1830	9.1450e-01	-6.8052	-18.433001	0.000225	2.249752	0.762236	0.018388
1831	9.1500e-01	-6.7474	-18.358167	0.000183	1.831193	0.620425	0.014967
1832	9.1550e-01	-6.7378	-18.252543	0.000258	2.584598	0.875686	0.021125
1833	9.1600e-01	-6.6897	-18.178992	0.000180	1.799801	0.609789	0.014710
1834	9.1650e-01	-6.6110	-18.104157	0.000183	1.831193	0.620425	0.014967
1835	9.1700e-01	-6.5950	-18.002383	0.000249	2.490423	0.843778	0.020355
1836	9.1750e-01	-6.5453	-17.929259	0.000179	1.789337	0.606244	0.014625
1837	9.1800e-01	-6.5405	-17.829622	0.000244	2.438103	0.826052	0.019927
1838	9.1850e-01	-6.4715	-17.742386	0.000213	2.134648	0.723238	0.017447
1839	9.1900e-01	-6.4378	-17.654296	0.000216	2.155576	0.730329	0.017618
1840	9.1950e-01	-6.4426	-17.535416	-0.000291	-2.908981	-0.985589	0.023776
1841	9.2000e-01	-6.3576	-17.484101	0.000126	1.255675	0.425434	0.010263
1842	9.2050e-01	-6.3271	-17.412260	0.000176	1.757945	0.595608	0.014368
1843	9.2100e-01	-6.2854	-17.307492	0.000256	2.563670	0.868595	0.020954
1844	9.2150e-01	-6.2389	-17.227098	0.000197	1.967225	0.666514	0.016079
1845	9.2200e-01	-6.2116	-17.136869	0.000221	2.207896	0.748055	0.018046
1846	9.2250e-01	-6.1635	-17.048778	0.000216	2.155576	0.730329	0.017618
1847	9.2300e-01	-6.0993	-16.966247	0.000202	2.019544	0.684240	0.016506
1848	9.2350e-01	-6.0800	-16.864899	0.000248	2.479959	0.840233	0.020269
1849	9.2400e-01	-6.0415	-16.775098	0.000220	2.197432	0.744510	0.017960
1850	9.2450e-01	-5.9950	-16.703685	0.000175	1.747481	0.592063	0.014283
1851	9.2500e-01	-5.9661	-16.623291	0.000197	1.967225	0.666514	0.016079
1852	9.2550e-01	-5.9116	-16.517240	0.000260	2.595062	0.879231	0.021210
1853	9.2600e-01	-5.8891	-16.433853	0.000204	2.040472	0.691331	0.016677
1854	9.2650e-01	-5.8603	-16.344479	0.000219	2.186968	0.740965	0.017875
1855	9.2700e-01	-5.7897	-16.258527	0.000210	2.103256	0.712602	0.017191
1856	9.2750e-01	-5.7383	-16.174712	0.000205	2.050936	0.694876	0.016763
1857	9.2800e-01	-5.7014	-16.075076	0.000244	2.438103	0.826052	0.019927
1858	9.2850e-01	-5.6982	-15.984419	0.000222	2.218360	0.751601	0.018131
1859	9.2900e-01	-5.6421	-15.910440	0.000181	1.810265	0.613334	0.014796
1860	9.2950e-01	-5.5699	-15.823632	0.000212	2.124184	0.719693	0.017362
1861	9.3000e-01	-5.5699	-15.714587	-0.000267	-2.668310	-0.904048	0.021809
1862	9.3050e-01	-5.5298	-15.620510	0.000230	2.302071	0.779963	0.018816
1863	9.3100e-01	-5.4769	-15.545675	0.000183	1.831193	0.620425	0.014967
1864	9.3150e-01	-5.4464	-15.451598	0.000230	2.302071	0.779963	0.018816
1865	9.3200e-01	-5.4271	-15.335711	0.000284	2.835733	0.960772	0.023177
1866	9.3250e-01	-5.3726	-15.269857	0.000161	1.611450	0.545974	0.013171
1867	9.3300e-01	-5.3437	-15.177918	0.000225	2.249752	0.762236	0.018388
1868	9.3350e-01	-5.2859	-15.106077	0.000176	1.757945	0.595608	0.014368
1869	9.3400e-01	-5.2378	-15.009861	0.000235	2.354391	0.797689	0.019243
1870	9.3450e-01	-5.2105	-14.907231	0.000251	2.511351	0.850869	0.020526
1871	9.3500e-01	-5.1560	-14.805884	0.000248	2.479959	0.840233	0.020269
1872	9.3550e-01	-5.0870	-14.727628	0.000191	1.914905	0.648787	0.015651
1873	9.3600e-01	-5.0774	-14.635689	0.000225	2.249752	0.762236	0.018388
1874	9.3650e-01	-5.0261	-14.554012	0.000200	1.998617	0.677150	0.016335
1875	9.3700e-01	-4.9908	-14.456941	0.000238	2.375319	0.804780	0.019414
1876	9.3750e-01	-4.9619	-14.350035	0.000262	2.615990	0.886321	0.021381
1877	9.3800e-01	-4.8961	-14.283753	0.000162	1.621914	0.549519	0.013256
1878	9.3850e-01	-4.8448	-14.190531	0.000228	2.281144	0.772872	0.018644
1879	9.3900e-01	-4.8705	-14.076783	-0.000278	-2.783414	-0.943046	0.022750
1880	9.3950e-01	-4.8223	-14.003659	0.000179	1.789337	0.606244	0.014625
1881	9.4000e-01	-4.7822	-13.883924	0.000293	2.929909	0.992680	0.023947
1882	9.4050e-01	-4.7309	-13.818069	0.000161	1.611450	0.545974	0.013171
1883	9.4100e-01	-4.6972	-13.729551	0.000217	2.166040	0.733874	0.017704
1884	9.4150e-01	-4.6250	-13.634190	0.000233	2.333463	0.790599	0.019072
1885	9.4200e-01	-4.5865	-13.537547	0.000236	2.364855	0.801235	0.019329
1886	9.4250e-01	-4.5576	-13.454160	0.000204	2.040472	0.691331	0.016677
1887	9.4300e-01	-4.5592	-13.354524	-0.000244	-2.438103	-0.826052	0.019927
1888	9.4350e-01	-4.4758	-13.250183	0.000255	2.553206	0.865050	0.020868
1889	9.4400e-01	-4.4421	-13.168507	0.000200	1.998617	0.677150	0.016335
1890	9.4450e-01	-4.4148	-13.053475	0.000281	2.814806	0.953682	0.023006
1891	9.4500e-01	-4.3876	-12.981634	0.000176	1.757945	0.595608	0.014368
1892	9.4550e-01	-4.3330	-12.890550	0.000223	2.228824	0.755146	0.018217
1893	9.4600e-01	-4.2544	-12.806308	0.000206	2.061400	0.698421	0.016848
1894	9.4650e-01	-4.2368	-12.707526	0.000242	2.417175	0.818961	0.019756
1895	9.4700e-01	-4.1983	-12.617725	0.000220	2.197432	0.744510	0.017960
1896	9.4750e-01	-4.1534	-12.534338	0.000204	2.040472	0.691331	0.016677
1897	9.4800e-01	-4.1309	-12.416741	0.000288	2.877589	0.974954	0.023519
1898	9.4850e-01	-4.0892	-12.325229	0.000224	2.239288	0.758691	0.018302
1899	9.4900e-01	-4.0539	-12.246119	0.000194	1.935833	0.655878	0.015822
1900	9.4950e-01	-4.0090	-12.132798	0.000277	2.772950	0.939501	0.022664
1901	9.5000e-01	-3.9480	-12.051122	0.000200	1.998617	0.677150	0.016335
1902	9.5050e-01	-3.9127	-11.967307	0.000205	2.050936	0.694876	0.016763
1903	9.5100e-01	-3.8566	-11.873657	0.000229	2.291607	0.776418	0.018730
1904	9.5150e-01	-3.8534	-11.761192	0.000275	2.752022	0.932410	0.022493
1905	9.5200e-01	-3.8534	-11.667114	-0.000230	-2.302071	-0.779963	0.018816
1906	9.5250e-01	-3.7764	-11.572609	0.000231	2.312535	0.783508	0.018901
1907	9.5300e-01	-3.7314	-11.475966	0.000236	2.364855	0.801235	0.019329
1908	9.5350e-01	-3.6657	-11.399421	0.000187	1.873049	0.634606	0.015309
1909	9.5400e-01	-3.6544	-11.286100	0.000277	2.772950	0.939501	0.022664
1910	9.5450e-01	-3.5951	-11.189884	0.000235	2.354391	0.797689	0.019243
1911	9.5500e-01	-3.5502	-11.088110	0.000249	2.490423	0.843778	0.020355
1912	9.5550e-01	-3.5004	-11.034229	0.000132	1.318459	0.446706	0.010776
1913	9.5600e-01	-3.4700	-10.921763	0.000275	2.752022	0.932410	0.022493
1914	9.5650e-01	-3.4411	-10.828113	0.000229	2.291607	0.776418	0.018730
1915	9.5700e-01	-3.4058	-10.726766	0.000248	2.479959	0.840233	0.020269
1916	9.5750e-01	-3.3512	-10.619860	0.000262	2.615990	0.886321	0.021381
1917	9.5800e-01	-3.3320	-10.535190	0.000207	2.071864	0.701967	0.016934
1918	9.5850e-01	-3.2887	-10.426573	0.000266	2.657846	0.900503	0.021723
1919	9.5900e-01	-3.2534	-10.332923	0.000229	2.291607	0.776418	0.018730
1920	9.5950e-01	-3.2053	-10.250392	0.000202	2.019544	0.684240	0.016506
1921	9.6000e-01	-3.1427	-10.150327	0.000245	2.448567	0.829597	0.020013
1922	9.6050e-01	-3.1443	-10.053256	-0.000238	-2.375319	-0.804780	0.019414
1923	9.6100e-01	-3.1026	-9.945495	0.000264	2.636918	0.893412	0.021552
1924	9.6150e-01	-3.0609	-9.856976	0.000217	2.166040	0.733874	0.017704
1925	9.6200e-01	-3.0111	-9.771879	0.000208	2.082328	0.705512	0.017019
1926	9.6250e-01	-2.9662	-9.672242	0.000244	2.438103	0.826052	0.019927
1927	9.6300e-01	-2.9245	-9.578592	0.000229	2.291607	0.776418	0.018730
1928	9.6350e-01	-2.8620	-9.477673	0.000247	2.469495	0.836687	0.020184
1929	9.6400e-01	-2.8587	-9.383168	0.000231	2.312535	0.783508	0.018901
1930	9.6450e-01	-2.7946	-9.287807	0.000233	2.333463	0.790599	0.019072
1931	9.6500e-01	-2.7753	-9.184749	0.000252	2.521815	0.854414	0.020612
1932	9.6550e-01	-2.7015	-9.085113	0.000244	2.438103	0.826052	0.019927
1933	9.6600e-01	-2.6935	-8.987187	0.000240	2.396247	0.811870	0.019585
1934	9.6650e-01	-2.6502	-8.882418	0.000256	2.563670	0.868595	0.020954
1935	9.6700e-01	-2.6053	-8.766532	0.000284	2.835733	0.960772	0.023177
1936	9.6750e-01	-2.5379	-8.692125	0.000182	1.820729	0.616880	0.014881
1937	9.6800e-01	-2.5315	-8.585646	0.000261	2.605526	0.882776	0.021296
1938	9.6850e-01	-2.5010	-8.480023	0.000258	2.584598	0.875686	0.021125
1939	9.6900e-01	-2.4304	-8.391505	0.000217	2.166040	0.733874	0.017704
1940	9.6950e-01	-2.3743	-8.302986	0.000217	2.166040	0.733874	0.017704
1941	9.7000e-01	-2.3727	-8.184962	0.000289	2.888053	0.978499	0.023605
1942	9.7050e-01	-2.2924	-8.095588	0.000219	2.186968	0.740965	0.017875
1943	9.7100e-01	-2.2973	-7.963024	-0.000324	-3.243828	-1.099039	0.026513
1944	9.7150e-01	-2.1850	-7.907433	0.000136	1.360315	0.460887	0.011118
1945	9.7200e-01	-2.1657	-7.790691	0.000286	2.856661	0.967863	0.023348
1946	9.7250e-01	-2.1705	-7.699607	-0.000223	-2.228824	-0.755146	0.018217
1947	9.7300e-01	-2.1208	-7.582865	0.000286	2.856661	0.967863	0.023348
1948	9.7350e-01	-2.0807	-7.506748	0.000186	1.862585	0.631061	0.015223
1949	9.7400e-01	-2.0310	-7.393855	0.000276	2.762486	0.935955	0.022579
1950	9.7450e-01	-1.9957	-7.271554	0.000299	2.992693	1.013952	0.024460
1951	9.7500e-01	-1.9572	-7.178759	0.000227	2.270680	0.769327	0.018559
1952	9.7550e-01	-1.9171	-7.079978	0.000242	2.417175	0.818961	0.019756
1953	9.7600e-01	-1.8705	-7.001295	0.000193	1.925369	0.652333	0.015737
1954	9.7650e-01	-1.8561	-6.899092	0.000250	2.500887	0.847323	0.020440
1955	9.7700e-01	-1.8048	-6.775936	0.000301	3.013621	1.021042	0.024631
1956	9.7750e-01	-1.7470	-6.672023	0.000254	2.542743	0.861504	0.020783
1957	9.7800e-01	-1.7229	-6.582650	0.000219	2.186968	0.740965	0.017875
1958	9.7850e-01	-1.6732	-6.480447	0.000250	2.500887	0.847323	0.020440
1959	9.7900e-01	-1.6395	-6.360285	0.000294	2.940373	0.996225	0.024033
1960	9.7950e-01	-1.6139	-6.256799	0.000253	2.532279	0.857959	0.020697
1961	9.8000e-01	-1.5898	-6.147755	0.000267	2.668310	0.904048	0.021809
1962	9.8050e-01	-1.5112	-6.072493	0.000184	1.841657	0.623970	0.015052
1963	9.8100e-01	-1.4743	-5.964304	0.000265	2.647382	0.896957	0.021638
1964	9.8150e-01	-1.4262	-5.868943	0.000233	2.333463	0.790599	0.019072
1965	9.8200e-01	-1.3764	-5.754340	0.000280	2.804342	0.950137	0.022921
1966	9.8250e-01	-1.3780	-5.638881	-0.000283	-2.825269	-0.957227	0.023092
1967	9.8300e-01	-1.3235	-5.538389	0.000246	2.459031	0.833142	0.020098
1968	9.8350e-01	-1.2850	-5.430627	0.000264	2.636918	0.893412	0.021552
1969	9.8400e-01	-1.2657	-5.328425	0.000250	2.500887	0.847323	0.020440
1970	9.8450e-01	-1.2272	-5.222374	0.000260	2.595062	0.879231	0.021210
1971	9.8500e-01	-1.1550	-5.118033	0.000255	2.553206	0.865050	0.020868
1972	9.8550e-01	-1.1165	-5.034219	0.000205	2.050936	0.694876	0.016763
1973	9.8600e-01	-1.0748	-4.916194	0.000289	2.888053	0.978499	0.023605
1974	9.8650e-01	-1.0411	-4.817840	0.000241	2.406711	0.815416	0.019671
1975	9.8700e-01	-1.0010	-4.715638	0.000250	2.500887	0.847323	0.020440
1976	9.8750e-01	-0.9449	-4.613863	0.000249	2.490423	0.843778	0.020355
1977	9.8800e-01	-0.9032	-4.509095	0.000256	2.563670	0.868595	0.020954
1978	9.8850e-01	-0.9176	-4.394919	-0.000279	-2.793878	-0.946591	0.022835
1979	9.8900e-01	-0.8438	-4.285874	0.000267	2.668310	0.904048	0.021809
1980	9.8950e-01	-0.8198	-4.180678	0.000257	2.574134	0.872140	0.021039
1981	9.9000e-01	-0.7813	-4.071634	0.000267	2.668310	0.904048	0.021809
1982	9.9050e-01	-0.7283	-3.969004	0.000251	2.511351	0.850869	0.020526
1983	9.9100e-01	-0.6321	-3.888183	0.000198	1.977689	0.670059	0.016164
1984	9.9150e-01	-0.6289	-3.787691	0.000246	2.459031	0.833142	0.020098
1985	9.9200e-01	-0.6257	-3.660259	0.000312	3.118260	1.056495	0.025486
1986	9.9250e-01	-0.5583	-3.557628	0.000251	2.511351	0.850869	0.020526
1987	9.9300e-01	-0.5118	-3.464834	0.000227	2.270680	0.769327	0.018559
1988	9.9350e-01	-0.5021	-3.362631	0.000250	2.500887	0.847323	0.020440
1989	9.9400e-01	-0.4476	-3.251021	0.000273	2.731094	0.925320	0.022322
1990	9.9450e-01	-0.3866	-3.152667	0.000241	2.406711	0.815416	0.019671
1991	9.9500e-01	-0.4027	-3.029084	-0.000302	-3.024085	-1.024588	0.024717
1992	9.9550e-01	-0.3000	-2.920039	0.000267	2.668310	0.904048	0.021809
1993	9.9600e-01	-0.2695	-2.822968	0.000238	2.375319	0.804780	0.019414
1994	9.9650e-01	-0.2358	-2.683990	0.000340	3.400787	1.152218	0.027796
1995	9.9700e-01	-0.1925	-2.595472	0.000217	2.166040	0.733874	0.017704
1996	9.9750e-01	-0.1620	-2.496690	0.000242	2.417175	0.818961	0.019756
1997	9.9800e-01	-0.1364	-2.387218	0.000268	2.678774	0.907593	0.021894
1998	9.9850e-01	-0.0979	-2.280739	0.000261	2.605526	0.882776	0.021296
1999	9.9900e-01	-0.0305	-2.180247	0.000246	2.459031	0.833142	0.020098
2000	9.9950e-01	-0.0273	-2.052815	0.000312	3.118260	1.056495	0.025486
2001	1.0000e+00	0.0497	-1.954889	0.000312	3.118260	1.056495	0.019585

Center data before PMax,+/-Pr and +/-Vc Calc.

PMax (uC/cm2):	4.26e+01
Pr (uC/cm2):	1.75e-01
-Pr (uC/cm2):	-1.95e+00
PLoss (uC/cm2):	-9.96e-01
Vc:	4.62e-01
-Vc:	-8.22e-02
C (Max-Eff) (nF):	2.13e-01
K (Eff):	7.20e+02
Vert. (+/-Pr) Shift (uC/cm2):	-8.90e-01
Horiz. Shift (+/-Vc):	1.90e-01
Offset (uC/cm2):	9.33e-01

A (Loop Area - uC/cm2·Volts):	5.78e-02



Hysteresis Version: 5.48.1 - Radiant Technologies, Inc., 1999 - 9/12/24

