»»»»»»»»»»»»»»»»»»»»»»»»»»»»»»»»»»»» Hysteresis ««««««««««««««««««««««««««««««««««««
»»»  Executed Version:	5.48.1
»»»  Vision Version:	5.48.4 (R)
»»»  Vision Compiled:	9/18/24
»»»  Driver Version:	5.47.0
»»»  Windows Version:	Windows 8 or 8.1
»»»  Processor Information:	x86 (AMD or Intel) - 32 Processors
»»»  Tester Name:	PMF21124-494 (100V)
»»»  Tester S/N:	PMF21124-494
»»»  Internal Amp Type:	100V RevK 270k
»»»  Internal Amp S/N:	iAB2-596/K     
»»»  Execution Count:	1
»»»»»»»»»»»»»»»»»»»»»»»»»»»»»»»»»»»»»»»»»»««««««««««««««««««««««««««««««««««««««««««

Stored:	6/9/2025 - 11:40:29
Configured:	06/09/25 11:17:29 AM
Executed:	06/09/25 11:39:58 AM

»»»»»»»»»»»»»»»»»»»»»»»»»»»»»»»»»»» Sample Info ««««««««««««««««««««««««««««««««««««
Sample Name:	
Lot Name:	
Wafer Name:	
Die Row/Column:	0/0
Capacitor Number:	0
Sample Area (cm2):	1.00e-04
Sample Thickness (microns):	3.00e-01

Amplifier:	Internal

»»»»»»»»»»»»»»»»»»»»»»»»»»»»»»»»»»» Tester Info «««««««««««««««««««««««««««««««««««
Tester Name:	PMF21124-494 (100V)
Tester Serial Number:	PMF21124-494
Return Signal Amp. Level:	0.19 [Index: 3]

»»»»»»»»»»»»»»»»»»»»»»»»»»»»»»»» Hysteresis Info ««««««««««««««««««««««««««««««««««
Task Name:	Hyst-785
Volts:	20.00
Field:	666.67 (kV/cm)
DCBias:	0.00
DCField:	0.00 (kV/cm)
Hysteresis Period (ms):	2.00e+02
Preset:	Enabled
Preset Delay (ms):	1.00e+03
Profile:	Standard Bipolar

»»»»»»»»»»»»»»»»»»»»»»»»»»»»»»»»»»»»»» Data «««««««««««««««««««««««««««««««««««««««
Points:	2009

Valid Data

Point	Time (ms)	Drive Voltage	Measured Polarization (uC/cm2)	Capacitance (uF)	Normalized Capacitance (uF/cm2)	Dielectric Constant	Instantaneous Current (mA)
   1	0.0000e+00	-0.0112	-94.515403	0.000142	1.418652	0.480652	0.000057
   2	9.9500e-02	0.0273	-94.458883	0.000142	1.418652	0.480652	0.000057
   3	1.9900e-01	0.0674	-94.366029	0.000233	2.330642	0.789643	0.000093
   4	2.9850e-01	0.1011	-94.204544	0.000405	4.053290	1.373292	0.000162
   5	3.9800e-01	0.1428	-94.087467	0.000294	2.938635	0.995637	0.000118
   6	4.9750e-01	0.1749	-93.994613	0.000233	2.330642	0.789643	0.000093
   7	5.9700e-01	0.2342	-93.845239	0.000375	3.749294	1.270295	0.000150
   8	6.9650e-01	0.2519	-93.728162	0.000294	2.938635	0.995637	0.000118
   9	7.9600e-01	0.2984	-93.615122	0.000284	2.837303	0.961304	0.000114
  10	8.9550e-01	0.3433	-93.506119	0.000274	2.735971	0.926972	0.000110
  11	9.9500e-01	0.3866	-93.376931	0.000324	3.242632	1.098634	0.000130
  12	1.0945e+00	0.4235	-93.251780	0.000314	3.141300	1.064301	0.000126
  13	1.1940e+00	0.4620	-93.126629	0.000314	3.141300	1.064301	0.000126
  14	1.2935e+00	0.5053	-92.985329	0.000355	3.546629	1.201630	0.000142
  15	1.3930e+00	0.5406	-92.896512	0.000223	2.229310	0.755311	0.000089
  16	1.4925e+00	0.5807	-92.751175	0.000365	3.647961	1.235963	0.000146
  17	1.5920e+00	0.6240	-92.634098	0.000294	2.938635	0.995637	0.000118
  18	1.6915e+00	0.6674	-92.553355	0.000203	2.026645	0.686646	0.000081
  19	1.7910e+00	0.7091	-92.387833	0.000415	4.154623	1.407624	0.000166
  20	1.8905e+00	0.7379	-92.274793	0.000284	2.837303	0.961304	0.000114
  21	1.9900e+00	0.7845	-92.125419	0.000375	3.749294	1.270295	0.000150
  22	2.0895e+00	0.8262	-92.036602	0.000223	2.229310	0.755311	0.000089
  23	2.1890e+00	0.8695	-91.875117	0.000405	4.053290	1.373292	0.000162
  24	2.2885e+00	0.9096	-91.754002	0.000304	3.039968	1.029969	0.000122
  25	2.3880e+00	0.9449	-91.604628	0.000375	3.749294	1.270295	0.000150
  26	2.4875e+00	0.9770	-91.507737	0.000243	2.431974	0.823975	0.000097
  27	2.5870e+00	1.0219	-91.422957	0.000213	2.127977	0.720978	0.000085
  28	2.6865e+00	1.0620	-91.249361	0.000436	4.357287	1.476289	0.000174
  29	2.7860e+00	1.0989	-91.124209	0.000314	3.141300	1.064301	0.000126
  30	2.8855e+00	1.1342	-91.031355	0.000233	2.330642	0.789643	0.000093
  31	2.9850e+00	1.1727	-90.873907	0.000395	3.951958	1.338960	0.000158
  32	3.0845e+00	1.2192	-90.777016	0.000243	2.431974	0.823975	0.000097
  33	3.1840e+00	1.2577	-90.647827	0.000324	3.242632	1.098634	0.000130
  34	3.2835e+00	1.3058	-90.502490	0.000365	3.647961	1.235963	0.000146
  35	3.3830e+00	1.3363	-90.341005	0.000405	4.053290	1.373292	0.000162
  36	3.4825e+00	1.3796	-90.244114	0.000243	2.431974	0.823975	0.000097
  37	3.5820e+00	1.4133	-90.110888	0.000334	3.343965	1.132966	0.000134
  38	3.6815e+00	1.4486	-89.981700	0.000324	3.242632	1.098634	0.000130
  39	3.7810e+00	1.4984	-89.852512	0.000324	3.242632	1.098634	0.000130
  40	3.8805e+00	1.5417	-89.707175	0.000365	3.647961	1.235963	0.000146
  41	3.9800e+00	1.5850	-89.610283	0.000243	2.431974	0.823975	0.000097
  42	4.0795e+00	1.6203	-89.481095	0.000324	3.242632	1.098634	0.000130
  43	4.1790e+00	1.6604	-89.355944	0.000314	3.141300	1.064301	0.000126
  44	4.2785e+00	1.6989	-89.222718	0.000334	3.343965	1.132966	0.000134
  45	4.3780e+00	1.7486	-89.129864	0.000233	2.330642	0.789643	0.000093
  46	4.4775e+00	1.7871	-88.988565	0.000355	3.546629	1.201630	0.000142
  47	4.5770e+00	1.8208	-88.855339	0.000334	3.343965	1.132966	0.000134
  48	4.6765e+00	1.8705	-88.734225	0.000304	3.039968	1.029969	0.000122
  49	4.7760e+00	1.8978	-88.613111	0.000304	3.039968	1.029969	0.000122
  50	4.8755e+00	1.9315	-88.479885	0.000334	3.343965	1.132966	0.000134
  51	4.9750e+00	1.9780	-88.354734	0.000314	3.141300	1.064301	0.000126
  52	5.0745e+00	2.0245	-88.229583	0.000314	3.141300	1.064301	0.000126
  53	5.1740e+00	2.0630	-88.100395	0.000324	3.242632	1.098634	0.000130
  54	5.2735e+00	2.0967	-88.015615	0.000213	2.127977	0.720978	0.000085
  55	5.3730e+00	2.1320	-87.837981	0.000446	4.458619	1.510621	0.000179
  56	5.4725e+00	2.1753	-87.749164	0.000223	2.229310	0.755311	0.000089
  57	5.5720e+00	2.2170	-87.628050	0.000304	3.039968	1.029969	0.000122
  58	5.6715e+00	2.2523	-87.466564	0.000405	4.053290	1.373292	0.000162
  59	5.7710e+00	2.2908	-87.389859	0.000193	1.925313	0.652314	0.000077
  60	5.8705e+00	2.3454	-87.228373	0.000405	4.053290	1.373292	0.000162
  61	5.9700e+00	2.3743	-87.103222	0.000314	3.141300	1.064301	0.000126
  62	6.0695e+00	2.4112	-86.978071	0.000314	3.141300	1.064301	0.000126
  63	6.1690e+00	2.4529	-86.913477	0.000162	1.621316	0.549317	0.000065
  64	6.2685e+00	2.4946	-86.768140	0.000365	3.647961	1.235963	0.000146
  65	6.3680e+00	2.5315	-86.634914	0.000334	3.343965	1.132966	0.000134
  66	6.4675e+00	2.5700	-86.533986	0.000253	2.533306	0.858307	0.000101
  67	6.5670e+00	2.6149	-86.408835	0.000314	3.141300	1.064301	0.000126
  68	6.6665e+00	2.6598	-86.283684	0.000314	3.141300	1.064301	0.000126
  69	6.7660e+00	2.6887	-86.166607	0.000294	2.938635	0.995637	0.000118
  70	6.8655e+00	2.7272	-86.045493	0.000304	3.039968	1.029969	0.000122
  71	6.9650e+00	2.7817	-85.948601	0.000243	2.431974	0.823975	0.000097
  72	7.0645e+00	2.8170	-85.799227	0.000375	3.749294	1.270295	0.000150
  73	7.1640e+00	2.8539	-85.649853	0.000375	3.749294	1.270295	0.000150
  74	7.2635e+00	2.8908	-85.548925	0.000253	2.533306	0.858307	0.000101
  75	7.3630e+00	2.9277	-85.443959	0.000263	2.634639	0.892640	0.000105
  76	7.4625e+00	2.9726	-85.347068	0.000243	2.431974	0.823975	0.000097
  77	7.5620e+00	3.0208	-85.193657	0.000385	3.850626	1.304627	0.000154
  78	7.6615e+00	3.0625	-85.072543	0.000304	3.039968	1.029969	0.000122
  79	7.7610e+00	3.0962	-84.951429	0.000304	3.039968	1.029969	0.000122
  80	7.8605e+00	3.1347	-84.830315	0.000304	3.039968	1.029969	0.000122
  81	7.9600e+00	3.1796	-84.721312	0.000274	2.735971	0.926972	0.000110
  82	8.0595e+00	3.2069	-84.616347	0.000263	2.634639	0.892640	0.000105
  83	8.1590e+00	3.2502	-84.483121	0.000334	3.343965	1.132966	0.000134
  84	8.2585e+00	3.2951	-84.382193	0.000253	2.533306	0.858307	0.000101
  85	8.3580e+00	3.3320	-84.248967	0.000334	3.343965	1.132966	0.000134
  86	8.4575e+00	3.3705	-84.135927	0.000284	2.837303	0.961304	0.000114
  87	8.5570e+00	3.4154	-84.039036	0.000243	2.431974	0.823975	0.000097
  88	8.6565e+00	3.4587	-83.889662	0.000375	3.749294	1.270295	0.000150
  89	8.7560e+00	3.5004	-83.748362	0.000355	3.546629	1.201630	0.000142
  90	8.8555e+00	3.5277	-83.655508	0.000233	2.330642	0.789643	0.000093
  91	8.9550e+00	3.5823	-83.534394	0.000304	3.039968	1.029969	0.000122
  92	9.0545e+00	3.6111	-83.417317	0.000294	2.938635	0.995637	0.000118
  93	9.1540e+00	3.6512	-83.328500	0.000223	2.229310	0.755311	0.000089
  94	9.2535e+00	3.6945	-83.191238	0.000345	3.445297	1.167298	0.000138
  95	9.3530e+00	3.7330	-83.070124	0.000304	3.039968	1.029969	0.000122
  96	9.4525e+00	3.7748	-82.957084	0.000284	2.837303	0.961304	0.000114
  97	9.5520e+00	3.8117	-82.868267	0.000223	2.229310	0.755311	0.000089
  98	9.6515e+00	3.8582	-82.726967	0.000355	3.546629	1.201630	0.000142
  99	9.7510e+00	3.8983	-82.601816	0.000314	3.141300	1.064301	0.000126
 100	9.8505e+00	3.9256	-82.492813	0.000274	2.735971	0.926972	0.000110
 101	9.9500e+00	3.9801	-82.367662	0.000314	3.141300	1.064301	0.000126
 102	1.0050e+01	4.0090	-82.274808	0.000233	2.330642	0.789643	0.000093
 103	1.0149e+01	4.0555	-82.161768	0.000284	2.837303	0.961304	0.000114
 104	1.0248e+01	4.0828	-82.068914	0.000233	2.330642	0.789643	0.000093
 105	1.0348e+01	4.1293	-81.915503	0.000385	3.850626	1.304627	0.000154
 106	1.0447e+01	4.1726	-81.798426	0.000294	2.938635	0.995637	0.000118
 107	1.0547e+01	4.2111	-81.657126	0.000355	3.546629	1.201630	0.000142
 108	1.0646e+01	4.2480	-81.552160	0.000263	2.634639	0.892640	0.000105
 109	1.0746e+01	4.2833	-81.451232	0.000253	2.533306	0.858307	0.000101
 110	1.0845e+01	4.3314	-81.354341	0.000243	2.431974	0.823975	0.000097
 111	1.0945e+01	4.3667	-81.209004	0.000365	3.647961	1.235963	0.000146
 112	1.1044e+01	4.4052	-81.148447	0.000152	1.519984	0.514984	0.000061
 113	1.1144e+01	4.4517	-81.003110	0.000365	3.647961	1.235963	0.000146
 114	1.1243e+01	4.4935	-80.906219	0.000243	2.431974	0.823975	0.000097
 115	1.1343e+01	4.5239	-80.805290	0.000253	2.533306	0.858307	0.000101
 116	1.1443e+01	4.5705	-80.684176	0.000304	3.039968	1.029969	0.000122
 117	1.1542e+01	4.6090	-80.591322	0.000233	2.330642	0.789643	0.000093
 118	1.1642e+01	4.6459	-80.441948	0.000375	3.749294	1.270295	0.000150
 119	1.1741e+01	4.6908	-80.365243	0.000193	1.925313	0.652314	0.000077
 120	1.1841e+01	4.7357	-80.244128	0.000304	3.039968	1.029969	0.000122
 121	1.1940e+01	4.7582	-80.098792	0.000365	3.647961	1.235963	0.000146
 122	1.2040e+01	4.8079	-80.022086	0.000193	1.925313	0.652314	0.000077
 123	1.2139e+01	4.8480	-79.909046	0.000284	2.837303	0.961304	0.000114
 124	1.2239e+01	4.8881	-79.804081	0.000263	2.634639	0.892640	0.000105
 125	1.2338e+01	4.9378	-79.687004	0.000294	2.938635	0.995637	0.000118
 126	1.2438e+01	4.9619	-79.573964	0.000284	2.837303	0.961304	0.000114
 127	1.2537e+01	5.0116	-79.452850	0.000304	3.039968	1.029969	0.000122
 128	1.2636e+01	5.0437	-79.327699	0.000314	3.141300	1.064301	0.000126
 129	1.2736e+01	5.0870	-79.242919	0.000213	2.127977	0.720978	0.000085
 130	1.2835e+01	5.1255	-79.109693	0.000334	3.343965	1.132966	0.000134
 131	1.2935e+01	5.1624	-78.984542	0.000314	3.141300	1.064301	0.000126
 132	1.3034e+01	5.2138	-78.863428	0.000304	3.039968	1.029969	0.000122
 133	1.3134e+01	5.2458	-78.734240	0.000324	3.242632	1.098634	0.000130
 134	1.3233e+01	5.2876	-78.637348	0.000243	2.431974	0.823975	0.000097
 135	1.3333e+01	5.3325	-78.528346	0.000274	2.735971	0.926972	0.000110
 136	1.3432e+01	5.3662	-78.399157	0.000324	3.242632	1.098634	0.000130
 137	1.3532e+01	5.4047	-78.306303	0.000233	2.330642	0.789643	0.000093
 138	1.3632e+01	5.4480	-78.193264	0.000284	2.837303	0.961304	0.000114
 139	1.3731e+01	5.4897	-78.096372	0.000243	2.431974	0.823975	0.000097
 140	1.3831e+01	5.5330	-77.979295	0.000294	2.938635	0.995637	0.000118
 141	1.3930e+01	5.5715	-77.866256	0.000284	2.837303	0.961304	0.000114
 142	1.4030e+01	5.6100	-77.749179	0.000294	2.938635	0.995637	0.000118
 143	1.4129e+01	5.6517	-77.607879	0.000355	3.546629	1.201630	0.000142
 144	1.4229e+01	5.6870	-77.486765	0.000304	3.039968	1.029969	0.000122
 145	1.4328e+01	5.7143	-77.410059	0.000193	1.925313	0.652314	0.000077
 146	1.4428e+01	5.7640	-77.292982	0.000294	2.938635	0.995637	0.000118
 147	1.4527e+01	5.8009	-77.192054	0.000253	2.533306	0.858307	0.000101
 148	1.4627e+01	5.8474	-77.066903	0.000314	3.141300	1.064301	0.000126
 149	1.4726e+01	5.8843	-76.965974	0.000253	2.533306	0.858307	0.000101
 150	1.4825e+01	5.9292	-76.824675	0.000355	3.546629	1.201630	0.000142
 151	1.4925e+01	5.9694	-76.699523	0.000314	3.141300	1.064301	0.000126
 152	1.5024e+01	6.0030	-76.622818	0.000193	1.925313	0.652314	0.000077
 153	1.5124e+01	6.0464	-76.501704	0.000304	3.039968	1.029969	0.000122
 154	1.5223e+01	6.0800	-76.368478	0.000334	3.343965	1.132966	0.000134
 155	1.5323e+01	6.1201	-76.259476	0.000274	2.735971	0.926972	0.000110
 156	1.5422e+01	6.1635	-76.130287	0.000324	3.242632	1.098634	0.000130
 157	1.5522e+01	6.2020	-76.009173	0.000304	3.039968	1.029969	0.000122
 158	1.5621e+01	6.2501	-75.932468	0.000193	1.925313	0.652314	0.000077
 159	1.5721e+01	6.2838	-75.827502	0.000263	2.634639	0.892640	0.000105
 160	1.5820e+01	6.3223	-75.718499	0.000274	2.735971	0.926972	0.000110
 161	1.5920e+01	6.3624	-75.565088	0.000385	3.850626	1.304627	0.000154
 162	1.6020e+01	6.4137	-75.464160	0.000253	2.533306	0.858307	0.000101
 163	1.6119e+01	6.4426	-75.375343	0.000223	2.229310	0.755311	0.000089
 164	1.6218e+01	6.4907	-75.254229	0.000304	3.039968	1.029969	0.000122
 165	1.6318e+01	6.5196	-75.153300	0.000253	2.533306	0.858307	0.000101
 166	1.6418e+01	6.5581	-75.028149	0.000314	3.141300	1.064301	0.000126
 167	1.6517e+01	6.5870	-74.911072	0.000294	2.938635	0.995637	0.000118
 168	1.6616e+01	6.6431	-74.810144	0.000253	2.533306	0.858307	0.000101
 169	1.6716e+01	6.6768	-74.684993	0.000314	3.141300	1.064301	0.000126
 170	1.6816e+01	6.7201	-74.600213	0.000213	2.127977	0.720978	0.000085
 171	1.6915e+01	6.7522	-74.483136	0.000294	2.938635	0.995637	0.000118
 172	1.7015e+01	6.7971	-74.353947	0.000324	3.242632	1.098634	0.000130
 173	1.7114e+01	6.8453	-74.244945	0.000274	2.735971	0.926972	0.000110
 174	1.7213e+01	6.8838	-74.152091	0.000233	2.330642	0.789643	0.000093
 175	1.7313e+01	6.9158	-74.047125	0.000263	2.634639	0.892640	0.000105
 176	1.7413e+01	6.9592	-73.934085	0.000284	2.837303	0.961304	0.000114
 177	1.7512e+01	6.9961	-73.784711	0.000375	3.749294	1.270295	0.000150
 178	1.7611e+01	7.0330	-73.695894	0.000223	2.229310	0.755311	0.000089
 179	1.7711e+01	7.0715	-73.578817	0.000294	2.938635	0.995637	0.000118
 180	1.7811e+01	7.1212	-73.461740	0.000294	2.938635	0.995637	0.000118
 181	1.7910e+01	7.1581	-73.372923	0.000223	2.229310	0.755311	0.000089
 182	1.8009e+01	7.1950	-73.223549	0.000375	3.749294	1.270295	0.000150
 183	1.8109e+01	7.2399	-73.098398	0.000314	3.141300	1.064301	0.000126
 184	1.8209e+01	7.2896	-72.989396	0.000274	2.735971	0.926972	0.000110
 185	1.8308e+01	7.3137	-72.880393	0.000274	2.735971	0.926972	0.000110
 186	1.8407e+01	7.3522	-72.722945	0.000395	3.951958	1.338960	0.000158
 187	1.8507e+01	7.3955	-72.630090	0.000233	2.330642	0.789643	0.000093
 188	1.8607e+01	7.4372	-72.517051	0.000284	2.837303	0.961304	0.000114
 189	1.8706e+01	7.4805	-72.363640	0.000385	3.850626	1.304627	0.000154
 190	1.8805e+01	7.5190	-72.226377	0.000345	3.445297	1.167298	0.000138
 191	1.8905e+01	7.5575	-72.129486	0.000243	2.431974	0.823975	0.000097
 192	1.9005e+01	7.6057	-72.004334	0.000314	3.141300	1.064301	0.000126
 193	1.9104e+01	7.6474	-71.863035	0.000355	3.546629	1.201630	0.000142
 194	1.9203e+01	7.6779	-71.741921	0.000304	3.039968	1.029969	0.000122
 195	1.9303e+01	7.7180	-71.628881	0.000284	2.837303	0.961304	0.000114
 196	1.9402e+01	7.7565	-71.491618	0.000345	3.445297	1.167298	0.000138
 197	1.9502e+01	7.8014	-71.374541	0.000294	2.938635	0.995637	0.000118
 198	1.9602e+01	7.8351	-71.245353	0.000324	3.242632	1.098634	0.000130
 199	1.9701e+01	7.8832	-71.104053	0.000355	3.546629	1.201630	0.000142
 200	1.9800e+01	7.9153	-70.991013	0.000284	2.837303	0.961304	0.000114
 201	1.9900e+01	7.9554	-70.813379	0.000446	4.458619	1.510621	0.000179
 202	2.0000e+01	7.9923	-70.720525	0.000233	2.330642	0.789643	0.000093
 203	2.0099e+01	8.0324	-70.567114	0.000385	3.850626	1.304627	0.000154
 204	2.0198e+01	8.0741	-70.498483	0.000172	1.722648	0.583649	0.000069
 205	2.0298e+01	8.1158	-70.365257	0.000334	3.343965	1.132966	0.000134
 206	2.0398e+01	8.1527	-70.268366	0.000243	2.431974	0.823975	0.000097
 207	2.0497e+01	8.1976	-70.123029	0.000365	3.647961	1.235963	0.000146
 208	2.0596e+01	8.2377	-70.034212	0.000223	2.229310	0.755311	0.000089
 209	2.0696e+01	8.2698	-69.905024	0.000324	3.242632	1.098634	0.000130
 210	2.0796e+01	8.3212	-69.840430	0.000162	1.621316	0.549317	0.000065
 211	2.0895e+01	8.3500	-69.687019	0.000385	3.850626	1.304627	0.000154
 212	2.0994e+01	8.4014	-69.545719	0.000355	3.546629	1.201630	0.000142
 213	2.1094e+01	8.4270	-69.444790	0.000253	2.533306	0.858307	0.000101
 214	2.1194e+01	8.4720	-69.319639	0.000314	3.141300	1.064301	0.000126
 215	2.1293e+01	8.5137	-69.206599	0.000284	2.837303	0.961304	0.000114
 216	2.1392e+01	8.5618	-69.085485	0.000304	3.039968	1.029969	0.000122
 217	2.1492e+01	8.5971	-68.984557	0.000253	2.533306	0.858307	0.000101
 218	2.1591e+01	8.6372	-68.887666	0.000243	2.431974	0.823975	0.000097
 219	2.1691e+01	8.6693	-68.754440	0.000334	3.343965	1.132966	0.000134
 220	2.1791e+01	8.7094	-68.661586	0.000233	2.330642	0.789643	0.000093
 221	2.1890e+01	8.7479	-68.540472	0.000304	3.039968	1.029969	0.000122
 222	2.1989e+01	8.8024	-68.431469	0.000274	2.735971	0.926972	0.000110
 223	2.2089e+01	8.8313	-68.330541	0.000253	2.533306	0.858307	0.000101
 224	2.2189e+01	8.8730	-68.197315	0.000334	3.343965	1.132966	0.000134
 225	2.2288e+01	8.9035	-68.076201	0.000304	3.039968	1.029969	0.000122
 226	2.2387e+01	8.9468	-67.955087	0.000304	3.039968	1.029969	0.000122
 227	2.2487e+01	8.9901	-67.862233	0.000233	2.330642	0.789643	0.000093
 228	2.2587e+01	9.0302	-67.716896	0.000365	3.647961	1.235963	0.000146
 229	2.2686e+01	9.0671	-67.668451	0.000122	1.215987	0.411988	0.000049
 230	2.2785e+01	9.1088	-67.523114	0.000365	3.647961	1.235963	0.000146
 231	2.2885e+01	9.1570	-67.410074	0.000284	2.837303	0.961304	0.000114
 232	2.2985e+01	9.1874	-67.280886	0.000324	3.242632	1.098634	0.000130
 233	2.3084e+01	9.2420	-67.163809	0.000294	2.938635	0.995637	0.000118
 234	2.3183e+01	9.2741	-67.087103	0.000193	1.925313	0.652314	0.000077
 235	2.3283e+01	9.3174	-66.953878	0.000334	3.343965	1.132966	0.000134
 236	2.3383e+01	9.3527	-66.828726	0.000314	3.141300	1.064301	0.000126
 237	2.3482e+01	9.3864	-66.715687	0.000284	2.837303	0.961304	0.000114
 238	2.3581e+01	9.4249	-66.606684	0.000274	2.735971	0.926972	0.000110
 239	2.3681e+01	9.4714	-66.497681	0.000274	2.735971	0.926972	0.000110
 240	2.3780e+01	9.5131	-66.404827	0.000233	2.330642	0.789643	0.000093
 241	2.3880e+01	9.5484	-66.243342	0.000405	4.053290	1.373292	0.000162
 242	2.3980e+01	9.5885	-66.190859	0.000132	1.317319	0.446320	0.000053
 243	2.4079e+01	9.6222	-66.005151	0.000466	4.661284	1.579286	0.000187
 244	2.4178e+01	9.6703	-65.940557	0.000162	1.621316	0.549317	0.000065
 245	2.4278e+01	9.7040	-65.811368	0.000324	3.242632	1.098634	0.000130
 246	2.4378e+01	9.7409	-65.714477	0.000243	2.431974	0.823975	0.000097
 247	2.4477e+01	9.7874	-65.605474	0.000274	2.735971	0.926972	0.000110
 248	2.4576e+01	9.8211	-65.464175	0.000355	3.546629	1.201630	0.000142
 249	2.4676e+01	9.8741	-65.367283	0.000243	2.431974	0.823975	0.000097
 250	2.4776e+01	9.9045	-65.246169	0.000304	3.039968	1.029969	0.000122
 251	2.4875e+01	9.9559	-65.173501	0.000182	1.823981	0.617981	0.000073
 252	2.4974e+01	9.9847	-65.012015	0.000405	4.053290	1.373292	0.000162
 253	2.5074e+01	10.0329	-64.915124	0.000243	2.431974	0.823975	0.000097
 254	2.5174e+01	10.0617	-64.814196	0.000253	2.533306	0.858307	0.000101
 255	2.5273e+01	10.1067	-64.672896	0.000355	3.546629	1.201630	0.000142
 256	2.5372e+01	10.1500	-64.571968	0.000253	2.533306	0.858307	0.000101
 257	2.5472e+01	10.1981	-64.467002	0.000263	2.634639	0.892640	0.000105
 258	2.5572e+01	10.2270	-64.345888	0.000304	3.039968	1.029969	0.000122
 259	2.5671e+01	10.2703	-64.257071	0.000223	2.229310	0.755311	0.000089
 260	2.5770e+01	10.3088	-64.095586	0.000405	4.053290	1.373292	0.000162
 261	2.5870e+01	10.3425	-64.026954	0.000172	1.722648	0.583649	0.000069
 262	2.5970e+01	10.3842	-63.921989	0.000263	2.634639	0.892640	0.000105
 263	2.6069e+01	10.4259	-63.764540	0.000395	3.951958	1.338960	0.000158
 264	2.6169e+01	10.4628	-63.631315	0.000334	3.343965	1.132966	0.000134
 265	2.6268e+01	10.5029	-63.558646	0.000182	1.823981	0.617981	0.000073
 266	2.6367e+01	10.5430	-63.441570	0.000294	2.938635	0.995637	0.000118
 267	2.6467e+01	10.5911	-63.320455	0.000304	3.039968	1.029969	0.000122
 268	2.6567e+01	10.6296	-63.203379	0.000294	2.938635	0.995637	0.000118
 269	2.6666e+01	10.6665	-63.114562	0.000223	2.229310	0.755311	0.000089
 270	2.6765e+01	10.7002	-63.005559	0.000274	2.735971	0.926972	0.000110
 271	2.6865e+01	10.7484	-62.868296	0.000345	3.445297	1.167298	0.000138
 272	2.6965e+01	10.7788	-62.807739	0.000152	1.519984	0.514984	0.000061
 273	2.7064e+01	10.8238	-62.646254	0.000405	4.053290	1.373292	0.000162
 274	2.7163e+01	10.8639	-62.529177	0.000294	2.938635	0.995637	0.000118
 275	2.7263e+01	10.9120	-62.448434	0.000203	2.026645	0.686646	0.000081
 276	2.7363e+01	10.9505	-62.303097	0.000365	3.647961	1.235963	0.000146
 277	2.7462e+01	10.9874	-62.230429	0.000182	1.823981	0.617981	0.000073
 278	2.7561e+01	11.0227	-62.052795	0.000446	4.458619	1.510621	0.000179
 279	2.7661e+01	11.0612	-61.984164	0.000172	1.722648	0.583649	0.000069
 280	2.7761e+01	11.1061	-61.887272	0.000243	2.431974	0.823975	0.000097
 281	2.7860e+01	11.1478	-61.758084	0.000324	3.242632	1.098634	0.000130
 282	2.7959e+01	11.1847	-61.653118	0.000263	2.634639	0.892640	0.000105
 283	2.8059e+01	11.2280	-61.523930	0.000324	3.242632	1.098634	0.000130
 284	2.8159e+01	11.2617	-61.423002	0.000253	2.533306	0.858307	0.000101
 285	2.8258e+01	11.3002	-61.313999	0.000274	2.735971	0.926972	0.000110
 286	2.8358e+01	11.3516	-61.204996	0.000274	2.735971	0.926972	0.000110
 287	2.8457e+01	11.3820	-61.100031	0.000263	2.634639	0.892640	0.000105
 288	2.8556e+01	11.4253	-60.962768	0.000345	3.445297	1.167298	0.000138
 289	2.8656e+01	11.4606	-60.894137	0.000172	1.722648	0.583649	0.000069
 290	2.8756e+01	11.5072	-60.756874	0.000345	3.445297	1.167298	0.000138
 291	2.8855e+01	11.5441	-60.672094	0.000213	2.127977	0.720978	0.000085
 292	2.8954e+01	11.5810	-60.550980	0.000304	3.039968	1.029969	0.000122
 293	2.9054e+01	11.6227	-60.417755	0.000334	3.343965	1.132966	0.000134
 294	2.9154e+01	11.6724	-60.308752	0.000274	2.735971	0.926972	0.000110
 295	2.9253e+01	11.7109	-60.175527	0.000334	3.343965	1.132966	0.000134
 296	2.9352e+01	11.7430	-60.074598	0.000253	2.533306	0.858307	0.000101
 297	2.9452e+01	11.7767	-59.961559	0.000284	2.837303	0.961304	0.000114
 298	2.9552e+01	11.8200	-59.872742	0.000223	2.229310	0.755311	0.000089
 299	2.9651e+01	11.8665	-59.735479	0.000345	3.445297	1.167298	0.000138
 300	2.9750e+01	11.9050	-59.594179	0.000355	3.546629	1.201630	0.000142
 301	2.9850e+01	11.9419	-59.452879	0.000355	3.546629	1.201630	0.000142
 302	2.9950e+01	11.9836	-59.364062	0.000223	2.229310	0.755311	0.000089
 303	3.0049e+01	12.0157	-59.222763	0.000355	3.546629	1.201630	0.000142
 304	3.0148e+01	12.0590	-59.077426	0.000365	3.647961	1.235963	0.000146
 305	3.0248e+01	12.1007	-58.964386	0.000284	2.837303	0.961304	0.000114
 306	3.0348e+01	12.1408	-58.847309	0.000294	2.938635	0.995637	0.000118
 307	3.0447e+01	12.1809	-58.786752	0.000152	1.519984	0.514984	0.000061
 308	3.0547e+01	12.2307	-58.597007	0.000476	4.762616	1.613618	0.000191
 309	3.0646e+01	12.2563	-58.475893	0.000304	3.039968	1.029969	0.000122
 310	3.0745e+01	12.2980	-58.370927	0.000263	2.634639	0.892640	0.000105
 311	3.0845e+01	12.3430	-58.241739	0.000324	3.242632	1.098634	0.000130
 312	3.0945e+01	12.3783	-58.076216	0.000415	4.154623	1.407624	0.000166
 313	3.1044e+01	12.4119	-57.959139	0.000294	2.938635	0.995637	0.000118
 314	3.1143e+01	12.4601	-57.882434	0.000193	1.925313	0.652314	0.000077
 315	3.1243e+01	12.5002	-57.769394	0.000284	2.837303	0.961304	0.000114
 316	3.1343e+01	12.5403	-57.664428	0.000263	2.634639	0.892640	0.000105
 317	3.1442e+01	12.5804	-57.523129	0.000355	3.546629	1.201630	0.000142
 318	3.1541e+01	12.6205	-57.389903	0.000334	3.343965	1.132966	0.000134
 319	3.1641e+01	12.6590	-57.236492	0.000385	3.850626	1.304627	0.000154
 320	3.1741e+01	12.7023	-57.159786	0.000193	1.925313	0.652314	0.000077
 321	3.1840e+01	12.7376	-57.018487	0.000355	3.546629	1.201630	0.000142
 322	3.1939e+01	12.7745	-56.901410	0.000294	2.938635	0.995637	0.000118
 323	3.2039e+01	12.8098	-56.739924	0.000405	4.053290	1.373292	0.000162
 324	3.2139e+01	12.8563	-56.663219	0.000193	1.925313	0.652314	0.000077
 325	3.2238e+01	12.8996	-56.517882	0.000365	3.647961	1.235963	0.000146
 326	3.2337e+01	12.9381	-56.396768	0.000304	3.039968	1.029969	0.000122
 327	3.2437e+01	12.9750	-56.311988	0.000213	2.127977	0.720978	0.000085
 328	3.2536e+01	13.0119	-56.182799	0.000324	3.242632	1.098634	0.000130
 329	3.2636e+01	13.0440	-56.049574	0.000334	3.343965	1.132966	0.000134
 330	3.2736e+01	13.1002	-55.875977	0.000436	4.357287	1.476289	0.000174
 331	3.2835e+01	13.1387	-55.771012	0.000263	2.634639	0.892640	0.000105
 332	3.2934e+01	13.1708	-55.662009	0.000274	2.735971	0.926972	0.000110
 333	3.3034e+01	13.2157	-55.516672	0.000365	3.647961	1.235963	0.000146
 334	3.3133e+01	13.2638	-55.375372	0.000355	3.546629	1.201630	0.000142
 335	3.3233e+01	13.2943	-55.242147	0.000334	3.343965	1.132966	0.000134
 336	3.3333e+01	13.3296	-55.153330	0.000223	2.229310	0.755311	0.000089
 337	3.3432e+01	13.3777	-54.999919	0.000385	3.850626	1.304627	0.000154
 338	3.3532e+01	13.4162	-54.842470	0.000395	3.951958	1.338960	0.000158
 339	3.3631e+01	13.4515	-54.725393	0.000294	2.938635	0.995637	0.000118
 340	3.3730e+01	13.4948	-54.584094	0.000355	3.546629	1.201630	0.000142
 341	3.3830e+01	13.5285	-54.450868	0.000334	3.343965	1.132966	0.000134
 342	3.3929e+01	13.5702	-54.317643	0.000334	3.343965	1.132966	0.000134
 343	3.4029e+01	13.6183	-54.180380	0.000345	3.445297	1.167298	0.000138
 344	3.4129e+01	13.6552	-54.031006	0.000375	3.749294	1.270295	0.000150
 345	3.4228e+01	13.6953	-53.909892	0.000304	3.039968	1.029969	0.000122
 346	3.4328e+01	13.7290	-53.772629	0.000345	3.445297	1.167298	0.000138
 347	3.4427e+01	13.7691	-53.651515	0.000304	3.039968	1.029969	0.000122
 348	3.4526e+01	13.8092	-53.510216	0.000355	3.546629	1.201630	0.000142
 349	3.4626e+01	13.8542	-53.372953	0.000345	3.445297	1.167298	0.000138
 350	3.4725e+01	13.8911	-53.247802	0.000314	3.141300	1.064301	0.000126
 351	3.4825e+01	13.9263	-53.118613	0.000324	3.242632	1.098634	0.000130
 352	3.4925e+01	13.9729	-52.981351	0.000345	3.445297	1.167298	0.000138
 353	3.5024e+01	14.0066	-52.799680	0.000456	4.559952	1.544953	0.000183
 354	3.5123e+01	14.0515	-52.670491	0.000324	3.242632	1.098634	0.000130
 355	3.5223e+01	14.0932	-52.521117	0.000375	3.749294	1.270295	0.000150
 356	3.5322e+01	14.1365	-52.391929	0.000324	3.242632	1.098634	0.000130
 357	3.5422e+01	14.1814	-52.234481	0.000395	3.951958	1.338960	0.000158
 358	3.5522e+01	14.1991	-52.129515	0.000263	2.634639	0.892640	0.000105
 359	3.5621e+01	14.2520	-51.947844	0.000456	4.559952	1.544953	0.000183
 360	3.5721e+01	14.2921	-51.810581	0.000345	3.445297	1.167298	0.000138
 361	3.5820e+01	14.3274	-51.665245	0.000365	3.647961	1.235963	0.000146
 362	3.5919e+01	14.3723	-51.503759	0.000405	4.053290	1.373292	0.000162
 363	3.6019e+01	14.4044	-51.414942	0.000223	2.229310	0.755311	0.000089
 364	3.6118e+01	14.4557	-51.289791	0.000314	3.141300	1.064301	0.000126
 365	3.6218e+01	14.4830	-51.144454	0.000365	3.647961	1.235963	0.000146
 366	3.6318e+01	14.5295	-51.007191	0.000345	3.445297	1.167298	0.000138
 367	3.6417e+01	14.5648	-50.861855	0.000365	3.647961	1.235963	0.000146
 368	3.6517e+01	14.6178	-50.748815	0.000284	2.837303	0.961304	0.000114
 369	3.6616e+01	14.6499	-50.603478	0.000365	3.647961	1.235963	0.000146
 370	3.6715e+01	14.6884	-50.462178	0.000355	3.546629	1.201630	0.000142
 371	3.6815e+01	14.7381	-50.292618	0.000426	4.255955	1.441957	0.000170
 372	3.6914e+01	14.7670	-50.171504	0.000304	3.039968	1.029969	0.000122
 373	3.7014e+01	14.8023	-50.070576	0.000253	2.533306	0.858307	0.000101
 374	3.7114e+01	14.8504	-49.945425	0.000314	3.141300	1.064301	0.000126
 375	3.7213e+01	14.8825	-49.804125	0.000355	3.546629	1.201630	0.000142
 376	3.7313e+01	14.9242	-49.699160	0.000263	2.634639	0.892640	0.000105
 377	3.7412e+01	14.9707	-49.569971	0.000324	3.242632	1.098634	0.000130
 378	3.7511e+01	15.0108	-49.452894	0.000294	2.938635	0.995637	0.000118
 379	3.7611e+01	15.0413	-49.307557	0.000365	3.647961	1.235963	0.000146
 380	3.7711e+01	15.0862	-49.154146	0.000385	3.850626	1.304627	0.000154
 381	3.7810e+01	15.1375	-48.980549	0.000436	4.357287	1.476289	0.000174
 382	3.7910e+01	15.1696	-48.827138	0.000385	3.850626	1.304627	0.000154
 383	3.8009e+01	15.2033	-48.697950	0.000324	3.242632	1.098634	0.000130
 384	3.8108e+01	15.2466	-48.536464	0.000405	4.053290	1.373292	0.000162
 385	3.8208e+01	15.2835	-48.358830	0.000446	4.458619	1.510621	0.000179
 386	3.8307e+01	15.3300	-48.261939	0.000243	2.431974	0.823975	0.000097
 387	3.8407e+01	15.3750	-48.084305	0.000446	4.458619	1.510621	0.000179
 388	3.8507e+01	15.4006	-47.951080	0.000334	3.343965	1.132966	0.000134
 389	3.8606e+01	15.4456	-47.785557	0.000415	4.154623	1.407624	0.000166
 390	3.8706e+01	15.4889	-47.575626	0.000527	5.269277	1.785280	0.000211
 391	3.8805e+01	15.5322	-47.470661	0.000263	2.634639	0.892640	0.000105
 392	3.8904e+01	15.5643	-47.321287	0.000375	3.749294	1.270295	0.000150
 393	3.9004e+01	15.6044	-47.155764	0.000415	4.154623	1.407624	0.000166
 394	3.9103e+01	15.6477	-46.925647	0.000578	5.775939	1.956941	0.000231
 395	3.9203e+01	15.6846	-46.772236	0.000385	3.850626	1.304627	0.000154
 396	3.9303e+01	15.7167	-46.610751	0.000405	4.053290	1.373292	0.000162
 397	3.9402e+01	15.7648	-46.421005	0.000476	4.762616	1.613618	0.000191
 398	3.9502e+01	15.7969	-46.203000	0.000547	5.471942	1.853944	0.000219
 399	3.9601e+01	15.8450	-46.021329	0.000456	4.559952	1.544953	0.000183
 400	3.9700e+01	15.8819	-45.762952	0.000649	6.485265	2.197267	0.000260
 401	3.9800e+01	15.9268	-45.540910	0.000557	5.573274	1.888276	0.000223
 402	3.9900e+01	15.9653	-45.387499	0.000385	3.850626	1.304627	0.000154
 403	3.9999e+01	16.0102	-45.137196	0.000628	6.282600	2.128603	0.000252
 404	4.0099e+01	16.0375	-44.886894	0.000628	6.282600	2.128603	0.000252
 405	4.0198e+01	16.0872	-44.563923	0.000811	8.106581	2.746584	0.000325
 406	4.0297e+01	16.1209	-44.313620	0.000628	6.282600	2.128603	0.000252
 407	4.0397e+01	16.1610	-44.079467	0.000588	5.877271	1.991273	0.000235
 408	4.0496e+01	16.1995	-43.837238	0.000608	6.079935	2.059938	0.000243
 409	4.0596e+01	16.2413	-43.586936	0.000628	6.282600	2.128603	0.000252
 410	4.0696e+01	16.2894	-43.263965	0.000811	8.106581	2.746584	0.000325
 411	4.0795e+01	16.3263	-42.965217	0.000750	7.498587	2.540590	0.000300
 412	4.0895e+01	16.3584	-42.682618	0.000709	7.093258	2.403261	0.000284
 413	4.0994e+01	16.4017	-42.432315	0.000628	6.282600	2.128603	0.000252
 414	4.1093e+01	16.4482	-42.133567	0.000750	7.498587	2.540590	0.000300
 415	4.1193e+01	16.4819	-41.871153	0.000659	6.586597	2.231599	0.000264
 416	4.1292e+01	16.5268	-41.552220	0.000801	8.005248	2.712252	0.000321
 417	4.1392e+01	16.5717	-41.293843	0.000649	6.485265	2.197267	0.000260
 418	4.1492e+01	16.6038	-41.079875	0.000537	5.370610	1.819612	0.000215
 419	4.1591e+01	16.6423	-40.817461	0.000659	6.586597	2.231599	0.000264
 420	4.1691e+01	16.6792	-40.466230	0.000882	8.815906	2.986910	0.000353
 421	4.1790e+01	16.7225	-40.195742	0.000679	6.789261	2.300264	0.000272
 422	4.1889e+01	16.7610	-39.880845	0.000790	7.903916	2.677919	0.000316
 423	4.1989e+01	16.8043	-39.481169	0.001003	10.031894	3.398898	0.000402
 424	4.2089e+01	16.8428	-39.242978	0.000598	5.978603	2.025606	0.000239
 425	4.2188e+01	16.8797	-38.924044	0.000801	8.005248	2.712252	0.000321
 426	4.2288e+01	16.9214	-38.697965	0.000567	5.674606	1.922609	0.000227
 427	4.2387e+01	16.9567	-38.411328	0.000719	7.194590	2.437593	0.000288
 428	4.2486e+01	17.0065	-38.213508	0.000497	4.965281	1.682283	0.000199
 429	4.2586e+01	17.0386	-37.866315	0.000871	8.714574	2.952578	0.000349
 430	4.2685e+01	17.0835	-37.575641	0.000730	7.295923	2.471925	0.000292
 431	4.2785e+01	17.1172	-37.293041	0.000709	7.093258	2.403261	0.000284
 432	4.2885e+01	17.1653	-36.917588	0.000942	9.423900	3.192904	0.000377
 433	4.2984e+01	17.1958	-36.501763	0.001044	10.437223	3.536227	0.000418
 434	4.3084e+01	17.2455	-36.219163	0.000709	7.093258	2.403261	0.000284
 435	4.3183e+01	17.2792	-35.964824	0.000638	6.383932	2.162935	0.000256
 436	4.3282e+01	17.3225	-35.670113	0.000740	7.397255	2.506258	0.000296
 437	4.3382e+01	17.3594	-35.411736	0.000649	6.485265	2.197267	0.000260
 438	4.3481e+01	17.4043	-35.153359	0.000649	6.485265	2.197267	0.000260
 439	4.3581e+01	17.4428	-34.874797	0.000699	6.991926	2.368929	0.000280
 440	4.3681e+01	17.4893	-34.511455	0.000912	9.119903	3.089907	0.000365
 441	4.3780e+01	17.5086	-34.261152	0.000628	6.282600	2.128603	0.000252
 442	4.3880e+01	17.5567	-33.978553	0.000709	7.093258	2.403261	0.000284
 443	4.3979e+01	17.5984	-33.720176	0.000649	6.485265	2.197267	0.000260
 444	4.4078e+01	17.6417	-33.449688	0.000679	6.789261	2.300264	0.000272
 445	4.4178e+01	17.6802	-33.219571	0.000578	5.775939	1.956941	0.000231
 446	4.4278e+01	17.7123	-32.916786	0.000760	7.599919	2.574922	0.000304
 447	4.4377e+01	17.7589	-32.614001	0.000760	7.599919	2.574922	0.000304
 448	4.4477e+01	17.7990	-32.299104	0.000790	7.903916	2.677919	0.000316
 449	4.4576e+01	17.8423	-31.976134	0.000811	8.106581	2.746584	0.000325
 450	4.4675e+01	17.8776	-31.733905	0.000608	6.079935	2.059938	0.000243
 451	4.4775e+01	17.9289	-31.463417	0.000679	6.789261	2.300264	0.000272
 452	4.4874e+01	17.9722	-31.196966	0.000669	6.687929	2.265932	0.000268
 453	4.4974e+01	18.0011	-30.789216	0.001023	10.234558	3.467562	0.000410
 454	4.5074e+01	18.0380	-30.506616	0.000709	7.093258	2.403261	0.000284
 455	4.5173e+01	18.0813	-30.219980	0.000719	7.194590	2.437593	0.000288
 456	4.5273e+01	18.1150	-29.929306	0.000730	7.295923	2.471925	0.000292
 457	4.5372e+01	18.1599	-29.638632	0.000730	7.295923	2.471925	0.000292
 458	4.5471e+01	18.2048	-29.351995	0.000719	7.194590	2.437593	0.000288
 459	4.5571e+01	18.2337	-29.053247	0.000750	7.498587	2.540590	0.000300
 460	4.5670e+01	18.2722	-28.730276	0.000811	8.106581	2.746584	0.000325
 461	4.5770e+01	18.3123	-28.427491	0.000760	7.599919	2.574922	0.000304
 462	4.5870e+01	18.3572	-28.100483	0.000821	8.207913	2.780916	0.000329
 463	4.5969e+01	18.3989	-27.773475	0.000821	8.207913	2.780916	0.000329
 464	4.6069e+01	18.4423	-27.422245	0.000882	8.815906	2.986910	0.000353
 465	4.6168e+01	18.4727	-27.083125	0.000851	8.511910	2.883913	0.000341
 466	4.6267e+01	18.5177	-26.780340	0.000760	7.599919	2.574922	0.000304
 467	4.6367e+01	18.5497	-26.449295	0.000831	8.309245	2.815248	0.000333
 468	4.6467e+01	18.5931	-26.081915	0.000922	9.221235	3.124239	0.000369
 469	4.6566e+01	18.6380	-25.754907	0.000821	8.207913	2.780916	0.000329
 470	4.6666e+01	18.6797	-25.460197	0.000740	7.397255	2.506258	0.000296
 471	4.6765e+01	18.7230	-25.129151	0.000831	8.309245	2.815248	0.000333
 472	4.6864e+01	18.7487	-24.987852	0.000355	3.546629	1.201630	0.000142
 473	4.6964e+01	18.7952	-24.769846	0.000547	5.471942	1.853944	0.000219
 474	4.7063e+01	18.8369	-24.604324	0.000415	4.154623	1.407624	0.000166
 475	4.7163e+01	18.8690	-24.402467	0.000507	5.066613	1.716615	0.000203
 476	4.7263e+01	18.9139	-24.261167	0.000355	3.546629	1.201630	0.000142
 477	4.7362e+01	18.9588	-24.043162	0.000547	5.471942	1.853944	0.000219
 478	4.7462e+01	18.9909	-23.837268	0.000517	5.167945	1.750947	0.000207
 479	4.7561e+01	19.0374	-23.639448	0.000497	4.965281	1.682283	0.000199
 480	4.7660e+01	19.0711	-23.449703	0.000476	4.762616	1.613618	0.000191
 481	4.7760e+01	19.1176	-23.272069	0.000446	4.458619	1.510621	0.000179
 482	4.7859e+01	19.1610	-23.009655	0.000659	6.586597	2.231599	0.000264
 483	4.7959e+01	19.1930	-22.771464	0.000598	5.978603	2.025606	0.000239
 484	4.8059e+01	19.2380	-22.525199	0.000618	6.181268	2.094270	0.000248
 485	4.8158e+01	19.2668	-22.190117	0.000841	8.410577	2.849581	0.000337
 486	4.8258e+01	19.3134	-21.750069	0.001105	11.045216	3.742221	0.000442
 487	4.8357e+01	19.3535	-21.322132	0.001074	10.741219	3.639224	0.000430
 488	4.8456e+01	19.3872	-20.906307	0.001044	10.437223	3.536227	0.000418
 489	4.8556e+01	19.4353	-20.401665	0.001267	12.666532	4.291537	0.000507
 490	4.8656e+01	19.4658	-19.703241	0.001753	17.530481	5.939488	0.000702
 491	4.8755e+01	19.5203	-18.916000	0.001976	19.759790	6.694798	0.000791
 492	4.8855e+01	19.5476	-18.072238	0.002118	21.178442	7.175450	0.000848
 493	4.8954e+01	19.5973	-17.224440	0.002128	21.279774	7.209783	0.000852
 494	4.9053e+01	19.6294	-16.408938	0.002047	20.469116	6.935124	0.000820
 495	4.9153e+01	19.6711	-15.597474	0.002037	20.367784	6.900792	0.000816
 496	4.9252e+01	19.7096	-14.757750	0.002108	21.077110	7.141118	0.000844
 497	4.9352e+01	19.7529	-14.031065	0.001824	18.239806	6.179814	0.000730
 498	4.9452e+01	19.7898	-13.377049	0.001642	16.415826	5.561832	0.000657
 499	4.9551e+01	19.8347	-12.496954	0.002209	22.090432	7.484441	0.000885
 500	4.9651e+01	19.8732	-11.790455	0.001773	17.733145	6.008152	0.000710
 501	4.9750e+01	19.9101	-11.213145	0.001449	14.490513	4.909519	0.000580
 502	4.9849e+01	19.9518	-10.429940	0.001966	19.658458	6.660466	0.000787
 503	4.9949e+01	19.9887	-9.699219	0.001834	18.341139	6.214146	0.000734
 504	5.0048e+01	19.9502	-9.138057	-0.001409	-14.085184	-4.772189	0.000564
 505	5.0148e+01	19.9133	-8.415409	-0.001814	-18.138474	-6.145481	0.000726
 506	5.0248e+01	19.8700	-7.773505	-0.001611	-16.111829	-5.458835	0.000645
 507	5.0347e+01	19.8315	-7.099303	-0.001692	-16.922487	-5.733494	0.000678
 508	5.0447e+01	19.7866	-6.505844	-0.001490	-14.895842	-5.046848	0.000596
 509	5.0546e+01	19.7577	-5.912385	-0.001490	-14.895842	-5.046848	0.000596
 510	5.0645e+01	19.7128	-5.250295	-0.001662	-16.618490	-5.630497	0.000665
 511	5.0745e+01	19.6679	-4.572056	-0.001702	-17.023819	-5.767826	0.000682
 512	5.0844e+01	19.6246	-3.817112	-0.001895	-18.949132	-6.420140	0.000759
 513	5.0944e+01	19.5845	-3.074279	-0.001865	-18.645136	-6.317143	0.000747
 514	5.1044e+01	19.5556	-2.444486	-0.001581	-15.807832	-5.355839	0.000633
 515	5.1143e+01	19.5027	-1.794507	-0.001631	-16.314494	-5.527500	0.000653
 516	5.1242e+01	19.4674	-1.188936	-0.001520	-15.199839	-5.149845	0.000609
 517	5.1342e+01	19.4369	-0.498586	-0.001733	-17.327816	-5.870823	0.000694
 518	5.1441e+01	19.3968	-0.240210	-0.000649	-6.485265	-2.197267	0.000260
 519	5.1541e+01	19.3503	-0.062576	-0.000446	-4.458619	-1.510621	0.000179
 520	5.1641e+01	19.3102	0.211950	-0.000689	-6.890594	-2.334596	0.000276
 521	5.1740e+01	19.2749	0.914411	-0.001763	-17.631813	-5.973820	0.000706
 522	5.1840e+01	19.2315	1.515944	-0.001510	-15.098506	-5.115512	0.000605
 523	5.1939e+01	19.1898	2.125552	-0.001530	-15.301171	-5.184177	0.000613
 524	5.2038e+01	19.1497	3.005648	-0.002209	-22.090432	-7.484441	0.000885
 525	5.2138e+01	19.1160	3.417435	-0.001034	-10.335890	-3.501894	0.000414
 526	5.2237e+01	19.0695	3.611218	-0.000486	-4.863948	-1.647950	0.000195
 527	5.2337e+01	19.0294	4.010894	-0.001003	-10.031894	-3.398898	0.000402
 528	5.2437e+01	18.9941	4.434794	-0.001064	-10.639887	-3.604891	0.000426
 529	5.2536e+01	18.9540	4.846581	-0.001034	-10.335890	-3.501894	0.000414
 530	5.2636e+01	18.9155	5.242221	-0.000993	-9.930561	-3.364565	0.000398
 531	5.2735e+01	18.8802	5.750900	-0.001277	-12.767865	-4.325870	0.000511
 532	5.2834e+01	18.8385	6.098094	-0.000871	-8.714574	-2.952578	0.000349
 533	5.2934e+01	18.7888	6.445287	-0.000871	-8.714574	-2.952578	0.000349
 534	5.3033e+01	18.7647	6.812667	-0.000922	-9.221235	-3.124239	0.000369
 535	5.3133e+01	18.7182	7.196194	-0.000963	-9.626565	-3.261568	0.000385
 536	5.3233e+01	18.6813	7.660465	-0.001165	-11.653210	-3.948214	0.000467
 537	5.3332e+01	18.6412	8.019770	-0.000902	-9.018571	-3.055575	0.000361
 538	5.3431e+01	18.5979	8.379075	-0.000902	-9.018571	-3.055575	0.000361
 539	5.3531e+01	18.5626	8.859494	-0.001206	-12.058539	-4.085544	0.000483
 540	5.3630e+01	18.5145	9.218799	-0.000902	-9.018571	-3.055575	0.000361
 541	5.3730e+01	18.4711	9.561956	-0.000861	-8.613242	-2.918245	0.000345
 542	5.3830e+01	18.4358	9.888964	-0.000821	-8.207913	-2.780916	0.000329
 543	5.3929e+01	18.3925	10.324975	-0.001094	-10.943884	-3.707888	0.000438
 544	5.4029e+01	18.3620	10.736762	-0.001034	-10.335890	-3.501894	0.000414
 545	5.4128e+01	18.3219	11.285813	-0.001378	-13.781187	-4.669193	0.000552
 546	5.4227e+01	18.2754	12.000386	-0.001794	-17.935810	-6.076817	0.000718
 547	5.4327e+01	18.2401	12.739182	-0.001854	-18.543803	-6.282811	0.000743
 548	5.4426e+01	18.2000	13.191341	-0.001135	-11.349213	-3.845217	0.000454
 549	5.4526e+01	18.1455	13.716169	-0.001317	-13.173194	-4.463199	0.000527
 550	5.4626e+01	18.1182	14.140068	-0.001064	-10.639887	-3.604891	0.000426
 551	5.4725e+01	18.0669	14.568004	-0.001074	-10.741219	-3.639224	0.000430
 552	5.4825e+01	18.0380	14.995941	-0.001074	-10.741219	-3.639224	0.000430
 553	5.4924e+01	17.9867	15.468286	-0.001186	-11.855874	-4.016879	0.000475
 554	5.5023e+01	17.9530	15.936593	-0.001175	-11.754542	-3.982547	0.000471
 555	5.5123e+01	17.9225	16.417012	-0.001206	-12.058539	-4.085544	0.000483
 556	5.5222e+01	17.8840	16.897432	-0.001206	-12.058539	-4.085544	0.000483
 557	5.5322e+01	17.8439	17.280960	-0.000963	-9.626565	-3.261568	0.000385
 558	5.5422e+01	17.7974	17.664487	-0.000963	-9.626565	-3.261568	0.000385
 559	5.5521e+01	17.7589	18.084350	-0.001054	-10.538555	-3.570559	0.000422
 560	5.5620e+01	17.7123	18.597066	-0.001287	-12.869197	-4.360202	0.000515
 561	5.5720e+01	17.6915	19.029039	-0.001084	-10.842552	-3.673556	0.000434
 562	5.5819e+01	17.6385	19.396419	-0.000922	-9.221235	-3.124239	0.000369
 563	5.5919e+01	17.6032	19.828392	-0.001084	-10.842552	-3.673556	0.000434
 564	5.6019e+01	17.5567	20.224031	-0.000993	-9.930561	-3.364565	0.000398
 565	5.6118e+01	17.5198	20.579299	-0.000892	-8.917239	-3.021242	0.000357
 566	5.6218e+01	17.4877	21.015310	-0.001094	-10.943884	-3.707888	0.000438
 567	5.6317e+01	17.4444	21.471506	-0.001145	-11.450545	-3.879550	0.000458
 568	5.6416e+01	17.3963	22.069003	-0.001500	-14.997174	-5.081180	0.000600
 569	5.6516e+01	17.3594	22.650350	-0.001459	-14.591845	-4.943851	0.000584
 570	5.6615e+01	17.3193	23.171141	-0.001307	-13.071861	-4.428867	0.000523
 571	5.6715e+01	17.2824	23.570817	-0.001003	-10.031894	-3.398898	0.000402
 572	5.6815e+01	17.2455	23.905899	-0.000841	-8.410577	-2.849581	0.000337
 573	5.6914e+01	17.2006	24.281353	-0.000942	-9.423900	-3.192904	0.000377
 574	5.7014e+01	17.1573	24.757735	-0.001196	-11.957206	-4.051211	0.000479
 575	5.7113e+01	17.1204	25.129151	-0.000932	-9.322568	-3.158571	0.000373
 576	5.7212e+01	17.0787	25.553051	-0.001064	-10.639887	-3.604891	0.000426
 577	5.7312e+01	17.0466	26.001173	-0.001125	-11.247881	-3.810885	0.000450
 578	5.7411e+01	16.9985	26.477555	-0.001196	-11.957206	-4.051211	0.000479
 579	5.7511e+01	16.9535	26.865120	-0.000973	-9.727897	-3.295901	0.000390
 580	5.7611e+01	16.9263	27.357650	-0.001236	-12.362535	-4.188540	0.000495
 581	5.7710e+01	16.8846	27.838069	-0.001206	-12.058539	-4.085544	0.000483
 582	5.7809e+01	16.8509	28.201412	-0.000912	-9.119903	-3.089907	0.000365
 583	5.7909e+01	16.8043	28.516308	-0.000790	-7.903916	-2.677919	0.000316
 584	5.8008e+01	16.7674	28.879651	-0.000912	-9.119903	-3.089907	0.000365
 585	5.8108e+01	16.7161	29.146101	-0.000669	-6.687929	-2.265932	0.000268
 586	5.8208e+01	16.6824	29.557889	-0.001034	-10.335890	-3.501894	0.000414
 587	5.8307e+01	16.6455	30.066568	-0.001277	-12.767865	-4.325870	0.000511
 588	5.8407e+01	16.5942	30.454133	-0.000973	-9.727897	-3.295901	0.000390
 589	5.8506e+01	16.5637	30.890144	-0.001094	-10.943884	-3.707888	0.000438
 590	5.8605e+01	16.5236	31.305969	-0.001044	-10.437223	-3.536227	0.000418
 591	5.8705e+01	16.4819	31.681423	-0.000942	-9.423900	-3.192904	0.000377
 592	5.8804e+01	16.4498	32.339476	-0.001652	-16.517158	-5.596165	0.000661
 593	5.8904e+01	16.3969	33.150940	-0.002037	-20.367784	-6.900792	0.000816
 594	5.9004e+01	16.3519	33.582914	-0.001084	-10.842552	-3.673556	0.000434
 595	5.9103e+01	16.3118	34.265190	-0.001713	-17.125152	-5.802158	0.000686
 596	5.9203e+01	16.2862	34.620458	-0.000892	-8.917239	-3.021242	0.000357
 597	5.9302e+01	16.2477	35.040320	-0.001054	-10.538555	-3.570559	0.000422
 598	5.9401e+01	16.2044	35.516702	-0.001196	-11.957206	-4.051211	0.000479
 599	5.9501e+01	16.1610	35.855821	-0.000851	-8.511910	-2.883913	0.000341
 600	5.9600e+01	16.1241	36.198978	-0.000861	-8.613242	-2.918245	0.000345
 601	5.9700e+01	16.0889	36.643063	-0.001115	-11.146548	-3.776553	0.000446
 602	5.9800e+01	16.0439	37.014479	-0.000932	-9.322568	-3.158571	0.000373
 603	5.9899e+01	16.0102	37.353598	-0.000851	-8.511910	-2.883913	0.000341
 604	5.9998e+01	15.9653	37.854203	-0.001257	-12.565200	-4.257205	0.000503
 605	6.0098e+01	15.9284	38.104506	-0.000628	-6.282600	-2.128603	0.000252
 606	6.0197e+01	15.8819	38.403254	-0.000750	-7.498587	-2.540590	0.000300
 607	6.0297e+01	15.8498	38.863487	-0.001155	-11.551877	-3.913882	0.000463
 608	6.0397e+01	15.8049	39.109752	-0.000618	-6.181268	-2.094270	0.000248
 609	6.0496e+01	15.7664	39.400426	-0.000730	-7.295923	-2.471925	0.000292
 610	6.0596e+01	15.7327	39.832400	-0.001084	-10.842552	-3.673556	0.000434
 611	6.0695e+01	15.6830	40.123074	-0.000730	-7.295923	-2.471925	0.000292
 612	6.0794e+01	15.6445	40.466230	-0.000861	-8.613242	-2.918245	0.000345
 613	6.0894e+01	15.6092	40.829572	-0.000912	-9.119903	-3.089907	0.000365
 614	6.0993e+01	15.5691	41.318066	-0.001226	-12.261203	-4.154208	0.000491
 615	6.1093e+01	15.5242	41.673334	-0.000892	-8.917239	-3.021242	0.000357
 616	6.1193e+01	15.4825	42.068973	-0.000993	-9.930561	-3.364565	0.000398
 617	6.1292e+01	15.4504	42.468649	-0.001003	-10.031894	-3.398898	0.000402
 618	6.1392e+01	15.4054	43.017700	-0.001378	-13.781187	-4.669193	0.000552
 619	6.1491e+01	15.3637	43.413339	-0.000993	-9.930561	-3.364565	0.000398
 620	6.1590e+01	15.3300	43.817053	-0.001013	-10.133226	-3.433230	0.000406
 621	6.1690e+01	15.2851	44.087541	-0.000679	-6.789261	-2.300264	0.000272
 622	6.1789e+01	15.2386	44.495292	-0.001023	-10.234558	-3.467562	0.000410
 623	6.1889e+01	15.2129	44.870745	-0.000942	-9.423900	-3.192904	0.000377
 624	6.1989e+01	15.1680	45.359239	-0.001226	-12.261203	-4.154208	0.000491
 625	6.2088e+01	15.1359	45.742766	-0.000963	-9.626565	-3.261568	0.000385
 626	6.2188e+01	15.0878	46.219148	-0.001196	-11.957206	-4.051211	0.000479
 627	6.2287e+01	15.0493	46.663233	-0.001115	-11.146548	-3.776553	0.000446
 628	6.2386e+01	15.0188	46.905462	-0.000608	-6.079935	-2.059938	0.000243
 629	6.2486e+01	14.9627	47.325324	-0.001054	-10.538555	-3.570559	0.000422
 630	6.2586e+01	14.9194	47.680592	-0.000892	-8.917239	-3.021242	0.000357
 631	6.2685e+01	14.8841	47.987414	-0.000770	-7.701252	-2.609255	0.000308
 632	6.2785e+01	14.8456	48.354793	-0.000922	-9.221235	-3.124239	0.000369
 633	6.2884e+01	14.8023	48.887695	-0.001338	-13.375858	-4.531863	0.000536
 634	6.2983e+01	14.7750	49.565934	-0.001702	-17.023819	-5.767826	0.000682
 635	6.3083e+01	14.7285	50.110947	-0.001368	-13.679855	-4.634860	0.000548
 636	6.3182e+01	14.6868	50.555032	-0.001115	-11.146548	-3.776553	0.000446
 637	6.3282e+01	14.6482	50.922412	-0.000922	-9.221235	-3.124239	0.000369
 638	6.3382e+01	14.6049	51.523945	-0.001510	-15.098506	-5.115512	0.000605
 639	6.3481e+01	14.5680	51.976104	-0.001135	-11.349213	-3.845217	0.000454
 640	6.3581e+01	14.5311	52.371743	-0.000993	-9.930561	-3.364565	0.000398
 641	6.3680e+01	14.4894	52.775457	-0.001013	-10.133226	-3.433230	0.000406
 642	6.3779e+01	14.4509	53.098428	-0.000811	-8.106581	-2.746584	0.000325
 643	6.3879e+01	14.4012	53.376990	-0.000699	-6.991926	-2.368929	0.000280
 644	6.3978e+01	14.3803	53.675738	-0.000750	-7.498587	-2.540590	0.000300
 645	6.4078e+01	14.3306	54.051192	-0.000942	-9.423900	-3.192904	0.000377
 646	6.4177e+01	14.2921	54.293420	-0.000608	-6.079935	-2.059938	0.000243
 647	6.4277e+01	14.2472	54.878805	-0.001469	-14.693177	-4.978183	0.000588
 648	6.4376e+01	14.2071	55.238110	-0.000902	-9.018571	-3.055575	0.000361
 649	6.4476e+01	14.1718	55.548969	-0.000780	-7.802584	-2.643587	0.000312
 650	6.4576e+01	14.1349	56.045537	-0.001246	-12.463868	-4.222873	0.000499
 651	6.4675e+01	14.0868	56.445213	-0.001003	-10.031894	-3.398898	0.000402
 652	6.4775e+01	14.0467	56.869113	-0.001064	-10.639887	-3.604891	0.000426
 653	6.4874e+01	14.0226	57.244566	-0.000942	-9.423900	-3.192904	0.000377
 654	6.4974e+01	13.9713	57.450460	-0.000517	-5.167945	-1.750947	0.000207
 655	6.5073e+01	13.9247	57.995473	-0.001368	-13.679855	-4.634860	0.000548
 656	6.5172e+01	13.8927	58.504153	-0.001277	-12.767865	-4.325870	0.000511
 657	6.5272e+01	13.8590	58.992646	-0.001226	-12.261203	-4.154208	0.000491
 658	6.5371e+01	13.8124	59.400397	-0.001023	-10.234558	-3.467562	0.000410
 659	6.5471e+01	13.7772	59.747590	-0.000871	-8.714574	-2.952578	0.000349
 660	6.5570e+01	13.7274	60.106895	-0.000902	-9.018571	-3.055575	0.000361
 661	6.5670e+01	13.6937	60.316826	-0.000527	-5.269277	-1.785280	0.000211
 662	6.5769e+01	13.6536	60.571166	-0.000638	-6.383932	-2.162935	0.000256
 663	6.5869e+01	13.6087	60.849728	-0.000699	-6.991926	-2.368929	0.000280
 664	6.5969e+01	13.5750	61.318036	-0.001175	-11.754542	-3.982547	0.000471
 665	6.6068e+01	13.5317	61.976089	-0.001652	-16.517158	-5.596165	0.000661
 666	6.6168e+01	13.4884	62.541288	-0.001419	-14.186516	-4.806522	0.000568
 667	6.6267e+01	13.4515	63.150896	-0.001530	-15.301171	-5.184177	0.000613
 668	6.6367e+01	13.4146	63.623241	-0.001186	-11.855874	-4.016879	0.000475
 669	6.6466e+01	13.3729	64.236885	-0.001540	-15.402503	-5.218509	0.000617
 670	6.6566e+01	13.3312	64.705193	-0.001175	-11.754542	-3.982547	0.000471
 671	6.6665e+01	13.2943	65.246169	-0.001358	-13.578523	-4.600528	0.000544
 672	6.6764e+01	13.2494	65.892111	-0.001621	-16.213161	-5.493168	0.000649
 673	6.6864e+01	13.2125	66.711650	-0.002057	-20.570448	-6.969457	0.000824
 674	6.6963e+01	13.1724	67.591745	-0.002209	-22.090432	-7.484441	0.000885
 675	6.7063e+01	13.1355	68.443581	-0.002138	-21.381106	-7.244115	0.000856
 676	6.7162e+01	13.1050	69.150079	-0.001773	-17.733145	-6.008152	0.000710
 677	6.7262e+01	13.0504	69.493236	-0.000861	-8.613242	-2.918245	0.000345
 678	6.7362e+01	13.0135	70.219920	-0.001824	-18.239806	-6.179814	0.000730
 679	6.7461e+01	12.9702	70.708414	-0.001226	-12.261203	-4.154208	0.000491
 680	6.7561e+01	12.9413	71.427024	-0.001804	-18.037142	-6.111149	0.000722
 681	6.7660e+01	12.8948	72.085077	-0.001652	-16.517158	-5.596165	0.000661
 682	6.7760e+01	12.8515	72.541274	-0.001145	-11.450545	-3.879550	0.000458
 683	6.7859e+01	12.8146	73.114547	-0.001439	-14.389181	-4.875186	0.000576
 684	6.7959e+01	12.7777	73.514223	-0.001003	-10.031894	-3.398898	0.000402
 685	6.8058e+01	12.7376	73.857380	-0.000861	-8.613242	-2.918245	0.000345
 686	6.8157e+01	12.7087	74.370096	-0.001287	-12.869197	-4.360202	0.000515
 687	6.8257e+01	12.6622	75.044298	-0.001692	-16.922487	-5.733494	0.000678
 688	6.8356e+01	12.6253	75.548940	-0.001267	-12.666532	-4.291537	0.000507
 689	6.8456e+01	12.5868	76.400775	-0.002138	-21.381106	-7.244115	0.000856
 690	6.8555e+01	12.5339	76.804489	-0.001013	-10.133226	-3.433230	0.000406
 691	6.8655e+01	12.5034	77.058828	-0.000638	-6.383932	-2.162935	0.000256
 692	6.8754e+01	12.4537	77.543285	-0.001216	-12.159871	-4.119876	0.000487
 693	6.8854e+01	12.4152	77.951035	-0.001023	-10.234558	-3.467562	0.000410
 694	6.8954e+01	12.3831	78.269969	-0.000801	-8.005248	-2.712252	0.000321
 695	6.9053e+01	12.3366	78.714054	-0.001115	-11.146548	-3.776553	0.000446
 696	6.9153e+01	12.2948	79.089508	-0.000942	-9.423900	-3.192904	0.000377
 697	6.9252e+01	12.2563	79.412479	-0.000811	-8.106581	-2.746584	0.000325
 698	6.9352e+01	12.2259	79.796006	-0.000963	-9.626565	-3.261568	0.000385
 699	6.9451e+01	12.1793	80.252203	-0.001145	-11.450545	-3.879550	0.000458
 700	6.9550e+01	12.1344	80.853736	-0.001510	-15.098506	-5.115512	0.000605
 701	6.9650e+01	12.0943	81.584458	-0.001834	-18.341139	-6.214146	0.000734
 702	6.9749e+01	12.0702	81.976060	-0.000983	-9.829229	-3.330233	0.000394
 703	6.9849e+01	12.0221	82.311142	-0.000841	-8.410577	-2.849581	0.000337
 704	6.9948e+01	11.9788	82.767338	-0.001145	-11.450545	-3.879550	0.000458
 705	7.0048e+01	11.9371	83.179126	-0.001034	-10.335890	-3.501894	0.000414
 706	7.0147e+01	11.9002	83.578803	-0.001003	-10.031894	-3.398898	0.000402
 707	7.0247e+01	11.8585	83.897736	-0.000801	-8.005248	-2.712252	0.000321
 708	7.0347e+01	11.8184	84.378155	-0.001206	-12.058539	-4.085544	0.000483
 709	7.0446e+01	11.7815	84.664792	-0.000719	-7.194590	-2.437593	0.000288
 710	7.0546e+01	11.7590	85.011986	-0.000871	-8.714574	-2.952578	0.000349
 711	7.0645e+01	11.7077	85.282474	-0.000679	-6.789261	-2.300264	0.000272
 712	7.0745e+01	11.6612	85.419737	-0.000345	-3.445297	-1.167298	0.000138
 713	7.0844e+01	11.6259	85.730596	-0.000780	-7.802584	-2.643587	0.000312
 714	7.0944e+01	11.5681	85.956676	-0.000567	-5.674606	-1.922609	0.000227
 715	7.1043e+01	11.5473	86.158532	-0.000507	-5.066613	-1.716615	0.000203
 716	7.1142e+01	11.5040	86.449206	-0.000730	-7.295923	-2.471925	0.000292
 717	7.1242e+01	11.4703	86.731806	-0.000709	-7.093258	-2.403261	0.000284
 718	7.1341e+01	11.4237	86.925588	-0.000486	-4.863948	-1.647950	0.000195
 719	7.1441e+01	11.3788	87.216262	-0.000730	-7.295923	-2.471925	0.000292
 720	7.1540e+01	11.3467	87.365636	-0.000375	-3.749294	-1.270295	0.000150
 721	7.1640e+01	11.3066	87.607864	-0.000608	-6.079935	-2.059938	0.000243
 722	7.1740e+01	11.2601	87.793572	-0.000466	-4.661284	-1.579286	0.000187
 723	7.1839e+01	11.2232	88.011578	-0.000547	-5.471942	-1.853944	0.000219
 724	7.1939e+01	11.1847	88.128655	-0.000294	-2.938635	-0.995637	0.000118
 725	7.2038e+01	11.1414	88.326474	-0.000497	-4.965281	-1.682283	0.000199
 726	7.2138e+01	11.1109	88.447588	-0.000304	-3.039968	-1.029969	0.000122
 727	7.2237e+01	11.0612	88.580814	-0.000334	-3.343965	-1.132966	0.000134
 728	7.2337e+01	11.0243	88.730188	-0.000375	-3.749294	-1.270295	0.000150
 729	7.2436e+01	10.9794	88.956267	-0.000567	-5.674606	-1.922609	0.000227
 730	7.2535e+01	10.9473	89.141976	-0.000466	-4.661284	-1.579286	0.000187
 731	7.2635e+01	10.9008	89.271164	-0.000324	-3.242632	-1.098634	0.000130
 732	7.2734e+01	10.8542	89.477058	-0.000517	-5.167945	-1.750947	0.000207
 733	7.2834e+01	10.8206	89.682952	-0.000517	-5.167945	-1.750947	0.000207
 734	7.2933e+01	10.7885	89.800029	-0.000294	-2.938635	-0.995637	0.000118
 735	7.3033e+01	10.7516	89.925180	-0.000314	-3.141300	-1.064301	0.000126
 736	7.3132e+01	10.7050	90.042257	-0.000294	-2.938635	-0.995637	0.000118
 737	7.3232e+01	10.6633	90.345042	-0.000760	-7.599919	-2.574922	0.000304
 738	7.3332e+01	10.6216	90.437896	-0.000233	-2.330642	-0.789643	0.000093
 739	7.3431e+01	10.5847	90.591307	-0.000385	-3.850626	-1.304627	0.000154
 740	7.3531e+01	10.5430	90.817387	-0.000567	-5.674606	-1.922609	0.000227
 741	7.3630e+01	10.5013	90.942538	-0.000314	-3.141300	-1.064301	0.000126
 742	7.3730e+01	10.4564	91.132284	-0.000476	-4.762616	-1.613618	0.000191
 743	7.3829e+01	10.4307	91.313955	-0.000456	-4.559952	-1.544953	0.000183
 744	7.3928e+01	10.3970	91.414883	-0.000253	-2.533306	-0.858307	0.000101
 745	7.4028e+01	10.3521	91.576369	-0.000405	-4.053290	-1.373292	0.000162
 746	7.4127e+01	10.3184	91.677297	-0.000253	-2.533306	-0.858307	0.000101
 747	7.4227e+01	10.2687	91.834745	-0.000395	-3.951958	-1.338960	0.000158
 748	7.4326e+01	10.2286	91.943748	-0.000274	-2.735971	-0.926972	0.000110
 749	7.4426e+01	10.1885	92.052751	-0.000274	-2.735971	-0.926972	0.000110
 750	7.4525e+01	10.1484	92.145605	-0.000233	-2.330642	-0.789643	0.000093
 751	7.4625e+01	10.1099	92.258644	-0.000284	-2.837303	-0.961304	0.000114
 752	7.4725e+01	10.0650	92.323239	-0.000162	-1.621316	-0.549317	0.000065
 753	7.4824e+01	10.0313	92.391870	-0.000172	-1.722648	-0.583649	0.000069
 754	7.4924e+01	9.9880	92.444353	-0.000132	-1.317319	-0.446320	0.000053
 755	7.5023e+01	9.9495	92.537207	-0.000233	-2.330642	-0.789643	0.000093
 756	7.5123e+01	9.9142	92.601801	-0.000162	-1.621316	-0.549317	0.000065
 757	7.5222e+01	9.8660	92.674469	-0.000182	-1.823981	-0.617981	0.000073
 758	7.5322e+01	9.8227	92.726952	-0.000132	-1.317319	-0.446320	0.000053
 759	7.5421e+01	9.7922	92.767324	-0.000101	-1.013323	-0.343323	0.000041
 760	7.5520e+01	9.7521	92.880363	-0.000284	-2.837303	-0.961304	0.000114
 761	7.5620e+01	9.7024	92.920735	-0.000101	-1.013323	-0.343323	0.000041
 762	7.5719e+01	9.6607	92.961106	-0.000101	-1.013323	-0.343323	0.000041
 763	7.5819e+01	9.6382	93.049923	-0.000223	-2.229310	-0.755311	0.000089
 764	7.5918e+01	9.5853	93.114517	-0.000162	-1.621316	-0.549317	0.000065
 765	7.6018e+01	9.5516	93.146814	-0.000081	-0.810658	-0.274658	0.000032
 766	7.6118e+01	9.5067	93.239668	-0.000233	-2.330642	-0.789643	0.000093
 767	7.6217e+01	9.4714	93.320411	-0.000203	-2.026645	-0.686646	0.000081
 768	7.6317e+01	9.4345	93.360783	-0.000101	-1.013323	-0.343323	0.000041
 769	7.6416e+01	9.3928	93.417302	-0.000142	-1.418652	-0.480652	0.000057
 770	7.6516e+01	9.3511	93.461711	-0.000111	-1.114655	-0.377655	0.000045
 771	7.6615e+01	9.3158	93.518231	-0.000142	-1.418652	-0.480652	0.000057
 772	7.6715e+01	9.2741	93.570714	-0.000132	-1.317319	-0.446320	0.000053
 773	7.6814e+01	9.2324	93.643382	-0.000182	-1.823981	-0.617981	0.000073
 774	7.6913e+01	9.1874	93.671642	-0.000071	-0.709326	-0.240326	0.000028
 775	7.7013e+01	9.1570	93.724125	-0.000132	-1.317319	-0.446320	0.000053
 776	7.7112e+01	9.1185	93.764496	-0.000101	-1.013323	-0.343323	0.000041
 777	7.7212e+01	9.0703	93.812942	-0.000122	-1.215987	-0.411988	0.000049
 778	7.7311e+01	9.0350	93.865424	-0.000132	-1.317319	-0.446320	0.000053
 779	7.7411e+01	8.9933	93.930019	-0.000162	-1.621316	-0.549317	0.000065
 780	7.7510e+01	8.9580	93.946167	-0.000041	-0.405329	-0.137329	0.000016
 781	7.7610e+01	8.9115	94.010761	-0.000162	-1.621316	-0.549317	0.000065
 782	7.7710e+01	8.8698	94.010761	-0.000000	-0.000000	-0.000000	0.000000
 783	7.7809e+01	8.8377	94.030947	-0.000051	-0.506661	-0.171661	0.000020
 784	7.7909e+01	8.8008	94.071318	-0.000101	-1.013323	-0.343323	0.000041
 785	7.8008e+01	8.7479	94.091504	-0.000051	-0.506661	-0.171661	0.000020
 786	7.8108e+01	8.7190	94.119764	-0.000071	-0.709326	-0.240326	0.000028
 787	7.8207e+01	8.6725	94.139950	-0.000051	-0.506661	-0.171661	0.000020
 788	7.8306e+01	8.6228	94.180321	-0.000101	-1.013323	-0.343323	0.000041
 789	7.8406e+01	8.5907	94.236841	-0.000142	-1.418652	-0.480652	0.000057
 790	7.8505e+01	8.5554	94.252990	-0.000041	-0.405329	-0.137329	0.000016
 791	7.8605e+01	8.5137	94.244915	0.000020	0.202665	0.068665	-0.000008
 792	7.8704e+01	8.4752	94.265101	-0.000051	-0.506661	-0.171661	0.000020
 793	7.8804e+01	8.4383	94.297398	-0.000081	-0.810658	-0.274658	0.000032
 794	7.8903e+01	8.3950	94.309509	-0.000030	-0.303997	-0.102997	0.000012
 795	7.9003e+01	8.3532	94.361992	-0.000132	-1.317319	-0.446320	0.000053
 796	7.9103e+01	8.3131	94.374104	-0.000030	-0.303997	-0.102997	0.000012
 797	7.9202e+01	8.2650	94.382178	-0.000020	-0.202665	-0.068665	0.000008
 798	7.9302e+01	8.2393	94.386215	-0.000010	-0.101332	-0.034332	0.000004
 799	7.9401e+01	8.1944	94.406401	-0.000051	-0.506661	-0.171661	0.000020
 800	7.9501e+01	8.1559	94.414475	-0.000020	-0.202665	-0.068665	0.000008
 801	7.9600e+01	8.1110	94.426586	-0.000030	-0.303997	-0.102997	0.000012
 802	7.9700e+01	8.0693	94.454846	-0.000071	-0.709326	-0.240326	0.000028
 803	7.9799e+01	8.0340	94.491181	-0.000091	-0.911990	-0.308991	0.000037
 804	7.9898e+01	7.9939	94.470995	0.000051	0.506661	0.171661	-0.000020
 805	7.9998e+01	7.9506	94.458883	0.000030	0.303997	0.102997	-0.000012
 806	8.0097e+01	7.9233	94.470995	-0.000030	-0.303997	-0.102997	0.000012
 807	8.0197e+01	7.8736	94.495218	-0.000061	-0.607994	-0.205994	0.000024
 808	8.0296e+01	7.8335	94.503292	-0.000020	-0.202665	-0.068665	0.000008
 809	8.0396e+01	7.7966	94.483106	0.000051	0.506661	0.171661	-0.000020
 810	8.0496e+01	7.7629	94.499255	-0.000041	-0.405329	-0.137329	0.000016
 811	8.0595e+01	7.7196	94.503292	-0.000010	-0.101332	-0.034332	0.000004
 812	8.0695e+01	7.6811	94.515403	-0.000030	-0.303997	-0.102997	0.000012
 813	8.0794e+01	7.6458	94.507329	0.000020	0.202665	0.068665	-0.000008
 814	8.0894e+01	7.5912	94.487143	0.000051	0.506661	0.171661	-0.000020
 815	8.0993e+01	7.5527	94.450809	0.000091	0.911990	0.308991	-0.000037
 816	8.1093e+01	7.5190	94.462921	-0.000030	-0.303997	-0.102997	0.000012
 817	8.1192e+01	7.4725	94.491181	-0.000071	-0.709326	-0.240326	0.000028
 818	8.1291e+01	7.4244	94.454846	0.000091	0.911990	0.308991	-0.000037
 819	8.1391e+01	7.3939	94.483106	-0.000071	-0.709326	-0.240326	0.000028
 820	8.1490e+01	7.3554	94.446772	0.000091	0.911990	0.308991	-0.000037
 821	8.1590e+01	7.3201	94.442735	0.000010	0.101332	0.034332	-0.000004
 822	8.1689e+01	7.2784	94.422549	0.000051	0.506661	0.171661	-0.000020
 823	8.1789e+01	7.2447	94.414475	0.000020	0.202665	0.068665	-0.000008
 824	8.1888e+01	7.1918	94.406401	0.000020	0.202665	0.068665	-0.000008
 825	8.1988e+01	7.1436	94.382178	0.000061	0.607994	0.205994	-0.000024
 826	8.2088e+01	7.1164	94.353918	0.000071	0.709326	0.240326	-0.000028
 827	8.2187e+01	7.0747	94.349881	0.000010	0.101332	0.034332	-0.000004
 828	8.2287e+01	7.0346	94.349881	-0.000000	-0.000000	-0.000000	0.000000
 829	8.2386e+01	6.9896	94.333732	0.000041	0.405329	0.137329	-0.000016
 830	8.2486e+01	6.9592	94.289324	0.000111	1.114655	0.377655	-0.000045
 831	8.2585e+01	6.9158	94.257027	0.000081	0.810658	0.274658	-0.000032
 832	8.2684e+01	6.8757	94.257027	-0.000000	-0.000000	-0.000000	0.000000
 833	8.2784e+01	6.8324	94.192432	0.000162	1.621316	0.549317	-0.000065
 834	8.2883e+01	6.8052	94.200507	-0.000020	-0.202665	-0.068665	0.000008
 835	8.2983e+01	6.7602	94.180321	0.000051	0.506661	0.171661	-0.000020
 836	8.3082e+01	6.7217	94.180321	-0.000000	-0.000000	-0.000000	0.000000
 837	8.3182e+01	6.6768	94.148024	0.000081	0.810658	0.274658	-0.000032
 838	8.3281e+01	6.6415	94.131875	0.000041	0.405329	0.137329	-0.000016
 839	8.3381e+01	6.6014	94.075356	0.000142	1.418652	0.480652	-0.000057
 840	8.3481e+01	6.5645	94.107653	-0.000081	-0.810658	-0.274658	0.000032
 841	8.3580e+01	6.5196	94.051133	0.000142	1.418652	0.480652	-0.000057
 842	8.3680e+01	6.4731	94.022873	0.000071	0.709326	0.240326	-0.000028
 843	8.3779e+01	6.4410	93.998650	0.000061	0.607994	0.205994	-0.000024
 844	8.3879e+01	6.4073	93.962316	0.000091	0.911990	0.308991	-0.000037
 845	8.3978e+01	6.3672	93.934056	0.000071	0.709326	0.240326	-0.000028
 846	8.4078e+01	6.3223	93.905796	0.000071	0.709326	0.240326	-0.000028
 847	8.4177e+01	6.2677	93.865424	0.000101	1.013323	0.343323	-0.000041
 848	8.4276e+01	6.2405	93.861387	0.000010	0.101332	0.034332	-0.000004
 849	8.4376e+01	6.2068	93.825053	0.000091	0.911990	0.308991	-0.000037
 850	8.4475e+01	6.1586	93.804867	0.000051	0.506661	0.171661	-0.000020
 851	8.4575e+01	6.1346	93.768533	0.000091	0.911990	0.308991	-0.000037
 852	8.4674e+01	6.0897	93.728162	0.000101	1.013323	0.343323	-0.000041
 853	8.4774e+01	6.0415	93.703939	0.000061	0.607994	0.205994	-0.000024
 854	8.4874e+01	6.0127	93.675679	0.000071	0.709326	0.240326	-0.000028
 855	8.4973e+01	5.9613	93.619159	0.000142	1.418652	0.480652	-0.000057
 856	8.5073e+01	5.9276	93.598974	0.000051	0.506661	0.171661	-0.000020
 857	8.5172e+01	5.8763	93.582825	0.000041	0.405329	0.137329	-0.000016
 858	8.5272e+01	5.8394	93.465748	0.000294	2.938635	0.995637	-0.000118
 859	8.5371e+01	5.8025	93.461711	0.000010	0.101332	0.034332	-0.000004
 860	8.5471e+01	5.7640	93.413265	0.000122	1.215987	0.411988	-0.000049
 861	8.5570e+01	5.7255	93.385005	0.000071	0.709326	0.240326	-0.000028
 862	8.5669e+01	5.6902	93.356745	0.000071	0.709326	0.240326	-0.000028
 863	8.5769e+01	5.6389	93.300225	0.000142	1.418652	0.480652	-0.000057
 864	8.5868e+01	5.5940	93.259854	0.000101	1.013323	0.343323	-0.000041
 865	8.5968e+01	5.5699	93.183149	0.000193	1.925313	0.652314	-0.000077
 866	8.6067e+01	5.5137	93.167000	0.000041	0.405329	0.137329	-0.000016
 867	8.6167e+01	5.4849	93.110480	0.000142	1.418652	0.480652	-0.000057
 868	8.6266e+01	5.4496	93.013589	0.000243	2.431974	0.823975	-0.000097
 869	8.6366e+01	5.4047	93.009552	0.000010	0.101332	0.034332	-0.000004
 870	8.6466e+01	5.3662	92.957069	0.000132	1.317319	0.446320	-0.000053
 871	8.6565e+01	5.3212	92.888438	0.000172	1.722648	0.583649	-0.000069
 872	8.6665e+01	5.2892	92.868252	0.000051	0.506661	0.171661	-0.000020
 873	8.6764e+01	5.2490	92.779435	0.000223	2.229310	0.755311	-0.000089
 874	8.6864e+01	5.2057	92.698692	0.000203	2.026645	0.686646	-0.000081
 875	8.6963e+01	5.1704	92.682544	0.000041	0.405329	0.137329	-0.000016
 876	8.7063e+01	5.1175	92.581615	0.000253	2.533306	0.858307	-0.000101
 877	8.7162e+01	5.0806	92.541244	0.000101	1.013323	0.343323	-0.000041
 878	8.7261e+01	5.0469	92.508947	0.000081	0.810658	0.274658	-0.000032
 879	8.7361e+01	5.0068	92.420130	0.000223	2.229310	0.755311	-0.000089
 880	8.7460e+01	4.9651	92.327276	0.000233	2.330642	0.789643	-0.000093
 881	8.7560e+01	4.9218	92.258644	0.000172	1.722648	0.583649	-0.000069
 882	8.7659e+01	4.9009	92.185976	0.000182	1.823981	0.617981	-0.000073
 883	8.7759e+01	4.8480	92.117345	0.000172	1.722648	0.583649	-0.000069
 884	8.7859e+01	4.8031	92.044676	0.000182	1.823981	0.617981	-0.000073
 885	8.7958e+01	4.7598	91.996231	0.000122	1.215987	0.411988	-0.000049
 886	8.8058e+01	4.7325	91.891265	0.000263	2.634639	0.892640	-0.000105
 887	8.8157e+01	4.6892	91.834745	0.000142	1.418652	0.480652	-0.000057
 888	8.8257e+01	4.6507	91.737854	0.000243	2.431974	0.823975	-0.000097
 889	8.8356e+01	4.6041	91.677297	0.000152	1.519984	0.514984	-0.000061
 890	8.8456e+01	4.5689	91.564257	0.000284	2.837303	0.961304	-0.000114
 891	8.8555e+01	4.5287	91.491589	0.000182	1.823981	0.617981	-0.000073
 892	8.8654e+01	4.4854	91.435069	0.000142	1.418652	0.480652	-0.000057
 893	8.8754e+01	4.4501	91.342215	0.000233	2.330642	0.789643	-0.000093
 894	8.8853e+01	4.4100	91.257435	0.000213	2.127977	0.720978	-0.000085
 895	8.8953e+01	4.3812	91.176692	0.000203	2.026645	0.686646	-0.000081
 896	8.9052e+01	4.3298	91.071727	0.000263	2.634639	0.892640	-0.000105
 897	8.9152e+01	4.2929	91.011170	0.000152	1.519984	0.514984	-0.000061
 898	8.9251e+01	4.2448	90.898130	0.000284	2.837303	0.961304	-0.000114
 899	8.9351e+01	4.2191	90.805276	0.000233	2.330642	0.789643	-0.000093
 900	8.9451e+01	4.1726	90.708384	0.000243	2.431974	0.823975	-0.000097
 901	8.9550e+01	4.1213	90.611493	0.000243	2.431974	0.823975	-0.000097
 902	8.9650e+01	4.0988	90.546899	0.000162	1.621316	0.549317	-0.000065
 903	8.9749e+01	4.0555	90.437896	0.000274	2.735971	0.926972	-0.000110
 904	8.9849e+01	4.0026	90.341005	0.000243	2.431974	0.823975	-0.000097
 905	8.9948e+01	3.9753	90.252188	0.000223	2.229310	0.755311	-0.000089
 906	9.0047e+01	3.9320	90.143185	0.000274	2.735971	0.926972	-0.000110
 907	9.0147e+01	3.8919	90.054368	0.000223	2.229310	0.755311	-0.000089
 908	9.0246e+01	3.8502	89.953440	0.000253	2.533306	0.858307	-0.000101
 909	9.0346e+01	3.8084	89.848474	0.000263	2.634639	0.892640	-0.000105
 910	9.0445e+01	3.7699	89.763695	0.000213	2.127977	0.720978	-0.000085
 911	9.0545e+01	3.7330	89.654692	0.000274	2.735971	0.926972	-0.000110
 912	9.0644e+01	3.6945	89.561838	0.000233	2.330642	0.789643	-0.000093
 913	9.0744e+01	3.6593	89.477058	0.000213	2.127977	0.720978	-0.000085
 914	9.0844e+01	3.6047	89.368055	0.000274	2.735971	0.926972	-0.000110
 915	9.0943e+01	3.5710	89.255015	0.000284	2.837303	0.961304	-0.000114
 916	9.1043e+01	3.5357	89.146013	0.000274	2.735971	0.926972	-0.000110
 917	9.1142e+01	3.4972	89.061233	0.000213	2.127977	0.720978	-0.000085
 918	9.1242e+01	3.4555	88.936082	0.000314	3.141300	1.064301	-0.000126
 919	9.1341e+01	3.4106	88.823042	0.000284	2.837303	0.961304	-0.000114
 920	9.1441e+01	3.3673	88.754411	0.000172	1.722648	0.583649	-0.000069
 921	9.1540e+01	3.3256	88.641371	0.000284	2.837303	0.961304	-0.000114
 922	9.1639e+01	3.2951	88.536405	0.000263	2.634639	0.892640	-0.000105
 923	9.1739e+01	3.2534	88.431440	0.000263	2.634639	0.892640	-0.000105
 924	9.1838e+01	3.2149	88.298214	0.000334	3.343965	1.132966	-0.000134
 925	9.1938e+01	3.1700	88.225546	0.000182	1.823981	0.617981	-0.000073
 926	9.2037e+01	3.1379	88.104432	0.000304	3.039968	1.029969	-0.000122
 927	9.2137e+01	3.0930	87.991392	0.000284	2.837303	0.961304	-0.000114
 928	9.2237e+01	3.0545	87.890464	0.000253	2.533306	0.858307	-0.000101
 929	9.2336e+01	3.0063	87.769350	0.000304	3.039968	1.029969	-0.000122
 930	9.2436e+01	2.9791	87.648235	0.000304	3.039968	1.029969	-0.000122
 931	9.2535e+01	2.9309	87.555381	0.000233	2.330642	0.789643	-0.000093
 932	9.2635e+01	2.8940	87.422156	0.000334	3.343965	1.132966	-0.000134
 933	9.2734e+01	2.8507	87.337376	0.000213	2.127977	0.720978	-0.000085
 934	9.2834e+01	2.8186	87.228373	0.000274	2.735971	0.926972	-0.000110
 935	9.2933e+01	2.7769	87.087074	0.000355	3.546629	1.201630	-0.000142
 936	9.3032e+01	2.7400	86.994219	0.000233	2.330642	0.789643	-0.000093
 937	9.3132e+01	2.6967	86.905402	0.000223	2.229310	0.755311	-0.000089
 938	9.3231e+01	2.6550	86.764103	0.000355	3.546629	1.201630	-0.000142
 939	9.3331e+01	2.6181	86.642989	0.000304	3.039968	1.029969	-0.000122
 940	9.3430e+01	2.5780	86.529949	0.000284	2.837303	0.961304	-0.000114
 941	9.3530e+01	2.5443	86.433058	0.000243	2.431974	0.823975	-0.000097
 942	9.3629e+01	2.5010	86.303869	0.000324	3.242632	1.098634	-0.000130
 943	9.3729e+01	2.4497	86.174681	0.000324	3.242632	1.098634	-0.000130
 944	9.3829e+01	2.4080	86.061641	0.000284	2.837303	0.961304	-0.000114
 945	9.3928e+01	2.3727	85.988973	0.000182	1.823981	0.617981	-0.000073
 946	9.4028e+01	2.3342	85.863821	0.000314	3.141300	1.064301	-0.000126
 947	9.4127e+01	2.2941	85.714447	0.000375	3.749294	1.270295	-0.000150
 948	9.4227e+01	2.2556	85.605445	0.000274	2.735971	0.926972	-0.000110
 949	9.4326e+01	2.2170	85.500479	0.000263	2.634639	0.892640	-0.000105
 950	9.4425e+01	2.1802	85.363217	0.000345	3.445297	1.167298	-0.000138
 951	9.4525e+01	2.1433	85.213843	0.000375	3.749294	1.270295	-0.000150
 952	9.4624e+01	2.1080	85.100803	0.000284	2.837303	0.961304	-0.000114
 953	9.4724e+01	2.0711	84.979689	0.000304	3.039968	1.029969	-0.000122
 954	9.4823e+01	2.0117	84.907020	0.000182	1.823981	0.617981	-0.000073
 955	9.4923e+01	1.9812	84.709201	0.000497	4.965281	1.682283	-0.000199
 956	9.5022e+01	1.9427	84.624421	0.000213	2.127977	0.720978	-0.000085
 957	9.5122e+01	1.9010	84.483121	0.000355	3.546629	1.201630	-0.000142
 958	9.5222e+01	1.8513	84.341821	0.000355	3.546629	1.201630	-0.000142
 959	9.5321e+01	1.8208	84.224744	0.000294	2.938635	0.995637	-0.000118
 960	9.5421e+01	1.7743	84.119779	0.000263	2.634639	0.892640	-0.000105
 961	9.5520e+01	1.7406	83.998665	0.000304	3.039968	1.029969	-0.000122
 962	9.5620e+01	1.6941	83.881588	0.000294	2.938635	0.995637	-0.000118
 963	9.5719e+01	1.6636	83.728177	0.000385	3.850626	1.304627	-0.000154
 964	9.5819e+01	1.6139	83.659545	0.000172	1.722648	0.583649	-0.000069
 965	9.5918e+01	1.5721	83.522283	0.000345	3.445297	1.167298	-0.000138
 966	9.6017e+01	1.5449	83.368872	0.000385	3.850626	1.304627	-0.000154
 967	9.6117e+01	1.4935	83.288129	0.000203	2.026645	0.686646	-0.000081
 968	9.6216e+01	1.4550	83.118569	0.000426	4.255955	1.441957	-0.000170
 969	9.6316e+01	1.4230	82.989381	0.000324	3.242632	1.098634	-0.000130
 970	9.6415e+01	1.3796	82.876341	0.000284	2.837303	0.961304	-0.000114
 971	9.6515e+01	1.3476	82.791561	0.000213	2.127977	0.720978	-0.000085
 972	9.6615e+01	1.3010	82.674484	0.000294	2.938635	0.995637	-0.000118
 973	9.6714e+01	1.2657	82.517036	0.000395	3.951958	1.338960	-0.000158
 974	9.6814e+01	1.2192	82.371699	0.000365	3.647961	1.235963	-0.000146
 975	9.6913e+01	1.1743	82.286919	0.000213	2.127977	0.720978	-0.000085
 976	9.7013e+01	1.1454	82.157731	0.000324	3.242632	1.098634	-0.000130
 977	9.7112e+01	1.0957	82.064877	0.000233	2.330642	0.789643	-0.000093
 978	9.7212e+01	1.0604	81.903391	0.000405	4.053290	1.373292	-0.000162
 979	9.7311e+01	1.0187	81.798426	0.000263	2.634639	0.892640	-0.000105
 980	9.7410e+01	0.9866	81.693460	0.000263	2.634639	0.892640	-0.000105
 981	9.7510e+01	0.9401	81.540049	0.000385	3.850626	1.304627	-0.000154
 982	9.7609e+01	0.8968	81.382601	0.000395	3.951958	1.338960	-0.000158
 983	9.7709e+01	0.8583	81.289747	0.000233	2.330642	0.789643	-0.000093
 984	9.7808e+01	0.8198	81.160558	0.000324	3.242632	1.098634	-0.000130
 985	9.7908e+01	0.7813	81.027333	0.000334	3.343965	1.132966	-0.000134
 986	9.8007e+01	0.7396	80.922367	0.000263	2.634639	0.892640	-0.000105
 987	9.8107e+01	0.7010	80.785105	0.000345	3.445297	1.167298	-0.000138
 988	9.8207e+01	0.6625	80.684176	0.000253	2.533306	0.858307	-0.000101
 989	9.8306e+01	0.6224	80.538839	0.000365	3.647961	1.235963	-0.000146
 990	9.8406e+01	0.5839	80.454060	0.000213	2.127977	0.720978	-0.000085
 991	9.8505e+01	0.5374	80.332945	0.000304	3.039968	1.029969	-0.000122
 992	9.8605e+01	0.5118	80.175497	0.000395	3.951958	1.338960	-0.000158
 993	9.8704e+01	0.4668	80.070532	0.000263	2.634639	0.892640	-0.000105
 994	9.8803e+01	0.4235	79.921158	0.000375	3.749294	1.270295	-0.000150
 995	9.8903e+01	0.3802	79.787932	0.000334	3.343965	1.132966	-0.000134
 996	9.9002e+01	0.3481	79.670855	0.000294	2.938635	0.995637	-0.000118
 997	9.9102e+01	0.3032	79.553778	0.000294	2.938635	0.995637	-0.000118
 998	9.9201e+01	0.2663	79.408441	0.000365	3.647961	1.235963	-0.000146
 999	9.9301e+01	0.2246	79.311550	0.000243	2.431974	0.823975	-0.000097
1000	9.9400e+01	0.1861	79.206585	0.000263	2.634639	0.892640	-0.000105
1001	9.9500e+01	0.1412	79.125842	0.000203	2.026645	0.686646	-0.000081
1002	9.9600e+01	0.1011	78.996654	0.000324	3.242632	1.098634	-0.000130
1003	9.9699e+01	0.0626	78.790760	0.000517	5.167945	1.750947	-0.000207
1004	9.9799e+01	0.0257	78.697906	0.000233	2.330642	0.789643	-0.000093
1005	9.9898e+01	-0.0128	78.592940	0.000263	2.634639	0.892640	-0.000105
1006	9.9998e+01	-0.0449	78.471826	0.000304	3.039968	1.029969	-0.000122
1007	1.0010e+02	-0.0914	78.354749	0.000294	2.938635	0.995637	-0.000118
1008	1.0020e+02	-0.1299	78.245746	0.000274	2.735971	0.926972	-0.000110
1009	1.0030e+02	-0.1717	78.100409	0.000365	3.647961	1.235963	-0.000146
1010	1.0040e+02	-0.2134	77.991407	0.000274	2.735971	0.926972	-0.000110
1011	1.0050e+02	-0.2454	77.886441	0.000263	2.634639	0.892640	-0.000105
1012	1.0059e+02	-0.2872	77.724956	0.000405	4.053290	1.373292	-0.000162
1013	1.0069e+02	-0.3241	77.595767	0.000324	3.242632	1.098634	-0.000130
1014	1.0079e+02	-0.3722	77.531173	0.000162	1.621316	0.549317	-0.000065
1015	1.0089e+02	-0.4027	77.373725	0.000395	3.951958	1.338960	-0.000158
1016	1.0099e+02	-0.4444	77.256648	0.000294	2.938635	0.995637	-0.000118
1017	1.0109e+02	-0.4845	77.107274	0.000375	3.749294	1.270295	-0.000150
1018	1.0119e+02	-0.5262	77.006346	0.000253	2.533306	0.858307	-0.000101
1019	1.0129e+02	-0.5663	76.885232	0.000304	3.039968	1.029969	-0.000122
1020	1.0139e+02	-0.6080	76.760080	0.000314	3.141300	1.064301	-0.000126
1021	1.0149e+02	-0.6497	76.626855	0.000334	3.343965	1.132966	-0.000134
1022	1.0159e+02	-0.6898	76.538038	0.000223	2.229310	0.755311	-0.000089
1023	1.0169e+02	-0.7203	76.400775	0.000345	3.445297	1.167298	-0.000138
1024	1.0179e+02	-0.7588	76.287735	0.000284	2.837303	0.961304	-0.000114
1025	1.0189e+02	-0.8037	76.170659	0.000294	2.938635	0.995637	-0.000118
1026	1.0199e+02	-0.8454	76.053582	0.000294	2.938635	0.995637	-0.000118
1027	1.0209e+02	-0.8903	75.952653	0.000253	2.533306	0.858307	-0.000101
1028	1.0219e+02	-0.9256	75.795205	0.000395	3.951958	1.338960	-0.000158
1029	1.0229e+02	-0.9641	75.718499	0.000193	1.925313	0.652314	-0.000077
1030	1.0239e+02	-0.9994	75.577200	0.000355	3.546629	1.201630	-0.000142
1031	1.0248e+02	-1.0460	75.460123	0.000294	2.938635	0.995637	-0.000118
1032	1.0258e+02	-1.0829	75.334971	0.000314	3.141300	1.064301	-0.000126
1033	1.0268e+02	-1.1214	75.181560	0.000385	3.850626	1.304627	-0.000154
1034	1.0278e+02	-1.1695	75.092743	0.000223	2.229310	0.755311	-0.000089
1035	1.0288e+02	-1.2096	74.959518	0.000334	3.343965	1.132966	-0.000134
1036	1.0298e+02	-1.2321	74.866664	0.000233	2.330642	0.789643	-0.000093
1037	1.0308e+02	-1.2786	74.757661	0.000274	2.735971	0.926972	-0.000110
1038	1.0318e+02	-1.3283	74.600213	0.000395	3.951958	1.338960	-0.000158
1039	1.0328e+02	-1.3668	74.503321	0.000243	2.431974	0.823975	-0.000097
1040	1.0338e+02	-1.4069	74.406430	0.000243	2.431974	0.823975	-0.000097
1041	1.0348e+02	-1.4438	74.281279	0.000314	3.141300	1.064301	-0.000126
1042	1.0358e+02	-1.4871	74.176313	0.000263	2.634639	0.892640	-0.000105
1043	1.0368e+02	-1.5256	74.047125	0.000324	3.242632	1.098634	-0.000130
1044	1.0378e+02	-1.5545	73.926011	0.000304	3.039968	1.029969	-0.000122
1045	1.0388e+02	-1.6042	73.825083	0.000253	2.533306	0.858307	-0.000101
1046	1.0398e+02	-1.6443	73.699931	0.000314	3.141300	1.064301	-0.000126
1047	1.0408e+02	-1.6812	73.599003	0.000253	2.533306	0.858307	-0.000101
1048	1.0418e+02	-1.7213	73.457703	0.000355	3.546629	1.201630	-0.000142
1049	1.0428e+02	-1.7582	73.352738	0.000263	2.634639	0.892640	-0.000105
1050	1.0438e+02	-1.7951	73.227587	0.000314	3.141300	1.064301	-0.000126
1051	1.0447e+02	-1.8368	73.090324	0.000345	3.445297	1.167298	-0.000138
1052	1.0457e+02	-1.8786	72.989396	0.000253	2.533306	0.858307	-0.000101
1053	1.0467e+02	-1.9171	72.860207	0.000324	3.242632	1.098634	-0.000130
1054	1.0477e+02	-1.9636	72.771390	0.000223	2.229310	0.755311	-0.000089
1055	1.0487e+02	-2.0053	72.658350	0.000284	2.837303	0.961304	-0.000114
1056	1.0497e+02	-2.0374	72.529162	0.000324	3.242632	1.098634	-0.000130
1057	1.0507e+02	-2.0823	72.367677	0.000405	4.053290	1.373292	-0.000162
1058	1.0517e+02	-2.1192	72.290971	0.000193	1.925313	0.652314	-0.000077
1059	1.0527e+02	-2.1529	72.145634	0.000365	3.647961	1.235963	-0.000146
1060	1.0537e+02	-2.1946	72.008372	0.000345	3.445297	1.167298	-0.000138
1061	1.0547e+02	-2.2411	71.939740	0.000172	1.722648	0.583649	-0.000069
1062	1.0557e+02	-2.2812	71.830738	0.000274	2.735971	0.926972	-0.000110
1063	1.0567e+02	-2.3293	71.645029	0.000466	4.661284	1.579286	-0.000187
1064	1.0577e+02	-2.3582	71.560250	0.000213	2.127977	0.720978	-0.000085
1065	1.0587e+02	-2.4015	71.439135	0.000304	3.039968	1.029969	-0.000122
1066	1.0597e+02	-2.4384	71.318021	0.000304	3.039968	1.029969	-0.000122
1067	1.0607e+02	-2.4785	71.213056	0.000263	2.634639	0.892640	-0.000105
1068	1.0617e+02	-2.5219	71.087905	0.000314	3.141300	1.064301	-0.000126
1069	1.0627e+02	-2.5507	70.954679	0.000334	3.343965	1.132966	-0.000134
1070	1.0637e+02	-2.5989	70.877974	0.000193	1.925313	0.652314	-0.000077
1071	1.0647e+02	-2.6390	70.736674	0.000355	3.546629	1.201630	-0.000142
1072	1.0656e+02	-2.6791	70.623634	0.000284	2.837303	0.961304	-0.000114
1073	1.0666e+02	-2.7272	70.486371	0.000345	3.445297	1.167298	-0.000138
1074	1.0676e+02	-2.7673	70.389480	0.000243	2.431974	0.823975	-0.000097
1075	1.0686e+02	-2.8042	70.268366	0.000304	3.039968	1.029969	-0.000122
1076	1.0696e+02	-2.8363	70.159363	0.000274	2.735971	0.926972	-0.000110
1077	1.0706e+02	-2.8748	70.026138	0.000334	3.343965	1.132966	-0.000134
1078	1.0716e+02	-2.9181	69.905024	0.000304	3.039968	1.029969	-0.000122
1079	1.0726e+02	-2.9678	69.796021	0.000274	2.735971	0.926972	-0.000110
1080	1.0736e+02	-2.9999	69.666833	0.000324	3.242632	1.098634	-0.000130
1081	1.0746e+02	-3.0432	69.525533	0.000355	3.546629	1.201630	-0.000142
1082	1.0756e+02	-3.0833	69.416530	0.000274	2.735971	0.926972	-0.000110
1083	1.0766e+02	-3.1138	69.287342	0.000324	3.242632	1.098634	-0.000130
1084	1.0776e+02	-3.1619	69.194488	0.000233	2.330642	0.789643	-0.000093
1085	1.0786e+02	-3.1956	69.093560	0.000253	2.533306	0.858307	-0.000101
1086	1.0796e+02	-3.2341	68.984557	0.000274	2.735971	0.926972	-0.000110
1087	1.0806e+02	-3.2807	68.863443	0.000304	3.039968	1.029969	-0.000122
1088	1.0816e+02	-3.3111	68.746366	0.000294	2.938635	0.995637	-0.000118
1089	1.0826e+02	-3.3561	68.621215	0.000314	3.141300	1.064301	-0.000126
1090	1.0836e+02	-3.3930	68.483952	0.000345	3.445297	1.167298	-0.000138
1091	1.0845e+02	-3.4298	68.350727	0.000334	3.343965	1.132966	-0.000134
1092	1.0855e+02	-3.4684	68.265947	0.000213	2.127977	0.720978	-0.000085
1093	1.0865e+02	-3.5213	68.148870	0.000294	2.938635	0.995637	-0.000118
1094	1.0875e+02	-3.5502	68.027756	0.000304	3.039968	1.029969	-0.000122
1095	1.0885e+02	-3.5983	67.890493	0.000345	3.445297	1.167298	-0.000138
1096	1.0895e+02	-3.6304	67.797639	0.000233	2.330642	0.789643	-0.000093
1097	1.0905e+02	-3.6801	67.684599	0.000284	2.837303	0.961304	-0.000114
1098	1.0915e+02	-3.7154	67.567522	0.000294	2.938635	0.995637	-0.000118
1099	1.0925e+02	-3.7443	67.462557	0.000263	2.634639	0.892640	-0.000105
1100	1.0935e+02	-3.7828	67.313183	0.000375	3.749294	1.270295	-0.000150
1101	1.0945e+02	-3.8357	67.232440	0.000203	2.026645	0.686646	-0.000081
1102	1.0955e+02	-3.8646	67.119400	0.000284	2.837303	0.961304	-0.000114
1103	1.0965e+02	-3.9127	66.998286	0.000304	3.039968	1.029969	-0.000122
1104	1.0975e+02	-3.9560	66.897358	0.000253	2.533306	0.858307	-0.000101
1105	1.0985e+02	-4.0010	66.747984	0.000375	3.749294	1.270295	-0.000150
1106	1.0995e+02	-4.0298	66.634944	0.000284	2.837303	0.961304	-0.000114
1107	1.1005e+02	-4.0796	66.542090	0.000233	2.330642	0.789643	-0.000093
1108	1.1015e+02	-4.1149	66.412901	0.000324	3.242632	1.098634	-0.000130
1109	1.1025e+02	-4.1598	66.271602	0.000355	3.546629	1.201630	-0.000142
1110	1.1035e+02	-4.1967	66.223156	0.000122	1.215987	0.411988	-0.000049
1111	1.1044e+02	-4.2272	66.045522	0.000446	4.458619	1.510621	-0.000179
1112	1.1054e+02	-4.2721	65.936519	0.000274	2.735971	0.926972	-0.000110
1113	1.1064e+02	-4.3186	65.823480	0.000284	2.837303	0.961304	-0.000114
1114	1.1074e+02	-4.3459	65.702366	0.000304	3.039968	1.029969	-0.000122
1115	1.1084e+02	-4.3940	65.625660	0.000193	1.925313	0.652314	-0.000077
1116	1.1094e+02	-4.4373	65.484360	0.000355	3.546629	1.201630	-0.000142
1117	1.1104e+02	-4.4758	65.387469	0.000243	2.431974	0.823975	-0.000097
1118	1.1114e+02	-4.5095	65.266355	0.000304	3.039968	1.029969	-0.000122
1119	1.1124e+02	-4.5544	65.157352	0.000274	2.735971	0.926972	-0.000110
1120	1.1134e+02	-4.5929	65.024127	0.000334	3.343965	1.132966	-0.000134
1121	1.1144e+02	-4.6394	64.911087	0.000284	2.837303	0.961304	-0.000114
1122	1.1154e+02	-4.6731	64.802084	0.000274	2.735971	0.926972	-0.000110
1123	1.1164e+02	-4.7100	64.685007	0.000294	2.938635	0.995637	-0.000118
1124	1.1174e+02	-4.7517	64.567930	0.000294	2.938635	0.995637	-0.000118
1125	1.1184e+02	-4.7951	64.450853	0.000294	2.938635	0.995637	-0.000118
1126	1.1194e+02	-4.8352	64.349925	0.000253	2.533306	0.858307	-0.000101
1127	1.1204e+02	-4.8721	64.232848	0.000294	2.938635	0.995637	-0.000118
1128	1.1214e+02	-4.9090	64.127883	0.000263	2.634639	0.892640	-0.000105
1129	1.1224e+02	-4.9475	63.986583	0.000355	3.546629	1.201630	-0.000142
1130	1.1234e+02	-4.9940	63.909877	0.000193	1.925313	0.652314	-0.000077
1131	1.1244e+02	-5.0341	63.752429	0.000395	3.951958	1.338960	-0.000158
1132	1.1253e+02	-5.0710	63.671686	0.000203	2.026645	0.686646	-0.000081
1133	1.1263e+02	-5.1047	63.534424	0.000345	3.445297	1.167298	-0.000138
1134	1.1273e+02	-5.1544	63.421384	0.000284	2.837303	0.961304	-0.000114
1135	1.1283e+02	-5.1897	63.344678	0.000193	1.925313	0.652314	-0.000077
1136	1.1293e+02	-5.2298	63.211453	0.000334	3.343965	1.132966	-0.000134
1137	1.1303e+02	-5.2683	63.106487	0.000263	2.634639	0.892640	-0.000105
1138	1.1313e+02	-5.3084	63.017670	0.000223	2.229310	0.755311	-0.000089
1139	1.1323e+02	-5.3517	62.856185	0.000405	4.053290	1.373292	-0.000162
1140	1.1333e+02	-5.3854	62.747182	0.000274	2.735971	0.926972	-0.000110
1141	1.1343e+02	-5.4287	62.682588	0.000162	1.621316	0.549317	-0.000065
1142	1.1353e+02	-5.4672	62.573585	0.000274	2.735971	0.926972	-0.000110
1143	1.1363e+02	-5.5073	62.464583	0.000274	2.735971	0.926972	-0.000110
1144	1.1373e+02	-5.5506	62.351543	0.000284	2.837303	0.961304	-0.000114
1145	1.1383e+02	-5.5924	62.238503	0.000284	2.837303	0.961304	-0.000114
1146	1.1393e+02	-5.6228	62.141612	0.000243	2.431974	0.823975	-0.000097
1147	1.1403e+02	-5.6629	62.028572	0.000284	2.837303	0.961304	-0.000114
1148	1.1413e+02	-5.7111	61.939755	0.000223	2.229310	0.755311	-0.000089
1149	1.1423e+02	-5.7448	61.830752	0.000274	2.735971	0.926972	-0.000110
1150	1.1433e+02	-5.7897	61.661193	0.000426	4.255955	1.441957	-0.000170
1151	1.1442e+02	-5.8218	61.588524	0.000182	1.823981	0.617981	-0.000073
1152	1.1452e+02	-5.8715	61.483559	0.000263	2.634639	0.892640	-0.000105
1153	1.1462e+02	-5.9116	61.386667	0.000243	2.431974	0.823975	-0.000097
1154	1.1472e+02	-5.9453	61.261516	0.000314	3.141300	1.064301	-0.000126
1155	1.1482e+02	-5.9870	61.168662	0.000233	2.330642	0.789643	-0.000093
1156	1.1492e+02	-6.0175	61.100031	0.000172	1.722648	0.583649	-0.000069
1157	1.1502e+02	-6.0640	60.954694	0.000365	3.647961	1.235963	-0.000146
1158	1.1512e+02	-6.1025	60.873951	0.000203	2.026645	0.686646	-0.000081
1159	1.1522e+02	-6.1410	60.732651	0.000355	3.546629	1.201630	-0.000142
1160	1.1532e+02	-6.1875	60.615575	0.000294	2.938635	0.995637	-0.000118
1161	1.1542e+02	-6.2180	60.530795	0.000213	2.127977	0.720978	-0.000085
1162	1.1552e+02	-6.2645	60.454089	0.000193	1.925313	0.652314	-0.000077
1163	1.1562e+02	-6.3078	60.308752	0.000365	3.647961	1.235963	-0.000146
1164	1.1572e+02	-6.3383	60.191675	0.000294	2.938635	0.995637	-0.000118
1165	1.1582e+02	-6.3929	60.123044	0.000172	1.722648	0.583649	-0.000069
1166	1.1592e+02	-6.4314	60.030190	0.000233	2.330642	0.789643	-0.000093
1167	1.1602e+02	-6.4651	59.868704	0.000405	4.053290	1.373292	-0.000162
1168	1.1612e+02	-6.5020	59.808147	0.000152	1.519984	0.514984	-0.000061
1169	1.1622e+02	-6.5437	59.691070	0.000294	2.938635	0.995637	-0.000118
1170	1.1632e+02	-6.5838	59.586105	0.000263	2.634639	0.892640	-0.000105
1171	1.1642e+02	-6.6175	59.485177	0.000253	2.533306	0.858307	-0.000101
1172	1.1651e+02	-6.6576	59.396360	0.000223	2.229310	0.755311	-0.000089
1173	1.1661e+02	-6.6993	59.275245	0.000304	3.039968	1.029969	-0.000122
1174	1.1671e+02	-6.7378	59.170280	0.000263	2.634639	0.892640	-0.000105
1175	1.1681e+02	-6.7795	59.077426	0.000233	2.330642	0.789643	-0.000093
1176	1.1691e+02	-6.8180	58.988609	0.000223	2.229310	0.755311	-0.000089
1177	1.1701e+02	-6.8501	58.879606	0.000274	2.735971	0.926972	-0.000110
1178	1.1711e+02	-6.9014	58.750418	0.000324	3.242632	1.098634	-0.000130
1179	1.1721e+02	-6.9335	58.653527	0.000243	2.431974	0.823975	-0.000097
1180	1.1731e+02	-6.9800	58.588932	0.000162	1.621316	0.549317	-0.000065
1181	1.1741e+02	-7.0281	58.463781	0.000314	3.141300	1.064301	-0.000126
1182	1.1751e+02	-7.0522	58.366890	0.000243	2.431974	0.823975	-0.000097
1183	1.1761e+02	-7.0987	58.302296	0.000162	1.621316	0.549317	-0.000065
1184	1.1771e+02	-7.1308	58.140810	0.000405	4.053290	1.373292	-0.000162
1185	1.1781e+02	-7.1757	58.080253	0.000152	1.519984	0.514984	-0.000061
1186	1.1791e+02	-7.2255	57.918768	0.000405	4.053290	1.373292	-0.000162
1187	1.1801e+02	-7.2592	57.854174	0.000162	1.621316	0.549317	-0.000065
1188	1.1811e+02	-7.3009	57.761320	0.000233	2.330642	0.789643	-0.000093
1189	1.1821e+02	-7.3346	57.644243	0.000294	2.938635	0.995637	-0.000118
1190	1.1831e+02	-7.3763	57.583686	0.000152	1.519984	0.514984	-0.000061
1191	1.1841e+02	-7.4164	57.442386	0.000355	3.546629	1.201630	-0.000142
1192	1.1850e+02	-7.4597	57.357606	0.000213	2.127977	0.720978	-0.000085
1193	1.1860e+02	-7.5078	57.256678	0.000253	2.533306	0.858307	-0.000101
1194	1.1870e+02	-7.5319	57.159786	0.000243	2.431974	0.823975	-0.000097
1195	1.1880e+02	-7.5784	57.010412	0.000375	3.749294	1.270295	-0.000150
1196	1.1890e+02	-7.6217	56.949855	0.000152	1.519984	0.514984	-0.000061
1197	1.1900e+02	-7.6602	56.857001	0.000233	2.330642	0.789643	-0.000093
1198	1.1910e+02	-7.6987	56.776258	0.000203	2.026645	0.686646	-0.000081
1199	1.1920e+02	-7.7356	56.659182	0.000294	2.938635	0.995637	-0.000118
1200	1.1930e+02	-7.7725	56.582476	0.000193	1.925313	0.652314	-0.000077
1201	1.1940e+02	-7.8142	56.445213	0.000345	3.445297	1.167298	-0.000138
1202	1.1950e+02	-7.8463	56.364471	0.000203	2.026645	0.686646	-0.000081
1203	1.1960e+02	-7.8928	56.279691	0.000213	2.127977	0.720978	-0.000085
1204	1.1970e+02	-7.9410	56.170688	0.000274	2.735971	0.926972	-0.000110
1205	1.1980e+02	-7.9650	56.073797	0.000243	2.431974	0.823975	-0.000097
1206	1.1990e+02	-8.0099	55.948646	0.000314	3.141300	1.064301	-0.000126
1207	1.2000e+02	-8.0516	55.920386	0.000071	0.709326	0.240326	-0.000028
1208	1.2010e+02	-8.1014	55.758900	0.000405	4.053290	1.373292	-0.000162
1209	1.2020e+02	-8.1383	55.686232	0.000182	1.823981	0.617981	-0.000073
1210	1.2030e+02	-8.1736	55.577229	0.000274	2.735971	0.926972	-0.000110
1211	1.2039e+02	-8.2121	55.492449	0.000213	2.127977	0.720978	-0.000085
1212	1.2049e+02	-8.2538	55.371335	0.000304	3.039968	1.029969	-0.000122
1213	1.2059e+02	-8.3019	55.278481	0.000233	2.330642	0.789643	-0.000093
1214	1.2069e+02	-8.3404	55.205813	0.000182	1.823981	0.617981	-0.000073
1215	1.2079e+02	-8.3709	55.096810	0.000274	2.735971	0.926972	-0.000110
1216	1.2089e+02	-8.4238	54.983770	0.000284	2.837303	0.961304	-0.000114
1217	1.2099e+02	-8.4527	54.919176	0.000162	1.621316	0.549317	-0.000065
1218	1.2109e+02	-8.4896	54.781913	0.000345	3.445297	1.167298	-0.000138
1219	1.2119e+02	-8.5377	54.680985	0.000253	2.533306	0.858307	-0.000101
1220	1.2129e+02	-8.5778	54.604279	0.000193	1.925313	0.652314	-0.000077
1221	1.2139e+02	-8.6131	54.495277	0.000274	2.735971	0.926972	-0.000110
1222	1.2149e+02	-8.6580	54.434720	0.000152	1.519984	0.514984	-0.000061
1223	1.2159e+02	-8.6965	54.297457	0.000345	3.445297	1.167298	-0.000138
1224	1.2169e+02	-8.7367	54.184417	0.000284	2.837303	0.961304	-0.000114
1225	1.2179e+02	-8.7703	54.091563	0.000233	2.330642	0.789643	-0.000093
1226	1.2189e+02	-8.8056	54.002746	0.000223	2.229310	0.755311	-0.000089
1227	1.2199e+02	-8.8489	53.853372	0.000375	3.749294	1.270295	-0.000150
1228	1.2209e+02	-8.8939	53.752444	0.000253	2.533306	0.858307	-0.000101
1229	1.2219e+02	-8.9356	53.695924	0.000142	1.418652	0.480652	-0.000057
1230	1.2229e+02	-8.9677	53.590958	0.000263	2.634639	0.892640	-0.000105
1231	1.2239e+02	-9.0174	53.490030	0.000253	2.533306	0.858307	-0.000101
1232	1.2248e+02	-9.0559	53.397176	0.000233	2.330642	0.789643	-0.000093
1233	1.2258e+02	-9.0896	53.292210	0.000263	2.634639	0.892640	-0.000105
1234	1.2268e+02	-9.1329	53.223579	0.000172	1.722648	0.583649	-0.000069
1235	1.2278e+02	-9.1698	53.090354	0.000334	3.343965	1.132966	-0.000134
1236	1.2288e+02	-9.2115	52.981351	0.000274	2.735971	0.926972	-0.000110
1237	1.2298e+02	-9.2548	52.880422	0.000253	2.533306	0.858307	-0.000101
1238	1.2308e+02	-9.2901	52.763346	0.000294	2.938635	0.995637	-0.000118
1239	1.2318e+02	-9.3398	52.710863	0.000132	1.317319	0.446320	-0.000053
1240	1.2328e+02	-9.3767	52.565526	0.000365	3.647961	1.235963	-0.000146
1241	1.2338e+02	-9.4136	52.496895	0.000172	1.722648	0.583649	-0.000069
1242	1.2348e+02	-9.4553	52.359632	0.000345	3.445297	1.167298	-0.000138
1243	1.2358e+02	-9.4890	52.299075	0.000152	1.519984	0.514984	-0.000061
1244	1.2368e+02	-9.5324	52.186035	0.000284	2.837303	0.961304	-0.000114
1245	1.2378e+02	-9.5757	52.085107	0.000253	2.533306	0.858307	-0.000101
1246	1.2388e+02	-9.6045	51.968030	0.000294	2.938635	0.995637	-0.000118
1247	1.2398e+02	-9.6479	51.854990	0.000284	2.837303	0.961304	-0.000114
1248	1.2408e+02	-9.6831	51.814619	0.000101	1.013323	0.343323	-0.000041
1249	1.2418e+02	-9.7265	51.713690	0.000253	2.533306	0.858307	-0.000101
1250	1.2428e+02	-9.7714	51.576428	0.000345	3.445297	1.167298	-0.000138
1251	1.2438e+02	-9.8163	51.471462	0.000263	2.634639	0.892640	-0.000105
1252	1.2447e+02	-9.8436	51.374571	0.000243	2.431974	0.823975	-0.000097
1253	1.2457e+02	-9.8885	51.289791	0.000213	2.127977	0.720978	-0.000085
1254	1.2467e+02	-9.9238	51.205011	0.000213	2.127977	0.720978	-0.000085
1255	1.2477e+02	-9.9815	51.067749	0.000345	3.445297	1.167298	-0.000138
1256	1.2487e+02	-10.0008	50.991043	0.000193	1.925313	0.652314	-0.000077
1257	1.2497e+02	-10.0409	50.890115	0.000253	2.533306	0.858307	-0.000101
1258	1.2507e+02	-10.1019	50.781112	0.000274	2.735971	0.926972	-0.000110
1259	1.2517e+02	-10.1404	50.668072	0.000284	2.837303	0.961304	-0.000114
1260	1.2527e+02	-10.1692	50.567144	0.000253	2.533306	0.858307	-0.000101
1261	1.2537e+02	-10.2158	50.478327	0.000223	2.229310	0.755311	-0.000089
1262	1.2547e+02	-10.2478	50.413733	0.000162	1.621316	0.549317	-0.000065
1263	1.2557e+02	-10.2944	50.304730	0.000274	2.735971	0.926972	-0.000110
1264	1.2567e+02	-10.3329	50.159393	0.000365	3.647961	1.235963	-0.000146
1265	1.2577e+02	-10.3698	50.074613	0.000213	2.127977	0.720978	-0.000085
1266	1.2587e+02	-10.3986	49.961573	0.000284	2.837303	0.961304	-0.000114
1267	1.2597e+02	-10.4532	49.876793	0.000213	2.127977	0.720978	-0.000085
1268	1.2607e+02	-10.4901	49.783939	0.000233	2.330642	0.789643	-0.000093
1269	1.2617e+02	-10.5350	49.695122	0.000223	2.229310	0.755311	-0.000089
1270	1.2627e+02	-10.5703	49.614380	0.000203	2.026645	0.686646	-0.000081
1271	1.2636e+02	-10.6136	49.473080	0.000355	3.546629	1.201630	-0.000142
1272	1.2646e+02	-10.6489	49.384263	0.000223	2.229310	0.755311	-0.000089
1273	1.2656e+02	-10.6858	49.279297	0.000263	2.634639	0.892640	-0.000105
1274	1.2666e+02	-10.7307	49.194518	0.000213	2.127977	0.720978	-0.000085
1275	1.2676e+02	-10.7580	49.097626	0.000243	2.431974	0.823975	-0.000097
1276	1.2686e+02	-10.8013	48.988624	0.000274	2.735971	0.926972	-0.000110
1277	1.2696e+02	-10.8446	48.879621	0.000274	2.735971	0.926972	-0.000110
1278	1.2706e+02	-10.8847	48.794841	0.000213	2.127977	0.720978	-0.000085
1279	1.2716e+02	-10.9168	48.689876	0.000263	2.634639	0.892640	-0.000105
1280	1.2726e+02	-10.9633	48.609133	0.000203	2.026645	0.686646	-0.000081
1281	1.2736e+02	-11.0002	48.500130	0.000274	2.735971	0.926972	-0.000110
1282	1.2746e+02	-11.0500	48.370942	0.000324	3.242632	1.098634	-0.000130
1283	1.2756e+02	-11.0933	48.306348	0.000162	1.621316	0.549317	-0.000065
1284	1.2766e+02	-11.1189	48.189271	0.000294	2.938635	0.995637	-0.000118
1285	1.2776e+02	-11.1703	48.084305	0.000263	2.634639	0.892640	-0.000105
1286	1.2786e+02	-11.2088	47.971265	0.000284	2.837303	0.961304	-0.000114
1287	1.2796e+02	-11.2505	47.866300	0.000263	2.634639	0.892640	-0.000105
1288	1.2806e+02	-11.2794	47.761334	0.000263	2.634639	0.892640	-0.000105
1289	1.2816e+02	-11.3243	47.684629	0.000193	1.925313	0.652314	-0.000077
1290	1.2826e+02	-11.3708	47.559478	0.000314	3.141300	1.064301	-0.000126
1291	1.2835e+02	-11.4045	47.470661	0.000223	2.229310	0.755311	-0.000089
1292	1.2845e+02	-11.4430	47.365695	0.000263	2.634639	0.892640	-0.000105
1293	1.2855e+02	-11.4863	47.309175	0.000142	1.418652	0.480652	-0.000057
1294	1.2865e+02	-11.5152	47.179987	0.000324	3.242632	1.098634	-0.000130
1295	1.2875e+02	-11.5697	47.062910	0.000294	2.938635	0.995637	-0.000118
1296	1.2885e+02	-11.5970	46.941796	0.000304	3.039968	1.029969	-0.000122
1297	1.2895e+02	-11.6435	46.857016	0.000213	2.127977	0.720978	-0.000085
1298	1.2905e+02	-11.6868	46.764162	0.000233	2.330642	0.789643	-0.000093
1299	1.2915e+02	-11.7285	46.655159	0.000274	2.735971	0.926972	-0.000110
1300	1.2925e+02	-11.7590	46.546156	0.000274	2.735971	0.926972	-0.000110
1301	1.2935e+02	-11.8023	46.461377	0.000213	2.127977	0.720978	-0.000085
1302	1.2945e+02	-11.8408	46.372560	0.000223	2.229310	0.755311	-0.000089
1303	1.2955e+02	-11.8922	46.255483	0.000294	2.938635	0.995637	-0.000118
1304	1.2965e+02	-11.9339	46.182814	0.000182	1.823981	0.617981	-0.000073
1305	1.2975e+02	-11.9596	46.073812	0.000274	2.735971	0.926972	-0.000110
1306	1.2985e+02	-12.0013	45.984995	0.000223	2.229310	0.755311	-0.000089
1307	1.2995e+02	-12.0510	45.912326	0.000182	1.823981	0.617981	-0.000073
1308	1.3005e+02	-12.0831	45.787175	0.000314	3.141300	1.064301	-0.000126
1309	1.3015e+02	-12.1200	45.718544	0.000172	1.722648	0.583649	-0.000069
1310	1.3025e+02	-12.1681	45.593392	0.000314	3.141300	1.064301	-0.000126
1311	1.3034e+02	-12.1938	45.508613	0.000213	2.127977	0.720978	-0.000085
1312	1.3044e+02	-12.2387	45.407684	0.000253	2.533306	0.858307	-0.000101
1313	1.3054e+02	-12.2868	45.339053	0.000172	1.722648	0.583649	-0.000069
1314	1.3064e+02	-12.3157	45.226013	0.000284	2.837303	0.961304	-0.000114
1315	1.3074e+02	-12.3526	45.129122	0.000243	2.431974	0.823975	-0.000097
1316	1.3084e+02	-12.3991	45.052416	0.000193	1.925313	0.652314	-0.000077
1317	1.3094e+02	-12.4392	44.955525	0.000243	2.431974	0.823975	-0.000097
1318	1.3104e+02	-12.4697	44.858634	0.000243	2.431974	0.823975	-0.000097
1319	1.3114e+02	-12.5162	44.773854	0.000213	2.127977	0.720978	-0.000085
1320	1.3124e+02	-12.5595	44.636591	0.000345	3.445297	1.167298	-0.000138
1321	1.3134e+02	-12.5980	44.576034	0.000152	1.519984	0.514984	-0.000061
1322	1.3144e+02	-12.6349	44.471069	0.000263	2.634639	0.892640	-0.000105
1323	1.3154e+02	-12.6831	44.370140	0.000253	2.533306	0.858307	-0.000101
1324	1.3164e+02	-12.7184	44.301509	0.000172	1.722648	0.583649	-0.000069
1325	1.3174e+02	-12.7537	44.204618	0.000243	2.431974	0.823975	-0.000097
1326	1.3184e+02	-12.8018	44.111764	0.000233	2.330642	0.789643	-0.000093
1327	1.3194e+02	-12.8403	44.022947	0.000223	2.229310	0.755311	-0.000089
1328	1.3204e+02	-12.8804	43.913944	0.000274	2.735971	0.926972	-0.000110
1329	1.3214e+02	-12.9189	43.841276	0.000182	1.823981	0.617981	-0.000073
1330	1.3224e+02	-12.9622	43.756496	0.000213	2.127977	0.720978	-0.000085
1331	1.3234e+02	-12.9895	43.671716	0.000213	2.127977	0.720978	-0.000085
1332	1.3243e+02	-13.0328	43.566750	0.000263	2.634639	0.892640	-0.000105
1333	1.3253e+02	-13.0793	43.477933	0.000223	2.229310	0.755311	-0.000089
1334	1.3263e+02	-13.1130	43.393153	0.000213	2.127977	0.720978	-0.000085
1335	1.3273e+02	-13.1595	43.316448	0.000193	1.925313	0.652314	-0.000077
1336	1.3283e+02	-13.1996	43.179185	0.000345	3.445297	1.167298	-0.000138
1337	1.3293e+02	-13.2381	43.090368	0.000223	2.229310	0.755311	-0.000089
1338	1.3303e+02	-13.2734	42.993477	0.000243	2.431974	0.823975	-0.000097
1339	1.3313e+02	-13.3183	42.888512	0.000263	2.634639	0.892640	-0.000105
1340	1.3323e+02	-13.3536	42.815843	0.000182	1.823981	0.617981	-0.000073
1341	1.3333e+02	-13.4002	42.722989	0.000233	2.330642	0.789643	-0.000093
1342	1.3343e+02	-13.4387	42.670506	0.000132	1.317319	0.446320	-0.000053
1343	1.3353e+02	-13.4756	42.581689	0.000223	2.229310	0.755311	-0.000089
1344	1.3363e+02	-13.5189	42.464612	0.000294	2.938635	0.995637	-0.000118
1345	1.3373e+02	-13.5542	42.371758	0.000233	2.330642	0.789643	-0.000093
1346	1.3383e+02	-13.5927	42.319275	0.000132	1.317319	0.446320	-0.000053
1347	1.3393e+02	-13.6280	42.202198	0.000294	2.938635	0.995637	-0.000118
1348	1.3403e+02	-13.6825	42.064936	0.000345	3.445297	1.167298	-0.000138
1349	1.3413e+02	-13.7162	42.036676	0.000071	0.709326	0.240326	-0.000028
1350	1.3423e+02	-13.7563	41.867116	0.000426	4.255955	1.441957	-0.000170
1351	1.3432e+02	-13.7964	41.830782	0.000091	0.911990	0.308991	-0.000037
1352	1.3442e+02	-13.8221	41.697556	0.000334	3.343965	1.132966	-0.000134
1353	1.3452e+02	-13.8782	41.628925	0.000172	1.722648	0.583649	-0.000069
1354	1.3462e+02	-13.9199	41.572405	0.000142	1.418652	0.480652	-0.000057
1355	1.3472e+02	-13.9504	41.483588	0.000223	2.229310	0.755311	-0.000089
1356	1.3482e+02	-13.9969	41.362474	0.000304	3.039968	1.029969	-0.000122
1357	1.3492e+02	-14.0242	41.289806	0.000182	1.823981	0.617981	-0.000073
1358	1.3502e+02	-14.0755	41.196952	0.000233	2.330642	0.789643	-0.000093
1359	1.3512e+02	-14.1172	41.128320	0.000172	1.722648	0.583649	-0.000069
1360	1.3522e+02	-14.1461	41.027392	0.000253	2.533306	0.858307	-0.000101
1361	1.3532e+02	-14.1975	40.938575	0.000223	2.229310	0.755311	-0.000089
1362	1.3542e+02	-14.2360	40.845721	0.000233	2.330642	0.789643	-0.000093
1363	1.3552e+02	-14.2680	40.760941	0.000213	2.127977	0.720978	-0.000085
1364	1.3562e+02	-14.3178	40.712495	0.000122	1.215987	0.411988	-0.000049
1365	1.3572e+02	-14.3595	40.575233	0.000345	3.445297	1.167298	-0.000138
1366	1.3582e+02	-14.3980	40.478341	0.000243	2.431974	0.823975	-0.000097
1367	1.3592e+02	-14.4221	40.421822	0.000142	1.418652	0.480652	-0.000057
1368	1.3602e+02	-14.4670	40.304745	0.000294	2.938635	0.995637	-0.000118
1369	1.3612e+02	-14.5039	40.236113	0.000172	1.722648	0.583649	-0.000069
1370	1.3622e+02	-14.5616	40.131148	0.000263	2.634639	0.892640	-0.000105
1371	1.3631e+02	-14.6001	40.074628	0.000142	1.418652	0.480652	-0.000057
1372	1.3641e+02	-14.6258	39.969662	0.000263	2.634639	0.892640	-0.000105
1373	1.3651e+02	-14.6755	39.937365	0.000081	0.810658	0.274658	-0.000032
1374	1.3661e+02	-14.7076	39.812214	0.000314	3.141300	1.064301	-0.000126
1375	1.3671e+02	-14.7509	39.723397	0.000223	2.229310	0.755311	-0.000089
1376	1.3681e+02	-14.7942	39.646692	0.000193	1.925313	0.652314	-0.000077
1377	1.3691e+02	-14.8279	39.545763	0.000253	2.533306	0.858307	-0.000101
1378	1.3701e+02	-14.8616	39.477132	0.000172	1.722648	0.583649	-0.000069
1379	1.3711e+02	-14.9001	39.376203	0.000253	2.533306	0.858307	-0.000101
1380	1.3721e+02	-14.9547	39.287386	0.000223	2.229310	0.755311	-0.000089
1381	1.3731e+02	-14.9835	39.218755	0.000172	1.722648	0.583649	-0.000069
1382	1.3741e+02	-15.0268	39.109752	0.000274	2.735971	0.926972	-0.000110
1383	1.3751e+02	-15.0734	39.037084	0.000182	1.823981	0.617981	-0.000073
1384	1.3761e+02	-15.1055	38.928081	0.000274	2.735971	0.926972	-0.000110
1385	1.3771e+02	-15.1520	38.855413	0.000182	1.823981	0.617981	-0.000073
1386	1.3781e+02	-15.1905	38.774670	0.000203	2.026645	0.686646	-0.000081
1387	1.3791e+02	-15.2274	38.661630	0.000284	2.837303	0.961304	-0.000114
1388	1.3801e+02	-15.2627	38.576851	0.000213	2.127977	0.720978	-0.000085
1389	1.3811e+02	-15.3076	38.512256	0.000162	1.621316	0.549317	-0.000065
1390	1.3821e+02	-15.3509	38.387105	0.000314	3.141300	1.064301	-0.000126
1391	1.3831e+02	-15.3942	38.306362	0.000203	2.026645	0.686646	-0.000081
1392	1.3840e+02	-15.4343	38.225620	0.000203	2.026645	0.686646	-0.000081
1393	1.3850e+02	-15.4680	38.148914	0.000193	1.925313	0.652314	-0.000077
1394	1.3860e+02	-15.5145	38.043949	0.000263	2.634639	0.892640	-0.000105
1395	1.3870e+02	-15.5498	37.967243	0.000193	1.925313	0.652314	-0.000077
1396	1.3880e+02	-15.5980	37.906686	0.000152	1.519984	0.514984	-0.000061
1397	1.3890e+02	-15.6268	37.781535	0.000314	3.141300	1.064301	-0.000126
1398	1.3900e+02	-15.6669	37.680606	0.000253	2.533306	0.858307	-0.000101
1399	1.3910e+02	-15.7103	37.595827	0.000213	2.127977	0.720978	-0.000085
1400	1.3920e+02	-15.7488	37.531232	0.000162	1.621316	0.549317	-0.000065
1401	1.3930e+02	-15.7889	37.430304	0.000253	2.533306	0.858307	-0.000101
1402	1.3940e+02	-15.8258	37.321301	0.000274	2.735971	0.926972	-0.000110
1403	1.3950e+02	-15.8610	37.196150	0.000314	3.141300	1.064301	-0.000126
1404	1.3960e+02	-15.9044	37.115407	0.000203	2.026645	0.686646	-0.000081
1405	1.3970e+02	-15.9509	37.070999	0.000111	1.114655	0.377655	-0.000045
1406	1.3980e+02	-15.9750	36.937773	0.000334	3.343965	1.132966	-0.000134
1407	1.3990e+02	-16.0343	36.865105	0.000182	1.823981	0.617981	-0.000073
1408	1.4000e+02	-16.0680	36.800511	0.000162	1.621316	0.549317	-0.000065
1409	1.4010e+02	-16.1081	36.699582	0.000253	2.533306	0.858307	-0.000101
1410	1.4020e+02	-16.1514	36.618840	0.000203	2.026645	0.686646	-0.000081
1411	1.4029e+02	-16.1915	36.493689	0.000314	3.141300	1.064301	-0.000126
1412	1.4039e+02	-16.2300	36.412946	0.000203	2.026645	0.686646	-0.000081
1413	1.4049e+02	-16.2653	36.295869	0.000294	2.938635	0.995637	-0.000118
1414	1.4059e+02	-16.3086	36.271646	0.000061	0.607994	0.205994	-0.000024
1415	1.4069e+02	-16.3455	36.138421	0.000334	3.343965	1.132966	-0.000134
1416	1.4079e+02	-16.3824	36.037492	0.000253	2.533306	0.858307	-0.000101
1417	1.4089e+02	-16.4289	35.956749	0.000203	2.026645	0.686646	-0.000081
1418	1.4099e+02	-16.4626	35.855821	0.000253	2.533306	0.858307	-0.000101
1419	1.4109e+02	-16.4995	35.775078	0.000203	2.026645	0.686646	-0.000081
1420	1.4119e+02	-16.5509	35.653964	0.000304	3.039968	1.029969	-0.000122
1421	1.4129e+02	-16.5926	35.617630	0.000091	0.911990	0.308991	-0.000037
1422	1.4139e+02	-16.6263	35.520739	0.000243	2.431974	0.823975	-0.000097
1423	1.4149e+02	-16.6728	35.419810	0.000253	2.533306	0.858307	-0.000101
1424	1.4159e+02	-16.7049	35.314845	0.000263	2.634639	0.892640	-0.000105
1425	1.4169e+02	-16.7530	35.221991	0.000233	2.330642	0.789643	-0.000093
1426	1.4179e+02	-16.7787	35.137211	0.000213	2.127977	0.720978	-0.000085
1427	1.4189e+02	-16.8188	35.032245	0.000263	2.634639	0.892640	-0.000105
1428	1.4199e+02	-16.8605	34.947466	0.000213	2.127977	0.720978	-0.000085
1429	1.4209e+02	-16.8958	34.878834	0.000172	1.722648	0.583649	-0.000069
1430	1.4219e+02	-16.9407	34.790017	0.000223	2.229310	0.755311	-0.000089
1431	1.4228e+02	-16.9776	34.689089	0.000253	2.533306	0.858307	-0.000101
1432	1.4238e+02	-17.0209	34.608346	0.000203	2.026645	0.686646	-0.000081
1433	1.4248e+02	-17.0546	34.499343	0.000274	2.735971	0.926972	-0.000110
1434	1.4258e+02	-17.1011	34.426675	0.000182	1.823981	0.617981	-0.000073
1435	1.4268e+02	-17.1428	34.325747	0.000253	2.533306	0.858307	-0.000101
1436	1.4278e+02	-17.1829	34.228855	0.000243	2.431974	0.823975	-0.000097
1437	1.4288e+02	-17.2246	34.140038	0.000223	2.229310	0.755311	-0.000089
1438	1.4298e+02	-17.2599	34.059296	0.000203	2.026645	0.686646	-0.000081
1439	1.4308e+02	-17.3097	33.950293	0.000274	2.735971	0.926972	-0.000110
1440	1.4318e+02	-17.3402	33.861476	0.000223	2.229310	0.755311	-0.000089
1441	1.4328e+02	-17.3803	33.768622	0.000233	2.330642	0.789643	-0.000093
1442	1.4338e+02	-17.4236	33.699991	0.000172	1.722648	0.583649	-0.000069
1443	1.4348e+02	-17.4653	33.590988	0.000274	2.735971	0.926972	-0.000110
1444	1.4358e+02	-17.5006	33.486022	0.000263	2.634639	0.892640	-0.000105
1445	1.4368e+02	-17.5455	33.397205	0.000223	2.229310	0.755311	-0.000089
1446	1.4378e+02	-17.5856	33.284166	0.000284	2.837303	0.961304	-0.000114
1447	1.4388e+02	-17.6225	33.195349	0.000223	2.229310	0.755311	-0.000089
1448	1.4398e+02	-17.6610	33.110569	0.000213	2.127977	0.720978	-0.000085
1449	1.4408e+02	-17.7043	33.009640	0.000253	2.533306	0.858307	-0.000101
1450	1.4418e+02	-17.7492	32.924861	0.000213	2.127977	0.720978	-0.000085
1451	1.4428e+02	-17.7733	32.767412	0.000395	3.951958	1.338960	-0.000158
1452	1.4437e+02	-17.8198	32.710892	0.000142	1.418652	0.480652	-0.000057
1453	1.4447e+02	-17.8567	32.642261	0.000172	1.722648	0.583649	-0.000069
1454	1.4457e+02	-17.9000	32.509036	0.000334	3.343965	1.132966	-0.000134
1455	1.4467e+02	-17.9482	32.436367	0.000182	1.823981	0.617981	-0.000073
1456	1.4477e+02	-17.9770	32.331402	0.000263	2.634639	0.892640	-0.000105
1457	1.4487e+02	-18.0252	32.210287	0.000304	3.039968	1.029969	-0.000122
1458	1.4497e+02	-18.0524	32.177990	0.000081	0.810658	0.274658	-0.000032
1459	1.4507e+02	-18.0957	32.048802	0.000324	3.242632	1.098634	-0.000130
1460	1.4517e+02	-18.1471	31.955948	0.000233	2.330642	0.789643	-0.000093
1461	1.4527e+02	-18.1760	31.842908	0.000284	2.837303	0.961304	-0.000114
1462	1.4537e+02	-18.2080	31.758128	0.000213	2.127977	0.720978	-0.000085
1463	1.4547e+02	-18.2578	31.665274	0.000233	2.330642	0.789643	-0.000093
1464	1.4557e+02	-18.2995	31.576457	0.000223	2.229310	0.755311	-0.000089
1465	1.4567e+02	-18.3332	31.483603	0.000233	2.330642	0.789643	-0.000093
1466	1.4577e+02	-18.3829	31.362489	0.000304	3.039968	1.029969	-0.000122
1467	1.4587e+02	-18.4214	31.289821	0.000182	1.823981	0.617981	-0.000073
1468	1.4597e+02	-18.4567	31.225226	0.000162	1.621316	0.549317	-0.000065
1469	1.4607e+02	-18.4952	31.108149	0.000294	2.938635	0.995637	-0.000118
1470	1.4617e+02	-18.5369	31.003184	0.000263	2.634639	0.892640	-0.000105
1471	1.4626e+02	-18.5754	30.882070	0.000304	3.039968	1.029969	-0.000122
1472	1.4636e+02	-18.6187	30.801327	0.000203	2.026645	0.686646	-0.000081
1473	1.4646e+02	-18.6669	30.740770	0.000152	1.519984	0.514984	-0.000061
1474	1.4656e+02	-18.7005	30.603507	0.000345	3.445297	1.167298	-0.000138
1475	1.4666e+02	-18.7342	30.522765	0.000203	2.026645	0.686646	-0.000081
1476	1.4676e+02	-18.7759	30.429911	0.000233	2.330642	0.789643	-0.000093
1477	1.4686e+02	-18.8209	30.312834	0.000294	2.938635	0.995637	-0.000118
1478	1.4696e+02	-18.8642	30.252277	0.000152	1.519984	0.514984	-0.000061
1479	1.4706e+02	-18.8979	30.183645	0.000172	1.722648	0.583649	-0.000069
1480	1.4716e+02	-18.9316	30.026197	0.000395	3.951958	1.338960	-0.000158
1481	1.4726e+02	-18.9797	29.945454	0.000203	2.026645	0.686646	-0.000081
1482	1.4736e+02	-19.0150	29.844526	0.000253	2.533306	0.858307	-0.000101
1483	1.4746e+02	-19.0567	29.771858	0.000182	1.823981	0.617981	-0.000073
1484	1.4756e+02	-19.1048	29.670929	0.000253	2.533306	0.858307	-0.000101
1485	1.4766e+02	-19.1353	29.570001	0.000253	2.533306	0.858307	-0.000101
1486	1.4776e+02	-19.1818	29.493295	0.000193	1.925313	0.652314	-0.000077
1487	1.4786e+02	-19.2155	29.412552	0.000203	2.026645	0.686646	-0.000081
1488	1.4796e+02	-19.2556	29.275290	0.000345	3.445297	1.167298	-0.000138
1489	1.4806e+02	-19.2941	29.198584	0.000193	1.925313	0.652314	-0.000077
1490	1.4816e+02	-19.3374	29.085544	0.000284	2.837303	0.961304	-0.000114
1491	1.4825e+02	-19.3791	28.984616	0.000253	2.533306	0.858307	-0.000101
1492	1.4835e+02	-19.4192	28.903873	0.000203	2.026645	0.686646	-0.000081
1493	1.4845e+02	-19.4497	28.827168	0.000193	1.925313	0.652314	-0.000077
1494	1.4855e+02	-19.4978	28.714128	0.000284	2.837303	0.961304	-0.000114
1495	1.4865e+02	-19.5363	28.629348	0.000213	2.127977	0.720978	-0.000085
1496	1.4875e+02	-19.5620	28.504197	0.000314	3.141300	1.064301	-0.000126
1497	1.4885e+02	-19.6117	28.443640	0.000152	1.519984	0.514984	-0.000061
1498	1.4895e+02	-19.6535	28.330600	0.000284	2.837303	0.961304	-0.000114
1499	1.4905e+02	-19.6936	28.237746	0.000233	2.330642	0.789643	-0.000093
1500	1.4915e+02	-19.7289	28.128743	0.000274	2.735971	0.926972	-0.000110
1501	1.4925e+02	-19.7722	28.052038	0.000193	1.925313	0.652314	-0.000077
1502	1.4935e+02	-19.8123	27.971295	0.000203	2.026645	0.686646	-0.000081
1503	1.4945e+02	-19.8460	27.834032	0.000345	3.445297	1.167298	-0.000138
1504	1.4955e+02	-19.8877	27.757327	0.000193	1.925313	0.652314	-0.000077
1505	1.4965e+02	-19.9230	27.632176	0.000314	3.141300	1.064301	-0.000126
1506	1.4975e+02	-19.9583	27.559507	0.000182	1.823981	0.617981	-0.000073
1507	1.4985e+02	-20.0112	27.446467	0.000284	2.837303	0.961304	-0.000114
1508	1.4995e+02	-19.9679	27.470690	0.000061	0.607994	0.205994	0.000024
1509	1.5005e+02	-19.9310	27.559507	0.000223	2.229310	0.755311	0.000089
1510	1.5015e+02	-19.8957	27.595841	0.000091	0.911990	0.308991	0.000037
1511	1.5025e+02	-19.8604	27.644287	0.000122	1.215987	0.411988	0.000049
1512	1.5034e+02	-19.8075	27.708881	0.000162	1.621316	0.549317	0.000065
1513	1.5044e+02	-19.7818	27.745215	0.000091	0.911990	0.308991	0.000037
1514	1.5054e+02	-19.7240	27.785587	0.000101	1.013323	0.343323	0.000041
1515	1.5064e+02	-19.6871	27.850181	0.000162	1.621316	0.549317	0.000065
1516	1.5074e+02	-19.6502	27.922849	0.000182	1.823981	0.617981	0.000073
1517	1.5084e+02	-19.6134	27.987444	0.000162	1.621316	0.549317	0.000065
1518	1.5094e+02	-19.5700	28.023778	0.000091	0.911990	0.308991	0.000037
1519	1.5104e+02	-19.5299	28.104520	0.000203	2.026645	0.686646	0.000081
1520	1.5114e+02	-19.4946	28.157003	0.000132	1.317319	0.446320	0.000053
1521	1.5124e+02	-19.4545	28.189300	0.000081	0.810658	0.274658	0.000032
1522	1.5134e+02	-19.4160	28.286192	0.000243	2.431974	0.823975	0.000097
1523	1.5144e+02	-19.3743	28.314451	0.000071	0.709326	0.240326	0.000028
1524	1.5154e+02	-19.3278	28.379046	0.000162	1.621316	0.549317	0.000065
1525	1.5164e+02	-19.2941	28.479974	0.000253	2.533306	0.858307	0.000101
1526	1.5174e+02	-19.2476	28.540531	0.000152	1.519984	0.514984	0.000061
1527	1.5184e+02	-19.2203	28.568791	0.000071	0.709326	0.240326	0.000028
1528	1.5194e+02	-19.1754	28.633385	0.000162	1.621316	0.549317	0.000065
1529	1.5204e+02	-19.1353	28.722202	0.000223	2.229310	0.755311	0.000089
1530	1.5214e+02	-19.1016	28.774685	0.000132	1.317319	0.446320	0.000053
1531	1.5224e+02	-19.0519	28.863502	0.000223	2.229310	0.755311	0.000089
1532	1.5233e+02	-19.0198	28.944245	0.000203	2.026645	0.686646	0.000081
1533	1.5243e+02	-18.9781	28.992690	0.000122	1.215987	0.411988	0.000049
1534	1.5253e+02	-18.9396	29.037099	0.000111	1.114655	0.377655	0.000045
1535	1.5263e+02	-18.8947	29.142064	0.000263	2.634639	0.892640	0.000105
1536	1.5273e+02	-18.8610	29.174361	0.000081	0.810658	0.274658	0.000032
1537	1.5283e+02	-18.8177	29.247030	0.000182	1.823981	0.617981	0.000073
1538	1.5293e+02	-18.7791	29.327773	0.000203	2.026645	0.686646	0.000081
1539	1.5303e+02	-18.7390	29.408515	0.000203	2.026645	0.686646	0.000081
1540	1.5313e+02	-18.6973	29.473109	0.000162	1.621316	0.549317	0.000065
1541	1.5323e+02	-18.6540	29.549815	0.000193	1.925313	0.652314	0.000077
1542	1.5333e+02	-18.6203	29.614409	0.000162	1.621316	0.549317	0.000065
1543	1.5343e+02	-18.5738	29.638632	0.000061	0.607994	0.205994	0.000024
1544	1.5353e+02	-18.5401	29.779932	0.000355	3.546629	1.201630	0.000142
1545	1.5363e+02	-18.4872	29.828377	0.000122	1.215987	0.411988	0.000049
1546	1.5373e+02	-18.4503	29.913157	0.000213	2.127977	0.720978	0.000085
1547	1.5383e+02	-18.4118	29.977751	0.000162	1.621316	0.549317	0.000065
1548	1.5393e+02	-18.3749	30.046383	0.000172	1.722648	0.583649	0.000069
1549	1.5403e+02	-18.3396	30.131163	0.000213	2.127977	0.720978	0.000085
1550	1.5413e+02	-18.2915	30.179608	0.000122	1.215987	0.411988	0.000049
1551	1.5422e+02	-18.2514	30.256314	0.000193	1.925313	0.652314	0.000077
1552	1.5432e+02	-18.2193	30.341094	0.000213	2.127977	0.720978	0.000085
1553	1.5442e+02	-18.1760	30.385502	0.000111	1.114655	0.377655	0.000045
1554	1.5452e+02	-18.1326	30.486431	0.000253	2.533306	0.858307	0.000101
1555	1.5462e+02	-18.0957	30.559099	0.000182	1.823981	0.617981	0.000073
1556	1.5472e+02	-18.0653	30.583322	0.000061	0.607994	0.205994	0.000024
1557	1.5482e+02	-18.0187	30.700399	0.000294	2.938635	0.995637	0.000118
1558	1.5492e+02	-17.9851	30.756919	0.000142	1.418652	0.480652	0.000057
1559	1.5502e+02	-17.9369	30.817476	0.000152	1.519984	0.514984	0.000061
1560	1.5512e+02	-17.8968	30.914367	0.000243	2.431974	0.823975	0.000097
1561	1.5522e+02	-17.8695	30.958775	0.000111	1.114655	0.377655	0.000045
1562	1.5532e+02	-17.8198	31.031444	0.000182	1.823981	0.617981	0.000073
1563	1.5542e+02	-17.7765	31.100075	0.000172	1.722648	0.583649	0.000069
1564	1.5552e+02	-17.7492	31.201004	0.000253	2.533306	0.858307	0.000101
1565	1.5562e+02	-17.7075	31.237338	0.000091	0.911990	0.308991	0.000037
1566	1.5572e+02	-17.6498	31.334229	0.000243	2.431974	0.823975	0.000097
1567	1.5582e+02	-17.6129	31.390749	0.000142	1.418652	0.480652	0.000057
1568	1.5592e+02	-17.5840	31.507826	0.000294	2.938635	0.995637	0.000118
1569	1.5602e+02	-17.5455	31.540123	0.000081	0.810658	0.274658	0.000032
1570	1.5612e+02	-17.4990	31.624903	0.000213	2.127977	0.720978	0.000085
1571	1.5622e+02	-17.4621	31.701608	0.000193	1.925313	0.652314	0.000077
1572	1.5631e+02	-17.4156	31.798500	0.000243	2.431974	0.823975	0.000097
1573	1.5641e+02	-17.3851	31.830797	0.000081	0.810658	0.274658	0.000032
1574	1.5651e+02	-17.3402	31.927688	0.000243	2.431974	0.823975	0.000097
1575	1.5661e+02	-17.3049	31.984208	0.000142	1.418652	0.480652	0.000057
1576	1.5671e+02	-17.2648	32.073025	0.000223	2.229310	0.755311	0.000089
1577	1.5681e+02	-17.2263	32.113396	0.000101	1.013323	0.343323	0.000041
1578	1.5691e+02	-17.1797	32.169916	0.000142	1.418652	0.480652	0.000057
1579	1.5701e+02	-17.1460	32.266807	0.000243	2.431974	0.823975	0.000097
1580	1.5711e+02	-17.1011	32.359662	0.000233	2.330642	0.789643	0.000093
1581	1.5721e+02	-17.0610	32.420219	0.000152	1.519984	0.514984	0.000061
1582	1.5731e+02	-17.0257	32.517110	0.000243	2.431974	0.823975	0.000097
1583	1.5741e+02	-16.9744	32.573630	0.000142	1.418652	0.480652	0.000057
1584	1.5751e+02	-16.9455	32.614001	0.000101	1.013323	0.343323	0.000041
1585	1.5761e+02	-16.9086	32.714929	0.000253	2.533306	0.858307	0.000101
1586	1.5771e+02	-16.8685	32.791635	0.000193	1.925313	0.652314	0.000077
1587	1.5781e+02	-16.8188	32.864303	0.000182	1.823981	0.617981	0.000073
1588	1.5791e+02	-16.7835	32.920823	0.000142	1.418652	0.480652	0.000057
1589	1.5801e+02	-16.7466	33.013677	0.000233	2.330642	0.789643	0.000093
1590	1.5811e+02	-16.7017	33.090383	0.000193	1.925313	0.652314	0.000077
1591	1.5821e+02	-16.6551	33.142866	0.000132	1.317319	0.446320	0.000053
1592	1.5830e+02	-16.6231	33.263980	0.000304	3.039968	1.029969	0.000122
1593	1.5840e+02	-16.5862	33.308388	0.000111	1.114655	0.377655	0.000045
1594	1.5850e+02	-16.5509	33.348760	0.000101	1.013323	0.343323	0.000041
1595	1.5860e+02	-16.5092	33.457762	0.000274	2.735971	0.926972	0.000110
1596	1.5870e+02	-16.4674	33.518319	0.000152	1.519984	0.514984	0.000061
1597	1.5880e+02	-16.4306	33.578877	0.000152	1.519984	0.514984	0.000061
1598	1.5890e+02	-16.3872	33.659619	0.000203	2.026645	0.686646	0.000081
1599	1.5900e+02	-16.3407	33.744399	0.000213	2.127977	0.720978	0.000085
1600	1.5910e+02	-16.3022	33.804956	0.000152	1.519984	0.514984	0.000061
1601	1.5920e+02	-16.2701	33.905884	0.000253	2.533306	0.858307	0.000101
1602	1.5930e+02	-16.2268	33.962404	0.000142	1.418652	0.480652	0.000057
1603	1.5940e+02	-16.1803	34.059296	0.000243	2.431974	0.823975	0.000097
1604	1.5950e+02	-16.1450	34.111778	0.000132	1.317319	0.446320	0.000053
1605	1.5960e+02	-16.1097	34.204633	0.000233	2.330642	0.789643	0.000093
1606	1.5970e+02	-16.0568	34.249041	0.000111	1.114655	0.377655	0.000045
1607	1.5980e+02	-16.0231	34.349969	0.000253	2.533306	0.858307	0.000101
1608	1.5990e+02	-15.9830	34.394378	0.000111	1.114655	0.377655	0.000045
1609	1.6000e+02	-15.9477	34.487232	0.000233	2.330642	0.789643	0.000093
1610	1.6010e+02	-15.9092	34.572012	0.000213	2.127977	0.720978	0.000085
1611	1.6019e+02	-15.8691	34.648717	0.000193	1.925313	0.652314	0.000077
1612	1.6029e+02	-15.8274	34.721386	0.000182	1.823981	0.617981	0.000073
1613	1.6039e+02	-15.7905	34.790017	0.000172	1.722648	0.583649	0.000069
1614	1.6049e+02	-15.7423	34.850574	0.000152	1.519984	0.514984	0.000061
1615	1.6059e+02	-15.7054	34.915168	0.000162	1.621316	0.549317	0.000065
1616	1.6069e+02	-15.6653	35.012060	0.000243	2.431974	0.823975	0.000097
1617	1.6079e+02	-15.6252	35.084728	0.000182	1.823981	0.617981	0.000073
1618	1.6089e+02	-15.5851	35.133174	0.000122	1.215987	0.411988	0.000049
1619	1.6099e+02	-15.5466	35.226028	0.000233	2.330642	0.789643	0.000093
1620	1.6109e+02	-15.5145	35.294659	0.000172	1.722648	0.583649	0.000069
1621	1.6119e+02	-15.4680	35.351179	0.000142	1.418652	0.480652	0.000057
1622	1.6129e+02	-15.4327	35.439996	0.000223	2.229310	0.755311	0.000089
1623	1.6139e+02	-15.3942	35.504590	0.000162	1.621316	0.549317	0.000065
1624	1.6149e+02	-15.3509	35.573222	0.000172	1.722648	0.583649	0.000069
1625	1.6159e+02	-15.3108	35.653964	0.000203	2.026645	0.686646	0.000081
1626	1.6169e+02	-15.2707	35.750856	0.000243	2.431974	0.823975	0.000097
1627	1.6179e+02	-15.2306	35.783153	0.000081	0.810658	0.274658	0.000032
1628	1.6189e+02	-15.1905	35.876007	0.000233	2.330642	0.789643	0.000093
1629	1.6199e+02	-15.1456	35.956749	0.000203	2.026645	0.686646	0.000081
1630	1.6209e+02	-15.1087	36.037492	0.000203	2.026645	0.686646	0.000081
1631	1.6219e+02	-15.0670	36.110161	0.000182	1.823981	0.617981	0.000073
1632	1.6228e+02	-15.0268	36.170718	0.000152	1.519984	0.514984	0.000061
1633	1.6238e+02	-14.9948	36.263572	0.000233	2.330642	0.789643	0.000093
1634	1.6248e+02	-14.9531	36.336240	0.000182	1.823981	0.617981	0.000073
1635	1.6258e+02	-14.9049	36.425057	0.000223	2.229310	0.755311	0.000089
1636	1.6268e+02	-14.8728	36.473503	0.000122	1.215987	0.411988	0.000049
1637	1.6278e+02	-14.8247	36.586543	0.000284	2.837303	0.961304	0.000114
1638	1.6288e+02	-14.7958	36.691508	0.000263	2.634639	0.892640	0.000105
1639	1.6298e+02	-14.7622	36.739954	0.000122	1.215987	0.411988	0.000049
1640	1.6308e+02	-14.7108	36.800511	0.000152	1.519984	0.514984	0.000061
1641	1.6318e+02	-14.6755	36.897402	0.000243	2.431974	0.823975	0.000097
1642	1.6328e+02	-14.6274	36.961996	0.000162	1.621316	0.549317	0.000065
1643	1.6338e+02	-14.5809	37.034665	0.000182	1.823981	0.617981	0.000073
1644	1.6348e+02	-14.5536	37.107333	0.000182	1.823981	0.617981	0.000073
1645	1.6358e+02	-14.5183	37.204224	0.000243	2.431974	0.823975	0.000097
1646	1.6368e+02	-14.4734	37.284967	0.000203	2.026645	0.686646	0.000081
1647	1.6378e+02	-14.4333	37.365710	0.000203	2.026645	0.686646	0.000081
1648	1.6388e+02	-14.3868	37.474712	0.000274	2.735971	0.926972	0.000110
1649	1.6398e+02	-14.3450	37.559492	0.000213	2.127977	0.720978	0.000085
1650	1.6408e+02	-14.3098	37.607938	0.000122	1.215987	0.411988	0.000049
1651	1.6418e+02	-14.2697	37.664458	0.000142	1.418652	0.480652	0.000057
1652	1.6427e+02	-14.2247	37.745201	0.000203	2.026645	0.686646	0.000081
1653	1.6437e+02	-14.1846	37.850166	0.000263	2.634639	0.892640	0.000105
1654	1.6447e+02	-14.1541	37.938983	0.000223	2.229310	0.755311	0.000089
1655	1.6457e+02	-14.1189	38.023763	0.000213	2.127977	0.720978	0.000085
1656	1.6467e+02	-14.0723	38.088357	0.000162	1.621316	0.549317	0.000065
1657	1.6477e+02	-14.0274	38.193323	0.000263	2.634639	0.892640	0.000105
1658	1.6487e+02	-13.9921	38.261954	0.000172	1.722648	0.583649	0.000069
1659	1.6497e+02	-13.9568	38.318474	0.000142	1.418652	0.480652	0.000057
1660	1.6507e+02	-13.9151	38.423439	0.000263	2.634639	0.892640	0.000105
1661	1.6517e+02	-13.8782	38.504182	0.000203	2.026645	0.686646	0.000081
1662	1.6527e+02	-13.8253	38.588962	0.000213	2.127977	0.720978	0.000085
1663	1.6537e+02	-13.7916	38.669705	0.000203	2.026645	0.686646	0.000081
1664	1.6547e+02	-13.7563	38.762559	0.000233	2.330642	0.789643	0.000093
1665	1.6557e+02	-13.7098	38.835227	0.000182	1.823981	0.617981	0.000073
1666	1.6567e+02	-13.6729	38.928081	0.000233	2.330642	0.789643	0.000093
1667	1.6577e+02	-13.6344	38.996713	0.000172	1.722648	0.583649	0.000069
1668	1.6587e+02	-13.5927	39.069381	0.000182	1.823981	0.617981	0.000073
1669	1.6597e+02	-13.5606	39.170309	0.000253	2.533306	0.858307	0.000101
1670	1.6607e+02	-13.5108	39.283349	0.000284	2.837303	0.961304	0.000114
1671	1.6616e+02	-13.4772	39.311609	0.000071	0.709326	0.240326	0.000028
1672	1.6626e+02	-13.4387	39.432723	0.000304	3.039968	1.029969	0.000122
1673	1.6636e+02	-13.3986	39.501355	0.000172	1.722648	0.583649	0.000069
1674	1.6646e+02	-13.3488	39.590172	0.000223	2.229310	0.755311	0.000089
1675	1.6656e+02	-13.3151	39.687063	0.000243	2.431974	0.823975	0.000097
1676	1.6666e+02	-13.2766	39.751657	0.000162	1.621316	0.549317	0.000065
1677	1.6676e+02	-13.2269	39.828363	0.000193	1.925313	0.652314	0.000077
1678	1.6686e+02	-13.1948	39.941402	0.000284	2.837303	0.961304	0.000114
1679	1.6696e+02	-13.1595	40.026182	0.000213	2.127977	0.720978	0.000085
1680	1.6706e+02	-13.1082	40.119036	0.000233	2.330642	0.789643	0.000093
1681	1.6716e+02	-13.0793	40.199779	0.000203	2.026645	0.686646	0.000081
1682	1.6726e+02	-13.0360	40.268410	0.000172	1.722648	0.583649	0.000069
1683	1.6736e+02	-12.9959	40.361265	0.000233	2.330642	0.789643	0.000093
1684	1.6746e+02	-12.9590	40.446044	0.000213	2.127977	0.720978	0.000085
1685	1.6756e+02	-12.9269	40.534861	0.000223	2.229310	0.755311	0.000089
1686	1.6766e+02	-12.8772	40.607530	0.000182	1.823981	0.617981	0.000073
1687	1.6776e+02	-12.8387	40.720570	0.000284	2.837303	0.961304	0.000114
1688	1.6786e+02	-12.7905	40.764978	0.000111	1.114655	0.377655	0.000045
1689	1.6796e+02	-12.7681	40.873981	0.000274	2.735971	0.926972	0.000110
1690	1.6806e+02	-12.7232	40.942612	0.000172	1.722648	0.583649	0.000069
1691	1.6816e+02	-12.6863	41.059689	0.000294	2.938635	0.995637	0.000118
1692	1.6825e+02	-12.6333	41.112172	0.000132	1.317319	0.446320	0.000053
1693	1.6835e+02	-12.6045	41.221174	0.000274	2.735971	0.926972	0.000110
1694	1.6845e+02	-12.5660	41.318066	0.000243	2.431974	0.823975	0.000097
1695	1.6855e+02	-12.5307	41.427068	0.000274	2.735971	0.926972	0.000110
1696	1.6865e+02	-12.4841	41.475514	0.000122	1.215987	0.411988	0.000049
1697	1.6875e+02	-12.4440	41.584517	0.000274	2.735971	0.926972	0.000110
1698	1.6885e+02	-12.3959	41.653148	0.000172	1.722648	0.583649	0.000069
1699	1.6895e+02	-12.3638	41.754076	0.000253	2.533306	0.858307	0.000101
1700	1.6905e+02	-12.3189	41.810596	0.000142	1.418652	0.480652	0.000057
1701	1.6915e+02	-12.2724	41.923636	0.000284	2.837303	0.961304	0.000114
1702	1.6925e+02	-12.2387	42.032639	0.000274	2.735971	0.926972	0.000110
1703	1.6935e+02	-12.1970	42.105307	0.000182	1.823981	0.617981	0.000073
1704	1.6945e+02	-12.1649	42.218347	0.000284	2.837303	0.961304	0.000114
1705	1.6955e+02	-12.1248	42.339461	0.000304	3.039968	1.029969	0.000122
1706	1.6965e+02	-12.0847	42.395981	0.000142	1.418652	0.480652	0.000057
1707	1.6975e+02	-12.0430	42.472687	0.000193	1.925313	0.652314	0.000077
1708	1.6985e+02	-11.9981	42.557466	0.000213	2.127977	0.720978	0.000085
1709	1.6995e+02	-11.9563	42.666469	0.000274	2.735971	0.926972	0.000110
1710	1.7005e+02	-11.9194	42.714915	0.000122	1.215987	0.411988	0.000049
1711	1.7015e+02	-11.8858	42.848140	0.000334	3.343965	1.132966	0.000134
1712	1.7024e+02	-11.8424	42.924846	0.000193	1.925313	0.652314	0.000077
1713	1.7034e+02	-11.8055	43.033848	0.000274	2.735971	0.926972	0.000110
1714	1.7044e+02	-11.7606	43.126703	0.000233	2.330642	0.789643	0.000093
1715	1.7054e+02	-11.7237	43.219557	0.000233	2.330642	0.789643	0.000093
1716	1.7064e+02	-11.6740	43.296262	0.000193	1.925313	0.652314	0.000077
1717	1.7074e+02	-11.6387	43.377005	0.000203	2.026645	0.686646	0.000081
1718	1.7084e+02	-11.6050	43.486008	0.000274	2.735971	0.926972	0.000110
1719	1.7094e+02	-11.5745	43.570787	0.000213	2.127977	0.720978	0.000085
1720	1.7104e+02	-11.5232	43.659604	0.000223	2.229310	0.755311	0.000089
1721	1.7114e+02	-11.4895	43.724199	0.000162	1.621316	0.549317	0.000065
1722	1.7124e+02	-11.4478	43.821090	0.000243	2.431974	0.823975	0.000097
1723	1.7134e+02	-11.3997	43.938167	0.000294	2.938635	0.995637	0.000118
1724	1.7144e+02	-11.3644	44.026984	0.000223	2.229310	0.755311	0.000089
1725	1.7154e+02	-11.3259	44.083504	0.000142	1.418652	0.480652	0.000057
1726	1.7164e+02	-11.2858	44.176358	0.000233	2.330642	0.789643	0.000093
1727	1.7174e+02	-11.2441	44.281323	0.000263	2.634639	0.892640	0.000105
1728	1.7184e+02	-11.2088	44.337843	0.000142	1.418652	0.480652	0.000057
1729	1.7194e+02	-11.1639	44.438772	0.000253	2.533306	0.858307	0.000101
1730	1.7204e+02	-11.1318	44.535663	0.000243	2.431974	0.823975	0.000097
1731	1.7213e+02	-11.0836	44.620443	0.000213	2.127977	0.720978	0.000085
1732	1.7223e+02	-11.0451	44.717334	0.000243	2.431974	0.823975	0.000097
1733	1.7233e+02	-11.0115	44.810188	0.000233	2.330642	0.789643	0.000093
1734	1.7243e+02	-10.9762	44.903042	0.000233	2.330642	0.789643	0.000093
1735	1.7253e+02	-10.9232	44.951488	0.000122	1.215987	0.411988	0.000049
1736	1.7263e+02	-10.8863	45.080676	0.000324	3.242632	1.098634	0.000130
1737	1.7273e+02	-10.8414	45.145270	0.000162	1.621316	0.549317	0.000065
1738	1.7283e+02	-10.8093	45.221976	0.000193	1.925313	0.652314	0.000077
1739	1.7293e+02	-10.7612	45.335016	0.000284	2.837303	0.961304	0.000114
1740	1.7303e+02	-10.7307	45.415758	0.000203	2.026645	0.686646	0.000081
1741	1.7313e+02	-10.6874	45.504575	0.000223	2.229310	0.755311	0.000089
1742	1.7323e+02	-10.6425	45.581281	0.000193	1.925313	0.652314	0.000077
1743	1.7333e+02	-10.5976	45.657987	0.000193	1.925313	0.652314	0.000077
1744	1.7343e+02	-10.5687	45.746804	0.000223	2.229310	0.755311	0.000089
1745	1.7353e+02	-10.5270	45.859843	0.000284	2.837303	0.961304	0.000114
1746	1.7363e+02	-10.4901	45.920400	0.000152	1.519984	0.514984	0.000061
1747	1.7373e+02	-10.4387	46.041515	0.000304	3.039968	1.029969	0.000122
1748	1.7383e+02	-10.4018	46.118220	0.000193	1.925313	0.652314	0.000077
1749	1.7393e+02	-10.3666	46.215111	0.000243	2.431974	0.823975	0.000097
1750	1.7403e+02	-10.3232	46.320077	0.000263	2.634639	0.892640	0.000105
1751	1.7413e+02	-10.2815	46.408894	0.000223	2.229310	0.755311	0.000089
1752	1.7422e+02	-10.2462	46.453302	0.000111	1.114655	0.377655	0.000045
1753	1.7432e+02	-10.2125	46.566342	0.000284	2.837303	0.961304	0.000114
1754	1.7442e+02	-10.1724	46.634973	0.000172	1.722648	0.583649	0.000069
1755	1.7452e+02	-10.1388	46.723790	0.000223	2.229310	0.755311	0.000089
1756	1.7462e+02	-10.0874	46.820682	0.000243	2.431974	0.823975	0.000097
1757	1.7472e+02	-10.0505	46.929684	0.000274	2.735971	0.926972	0.000110
1758	1.7482e+02	-10.0072	46.994279	0.000162	1.621316	0.549317	0.000065
1759	1.7492e+02	-9.9671	47.083096	0.000223	2.229310	0.755311	0.000089
1760	1.7502e+02	-9.9302	47.200172	0.000294	2.938635	0.995637	0.000118
1761	1.7512e+02	-9.8901	47.288989	0.000223	2.229310	0.755311	0.000089
1762	1.7522e+02	-9.8516	47.337435	0.000122	1.215987	0.411988	0.000049
1763	1.7532e+02	-9.8067	47.486809	0.000375	3.749294	1.270295	0.000150
1764	1.7542e+02	-9.7650	47.515069	0.000071	0.709326	0.240326	0.000028
1765	1.7552e+02	-9.7249	47.644257	0.000324	3.242632	1.098634	0.000130
1766	1.7562e+02	-9.6944	47.708852	0.000162	1.621316	0.549317	0.000065
1767	1.7572e+02	-9.6527	47.777483	0.000172	1.722648	0.583649	0.000069
1768	1.7582e+02	-9.6094	47.894560	0.000294	2.938635	0.995637	0.000118
1769	1.7592e+02	-9.5692	47.951080	0.000142	1.418652	0.480652	0.000057
1770	1.7602e+02	-9.5259	48.096417	0.000365	3.647961	1.235963	0.000146
1771	1.7612e+02	-9.4874	48.181196	0.000213	2.127977	0.720978	0.000085
1772	1.7621e+02	-9.4586	48.233679	0.000132	1.317319	0.446320	0.000053
1773	1.7631e+02	-9.4088	48.370942	0.000345	3.445297	1.167298	0.000138
1774	1.7641e+02	-9.3671	48.427462	0.000142	1.418652	0.480652	0.000057
1775	1.7651e+02	-9.3302	48.540502	0.000284	2.837303	0.961304	0.000114
1776	1.7661e+02	-9.2949	48.576836	0.000091	0.911990	0.308991	0.000037
1777	1.7671e+02	-9.2548	48.689876	0.000284	2.837303	0.961304	0.000114
1778	1.7681e+02	-9.2115	48.819064	0.000324	3.242632	1.098634	0.000130
1779	1.7691e+02	-9.1698	48.843287	0.000061	0.607994	0.205994	0.000024
1780	1.7701e+02	-9.1345	48.968438	0.000314	3.141300	1.064301	0.000126
1781	1.7711e+02	-9.0944	49.041106	0.000182	1.823981	0.617981	0.000073
1782	1.7721e+02	-9.0415	49.146072	0.000263	2.634639	0.892640	0.000105
1783	1.7731e+02	-9.0142	49.242963	0.000243	2.431974	0.823975	0.000097
1784	1.7741e+02	-8.9757	49.351966	0.000274	2.735971	0.926972	0.000110
1785	1.7751e+02	-8.9340	49.444820	0.000233	2.330642	0.789643	0.000093
1786	1.7761e+02	-8.8923	49.493266	0.000122	1.215987	0.411988	0.000049
1787	1.7771e+02	-8.8522	49.614380	0.000304	3.039968	1.029969	0.000122
1788	1.7781e+02	-8.8088	49.703197	0.000223	2.229310	0.755311	0.000089
1789	1.7791e+02	-8.7752	49.804125	0.000253	2.533306	0.858307	0.000101
1790	1.7801e+02	-8.7334	49.868719	0.000162	1.621316	0.549317	0.000065
1791	1.7810e+02	-8.6917	49.965610	0.000243	2.431974	0.823975	0.000097
1792	1.7820e+02	-8.6564	50.038279	0.000182	1.823981	0.617981	0.000073
1793	1.7830e+02	-8.6083	50.131133	0.000233	2.330642	0.789643	0.000093
1794	1.7840e+02	-8.5778	50.195727	0.000162	1.621316	0.549317	0.000065
1795	1.7850e+02	-8.5361	50.304730	0.000274	2.735971	0.926972	0.000110
1796	1.7860e+02	-8.4912	50.429881	0.000314	3.141300	1.064301	0.000126
1797	1.7870e+02	-8.4447	50.486401	0.000142	1.418652	0.480652	0.000057
1798	1.7880e+02	-8.4126	50.575218	0.000223	2.229310	0.755311	0.000089
1799	1.7890e+02	-8.3709	50.659998	0.000213	2.127977	0.720978	0.000085
1800	1.7900e+02	-8.3420	50.777075	0.000294	2.938635	0.995637	0.000118
1801	1.7910e+02	-8.2923	50.829558	0.000132	1.317319	0.446320	0.000053
1802	1.7920e+02	-8.2586	50.950672	0.000304	3.039968	1.029969	0.000122
1803	1.7930e+02	-8.2233	51.039489	0.000223	2.229310	0.755311	0.000089
1804	1.7940e+02	-8.1800	51.116194	0.000193	1.925313	0.652314	0.000077
1805	1.7950e+02	-8.1286	51.205011	0.000223	2.229310	0.755311	0.000089
1806	1.7960e+02	-8.1030	51.293828	0.000223	2.229310	0.755311	0.000089
1807	1.7970e+02	-8.0532	51.398794	0.000263	2.634639	0.892640	0.000105
1808	1.7980e+02	-8.0131	51.471462	0.000182	1.823981	0.617981	0.000073
1809	1.7990e+02	-7.9795	51.564316	0.000233	2.330642	0.789643	0.000093
1810	1.8000e+02	-7.9313	51.701579	0.000345	3.445297	1.167298	0.000138
1811	1.8009e+02	-7.8864	51.798470	0.000243	2.431974	0.823975	0.000097
1812	1.8019e+02	-7.8495	51.923621	0.000314	3.141300	1.064301	0.000126
1813	1.8029e+02	-7.8190	51.972067	0.000122	1.215987	0.411988	0.000049
1814	1.8039e+02	-7.7757	52.089144	0.000294	2.938635	0.995637	0.000118
1815	1.8049e+02	-7.7356	52.202184	0.000284	2.837303	0.961304	0.000114
1816	1.8059e+02	-7.7019	52.258704	0.000142	1.418652	0.480652	0.000057
1817	1.8069e+02	-7.6554	52.355595	0.000243	2.431974	0.823975	0.000097
1818	1.8079e+02	-7.6185	52.456523	0.000253	2.533306	0.858307	0.000101
1819	1.8089e+02	-7.5688	52.573600	0.000294	2.938635	0.995637	0.000118
1820	1.8099e+02	-7.5399	52.658380	0.000213	2.127977	0.720978	0.000085
1821	1.8109e+02	-7.5014	52.743160	0.000213	2.127977	0.720978	0.000085
1822	1.8119e+02	-7.4533	52.864274	0.000304	3.039968	1.029969	0.000122
1823	1.8129e+02	-7.4148	52.949054	0.000213	2.127977	0.720978	0.000085
1824	1.8139e+02	-7.3763	53.033834	0.000213	2.127977	0.720978	0.000085
1825	1.8149e+02	-7.3442	53.130725	0.000243	2.431974	0.823975	0.000097
1826	1.8159e+02	-7.2928	53.239728	0.000274	2.735971	0.926972	0.000110
1827	1.8169e+02	-7.2608	53.324507	0.000213	2.127977	0.720978	0.000085
1828	1.8179e+02	-7.2190	53.433510	0.000274	2.735971	0.926972	0.000110
1829	1.8189e+02	-7.1773	53.534438	0.000253	2.533306	0.858307	0.000101
1830	1.8199e+02	-7.1356	53.659590	0.000314	3.141300	1.064301	0.000126
1831	1.8209e+02	-7.0923	53.699961	0.000101	1.013323	0.343323	0.000041
1832	1.8218e+02	-7.0618	53.845298	0.000365	3.647961	1.235963	0.000146
1833	1.8228e+02	-7.0153	53.917966	0.000182	1.823981	0.617981	0.000073
1834	1.8238e+02	-6.9768	54.026969	0.000274	2.735971	0.926972	0.000110
1835	1.8248e+02	-6.9335	54.148083	0.000304	3.039968	1.029969	0.000122
1836	1.8258e+02	-6.8966	54.244974	0.000243	2.431974	0.823975	0.000097
1837	1.8268e+02	-6.8677	54.309569	0.000162	1.621316	0.549317	0.000065
1838	1.8278e+02	-6.8164	54.422608	0.000284	2.837303	0.961304	0.000114
1839	1.8288e+02	-6.7779	54.531611	0.000274	2.735971	0.926972	0.000110
1840	1.8298e+02	-6.7410	54.596205	0.000162	1.621316	0.549317	0.000065
1841	1.8308e+02	-6.7041	54.725393	0.000324	3.242632	1.098634	0.000130
1842	1.8318e+02	-6.6560	54.822285	0.000243	2.431974	0.823975	0.000097
1843	1.8328e+02	-6.6223	54.907065	0.000213	2.127977	0.720978	0.000085
1844	1.8338e+02	-6.5774	55.048364	0.000355	3.546629	1.201630	0.000142
1845	1.8348e+02	-6.5356	55.116996	0.000172	1.722648	0.583649	0.000069
1846	1.8358e+02	-6.5084	55.238110	0.000304	3.039968	1.029969	0.000122
1847	1.8368e+02	-6.4554	55.343075	0.000263	2.634639	0.892640	0.000105
1848	1.8378e+02	-6.4298	55.448041	0.000263	2.634639	0.892640	0.000105
1849	1.8388e+02	-6.3945	55.553006	0.000263	2.634639	0.892640	0.000105
1850	1.8398e+02	-6.3463	55.641823	0.000223	2.229310	0.755311	0.000089
1851	1.8407e+02	-6.3046	55.750826	0.000274	2.735971	0.926972	0.000110
1852	1.8417e+02	-6.2677	55.839643	0.000223	2.229310	0.755311	0.000089
1853	1.8427e+02	-6.2260	55.960757	0.000304	3.039968	1.029969	0.000122
1854	1.8437e+02	-6.1843	56.057648	0.000243	2.431974	0.823975	0.000097
1855	1.8447e+02	-6.1426	56.138391	0.000203	2.026645	0.686646	0.000081
1856	1.8457e+02	-6.1041	56.239319	0.000253	2.533306	0.858307	0.000101
1857	1.8467e+02	-6.0688	56.344285	0.000263	2.634639	0.892640	0.000105
1858	1.8477e+02	-6.0255	56.429065	0.000213	2.127977	0.720978	0.000085
1859	1.8487e+02	-5.9854	56.562290	0.000334	3.343965	1.132966	0.000134
1860	1.8497e+02	-5.9469	56.647070	0.000213	2.127977	0.720978	0.000085
1861	1.8507e+02	-5.9068	56.760110	0.000284	2.837303	0.961304	0.000114
1862	1.8517e+02	-5.8667	56.885261	0.000314	3.141300	1.064301	0.000126
1863	1.8527e+02	-5.8346	56.990227	0.000263	2.634639	0.892640	0.000105
1864	1.8537e+02	-5.7881	57.119415	0.000324	3.242632	1.098634	0.000130
1865	1.8547e+02	-5.7560	57.204195	0.000213	2.127977	0.720978	0.000085
1866	1.8557e+02	-5.7111	57.284938	0.000203	2.026645	0.686646	0.000081
1867	1.8567e+02	-5.6613	57.377792	0.000233	2.330642	0.789643	0.000093
1868	1.8577e+02	-5.6244	57.535240	0.000395	3.951958	1.338960	0.000158
1869	1.8587e+02	-5.5972	57.603871	0.000172	1.722648	0.583649	0.000069
1870	1.8597e+02	-5.5474	57.724985	0.000304	3.039968	1.029969	0.000122
1871	1.8606e+02	-5.5073	57.817839	0.000233	2.330642	0.789643	0.000093
1872	1.8616e+02	-5.4656	57.934916	0.000294	2.938635	0.995637	0.000118
1873	1.8626e+02	-5.4287	57.995473	0.000152	1.519984	0.514984	0.000061
1874	1.8636e+02	-5.3886	58.193293	0.000497	4.965281	1.682283	0.000199
1875	1.8646e+02	-5.3501	58.261924	0.000172	1.722648	0.583649	0.000069
1876	1.8656e+02	-5.3052	58.395150	0.000334	3.343965	1.132966	0.000134
1877	1.8666e+02	-5.2651	58.483967	0.000223	2.229310	0.755311	0.000089
1878	1.8676e+02	-5.2314	58.605081	0.000304	3.039968	1.029969	0.000122
1879	1.8686e+02	-5.1865	58.697935	0.000233	2.330642	0.789643	0.000093
1880	1.8696e+02	-5.1512	58.815012	0.000294	2.938635	0.995637	0.000118
1881	1.8706e+02	-5.1111	58.944200	0.000324	3.242632	1.098634	0.000130
1882	1.8716e+02	-5.0710	59.000720	0.000142	1.418652	0.480652	0.000057
1883	1.8726e+02	-5.0293	59.105686	0.000263	2.634639	0.892640	0.000105
1884	1.8736e+02	-4.9876	59.242948	0.000345	3.445297	1.167298	0.000138
1885	1.8746e+02	-4.9475	59.360025	0.000294	2.938635	0.995637	0.000118
1886	1.8756e+02	-4.9106	59.473065	0.000284	2.837303	0.961304	0.000114
1887	1.8766e+02	-4.8672	59.569956	0.000243	2.431974	0.823975	0.000097
1888	1.8776e+02	-4.8207	59.670885	0.000253	2.533306	0.858307	0.000101
1889	1.8786e+02	-4.7902	59.767776	0.000243	2.431974	0.823975	0.000097
1890	1.8796e+02	-4.7517	59.860630	0.000233	2.330642	0.789643	0.000093
1891	1.8806e+02	-4.7084	59.993856	0.000334	3.343965	1.132966	0.000134
1892	1.8815e+02	-4.6683	60.078635	0.000213	2.127977	0.720978	0.000085
1893	1.8825e+02	-4.6346	60.175527	0.000243	2.431974	0.823975	0.000097
1894	1.8835e+02	-4.5913	60.312789	0.000345	3.445297	1.167298	0.000138
1895	1.8845e+02	-4.5544	60.373346	0.000152	1.519984	0.514984	0.000061
1896	1.8855e+02	-4.5191	60.490423	0.000294	2.938635	0.995637	0.000118
1897	1.8865e+02	-4.4614	60.603463	0.000284	2.837303	0.961304	0.000114
1898	1.8875e+02	-4.4389	60.736689	0.000334	3.343965	1.132966	0.000134
1899	1.8885e+02	-4.3972	60.869914	0.000334	3.343965	1.132966	0.000134
1900	1.8895e+02	-4.3587	60.910285	0.000101	1.013323	0.343323	0.000041
1901	1.8905e+02	-4.3106	61.039474	0.000324	3.242632	1.098634	0.000130
1902	1.8915e+02	-4.2769	61.176736	0.000345	3.445297	1.167298	0.000138
1903	1.8925e+02	-4.2336	61.273628	0.000243	2.431974	0.823975	0.000097
1904	1.8935e+02	-4.1919	61.354370	0.000203	2.026645	0.686646	0.000081
1905	1.8945e+02	-4.1518	61.471447	0.000294	2.938635	0.995637	0.000118
1906	1.8955e+02	-4.1052	61.596599	0.000314	3.141300	1.064301	0.000126
1907	1.8965e+02	-4.0764	61.689453	0.000233	2.330642	0.789643	0.000093
1908	1.8975e+02	-4.0266	61.790381	0.000253	2.533306	0.858307	0.000101
1909	1.8985e+02	-3.9881	61.899384	0.000274	2.735971	0.926972	0.000110
1910	1.8995e+02	-3.9528	61.980126	0.000203	2.026645	0.686646	0.000081
1911	1.9004e+02	-3.9191	62.125463	0.000365	3.647961	1.235963	0.000146
1912	1.9014e+02	-3.8662	62.254652	0.000324	3.242632	1.098634	0.000130
1913	1.9024e+02	-3.8421	62.315209	0.000152	1.519984	0.514984	0.000061
1914	1.9034e+02	-3.7828	62.448434	0.000334	3.343965	1.132966	0.000134
1915	1.9044e+02	-3.7539	62.541288	0.000233	2.330642	0.789643	0.000093
1916	1.9054e+02	-3.7090	62.662402	0.000304	3.039968	1.029969	0.000122
1917	1.9064e+02	-3.6785	62.739108	0.000193	1.925313	0.652314	0.000077
1918	1.9074e+02	-3.6224	62.852148	0.000284	2.837303	0.961304	0.000114
1919	1.9084e+02	-3.6063	62.973262	0.000304	3.039968	1.029969	0.000122
1920	1.9094e+02	-3.5550	63.062079	0.000223	2.229310	0.755311	0.000089
1921	1.9104e+02	-3.5101	63.207416	0.000365	3.647961	1.235963	0.000146
1922	1.9114e+02	-3.4716	63.316418	0.000274	2.735971	0.926972	0.000110
1923	1.9124e+02	-3.4363	63.376975	0.000152	1.519984	0.514984	0.000061
1924	1.9134e+02	-3.3930	63.518275	0.000355	3.546629	1.201630	0.000142
1925	1.9144e+02	-3.3593	63.578832	0.000152	1.519984	0.514984	0.000061
1926	1.9154e+02	-3.3143	63.764540	0.000466	4.661284	1.579286	0.000187
1927	1.9164e+02	-3.2774	63.853357	0.000223	2.229310	0.755311	0.000089
1928	1.9174e+02	-3.2341	63.942174	0.000223	2.229310	0.755311	0.000089
1929	1.9184e+02	-3.2004	64.067326	0.000314	3.141300	1.064301	0.000126
1930	1.9194e+02	-3.1523	64.192477	0.000314	3.141300	1.064301	0.000126
1931	1.9203e+02	-3.1186	64.273220	0.000203	2.026645	0.686646	0.000081
1932	1.9213e+02	-3.0721	64.398371	0.000314	3.141300	1.064301	0.000126
1933	1.9223e+02	-3.0336	64.495262	0.000243	2.431974	0.823975	0.000097
1934	1.9233e+02	-2.9999	64.596190	0.000253	2.533306	0.858307	0.000101
1935	1.9243e+02	-2.9630	64.701156	0.000263	2.634639	0.892640	0.000105
1936	1.9253e+02	-2.9213	64.830344	0.000324	3.242632	1.098634	0.000130
1937	1.9263e+02	-2.8780	64.939347	0.000274	2.735971	0.926972	0.000110
1938	1.9273e+02	-2.8347	65.056424	0.000294	2.938635	0.995637	0.000118
1939	1.9283e+02	-2.7994	65.145241	0.000223	2.229310	0.755311	0.000089
1940	1.9293e+02	-2.7673	65.278466	0.000334	3.343965	1.132966	0.000134
1941	1.9303e+02	-2.7144	65.383432	0.000263	2.634639	0.892640	0.000105
1942	1.9313e+02	-2.6791	65.476286	0.000233	2.330642	0.789643	0.000093
1943	1.9323e+02	-2.6454	65.617586	0.000355	3.546629	1.201630	0.000142
1944	1.9333e+02	-2.5940	65.702366	0.000213	2.127977	0.720978	0.000085
1945	1.9343e+02	-2.5539	65.819443	0.000294	2.938635	0.995637	0.000118
1946	1.9353e+02	-2.5235	65.924408	0.000263	2.634639	0.892640	0.000105
1947	1.9363e+02	-2.4801	66.025336	0.000253	2.533306	0.858307	0.000101
1948	1.9373e+02	-2.4497	66.162599	0.000345	3.445297	1.167298	0.000138
1949	1.9383e+02	-2.3951	66.295825	0.000334	3.343965	1.132966	0.000134
1950	1.9393e+02	-2.3646	66.380604	0.000213	2.127977	0.720978	0.000085
1951	1.9403e+02	-2.3149	66.461347	0.000203	2.026645	0.686646	0.000081
1952	1.9412e+02	-2.2764	66.602647	0.000355	3.546629	1.201630	0.000142
1953	1.9422e+02	-2.2315	66.703575	0.000253	2.533306	0.858307	0.000101
1954	1.9432e+02	-2.2010	66.820652	0.000294	2.938635	0.995637	0.000118
1955	1.9442e+02	-2.1545	66.929655	0.000274	2.735971	0.926972	0.000110
1956	1.9452e+02	-2.1176	67.034620	0.000263	2.634639	0.892640	0.000105
1957	1.9462e+02	-2.0759	67.147660	0.000284	2.837303	0.961304	0.000114
1958	1.9472e+02	-2.0470	67.248589	0.000253	2.533306	0.858307	0.000101
1959	1.9482e+02	-2.0005	67.381814	0.000334	3.343965	1.132966	0.000134
1960	1.9492e+02	-1.9540	67.474668	0.000233	2.330642	0.789643	0.000093
1961	1.9502e+02	-1.9235	67.620005	0.000365	3.647961	1.235963	0.000146
1962	1.9512e+02	-1.8770	67.720933	0.000253	2.533306	0.858307	0.000101
1963	1.9522e+02	-1.8401	67.842048	0.000304	3.039968	1.029969	0.000122
1964	1.9532e+02	-1.7967	67.906642	0.000162	1.621316	0.549317	0.000065
1965	1.9542e+02	-1.7518	68.060053	0.000385	3.850626	1.304627	0.000154
1966	1.9552e+02	-1.7165	68.169056	0.000274	2.735971	0.926972	0.000110
1967	1.9562e+02	-1.6828	68.274021	0.000263	2.634639	0.892640	0.000105
1968	1.9572e+02	-1.6411	68.370912	0.000243	2.431974	0.823975	0.000097
1969	1.9582e+02	-1.6058	68.483952	0.000284	2.837303	0.961304	0.000114
1970	1.9592e+02	-1.5609	68.613140	0.000324	3.242632	1.098634	0.000130
1971	1.9601e+02	-1.5256	68.746366	0.000334	3.343965	1.132966	0.000134
1972	1.9611e+02	-1.4839	68.835183	0.000223	2.229310	0.755311	0.000089
1973	1.9621e+02	-1.4438	68.952260	0.000294	2.938635	0.995637	0.000118
1974	1.9631e+02	-1.4037	69.113745	0.000405	4.053290	1.373292	0.000162
1975	1.9641e+02	-1.3652	69.218711	0.000263	2.634639	0.892640	0.000105
1976	1.9651e+02	-1.3267	69.331751	0.000284	2.837303	0.961304	0.000114
1977	1.9661e+02	-1.2786	69.412493	0.000203	2.026645	0.686646	0.000081
1978	1.9671e+02	-1.2401	69.549756	0.000345	3.445297	1.167298	0.000138
1979	1.9681e+02	-1.2144	69.666833	0.000294	2.938635	0.995637	0.000118
1980	1.9691e+02	-1.1663	69.763724	0.000243	2.431974	0.823975	0.000097
1981	1.9701e+02	-1.1310	69.900987	0.000345	3.445297	1.167298	0.000138
1982	1.9711e+02	-1.0829	70.009989	0.000274	2.735971	0.926972	0.000110
1983	1.9721e+02	-1.0395	70.123029	0.000284	2.837303	0.961304	0.000114
1984	1.9731e+02	-1.0107	70.292589	0.000426	4.255955	1.441957	0.000170
1985	1.9741e+02	-0.9625	70.397554	0.000263	2.634639	0.892640	0.000105
1986	1.9751e+02	-0.9192	70.522706	0.000314	3.141300	1.064301	0.000126
1987	1.9761e+02	-0.8855	70.647857	0.000314	3.141300	1.064301	0.000126
1988	1.9771e+02	-0.8454	70.736674	0.000223	2.229310	0.755311	0.000089
1989	1.9781e+02	-0.8021	70.849714	0.000284	2.837303	0.961304	0.000114
1990	1.9791e+02	-0.7668	70.991013	0.000355	3.546629	1.201630	0.000142
1991	1.9800e+02	-0.7283	71.112127	0.000304	3.039968	1.029969	0.000122
1992	1.9810e+02	-0.6946	71.249390	0.000345	3.445297	1.167298	0.000138
1993	1.9820e+02	-0.6417	71.366467	0.000294	2.938635	0.995637	0.000118
1994	1.9830e+02	-0.6048	71.451247	0.000213	2.127977	0.720978	0.000085
1995	1.9840e+02	-0.5583	71.580435	0.000324	3.242632	1.098634	0.000130
1996	1.9850e+02	-0.5294	71.778255	0.000497	4.965281	1.682283	0.000199
1997	1.9860e+02	-0.4877	71.834775	0.000142	1.418652	0.480652	0.000057
1998	1.9870e+02	-0.4572	71.976075	0.000355	3.546629	1.201630	0.000142
1999	1.9880e+02	-0.4123	72.077003	0.000253	2.533306	0.858307	0.000101
2000	1.9890e+02	-0.3577	72.222340	0.000365	3.647961	1.235963	0.000146
2001	1.9900e+02	-0.3208	72.327305	0.000263	2.634639	0.892640	0.000105
2002	1.9910e+02	-0.2823	72.492828	0.000415	4.154623	1.407624	0.000166
2003	1.9920e+02	-0.2422	72.601831	0.000274	2.735971	0.926972	0.000110
2004	1.9930e+02	-0.2134	72.755242	0.000385	3.850626	1.304627	0.000154
2005	1.9940e+02	-0.1604	72.823873	0.000172	1.722648	0.583649	0.000069
2006	1.9950e+02	-0.1235	72.973247	0.000375	3.749294	1.270295	0.000150
2007	1.9960e+02	-0.0850	73.070138	0.000243	2.431974	0.823975	0.000097
2008	1.9970e+02	-0.0497	73.211438	0.000355	3.546629	1.201630	0.000142
2009	1.9980e+02	-0.0112	73.336589	0.000355	3.546629	1.201630	0.000126

Center data before PMax,+/-Pr and +/-Vc Calc.

PMax (uC/cm2):	-9.70e+00
Pr (uC/cm2):	7.86e+01
-Pr (uC/cm2):	7.33e+01
PLoss (uC/cm2):	1.68e+02
Vc:	1.93e+01
C (Max-Eff) (nF):	-4.85e-02
K (Eff):	-1.64e+02
Vert. (+/-Pr) Shift (uC/cm2):	7.60e+01
Offset (uC/cm2):	9.45e+01

A (Loop Area - uC/cm2·Volts):	-4.85e+00



Hysteresis Version: 5.48.1 - Radiant Technologies, Inc., 1999 - 9/12/24

