»»»»»»»»»»»»»»»»»»»»»»»»»»»»»»»»»»»» Hysteresis ««««««««««««««««««««««««««««««««««««
»»»  Executed Version:	5.48.1
»»»  Vision Version:	5.48.4 (R)
»»»  Vision Compiled:	9/18/24
»»»  Driver Version:	5.47.0
»»»  Windows Version:	Windows 8 or 8.1
»»»  Processor Information:	x86 (AMD or Intel) - 32 Processors
»»»  Tester Name:	PMF21124-494 (100V)
»»»  Tester S/N:	PMF21124-494
»»»  Internal Amp Type:	100V RevK 270k
»»»  Internal Amp S/N:	iAB2-596/K     
»»»  Execution Count:	1
»»»»»»»»»»»»»»»»»»»»»»»»»»»»»»»»»»»»»»»»»»««««««««««««««««««««««««««««««««««««««««««

Stored:	6/6/2025 - 17:54:47
Configured:	06/06/25 01:57:07 PM
Executed:	06/06/25 05:54:13 PM

»»»»»»»»»»»»»»»»»»»»»»»»»»»»»»»»»»» Sample Info ««««««««««««««««««««««««««««««««««««
Sample Name:	
Lot Name:	
Wafer Name:	
Die Row/Column:	0/0
Capacitor Number:	0
Sample Area (cm2):	1.00e-04
Sample Thickness (microns):	3.00e-01

Amplifier:	Internal

»»»»»»»»»»»»»»»»»»»»»»»»»»»»»»»»»»» Tester Info «««««««««««««««««««««««««««««««««««
Tester Name:	PMF21124-494 (100V)
Tester Serial Number:	PMF21124-494
Return Signal Amp. Level:	0.19 [Index: 3]

»»»»»»»»»»»»»»»»»»»»»»»»»»»»»»»» Hysteresis Info ««««««««««««««««««««««««««««««««««
Task Name:	Hyst-501
Volts:	20.00
Field:	666.67 (kV/cm)
DCBias:	0.00
DCField:	0.00 (kV/cm)
Hysteresis Period (ms):	2.00e+02
Preset:	Enabled
Preset Delay (ms):	1.00e+03
Profile:	Standard Bipolar

»»»»»»»»»»»»»»»»»»»»»»»»»»»»»»»»»»»»»» Data «««««««««««««««««««««««««««««««««««««««
Points:	2009

Valid Data

Point	Time (ms)	Drive Voltage	Measured Polarization (uC/cm2)	Capacitance (uF)	Normalized Capacitance (uF/cm2)	Dielectric Constant	Instantaneous Current (mA)
   1	0.0000e+00	-0.0080	-138.709928	0.000152	1.520045	0.515005	0.000061
   2	9.9500e-02	0.0337	-138.649371	0.000152	1.520045	0.515005	0.000061
   3	1.9900e-01	0.0706	-138.564591	0.000213	2.128063	0.721007	0.000085
   4	2.9850e-01	0.1123	-138.455589	0.000274	2.736081	0.927009	0.000110
   5	3.9800e-01	0.1572	-138.342549	0.000284	2.837417	0.961343	0.000114
   6	4.9750e-01	0.1925	-138.221435	0.000304	3.040090	1.030010	0.000122
   7	5.9700e-01	0.2358	-138.132618	0.000223	2.229399	0.755341	0.000089
   8	6.9650e-01	0.2695	-137.991318	0.000355	3.546771	1.201679	0.000142
   9	7.9600e-01	0.3128	-137.946910	0.000111	1.114700	0.377670	0.000045
  10	8.9550e-01	0.3481	-137.789461	0.000395	3.952117	1.339013	0.000158
  11	9.9500e-01	0.3946	-137.676422	0.000284	2.837417	0.961343	0.000114
  12	1.0945e+00	0.4299	-137.579530	0.000243	2.432072	0.824008	0.000097
  13	1.1940e+00	0.4732	-137.462453	0.000294	2.938753	0.995677	0.000118
  14	1.2935e+00	0.5134	-137.361525	0.000253	2.533408	0.858342	0.000101
  15	1.3930e+00	0.5486	-137.252522	0.000274	2.736081	0.927009	0.000110
  16	1.4925e+00	0.5888	-137.147557	0.000263	2.634744	0.892676	0.000105
  17	1.5920e+00	0.6353	-137.038554	0.000274	2.736081	0.927009	0.000110
  18	1.6915e+00	0.6786	-136.953774	0.000213	2.128063	0.721007	0.000085
  19	1.7910e+00	0.7171	-136.804400	0.000375	3.749444	1.270346	0.000150
  20	1.8905e+00	0.7556	-136.659063	0.000365	3.648108	1.236012	0.000146
  21	1.9900e+00	0.7829	-136.566209	0.000233	2.330735	0.789675	0.000093
  22	2.0895e+00	0.8262	-136.461244	0.000263	2.634744	0.892676	0.000105
  23	2.1890e+00	0.8647	-136.384538	0.000193	1.925390	0.652340	0.000077
  24	2.2885e+00	0.9128	-136.206904	0.000446	4.458798	1.510682	0.000179
  25	2.3880e+00	0.9401	-136.114050	0.000233	2.330735	0.789675	0.000093
  26	2.4875e+00	0.9914	-136.041382	0.000182	1.824054	0.618006	0.000073
  27	2.5870e+00	1.0331	-135.912193	0.000324	3.242762	1.098678	0.000130
  28	2.6865e+00	1.0716	-135.791079	0.000304	3.040090	1.030010	0.000122
  29	2.7860e+00	1.1117	-135.674002	0.000294	2.938753	0.995677	0.000118
  30	2.8855e+00	1.1502	-135.540777	0.000334	3.344099	1.133011	0.000134
  31	2.9850e+00	1.1871	-135.427737	0.000284	2.837417	0.961343	0.000114
  32	3.0845e+00	1.2272	-135.334883	0.000233	2.330735	0.789675	0.000093
  33	3.1840e+00	1.2673	-135.197620	0.000345	3.445435	1.167345	0.000138
  34	3.2835e+00	1.3091	-135.108803	0.000223	2.229399	0.755341	0.000089
  35	3.3830e+00	1.3508	-135.015949	0.000233	2.330735	0.789675	0.000093
  36	3.4825e+00	1.3925	-134.894835	0.000304	3.040090	1.030010	0.000122
  37	3.5820e+00	1.4310	-134.769684	0.000314	3.141426	1.064344	0.000126
  38	3.6815e+00	1.4663	-134.672793	0.000243	2.432072	0.824008	0.000097
  39	3.7810e+00	1.5064	-134.531493	0.000355	3.546771	1.201679	0.000142
  40	3.8805e+00	1.5465	-134.438639	0.000233	2.330735	0.789675	0.000093
  41	3.9800e+00	1.5930	-134.321562	0.000294	2.938753	0.995677	0.000118
  42	4.0795e+00	1.6347	-134.232745	0.000223	2.229399	0.755341	0.000089
  43	4.1790e+00	1.6748	-134.087408	0.000365	3.648108	1.236012	0.000146
  44	4.2785e+00	1.7085	-134.002628	0.000213	2.128063	0.721007	0.000085
  45	4.3780e+00	1.7534	-133.841143	0.000405	4.053453	1.373347	0.000162
  46	4.4775e+00	1.7903	-133.728103	0.000284	2.837417	0.961343	0.000114
  47	4.5770e+00	1.8272	-133.667546	0.000152	1.520045	0.515005	0.000061
  48	4.6765e+00	1.8593	-133.518172	0.000375	3.749444	1.270346	0.000150
  49	4.7760e+00	1.9058	-133.397058	0.000304	3.040090	1.030010	0.000122
  50	4.8755e+00	1.9443	-133.271906	0.000314	3.141426	1.064344	0.000126
  51	4.9750e+00	1.9876	-133.191164	0.000203	2.026726	0.686674	0.000081
  52	5.0745e+00	2.0245	-133.090235	0.000253	2.533408	0.858342	0.000101
  53	5.1740e+00	2.0614	-132.944898	0.000365	3.648108	1.236012	0.000146
  54	5.2735e+00	2.1064	-132.827821	0.000294	2.938753	0.995677	0.000118
  55	5.3730e+00	2.1352	-132.730930	0.000243	2.432072	0.824008	0.000097
  56	5.4725e+00	2.1866	-132.613853	0.000294	2.938753	0.995677	0.000118
  57	5.5720e+00	2.2235	-132.472554	0.000355	3.546771	1.201679	0.000142
  58	5.6715e+00	2.2780	-132.383737	0.000223	2.229399	0.755341	0.000089
  59	5.7710e+00	2.3037	-132.298957	0.000213	2.128063	0.721007	0.000085
  60	5.8705e+00	2.3454	-132.173805	0.000314	3.141426	1.064344	0.000126
  61	5.9700e+00	2.3791	-132.052691	0.000304	3.040090	1.030010	0.000122
  62	6.0695e+00	2.4304	-131.931577	0.000304	3.040090	1.030010	0.000122
  63	6.1690e+00	2.4577	-131.866983	0.000162	1.621381	0.549339	0.000065
  64	6.2685e+00	2.5026	-131.697423	0.000426	4.256126	1.442014	0.000170
  65	6.3680e+00	2.5555	-131.608606	0.000223	2.229399	0.755341	0.000089
  66	6.4675e+00	2.5876	-131.435010	0.000436	4.357462	1.476348	0.000174
  67	6.5670e+00	2.6293	-131.378490	0.000142	1.418709	0.480671	0.000057
  68	6.6665e+00	2.6662	-131.265450	0.000284	2.837417	0.961343	0.000114
  69	6.7660e+00	2.6999	-131.184707	0.000203	2.026726	0.686674	0.000081
  70	6.8655e+00	2.7513	-131.047445	0.000345	3.445435	1.167345	0.000138
  71	6.9650e+00	2.7833	-130.930368	0.000294	2.938753	0.995677	0.000118
  72	7.0645e+00	2.8218	-130.865774	0.000162	1.621381	0.549339	0.000065
  73	7.1640e+00	2.8620	-130.732548	0.000334	3.344099	1.133011	0.000134
  74	7.2635e+00	2.9037	-130.647768	0.000213	2.128063	0.721007	0.000085
  75	7.3630e+00	2.9390	-130.538766	0.000274	2.736081	0.927009	0.000110
  76	7.4625e+00	2.9807	-130.421689	0.000294	2.938753	0.995677	0.000118
  77	7.5620e+00	3.0224	-130.304612	0.000294	2.938753	0.995677	0.000118
  78	7.6615e+00	3.0625	-130.199646	0.000263	2.634744	0.892676	0.000105
  79	7.7610e+00	3.0946	-130.082569	0.000294	2.938753	0.995677	0.000118
  80	7.8605e+00	3.1491	-129.977604	0.000263	2.634744	0.892676	0.000105
  81	7.9600e+00	3.1860	-129.904935	0.000182	1.824054	0.618006	0.000073
  82	8.0595e+00	3.2229	-129.775747	0.000324	3.242762	1.098678	0.000130
  83	8.1590e+00	3.2614	-129.678856	0.000243	2.432072	0.824008	0.000097
  84	8.2585e+00	3.2951	-129.577927	0.000253	2.533408	0.858342	0.000101
  85	8.3580e+00	3.3432	-129.452776	0.000314	3.141426	1.064344	0.000126
  86	8.4575e+00	3.3785	-129.335699	0.000294	2.938753	0.995677	0.000118
  87	8.5570e+00	3.4186	-129.206511	0.000324	3.242762	1.098678	0.000130
  88	8.6565e+00	3.4603	-129.125768	0.000203	2.026726	0.686674	0.000081
  89	8.7560e+00	3.5020	-129.028877	0.000243	2.432072	0.824008	0.000097
  90	8.8555e+00	3.5502	-128.907763	0.000304	3.040090	1.030010	0.000122
  91	8.9550e+00	3.5790	-128.758389	0.000375	3.749444	1.270346	0.000150
  92	9.0545e+00	3.6191	-128.697832	0.000152	1.520045	0.515005	0.000061
  93	9.1540e+00	3.6609	-128.552495	0.000365	3.648108	1.236012	0.000146
  94	9.2535e+00	3.6945	-128.491938	0.000152	1.520045	0.515005	0.000061
  95	9.3530e+00	3.7330	-128.403121	0.000223	2.229399	0.755341	0.000089
  96	9.4525e+00	3.7844	-128.241635	0.000405	4.053453	1.373347	0.000162
  97	9.5520e+00	3.8245	-128.148781	0.000233	2.330735	0.789675	0.000093
  98	9.6515e+00	3.8614	-128.059964	0.000223	2.229399	0.755341	0.000089
  99	9.7510e+00	3.8983	-127.922702	0.000345	3.445435	1.167345	0.000138
 100	9.8505e+00	3.9368	-127.841959	0.000203	2.026726	0.686674	0.000081
 101	9.9500e+00	3.9785	-127.732956	0.000274	2.736081	0.927009	0.000110
 102	1.0050e+01	4.0154	-127.611842	0.000304	3.040090	1.030010	0.000122
 103	1.0149e+01	4.0571	-127.502839	0.000274	2.736081	0.927009	0.000110
 104	1.0248e+01	4.0972	-127.381725	0.000304	3.040090	1.030010	0.000122
 105	1.0348e+01	4.1421	-127.244463	0.000345	3.445435	1.167345	0.000138
 106	1.0447e+01	4.1774	-127.216203	0.000071	0.709354	0.240336	0.000028
 107	1.0547e+01	4.2191	-127.111237	0.000263	2.634744	0.892676	0.000105
 108	1.0646e+01	4.2592	-127.002235	0.000274	2.736081	0.927009	0.000110
 109	1.0746e+01	4.2945	-126.852861	0.000375	3.749444	1.270346	0.000150
 110	1.0845e+01	4.3330	-126.780192	0.000182	1.824054	0.618006	0.000073
 111	1.0945e+01	4.3844	-126.683301	0.000243	2.432072	0.824008	0.000097
 112	1.1044e+01	4.4277	-126.590447	0.000233	2.330735	0.789675	0.000093
 113	1.1144e+01	4.4566	-126.485481	0.000263	2.634744	0.892676	0.000105
 114	1.1243e+01	4.5015	-126.352256	0.000334	3.344099	1.133011	0.000134
 115	1.1343e+01	4.5352	-126.275550	0.000193	1.925390	0.652340	0.000077
 116	1.1443e+01	4.5801	-126.178659	0.000243	2.432072	0.824008	0.000097
 117	1.1542e+01	4.6218	-126.089842	0.000223	2.229399	0.755341	0.000089
 118	1.1642e+01	4.6523	-125.960654	0.000324	3.242762	1.098678	0.000130
 119	1.1741e+01	4.6972	-125.896059	0.000162	1.621381	0.549339	0.000065
 120	1.1841e+01	4.7325	-125.754760	0.000355	3.546771	1.201679	0.000142
 121	1.1940e+01	4.7726	-125.665943	0.000223	2.229399	0.755341	0.000089
 122	1.2040e+01	4.8143	-125.597311	0.000172	1.722717	0.583672	0.000069
 123	1.2139e+01	4.8528	-125.484272	0.000284	2.837417	0.961343	0.000114
 124	1.2239e+01	4.8961	-125.351046	0.000334	3.344099	1.133011	0.000134
 125	1.2338e+01	4.9410	-125.258192	0.000233	2.330735	0.789675	0.000093
 126	1.2438e+01	4.9747	-125.145152	0.000284	2.837417	0.961343	0.000114
 127	1.2537e+01	5.0212	-125.044224	0.000253	2.533408	0.858342	0.000101
 128	1.2636e+01	5.0501	-124.947333	0.000243	2.432072	0.824008	0.000097
 129	1.2736e+01	5.0918	-124.866590	0.000203	2.026726	0.686674	0.000081
 130	1.2835e+01	5.1351	-124.741439	0.000314	3.141426	1.064344	0.000126
 131	1.2935e+01	5.1753	-124.632436	0.000274	2.736081	0.927009	0.000110
 132	1.3034e+01	5.2073	-124.535545	0.000243	2.432072	0.824008	0.000097
 133	1.3134e+01	5.2619	-124.422505	0.000284	2.837417	0.961343	0.000114
 134	1.3233e+01	5.2988	-124.349836	0.000182	1.824054	0.618006	0.000073
 135	1.3333e+01	5.3357	-124.232759	0.000294	2.938753	0.995677	0.000118
 136	1.3432e+01	5.3710	-124.143943	0.000223	2.229399	0.755341	0.000089
 137	1.3532e+01	5.4095	-124.030903	0.000284	2.837417	0.961343	0.000114
 138	1.3632e+01	5.4560	-123.934011	0.000243	2.432072	0.824008	0.000097
 139	1.3731e+01	5.4913	-123.841157	0.000233	2.330735	0.789675	0.000093
 140	1.3831e+01	5.5346	-123.748303	0.000233	2.330735	0.789675	0.000093
 141	1.3930e+01	5.5715	-123.619115	0.000324	3.242762	1.098678	0.000130
 142	1.4030e+01	5.6148	-123.546446	0.000182	1.824054	0.618006	0.000073
 143	1.4129e+01	5.6533	-123.405147	0.000355	3.546771	1.201679	0.000142
 144	1.4229e+01	5.6822	-123.316330	0.000223	2.229399	0.755341	0.000089
 145	1.4328e+01	5.7319	-123.203290	0.000284	2.837417	0.961343	0.000114
 146	1.4428e+01	5.7656	-123.130621	0.000182	1.824054	0.618006	0.000073
 147	1.4527e+01	5.8218	-123.009507	0.000304	3.040090	1.030010	0.000122
 148	1.4627e+01	5.8506	-122.900505	0.000274	2.736081	0.927009	0.000110
 149	1.4726e+01	5.8859	-122.819762	0.000203	2.026726	0.686674	0.000081
 150	1.4825e+01	5.9292	-122.662314	0.000395	3.952117	1.339013	0.000158
 151	1.4925e+01	5.9790	-122.593682	0.000172	1.722717	0.583672	0.000069
 152	1.5024e+01	6.0111	-122.504865	0.000223	2.229399	0.755341	0.000089
 153	1.5124e+01	6.0480	-122.379714	0.000314	3.141426	1.064344	0.000126
 154	1.5223e+01	6.0865	-122.282823	0.000243	2.432072	0.824008	0.000097
 155	1.5323e+01	6.1314	-122.202080	0.000203	2.026726	0.686674	0.000081
 156	1.5422e+01	6.1715	-122.080966	0.000304	3.040090	1.030010	0.000122
 157	1.5522e+01	6.2052	-121.963889	0.000294	2.938753	0.995677	0.000118
 158	1.5621e+01	6.2421	-121.854887	0.000274	2.736081	0.927009	0.000110
 159	1.5721e+01	6.2950	-121.749921	0.000263	2.634744	0.892676	0.000105
 160	1.5820e+01	6.3335	-121.657067	0.000233	2.330735	0.789675	0.000093
 161	1.5920e+01	6.3688	-121.511730	0.000365	3.648108	1.236012	0.000146
 162	1.6020e+01	6.4169	-121.443099	0.000172	1.722717	0.583672	0.000069
 163	1.6119e+01	6.4474	-121.350245	0.000233	2.330735	0.789675	0.000093
 164	1.6218e+01	6.4859	-121.229131	0.000304	3.040090	1.030010	0.000122
 165	1.6318e+01	6.5196	-121.176648	0.000132	1.317372	0.446338	0.000053
 166	1.6418e+01	6.5741	-121.067645	0.000274	2.736081	0.927009	0.000110
 167	1.6517e+01	6.6126	-120.970754	0.000243	2.432072	0.824008	0.000097
 168	1.6616e+01	6.6431	-120.849640	0.000304	3.040090	1.030010	0.000122
 169	1.6716e+01	6.6832	-120.708340	0.000355	3.546771	1.201679	0.000142
 170	1.6816e+01	6.7282	-120.667969	0.000101	1.013363	0.343337	0.000041
 171	1.6915e+01	6.7731	-120.534743	0.000334	3.344099	1.133011	0.000134
 172	1.7015e+01	6.8068	-120.429778	0.000263	2.634744	0.892676	0.000105
 173	1.7114e+01	6.8517	-120.320775	0.000274	2.736081	0.927009	0.000110
 174	1.7213e+01	6.8870	-120.227921	0.000233	2.330735	0.789675	0.000093
 175	1.7313e+01	6.9255	-120.126992	0.000253	2.533408	0.858342	0.000101
 176	1.7413e+01	6.9640	-119.993767	0.000334	3.344099	1.133011	0.000134
 177	1.7512e+01	7.0089	-119.969544	0.000061	0.608018	0.206002	0.000024
 178	1.7611e+01	7.0442	-119.828244	0.000355	3.546771	1.201679	0.000142
 179	1.7711e+01	7.0843	-119.715205	0.000284	2.837417	0.961343	0.000114
 180	1.7811e+01	7.1260	-119.638499	0.000193	1.925390	0.652340	0.000077
 181	1.7910e+01	7.1661	-119.493162	0.000365	3.648108	1.236012	0.000146
 182	1.8009e+01	7.2078	-119.424531	0.000172	1.722717	0.583672	0.000069
 183	1.8109e+01	7.2367	-119.311491	0.000284	2.837417	0.961343	0.000114
 184	1.8209e+01	7.2880	-119.194414	0.000294	2.938753	0.995677	0.000118
 185	1.8308e+01	7.3185	-119.061189	0.000334	3.344099	1.133011	0.000134
 186	1.8407e+01	7.3650	-119.012743	0.000122	1.216036	0.412004	0.000049
 187	1.8507e+01	7.4067	-118.887592	0.000314	3.141426	1.064344	0.000126
 188	1.8607e+01	7.4517	-118.790701	0.000243	2.432072	0.824008	0.000097
 189	1.8706e+01	7.4854	-118.669586	0.000304	3.040090	1.030010	0.000122
 190	1.8805e+01	7.5190	-118.600955	0.000172	1.722717	0.583672	0.000069
 191	1.8905e+01	7.5688	-118.447544	0.000385	3.850780	1.304680	0.000154
 192	1.9005e+01	7.5976	-118.342578	0.000263	2.634744	0.892676	0.000105
 193	1.9104e+01	7.6378	-118.286059	0.000142	1.418709	0.480671	0.000057
 194	1.9203e+01	7.6795	-118.140722	0.000365	3.648108	1.236012	0.000146
 195	1.9303e+01	7.7228	-118.076127	0.000162	1.621381	0.549339	0.000065
 196	1.9402e+01	7.7645	-117.975199	0.000253	2.533408	0.858342	0.000101
 197	1.9502e+01	7.8110	-117.854085	0.000304	3.040090	1.030010	0.000122
 198	1.9602e+01	7.8447	-117.761231	0.000233	2.330735	0.789675	0.000093
 199	1.9701e+01	7.8848	-117.636080	0.000314	3.141426	1.064344	0.000126
 200	1.9800e+01	7.9169	-117.551300	0.000213	2.128063	0.721007	0.000085
 201	1.9900e+01	7.9570	-117.470557	0.000203	2.026726	0.686674	0.000081
 202	2.0000e+01	8.0003	-117.317146	0.000385	3.850780	1.304680	0.000154
 203	2.0099e+01	8.0420	-117.248515	0.000172	1.722717	0.583672	0.000069
 204	2.0198e+01	8.0821	-117.135475	0.000284	2.837417	0.961343	0.000114
 205	2.0298e+01	8.1174	-117.042621	0.000233	2.330735	0.789675	0.000093
 206	2.0398e+01	8.1511	-116.965915	0.000193	1.925390	0.652340	0.000077
 207	2.0497e+01	8.2024	-116.832690	0.000334	3.344099	1.133011	0.000134
 208	2.0596e+01	8.2442	-116.743873	0.000223	2.229399	0.755341	0.000089
 209	2.0696e+01	8.2746	-116.646981	0.000243	2.432072	0.824008	0.000097
 210	2.0796e+01	8.3260	-116.554127	0.000233	2.330735	0.789675	0.000093
 211	2.0895e+01	8.3597	-116.412828	0.000355	3.546771	1.201679	0.000142
 212	2.0994e+01	8.4142	-116.340159	0.000182	1.824054	0.618006	0.000073
 213	2.1094e+01	8.4415	-116.231156	0.000274	2.736081	0.927009	0.000110
 214	2.1194e+01	8.4880	-116.134265	0.000243	2.432072	0.824008	0.000097
 215	2.1293e+01	8.5185	-116.029300	0.000263	2.634744	0.892676	0.000105
 216	2.1392e+01	8.5650	-115.928371	0.000253	2.533408	0.858342	0.000101
 217	2.1492e+01	8.6035	-115.855703	0.000182	1.824054	0.618006	0.000073
 218	2.1591e+01	8.6500	-115.742663	0.000284	2.837417	0.961343	0.000114
 219	2.1691e+01	8.6773	-115.617512	0.000314	3.141426	1.064344	0.000126
 220	2.1791e+01	8.7286	-115.512546	0.000263	2.634744	0.892676	0.000105
 221	2.1890e+01	8.7607	-115.456026	0.000142	1.418709	0.480671	0.000057
 222	2.1989e+01	8.8104	-115.326838	0.000324	3.242762	1.098678	0.000130
 223	2.2089e+01	8.8409	-115.254170	0.000182	1.824054	0.618006	0.000073
 224	2.2189e+01	8.8826	-115.116907	0.000345	3.445435	1.167345	0.000138
 225	2.2288e+01	8.9195	-115.015979	0.000253	2.533408	0.858342	0.000101
 226	2.2387e+01	8.9500	-114.890827	0.000314	3.141426	1.064344	0.000126
 227	2.2487e+01	8.9901	-114.826233	0.000162	1.621381	0.549339	0.000065
 228	2.2587e+01	9.0399	-114.717231	0.000274	2.736081	0.927009	0.000110
 229	2.2686e+01	9.0784	-114.640525	0.000193	1.925390	0.652340	0.000077
 230	2.2785e+01	9.1201	-114.527485	0.000284	2.837417	0.961343	0.000114
 231	2.2885e+01	9.1618	-114.422520	0.000263	2.634744	0.892676	0.000105
 232	2.2985e+01	9.2003	-114.329666	0.000233	2.330735	0.789675	0.000093
 233	2.3084e+01	9.2324	-114.252960	0.000193	1.925390	0.652340	0.000077
 234	2.3183e+01	9.2725	-114.127809	0.000314	3.141426	1.064344	0.000126
 235	2.3283e+01	9.3174	-114.047066	0.000203	2.026726	0.686674	0.000081
 236	2.3383e+01	9.3543	-113.938063	0.000274	2.736081	0.927009	0.000110
 237	2.3482e+01	9.4008	-113.841172	0.000243	2.432072	0.824008	0.000097
 238	2.3581e+01	9.4361	-113.740244	0.000253	2.533408	0.858342	0.000101
 239	2.3681e+01	9.4714	-113.639315	0.000253	2.533408	0.858342	0.000101
 240	2.3780e+01	9.5179	-113.546461	0.000233	2.330735	0.789675	0.000093
 241	2.3880e+01	9.5548	-113.449570	0.000243	2.432072	0.824008	0.000097
 242	2.3980e+01	9.5869	-113.328456	0.000304	3.040090	1.030010	0.000122
 243	2.4079e+01	9.6446	-113.239639	0.000223	2.229399	0.755341	0.000089
 244	2.4178e+01	9.6751	-113.171008	0.000172	1.722717	0.583672	0.000069
 245	2.4278e+01	9.7200	-113.098339	0.000182	1.824054	0.618006	0.000073
 246	2.4378e+01	9.7650	-112.989336	0.000274	2.736081	0.927009	0.000110
 247	2.4477e+01	9.8003	-112.848037	0.000355	3.546771	1.201679	0.000142
 248	2.4576e+01	9.8339	-112.795554	0.000132	1.317372	0.446338	0.000053
 249	2.4676e+01	9.8789	-112.670403	0.000314	3.141426	1.064344	0.000126
 250	2.4776e+01	9.9126	-112.581586	0.000223	2.229399	0.755341	0.000089
 251	2.4875e+01	9.9591	-112.440286	0.000355	3.546771	1.201679	0.000142
 252	2.4974e+01	9.9896	-112.347432	0.000233	2.330735	0.789675	0.000093
 253	2.5074e+01	10.0345	-112.274763	0.000182	1.824054	0.618006	0.000073
 254	2.5174e+01	10.0778	-112.181909	0.000233	2.330735	0.789675	0.000093
 255	2.5273e+01	10.1099	-112.064832	0.000294	2.938753	0.995677	0.000118
 256	2.5372e+01	10.1612	-111.955830	0.000274	2.736081	0.927009	0.000110
 257	2.5472e+01	10.1949	-111.887198	0.000172	1.722717	0.583672	0.000069
 258	2.5572e+01	10.2382	-111.782233	0.000263	2.634744	0.892676	0.000105
 259	2.5671e+01	10.2735	-111.677267	0.000263	2.634744	0.892676	0.000105
 260	2.5770e+01	10.3072	-111.608636	0.000172	1.722717	0.583672	0.000069
 261	2.5870e+01	10.3505	-111.495596	0.000284	2.837417	0.961343	0.000114
 262	2.5970e+01	10.3906	-111.350259	0.000365	3.648108	1.236012	0.000146
 263	2.6069e+01	10.4355	-111.273554	0.000193	1.925390	0.652340	0.000077
 264	2.6169e+01	10.4708	-111.217034	0.000142	1.418709	0.480671	0.000057
 265	2.6268e+01	10.5077	-111.108031	0.000274	2.736081	0.927009	0.000110
 266	2.6367e+01	10.5526	-110.958657	0.000375	3.749444	1.270346	0.000150
 267	2.6467e+01	10.5911	-110.869840	0.000223	2.229399	0.755341	0.000089
 268	2.6567e+01	10.6441	-110.797172	0.000182	1.824054	0.618006	0.000073
 269	2.6666e+01	10.6698	-110.696243	0.000253	2.533408	0.858342	0.000101
 270	2.6765e+01	10.7115	-110.611464	0.000213	2.128063	0.721007	0.000085
 271	2.6865e+01	10.7484	-110.466127	0.000365	3.648108	1.236012	0.000146
 272	2.6965e+01	10.7965	-110.381347	0.000213	2.128063	0.721007	0.000085
 273	2.7064e+01	10.8318	-110.316753	0.000162	1.621381	0.549339	0.000065
 274	2.7163e+01	10.8751	-110.207750	0.000274	2.736081	0.927009	0.000110
 275	2.7263e+01	10.9136	-110.050302	0.000395	3.952117	1.339013	0.000158
 276	2.7363e+01	10.9521	-109.965522	0.000213	2.128063	0.721007	0.000085
 277	2.7462e+01	10.9858	-109.848445	0.000294	2.938753	0.995677	0.000118
 278	2.7561e+01	11.0259	-109.787888	0.000152	1.520045	0.515005	0.000061
 279	2.7661e+01	11.0740	-109.690997	0.000243	2.432072	0.824008	0.000097
 280	2.7761e+01	11.1125	-109.533548	0.000395	3.952117	1.339013	0.000158
 281	2.7860e+01	11.1462	-109.432620	0.000253	2.533408	0.858342	0.000101
 282	2.7959e+01	11.2008	-109.315543	0.000294	2.938753	0.995677	0.000118
 283	2.8059e+01	11.2328	-109.226726	0.000223	2.229399	0.755341	0.000089
 284	2.8159e+01	11.2681	-109.174243	0.000132	1.317372	0.446338	0.000053
 285	2.8258e+01	11.3179	-109.036981	0.000345	3.445435	1.167345	0.000138
 286	2.8358e+01	11.3532	-108.940089	0.000243	2.432072	0.824008	0.000097
 287	2.8457e+01	11.3965	-108.843198	0.000243	2.432072	0.824008	0.000097
 288	2.8556e+01	11.4350	-108.722084	0.000304	3.040090	1.030010	0.000122
 289	2.8656e+01	11.4767	-108.641341	0.000203	2.026726	0.686674	0.000081
 290	2.8756e+01	11.5088	-108.451596	0.000476	4.762807	1.613683	0.000191
 291	2.8855e+01	11.5537	-108.411225	0.000101	1.013363	0.343337	0.000041
 292	2.8954e+01	11.5874	-108.314333	0.000243	2.432072	0.824008	0.000097
 293	2.9054e+01	11.6291	-108.213405	0.000253	2.533408	0.858342	0.000101
 294	2.9154e+01	11.6660	-108.088254	0.000314	3.141426	1.064344	0.000126
 295	2.9253e+01	11.7141	-107.967140	0.000304	3.040090	1.030010	0.000122
 296	2.9352e+01	11.7478	-107.870248	0.000243	2.432072	0.824008	0.000097
 297	2.9452e+01	11.7959	-107.732986	0.000345	3.445435	1.167345	0.000138
 298	2.9552e+01	11.8312	-107.644169	0.000223	2.229399	0.755341	0.000089
 299	2.9651e+01	11.8745	-107.531129	0.000284	2.837417	0.961343	0.000114
 300	2.9750e+01	11.9098	-107.389829	0.000355	3.546771	1.201679	0.000142
 301	2.9850e+01	11.9435	-107.272752	0.000294	2.938753	0.995677	0.000118
 302	2.9950e+01	11.9868	-107.175861	0.000243	2.432072	0.824008	0.000097
 303	3.0049e+01	12.0301	-107.062821	0.000284	2.837417	0.961343	0.000114
 304	3.0148e+01	12.0686	-106.929596	0.000334	3.344099	1.133011	0.000134
 305	3.0248e+01	12.1087	-106.788296	0.000355	3.546771	1.201679	0.000142
 306	3.0348e+01	12.1456	-106.703516	0.000213	2.128063	0.721007	0.000085
 307	3.0447e+01	12.1793	-106.606625	0.000243	2.432072	0.824008	0.000097
 308	3.0547e+01	12.2259	-106.433028	0.000436	4.357462	1.476348	0.000174
 309	3.0646e+01	12.2612	-106.303840	0.000324	3.242762	1.098678	0.000130
 310	3.0745e+01	12.3045	-106.210986	0.000233	2.330735	0.789675	0.000093
 311	3.0845e+01	12.3446	-106.041426	0.000426	4.256126	1.442014	0.000170
 312	3.0945e+01	12.3847	-105.948572	0.000233	2.330735	0.789675	0.000093
 313	3.1044e+01	12.4200	-105.787086	0.000405	4.053453	1.373347	0.000162
 314	3.1143e+01	12.4697	-105.670009	0.000294	2.938753	0.995677	0.000118
 315	3.1243e+01	12.5034	-105.544858	0.000314	3.141426	1.064344	0.000126
 316	3.1343e+01	12.5499	-105.403558	0.000355	3.546771	1.201679	0.000142
 317	3.1442e+01	12.5900	-105.266296	0.000345	3.445435	1.167345	0.000138
 318	3.1541e+01	12.6285	-105.185553	0.000203	2.026726	0.686674	0.000081
 319	3.1641e+01	12.6734	-105.003882	0.000456	4.560135	1.545015	0.000183
 320	3.1741e+01	12.7039	-104.854508	0.000375	3.749444	1.270346	0.000150
 321	3.1840e+01	12.7392	-104.737431	0.000294	2.938753	0.995677	0.000118
 322	3.1939e+01	12.7954	-104.608243	0.000324	3.242762	1.098678	0.000130
 323	3.2039e+01	12.8274	-104.446757	0.000405	4.053453	1.373347	0.000162
 324	3.2139e+01	12.8627	-104.269123	0.000446	4.458798	1.510682	0.000179
 325	3.2238e+01	12.9012	-104.164158	0.000263	2.634744	0.892676	0.000105
 326	3.2337e+01	12.9430	-104.022858	0.000355	3.546771	1.201679	0.000142
 327	3.2437e+01	12.9750	-103.837150	0.000466	4.661471	1.579349	0.000187
 328	3.2536e+01	13.0183	-103.716036	0.000304	3.040090	1.030010	0.000122
 329	3.2636e+01	13.0633	-103.542439	0.000436	4.357462	1.476348	0.000174
 330	3.2736e+01	13.0986	-103.429399	0.000284	2.837417	0.961343	0.000114
 331	3.2835e+01	13.1339	-103.284062	0.000365	3.648108	1.236012	0.000146
 332	3.2934e+01	13.1740	-103.090280	0.000486	4.864143	1.648016	0.000195
 333	3.3034e+01	13.2221	-102.965128	0.000314	3.141426	1.064344	0.000126
 334	3.3133e+01	13.2654	-102.779420	0.000466	4.661471	1.579349	0.000187
 335	3.3233e+01	13.2895	-102.650232	0.000324	3.242762	1.098678	0.000130
 336	3.3333e+01	13.3456	-102.452412	0.000497	4.965480	1.682350	0.000199
 337	3.3432e+01	13.3761	-102.299001	0.000385	3.850780	1.304680	0.000154
 338	3.3532e+01	13.4306	-102.113293	0.000466	4.661471	1.579349	0.000187
 339	3.3631e+01	13.4611	-102.000253	0.000284	2.837417	0.961343	0.000114
 340	3.3730e+01	13.5028	-101.782248	0.000547	5.472161	1.854018	0.000219
 341	3.3830e+01	13.5413	-101.644985	0.000345	3.445435	1.167345	0.000138
 342	3.3929e+01	13.5766	-101.443128	0.000507	5.066816	1.716684	0.000203
 343	3.4029e+01	13.6231	-101.297791	0.000365	3.648108	1.236012	0.000146
 344	3.4129e+01	13.6520	-101.108046	0.000476	4.762807	1.613683	0.000191
 345	3.4228e+01	13.6921	-100.922338	0.000466	4.661471	1.579349	0.000187
 346	3.4328e+01	13.7435	-100.785075	0.000345	3.445435	1.167345	0.000138
 347	3.4427e+01	13.7884	-100.563033	0.000557	5.573498	1.888352	0.000223
 348	3.4526e+01	13.8157	-100.373287	0.000476	4.762807	1.613683	0.000191
 349	3.4626e+01	13.8574	-100.215839	0.000395	3.952117	1.339013	0.000158
 350	3.4725e+01	13.9055	-100.042242	0.000436	4.357462	1.476348	0.000174
 351	3.4825e+01	13.9392	-99.820200	0.000557	5.573498	1.888352	0.000223
 352	3.4925e+01	13.9729	-99.666789	0.000385	3.850780	1.304680	0.000154
 353	3.5024e+01	14.0178	-99.468969	0.000497	4.965480	1.682350	0.000199
 354	3.5123e+01	14.0643	-99.271149	0.000497	4.965480	1.682350	0.000199
 355	3.5223e+01	14.0900	-99.032958	0.000598	5.978843	2.025687	0.000239
 356	3.5322e+01	14.1349	-98.847250	0.000466	4.661471	1.579349	0.000187
 357	3.5422e+01	14.1878	-98.629245	0.000547	5.472161	1.854018	0.000219
 358	3.5522e+01	14.2183	-98.447574	0.000456	4.560135	1.545015	0.000183
 359	3.5621e+01	14.2520	-98.181123	0.000669	6.688197	2.266023	0.000268
 360	3.5721e+01	14.2985	-97.991377	0.000476	4.762807	1.613683	0.000191
 361	3.5820e+01	14.3338	-97.797595	0.000486	4.864143	1.648016	0.000195
 362	3.5919e+01	14.3803	-97.551329	0.000618	6.181516	2.094354	0.000248
 363	3.6019e+01	14.4237	-97.369658	0.000456	4.560135	1.545015	0.000183
 364	3.6118e+01	14.4541	-97.151653	0.000547	5.472161	1.854018	0.000219
 365	3.6218e+01	14.4958	-96.881165	0.000679	6.789534	2.300356	0.000272
 366	3.6318e+01	14.5376	-96.642974	0.000598	5.978843	2.025687	0.000239
 367	3.6417e+01	14.5745	-96.457266	0.000466	4.661471	1.579349	0.000187
 368	3.6517e+01	14.6178	-96.219075	0.000598	5.978843	2.025687	0.000239
 369	3.6616e+01	14.6482	-95.960698	0.000649	6.485525	2.197355	0.000260
 370	3.6715e+01	14.6948	-95.714433	0.000618	6.181516	2.094354	0.000248
 371	3.6815e+01	14.7317	-95.476242	0.000598	5.978843	2.025687	0.000239
 372	3.6914e+01	14.7734	-95.221902	0.000638	6.384188	2.163022	0.000256
 373	3.7014e+01	14.8055	-95.007934	0.000537	5.370825	1.819685	0.000215
 374	3.7114e+01	14.8600	-94.709186	0.000750	7.498888	2.540692	0.000300
 375	3.7213e+01	14.9001	-94.479069	0.000578	5.776170	1.957020	0.000231
 376	3.7313e+01	14.9354	-94.164173	0.000790	7.904233	2.678027	0.000316
 377	3.7412e+01	14.9723	-93.966353	0.000497	4.965480	1.682350	0.000199
 378	3.7511e+01	15.0156	-93.659531	0.000770	7.701560	2.609359	0.000308
 379	3.7611e+01	15.0477	-93.393080	0.000669	6.688197	2.266023	0.000268
 380	3.7711e+01	15.0958	-93.146814	0.000618	6.181516	2.094354	0.000248
 381	3.7810e+01	15.1359	-92.856141	0.000730	7.296215	2.472025	0.000292
 382	3.7910e+01	15.1776	-92.545281	0.000780	7.802897	2.643693	0.000312
 383	3.8009e+01	15.2194	-92.270756	0.000689	6.890870	2.334690	0.000276
 384	3.8108e+01	15.2514	-92.004305	0.000669	6.688197	2.266023	0.000268
 385	3.8208e+01	15.2803	-91.689408	0.000790	7.904233	2.678027	0.000316
 386	3.8307e+01	15.3300	-91.370475	0.000801	8.005569	2.712360	0.000321
 387	3.8407e+01	15.3669	-91.067689	0.000760	7.600224	2.575026	0.000304
 388	3.8507e+01	15.4167	-90.801238	0.000669	6.688197	2.266023	0.000268
 389	3.8606e+01	15.4488	-90.478268	0.000811	8.106906	2.746694	0.000325
 390	3.8706e+01	15.4889	-90.199705	0.000699	6.992206	2.369024	0.000280
 391	3.8805e+01	15.5418	-89.852512	0.000871	8.714924	2.952696	0.000349
 392	3.8904e+01	15.5707	-89.557801	0.000740	7.397552	2.506358	0.000296
 393	3.9004e+01	15.6156	-89.246941	0.000780	7.802897	2.643693	0.000312
 394	3.9103e+01	15.6445	-88.911859	0.000841	8.410915	2.849695	0.000337
 395	3.9203e+01	15.6894	-88.572740	0.000851	8.512251	2.884029	0.000341
 396	3.9303e+01	15.7343	-88.261880	0.000780	7.802897	2.643693	0.000312
 397	3.9402e+01	15.7760	-87.910649	0.000882	8.816260	2.987030	0.000353
 398	3.9502e+01	15.8113	-87.543270	0.000922	9.221605	3.124364	0.000369
 399	3.9601e+01	15.8546	-87.200113	0.000861	8.613587	2.918362	0.000345
 400	3.9700e+01	15.8996	-86.852920	0.000871	8.714924	2.952696	0.000349
 401	3.9800e+01	15.9316	-86.497652	0.000892	8.917596	3.021363	0.000357
 402	3.9900e+01	15.9701	-86.126235	0.000932	9.322942	3.158698	0.000373
 403	3.9999e+01	16.0135	-85.754819	0.000932	9.322942	3.158698	0.000373
 404	4.0099e+01	16.0503	-85.387439	0.000922	9.221605	3.124364	0.000369
 405	4.0198e+01	16.0969	-84.971614	0.001044	10.437641	3.536369	0.000418
 406	4.0297e+01	16.1322	-84.620384	0.000882	8.816260	2.987030	0.000353
 407	4.0397e+01	16.1675	-84.228781	0.000983	9.829623	3.330367	0.000394
 408	4.0496e+01	16.2156	-83.837179	0.000983	9.829623	3.330367	0.000394
 409	4.0596e+01	16.2493	-83.409243	0.001074	10.741650	3.639370	0.000430
 410	4.0696e+01	16.2862	-83.021678	0.000973	9.728287	3.296033	0.000390
 411	4.0795e+01	16.3295	-82.630076	0.000983	9.829623	3.330367	0.000394
 412	4.0895e+01	16.3680	-82.202139	0.001074	10.741650	3.639370	0.000430
 413	4.0994e+01	16.4129	-81.745943	0.001145	11.451004	3.879705	0.000458
 414	4.1093e+01	16.4546	-81.289747	0.001145	11.451004	3.879705	0.000458
 415	4.1193e+01	16.4867	-80.849699	0.001105	11.045659	3.742371	0.000442
 416	4.1292e+01	16.5300	-80.425800	0.001064	10.640314	3.605036	0.000426
 417	4.1392e+01	16.5685	-79.993826	0.001084	10.842986	3.673703	0.000434
 418	4.1492e+01	16.5990	-79.473036	0.001307	13.072386	4.429044	0.000523
 419	4.1591e+01	16.6455	-79.028951	0.001115	11.146995	3.776704	0.000446
 420	4.1691e+01	16.6888	-78.556606	0.001186	11.856350	4.017040	0.000475
 421	4.1790e+01	16.7241	-78.027741	0.001328	13.275058	4.497711	0.000532
 422	4.1889e+01	16.7626	-77.583656	0.001115	11.146995	3.776704	0.000446
 423	4.1989e+01	16.8011	-77.079014	0.001267	12.667040	4.291709	0.000507
 424	4.2089e+01	16.8428	-76.590521	0.001226	12.261695	4.154375	0.000491
 425	4.2188e+01	16.8862	-76.069730	0.001307	13.072386	4.429044	0.000523
 426	4.2288e+01	16.9279	-75.540865	0.001328	13.275058	4.497711	0.000532
 427	4.2387e+01	16.9551	-75.007963	0.001338	13.376395	4.532045	0.000536
 428	4.2486e+01	17.0081	-74.499284	0.001277	12.768377	4.326043	0.000511
 429	4.2586e+01	17.0562	-73.954271	0.001368	13.680404	4.635046	0.000548
 430	4.2685e+01	17.0867	-73.425406	0.001328	13.275058	4.497711	0.000532
 431	4.2785e+01	17.1300	-72.848096	0.001449	14.491094	4.909716	0.000580
 432	4.2885e+01	17.1621	-72.262711	0.001469	14.693767	4.978383	0.000588
 433	4.2984e+01	17.2006	-71.685401	0.001449	14.491094	4.909716	0.000580
 434	4.3084e+01	17.2359	-71.132313	0.001388	13.883076	4.703714	0.000556
 435	4.3183e+01	17.2872	-70.518669	0.001540	15.403121	5.218719	0.000617
 436	4.3282e+01	17.3273	-69.953470	0.001419	14.187085	4.806715	0.000568
 437	4.3382e+01	17.3770	-69.319639	0.001591	15.909803	5.390387	0.000637
 438	4.3481e+01	17.4075	-68.722143	0.001500	14.997776	5.081384	0.000600
 439	4.3581e+01	17.4444	-68.039867	0.001713	17.125838	5.802391	0.000686
 440	4.3681e+01	17.4926	-67.442371	0.001500	14.997776	5.081384	0.000600
 441	4.3780e+01	17.5214	-66.768169	0.001692	16.923166	5.733724	0.000678
 442	4.3880e+01	17.5663	-66.138376	0.001581	15.808466	5.356053	0.000633
 443	4.3979e+01	17.6065	-65.439952	0.001753	17.531184	5.939726	0.000702
 444	4.4078e+01	17.6498	-64.769787	0.001682	16.821830	5.699390	0.000674
 445	4.4178e+01	17.6947	-64.075400	0.001743	17.429847	5.905392	0.000698
 446	4.4278e+01	17.7284	-63.328530	0.001875	18.747220	6.351730	0.000751
 447	4.4377e+01	17.7669	-62.589734	0.001854	18.544547	6.283063	0.000743
 448	4.4477e+01	17.8006	-61.842864	0.001875	18.747220	6.351730	0.000751
 449	4.4576e+01	17.8455	-61.100031	0.001865	18.645883	6.317396	0.000747
 450	4.4675e+01	17.8760	-60.365272	0.001844	18.443211	6.248729	0.000738
 451	4.4775e+01	17.9225	-59.561882	0.002017	20.165928	6.832401	0.000807
 452	4.4874e+01	17.9658	-58.823086	0.001854	18.544547	6.283063	0.000743
 453	4.4974e+01	17.9995	-57.971251	0.002138	21.381964	7.244406	0.000856
 454	4.5074e+01	18.0412	-57.155749	0.002047	20.469937	6.935402	0.000820
 455	4.5173e+01	18.0797	-56.336211	0.002057	20.571273	6.969736	0.000824
 456	4.5273e+01	18.1262	-55.528784	0.002027	20.267264	6.866735	0.000811
 457	4.5372e+01	18.1631	-54.685022	0.002118	21.179291	7.175738	0.000848
 458	4.5471e+01	18.1968	-53.817038	0.002179	21.787309	7.381740	0.000872
 459	4.5571e+01	18.2401	-52.977314	0.002108	21.077955	7.141404	0.000844
 460	4.5670e+01	18.2866	-52.105292	0.002189	21.888646	7.416074	0.000876
 461	4.5770e+01	18.3203	-51.196937	0.002280	22.800673	7.725077	0.000913
 462	4.5870e+01	18.3588	-50.284544	0.002290	22.902009	7.759411	0.000917
 463	4.5969e+01	18.4054	-49.376189	0.002280	22.800673	7.725077	0.000913
 464	4.6069e+01	18.4391	-48.435536	0.002361	23.611363	7.999746	0.000945
 465	4.6168e+01	18.4824	-47.458549	0.002452	24.523390	8.308749	0.000982
 466	4.6267e+01	18.5257	-46.505785	0.002392	23.915372	8.102747	0.000958
 467	4.6367e+01	18.5610	-45.516687	0.002483	24.827399	8.411750	0.000994
 468	4.6467e+01	18.5995	-44.559886	0.002402	24.016708	8.137081	0.000962
 469	4.6566e+01	18.6396	-43.566750	0.002493	24.928735	8.446084	0.000998
 470	4.6666e+01	18.6813	-42.553429	0.002544	25.435417	8.617753	0.001018
 471	4.6765e+01	18.7294	-41.503774	0.002635	26.347444	8.926756	0.001055
 472	4.6864e+01	18.7535	-40.482379	0.002564	25.638090	8.686420	0.001027
 473	4.6964e+01	18.7952	-39.432723	0.002635	26.347444	8.926756	0.001055
 474	4.7063e+01	18.8417	-38.342697	0.002736	27.360807	9.270092	0.001096
 475	4.7163e+01	18.8882	-37.289004	0.002645	26.448780	8.961089	0.001059
 476	4.7263e+01	18.9203	-36.203015	0.002726	27.259471	9.235759	0.001091
 477	4.7362e+01	18.9572	-35.076654	0.002827	28.272834	9.579095	0.001132
 478	4.7462e+01	19.0053	-33.962404	0.002797	27.968825	9.476094	0.001120
 479	4.7561e+01	19.0294	-32.864303	0.002756	27.563480	9.338760	0.001104
 480	4.7660e+01	19.0807	-31.669311	0.003000	29.995551	10.162768	0.001201
 481	4.7760e+01	19.1192	-30.522765	0.002878	28.779516	9.750764	0.001152
 482	4.7859e+01	19.1529	-29.307587	0.003050	30.502233	10.334436	0.001221
 483	4.7959e+01	19.1946	-28.092409	0.003050	30.502233	10.334436	0.001221
 484	4.8059e+01	19.2444	-26.877231	0.003050	30.502233	10.334436	0.001221
 485	4.8158e+01	19.2813	-25.629756	0.003131	31.312924	10.609106	0.001254
 486	4.8258e+01	19.3198	-24.406504	0.003070	30.704906	10.403104	0.001229
 487	4.8357e+01	19.3551	-23.203438	0.003020	30.198224	10.231435	0.001209
 488	4.8456e+01	19.3920	-21.850997	0.003395	33.947668	11.501781	0.001359
 489	4.8556e+01	19.4433	-20.530854	0.003314	33.136977	11.227112	0.001327
 490	4.8656e+01	19.4706	-19.154191	0.003456	34.555686	11.707783	0.001384
 491	4.8755e+01	19.5203	-17.789639	0.003425	34.251677	11.604782	0.001371
 492	4.8855e+01	19.5492	-16.404901	0.003476	34.758359	11.776451	0.001392
 493	4.8954e+01	19.5957	-14.987866	0.003557	35.569049	12.051120	0.001424
 494	4.9053e+01	19.6422	-13.558720	0.003587	35.873058	12.154121	0.001436
 495	4.9153e+01	19.6775	-12.064980	0.003749	37.494439	12.703460	0.001501
 496	4.9252e+01	19.7160	-10.567203	0.003760	37.595776	12.737794	0.001505
 497	4.9352e+01	19.7593	-9.016943	0.003891	38.913148	13.184131	0.001558
 498	4.9452e+01	19.7946	-7.458608	0.003912	39.115820	13.252799	0.001566
 499	4.9551e+01	19.8299	-5.884125	0.003952	39.521166	13.390133	0.001582
 500	4.9651e+01	19.8780	-4.261197	0.004074	40.737202	13.802138	0.001631
 501	4.9750e+01	19.9133	-2.593860	0.004185	41.851901	14.179808	0.001676
 502	4.9849e+01	19.9599	-0.886151	0.004287	42.865264	14.523145	0.001716
 503	4.9949e+01	19.9968	0.825594	0.004297	42.966601	14.557478	0.001720
 504	5.0048e+01	19.9470	2.432374	-0.004033	-40.331856	-13.664803	0.001615
 505	5.0148e+01	19.9182	3.970523	-0.003861	-38.609139	-13.081130	0.001546
 506	5.0248e+01	19.8700	5.508672	-0.003861	-38.609139	-13.081130	0.001546
 507	5.0347e+01	19.8428	7.006449	-0.003760	-37.595776	-12.737794	0.001505
 508	5.0447e+01	19.7978	8.609192	-0.004023	-40.230520	-13.630469	0.001611
 509	5.0546e+01	19.7674	10.111006	-0.003770	-37.697112	-12.772127	0.001509
 510	5.0645e+01	19.7192	11.624932	-0.003800	-38.001121	-12.875128	0.001522
 511	5.0745e+01	19.6743	13.114635	-0.003739	-37.393103	-12.669126	0.001497
 512	5.0844e+01	19.6374	14.580116	-0.003679	-36.785085	-12.463124	0.001473
 513	5.0944e+01	19.5973	16.098079	-0.003810	-38.102457	-12.909462	0.001526
 514	5.1044e+01	19.5524	17.507039	-0.003537	-35.366376	-11.982453	0.001416
 515	5.1143e+01	19.5107	19.008854	-0.003770	-37.697112	-12.772127	0.001509
 516	5.1242e+01	19.4786	20.393591	-0.003476	-34.758359	-11.776451	0.001392
 517	5.1342e+01	19.4417	21.830812	-0.003608	-36.075731	-12.222788	0.001444
 518	5.1441e+01	19.4032	23.268032	-0.003608	-36.075731	-12.222788	0.001444
 519	5.1541e+01	19.3551	24.656807	-0.003486	-34.859695	-11.810784	0.001396
 520	5.1641e+01	19.3182	26.017321	-0.003415	-34.150341	-11.570449	0.001367
 521	5.1740e+01	19.2749	27.410133	-0.003496	-34.961031	-11.845118	0.001400
 522	5.1840e+01	19.2476	28.722202	-0.003293	-32.934305	-11.158445	0.001319
 523	5.1939e+01	19.1995	30.086754	-0.003425	-34.251677	-11.604782	0.001371
 524	5.2038e+01	19.1642	31.431120	-0.003374	-33.744995	-11.433114	0.001351
 525	5.2138e+01	19.1225	32.775486	-0.003374	-33.744995	-11.433114	0.001351
 526	5.2237e+01	19.0904	34.091593	-0.003304	-33.035641	-11.192778	0.001323
 527	5.2337e+01	19.0374	35.367328	-0.003202	-32.022278	-10.849441	0.001282
 528	5.2437e+01	18.9957	36.683434	-0.003304	-33.035641	-11.192778	0.001323
 529	5.2536e+01	18.9620	37.938983	-0.003152	-31.515596	-10.677773	0.001262
 530	5.2636e+01	18.9187	39.194532	-0.003152	-31.515596	-10.677773	0.001262
 531	5.2735e+01	18.8818	40.442007	-0.003131	-31.312924	-10.609106	0.001254
 532	5.2834e+01	18.8385	41.677371	-0.003101	-31.008915	-10.506105	0.001242
 533	5.2934e+01	18.8032	42.831992	-0.002898	-28.982188	-9.819431	0.001160
 534	5.3033e+01	18.7727	44.075429	-0.003121	-31.211587	-10.574772	0.001250
 535	5.3133e+01	18.7262	45.242162	-0.002929	-29.286197	-9.922432	0.001173
 536	5.3233e+01	18.6781	46.396782	-0.002898	-28.982188	-9.819431	0.001160
 537	5.3332e+01	18.6300	47.523143	-0.002827	-28.272834	-9.579095	0.001132
 538	5.3431e+01	18.6011	48.653541	-0.002837	-28.374170	-9.613429	0.001136
 539	5.3531e+01	18.5610	49.783939	-0.002837	-28.374170	-9.613429	0.001136
 540	5.3630e+01	18.5193	50.894152	-0.002787	-27.867489	-9.441761	0.001116
 541	5.3730e+01	18.4808	52.036661	-0.002868	-28.678179	-9.716430	0.001148
 542	5.3830e+01	18.4439	53.082279	-0.002625	-26.246107	-8.892422	0.001051
 543	5.3929e+01	18.3973	54.196529	-0.002797	-27.968825	-9.476094	0.001120
 544	5.4029e+01	18.3653	55.254258	-0.002655	-26.550116	-8.995423	0.001063
 545	5.4128e+01	18.3268	56.295839	-0.002614	-26.144771	-8.858088	0.001047
 546	5.4227e+01	18.2706	57.321272	-0.002574	-25.739426	-8.720754	0.001031
 547	5.4327e+01	18.2498	58.338630	-0.002554	-25.536753	-8.652086	0.001022
 548	5.4426e+01	18.1984	59.408471	-0.002685	-26.854125	-9.098424	0.001075
 549	5.4526e+01	18.1647	60.373346	-0.002422	-24.219381	-8.205748	0.000970
 550	5.4626e+01	18.1182	61.382630	-0.002533	-25.334081	-8.583419	0.001014
 551	5.4725e+01	18.0797	62.387877	-0.002523	-25.232744	-8.549085	0.001010
 552	5.4825e+01	18.0364	63.332567	-0.002371	-23.712699	-8.034080	0.000949
 553	5.4924e+01	18.0091	64.357999	-0.002574	-25.739426	-8.720754	0.001031
 554	5.5023e+01	17.9658	65.326912	-0.002432	-24.320717	-8.240082	0.000974
 555	5.5123e+01	17.9161	66.271602	-0.002371	-23.712699	-8.034080	0.000949
 556	5.5222e+01	17.8888	67.240514	-0.002432	-24.320717	-8.240082	0.000974
 557	5.5322e+01	17.8535	68.181167	-0.002361	-23.611363	-7.999746	0.000945
 558	5.5422e+01	17.8070	69.142005	-0.002412	-24.118045	-8.171415	0.000966
 559	5.5521e+01	17.7605	70.054398	-0.002290	-22.902009	-7.759411	0.000917
 560	5.5620e+01	17.7155	71.023310	-0.002432	-24.320717	-8.240082	0.000974
 561	5.5720e+01	17.6899	71.947815	-0.002321	-23.206018	-7.862412	0.000929
 562	5.5819e+01	17.6514	72.835984	-0.002229	-22.293991	-7.553409	0.000893
 563	5.5919e+01	17.6016	73.752414	-0.002300	-23.003345	-7.793744	0.000921
 564	5.6019e+01	17.5663	74.620398	-0.002179	-21.787309	-7.381740	0.000872
 565	5.6118e+01	17.5278	75.512605	-0.002240	-22.395327	-7.587742	0.000897
 566	5.6218e+01	17.4910	76.384627	-0.002189	-21.888646	-7.416074	0.000876
 567	5.6317e+01	17.4348	77.244537	-0.002158	-21.584637	-7.313073	0.000864
 568	5.6416e+01	17.4011	78.072149	-0.002077	-20.773946	-7.038403	0.000832
 569	5.6516e+01	17.3610	78.940134	-0.002179	-21.787309	-7.381740	0.000872
 570	5.6615e+01	17.3209	79.743524	-0.002017	-20.165928	-6.832401	0.000807
 571	5.6715e+01	17.2856	80.546914	-0.002017	-20.165928	-6.832401	0.000807
 572	5.6815e+01	17.2439	81.350304	-0.002017	-20.165928	-6.832401	0.000807
 573	5.6914e+01	17.1990	82.149657	-0.002006	-20.064592	-6.798068	0.000803
 574	5.7014e+01	17.1669	82.957084	-0.002027	-20.267264	-6.866735	0.000811
 575	5.7113e+01	17.1284	83.724140	-0.001925	-19.253901	-6.523398	0.000771
 576	5.7212e+01	17.0835	84.531567	-0.002027	-20.267264	-6.866735	0.000811
 577	5.7312e+01	17.0434	85.302660	-0.001936	-19.355238	-6.557732	0.000775
 578	5.7411e+01	17.0097	86.021270	-0.001804	-18.037865	-6.111394	0.000722
 579	5.7511e+01	16.9728	86.808511	-0.001976	-19.760583	-6.695067	0.000791
 580	5.7611e+01	16.9295	87.535196	-0.001824	-18.240538	-6.180062	0.000730
 581	5.7710e+01	16.8813	88.278029	-0.001865	-18.645883	-6.317396	0.000747
 582	5.7809e+01	16.8428	88.992602	-0.001794	-17.936529	-6.077061	0.000718
 583	5.7909e+01	16.8075	89.715249	-0.001814	-18.139202	-6.145728	0.000726
 584	5.8008e+01	16.7739	90.409636	-0.001743	-17.429847	-5.905392	0.000698
 585	5.8108e+01	16.7209	91.140358	-0.001834	-18.341874	-6.214395	0.000734
 586	5.8208e+01	16.6920	91.818597	-0.001702	-17.024502	-5.768057	0.000682
 587	5.8307e+01	16.6439	92.517021	-0.001753	-17.531184	-5.939726	0.000702
 588	5.8407e+01	16.6118	93.187186	-0.001682	-16.821830	-5.699390	0.000674
 589	5.8506e+01	16.5669	93.869462	-0.001713	-17.125838	-5.802391	0.000686
 590	5.8605e+01	16.5252	94.503292	-0.001591	-15.909803	-5.390387	0.000637
 591	5.8705e+01	16.4883	95.181531	-0.001702	-17.024502	-5.768057	0.000682
 592	5.8804e+01	16.4482	95.831510	-0.001632	-16.315148	-5.527722	0.000653
 593	5.8904e+01	16.4097	96.505711	-0.001692	-16.923166	-5.733724	0.000678
 594	5.9004e+01	16.3632	97.107244	-0.001510	-15.099112	-5.115718	0.000605
 595	5.9103e+01	16.3231	97.757223	-0.001632	-16.315148	-5.527722	0.000653
 596	5.9203e+01	16.2942	98.362794	-0.001520	-15.200448	-5.150051	0.000609
 597	5.9302e+01	16.2396	99.012773	-0.001632	-16.315148	-5.527722	0.000653
 598	5.9401e+01	16.2124	99.573934	-0.001409	-14.085749	-4.772381	0.000564
 599	5.9501e+01	16.1659	100.215839	-0.001611	-16.112475	-5.459054	0.000645
 600	5.9600e+01	16.1241	100.797187	-0.001459	-14.592430	-4.944049	0.000584
 601	5.9700e+01	16.0905	101.443128	-0.001621	-16.213812	-5.493388	0.000649
 602	5.9800e+01	16.0503	101.996216	-0.001388	-13.883076	-4.703714	0.000556
 603	5.9899e+01	16.0118	102.617935	-0.001561	-15.605794	-5.287386	0.000625
 604	5.9998e+01	15.9685	103.150837	-0.001338	-13.376395	-4.532045	0.000536
 605	6.0098e+01	15.9332	103.740258	-0.001480	-14.795103	-5.012717	0.000592
 606	6.0197e+01	15.8883	104.265086	-0.001317	-13.173722	-4.463378	0.000527
 607	6.0297e+01	15.8514	104.850471	-0.001469	-14.693767	-4.978383	0.000588
 608	6.0397e+01	15.8145	105.391447	-0.001358	-13.579067	-4.600713	0.000544
 609	6.0496e+01	15.7776	105.944535	-0.001388	-13.883076	-4.703714	0.000556
 610	6.0596e+01	15.7311	106.457251	-0.001287	-12.869713	-4.360377	0.000515
 611	6.0695e+01	15.6830	106.986116	-0.001328	-13.275058	-4.497711	0.000532
 612	6.0794e+01	15.6557	107.519018	-0.001338	-13.376395	-4.532045	0.000536
 613	6.0894e+01	15.6124	108.007511	-0.001226	-12.261695	-4.154375	0.000491
 614	6.0993e+01	15.5787	108.479856	-0.001186	-11.856350	-4.017040	0.000475
 615	6.1093e+01	15.5354	109.024869	-0.001368	-13.680404	-4.635046	0.000548
 616	6.1193e+01	15.4985	109.489140	-0.001165	-11.653677	-3.948373	0.000467
 617	6.1292e+01	15.4552	110.013967	-0.001317	-13.173722	-4.463378	0.000527
 618	6.1392e+01	15.4151	110.466127	-0.001135	-11.349668	-3.845372	0.000454
 619	6.1491e+01	15.3766	110.946546	-0.001206	-12.059022	-4.085707	0.000483
 620	6.1590e+01	15.3333	111.431002	-0.001216	-12.160359	-4.120041	0.000487
 621	6.1690e+01	15.2948	111.899310	-0.001176	-11.755013	-3.982706	0.000471
 622	6.1789e+01	15.2530	112.319172	-0.001054	-10.538978	-3.570702	0.000422
 623	6.1889e+01	15.2178	112.787480	-0.001176	-11.755013	-3.982706	0.000471
 624	6.1989e+01	15.1760	113.247713	-0.001155	-11.552341	-3.914039	0.000463
 625	6.2088e+01	15.1343	113.679687	-0.001084	-10.842986	-3.673703	0.000434
 626	6.2188e+01	15.0926	114.115697	-0.001094	-10.944323	-3.708037	0.000438
 627	6.2287e+01	15.0573	114.539597	-0.001064	-10.640314	-3.605036	0.000426
 628	6.2386e+01	15.0156	114.975607	-0.001094	-10.944323	-3.708037	0.000438
 629	6.2486e+01	14.9707	115.399507	-0.001064	-10.640314	-3.605036	0.000426
 630	6.2586e+01	14.9354	115.827443	-0.001074	-10.741650	-3.639370	0.000430
 631	6.2685e+01	14.9001	116.182711	-0.000892	-8.917596	-3.021363	0.000357
 632	6.2785e+01	14.8520	116.602573	-0.001054	-10.538978	-3.570702	0.000422
 633	6.2884e+01	14.8055	117.038584	-0.001094	-10.944323	-3.708037	0.000438
 634	6.2983e+01	14.7686	117.397889	-0.000902	-9.018933	-3.055697	0.000361
 635	6.3083e+01	14.7285	117.785454	-0.000973	-9.728287	-3.296033	0.000390
 636	6.3182e+01	14.6964	118.193204	-0.001023	-10.234969	-3.467701	0.000410
 637	6.3282e+01	14.6547	118.560584	-0.000922	-9.221605	-3.124364	0.000369
 638	6.3382e+01	14.6226	118.936037	-0.000942	-9.424278	-3.193032	0.000377
 639	6.3481e+01	14.5712	119.299380	-0.000912	-9.120269	-3.090031	0.000365
 640	6.3581e+01	14.5392	119.662722	-0.000912	-9.120269	-3.090031	0.000365
 641	6.3680e+01	14.5023	120.030101	-0.000922	-9.221605	-3.124364	0.000369
 642	6.3779e+01	14.4509	120.336924	-0.000770	-7.701560	-2.609359	0.000308
 643	6.3879e+01	14.4188	120.728526	-0.000983	-9.829623	-3.330367	0.000394
 644	6.3978e+01	14.3771	121.087831	-0.000902	-9.018933	-3.055697	0.000361
 645	6.4078e+01	14.3515	121.422913	-0.000841	-8.410915	-2.849695	0.000337
 646	6.4177e+01	14.2921	121.753958	-0.000831	-8.309578	-2.815361	0.000333
 647	6.4277e+01	14.2600	122.125375	-0.000932	-9.322942	-3.158698	0.000373
 648	6.4376e+01	14.2135	122.424123	-0.000750	-7.498888	-2.540692	0.000300
 649	6.4476e+01	14.1766	122.779391	-0.000892	-8.917596	-3.021363	0.000357
 650	6.4576e+01	14.1349	123.053916	-0.000689	-6.890870	-2.334690	0.000276
 651	6.4675e+01	14.0996	123.409184	-0.000892	-8.917596	-3.021363	0.000357
 652	6.4775e+01	14.0515	123.691783	-0.000709	-7.093543	-2.403357	0.000284
 653	6.4874e+01	14.0210	124.083385	-0.000983	-9.829623	-3.330367	0.000394
 654	6.4974e+01	13.9809	124.321576	-0.000598	-5.978843	-2.025687	0.000239
 655	6.5073e+01	13.9424	124.620325	-0.000750	-7.498888	-2.540692	0.000300
 656	6.5172e+01	13.8943	124.906961	-0.000719	-7.194879	-2.437691	0.000288
 657	6.5272e+01	13.8654	125.246081	-0.000851	-8.512251	-2.884029	0.000341
 658	6.5371e+01	13.8221	125.516569	-0.000679	-6.789534	-2.300356	0.000272
 659	6.5471e+01	13.7739	125.778982	-0.000659	-6.586861	-2.231689	0.000264
 660	6.5570e+01	13.7386	126.053508	-0.000689	-6.890870	-2.334690	0.000276
 661	6.5670e+01	13.7001	126.356293	-0.000760	-7.600224	-2.575026	0.000304
 662	6.5769e+01	13.6633	126.651004	-0.000740	-7.397552	-2.506358	0.000296
 663	6.5869e+01	13.6247	126.909380	-0.000649	-6.485525	-2.197355	0.000260
 664	6.5969e+01	13.5782	127.155646	-0.000618	-6.181516	-2.094354	0.000248
 665	6.6068e+01	13.5365	127.450357	-0.000740	-7.397552	-2.506358	0.000296
 666	6.6168e+01	13.4996	127.660288	-0.000527	-5.269489	-1.785351	0.000211
 667	6.6267e+01	13.4627	127.922702	-0.000659	-6.586861	-2.231689	0.000264
 668	6.6367e+01	13.4130	128.193190	-0.000679	-6.789534	-2.300356	0.000272
 669	6.6466e+01	13.3809	128.431381	-0.000598	-5.978843	-2.025687	0.000239
 670	6.6566e+01	13.3472	128.677646	-0.000618	-6.181516	-2.094354	0.000248
 671	6.6665e+01	13.2943	128.911800	-0.000588	-5.877507	-1.991353	0.000235
 672	6.6764e+01	13.2686	129.174214	-0.000659	-6.586861	-2.231689	0.000264
 673	6.6864e+01	13.2221	129.408368	-0.000588	-5.877507	-1.991353	0.000235
 674	6.6963e+01	13.1788	129.634447	-0.000567	-5.674834	-1.922686	0.000227
 675	6.7063e+01	13.1306	129.852452	-0.000547	-5.472161	-1.854018	0.000219
 676	6.7162e+01	13.1034	130.086606	-0.000588	-5.877507	-1.991353	0.000235
 677	6.7262e+01	13.0585	130.280389	-0.000486	-4.864143	-1.648016	0.000195
 678	6.7362e+01	13.0183	130.498394	-0.000547	-5.472161	-1.854018	0.000219
 679	6.7461e+01	12.9798	130.692177	-0.000486	-4.864143	-1.648016	0.000195
 680	6.7561e+01	12.9397	130.922293	-0.000578	-5.776170	-1.957020	0.000231
 681	6.7660e+01	12.9061	131.116076	-0.000486	-4.864143	-1.648016	0.000195
 682	6.7760e+01	12.8611	131.317933	-0.000507	-5.066816	-1.716684	0.000203
 683	6.7859e+01	12.8194	131.515752	-0.000497	-4.965480	-1.682350	0.000199
 684	6.7959e+01	12.7825	131.721646	-0.000517	-5.168152	-1.751017	0.000207
 685	6.8058e+01	12.7537	131.911392	-0.000476	-4.762807	-1.613683	0.000191
 686	6.8157e+01	12.7023	132.113248	-0.000507	-5.066816	-1.716684	0.000203
 687	6.8257e+01	12.6590	132.282808	-0.000426	-4.256126	-1.442014	0.000170
 688	6.8356e+01	12.6269	132.468516	-0.000466	-4.661471	-1.579349	0.000187
 689	6.8456e+01	12.5900	132.634039	-0.000415	-4.154789	-1.407681	0.000166
 690	6.8555e+01	12.5531	132.848007	-0.000537	-5.370825	-1.819685	0.000215
 691	6.8655e+01	12.4970	132.985270	-0.000345	-3.445435	-1.167345	0.000138
 692	6.8754e+01	12.4601	133.219424	-0.000588	-5.877507	-1.991353	0.000235
 693	6.8854e+01	12.4296	133.340538	-0.000304	-3.040090	-1.030010	0.000122
 694	6.8954e+01	12.3895	133.538357	-0.000497	-4.965480	-1.682350	0.000199
 695	6.9053e+01	12.3462	133.667546	-0.000324	-3.242762	-1.098678	0.000130
 696	6.9153e+01	12.3077	133.824994	-0.000395	-3.952117	-1.339013	0.000158
 697	6.9252e+01	12.2644	133.986479	-0.000405	-4.053453	-1.373347	0.000162
 698	6.9352e+01	12.2194	134.152002	-0.000415	-4.154789	-1.407681	0.000166
 699	6.9451e+01	12.1874	134.313487	-0.000405	-4.053453	-1.373347	0.000162
 700	6.9550e+01	12.1553	134.507270	-0.000486	-4.864143	-1.648016	0.000195
 701	6.9650e+01	12.1152	134.588013	-0.000203	-2.026726	-0.686674	0.000081
 702	6.9749e+01	12.0638	134.753535	-0.000415	-4.154789	-1.407681	0.000166
 703	6.9849e+01	12.0205	134.886761	-0.000334	-3.344099	-1.133011	0.000134
 704	6.9948e+01	11.9820	134.995763	-0.000274	-2.736081	-0.927009	0.000110
 705	7.0048e+01	11.9419	135.149175	-0.000385	-3.850780	-1.304680	0.000154
 706	7.0147e+01	11.9082	135.274326	-0.000314	-3.141426	-1.064344	0.000126
 707	7.0247e+01	11.8665	135.395440	-0.000304	-3.040090	-1.030010	0.000122
 708	7.0347e+01	11.8296	135.520591	-0.000314	-3.141426	-1.064344	0.000126
 709	7.0446e+01	11.7911	135.657854	-0.000345	-3.445435	-1.167345	0.000138
 710	7.0546e+01	11.7574	135.799153	-0.000355	-3.546771	-1.201679	0.000142
 711	7.0645e+01	11.7157	135.900082	-0.000253	-2.533408	-0.858342	0.000101
 712	7.0745e+01	11.6756	136.017159	-0.000294	-2.938753	-0.995677	0.000118
 713	7.0844e+01	11.6371	136.134236	-0.000294	-2.938753	-0.995677	0.000118
 714	7.0944e+01	11.5906	136.223053	-0.000223	-2.229399	-0.755341	0.000089
 715	7.1043e+01	11.5553	136.332055	-0.000274	-2.736081	-0.927009	0.000110
 716	7.1142e+01	11.5136	136.457207	-0.000314	-3.141426	-1.064344	0.000126
 717	7.1242e+01	11.4767	136.550061	-0.000233	-2.330735	-0.789675	0.000093
 718	7.1341e+01	11.4334	136.630803	-0.000203	-2.026726	-0.686674	0.000081
 719	7.1441e+01	11.3788	136.735769	-0.000263	-2.634744	-0.892676	0.000105
 720	7.1540e+01	11.3516	136.824586	-0.000223	-2.229399	-0.755341	0.000089
 721	7.1640e+01	11.3130	136.937626	-0.000284	-2.837417	-0.961343	0.000114
 722	7.1740e+01	11.2633	137.018368	-0.000203	-2.026726	-0.686674	0.000081
 723	7.1839e+01	11.2344	137.139482	-0.000304	-3.040090	-1.030010	0.000122
 724	7.1939e+01	11.1943	137.196002	-0.000142	-1.418709	-0.480671	0.000057
 725	7.2038e+01	11.1510	137.280782	-0.000213	-2.128063	-0.721007	0.000085
 726	7.2138e+01	11.1157	137.337302	-0.000142	-1.418709	-0.480671	0.000057
 727	7.2237e+01	11.0724	137.426119	-0.000223	-2.229399	-0.755341	0.000089
 728	7.2337e+01	11.0307	137.510899	-0.000213	-2.128063	-0.721007	0.000085
 729	7.2436e+01	10.9922	137.555307	-0.000111	-1.114700	-0.377670	0.000045
 730	7.2535e+01	10.9473	137.652199	-0.000243	-2.432072	-0.824008	0.000097
 731	7.2635e+01	10.9184	137.680459	-0.000071	-0.709354	-0.240336	0.000028
 732	7.2734e+01	10.8831	137.781387	-0.000253	-2.533408	-0.858342	0.000101
 733	7.2834e+01	10.8334	137.829833	-0.000122	-1.216036	-0.412004	0.000049
 734	7.2933e+01	10.7869	137.906538	-0.000193	-1.925390	-0.652340	0.000077
 735	7.3033e+01	10.7532	137.938835	-0.000081	-0.810691	-0.274669	0.000032
 736	7.3132e+01	10.7163	137.991318	-0.000132	-1.317372	-0.446338	0.000053
 737	7.3232e+01	10.6698	138.023615	-0.000081	-0.810691	-0.274669	0.000032
 738	7.3332e+01	10.6377	138.080135	-0.000142	-1.418709	-0.480671	0.000057
 739	7.3431e+01	10.5895	138.164915	-0.000213	-2.128063	-0.721007	0.000085
 740	7.3531e+01	10.5591	138.185101	-0.000051	-0.506682	-0.171668	0.000020
 741	7.3630e+01	10.5174	138.229509	-0.000111	-1.114700	-0.377670	0.000045
 742	7.3730e+01	10.4853	138.306215	-0.000193	-1.925390	-0.652340	0.000077
 743	7.3829e+01	10.4275	138.318326	-0.000030	-0.304009	-0.103001	0.000012
 744	7.3928e+01	10.3954	138.338512	-0.000051	-0.506682	-0.171668	0.000020
 745	7.4028e+01	10.3489	138.403106	-0.000162	-1.621381	-0.549339	0.000065
 746	7.4127e+01	10.3152	138.415217	-0.000030	-0.304009	-0.103001	0.000012
 747	7.4227e+01	10.2639	138.459626	-0.000111	-1.114700	-0.377670	0.000045
 748	7.4326e+01	10.2334	138.491923	-0.000081	-0.810691	-0.274669	0.000032
 749	7.4426e+01	10.1869	138.516146	-0.000061	-0.608018	-0.206002	0.000024
 750	7.4525e+01	10.1468	138.528257	-0.000030	-0.304009	-0.103001	0.000012
 751	7.4625e+01	10.1147	138.548443	-0.000051	-0.506682	-0.171668	0.000020
 752	7.4725e+01	10.0698	138.576703	-0.000071	-0.709354	-0.240336	0.000028
 753	7.4824e+01	10.0345	138.609000	-0.000081	-0.810691	-0.274669	0.000032
 754	7.4924e+01	9.9896	138.625148	-0.000041	-0.405345	-0.137335	0.000016
 755	7.5023e+01	9.9511	138.657445	-0.000081	-0.810691	-0.274669	0.000032
 756	7.5123e+01	9.8981	138.661483	-0.000010	-0.101336	-0.034334	0.000004
 757	7.5222e+01	9.8741	138.677631	-0.000041	-0.405345	-0.137335	0.000016
 758	7.5322e+01	9.8372	138.661483	0.000041	0.405345	0.137335	-0.000016
 759	7.5421e+01	9.7906	138.701854	-0.000101	-1.013363	-0.343337	0.000041
 760	7.5520e+01	9.7569	138.697817	0.000010	0.101336	0.034334	-0.000004
 761	7.5620e+01	9.7249	138.673594	0.000061	0.608018	0.206002	-0.000024
 762	7.5719e+01	9.6767	138.677631	-0.000010	-0.101336	-0.034334	0.000004
 763	7.5819e+01	9.6350	138.709928	-0.000081	-0.810691	-0.274669	0.000032
 764	7.5918e+01	9.5933	138.689743	0.000051	0.506682	0.171668	-0.000020
 765	7.6018e+01	9.5564	138.705891	-0.000041	-0.405345	-0.137335	0.000016
 766	7.6118e+01	9.5195	138.689743	0.000041	0.405345	0.137335	-0.000016
 767	7.6217e+01	9.4778	138.669557	0.000051	0.506682	0.171668	-0.000020
 768	7.6317e+01	9.4329	138.697817	-0.000071	-0.709354	-0.240336	0.000028
 769	7.6416e+01	9.3928	138.709928	-0.000030	-0.304009	-0.103001	0.000012
 770	7.6516e+01	9.3575	138.645334	0.000162	1.621381	0.549339	-0.000065
 771	7.6615e+01	9.3222	138.673594	-0.000071	-0.709354	-0.240336	0.000028
 772	7.6715e+01	9.2805	138.649371	0.000061	0.608018	0.206002	-0.000024
 773	7.6814e+01	9.2436	138.645334	0.000010	0.101336	0.034334	-0.000004
 774	7.6913e+01	9.2131	138.588814	0.000142	1.418709	0.480671	-0.000057
 775	7.7013e+01	9.1538	138.604963	-0.000041	-0.405345	-0.137335	0.000016
 776	7.7112e+01	9.1088	138.584777	0.000051	0.506682	0.171668	-0.000020
 777	7.7212e+01	9.0832	138.552480	0.000081	0.810691	0.274669	-0.000032
 778	7.7311e+01	9.0399	138.532294	0.000051	0.506682	0.171668	-0.000020
 779	7.7411e+01	9.0078	138.516146	0.000041	0.405345	0.137335	-0.000016
 780	7.7510e+01	8.9548	138.524220	-0.000020	-0.202673	-0.068667	0.000008
 781	7.7610e+01	8.9179	138.467700	0.000142	1.418709	0.480671	-0.000057
 782	7.7710e+01	8.8794	138.427329	0.000101	1.013363	0.343337	-0.000041
 783	7.7809e+01	8.8377	138.358697	0.000172	1.722717	0.583672	-0.000069
 784	7.7909e+01	8.8008	138.370809	-0.000030	-0.304009	-0.103001	0.000012
 785	7.8008e+01	8.7623	138.322363	0.000122	1.216036	0.412004	-0.000049
 786	7.8108e+01	8.7190	138.290066	0.000081	0.810691	0.274669	-0.000032
 787	7.8207e+01	8.6821	138.269880	0.000051	0.506682	0.171668	-0.000020
 788	7.8306e+01	8.6388	138.237583	0.000081	0.810691	0.274669	-0.000032
 789	7.8406e+01	8.6051	138.225472	0.000030	0.304009	0.103001	-0.000012
 790	7.8505e+01	8.5570	138.140692	0.000213	2.128063	0.721007	-0.000085
 791	7.8605e+01	8.5185	138.136655	0.000010	0.101336	0.034334	-0.000004
 792	7.8704e+01	8.4816	138.096284	0.000101	1.013363	0.343337	-0.000041
 793	7.8804e+01	8.4302	138.072061	0.000061	0.608018	0.206002	-0.000024
 794	7.8903e+01	8.4078	138.003430	0.000172	1.722717	0.583672	-0.000069
 795	7.9003e+01	8.3581	137.971132	0.000081	0.810691	0.274669	-0.000032
 796	7.9103e+01	8.3147	137.946910	0.000061	0.608018	0.206002	-0.000024
 797	7.9202e+01	8.2827	137.841944	0.000263	2.634744	0.892676	-0.000105
 798	7.9302e+01	8.2345	137.825796	0.000041	0.405345	0.137335	-0.000016
 799	7.9401e+01	8.2008	137.805610	0.000051	0.506682	0.171668	-0.000020
 800	7.9501e+01	8.1607	137.769276	0.000091	0.912027	0.309003	-0.000037
 801	7.9600e+01	8.1238	137.696607	0.000182	1.824054	0.618006	-0.000073
 802	7.9700e+01	8.0725	137.652199	0.000111	1.114700	0.377670	-0.000045
 803	7.9799e+01	8.0452	137.587605	0.000162	1.621381	0.549339	-0.000065
 804	7.9898e+01	8.0019	137.559345	0.000071	0.709354	0.240336	-0.000028
 805	7.9998e+01	7.9586	137.494750	0.000162	1.621381	0.549339	-0.000065
 806	8.0097e+01	7.9105	137.458416	0.000091	0.912027	0.309003	-0.000037
 807	8.0197e+01	7.8832	137.369599	0.000223	2.229399	0.755341	-0.000089
 808	8.0296e+01	7.8383	137.337302	0.000081	0.810691	0.274669	-0.000032
 809	8.0396e+01	7.8014	137.284819	0.000132	1.317372	0.446338	-0.000053
 810	8.0496e+01	7.7645	137.232337	0.000132	1.317372	0.446338	-0.000053
 811	8.0595e+01	7.7228	137.151594	0.000203	2.026726	0.686674	-0.000081
 812	8.0695e+01	7.6795	137.119297	0.000081	0.810691	0.274669	-0.000032
 813	8.0794e+01	7.6426	137.058740	0.000152	1.520045	0.515005	-0.000061
 814	8.0894e+01	7.5993	136.994146	0.000162	1.621381	0.549339	-0.000065
 815	8.0993e+01	7.5607	136.957811	0.000091	0.912027	0.309003	-0.000037
 816	8.1093e+01	7.5303	136.905329	0.000132	1.317372	0.446338	-0.000053
 817	8.1192e+01	7.4886	136.868994	0.000091	0.912027	0.309003	-0.000037
 818	8.1291e+01	7.4485	136.768066	0.000253	2.533408	0.858342	-0.000101
 819	8.1391e+01	7.4035	136.707509	0.000152	1.520045	0.515005	-0.000061
 820	8.1490e+01	7.3731	136.642915	0.000162	1.621381	0.549339	-0.000065
 821	8.1590e+01	7.3313	136.578321	0.000162	1.621381	0.549339	-0.000065
 822	8.1689e+01	7.2816	136.521801	0.000142	1.418709	0.480671	-0.000057
 823	8.1789e+01	7.2431	136.465281	0.000142	1.418709	0.480671	-0.000057
 824	8.1888e+01	7.2126	136.364352	0.000253	2.533408	0.858342	-0.000101
 825	8.1988e+01	7.1661	136.323981	0.000101	1.013363	0.343337	-0.000041
 826	8.2088e+01	7.1180	136.239201	0.000213	2.128063	0.721007	-0.000085
 827	8.2187e+01	7.0843	136.182681	0.000142	1.418709	0.480671	-0.000057
 828	8.2287e+01	7.0426	136.110013	0.000182	1.824054	0.618006	-0.000073
 829	8.2386e+01	7.0057	136.045419	0.000162	1.621381	0.549339	-0.000065
 830	8.2486e+01	6.9656	135.996973	0.000122	1.216036	0.412004	-0.000049
 831	8.2585e+01	6.9287	135.908156	0.000223	2.229399	0.755341	-0.000089
 832	8.2684e+01	6.8854	135.863748	0.000111	1.114700	0.377670	-0.000045
 833	8.2784e+01	6.8469	135.754745	0.000274	2.736081	0.927009	-0.000110
 834	8.2883e+01	6.8084	135.718411	0.000091	0.912027	0.309003	-0.000037
 835	8.2983e+01	6.7602	135.625557	0.000233	2.330735	0.789675	-0.000093
 836	8.3082e+01	6.7282	135.548851	0.000193	1.925390	0.652340	-0.000077
 837	8.3182e+01	6.6880	135.516554	0.000081	0.810691	0.274669	-0.000032
 838	8.3281e+01	6.6495	135.423700	0.000233	2.330735	0.789675	-0.000093
 839	8.3381e+01	6.6126	135.330846	0.000233	2.330735	0.789675	-0.000093
 840	8.3481e+01	6.5677	135.274326	0.000142	1.418709	0.480671	-0.000057
 841	8.3580e+01	6.5244	135.173397	0.000253	2.533408	0.858342	-0.000101
 842	8.3680e+01	6.4907	135.096692	0.000193	1.925390	0.652340	-0.000077
 843	8.3779e+01	6.4458	135.056320	0.000101	1.013363	0.343337	-0.000041
 844	8.3879e+01	6.4105	134.955392	0.000253	2.533408	0.858342	-0.000101
 845	8.3978e+01	6.3688	134.923095	0.000081	0.810691	0.274669	-0.000032
 846	8.4078e+01	6.3287	134.806018	0.000294	2.938753	0.995677	-0.000118
 847	8.4177e+01	6.2966	134.749498	0.000142	1.418709	0.480671	-0.000057
 848	8.4276e+01	6.2533	134.652607	0.000243	2.432072	0.824008	-0.000097
 849	8.4376e+01	6.2068	134.567827	0.000213	2.128063	0.721007	-0.000085
 850	8.4475e+01	6.1747	134.487084	0.000203	2.026726	0.686674	-0.000081
 851	8.4575e+01	6.1266	134.442676	0.000111	1.114700	0.377670	-0.000045
 852	8.4674e+01	6.0865	134.313487	0.000324	3.242762	1.098678	-0.000130
 853	8.4774e+01	6.0415	134.269079	0.000111	1.114700	0.377670	-0.000045
 854	8.4874e+01	6.0095	134.160076	0.000274	2.736081	0.927009	-0.000110
 855	8.4973e+01	5.9710	134.123742	0.000091	0.912027	0.309003	-0.000037
 856	8.5073e+01	5.9325	134.002628	0.000304	3.040090	1.030010	-0.000122
 857	8.5172e+01	5.8956	133.917848	0.000213	2.128063	0.721007	-0.000085
 858	8.5272e+01	5.8506	133.865365	0.000132	1.317372	0.446338	-0.000053
 859	8.5371e+01	5.8137	133.752326	0.000284	2.837417	0.961343	-0.000114
 860	8.5471e+01	5.7784	133.695806	0.000142	1.418709	0.480671	-0.000057
 861	8.5570e+01	5.7415	133.582766	0.000284	2.837417	0.961343	-0.000114
 862	8.5669e+01	5.6982	133.518172	0.000162	1.621381	0.549339	-0.000065
 863	8.5769e+01	5.6597	133.429355	0.000223	2.229399	0.755341	-0.000089
 864	8.5868e+01	5.6084	133.324389	0.000263	2.634744	0.892676	-0.000105
 865	8.5968e+01	5.5715	133.263832	0.000152	1.520045	0.515005	-0.000061
 866	8.6067e+01	5.5298	133.158867	0.000263	2.634744	0.892676	-0.000105
 867	8.6167e+01	5.4897	133.090235	0.000172	1.722717	0.583672	-0.000069
 868	8.6266e+01	5.4448	132.993344	0.000243	2.432072	0.824008	-0.000097
 869	8.6366e+01	5.4111	132.920676	0.000182	1.824054	0.618006	-0.000073
 870	8.6466e+01	5.3678	132.843970	0.000193	1.925390	0.652340	-0.000077
 871	8.6565e+01	5.3309	132.734967	0.000274	2.736081	0.927009	-0.000110
 872	8.6665e+01	5.2908	132.613853	0.000304	3.040090	1.030010	-0.000122
 873	8.6764e+01	5.2507	132.581556	0.000081	0.810691	0.274669	-0.000032
 874	8.6864e+01	5.2041	132.472554	0.000274	2.736081	0.927009	-0.000110
 875	8.6963e+01	5.1672	132.371625	0.000253	2.533408	0.858342	-0.000101
 876	8.7063e+01	5.1400	132.238400	0.000334	3.344099	1.133011	-0.000134
 877	8.7162e+01	5.0870	132.169768	0.000172	1.722717	0.583672	-0.000069
 878	8.7261e+01	5.0533	132.084989	0.000213	2.128063	0.721007	-0.000085
 879	8.7361e+01	5.0116	132.012320	0.000182	1.824054	0.618006	-0.000073
 880	8.7460e+01	4.9795	131.895243	0.000294	2.938753	0.995677	-0.000118
 881	8.7560e+01	4.9346	131.826612	0.000172	1.722717	0.583672	-0.000069
 882	8.7659e+01	4.8945	131.741832	0.000213	2.128063	0.721007	-0.000085
 883	8.7759e+01	4.8592	131.620718	0.000304	3.040090	1.030010	-0.000122
 884	8.7859e+01	4.8223	131.531901	0.000223	2.229399	0.755341	-0.000089
 885	8.7958e+01	4.7758	131.443084	0.000223	2.229399	0.755341	-0.000089
 886	8.8058e+01	4.7341	131.374453	0.000172	1.722717	0.583672	-0.000069
 887	8.8157e+01	4.6940	131.253339	0.000304	3.040090	1.030010	-0.000122
 888	8.8257e+01	4.6571	131.176633	0.000193	1.925390	0.652340	-0.000077
 889	8.8356e+01	4.6218	131.079742	0.000243	2.432072	0.824008	-0.000097
 890	8.8456e+01	4.5801	130.990925	0.000223	2.229399	0.755341	-0.000089
 891	8.8555e+01	4.5368	130.857699	0.000334	3.344099	1.133011	-0.000134
 892	8.8654e+01	4.4999	130.780994	0.000193	1.925390	0.652340	-0.000077
 893	8.8754e+01	4.4517	130.712362	0.000172	1.722717	0.583672	-0.000069
 894	8.8853e+01	4.4116	130.619508	0.000233	2.330735	0.789675	-0.000093
 895	8.8953e+01	4.3683	130.482246	0.000345	3.445435	1.167345	-0.000138
 896	8.9052e+01	4.3394	130.377280	0.000263	2.634744	0.892676	-0.000105
 897	8.9152e+01	4.2993	130.288463	0.000223	2.229399	0.755341	-0.000089
 898	8.9251e+01	4.2608	130.195609	0.000233	2.330735	0.789675	-0.000093
 899	8.9351e+01	4.2127	130.066421	0.000324	3.242762	1.098678	-0.000130
 900	8.9451e+01	4.1806	129.981641	0.000213	2.128063	0.721007	-0.000085
 901	8.9550e+01	4.1389	129.896861	0.000213	2.128063	0.721007	-0.000085
 902	8.9650e+01	4.0908	129.775747	0.000304	3.040090	1.030010	-0.000122
 903	8.9749e+01	4.0587	129.699041	0.000193	1.925390	0.652340	-0.000077
 904	8.9849e+01	4.0122	129.577927	0.000304	3.040090	1.030010	-0.000122
 905	8.9948e+01	3.9753	129.456813	0.000304	3.040090	1.030010	-0.000122
 906	9.0047e+01	3.9288	129.355885	0.000253	2.533408	0.858342	-0.000101
 907	9.0147e+01	3.9015	129.303402	0.000132	1.317372	0.446338	-0.000053
 908	9.0246e+01	3.8502	129.170177	0.000334	3.344099	1.133011	-0.000134
 909	9.0346e+01	3.8149	129.073285	0.000243	2.432072	0.824008	-0.000097
 910	9.0445e+01	3.7780	128.944097	0.000324	3.242762	1.098678	-0.000130
 911	9.0545e+01	3.7411	128.839131	0.000263	2.634744	0.892676	-0.000105
 912	9.0644e+01	3.7058	128.758389	0.000203	2.026726	0.686674	-0.000081
 913	9.0744e+01	3.6689	128.637275	0.000304	3.040090	1.030010	-0.000122
 914	9.0844e+01	3.6224	128.524235	0.000284	2.837417	0.961343	-0.000114
 915	9.0943e+01	3.5774	128.403121	0.000304	3.040090	1.030010	-0.000122
 916	9.1043e+01	3.5373	128.346601	0.000142	1.418709	0.480671	-0.000057
 917	9.1142e+01	3.5052	128.197227	0.000375	3.749444	1.270346	-0.000150
 918	9.1242e+01	3.4523	128.144744	0.000132	1.317372	0.446338	-0.000053
 919	9.1341e+01	3.4138	128.019593	0.000314	3.141426	1.064344	-0.000126
 920	9.1441e+01	3.3833	127.902516	0.000294	2.938753	0.995677	-0.000118
 921	9.1540e+01	3.3352	127.789476	0.000284	2.837417	0.961343	-0.000114
 922	9.1639e+01	3.3079	127.676436	0.000284	2.837417	0.961343	-0.000114
 923	9.1739e+01	3.2630	127.571471	0.000263	2.634744	0.892676	-0.000105
 924	9.1838e+01	3.2165	127.478617	0.000233	2.330735	0.789675	-0.000093
 925	9.1938e+01	3.1828	127.325205	0.000385	3.850780	1.304680	-0.000154
 926	9.2037e+01	3.1475	127.240426	0.000213	2.128063	0.721007	-0.000085
 927	9.2137e+01	3.1026	127.111237	0.000324	3.242762	1.098678	-0.000130
 928	9.2237e+01	3.0593	127.018383	0.000233	2.330735	0.789675	-0.000093
 929	9.2336e+01	3.0111	126.893232	0.000314	3.141426	1.064344	-0.000126
 930	9.2436e+01	2.9855	126.816526	0.000193	1.925390	0.652340	-0.000077
 931	9.2535e+01	2.9406	126.683301	0.000334	3.344099	1.133011	-0.000134
 932	9.2635e+01	2.9069	126.586410	0.000243	2.432072	0.824008	-0.000097
 933	9.2734e+01	2.8636	126.473370	0.000284	2.837417	0.961343	-0.000114
 934	9.2834e+01	2.8299	126.360330	0.000284	2.837417	0.961343	-0.000114
 935	9.2933e+01	2.7866	126.279587	0.000203	2.026726	0.686674	-0.000081
 936	9.3032e+01	2.7416	126.134250	0.000365	3.648108	1.236012	-0.000146
 937	9.3132e+01	2.7095	126.029285	0.000263	2.634744	0.892676	-0.000105
 938	9.3231e+01	2.6678	125.916245	0.000284	2.837417	0.961343	-0.000114
 939	9.3331e+01	2.6309	125.831465	0.000213	2.128063	0.721007	-0.000085
 940	9.3430e+01	2.5796	125.714388	0.000294	2.938753	0.995677	-0.000118
 941	9.3530e+01	2.5331	125.573089	0.000355	3.546771	1.201679	-0.000142
 942	9.3629e+01	2.4978	125.480234	0.000233	2.330735	0.789675	-0.000093
 943	9.3729e+01	2.4561	125.342972	0.000345	3.445435	1.167345	-0.000138
 944	9.3829e+01	2.4208	125.254155	0.000223	2.229399	0.755341	-0.000089
 945	9.3928e+01	2.3855	125.116892	0.000345	3.445435	1.167345	-0.000138
 946	9.4028e+01	2.3486	125.020001	0.000243	2.432072	0.824008	-0.000097
 947	9.4127e+01	2.3021	124.898887	0.000304	3.040090	1.030010	-0.000122
 948	9.4227e+01	2.2700	124.777773	0.000304	3.040090	1.030010	-0.000122
 949	9.4326e+01	2.2203	124.656659	0.000304	3.040090	1.030010	-0.000122
 950	9.4425e+01	2.1834	124.588027	0.000172	1.722717	0.583672	-0.000069
 951	9.4525e+01	2.1465	124.458839	0.000324	3.242762	1.098678	-0.000130
 952	9.4624e+01	2.1048	124.341762	0.000294	2.938753	0.995677	-0.000118
 953	9.4724e+01	2.0679	124.248908	0.000233	2.330735	0.789675	-0.000093
 954	9.4823e+01	2.0229	124.127794	0.000304	3.040090	1.030010	-0.000122
 955	9.4923e+01	1.9909	123.998606	0.000324	3.242762	1.098678	-0.000130
 956	9.5022e+01	1.9427	123.881529	0.000294	2.938753	0.995677	-0.000118
 957	9.5122e+01	1.9155	123.776563	0.000263	2.634744	0.892676	-0.000105
 958	9.5222e+01	1.8657	123.639301	0.000345	3.445435	1.167345	-0.000138
 959	9.5321e+01	1.8336	123.522224	0.000294	2.938753	0.995677	-0.000118
 960	9.5421e+01	1.7903	123.413221	0.000274	2.736081	0.927009	-0.000110
 961	9.5520e+01	1.7518	123.324404	0.000223	2.229399	0.755341	-0.000089
 962	9.5620e+01	1.7069	123.170993	0.000385	3.850780	1.304680	-0.000154
 963	9.5719e+01	1.6668	123.041804	0.000324	3.242762	1.098678	-0.000130
 964	9.5819e+01	1.6203	122.948950	0.000233	2.330735	0.789675	-0.000093
 965	9.5918e+01	1.5802	122.864170	0.000213	2.128063	0.721007	-0.000085
 966	9.6017e+01	1.5465	122.702685	0.000405	4.053453	1.373347	-0.000162
 967	9.6117e+01	1.5064	122.613868	0.000223	2.229399	0.755341	-0.000089
 968	9.6216e+01	1.4663	122.484680	0.000324	3.242762	1.098678	-0.000130
 969	9.6316e+01	1.4246	122.379714	0.000263	2.634744	0.892676	-0.000105
 970	9.6415e+01	1.3941	122.266674	0.000284	2.837417	0.961343	-0.000114
 971	9.6515e+01	1.3476	122.149597	0.000294	2.938753	0.995677	-0.000118
 972	9.6615e+01	1.3074	122.024446	0.000314	3.141426	1.064344	-0.000126
 973	9.6714e+01	1.2673	121.923518	0.000253	2.533408	0.858342	-0.000101
 974	9.6814e+01	1.2256	121.798367	0.000314	3.141426	1.064344	-0.000126
 975	9.6913e+01	1.1855	121.689364	0.000274	2.736081	0.927009	-0.000110
 976	9.7013e+01	1.1502	121.584398	0.000263	2.634744	0.892676	-0.000105
 977	9.7112e+01	1.0989	121.455210	0.000324	3.242762	1.098678	-0.000130
 978	9.7212e+01	1.0748	121.334096	0.000304	3.040090	1.030010	-0.000122
 979	9.7311e+01	1.0187	121.212982	0.000304	3.040090	1.030010	-0.000122
 980	9.7410e+01	0.9866	121.128202	0.000213	2.128063	0.721007	-0.000085
 981	9.7510e+01	0.9481	121.007088	0.000304	3.040090	1.030010	-0.000122
 982	9.7609e+01	0.9080	120.877900	0.000324	3.242762	1.098678	-0.000130
 983	9.7709e+01	0.8807	120.785046	0.000233	2.330735	0.789675	-0.000093
 984	9.7808e+01	0.8230	120.647783	0.000345	3.445435	1.167345	-0.000138
 985	9.7908e+01	0.7909	120.538780	0.000274	2.736081	0.927009	-0.000110
 986	9.8007e+01	0.7396	120.429778	0.000274	2.736081	0.927009	-0.000110
 987	9.8107e+01	0.7075	120.304626	0.000314	3.141426	1.064344	-0.000126
 988	9.8207e+01	0.6786	120.203698	0.000253	2.533408	0.858342	-0.000101
 989	9.8306e+01	0.6321	120.082584	0.000304	3.040090	1.030010	-0.000122
 990	9.8406e+01	0.6016	119.957433	0.000314	3.141426	1.064344	-0.000126
 991	9.8505e+01	0.5454	119.872653	0.000213	2.128063	0.721007	-0.000085
 992	9.8605e+01	0.5085	119.767687	0.000263	2.634744	0.892676	-0.000105
 993	9.8704e+01	0.4797	119.650610	0.000294	2.938753	0.995677	-0.000118
 994	9.8803e+01	0.4299	119.533533	0.000294	2.938753	0.995677	-0.000118
 995	9.8903e+01	0.3914	119.420494	0.000284	2.837417	0.961343	-0.000114
 996	9.9002e+01	0.3449	119.307454	0.000284	2.837417	0.961343	-0.000114
 997	9.9102e+01	0.3144	119.182303	0.000314	3.141426	1.064344	-0.000126
 998	9.9201e+01	0.2743	119.085411	0.000243	2.432072	0.824008	-0.000097
 999	9.9301e+01	0.2342	118.980446	0.000263	2.634744	0.892676	-0.000105
1000	9.9400e+01	0.1909	118.883555	0.000243	2.432072	0.824008	-0.000097
1001	9.9500e+01	0.1540	118.778589	0.000263	2.634744	0.892676	-0.000105
1002	9.9600e+01	0.1139	118.661512	0.000294	2.938753	0.995677	-0.000118
1003	9.9699e+01	0.0690	118.532324	0.000324	3.242762	1.098678	-0.000130
1004	9.9799e+01	0.0321	118.403135	0.000324	3.242762	1.098678	-0.000130
1005	9.9898e+01	0.0016	118.310281	0.000233	2.330735	0.789675	-0.000093
1006	9.9998e+01	-0.0465	118.213390	0.000243	2.432072	0.824008	-0.000097
1007	1.0010e+02	-0.0738	118.104387	0.000274	2.736081	0.927009	-0.000110
1008	1.0020e+02	-0.1123	117.979236	0.000314	3.141426	1.064344	-0.000126
1009	1.0030e+02	-0.1572	117.894456	0.000213	2.128063	0.721007	-0.000085
1010	1.0040e+02	-0.1973	117.805639	0.000223	2.229399	0.755341	-0.000089
1011	1.0050e+02	-0.2310	117.676451	0.000324	3.242762	1.098678	-0.000130
1012	1.0059e+02	-0.2743	117.551300	0.000314	3.141426	1.064344	-0.000126
1013	1.0069e+02	-0.3160	117.438260	0.000284	2.837417	0.961343	-0.000114
1014	1.0079e+02	-0.3593	117.341369	0.000243	2.432072	0.824008	-0.000097
1015	1.0089e+02	-0.3930	117.196032	0.000365	3.648108	1.236012	-0.000146
1016	1.0099e+02	-0.4331	117.139512	0.000142	1.418709	0.480671	-0.000057
1017	1.0109e+02	-0.4781	117.042621	0.000243	2.432072	0.824008	-0.000097
1018	1.0119e+02	-0.5198	116.864987	0.000446	4.458798	1.510682	-0.000179
1019	1.0129e+02	-0.5454	116.772133	0.000233	2.330735	0.789675	-0.000093
1020	1.0139e+02	-0.5984	116.655056	0.000294	2.938753	0.995677	-0.000118
1021	1.0149e+02	-0.6321	116.566239	0.000223	2.229399	0.755341	-0.000089
1022	1.0159e+02	-0.6770	116.445125	0.000304	3.040090	1.030010	-0.000122
1023	1.0169e+02	-0.7139	116.340159	0.000263	2.634744	0.892676	-0.000105
1024	1.0179e+02	-0.7572	116.194822	0.000365	3.648108	1.236012	-0.000146
1025	1.0189e+02	-0.8021	116.110042	0.000213	2.128063	0.721007	-0.000085
1026	1.0199e+02	-0.8278	116.013151	0.000243	2.432072	0.824008	-0.000097
1027	1.0209e+02	-0.8759	115.936446	0.000193	1.925390	0.652340	-0.000077
1028	1.0219e+02	-0.9192	115.795146	0.000355	3.546771	1.201679	-0.000142
1029	1.0229e+02	-0.9561	115.678069	0.000294	2.938753	0.995677	-0.000118
1030	1.0239e+02	-0.9914	115.577140	0.000253	2.533408	0.858342	-0.000101
1031	1.0248e+02	-1.0395	115.443915	0.000334	3.344099	1.133011	-0.000134
1032	1.0258e+02	-1.0700	115.387395	0.000142	1.418709	0.480671	-0.000057
1033	1.0268e+02	-1.1198	115.238021	0.000375	3.749444	1.270346	-0.000150
1034	1.0278e+02	-1.1550	115.149204	0.000223	2.229399	0.755341	-0.000089
1035	1.0288e+02	-1.2048	115.056350	0.000233	2.330735	0.789675	-0.000093
1036	1.0298e+02	-1.2369	114.943310	0.000284	2.837417	0.961343	-0.000114
1037	1.0308e+02	-1.2770	114.838345	0.000263	2.634744	0.892676	-0.000105
1038	1.0318e+02	-1.3107	114.721268	0.000294	2.938753	0.995677	-0.000118
1039	1.0328e+02	-1.3588	114.616302	0.000263	2.634744	0.892676	-0.000105
1040	1.0338e+02	-1.3877	114.519411	0.000243	2.432072	0.824008	-0.000097
1041	1.0348e+02	-1.4358	114.398297	0.000304	3.040090	1.030010	-0.000122
1042	1.0358e+02	-1.4807	114.297368	0.000253	2.533408	0.858342	-0.000101
1043	1.0368e+02	-1.5160	114.188366	0.000274	2.736081	0.927009	-0.000110
1044	1.0378e+02	-1.5545	114.075326	0.000284	2.837417	0.961343	-0.000114
1045	1.0388e+02	-1.5882	114.006695	0.000172	1.722717	0.583672	-0.000069
1046	1.0398e+02	-1.6411	113.885581	0.000304	3.040090	1.030010	-0.000122
1047	1.0408e+02	-1.6716	113.792726	0.000233	2.330735	0.789675	-0.000093
1048	1.0418e+02	-1.7101	113.663538	0.000324	3.242762	1.098678	-0.000130
1049	1.0428e+02	-1.7486	113.578758	0.000213	2.128063	0.721007	-0.000085
1050	1.0438e+02	-1.7919	113.453607	0.000314	3.141426	1.064344	-0.000126
1051	1.0447e+02	-1.8368	113.312307	0.000355	3.546771	1.201679	-0.000142
1052	1.0457e+02	-1.8721	113.199268	0.000284	2.837417	0.961343	-0.000114
1053	1.0467e+02	-1.9155	113.090265	0.000274	2.736081	0.927009	-0.000110
1054	1.0477e+02	-1.9540	113.001448	0.000223	2.229399	0.755341	-0.000089
1055	1.0487e+02	-1.9925	112.928779	0.000182	1.824054	0.618006	-0.000073
1056	1.0497e+02	-2.0342	112.783443	0.000365	3.648108	1.236012	-0.000146
1057	1.0507e+02	-2.0743	112.714811	0.000172	1.722717	0.583672	-0.000069
1058	1.0517e+02	-2.1048	112.613883	0.000253	2.533408	0.858342	-0.000101
1059	1.0527e+02	-2.1465	112.484695	0.000324	3.242762	1.098678	-0.000130
1060	1.0537e+02	-2.1978	112.359543	0.000314	3.141426	1.064344	-0.000126
1061	1.0547e+02	-2.2331	112.311098	0.000122	1.216036	0.412004	-0.000049
1062	1.0557e+02	-2.2668	112.169798	0.000355	3.546771	1.201679	-0.000142
1063	1.0567e+02	-2.3181	112.040610	0.000324	3.242762	1.098678	-0.000130
1064	1.0577e+02	-2.3518	111.943718	0.000243	2.432072	0.824008	-0.000097
1065	1.0587e+02	-2.3871	111.867013	0.000193	1.925390	0.652340	-0.000077
1066	1.0597e+02	-2.4288	111.745899	0.000304	3.040090	1.030010	-0.000122
1067	1.0607e+02	-2.4785	111.628822	0.000294	2.938753	0.995677	-0.000118
1068	1.0617e+02	-2.5154	111.535968	0.000233	2.330735	0.789675	-0.000093
1069	1.0627e+02	-2.5507	111.418891	0.000294	2.938753	0.995677	-0.000118
1070	1.0637e+02	-2.5908	111.305851	0.000284	2.837417	0.961343	-0.000114
1071	1.0647e+02	-2.6309	111.212997	0.000233	2.330735	0.789675	-0.000093
1072	1.0656e+02	-2.6694	111.120143	0.000233	2.330735	0.789675	-0.000093
1073	1.0666e+02	-2.7063	110.978843	0.000355	3.546771	1.201679	-0.000142
1074	1.0676e+02	-2.7481	110.869840	0.000274	2.736081	0.927009	-0.000110
1075	1.0686e+02	-2.7882	110.785060	0.000213	2.128063	0.721007	-0.000085
1076	1.0696e+02	-2.8331	110.696243	0.000223	2.229399	0.755341	-0.000089
1077	1.0706e+02	-2.8732	110.575129	0.000304	3.040090	1.030010	-0.000122
1078	1.0716e+02	-2.9085	110.454015	0.000304	3.040090	1.030010	-0.000122
1079	1.0726e+02	-2.9518	110.332901	0.000304	3.040090	1.030010	-0.000122
1080	1.0736e+02	-2.9823	110.256196	0.000193	1.925390	0.652340	-0.000077
1081	1.0746e+02	-3.0336	110.143156	0.000284	2.837417	0.961343	-0.000114
1082	1.0756e+02	-3.0705	110.038190	0.000263	2.634744	0.892676	-0.000105
1083	1.0766e+02	-3.1122	109.880742	0.000395	3.952117	1.339013	-0.000158
1084	1.0776e+02	-3.1491	109.787888	0.000233	2.330735	0.789675	-0.000093
1085	1.0786e+02	-3.1844	109.686959	0.000253	2.533408	0.858342	-0.000101
1086	1.0796e+02	-3.2261	109.602180	0.000213	2.128063	0.721007	-0.000085
1087	1.0806e+02	-3.2694	109.501251	0.000253	2.533408	0.858342	-0.000101
1088	1.0816e+02	-3.3047	109.351877	0.000375	3.749444	1.270346	-0.000150
1089	1.0826e+02	-3.3400	109.271134	0.000203	2.026726	0.686674	-0.000081
1090	1.0836e+02	-3.3817	109.194429	0.000193	1.925390	0.652340	-0.000077
1091	1.0845e+02	-3.4315	109.093500	0.000253	2.533408	0.858342	-0.000101
1092	1.0855e+02	-3.4716	108.944126	0.000375	3.749444	1.270346	-0.000150
1093	1.0865e+02	-3.5085	108.855309	0.000223	2.229399	0.755341	-0.000089
1094	1.0875e+02	-3.5454	108.778604	0.000193	1.925390	0.652340	-0.000077
1095	1.0885e+02	-3.5935	108.649416	0.000324	3.242762	1.098678	-0.000130
1096	1.0895e+02	-3.6272	108.528301	0.000304	3.040090	1.030010	-0.000122
1097	1.0905e+02	-3.6673	108.459670	0.000172	1.722717	0.583672	-0.000069
1098	1.0915e+02	-3.6978	108.322408	0.000345	3.445435	1.167345	-0.000138
1099	1.0925e+02	-3.7507	108.201293	0.000304	3.040090	1.030010	-0.000122
1100	1.0935e+02	-3.7844	108.104402	0.000243	2.432072	0.824008	-0.000097
1101	1.0945e+02	-3.8325	107.983288	0.000304	3.040090	1.030010	-0.000122
1102	1.0955e+02	-3.8678	107.878323	0.000263	2.634744	0.892676	-0.000105
1103	1.0965e+02	-3.9079	107.801617	0.000193	1.925390	0.652340	-0.000077
1104	1.0975e+02	-3.9464	107.688577	0.000284	2.837417	0.961343	-0.000114
1105	1.0985e+02	-3.9849	107.571500	0.000294	2.938753	0.995677	-0.000118
1106	1.0995e+02	-4.0170	107.470572	0.000253	2.533408	0.858342	-0.000101
1107	1.1005e+02	-4.0651	107.369644	0.000253	2.533408	0.858342	-0.000101
1108	1.1015e+02	-4.1068	107.260641	0.000274	2.736081	0.927009	-0.000110
1109	1.1025e+02	-4.1437	107.151638	0.000274	2.736081	0.927009	-0.000110
1110	1.1035e+02	-4.1887	107.042636	0.000274	2.736081	0.927009	-0.000110
1111	1.1044e+02	-4.2255	106.953819	0.000223	2.229399	0.755341	-0.000089
1112	1.1054e+02	-4.2624	106.832704	0.000304	3.040090	1.030010	-0.000122
1113	1.1064e+02	-4.2881	106.747925	0.000213	2.128063	0.721007	-0.000085
1114	1.1074e+02	-4.3427	106.638922	0.000274	2.736081	0.927009	-0.000110
1115	1.1084e+02	-4.3796	106.525882	0.000284	2.837417	0.961343	-0.000114
1116	1.1094e+02	-4.4309	106.392657	0.000334	3.344099	1.133011	-0.000134
1117	1.1104e+02	-4.4710	106.303840	0.000223	2.229399	0.755341	-0.000089
1118	1.1114e+02	-4.5031	106.219060	0.000213	2.128063	0.721007	-0.000085
1119	1.1124e+02	-4.5544	106.085834	0.000334	3.344099	1.133011	-0.000134
1120	1.1134e+02	-4.5881	105.992980	0.000233	2.330735	0.789675	-0.000093
1121	1.1144e+02	-4.6250	105.892052	0.000253	2.533408	0.858342	-0.000101
1122	1.1154e+02	-4.6587	105.791123	0.000253	2.533408	0.858342	-0.000101
1123	1.1164e+02	-4.7100	105.698269	0.000233	2.330735	0.789675	-0.000093
1124	1.1174e+02	-4.7309	105.585230	0.000284	2.837417	0.961343	-0.000114
1125	1.1184e+02	-4.7806	105.460078	0.000314	3.141426	1.064344	-0.000126
1126	1.1194e+02	-4.8239	105.371261	0.000223	2.229399	0.755341	-0.000089
1127	1.1204e+02	-4.8656	105.274370	0.000243	2.432072	0.824008	-0.000097
1128	1.1214e+02	-4.9106	105.137107	0.000345	3.445435	1.167345	-0.000138
1129	1.1224e+02	-4.9426	105.060402	0.000193	1.925390	0.652340	-0.000077
1130	1.1234e+02	-4.9844	104.935251	0.000314	3.141426	1.064344	-0.000126
1131	1.1244e+02	-5.0245	104.822211	0.000284	2.837417	0.961343	-0.000114
1132	1.1253e+02	-5.0549	104.733394	0.000223	2.229399	0.755341	-0.000089
1133	1.1263e+02	-5.0983	104.616317	0.000294	2.938753	0.995677	-0.000118
1134	1.1273e+02	-5.1400	104.531537	0.000213	2.128063	0.721007	-0.000085
1135	1.1283e+02	-5.1897	104.422534	0.000274	2.736081	0.927009	-0.000110
1136	1.1293e+02	-5.2250	104.333717	0.000223	2.229399	0.755341	-0.000089
1137	1.1303e+02	-5.2667	104.240863	0.000233	2.330735	0.789675	-0.000093
1138	1.1313e+02	-5.2940	104.095526	0.000365	3.648108	1.236012	-0.000146
1139	1.1323e+02	-5.3437	104.006709	0.000223	2.229399	0.755341	-0.000089
1140	1.1333e+02	-5.3886	103.889633	0.000294	2.938753	0.995677	-0.000118
1141	1.1343e+02	-5.4175	103.829075	0.000152	1.520045	0.515005	-0.000061
1142	1.1353e+02	-5.4592	103.724110	0.000263	2.634744	0.892676	-0.000105
1143	1.1363e+02	-5.5057	103.623182	0.000253	2.533408	0.858342	-0.000101
1144	1.1373e+02	-5.5378	103.522253	0.000253	2.533408	0.858342	-0.000101
1145	1.1383e+02	-5.5795	103.372879	0.000375	3.749444	1.270346	-0.000150
1146	1.1393e+02	-5.6116	103.280025	0.000233	2.330735	0.789675	-0.000093
1147	1.1403e+02	-5.6597	103.199282	0.000203	2.026726	0.686674	-0.000081
1148	1.1413e+02	-5.6950	103.118540	0.000203	2.026726	0.686674	-0.000081
1149	1.1423e+02	-5.7335	102.993388	0.000314	3.141426	1.064344	-0.000126
1150	1.1433e+02	-5.7784	102.916683	0.000193	1.925390	0.652340	-0.000077
1151	1.1442e+02	-5.8186	102.831903	0.000213	2.128063	0.721007	-0.000085
1152	1.1452e+02	-5.8619	102.714826	0.000294	2.938753	0.995677	-0.000118
1153	1.1462e+02	-5.8988	102.613898	0.000253	2.533408	0.858342	-0.000101
1154	1.1472e+02	-5.9373	102.533155	0.000203	2.026726	0.686674	-0.000081
1155	1.1482e+02	-5.9774	102.408004	0.000314	3.141426	1.064344	-0.000126
1156	1.1492e+02	-6.0223	102.327261	0.000203	2.026726	0.686674	-0.000081
1157	1.1502e+02	-6.0560	102.214221	0.000284	2.837417	0.961343	-0.000114
1158	1.1512e+02	-6.0977	102.113293	0.000253	2.533408	0.858342	-0.000101
1159	1.1522e+02	-6.1362	102.028513	0.000213	2.128063	0.721007	-0.000085
1160	1.1532e+02	-6.1763	101.919510	0.000274	2.736081	0.927009	-0.000110
1161	1.1542e+02	-6.2196	101.830693	0.000223	2.229399	0.755341	-0.000089
1162	1.1552e+02	-6.2645	101.745913	0.000213	2.128063	0.721007	-0.000085
1163	1.1562e+02	-6.3014	101.636911	0.000274	2.736081	0.927009	-0.000110
1164	1.1572e+02	-6.3431	101.523871	0.000284	2.837417	0.961343	-0.000114
1165	1.1582e+02	-6.3768	101.459277	0.000162	1.621381	0.549339	-0.000065
1166	1.1592e+02	-6.4201	101.354311	0.000263	2.634744	0.892676	-0.000105
1167	1.1602e+02	-6.4522	101.253383	0.000253	2.533408	0.858342	-0.000101
1168	1.1612e+02	-6.4955	101.164566	0.000223	2.229399	0.755341	-0.000089
1169	1.1622e+02	-6.5340	101.059600	0.000263	2.634744	0.892676	-0.000105
1170	1.1632e+02	-6.5693	100.978858	0.000203	2.026726	0.686674	-0.000081
1171	1.1642e+02	-6.6110	100.857744	0.000304	3.040090	1.030010	-0.000122
1172	1.1651e+02	-6.6511	100.764889	0.000233	2.330735	0.789675	-0.000093
1173	1.1661e+02	-6.6880	100.704332	0.000152	1.520045	0.515005	-0.000061
1174	1.1671e+02	-6.7330	100.619553	0.000213	2.128063	0.721007	-0.000085
1175	1.1681e+02	-6.7779	100.502476	0.000294	2.938753	0.995677	-0.000118
1176	1.1691e+02	-6.8036	100.397510	0.000263	2.634744	0.892676	-0.000105
1177	1.1701e+02	-6.8501	100.312730	0.000213	2.128063	0.721007	-0.000085
1178	1.1711e+02	-6.8902	100.215839	0.000243	2.432072	0.824008	-0.000097
1179	1.1721e+02	-6.9287	100.122985	0.000233	2.330735	0.789675	-0.000093
1180	1.1731e+02	-6.9672	100.034168	0.000223	2.229399	0.755341	-0.000089
1181	1.1741e+02	-7.0169	99.949388	0.000213	2.128063	0.721007	-0.000085
1182	1.1751e+02	-7.0554	99.856534	0.000233	2.330735	0.789675	-0.000093
1183	1.1761e+02	-7.0923	99.771754	0.000213	2.128063	0.721007	-0.000085
1184	1.1771e+02	-7.1260	99.654677	0.000294	2.938753	0.995677	-0.000118
1185	1.1781e+02	-7.1693	99.549712	0.000263	2.634744	0.892676	-0.000105
1186	1.1791e+02	-7.2062	99.452820	0.000243	2.432072	0.824008	-0.000097
1187	1.1801e+02	-7.2527	99.380152	0.000182	1.824054	0.618006	-0.000073
1188	1.1811e+02	-7.2832	99.283261	0.000243	2.432072	0.824008	-0.000097
1189	1.1821e+02	-7.3233	99.182332	0.000253	2.533408	0.858342	-0.000101
1190	1.1831e+02	-7.3650	99.117738	0.000162	1.621381	0.549339	-0.000065
1191	1.1841e+02	-7.4051	98.956253	0.000405	4.053453	1.373347	-0.000162
1192	1.1850e+02	-7.4485	98.907807	0.000122	1.216036	0.412004	-0.000049
1193	1.1860e+02	-7.4837	98.835139	0.000182	1.824054	0.618006	-0.000073
1194	1.1870e+02	-7.5367	98.714024	0.000304	3.040090	1.030010	-0.000122
1195	1.1880e+02	-7.5688	98.661542	0.000132	1.317372	0.446338	-0.000053
1196	1.1890e+02	-7.6137	98.520242	0.000355	3.546771	1.201679	-0.000142
1197	1.1900e+02	-7.6474	98.463722	0.000142	1.418709	0.480671	-0.000057
1198	1.1910e+02	-7.6955	98.378942	0.000213	2.128063	0.721007	-0.000085
1199	1.1920e+02	-7.7212	98.278014	0.000253	2.533408	0.858342	-0.000101
1200	1.1930e+02	-7.7661	98.177085	0.000253	2.533408	0.858342	-0.000101
1201	1.1940e+02	-7.8126	98.104417	0.000182	1.824054	0.618006	-0.000073
1202	1.1950e+02	-7.8479	98.011563	0.000233	2.330735	0.789675	-0.000093
1203	1.1960e+02	-7.8880	97.890449	0.000304	3.040090	1.030010	-0.000122
1204	1.1970e+02	-7.9265	97.817780	0.000182	1.824054	0.618006	-0.000073
1205	1.1980e+02	-7.9698	97.716852	0.000253	2.533408	0.858342	-0.000101
1206	1.1990e+02	-8.0115	97.603812	0.000284	2.837417	0.961343	-0.000114
1207	1.2000e+02	-8.0356	97.555367	0.000122	1.216036	0.412004	-0.000049
1208	1.2010e+02	-8.0918	97.494810	0.000152	1.520045	0.515005	-0.000061
1209	1.2020e+02	-8.1254	97.397918	0.000243	2.432072	0.824008	-0.000097
1210	1.2030e+02	-8.1607	97.244507	0.000385	3.850780	1.304680	-0.000154
1211	1.2039e+02	-8.2057	97.204136	0.000101	1.013363	0.343337	-0.000041
1212	1.2049e+02	-8.2474	97.103207	0.000253	2.533408	0.858342	-0.000101
1213	1.2059e+02	-8.2939	97.022465	0.000203	2.026726	0.686674	-0.000081
1214	1.2069e+02	-8.3260	96.909425	0.000284	2.837417	0.961343	-0.000114
1215	1.2079e+02	-8.3613	96.860979	0.000122	1.216036	0.412004	-0.000049
1216	1.2089e+02	-8.4046	96.756014	0.000263	2.634744	0.892676	-0.000105
1217	1.2099e+02	-8.4399	96.667197	0.000223	2.229399	0.755341	-0.000089
1218	1.2109e+02	-8.4880	96.582417	0.000213	2.128063	0.721007	-0.000085
1219	1.2119e+02	-8.5185	96.449191	0.000334	3.344099	1.133011	-0.000134
1220	1.2129e+02	-8.5618	96.384597	0.000162	1.621381	0.549339	-0.000065
1221	1.2139e+02	-8.6019	96.315966	0.000172	1.722717	0.583672	-0.000069
1222	1.2149e+02	-8.6500	96.202926	0.000284	2.837417	0.961343	-0.000114
1223	1.2159e+02	-8.6821	96.077775	0.000314	3.141426	1.064344	-0.000126
1224	1.2169e+02	-8.7254	96.005106	0.000182	1.824054	0.618006	-0.000073
1225	1.2179e+02	-8.7703	95.916289	0.000223	2.229399	0.755341	-0.000089
1226	1.2189e+02	-8.7992	95.847658	0.000172	1.722717	0.583672	-0.000069
1227	1.2199e+02	-8.8377	95.766915	0.000203	2.026726	0.686674	-0.000081
1228	1.2209e+02	-8.8810	95.674061	0.000233	2.330735	0.789675	-0.000093
1229	1.2219e+02	-8.9260	95.597356	0.000193	1.925390	0.652340	-0.000077
1230	1.2229e+02	-8.9516	95.496427	0.000253	2.533408	0.858342	-0.000101
1231	1.2239e+02	-9.0062	95.431833	0.000162	1.621381	0.549339	-0.000065
1232	1.2248e+02	-9.0543	95.355128	0.000193	1.925390	0.652340	-0.000077
1233	1.2258e+02	-9.0832	95.217865	0.000345	3.445435	1.167345	-0.000138
1234	1.2268e+02	-9.1217	95.108862	0.000274	2.736081	0.927009	-0.000110
1235	1.2278e+02	-9.1666	95.007934	0.000253	2.533408	0.858342	-0.000101
1236	1.2288e+02	-9.2083	94.955451	0.000132	1.317372	0.446338	-0.000053
1237	1.2298e+02	-9.2420	94.854523	0.000253	2.533408	0.858342	-0.000101
1238	1.2308e+02	-9.2885	94.757631	0.000243	2.432072	0.824008	-0.000097
1239	1.2318e+02	-9.3142	94.656703	0.000253	2.533408	0.858342	-0.000101
1240	1.2328e+02	-9.3511	94.579998	0.000193	1.925390	0.652340	-0.000077
1241	1.2338e+02	-9.4040	94.495218	0.000213	2.128063	0.721007	-0.000085
1242	1.2348e+02	-9.4505	94.398326	0.000243	2.432072	0.824008	-0.000097
1243	1.2358e+02	-9.4858	94.265101	0.000334	3.344099	1.133011	-0.000134
1244	1.2368e+02	-9.5099	94.200507	0.000162	1.621381	0.549339	-0.000065
1245	1.2378e+02	-9.5692	94.107653	0.000233	2.330735	0.789675	-0.000093
1246	1.2388e+02	-9.6013	94.014798	0.000233	2.330735	0.789675	-0.000093
1247	1.2398e+02	-9.6382	93.934056	0.000203	2.026726	0.686674	-0.000081
1248	1.2408e+02	-9.6799	93.849276	0.000213	2.128063	0.721007	-0.000085
1249	1.2418e+02	-9.7233	93.756422	0.000233	2.330735	0.789675	-0.000093
1250	1.2428e+02	-9.7618	93.655493	0.000253	2.533408	0.858342	-0.000101
1251	1.2438e+02	-9.7987	93.566676	0.000223	2.229399	0.755341	-0.000089
1252	1.2447e+02	-9.8404	93.441525	0.000314	3.141426	1.064344	-0.000126
1253	1.2457e+02	-9.8853	93.385005	0.000142	1.418709	0.480671	-0.000057
1254	1.2467e+02	-9.9238	93.304263	0.000203	2.026726	0.686674	-0.000081
1255	1.2477e+02	-9.9575	93.219483	0.000213	2.128063	0.721007	-0.000085
1256	1.2487e+02	-10.0072	93.118554	0.000253	2.533408	0.858342	-0.000101
1257	1.2497e+02	-10.0457	93.009552	0.000274	2.736081	0.927009	-0.000110
1258	1.2507e+02	-10.0778	92.944958	0.000162	1.621381	0.549339	-0.000065
1259	1.2517e+02	-10.1131	92.835955	0.000274	2.736081	0.927009	-0.000110
1260	1.2527e+02	-10.1660	92.739064	0.000243	2.432072	0.824008	-0.000097
1261	1.2537e+02	-10.2013	92.646209	0.000233	2.330735	0.789675	-0.000093
1262	1.2547e+02	-10.2430	92.549318	0.000243	2.432072	0.824008	-0.000097
1263	1.2557e+02	-10.2928	92.476650	0.000182	1.824054	0.618006	-0.000073
1264	1.2567e+02	-10.3184	92.343424	0.000334	3.344099	1.133011	-0.000134
1265	1.2577e+02	-10.3714	92.258644	0.000213	2.128063	0.721007	-0.000085
1266	1.2587e+02	-10.3954	92.165790	0.000233	2.330735	0.789675	-0.000093
1267	1.2597e+02	-10.4387	92.081010	0.000213	2.128063	0.721007	-0.000085
1268	1.2607e+02	-10.4740	91.988156	0.000233	2.330735	0.789675	-0.000093
1269	1.2617e+02	-10.5174	91.915488	0.000182	1.824054	0.618006	-0.000073
1270	1.2627e+02	-10.5607	91.822634	0.000233	2.330735	0.789675	-0.000093
1271	1.2636e+02	-10.6040	91.729780	0.000233	2.330735	0.789675	-0.000093
1272	1.2646e+02	-10.6296	91.620777	0.000274	2.736081	0.927009	-0.000110
1273	1.2656e+02	-10.6730	91.572331	0.000122	1.216036	0.412004	-0.000049
1274	1.2666e+02	-10.7227	91.463329	0.000274	2.736081	0.927009	-0.000110
1275	1.2676e+02	-10.7500	91.390660	0.000182	1.824054	0.618006	-0.000073
1276	1.2686e+02	-10.7981	91.245323	0.000365	3.648108	1.236012	-0.000146
1277	1.2696e+02	-10.8318	91.168618	0.000193	1.925390	0.652340	-0.000077
1278	1.2706e+02	-10.8799	91.067689	0.000253	2.533408	0.858342	-0.000101
1279	1.2716e+02	-10.9056	90.982910	0.000213	2.128063	0.721007	-0.000085
1280	1.2726e+02	-10.9537	90.898130	0.000213	2.128063	0.721007	-0.000085
1281	1.2736e+02	-10.9890	90.797201	0.000253	2.533408	0.858342	-0.000101
1282	1.2746e+02	-11.0355	90.704347	0.000233	2.330735	0.789675	-0.000093
1283	1.2756e+02	-11.0772	90.627642	0.000193	1.925390	0.652340	-0.000077
1284	1.2766e+02	-11.1125	90.514602	0.000284	2.837417	0.961343	-0.000114
1285	1.2776e+02	-11.1558	90.429822	0.000213	2.128063	0.721007	-0.000085
1286	1.2786e+02	-11.1975	90.324856	0.000263	2.634744	0.892676	-0.000105
1287	1.2796e+02	-11.2344	90.244114	0.000203	2.026726	0.686674	-0.000081
1288	1.2806e+02	-11.2762	90.151260	0.000233	2.330735	0.789675	-0.000093
1289	1.2816e+02	-11.3195	90.086665	0.000162	1.621381	0.549339	-0.000065
1290	1.2826e+02	-11.3499	89.969588	0.000294	2.938753	0.995677	-0.000118
1291	1.2835e+02	-11.3965	89.872697	0.000243	2.432072	0.824008	-0.000097
1292	1.2845e+02	-11.4318	89.820214	0.000132	1.317372	0.446338	-0.000053
1293	1.2855e+02	-11.4751	89.715249	0.000263	2.634744	0.892676	-0.000105
1294	1.2865e+02	-11.5168	89.622395	0.000233	2.330735	0.789675	-0.000093
1295	1.2875e+02	-11.5553	89.493206	0.000324	3.242762	1.098678	-0.000130
1296	1.2885e+02	-11.5970	89.416501	0.000193	1.925390	0.652340	-0.000077
1297	1.2895e+02	-11.6355	89.327684	0.000223	2.229399	0.755341	-0.000089
1298	1.2905e+02	-11.6660	89.210607	0.000294	2.938753	0.995677	-0.000118
1299	1.2915e+02	-11.7125	89.117753	0.000233	2.330735	0.789675	-0.000093
1300	1.2925e+02	-11.7526	89.041047	0.000193	1.925390	0.652340	-0.000077
1301	1.2935e+02	-11.7959	88.948193	0.000233	2.330735	0.789675	-0.000093
1302	1.2945e+02	-11.8344	88.903785	0.000111	1.114700	0.377670	-0.000045
1303	1.2955e+02	-11.8745	88.786708	0.000294	2.938753	0.995677	-0.000118
1304	1.2965e+02	-11.9066	88.685779	0.000253	2.533408	0.858342	-0.000101
1305	1.2975e+02	-11.9515	88.596962	0.000223	2.229399	0.755341	-0.000089
1306	1.2985e+02	-11.9852	88.524294	0.000182	1.824054	0.618006	-0.000073
1307	1.2995e+02	-12.0334	88.427403	0.000243	2.432072	0.824008	-0.000097
1308	1.3005e+02	-12.0831	88.302251	0.000314	3.141426	1.064344	-0.000126
1309	1.3015e+02	-12.1152	88.245732	0.000142	1.418709	0.480671	-0.000057
1310	1.3025e+02	-12.1424	88.152877	0.000233	2.330735	0.789675	-0.000093
1311	1.3034e+02	-12.1890	88.047912	0.000263	2.634744	0.892676	-0.000105
1312	1.3044e+02	-12.2435	87.955058	0.000233	2.330735	0.789675	-0.000093
1313	1.3054e+02	-12.2676	87.906612	0.000122	1.216036	0.412004	-0.000049
1314	1.3064e+02	-12.3157	87.793572	0.000284	2.837417	0.961343	-0.000114
1315	1.3074e+02	-12.3558	87.728978	0.000162	1.621381	0.549339	-0.000065
1316	1.3084e+02	-12.3991	87.591716	0.000345	3.445435	1.167345	-0.000138
1317	1.3094e+02	-12.4264	87.575567	0.000041	0.405345	0.137335	-0.000016
1318	1.3104e+02	-12.4697	87.450416	0.000314	3.141426	1.064344	-0.000126
1319	1.3114e+02	-12.4986	87.426193	0.000061	0.608018	0.206002	-0.000024
1320	1.3124e+02	-12.5515	87.280856	0.000365	3.648108	1.236012	-0.000146
1321	1.3134e+02	-12.5948	87.179928	0.000253	2.533408	0.858342	-0.000101
1322	1.3144e+02	-12.6317	87.103222	0.000193	1.925390	0.652340	-0.000077
1323	1.3154e+02	-12.6686	87.030554	0.000182	1.824054	0.618006	-0.000073
1324	1.3164e+02	-12.7119	86.921551	0.000274	2.736081	0.927009	-0.000110
1325	1.3174e+02	-12.7424	86.836771	0.000213	2.128063	0.721007	-0.000085
1326	1.3184e+02	-12.7825	86.764103	0.000182	1.824054	0.618006	-0.000073
1327	1.3194e+02	-12.8323	86.707583	0.000142	1.418709	0.480671	-0.000057
1328	1.3204e+02	-12.8740	86.582432	0.000314	3.141426	1.064344	-0.000126
1329	1.3214e+02	-12.9141	86.469392	0.000284	2.837417	0.961343	-0.000114
1330	1.3224e+02	-12.9526	86.420946	0.000122	1.216036	0.412004	-0.000049
1331	1.3234e+02	-12.9831	86.324055	0.000243	2.432072	0.824008	-0.000097
1332	1.3243e+02	-13.0216	86.271572	0.000132	1.317372	0.446338	-0.000053
1333	1.3253e+02	-13.0552	86.162569	0.000274	2.736081	0.927009	-0.000110
1334	1.3263e+02	-13.1082	86.081827	0.000203	2.026726	0.686674	-0.000081
1335	1.3273e+02	-13.1435	86.017233	0.000162	1.621381	0.549339	-0.000065
1336	1.3283e+02	-13.1868	85.944564	0.000182	1.824054	0.618006	-0.000073
1337	1.3293e+02	-13.2253	85.823450	0.000304	3.040090	1.030010	-0.000122
1338	1.3303e+02	-13.2702	85.722522	0.000253	2.533408	0.858342	-0.000101
1339	1.3313e+02	-13.3071	85.637742	0.000213	2.128063	0.721007	-0.000085
1340	1.3323e+02	-13.3488	85.585259	0.000132	1.317372	0.446338	-0.000053
1341	1.3333e+02	-13.3825	85.480294	0.000263	2.634744	0.892676	-0.000105
1342	1.3343e+02	-13.4162	85.415699	0.000162	1.621381	0.549339	-0.000065
1343	1.3353e+02	-13.4772	85.306697	0.000274	2.736081	0.927009	-0.000110
1344	1.3363e+02	-13.5028	85.201731	0.000263	2.634744	0.892676	-0.000105
1345	1.3373e+02	-13.5429	85.165397	0.000091	0.912027	0.309003	-0.000037
1346	1.3383e+02	-13.5862	85.064469	0.000253	2.533408	0.858342	-0.000101
1347	1.3393e+02	-13.6231	84.975652	0.000223	2.229399	0.755341	-0.000089
1348	1.3403e+02	-13.6649	84.886835	0.000223	2.229399	0.755341	-0.000089
1349	1.3413e+02	-13.7018	84.858575	0.000071	0.709354	0.240336	-0.000028
1350	1.3423e+02	-13.7499	84.733423	0.000314	3.141426	1.064344	-0.000126
1351	1.3432e+02	-13.7772	84.668829	0.000162	1.621381	0.549339	-0.000065
1352	1.3442e+02	-13.8237	84.547715	0.000304	3.040090	1.030010	-0.000122
1353	1.3452e+02	-13.8606	84.531567	0.000041	0.405345	0.137335	-0.000016
1354	1.3462e+02	-13.8991	84.414490	0.000294	2.938753	0.995677	-0.000118
1355	1.3472e+02	-13.9488	84.297413	0.000294	2.938753	0.995677	-0.000118
1356	1.3482e+02	-13.9841	84.248967	0.000122	1.216036	0.412004	-0.000049
1357	1.3492e+02	-14.0162	84.172262	0.000193	1.925390	0.652340	-0.000077
1358	1.3502e+02	-14.0627	84.067296	0.000263	2.634744	0.892676	-0.000105
1359	1.3512e+02	-14.1028	84.002702	0.000162	1.621381	0.549339	-0.000065
1360	1.3522e+02	-14.1509	83.913885	0.000223	2.229399	0.755341	-0.000089
1361	1.3532e+02	-14.1830	83.837179	0.000193	1.925390	0.652340	-0.000077
1362	1.3542e+02	-14.2247	83.744325	0.000233	2.330735	0.789675	-0.000093
1363	1.3552e+02	-14.2616	83.695880	0.000122	1.216036	0.412004	-0.000049
1364	1.3562e+02	-14.3082	83.566691	0.000324	3.242762	1.098678	-0.000130
1365	1.3572e+02	-14.3418	83.522283	0.000111	1.114700	0.377670	-0.000045
1366	1.3582e+02	-14.3739	83.433466	0.000223	2.229399	0.755341	-0.000089
1367	1.3592e+02	-14.4333	83.348686	0.000213	2.128063	0.721007	-0.000085
1368	1.3602e+02	-14.4686	83.276017	0.000182	1.824054	0.618006	-0.000073
1369	1.3612e+02	-14.4942	83.175089	0.000253	2.533408	0.858342	-0.000101
1370	1.3622e+02	-14.5472	83.122606	0.000132	1.317372	0.446338	-0.000053
1371	1.3631e+02	-14.5825	83.025715	0.000243	2.432072	0.824008	-0.000097
1372	1.3641e+02	-14.6242	82.953047	0.000182	1.824054	0.618006	-0.000073
1373	1.3651e+02	-14.6643	82.888452	0.000162	1.621381	0.549339	-0.000065
1374	1.3661e+02	-14.7012	82.787524	0.000253	2.533408	0.858342	-0.000101
1375	1.3671e+02	-14.7301	82.739078	0.000122	1.216036	0.412004	-0.000049
1376	1.3681e+02	-14.7862	82.634113	0.000263	2.634744	0.892676	-0.000105
1377	1.3691e+02	-14.8247	82.565482	0.000172	1.722717	0.583672	-0.000069
1378	1.3701e+02	-14.8632	82.468590	0.000243	2.432072	0.824008	-0.000097
1379	1.3711e+02	-14.9001	82.363625	0.000263	2.634744	0.892676	-0.000105
1380	1.3721e+02	-14.9354	82.323253	0.000101	1.013363	0.343337	-0.000041
1381	1.3731e+02	-14.9771	82.234436	0.000223	2.229399	0.755341	-0.000089
1382	1.3741e+02	-15.0252	82.181954	0.000132	1.317372	0.446338	-0.000053
1383	1.3751e+02	-15.0557	82.064877	0.000294	2.938753	0.995677	-0.000118
1384	1.3761e+02	-15.0958	81.984134	0.000203	2.026726	0.686674	-0.000081
1385	1.3771e+02	-15.1520	81.911466	0.000182	1.824054	0.618006	-0.000073
1386	1.3781e+02	-15.1760	81.834760	0.000193	1.925390	0.652340	-0.000077
1387	1.3791e+02	-15.2210	81.770166	0.000162	1.621381	0.549339	-0.000065
1388	1.3801e+02	-15.2611	81.657126	0.000284	2.837417	0.961343	-0.000114
1389	1.3811e+02	-15.2964	81.596569	0.000152	1.520045	0.515005	-0.000061
1390	1.3821e+02	-15.3381	81.540049	0.000142	1.418709	0.480671	-0.000057
1391	1.3831e+02	-15.3798	81.414898	0.000314	3.141426	1.064344	-0.000126
1392	1.3840e+02	-15.4135	81.334155	0.000203	2.026726	0.686674	-0.000081
1393	1.3850e+02	-15.4584	81.289747	0.000111	1.114700	0.377670	-0.000045
1394	1.3860e+02	-15.4985	81.192855	0.000243	2.432072	0.824008	-0.000097
1395	1.3870e+02	-15.5434	81.100001	0.000233	2.330735	0.789675	-0.000093
1396	1.3880e+02	-15.5675	81.019259	0.000203	2.026726	0.686674	-0.000081
1397	1.3890e+02	-15.6220	80.930442	0.000223	2.229399	0.755341	-0.000089
1398	1.3900e+02	-15.6541	80.894107	0.000091	0.912027	0.309003	-0.000037
1399	1.3910e+02	-15.7006	80.777030	0.000294	2.938753	0.995677	-0.000118
1400	1.3920e+02	-15.7407	80.712436	0.000162	1.621381	0.549339	-0.000065
1401	1.3930e+02	-15.7808	80.611508	0.000253	2.533408	0.858342	-0.000101
1402	1.3940e+02	-15.8129	80.538839	0.000182	1.824054	0.618006	-0.000073
1403	1.3950e+02	-15.8562	80.454060	0.000213	2.128063	0.721007	-0.000085
1404	1.3960e+02	-15.8996	80.381391	0.000182	1.824054	0.618006	-0.000073
1405	1.3970e+02	-15.9429	80.320834	0.000152	1.520045	0.515005	-0.000061
1406	1.3980e+02	-15.9814	80.211831	0.000274	2.736081	0.927009	-0.000110
1407	1.3990e+02	-16.0151	80.131089	0.000203	2.026726	0.686674	-0.000081
1408	1.4000e+02	-16.0648	80.046309	0.000213	2.128063	0.721007	-0.000085
1409	1.4010e+02	-16.0856	79.941343	0.000263	2.634744	0.892676	-0.000105
1410	1.4020e+02	-16.1338	79.880786	0.000152	1.520045	0.515005	-0.000061
1411	1.4029e+02	-16.1755	79.808118	0.000182	1.824054	0.618006	-0.000073
1412	1.4039e+02	-16.2140	79.707189	0.000253	2.533408	0.858342	-0.000101
1413	1.4049e+02	-16.2557	79.618372	0.000223	2.229399	0.755341	-0.000089
1414	1.4059e+02	-16.2990	79.569927	0.000122	1.216036	0.412004	-0.000049
1415	1.4069e+02	-16.3391	79.489184	0.000203	2.026726	0.686674	-0.000081
1416	1.4079e+02	-16.3760	79.380181	0.000274	2.736081	0.927009	-0.000110
1417	1.4089e+02	-16.4177	79.303476	0.000193	1.925390	0.652340	-0.000077
1418	1.4099e+02	-16.4594	79.202547	0.000253	2.533408	0.858342	-0.000101
1419	1.4109e+02	-16.4931	79.137953	0.000162	1.621381	0.549339	-0.000065
1420	1.4119e+02	-16.5396	79.045099	0.000233	2.330735	0.789675	-0.000093
1421	1.4129e+02	-16.5781	78.984542	0.000152	1.520045	0.515005	-0.000061
1422	1.4139e+02	-16.6150	78.843242	0.000355	3.546771	1.201679	-0.000142
1423	1.4149e+02	-16.6535	78.823057	0.000051	0.506682	0.171668	-0.000020
1424	1.4159e+02	-16.6936	78.705980	0.000294	2.938753	0.995677	-0.000118
1425	1.4169e+02	-16.7434	78.637348	0.000172	1.722717	0.583672	-0.000069
1426	1.4179e+02	-16.7690	78.556606	0.000203	2.026726	0.686674	-0.000081
1427	1.4189e+02	-16.8140	78.475863	0.000203	2.026726	0.686674	-0.000081
1428	1.4199e+02	-16.8460	78.358786	0.000294	2.938753	0.995677	-0.000118
1429	1.4209e+02	-16.8894	78.318415	0.000101	1.013363	0.343337	-0.000041
1430	1.4219e+02	-16.9375	78.181152	0.000345	3.445435	1.167345	-0.000138
1431	1.4228e+02	-16.9744	78.132707	0.000122	1.216036	0.412004	-0.000049
1432	1.4238e+02	-17.0129	78.064075	0.000172	1.722717	0.583672	-0.000069
1433	1.4248e+02	-17.0482	77.963147	0.000253	2.533408	0.858342	-0.000101
1434	1.4258e+02	-17.0867	77.874330	0.000223	2.229399	0.755341	-0.000089
1435	1.4268e+02	-17.1396	77.777439	0.000243	2.432072	0.824008	-0.000097
1436	1.4278e+02	-17.1637	77.704770	0.000182	1.824054	0.618006	-0.000073
1437	1.4288e+02	-17.2102	77.664399	0.000101	1.013363	0.343337	-0.000041
1438	1.4298e+02	-17.2551	77.543285	0.000304	3.040090	1.030010	-0.000122
1439	1.4308e+02	-17.2936	77.446393	0.000243	2.432072	0.824008	-0.000097
1440	1.4318e+02	-17.3273	77.389874	0.000142	1.418709	0.480671	-0.000057
1441	1.4328e+02	-17.3722	77.301057	0.000223	2.229399	0.755341	-0.000089
1442	1.4338e+02	-17.4107	77.224351	0.000193	1.925390	0.652340	-0.000077
1443	1.4348e+02	-17.4541	77.115348	0.000274	2.736081	0.927009	-0.000110
1444	1.4358e+02	-17.4974	77.018457	0.000243	2.432072	0.824008	-0.000097
1445	1.4368e+02	-17.5375	76.937714	0.000203	2.026726	0.686674	-0.000081
1446	1.4378e+02	-17.5712	76.881194	0.000142	1.418709	0.480671	-0.000057
1447	1.4388e+02	-17.6113	76.800452	0.000203	2.026726	0.686674	-0.000081
1448	1.4398e+02	-17.6498	76.699523	0.000253	2.533408	0.858342	-0.000101
1449	1.4408e+02	-17.6867	76.606669	0.000233	2.330735	0.789675	-0.000093
1450	1.4418e+02	-17.7220	76.546112	0.000152	1.520045	0.515005	-0.000061
1451	1.4428e+02	-17.7653	76.437109	0.000274	2.736081	0.927009	-0.000110
1452	1.4437e+02	-17.8102	76.372515	0.000162	1.621381	0.549339	-0.000065
1453	1.4447e+02	-17.8423	76.223141	0.000375	3.749444	1.270346	-0.000150
1454	1.4457e+02	-17.8824	76.170659	0.000132	1.317372	0.446338	-0.000053
1455	1.4467e+02	-17.9289	76.150473	0.000051	0.506682	0.171668	-0.000020
1456	1.4477e+02	-17.9706	76.013210	0.000345	3.445435	1.167345	-0.000138
1457	1.4487e+02	-18.0059	75.924393	0.000223	2.229399	0.755341	-0.000089
1458	1.4497e+02	-18.0380	75.851725	0.000182	1.824054	0.618006	-0.000073
1459	1.4507e+02	-18.0829	75.787131	0.000162	1.621381	0.549339	-0.000065
1460	1.4517e+02	-18.1278	75.678128	0.000274	2.736081	0.927009	-0.000110
1461	1.4527e+02	-18.1695	75.561051	0.000294	2.938753	0.995677	-0.000118
1462	1.4537e+02	-18.2177	75.508568	0.000132	1.317372	0.446338	-0.000053
1463	1.4547e+02	-18.2417	75.395528	0.000284	2.837417	0.961343	-0.000114
1464	1.4557e+02	-18.2963	75.339009	0.000142	1.418709	0.480671	-0.000057
1465	1.4567e+02	-18.3284	75.205783	0.000334	3.344099	1.133011	-0.000134
1466	1.4577e+02	-18.3669	75.153300	0.000132	1.317372	0.446338	-0.000053
1467	1.4587e+02	-18.4054	75.048335	0.000263	2.634744	0.892676	-0.000105
1468	1.4597e+02	-18.4439	74.967592	0.000203	2.026726	0.686674	-0.000081
1469	1.4607e+02	-18.4824	74.894924	0.000182	1.824054	0.618006	-0.000073
1470	1.4617e+02	-18.5273	74.793995	0.000253	2.533408	0.858342	-0.000101
1471	1.4626e+02	-18.5642	74.737475	0.000142	1.418709	0.480671	-0.000057
1472	1.4636e+02	-18.6075	74.672881	0.000162	1.621381	0.549339	-0.000065
1473	1.4646e+02	-18.6492	74.563879	0.000274	2.736081	0.927009	-0.000110
1474	1.4656e+02	-18.6941	74.491210	0.000182	1.824054	0.618006	-0.000073
1475	1.4666e+02	-18.7326	74.402393	0.000223	2.229399	0.755341	-0.000089
1476	1.4676e+02	-18.7599	74.325688	0.000193	1.925390	0.652340	-0.000077
1477	1.4686e+02	-18.8064	74.228796	0.000243	2.432072	0.824008	-0.000097
1478	1.4696e+02	-18.8481	74.144016	0.000213	2.128063	0.721007	-0.000085
1479	1.4706e+02	-18.8850	74.043088	0.000253	2.533408	0.858342	-0.000101
1480	1.4716e+02	-18.9251	73.954271	0.000223	2.229399	0.755341	-0.000089
1481	1.4726e+02	-18.9636	73.889677	0.000162	1.621381	0.549339	-0.000065
1482	1.4736e+02	-19.0005	73.808934	0.000203	2.026726	0.686674	-0.000081
1483	1.4746e+02	-19.0471	73.712043	0.000243	2.432072	0.824008	-0.000097
1484	1.4756e+02	-19.0856	73.647449	0.000162	1.621381	0.549339	-0.000065
1485	1.4766e+02	-19.1209	73.518260	0.000324	3.242762	1.098678	-0.000130
1486	1.4776e+02	-19.1674	73.461740	0.000142	1.418709	0.480671	-0.000057
1487	1.4786e+02	-19.2091	73.409258	0.000132	1.317372	0.446338	-0.000053
1488	1.4796e+02	-19.2492	73.324478	0.000213	2.128063	0.721007	-0.000085
1489	1.4806e+02	-19.2829	73.211438	0.000284	2.837417	0.961343	-0.000114
1490	1.4816e+02	-19.3182	73.171067	0.000101	1.013363	0.343337	-0.000041
1491	1.4825e+02	-19.3695	73.066101	0.000263	2.634744	0.892676	-0.000105
1492	1.4835e+02	-19.3984	72.989396	0.000193	1.925390	0.652340	-0.000077
1493	1.4845e+02	-19.4449	72.872319	0.000294	2.938753	0.995677	-0.000118
1494	1.4855e+02	-19.4674	72.807724	0.000162	1.621381	0.549339	-0.000065
1495	1.4865e+02	-19.5283	72.702759	0.000263	2.634744	0.892676	-0.000105
1496	1.4875e+02	-19.5556	72.658350	0.000111	1.114700	0.377670	-0.000045
1497	1.4885e+02	-19.6037	72.577608	0.000203	2.026726	0.686674	-0.000081
1498	1.4895e+02	-19.6390	72.496865	0.000203	2.026726	0.686674	-0.000081
1499	1.4905e+02	-19.6775	72.408048	0.000223	2.229399	0.755341	-0.000089
1500	1.4915e+02	-19.7208	72.303083	0.000263	2.634744	0.892676	-0.000105
1501	1.4925e+02	-19.7561	72.222340	0.000203	2.026726	0.686674	-0.000081
1502	1.4935e+02	-19.8091	72.153708	0.000172	1.722717	0.583672	-0.000069
1503	1.4945e+02	-19.8347	72.068929	0.000213	2.128063	0.721007	-0.000085
1504	1.4955e+02	-19.8700	72.012409	0.000142	1.418709	0.480671	-0.000057
1505	1.4965e+02	-19.9198	71.923592	0.000223	2.229399	0.755341	-0.000089
1506	1.4975e+02	-19.9567	71.854960	0.000172	1.722717	0.583672	-0.000069
1507	1.4985e+02	-19.9984	71.754032	0.000253	2.533408	0.858342	-0.000101
1508	1.4995e+02	-19.9631	71.778255	0.000061	0.608018	0.206002	0.000024
1509	1.5005e+02	-19.9278	71.810552	0.000081	0.810691	0.274669	0.000032
1510	1.5015e+02	-19.8748	71.919555	0.000274	2.736081	0.927009	0.000110
1511	1.5025e+02	-19.8492	71.931666	0.000030	0.304009	0.103001	0.000012
1512	1.5034e+02	-19.8059	71.996260	0.000162	1.621381	0.549339	0.000065
1513	1.5044e+02	-19.7561	72.068929	0.000182	1.824054	0.618006	0.000073
1514	1.5054e+02	-19.7256	72.153708	0.000213	2.128063	0.721007	0.000085
1515	1.5064e+02	-19.6727	72.173894	0.000051	0.506682	0.171668	0.000020
1516	1.5074e+02	-19.6422	72.234451	0.000152	1.520045	0.515005	0.000061
1517	1.5084e+02	-19.6069	72.343454	0.000274	2.736081	0.927009	0.000110
1518	1.5094e+02	-19.5604	72.395937	0.000132	1.317372	0.446338	0.000053
1519	1.5104e+02	-19.5219	72.416122	0.000051	0.506682	0.171668	0.000020
1520	1.5114e+02	-19.4770	72.464568	0.000122	1.216036	0.412004	0.000049
1521	1.5124e+02	-19.4353	72.569533	0.000263	2.634744	0.892676	0.000105
1522	1.5134e+02	-19.3920	72.581645	0.000030	0.304009	0.103001	0.000012
1523	1.5144e+02	-19.3631	72.678536	0.000243	2.432072	0.824008	0.000097
1524	1.5154e+02	-19.3118	72.763316	0.000213	2.128063	0.721007	0.000085
1525	1.5164e+02	-19.2861	72.803687	0.000101	1.013363	0.343337	0.000041
1526	1.5174e+02	-19.2460	72.872319	0.000172	1.722717	0.583672	0.000069
1527	1.5184e+02	-19.2043	72.961136	0.000223	2.229399	0.755341	0.000089
1528	1.5194e+02	-19.1658	73.021693	0.000152	1.520045	0.515005	0.000061
1529	1.5204e+02	-19.1225	73.074175	0.000132	1.317372	0.446338	0.000053
1530	1.5214e+02	-19.0888	73.146844	0.000182	1.824054	0.618006	0.000073
1531	1.5224e+02	-19.0438	73.211438	0.000162	1.621381	0.549339	0.000065
1532	1.5233e+02	-19.0102	73.271995	0.000152	1.520045	0.515005	0.000061
1533	1.5243e+02	-18.9620	73.344664	0.000182	1.824054	0.618006	0.000073
1534	1.5253e+02	-18.9316	73.405221	0.000152	1.520045	0.515005	0.000061
1535	1.5263e+02	-18.8834	73.481926	0.000193	1.925390	0.652340	0.000077
1536	1.5273e+02	-18.8417	73.546520	0.000162	1.621381	0.549339	0.000065
1537	1.5283e+02	-18.8032	73.627263	0.000203	2.026726	0.686674	0.000081
1538	1.5293e+02	-18.7631	73.667634	0.000101	1.013363	0.343337	0.000041
1539	1.5303e+02	-18.7166	73.736266	0.000172	1.722717	0.583672	0.000069
1540	1.5313e+02	-18.6877	73.812971	0.000193	1.925390	0.652340	0.000077
1541	1.5323e+02	-18.6428	73.917937	0.000263	2.634744	0.892676	0.000105
1542	1.5333e+02	-18.6155	73.966382	0.000122	1.216036	0.412004	0.000049
1543	1.5343e+02	-18.5594	74.014828	0.000122	1.216036	0.412004	0.000049
1544	1.5353e+02	-18.5257	74.099608	0.000213	2.128063	0.721007	0.000085
1545	1.5363e+02	-18.4856	74.172276	0.000182	1.824054	0.618006	0.000073
1546	1.5373e+02	-18.4439	74.232833	0.000152	1.520045	0.515005	0.000061
1547	1.5383e+02	-18.4070	74.293390	0.000152	1.520045	0.515005	0.000061
1548	1.5393e+02	-18.3749	74.366059	0.000182	1.824054	0.618006	0.000073
1549	1.5403e+02	-18.3348	74.450839	0.000213	2.128063	0.721007	0.000085
1550	1.5413e+02	-18.2899	74.519470	0.000172	1.722717	0.583672	0.000069
1551	1.5422e+02	-18.2449	74.584064	0.000162	1.621381	0.549339	0.000065
1552	1.5432e+02	-18.2096	74.676918	0.000233	2.330735	0.789675	0.000093
1553	1.5442e+02	-18.1631	74.729401	0.000132	1.317372	0.446338	0.000053
1554	1.5452e+02	-18.1278	74.814181	0.000213	2.128063	0.721007	0.000085
1555	1.5462e+02	-18.0909	74.874738	0.000152	1.520045	0.515005	0.000061
1556	1.5472e+02	-18.0524	74.951444	0.000193	1.925390	0.652340	0.000077
1557	1.5482e+02	-18.0027	75.007963	0.000142	1.418709	0.480671	0.000057
1558	1.5492e+02	-17.9690	75.092743	0.000213	2.128063	0.721007	0.000085
1559	1.5502e+02	-17.9369	75.141189	0.000122	1.216036	0.412004	0.000049
1560	1.5512e+02	-17.8776	75.238080	0.000243	2.432072	0.824008	0.000097
1561	1.5522e+02	-17.8455	75.290563	0.000132	1.317372	0.446338	0.000053
1562	1.5532e+02	-17.8054	75.367269	0.000193	1.925390	0.652340	0.000077
1563	1.5542e+02	-17.7669	75.456086	0.000223	2.229399	0.755341	0.000089
1564	1.5552e+02	-17.7268	75.516643	0.000152	1.520045	0.515005	0.000061
1565	1.5562e+02	-17.6963	75.577200	0.000152	1.520045	0.515005	0.000061
1566	1.5572e+02	-17.6514	75.605460	0.000071	0.709354	0.240336	0.000028
1567	1.5582e+02	-17.6161	75.698314	0.000233	2.330735	0.789675	0.000093
1568	1.5592e+02	-17.5647	75.775019	0.000193	1.925390	0.652340	0.000077
1569	1.5602e+02	-17.5359	75.871910	0.000243	2.432072	0.824008	0.000097
1570	1.5612e+02	-17.4958	75.920356	0.000122	1.216036	0.412004	0.000049
1571	1.5622e+02	-17.4476	76.009173	0.000223	2.229399	0.755341	0.000089
1572	1.5631e+02	-17.4043	76.061656	0.000132	1.317372	0.446338	0.000053
1573	1.5641e+02	-17.3706	76.134324	0.000182	1.824054	0.618006	0.000073
1574	1.5651e+02	-17.3353	76.186807	0.000132	1.317372	0.446338	0.000053
1575	1.5661e+02	-17.2840	76.287735	0.000253	2.533408	0.858342	0.000101
1576	1.5671e+02	-17.2471	76.315995	0.000071	0.709354	0.240336	0.000028
1577	1.5681e+02	-17.2246	76.404812	0.000223	2.229399	0.755341	0.000089
1578	1.5691e+02	-17.1733	76.465369	0.000152	1.520045	0.515005	0.000061
1579	1.5701e+02	-17.1364	76.546112	0.000203	2.026726	0.686674	0.000081
1580	1.5711e+02	-17.0915	76.594558	0.000122	1.216036	0.412004	0.000049
1581	1.5721e+02	-17.0546	76.667226	0.000182	1.824054	0.618006	0.000073
1582	1.5731e+02	-17.0033	76.768155	0.000253	2.533408	0.858342	0.000101
1583	1.5741e+02	-16.9776	76.788340	0.000051	0.506682	0.171668	0.000020
1584	1.5751e+02	-16.9343	76.869083	0.000203	2.026726	0.686674	0.000081
1585	1.5761e+02	-16.8974	76.957900	0.000223	2.229399	0.755341	0.000089
1586	1.5771e+02	-16.8493	77.018457	0.000152	1.520045	0.515005	0.000061
1587	1.5781e+02	-16.8108	77.103237	0.000213	2.128063	0.721007	0.000085
1588	1.5791e+02	-16.7642	77.155720	0.000132	1.317372	0.446338	0.000053
1589	1.5801e+02	-16.7338	77.228388	0.000182	1.824054	0.618006	0.000073
1590	1.5811e+02	-16.6953	77.309131	0.000203	2.026726	0.686674	0.000081
1591	1.5821e+02	-16.6551	77.345465	0.000091	0.912027	0.309003	0.000037
1592	1.5830e+02	-16.6134	77.446393	0.000253	2.533408	0.858342	0.000101
1593	1.5840e+02	-16.5701	77.523099	0.000193	1.925390	0.652340	0.000077
1594	1.5850e+02	-16.5316	77.571545	0.000122	1.216036	0.412004	0.000049
1595	1.5860e+02	-16.4899	77.648250	0.000193	1.925390	0.652340	0.000077
1596	1.5870e+02	-16.4530	77.733030	0.000213	2.128063	0.721007	0.000085
1597	1.5880e+02	-16.4129	77.781476	0.000122	1.216036	0.412004	0.000049
1598	1.5890e+02	-16.3744	77.858181	0.000193	1.925390	0.652340	0.000077
1599	1.5900e+02	-16.3311	77.938924	0.000203	2.026726	0.686674	0.000081
1600	1.5910e+02	-16.3006	77.979295	0.000101	1.013363	0.343337	0.000041
1601	1.5920e+02	-16.2493	78.039852	0.000152	1.520045	0.515005	0.000061
1602	1.5930e+02	-16.2108	78.120595	0.000203	2.026726	0.686674	0.000081
1603	1.5940e+02	-16.1819	78.201338	0.000203	2.026726	0.686674	0.000081
1604	1.5950e+02	-16.1322	78.274006	0.000182	1.824054	0.618006	0.000073
1605	1.5960e+02	-16.0889	78.366860	0.000233	2.330735	0.789675	0.000093
1606	1.5970e+02	-16.0503	78.403195	0.000091	0.912027	0.309003	0.000037
1607	1.5980e+02	-16.0135	78.479900	0.000193	1.925390	0.652340	0.000077
1608	1.5990e+02	-15.9798	78.556606	0.000193	1.925390	0.652340	0.000077
1609	1.6000e+02	-15.9284	78.588903	0.000081	0.810691	0.274669	0.000032
1610	1.6010e+02	-15.8931	78.677720	0.000223	2.229399	0.755341	0.000089
1611	1.6019e+02	-15.8562	78.754425	0.000193	1.925390	0.652340	0.000077
1612	1.6029e+02	-15.8209	78.819020	0.000162	1.621381	0.549339	0.000065
1613	1.6039e+02	-15.7776	78.928022	0.000274	2.736081	0.927009	0.000110
1614	1.6049e+02	-15.7375	78.952245	0.000061	0.608018	0.206002	0.000024
1615	1.6059e+02	-15.6942	79.041062	0.000223	2.229399	0.755341	0.000089
1616	1.6069e+02	-15.6653	79.101619	0.000152	1.520045	0.515005	0.000061
1617	1.6079e+02	-15.6252	79.150065	0.000122	1.216036	0.412004	0.000049
1618	1.6089e+02	-15.5803	79.218696	0.000172	1.722717	0.583672	0.000069
1619	1.6099e+02	-15.5434	79.319624	0.000253	2.533408	0.858342	0.000101
1620	1.6109e+02	-15.5001	79.400367	0.000203	2.026726	0.686674	0.000081
1621	1.6119e+02	-15.4616	79.448813	0.000122	1.216036	0.412004	0.000049
1622	1.6129e+02	-15.4247	79.561853	0.000284	2.837417	0.961343	0.000114
1623	1.6139e+02	-15.3830	79.582038	0.000051	0.506682	0.171668	0.000020
1624	1.6149e+02	-15.3429	79.682967	0.000253	2.533408	0.858342	0.000101
1625	1.6159e+02	-15.2980	79.707189	0.000061	0.608018	0.206002	0.000024
1626	1.6169e+02	-15.2611	79.816192	0.000274	2.736081	0.927009	0.000110
1627	1.6179e+02	-15.2274	79.868675	0.000132	1.317372	0.446338	0.000053
1628	1.6189e+02	-15.1696	79.953455	0.000213	2.128063	0.721007	0.000085
1629	1.6199e+02	-15.1375	80.046309	0.000233	2.330735	0.789675	0.000093
1630	1.6209e+02	-15.1103	80.094754	0.000122	1.216036	0.412004	0.000049
1631	1.6219e+02	-15.0589	80.118977	0.000061	0.608018	0.206002	0.000024
1632	1.6228e+02	-15.0236	80.219906	0.000253	2.533408	0.858342	0.000101
1633	1.6238e+02	-14.9803	80.336983	0.000294	2.938753	0.995677	0.000118
1634	1.6248e+02	-14.9370	80.365243	0.000071	0.709354	0.240336	0.000028
1635	1.6258e+02	-14.8825	80.458097	0.000233	2.330735	0.789675	0.000093
1636	1.6268e+02	-14.8680	80.502505	0.000111	1.114700	0.377670	0.000045
1637	1.6278e+02	-14.8199	80.587285	0.000213	2.128063	0.721007	0.000085
1638	1.6288e+02	-14.7766	80.631694	0.000111	1.114700	0.377670	0.000045
1639	1.6298e+02	-14.7445	80.708399	0.000193	1.925390	0.652340	0.000077
1640	1.6308e+02	-14.7076	80.797216	0.000223	2.229399	0.755341	0.000089
1641	1.6318e+02	-14.6659	80.877959	0.000203	2.026726	0.686674	0.000081
1642	1.6328e+02	-14.6130	80.954664	0.000193	1.925390	0.652340	0.000077
1643	1.6338e+02	-14.5809	81.027333	0.000182	1.824054	0.618006	0.000073
1644	1.6348e+02	-14.5440	81.067704	0.000101	1.013363	0.343337	0.000041
1645	1.6358e+02	-14.5055	81.156521	0.000223	2.229399	0.755341	0.000089
1646	1.6368e+02	-14.4718	81.225152	0.000172	1.722717	0.583672	0.000069
1647	1.6378e+02	-14.4156	81.277635	0.000132	1.317372	0.446338	0.000053
1648	1.6388e+02	-14.3771	81.382601	0.000263	2.634744	0.892676	0.000105
1649	1.6398e+02	-14.3402	81.455269	0.000182	1.824054	0.618006	0.000073
1650	1.6408e+02	-14.2969	81.536012	0.000203	2.026726	0.686674	0.000081
1651	1.6418e+02	-14.2632	81.604643	0.000172	1.722717	0.583672	0.000069
1652	1.6427e+02	-14.2199	81.697497	0.000233	2.330735	0.789675	0.000093
1653	1.6437e+02	-14.1766	81.758054	0.000152	1.520045	0.515005	0.000061
1654	1.6447e+02	-14.1429	81.818611	0.000152	1.520045	0.515005	0.000061
1655	1.6457e+02	-14.1092	81.927614	0.000274	2.736081	0.927009	0.000110
1656	1.6467e+02	-14.0675	81.984134	0.000142	1.418709	0.480671	0.000057
1657	1.6477e+02	-14.0178	82.076988	0.000233	2.330735	0.789675	0.000093
1658	1.6487e+02	-13.9809	82.117359	0.000101	1.013363	0.343337	0.000041
1659	1.6497e+02	-13.9376	82.222325	0.000263	2.634744	0.892676	0.000105
1660	1.6507e+02	-13.9071	82.266734	0.000111	1.114700	0.377670	0.000045
1661	1.6517e+02	-13.8686	82.371699	0.000263	2.634744	0.892676	0.000105
1662	1.6527e+02	-13.8269	82.448405	0.000193	1.925390	0.652340	0.000077
1663	1.6537e+02	-13.7804	82.492813	0.000111	1.114700	0.377670	0.000045
1664	1.6547e+02	-13.7483	82.585667	0.000233	2.330735	0.789675	0.000093
1665	1.6557e+02	-13.7034	82.718893	0.000334	3.344099	1.133011	0.000134
1666	1.6567e+02	-13.6713	82.783487	0.000162	1.621381	0.549339	0.000065
1667	1.6577e+02	-13.6312	82.848081	0.000162	1.621381	0.549339	0.000065
1668	1.6587e+02	-13.5814	82.944972	0.000243	2.432072	0.824008	0.000097
1669	1.6597e+02	-13.5461	83.045901	0.000253	2.533408	0.858342	0.000101
1670	1.6607e+02	-13.5012	83.049938	0.000010	0.101336	0.034334	0.000004
1671	1.6616e+02	-13.4627	83.146829	0.000243	2.432072	0.824008	0.000097
1672	1.6626e+02	-13.4290	83.207386	0.000152	1.520045	0.515005	0.000061
1673	1.6636e+02	-13.3841	83.304277	0.000243	2.432072	0.824008	0.000097
1674	1.6646e+02	-13.3424	83.409243	0.000263	2.634744	0.892676	0.000105
1675	1.6656e+02	-13.3039	83.457689	0.000122	1.216036	0.412004	0.000049
1676	1.6666e+02	-13.2686	83.550543	0.000233	2.330735	0.789675	0.000093
1677	1.6676e+02	-13.2317	83.635323	0.000213	2.128063	0.721007	0.000085
1678	1.6686e+02	-13.1852	83.703954	0.000172	1.722717	0.583672	0.000069
1679	1.6696e+02	-13.1499	83.784697	0.000203	2.026726	0.686674	0.000081
1680	1.6706e+02	-13.1146	83.861402	0.000193	1.925390	0.652340	0.000077
1681	1.6716e+02	-13.0713	83.954256	0.000233	2.330735	0.789675	0.000093
1682	1.6726e+02	-13.0248	84.039036	0.000213	2.128063	0.721007	0.000085
1683	1.6736e+02	-12.9798	84.148039	0.000274	2.736081	0.927009	0.000110
1684	1.6746e+02	-12.9430	84.196484	0.000122	1.216036	0.412004	0.000049
1685	1.6756e+02	-12.9077	84.261079	0.000162	1.621381	0.549339	0.000065
1686	1.6766e+02	-12.8756	84.362007	0.000253	2.533408	0.858342	0.000101
1687	1.6776e+02	-12.8323	84.438713	0.000193	1.925390	0.652340	0.000077
1688	1.6786e+02	-12.7873	84.507344	0.000172	1.722717	0.583672	0.000069
1689	1.6796e+02	-12.7537	84.584049	0.000193	1.925390	0.652340	0.000077
1690	1.6806e+02	-12.7184	84.660755	0.000193	1.925390	0.652340	0.000077
1691	1.6816e+02	-12.6702	84.781869	0.000304	3.040090	1.030010	0.000122
1692	1.6825e+02	-12.6253	84.822240	0.000101	1.013363	0.343337	0.000041
1693	1.6835e+02	-12.5852	84.907020	0.000213	2.128063	0.721007	0.000085
1694	1.6845e+02	-12.5483	85.003912	0.000243	2.432072	0.824008	0.000097
1695	1.6855e+02	-12.5114	85.092729	0.000223	2.229399	0.755341	0.000089
1696	1.6865e+02	-12.4665	85.169434	0.000193	1.925390	0.652340	0.000077
1697	1.6875e+02	-12.4312	85.225954	0.000142	1.418709	0.480671	0.000057
1698	1.6885e+02	-12.3927	85.322845	0.000243	2.432072	0.824008	0.000097
1699	1.6895e+02	-12.3382	85.407625	0.000213	2.128063	0.721007	0.000085
1700	1.6905e+02	-12.3125	85.496442	0.000223	2.229399	0.755341	0.000089
1701	1.6915e+02	-12.2628	85.569111	0.000182	1.824054	0.618006	0.000073
1702	1.6925e+02	-12.2323	85.670039	0.000253	2.533408	0.858342	0.000101
1703	1.6935e+02	-12.1874	85.762893	0.000233	2.330735	0.789675	0.000093
1704	1.6945e+02	-12.1521	85.835561	0.000182	1.824054	0.618006	0.000073
1705	1.6955e+02	-12.1087	85.948601	0.000284	2.837417	0.961343	0.000114
1706	1.6965e+02	-12.0783	85.997047	0.000122	1.216036	0.412004	0.000049
1707	1.6975e+02	-12.0237	86.073753	0.000193	1.925390	0.652340	0.000077
1708	1.6985e+02	-11.9916	86.174681	0.000253	2.533408	0.858342	0.000101
1709	1.6995e+02	-11.9563	86.287721	0.000284	2.837417	0.961343	0.000114
1710	1.7005e+02	-11.9114	86.356352	0.000172	1.722717	0.583672	0.000069
1711	1.7015e+02	-11.8729	86.445169	0.000223	2.229399	0.755341	0.000089
1712	1.7024e+02	-11.8344	86.493615	0.000122	1.216036	0.412004	0.000049
1713	1.7034e+02	-11.7959	86.594543	0.000253	2.533408	0.858342	0.000101
1714	1.7044e+02	-11.7510	86.675286	0.000203	2.026726	0.686674	0.000081
1715	1.7054e+02	-11.7141	86.768140	0.000233	2.330735	0.789675	0.000093
1716	1.7064e+02	-11.6708	86.877143	0.000274	2.736081	0.927009	0.000110
1717	1.7074e+02	-11.6371	86.957885	0.000203	2.026726	0.686674	0.000081
1718	1.7084e+02	-11.5922	87.034591	0.000193	1.925390	0.652340	0.000077
1719	1.7094e+02	-11.5553	87.127445	0.000233	2.330735	0.789675	0.000093
1720	1.7104e+02	-11.5136	87.192039	0.000162	1.621381	0.549339	0.000065
1721	1.7114e+02	-11.4719	87.297005	0.000263	2.634744	0.892676	0.000105
1722	1.7124e+02	-11.4366	87.373710	0.000193	1.925390	0.652340	0.000077
1723	1.7134e+02	-11.3949	87.422156	0.000122	1.216036	0.412004	0.000049
1724	1.7144e+02	-11.3516	87.551344	0.000324	3.242762	1.098678	0.000130
1725	1.7154e+02	-11.3227	87.624013	0.000182	1.824054	0.618006	0.000073
1726	1.7164e+02	-11.2778	87.704755	0.000203	2.026726	0.686674	0.000081
1727	1.7174e+02	-11.2344	87.785498	0.000203	2.026726	0.686674	0.000081
1728	1.7184e+02	-11.2056	87.854129	0.000172	1.722717	0.583672	0.000069
1729	1.7194e+02	-11.1639	87.934872	0.000203	2.026726	0.686674	0.000081
1730	1.7204e+02	-11.1109	88.060023	0.000314	3.141426	1.064344	0.000126
1731	1.7213e+02	-11.0740	88.120580	0.000152	1.520045	0.515005	0.000061
1732	1.7223e+02	-11.0323	88.249769	0.000324	3.242762	1.098678	0.000130
1733	1.7233e+02	-10.9906	88.290140	0.000101	1.013363	0.343337	0.000041
1734	1.7243e+02	-10.9665	88.374920	0.000213	2.128063	0.721007	0.000085
1735	1.7253e+02	-10.9152	88.447588	0.000182	1.824054	0.618006	0.000073
1736	1.7263e+02	-10.8767	88.564665	0.000294	2.938753	0.995677	0.000118
1737	1.7273e+02	-10.8382	88.633297	0.000172	1.722717	0.583672	0.000069
1738	1.7283e+02	-10.7885	88.714039	0.000203	2.026726	0.686674	0.000081
1739	1.7293e+02	-10.7596	88.802856	0.000223	2.229399	0.755341	0.000089
1740	1.7303e+02	-10.7259	88.867450	0.000162	1.621381	0.549339	0.000065
1741	1.7313e+02	-10.6698	88.972416	0.000263	2.634744	0.892676	0.000105
1742	1.7323e+02	-10.6345	89.065270	0.000233	2.330735	0.789675	0.000093
1743	1.7333e+02	-10.5927	89.125827	0.000152	1.520045	0.515005	0.000061
1744	1.7343e+02	-10.5575	89.210607	0.000213	2.128063	0.721007	0.000085
1745	1.7353e+02	-10.5190	89.327684	0.000294	2.938753	0.995677	0.000118
1746	1.7363e+02	-10.4885	89.384204	0.000142	1.418709	0.480671	0.000057
1747	1.7373e+02	-10.4355	89.464947	0.000203	2.026726	0.686674	0.000081
1748	1.7383e+02	-10.3890	89.533578	0.000172	1.722717	0.583672	0.000069
1749	1.7393e+02	-10.3553	89.610283	0.000193	1.925390	0.652340	0.000077
1750	1.7403e+02	-10.3200	89.727360	0.000294	2.938753	0.995677	0.000118
1751	1.7413e+02	-10.2831	89.791955	0.000162	1.621381	0.549339	0.000065
1752	1.7422e+02	-10.2366	89.864623	0.000182	1.824054	0.618006	0.000073
1753	1.7432e+02	-10.2045	89.989774	0.000314	3.141426	1.064344	0.000126
1754	1.7442e+02	-10.1644	90.046294	0.000142	1.418709	0.480671	0.000057
1755	1.7452e+02	-10.1227	90.127037	0.000203	2.026726	0.686674	0.000081
1756	1.7462e+02	-10.0778	90.207779	0.000203	2.026726	0.686674	0.000081
1757	1.7472e+02	-10.0393	90.264299	0.000142	1.418709	0.480671	0.000057
1758	1.7482e+02	-10.0040	90.365228	0.000253	2.533408	0.858342	0.000101
1759	1.7492e+02	-9.9591	90.454045	0.000223	2.229399	0.755341	0.000089
1760	1.7502e+02	-9.9174	90.575159	0.000304	3.040090	1.030010	0.000122
1761	1.7512e+02	-9.8821	90.627642	0.000132	1.317372	0.446338	0.000053
1762	1.7522e+02	-9.8372	90.720496	0.000233	2.330735	0.789675	0.000093
1763	1.7532e+02	-9.7954	90.829498	0.000274	2.736081	0.927009	0.000110
1764	1.7542e+02	-9.7553	90.869870	0.000101	1.013363	0.343337	0.000041
1765	1.7552e+02	-9.7265	90.982910	0.000284	2.837417	0.961343	0.000114
1766	1.7562e+02	-9.6751	91.027318	0.000111	1.114700	0.377670	0.000045
1767	1.7572e+02	-9.6398	91.124209	0.000243	2.432072	0.824008	0.000097
1768	1.7582e+02	-9.5965	91.188803	0.000162	1.621381	0.549339	0.000065
1769	1.7592e+02	-9.5644	91.273583	0.000213	2.128063	0.721007	0.000085
1770	1.7602e+02	-9.5243	91.374512	0.000253	2.533408	0.858342	0.000101
1771	1.7612e+02	-9.4842	91.455254	0.000203	2.026726	0.686674	0.000081
1772	1.7621e+02	-9.4393	91.499663	0.000111	1.114700	0.377670	0.000045
1773	1.7631e+02	-9.4008	91.632888	0.000334	3.344099	1.133011	0.000134
1774	1.7641e+02	-9.3623	91.709594	0.000193	1.925390	0.652340	0.000077
1775	1.7651e+02	-9.3158	91.782262	0.000182	1.824054	0.618006	0.000073
1776	1.7661e+02	-9.2805	91.850894	0.000172	1.722717	0.583672	0.000069
1777	1.7671e+02	-9.2468	91.955859	0.000263	2.634744	0.892676	0.000105
1778	1.7681e+02	-9.2035	92.024491	0.000172	1.722717	0.583672	0.000069
1779	1.7691e+02	-9.1698	92.141568	0.000294	2.938753	0.995677	0.000118
1780	1.7701e+02	-9.1217	92.214236	0.000182	1.824054	0.618006	0.000073
1781	1.7711e+02	-9.0832	92.299016	0.000213	2.128063	0.721007	0.000085
1782	1.7721e+02	-9.0431	92.363610	0.000162	1.621381	0.549339	0.000065
1783	1.7731e+02	-9.0030	92.444353	0.000203	2.026726	0.686674	0.000081
1784	1.7741e+02	-8.9645	92.529133	0.000213	2.128063	0.721007	0.000085
1785	1.7751e+02	-8.9227	92.617950	0.000223	2.229399	0.755341	0.000089
1786	1.7761e+02	-8.8794	92.718878	0.000253	2.533408	0.858342	0.000101
1787	1.7771e+02	-8.8457	92.787509	0.000172	1.722717	0.583672	0.000069
1788	1.7781e+02	-8.8040	92.860178	0.000182	1.824054	0.618006	0.000073
1789	1.7791e+02	-8.7575	92.965143	0.000263	2.634744	0.892676	0.000105
1790	1.7801e+02	-8.7318	93.090294	0.000314	3.141426	1.064344	0.000126
1791	1.7810e+02	-8.6789	93.134703	0.000111	1.114700	0.377670	0.000045
1792	1.7820e+02	-8.6468	93.191223	0.000142	1.418709	0.480671	0.000057
1793	1.7830e+02	-8.6051	93.304263	0.000284	2.837417	0.961343	0.000114
1794	1.7840e+02	-8.5682	93.385005	0.000203	2.026726	0.686674	0.000081
1795	1.7850e+02	-8.5297	93.494008	0.000274	2.736081	0.927009	0.000110
1796	1.7860e+02	-8.4880	93.546491	0.000132	1.317372	0.446338	0.000053
1797	1.7870e+02	-8.4238	93.594936	0.000122	1.216036	0.412004	0.000049
1798	1.7880e+02	-8.4110	93.716050	0.000304	3.040090	1.030010	0.000122
1799	1.7890e+02	-8.3725	93.780645	0.000162	1.621381	0.549339	0.000065
1800	1.7900e+02	-8.3212	93.873499	0.000233	2.330735	0.789675	0.000093
1801	1.7910e+02	-8.2859	93.950204	0.000193	1.925390	0.652340	0.000077
1802	1.7920e+02	-8.2393	94.071318	0.000304	3.040090	1.030010	0.000122
1803	1.7930e+02	-8.2040	94.127838	0.000142	1.418709	0.480671	0.000057
1804	1.7940e+02	-8.1671	94.212618	0.000213	2.128063	0.721007	0.000085
1805	1.7950e+02	-8.1335	94.277212	0.000162	1.621381	0.549339	0.000065
1806	1.7960e+02	-8.0934	94.374104	0.000243	2.432072	0.824008	0.000097
1807	1.7970e+02	-8.0484	94.503292	0.000324	3.242762	1.098678	0.000130
1808	1.7980e+02	-8.0083	94.559812	0.000142	1.418709	0.480671	0.000057
1809	1.7990e+02	-7.9682	94.672852	0.000284	2.837417	0.961343	0.000114
1810	1.8000e+02	-7.9265	94.713223	0.000101	1.013363	0.343337	0.000041
1811	1.8009e+02	-7.8880	94.826263	0.000284	2.837417	0.961343	0.000114
1812	1.8019e+02	-7.8479	94.947377	0.000304	3.040090	1.030010	0.000122
1813	1.8029e+02	-7.8110	94.987748	0.000101	1.013363	0.343337	0.000041
1814	1.8039e+02	-7.7629	95.068491	0.000203	2.026726	0.686674	0.000081
1815	1.8049e+02	-7.7228	95.177494	0.000274	2.736081	0.927009	0.000110
1816	1.8059e+02	-7.6907	95.266311	0.000223	2.229399	0.755341	0.000089
1817	1.8069e+02	-7.6490	95.334942	0.000172	1.722717	0.583672	0.000069
1818	1.8079e+02	-7.6025	95.415685	0.000203	2.026726	0.686674	0.000081
1819	1.8089e+02	-7.5624	95.492390	0.000193	1.925390	0.652340	0.000077
1820	1.8099e+02	-7.5287	95.613504	0.000304	3.040090	1.030010	0.000122
1821	1.8109e+02	-7.4805	95.706358	0.000233	2.330735	0.789675	0.000093
1822	1.8119e+02	-7.4517	95.803250	0.000243	2.432072	0.824008	0.000097
1823	1.8129e+02	-7.4228	95.896104	0.000233	2.330735	0.789675	0.000093
1824	1.8139e+02	-7.3763	95.984921	0.000223	2.229399	0.755341	0.000089
1825	1.8149e+02	-7.3329	96.085849	0.000253	2.533408	0.858342	0.000101
1826	1.8159e+02	-7.2832	96.114109	0.000071	0.709354	0.240336	0.000028
1827	1.8169e+02	-7.2479	96.255409	0.000355	3.546771	1.201679	0.000142
1828	1.8179e+02	-7.2062	96.336152	0.000203	2.026726	0.686674	0.000081
1829	1.8189e+02	-7.1789	96.408820	0.000182	1.824054	0.618006	0.000073
1830	1.8199e+02	-7.1356	96.529934	0.000304	3.040090	1.030010	0.000122
1831	1.8209e+02	-7.0955	96.610677	0.000203	2.026726	0.686674	0.000081
1832	1.8218e+02	-7.0474	96.687382	0.000193	1.925390	0.652340	0.000077
1833	1.8228e+02	-7.0089	96.772162	0.000213	2.128063	0.721007	0.000085
1834	1.8238e+02	-6.9688	96.889239	0.000294	2.938753	0.995677	0.000118
1835	1.8248e+02	-6.9303	97.022465	0.000334	3.344099	1.133011	0.000134
1836	1.8258e+02	-6.8918	97.091096	0.000172	1.722717	0.583672	0.000069
1837	1.8268e+02	-6.8549	97.135504	0.000111	1.114700	0.377670	0.000045
1838	1.8278e+02	-6.8148	97.284878	0.000375	3.749444	1.270346	0.000150
1839	1.8288e+02	-6.7731	97.369658	0.000213	2.128063	0.721007	0.000085
1840	1.8298e+02	-6.7314	97.450401	0.000203	2.026726	0.686674	0.000081
1841	1.8308e+02	-6.6945	97.543255	0.000233	2.330735	0.789675	0.000093
1842	1.8318e+02	-6.6479	97.628035	0.000213	2.128063	0.721007	0.000085
1843	1.8328e+02	-6.6126	97.728963	0.000253	2.533408	0.858342	0.000101
1844	1.8338e+02	-6.5806	97.850077	0.000304	3.040090	1.030010	0.000122
1845	1.8348e+02	-6.5276	97.898523	0.000122	1.216036	0.412004	0.000049
1846	1.8358e+02	-6.4891	98.003489	0.000263	2.634744	0.892676	0.000105
1847	1.8368e+02	-6.4506	98.132677	0.000324	3.242762	1.098678	0.000130
1848	1.8378e+02	-6.4041	98.205345	0.000182	1.824054	0.618006	0.000073
1849	1.8388e+02	-6.3752	98.290125	0.000213	2.128063	0.721007	0.000085
1850	1.8398e+02	-6.3303	98.395091	0.000263	2.634744	0.892676	0.000105
1851	1.8407e+02	-6.2950	98.479871	0.000213	2.128063	0.721007	0.000085
1852	1.8417e+02	-6.2597	98.564650	0.000213	2.128063	0.721007	0.000085
1853	1.8427e+02	-6.2228	98.653467	0.000223	2.229399	0.755341	0.000089
1854	1.8437e+02	-6.1763	98.738247	0.000213	2.128063	0.721007	0.000085
1855	1.8447e+02	-6.1298	98.855324	0.000294	2.938753	0.995677	0.000118
1856	1.8457e+02	-6.0945	98.980475	0.000314	3.141426	1.064344	0.000126
1857	1.8467e+02	-6.0624	99.077367	0.000243	2.432072	0.824008	0.000097
1858	1.8477e+02	-6.0223	99.158109	0.000203	2.026726	0.686674	0.000081
1859	1.8487e+02	-5.9822	99.246926	0.000223	2.229399	0.755341	0.000089
1860	1.8497e+02	-5.9341	99.351892	0.000263	2.634744	0.892676	0.000105
1861	1.8507e+02	-5.8907	99.436672	0.000213	2.128063	0.721007	0.000085
1862	1.8517e+02	-5.8571	99.553749	0.000294	2.938753	0.995677	0.000118
1863	1.8527e+02	-5.8137	99.646603	0.000233	2.330735	0.789675	0.000093
1864	1.8537e+02	-5.7752	99.731383	0.000213	2.128063	0.721007	0.000085
1865	1.8547e+02	-5.7448	99.816163	0.000213	2.128063	0.721007	0.000085
1866	1.8557e+02	-5.7030	99.925165	0.000274	2.736081	0.927009	0.000110
1867	1.8567e+02	-5.6581	100.066465	0.000355	3.546771	1.201679	0.000142
1868	1.8577e+02	-5.6276	100.114911	0.000122	1.216036	0.412004	0.000049
1869	1.8587e+02	-5.5859	100.227950	0.000284	2.837417	0.961343	0.000114
1870	1.8597e+02	-5.5410	100.300619	0.000182	1.824054	0.618006	0.000073
1871	1.8606e+02	-5.5009	100.454030	0.000385	3.850780	1.304680	0.000154
1872	1.8616e+02	-5.4560	100.522661	0.000172	1.722717	0.583672	0.000069
1873	1.8626e+02	-5.4223	100.615515	0.000233	2.330735	0.789675	0.000093
1874	1.8636e+02	-5.3790	100.720481	0.000263	2.634744	0.892676	0.000105
1875	1.8646e+02	-5.3325	100.817372	0.000243	2.432072	0.824008	0.000097
1876	1.8656e+02	-5.2988	100.918301	0.000253	2.533408	0.858342	0.000101
1877	1.8666e+02	-5.2587	101.035378	0.000294	2.938753	0.995677	0.000118
1878	1.8676e+02	-5.2250	101.128232	0.000233	2.330735	0.789675	0.000093
1879	1.8686e+02	-5.1785	101.217049	0.000223	2.229399	0.755341	0.000089
1880	1.8696e+02	-5.1464	101.326051	0.000274	2.736081	0.927009	0.000110
1881	1.8706e+02	-5.1015	101.467351	0.000355	3.546771	1.201679	0.000142
1882	1.8716e+02	-5.0662	101.519834	0.000132	1.317372	0.446338	0.000053
1883	1.8726e+02	-5.0245	101.612688	0.000233	2.330735	0.789675	0.000093
1884	1.8736e+02	-4.9811	101.733802	0.000304	3.040090	1.030010	0.000122
1885	1.8746e+02	-4.9362	101.834730	0.000253	2.533408	0.858342	0.000101
1886	1.8756e+02	-4.9041	101.895287	0.000152	1.520045	0.515005	0.000061
1887	1.8766e+02	-4.8656	102.028513	0.000334	3.344099	1.133011	0.000134
1888	1.8776e+02	-4.8175	102.169813	0.000355	3.546771	1.201679	0.000142
1889	1.8786e+02	-4.7838	102.246518	0.000193	1.925390	0.652340	0.000077
1890	1.8796e+02	-4.7421	102.327261	0.000203	2.026726	0.686674	0.000081
1891	1.8806e+02	-4.6988	102.416078	0.000223	2.229399	0.755341	0.000089
1892	1.8815e+02	-4.6555	102.504895	0.000223	2.229399	0.755341	0.000089
1893	1.8825e+02	-4.6378	102.621972	0.000294	2.938753	0.995677	0.000118
1894	1.8835e+02	-4.5897	102.743086	0.000304	3.040090	1.030010	0.000122
1895	1.8845e+02	-4.5448	102.848051	0.000263	2.634744	0.892676	0.000105
1896	1.8855e+02	-4.5047	102.944943	0.000243	2.432072	0.824008	0.000097
1897	1.8865e+02	-4.4630	103.021648	0.000193	1.925390	0.652340	0.000077
1898	1.8875e+02	-4.4213	103.106428	0.000213	2.128063	0.721007	0.000085
1899	1.8885e+02	-4.3796	103.235617	0.000324	3.242762	1.098678	0.000130
1900	1.8895e+02	-4.3394	103.320396	0.000213	2.128063	0.721007	0.000085
1901	1.8905e+02	-4.3058	103.461696	0.000355	3.546771	1.201679	0.000142
1902	1.8915e+02	-4.2624	103.510142	0.000122	1.216036	0.412004	0.000049
1903	1.8925e+02	-4.2272	103.655479	0.000365	3.648108	1.236012	0.000146
1904	1.8935e+02	-4.1790	103.752370	0.000243	2.432072	0.824008	0.000097
1905	1.8945e+02	-4.1469	103.816964	0.000162	1.621381	0.549339	0.000065
1906	1.8955e+02	-4.1020	103.934041	0.000294	2.938753	0.995677	0.000118
1907	1.8965e+02	-4.0667	104.022858	0.000223	2.229399	0.755341	0.000089
1908	1.8975e+02	-4.0250	104.143972	0.000304	3.040090	1.030010	0.000122
1909	1.8985e+02	-3.9865	104.220678	0.000193	1.925390	0.652340	0.000077
1910	1.8995e+02	-3.9576	104.329680	0.000274	2.736081	0.927009	0.000110
1911	1.9004e+02	-3.9015	104.426572	0.000243	2.432072	0.824008	0.000097
1912	1.9014e+02	-3.8614	104.527500	0.000253	2.533408	0.858342	0.000101
1913	1.9024e+02	-3.8213	104.596131	0.000172	1.722717	0.583672	0.000069
1914	1.9034e+02	-3.7908	104.701097	0.000263	2.634744	0.892676	0.000105
1915	1.9044e+02	-3.7395	104.814137	0.000284	2.837417	0.961343	0.000114
1916	1.9054e+02	-3.7074	104.923139	0.000274	2.736081	0.927009	0.000110
1917	1.9064e+02	-3.6673	105.040216	0.000294	2.938753	0.995677	0.000118
1918	1.9074e+02	-3.6256	105.149219	0.000274	2.736081	0.927009	0.000110
1919	1.9084e+02	-3.5806	105.221887	0.000182	1.824054	0.618006	0.000073
1920	1.9094e+02	-3.5470	105.322816	0.000253	2.533408	0.858342	0.000101
1921	1.9104e+02	-3.5020	105.407596	0.000213	2.128063	0.721007	0.000085
1922	1.9114e+02	-3.4716	105.524672	0.000294	2.938753	0.995677	0.000118
1923	1.9124e+02	-3.4202	105.649824	0.000314	3.141426	1.064344	0.000126
1924	1.9134e+02	-3.3881	105.722492	0.000182	1.824054	0.618006	0.000073
1925	1.9144e+02	-3.3528	105.807272	0.000213	2.128063	0.721007	0.000085
1926	1.9154e+02	-3.3095	105.904163	0.000243	2.432072	0.824008	0.000097
1927	1.9164e+02	-3.2646	105.988943	0.000213	2.128063	0.721007	0.000085
1928	1.9174e+02	-3.2197	106.130243	0.000355	3.546771	1.201679	0.000142
1929	1.9184e+02	-3.1924	106.206948	0.000193	1.925390	0.652340	0.000077
1930	1.9194e+02	-3.1523	106.332100	0.000314	3.141426	1.064344	0.000126
1931	1.9203e+02	-3.1202	106.437065	0.000263	2.634744	0.892676	0.000105
1932	1.9213e+02	-3.0657	106.509734	0.000182	1.824054	0.618006	0.000073
1933	1.9223e+02	-3.0272	106.630848	0.000304	3.040090	1.030010	0.000122
1934	1.9233e+02	-2.9903	106.727739	0.000243	2.432072	0.824008	0.000097
1935	1.9243e+02	-2.9438	106.816556	0.000223	2.229399	0.755341	0.000089
1936	1.9253e+02	-2.9101	106.917484	0.000253	2.533408	0.858342	0.000101
1937	1.9263e+02	-2.8716	107.006301	0.000223	2.229399	0.755341	0.000089
1938	1.9273e+02	-2.8299	107.135490	0.000324	3.242762	1.098678	0.000130
1939	1.9283e+02	-2.7898	107.216232	0.000203	2.026726	0.686674	0.000081
1940	1.9293e+02	-2.7416	107.313124	0.000243	2.432072	0.824008	0.000097
1941	1.9303e+02	-2.7160	107.442312	0.000324	3.242762	1.098678	0.000130
1942	1.9313e+02	-2.6743	107.543240	0.000253	2.533408	0.858342	0.000101
1943	1.9323e+02	-2.6277	107.648206	0.000263	2.634744	0.892676	0.000105
1944	1.9333e+02	-2.5892	107.749134	0.000253	2.533408	0.858342	0.000101
1945	1.9343e+02	-2.5459	107.850063	0.000253	2.533408	0.858342	0.000101
1946	1.9353e+02	-2.5138	107.946954	0.000243	2.432072	0.824008	0.000097
1947	1.9363e+02	-2.4689	108.003474	0.000142	1.418709	0.480671	0.000057
1948	1.9373e+02	-2.4336	108.128625	0.000314	3.141426	1.064344	0.000126
1949	1.9383e+02	-2.3855	108.209368	0.000203	2.026726	0.686674	0.000081
1950	1.9393e+02	-2.3406	108.346630	0.000345	3.445435	1.167345	0.000138
1951	1.9403e+02	-2.3133	108.459670	0.000284	2.837417	0.961343	0.000114
1952	1.9412e+02	-2.2732	108.544450	0.000213	2.128063	0.721007	0.000085
1953	1.9422e+02	-2.2379	108.637304	0.000233	2.330735	0.789675	0.000093
1954	1.9432e+02	-2.1914	108.746307	0.000274	2.736081	0.927009	0.000110
1955	1.9442e+02	-2.1465	108.851272	0.000263	2.634744	0.892676	0.000105
1956	1.9452e+02	-2.1128	108.976424	0.000314	3.141426	1.064344	0.000126
1957	1.9462e+02	-2.0727	109.077352	0.000253	2.533408	0.858342	0.000101
1958	1.9472e+02	-2.0294	109.137909	0.000152	1.520045	0.515005	0.000061
1959	1.9482e+02	-1.9957	109.271134	0.000334	3.344099	1.133011	0.000134
1960	1.9492e+02	-1.9556	109.363989	0.000233	2.330735	0.789675	0.000093
1961	1.9502e+02	-1.9155	109.448768	0.000213	2.128063	0.721007	0.000085
1962	1.9512e+02	-1.8721	109.549697	0.000253	2.533408	0.858342	0.000101
1963	1.9522e+02	-1.8352	109.646588	0.000243	2.432072	0.824008	0.000097
1964	1.9532e+02	-1.7935	109.743479	0.000243	2.432072	0.824008	0.000097
1965	1.9542e+02	-1.7502	109.864593	0.000304	3.040090	1.030010	0.000122
1966	1.9552e+02	-1.7117	109.969559	0.000263	2.634744	0.892676	0.000105
1967	1.9562e+02	-1.6636	110.054339	0.000213	2.128063	0.721007	0.000085
1968	1.9572e+02	-1.6315	110.187564	0.000334	3.344099	1.133011	0.000134
1969	1.9582e+02	-1.5898	110.280418	0.000233	2.330735	0.789675	0.000093
1970	1.9592e+02	-1.5481	110.389421	0.000274	2.736081	0.927009	0.000110
1971	1.9601e+02	-1.5080	110.494387	0.000263	2.634744	0.892676	0.000105
1972	1.9611e+02	-1.4839	110.619538	0.000314	3.141426	1.064344	0.000126
1973	1.9621e+02	-1.4374	110.720466	0.000253	2.533408	0.858342	0.000101
1974	1.9631e+02	-1.3925	110.805246	0.000213	2.128063	0.721007	0.000085
1975	1.9641e+02	-1.3604	110.938472	0.000334	3.344099	1.133011	0.000134
1976	1.9651e+02	-1.3123	110.999029	0.000152	1.520045	0.515005	0.000061
1977	1.9661e+02	-1.2802	111.148403	0.000375	3.749444	1.270346	0.000150
1978	1.9671e+02	-1.2337	111.221071	0.000182	1.824054	0.618006	0.000073
1979	1.9681e+02	-1.1984	111.338148	0.000294	2.938753	0.995677	0.000118
1980	1.9691e+02	-1.1583	111.414854	0.000193	1.925390	0.652340	0.000077
1981	1.9701e+02	-1.1198	111.576339	0.000405	4.053453	1.373347	0.000162
1982	1.9711e+02	-1.0764	111.657082	0.000203	2.026726	0.686674	0.000081
1983	1.9721e+02	-1.0460	111.758010	0.000253	2.533408	0.858342	0.000101
1984	1.9731e+02	-0.9994	111.862976	0.000263	2.634744	0.892676	0.000105
1985	1.9741e+02	-0.9529	111.971978	0.000274	2.736081	0.927009	0.000110
1986	1.9751e+02	-0.9176	112.076944	0.000263	2.634744	0.892676	0.000105
1987	1.9761e+02	-0.8807	112.230355	0.000385	3.850780	1.304680	0.000154
1988	1.9771e+02	-0.8454	112.327246	0.000243	2.432072	0.824008	0.000097
1989	1.9781e+02	-0.7941	112.424137	0.000243	2.432072	0.824008	0.000097
1990	1.9791e+02	-0.7556	112.541214	0.000294	2.938753	0.995677	0.000118
1991	1.9800e+02	-0.7155	112.650217	0.000274	2.736081	0.927009	0.000110
1992	1.9810e+02	-0.6738	112.763257	0.000284	2.837417	0.961343	0.000114
1993	1.9820e+02	-0.6353	112.860148	0.000243	2.432072	0.824008	0.000097
1994	1.9830e+02	-0.5984	112.993374	0.000334	3.344099	1.133011	0.000134
1995	1.9840e+02	-0.5519	113.094302	0.000253	2.533408	0.858342	0.000101
1996	1.9850e+02	-0.5278	113.183119	0.000223	2.229399	0.755341	0.000089
1997	1.9860e+02	-0.4716	113.308270	0.000314	3.141426	1.064344	0.000126
1998	1.9870e+02	-0.4428	113.405161	0.000243	2.432072	0.824008	0.000097
1999	1.9880e+02	-0.4027	113.546461	0.000355	3.546771	1.201679	0.000142
2000	1.9890e+02	-0.3626	113.655464	0.000274	2.736081	0.927009	0.000110
2001	1.9900e+02	-0.3128	113.784652	0.000324	3.242762	1.098678	0.000130
2002	1.9910e+02	-0.2807	113.865395	0.000203	2.026726	0.686674	0.000081
2003	1.9920e+02	-0.2374	113.982472	0.000294	2.938753	0.995677	0.000118
2004	1.9930e+02	-0.1989	114.083400	0.000253	2.533408	0.858342	0.000101
2005	1.9940e+02	-0.1524	114.212589	0.000324	3.242762	1.098678	0.000130
2006	1.9950e+02	-0.1283	114.349851	0.000345	3.445435	1.167345	0.000138
2007	1.9960e+02	-0.0850	114.430594	0.000203	2.026726	0.686674	0.000081
2008	1.9970e+02	-0.0417	114.543634	0.000284	2.837417	0.961343	0.000114
2009	1.9980e+02	-0.0016	114.664748	0.000284	2.837417	0.961343	0.000122

Center data before PMax,+/-Pr and +/-Vc Calc.

PMax (uC/cm2):	8.26e-01
Pr (uC/cm2):	1.18e+02
-Pr (uC/cm2):	1.15e+02
PLoss (uC/cm2):	2.53e+02
Vc:	2.00e+01
C (Max-Eff) (nF):	4.13e-03
K (Eff):	1.40e+01
Vert. (+/-Pr) Shift (uC/cm2):	1.16e+02
Offset (uC/cm2):	1.39e+02

A (Loop Area - uC/cm2·Volts):	-8.02e+00



Hysteresis Version: 5.48.1 - Radiant Technologies, Inc., 1999 - 9/12/24

