»»»»»»»»»»»»»»»»»»»»»»»»»»»»»»»»»»»» Hysteresis ««««««««««««««««««««««««««««««««««««
»»»  Executed Version:	5.48.1
»»»  Vision Version:	5.48.4 (R)
»»»  Vision Compiled:	9/18/24
»»»  Driver Version:	5.47.0
»»»  Windows Version:	Windows 8 or 8.1
»»»  Processor Information:	x86 (AMD or Intel) - 32 Processors
»»»  Tester Name:	PMF21124-494 (100V)
»»»  Tester S/N:	PMF21124-494
»»»  Internal Amp Type:	100V RevK 270k
»»»  Internal Amp S/N:	iAB2-596/K     
»»»  Execution Count:	1
»»»»»»»»»»»»»»»»»»»»»»»»»»»»»»»»»»»»»»»»»»««««««««««««««««««««««««««««««««««««««««««

Stored:	6/9/2025 - 11:29:18
Configured:	06/09/25 11:17:29 AM
Executed:	06/09/25 11:28:52 AM

»»»»»»»»»»»»»»»»»»»»»»»»»»»»»»»»»»» Sample Info ««««««««««««««««««««««««««««««««««««
Sample Name:	
Lot Name:	
Wafer Name:	
Die Row/Column:	0/0
Capacitor Number:	0
Sample Area (cm2):	1.00e-04
Sample Thickness (microns):	3.00e-01

Amplifier:	Internal

»»»»»»»»»»»»»»»»»»»»»»»»»»»»»»»»»»» Tester Info «««««««««««««««««««««««««««««««««««
Tester Name:	PMF21124-494 (100V)
Tester Serial Number:	PMF21124-494
Return Signal Amp. Level:	1.79 [Index: 2]

»»»»»»»»»»»»»»»»»»»»»»»»»»»»»»»» Hysteresis Info ««««««««««««««««««««««««««««««««««
Task Name:	Hyst-785
Volts:	20.00
Field:	666.67 (kV/cm)
DCBias:	0.00
DCField:	0.00 (kV/cm)
Hysteresis Period (ms):	1.00e+00
Preset:	Enabled
Preset Delay (ms):	1.00e+03
Profile:	Standard Bipolar

»»»»»»»»»»»»»»»»»»»»»»»»»»»»»»»»»»»»»» Data «««««««««««««««««««««««««««««««««««««««
Points:	2001

Valid Data

Point	Time (ms)	Drive Voltage	Measured Polarization (uC/cm2)	Capacitance (uF)	Normalized Capacitance (uF/cm2)	Dielectric Constant	Instantaneous Current (mA)
   1	0.0000e+00	0.0690	-0.827455	-0.000014	-0.135321	-0.045848	0.001112
   2	5.0000e-04	0.0064	-0.821896	-0.000014	-0.135321	-0.045848	0.001112
   3	1.0000e-03	0.1171	-0.815054	0.000017	0.166549	0.056428	0.001368
   4	1.5000e-03	0.1636	-0.799659	0.000037	0.374734	0.126963	0.003079
   5	2.0000e-03	0.2118	-0.782127	0.000043	0.426781	0.144597	0.003507
   6	2.5000e-03	0.2053	-0.752193	-0.000073	-0.728650	-0.246873	0.005987
   7	3.0000e-03	0.2663	-0.722687	0.000072	0.718240	0.243346	0.005901
   8	3.5000e-03	0.2904	-0.688049	0.000084	0.843152	0.285668	0.006928
   9	4.0000e-03	0.3658	-0.643148	0.000109	1.092975	0.370310	0.008980
  10	4.5000e-03	0.3802	-0.599531	0.000106	1.061747	0.359730	0.008724
  11	5.0000e-03	0.4075	-0.551209	0.000118	1.176249	0.398524	0.009664
  12	5.5000e-03	0.4716	-0.492624	0.000143	1.426072	0.483166	0.011717
  13	6.0000e-03	0.4781	-0.437888	0.000133	1.332388	0.451425	0.010947
  14	6.5000e-03	0.5535	-0.376738	0.000149	1.488527	0.504327	0.012230
  15	7.0000e-03	0.5727	-0.314305	0.000152	1.519755	0.514907	0.012487
  16	7.5000e-03	0.6273	-0.247167	0.000163	1.634257	0.553701	0.013427
  17	8.0000e-03	0.6786	-0.177464	0.000170	1.696713	0.574862	0.013941
  18	8.5000e-03	0.7123	-0.105196	0.000176	1.759169	0.596023	0.014454
  19	9.0000e-03	0.7428	-0.026085	0.000193	1.925717	0.652451	0.015822
  20	9.5000e-03	0.7989	0.047466	0.000179	1.790397	0.606603	0.014710
  21	1.0000e-02	0.8326	0.130853	0.000203	2.029810	0.687718	0.016677
  22	1.0500e-02	0.8679	0.207826	0.000187	1.873671	0.634817	0.015395
  23	1.1000e-02	0.9032	0.289502	0.000199	1.988173	0.673611	0.016335
  24	1.1500e-02	0.9449	0.379731	0.000220	2.196359	0.744146	0.018046
  25	1.2000e-02	0.9930	0.464401	0.000206	2.061038	0.698299	0.016934
  26	1.2500e-02	1.0347	0.549926	0.000208	2.081857	0.705352	0.017105
  27	1.3000e-02	1.0796	0.639300	0.000218	2.175540	0.737093	0.017875
  28	1.3500e-02	1.0989	0.726108	0.000211	2.113084	0.715932	0.017362
  29	1.4000e-02	1.1518	0.818902	0.000226	2.258814	0.765307	0.018559
  30	1.4500e-02	1.1791	0.909131	0.000220	2.196359	0.744146	0.018046
  31	1.5000e-02	1.2304	1.008768	0.000243	2.425363	0.821735	0.019927
  32	1.5500e-02	1.2577	1.095576	0.000211	2.113084	0.715932	0.017362
  33	1.6000e-02	1.3010	1.187943	0.000225	2.248405	0.761780	0.018473
  34	1.6500e-02	1.3652	1.287580	0.000243	2.425363	0.821735	0.019927
  35	1.7000e-02	1.4101	1.376526	0.000217	2.165131	0.733566	0.017789
  36	1.7500e-02	1.4406	1.476590	0.000244	2.435772	0.825262	0.020013
  37	1.8000e-02	1.4679	1.574944	0.000239	2.394135	0.811155	0.019671
  38	1.8500e-02	1.4887	1.670732	0.000233	2.331679	0.789994	0.019158
  39	1.9000e-02	1.5385	1.769513	0.000240	2.404544	0.814682	0.019756
  40	1.9500e-02	1.5721	1.867867	0.000239	2.394135	0.811155	0.019671
  41	2.0000e-02	1.6347	1.961945	0.000229	2.290042	0.775887	0.018816
  42	2.0500e-02	1.6652	2.063720	0.000248	2.477409	0.839369	0.020355
  43	2.1000e-02	1.7117	2.162501	0.000240	2.404544	0.814682	0.019756
  44	2.1500e-02	1.7550	2.258717	0.000234	2.342089	0.793521	0.019243
  45	2.2000e-02	1.7951	2.363057	0.000254	2.539865	0.860530	0.020868
  46	2.2500e-02	1.8577	2.457990	0.000231	2.310861	0.782941	0.018987
  47	2.3000e-02	1.8673	2.560193	0.000249	2.487819	0.842896	0.020440
  48	2.3500e-02	1.9122	2.655125	0.000231	2.310861	0.782941	0.018987
  49	2.4000e-02	1.9475	2.762887	0.000262	2.623139	0.888744	0.021552
  50	2.4500e-02	1.9925	2.857820	0.000231	2.310861	0.782941	0.018987
  51	2.5000e-02	2.0197	2.960022	0.000249	2.487819	0.842896	0.020440
  52	2.5500e-02	2.0614	3.062225	0.000249	2.487819	0.842896	0.020440
  53	2.6000e-02	2.1080	3.160578	0.000239	2.394135	0.811155	0.019671
  54	2.6500e-02	2.1545	3.261926	0.000247	2.467000	0.835842	0.020269
  55	2.7000e-02	2.1898	3.368832	0.000260	2.602321	0.881690	0.021381
  56	2.7500e-02	2.2363	3.465048	0.000234	2.342089	0.793521	0.019243
  57	2.8000e-02	2.2572	3.563401	0.000239	2.394135	0.811155	0.019671
  58	2.8500e-02	2.2892	3.674584	0.000271	2.706413	0.916958	0.022237
  59	2.9000e-02	2.3342	3.790470	0.000282	2.820916	0.955752	0.023177
  60	2.9500e-02	2.3935	3.893528	0.000251	2.508637	0.849949	0.020612
  61	3.0000e-02	2.4368	3.994020	0.000245	2.446181	0.828789	0.020098
  62	3.0500e-02	2.4497	4.089808	0.000233	2.331679	0.789994	0.019158
  63	3.1000e-02	2.4721	4.189445	0.000243	2.425363	0.821735	0.019927
  64	3.1500e-02	2.5828	4.290364	0.000246	2.456591	0.832315	0.020184
  65	3.2000e-02	2.5732	4.390001	-0.000243	-2.425363	-0.821735	0.019927
  66	3.2500e-02	2.6197	4.493059	0.000251	2.508637	0.849949	0.020612
  67	3.3000e-02	2.6694	4.594406	0.000247	2.467000	0.835842	0.020269
  68	3.3500e-02	2.7128	4.695753	0.000247	2.467000	0.835842	0.020269
  69	3.4000e-02	2.7144	4.796673	0.000246	2.456591	0.832315	0.020184
  70	3.4500e-02	2.7817	4.892033	0.000232	2.321270	0.786468	0.019072
  71	3.5000e-02	2.8347	4.990387	0.000239	2.394135	0.811155	0.019671
  72	3.5500e-02	2.8668	5.088313	0.000238	2.383726	0.807628	0.019585
  73	3.6000e-02	2.9229	5.196075	0.000262	2.623139	0.888744	0.021552
  74	3.6500e-02	2.9614	5.300415	0.000254	2.539865	0.860530	0.020868
  75	3.7000e-02	3.0160	5.406039	0.000257	2.571093	0.871110	0.021125
  76	3.7500e-02	3.0304	5.501827	0.000233	2.331679	0.789994	0.019158
  77	3.8000e-02	3.0914	5.598898	0.000236	2.362907	0.800575	0.019414
  78	3.8500e-02	3.1266	5.698107	0.000241	2.414954	0.818208	0.019842
  79	3.9000e-02	3.1539	5.801164	0.000251	2.508637	0.849949	0.020612
  80	3.9500e-02	3.1876	5.898235	0.000236	2.362907	0.800575	0.019414
  81	4.0000e-02	3.2261	5.998727	0.000245	2.446181	0.828789	0.020098
  82	4.0500e-02	3.2598	6.107344	0.000264	2.643958	0.895797	0.021723
  83	4.1000e-02	3.2999	6.203560	0.000234	2.342089	0.793521	0.019243
  84	4.1500e-02	3.3609	6.307045	0.000252	2.519046	0.853476	0.020697
  85	4.2000e-02	3.3737	6.408392	0.000247	2.467000	0.835842	0.020269
  86	4.2500e-02	3.4250	6.505463	0.000236	2.362907	0.800575	0.019414
  87	4.3000e-02	3.4443	6.607666	0.000249	2.487819	0.842896	0.020440
  88	4.3500e-02	3.5245	6.702599	0.000231	2.310861	0.782941	0.018987
  89	4.4000e-02	3.5614	6.812071	0.000266	2.664776	0.902851	0.021894
  90	4.4500e-02	3.5678	6.910852	0.000240	2.404544	0.814682	0.019756
  91	4.5000e-02	3.6159	7.008351	0.000237	2.373316	0.804101	0.019500
  92	4.5500e-02	3.6673	7.107132	0.000240	2.404544	0.814682	0.019756
  93	4.6000e-02	3.7218	7.206769	0.000243	2.425363	0.821735	0.019927
  94	4.6500e-02	3.7940	7.307261	0.000245	2.446181	0.828789	0.020098
  95	4.7000e-02	3.7780	7.407753	-0.000245	-2.446181	-0.828789	0.020098
  96	4.7500e-02	3.8453	7.507817	0.000244	2.435772	0.825262	0.020013
  97	4.8000e-02	3.8790	7.607454	0.000243	2.425363	0.821735	0.019927
  98	4.8500e-02	3.9031	7.710511	0.000251	2.508637	0.849949	0.020612
  99	4.9000e-02	3.9576	7.809720	0.000241	2.414954	0.818208	0.019842
 100	4.9500e-02	3.9961	7.907219	0.000237	2.373316	0.804101	0.019500
 101	5.0000e-02	4.0587	8.000869	0.000228	2.279633	0.772361	0.018730
 102	5.0500e-02	4.0683	8.104782	0.000253	2.529456	0.857003	0.020783
 103	5.1000e-02	4.1068	8.209122	0.000254	2.539865	0.860530	0.020868
 104	5.1500e-02	4.1469	8.305766	0.000235	2.352498	0.797048	0.019329
 105	5.2000e-02	4.1983	8.403692	0.000238	2.383726	0.807628	0.019585
 106	5.2500e-02	4.2384	8.500763	0.000236	2.362907	0.800575	0.019414
 107	5.3000e-02	4.2528	8.603393	0.000250	2.498228	0.846422	0.020526
 108	5.3500e-02	4.3090	8.703030	0.000243	2.425363	0.821735	0.019927
 109	5.4000e-02	4.3459	8.794114	0.000222	2.217177	0.751200	0.018217
 110	5.4500e-02	4.3715	8.895461	0.000247	2.467000	0.835842	0.020269
 111	5.5000e-02	4.4036	8.995953	0.000245	2.446181	0.828789	0.020098
 112	5.5500e-02	4.4517	9.097728	0.000248	2.477409	0.839369	0.020355
 113	5.6000e-02	4.5015	9.194799	0.000236	2.362907	0.800575	0.019414
 114	5.6500e-02	4.5063	9.292725	0.000238	2.383726	0.807628	0.019585
 115	5.7000e-02	4.6074	9.388513	0.000233	2.331679	0.789994	0.019158
 116	5.7500e-02	4.6475	9.488150	0.000243	2.425363	0.821735	0.019927
 117	5.8000e-02	4.6683	9.589924	0.000248	2.477409	0.839369	0.020355
 118	5.8500e-02	4.7164	9.681009	0.000222	2.217177	0.751200	0.018217
 119	5.9000e-02	4.7405	9.781073	0.000244	2.435772	0.825262	0.020013
 120	5.9500e-02	4.8063	9.876861	0.000233	2.331679	0.789994	0.019158
 121	6.0000e-02	4.7983	9.982057	-0.000256	-2.560683	-0.867583	0.021039
 122	6.0500e-02	4.8464	10.076134	0.000229	2.290042	0.775887	0.018816
 123	6.1000e-02	4.9009	10.169357	0.000227	2.269224	0.768834	0.018644
 124	6.1500e-02	4.9699	10.274552	0.000256	2.560683	0.867583	0.021039
 125	6.2000e-02	5.0148	10.369485	0.000231	2.310861	0.782941	0.018987
 126	6.2500e-02	5.0148	10.461852	-0.000225	-2.248405	-0.761780	0.018473
 127	6.3000e-02	5.0630	10.559779	0.000238	2.383726	0.807628	0.019585
 128	6.3500e-02	5.1159	10.655994	0.000234	2.342089	0.793521	0.019243
 129	6.4000e-02	5.1400	10.756059	0.000244	2.435772	0.825262	0.020013
 130	6.4500e-02	5.1913	10.853129	0.000236	2.362907	0.800575	0.019414
 131	6.5000e-02	5.1993	10.951483	0.000239	2.394135	0.811155	0.019671
 132	6.5500e-02	5.2555	11.046416	0.000231	2.310861	0.782941	0.018987
 133	6.6000e-02	5.2972	11.140066	0.000228	2.279633	0.772361	0.018730
 134	6.6500e-02	5.3485	11.236709	0.000235	2.352498	0.797048	0.019329
 135	6.7000e-02	5.3758	11.334208	0.000237	2.373316	0.804101	0.019500
 136	6.7500e-02	5.4335	11.429568	0.000232	2.321270	0.786468	0.019072
 137	6.8000e-02	5.4608	11.527067	0.000237	2.373316	0.804101	0.019500
 138	6.8500e-02	5.5137	11.624993	0.000238	2.383726	0.807628	0.019585
 139	6.9000e-02	5.5410	11.715222	0.000220	2.196359	0.744146	0.018046
 140	6.9500e-02	5.6004	11.814003	0.000240	2.404544	0.814682	0.019756
 141	7.0000e-02	5.6357	11.905088	0.000222	2.217177	0.751200	0.018217
 142	7.0500e-02	5.6726	12.007718	0.000250	2.498228	0.846422	0.020526
 143	7.1000e-02	5.7271	12.102223	0.000230	2.300451	0.779414	0.018901
 144	7.1500e-02	5.7736	12.198866	0.000235	2.352498	0.797048	0.019329
 145	7.2000e-02	5.7640	12.295510	-0.000235	-2.352498	-0.797048	0.019329
 146	7.2500e-02	5.8153	12.389159	0.000228	2.279633	0.772361	0.018730
 147	7.3000e-02	5.8603	12.486658	0.000237	2.373316	0.804101	0.019500
 148	7.3500e-02	5.9148	12.582018	0.000232	2.321270	0.786468	0.019072
 149	7.4000e-02	5.9613	12.672247	0.000220	2.196359	0.744146	0.018046
 150	7.4500e-02	6.0159	12.787279	0.000280	2.800097	0.948699	0.023006
 151	7.5000e-02	6.0528	12.886488	0.000241	2.414954	0.818208	0.019842
 152	7.5500e-02	6.0913	12.980138	0.000228	2.279633	0.772361	0.018730
 153	7.6000e-02	6.1169	13.077636	0.000237	2.373316	0.804101	0.019500
 154	7.6500e-02	6.1907	13.171714	0.000229	2.290042	0.775887	0.018816
 155	7.7000e-02	6.1923	13.258949	0.000212	2.123494	0.719459	0.017447
 156	7.7500e-02	6.2405	13.355593	0.000235	2.352498	0.797048	0.019329
 157	7.8000e-02	6.2469	13.452236	0.000235	2.352498	0.797048	0.019329
 158	7.8500e-02	6.3014	13.547596	0.000232	2.321270	0.786468	0.019072
 159	7.9000e-02	6.3303	13.636542	0.000217	2.165131	0.733566	0.017789
 160	7.9500e-02	6.4153	13.728482	0.000224	2.237996	0.758253	0.018388
 161	8.0000e-02	6.4298	13.816145	0.000213	2.133903	0.722986	0.017533
 162	8.0500e-02	6.4667	13.910650	0.000230	2.300451	0.779414	0.018901
 163	8.1000e-02	6.4731	14.008576	0.000238	2.383726	0.807628	0.019585
 164	8.1500e-02	6.5645	14.097095	0.000215	2.154721	0.730039	0.017704
 165	8.2000e-02	6.5822	14.195876	0.000240	2.404544	0.814682	0.019756
 166	8.2500e-02	6.6110	14.287388	0.000223	2.227586	0.754727	0.018302
 167	8.3000e-02	6.6640	14.379755	0.000225	2.248405	0.761780	0.018473
 168	8.3500e-02	6.7426	14.471267	0.000223	2.227586	0.754727	0.018302
 169	8.4000e-02	6.7795	14.565344	0.000229	2.290042	0.775887	0.018816
 170	8.4500e-02	6.7923	14.655146	0.000219	2.185949	0.740620	0.017960
 171	8.5000e-02	6.8244	14.752644	0.000237	2.373316	0.804101	0.019500
 172	8.5500e-02	6.8854	14.840735	0.000214	2.144312	0.726513	0.017618
 173	8.6000e-02	6.8966	14.933102	0.000225	2.248405	0.761780	0.018473
 174	8.6500e-02	6.9511	15.027180	0.000229	2.290042	0.775887	0.018816
 175	8.7000e-02	6.9784	15.121257	0.000229	2.290042	0.775887	0.018816
 176	8.7500e-02	7.0538	15.211486	0.000220	2.196359	0.744146	0.018046
 177	8.8000e-02	7.0666	15.303426	0.000224	2.237996	0.758253	0.018388
 178	8.8500e-02	7.0731	15.399214	0.000233	2.331679	0.789994	0.019158
 179	8.9000e-02	7.1356	15.486449	0.000212	2.123494	0.719459	0.017447
 180	8.9500e-02	7.1822	15.581810	0.000232	2.321270	0.786468	0.019072
 181	9.0000e-02	7.2062	15.676315	0.000230	2.300451	0.779414	0.018901
 182	9.0500e-02	7.2688	15.763550	0.000212	2.123494	0.719459	0.017447
 183	9.1000e-02	7.3073	15.859766	0.000234	2.342089	0.793521	0.019243
 184	9.1500e-02	7.3666	15.953844	0.000229	2.290042	0.775887	0.018816
 185	9.2000e-02	7.3795	16.044073	0.000220	2.196359	0.744146	0.018046
 186	9.2500e-02	7.4228	16.139433	0.000232	2.321270	0.786468	0.019072
 187	9.3000e-02	7.4597	16.226241	0.000211	2.113084	0.715932	0.017362
 188	9.3500e-02	7.4982	16.320319	0.000229	2.290042	0.775887	0.018816
 189	9.4000e-02	7.5624	16.411830	0.000223	2.227586	0.754727	0.018302
 190	9.4500e-02	7.6089	16.503342	0.000223	2.227586	0.754727	0.018302
 191	9.5000e-02	7.6634	16.594854	0.000223	2.227586	0.754727	0.018302
 192	9.5500e-02	7.6618	16.691497	-0.000235	-2.352498	-0.797048	0.019329
 193	9.6000e-02	7.6682	16.780016	0.000215	2.154721	0.730039	0.017704
 194	9.6500e-02	7.7420	16.876659	0.000235	2.352498	0.797048	0.019329
 195	9.7000e-02	7.7677	16.963467	0.000211	2.113084	0.715932	0.017362
 196	9.7500e-02	7.8415	17.049847	0.000210	2.102675	0.712406	0.017276
 197	9.8000e-02	7.8864	17.144353	0.000230	2.300451	0.779414	0.018901
 198	9.8500e-02	7.8816	17.236292	-0.000224	-2.237996	-0.758253	0.018388
 199	9.9000e-02	7.9297	17.329087	0.000226	2.258814	0.765307	0.018559
 200	9.9500e-02	7.9698	17.416750	0.000213	2.133903	0.722986	0.017533
 201	1.0000e-01	8.0164	17.509544	0.000226	2.258814	0.765307	0.018559
 202	1.0050e-01	8.0709	17.598063	0.000215	2.154721	0.730039	0.017704
 203	1.0100e-01	8.1046	17.690858	0.000226	2.258814	0.765307	0.018559
 204	1.0150e-01	8.1784	17.778521	0.000213	2.133903	0.722986	0.017533
 205	1.0200e-01	8.2105	17.872171	0.000228	2.279633	0.772361	0.018730
 206	1.0250e-01	8.2313	17.961972	0.000219	2.185949	0.740620	0.017960
 207	1.0300e-01	8.2618	18.056050	0.000229	2.290042	0.775887	0.018816
 208	1.0350e-01	8.2907	18.146706	0.000221	2.206768	0.747673	0.018131
 209	1.0400e-01	8.3709	18.239501	0.000226	2.258814	0.765307	0.018559
 210	1.0450e-01	8.3853	18.329730	0.000220	2.196359	0.744146	0.018046
 211	1.0500e-01	8.4367	18.417393	0.000213	2.133903	0.722986	0.017533
 212	1.0550e-01	8.4816	18.502490	0.000207	2.071447	0.701825	0.017019
 213	1.0600e-01	8.5217	18.600417	0.000238	2.383726	0.807628	0.019585
 214	1.0650e-01	8.5490	18.687225	0.000211	2.113084	0.715932	0.017362
 215	1.0700e-01	8.6019	18.778736	0.000223	2.227586	0.754727	0.018302
 216	1.0750e-01	8.6292	18.869820	0.000222	2.217177	0.751200	0.018217
 217	1.0800e-01	8.6741	18.958339	0.000215	2.154721	0.730039	0.017704
 218	1.0850e-01	8.7190	19.048568	0.000220	2.196359	0.744146	0.018046
 219	1.0900e-01	8.7383	19.138369	0.000219	2.185949	0.740620	0.017960
 220	1.0950e-01	8.7880	19.224749	0.000210	2.102675	0.712406	0.017276
 221	1.1000e-01	8.8554	19.319682	0.000231	2.310861	0.782941	0.018987
 222	1.1050e-01	8.8891	19.406918	0.000212	2.123494	0.719459	0.017447
 223	1.1100e-01	8.9179	19.503561	0.000235	2.352498	0.797048	0.019329
 224	1.1150e-01	8.9580	19.585665	0.000200	1.998582	0.677138	0.016421
 225	1.1200e-01	9.0062	19.674184	0.000215	2.154721	0.730039	0.017704
 226	1.1250e-01	9.0415	19.767834	0.000228	2.279633	0.772361	0.018730
 227	1.1300e-01	9.0719	19.856352	0.000215	2.154721	0.730039	0.017704
 228	1.1350e-01	9.1120	19.947009	0.000221	2.206768	0.747673	0.018131
 229	1.1400e-01	9.1602	20.034672	0.000213	2.133903	0.722986	0.017533
 230	1.1450e-01	9.1682	20.121907	0.000212	2.123494	0.719459	0.017447
 231	1.1500e-01	9.2356	20.208715	0.000211	2.113084	0.715932	0.017362
 232	1.1550e-01	9.2612	20.297234	0.000215	2.154721	0.730039	0.017704
 233	1.1600e-01	9.3158	20.390028	0.000226	2.258814	0.765307	0.018559
 234	1.1650e-01	9.3222	20.481968	0.000224	2.237996	0.758253	0.018388
 235	1.1700e-01	9.3719	20.566638	0.000206	2.061038	0.698299	0.016934
 236	1.1750e-01	9.4409	20.656439	0.000219	2.185949	0.740620	0.017960
 237	1.1800e-01	9.4762	20.750089	0.000228	2.279633	0.772361	0.018730
 238	1.1850e-01	9.4971	20.833048	0.000202	2.019401	0.684192	0.016592
 239	1.1900e-01	9.5324	20.920284	0.000212	2.123494	0.719459	0.017447
 240	1.1950e-01	9.5853	21.027190	0.000260	2.602321	0.881690	0.021381
 241	1.2000e-01	9.6302	21.112287	0.000207	2.071447	0.701825	0.017019
 242	1.2050e-01	9.6751	21.209358	0.000236	2.362907	0.800575	0.019414
 243	1.2100e-01	9.6928	21.292318	0.000202	2.019401	0.684192	0.016592
 244	1.2150e-01	9.7104	21.382119	0.000219	2.185949	0.740620	0.017960
 245	1.2200e-01	9.8019	21.465506	0.000203	2.029810	0.687718	0.016677
 246	1.2250e-01	9.7954	21.554024	-0.000215	-2.154721	-0.730039	0.017704
 247	1.2300e-01	9.9013	21.635701	0.000199	1.988173	0.673611	0.016335
 248	1.2350e-01	9.9126	21.722936	0.000212	2.123494	0.719459	0.017447
 249	1.2400e-01	9.9639	21.811882	0.000217	2.165131	0.733566	0.017789
 250	1.2450e-01	10.0008	21.899546	0.000213	2.133903	0.722986	0.017533
 251	1.2500e-01	10.0249	21.988064	0.000215	2.154721	0.730039	0.017704
 252	1.2550e-01	10.0762	22.071879	0.000204	2.040219	0.691245	0.016763
 253	1.2600e-01	10.1163	22.153555	0.000199	1.988173	0.673611	0.016335
 254	1.2650e-01	10.1612	22.238652	0.000207	2.071447	0.701825	0.017019
 255	1.2700e-01	10.1821	22.333158	0.000230	2.300451	0.779414	0.018901
 256	1.2750e-01	10.2527	22.421248	0.000214	2.144312	0.726513	0.017618
 257	1.2800e-01	10.2992	22.506346	0.000207	2.071447	0.701825	0.017019
 258	1.2850e-01	10.3008	22.593154	0.000211	2.113084	0.715932	0.017362
 259	1.2900e-01	10.3152	22.675685	0.000201	2.008992	0.680665	0.016506
 260	1.2950e-01	10.3649	22.760783	0.000207	2.071447	0.701825	0.017019
 261	1.3000e-01	10.4291	22.854005	0.000227	2.269224	0.768834	0.018644
 262	1.3050e-01	10.4420	22.944234	0.000220	2.196359	0.744146	0.018046
 263	1.3100e-01	10.5077	23.029759	0.000208	2.081857	0.705352	0.017105
 264	1.3150e-01	10.5510	23.113146	0.000203	2.029810	0.687718	0.016677
 265	1.3200e-01	10.5687	23.197388	0.000205	2.050629	0.694772	0.016848
 266	1.3250e-01	10.6457	23.287617	0.000220	2.196359	0.744146	0.018046
 267	1.3300e-01	10.6569	23.370577	0.000202	2.019401	0.684192	0.016592
 268	1.3350e-01	10.7131	23.463371	0.000226	2.258814	0.765307	0.018559
 269	1.3400e-01	10.7259	23.546330	0.000202	2.019401	0.684192	0.016592
 270	1.3450e-01	10.7933	23.630145	0.000204	2.040219	0.691245	0.016763
 271	1.3500e-01	10.8270	23.717381	0.000212	2.123494	0.719459	0.017447
 272	1.3550e-01	10.8959	23.806327	0.000217	2.165131	0.733566	0.017789
 273	1.3600e-01	10.8959	23.889714	-0.000203	-2.029810	-0.687718	0.016677
 274	1.3650e-01	10.9409	23.974811	0.000207	2.071447	0.701825	0.017019
 275	1.3700e-01	10.9826	24.059481	0.000206	2.061038	0.698299	0.016934
 276	1.3750e-01	11.0147	24.145434	0.000209	2.092266	0.708879	0.017191
 277	1.3800e-01	11.0740	24.232241	0.000211	2.113084	0.715932	0.017362
 278	1.3850e-01	11.1221	24.315201	0.000202	2.019401	0.684192	0.016592
 279	1.3900e-01	11.1542	24.403292	0.000214	2.144312	0.726513	0.017618
 280	1.3950e-01	11.1767	24.488389	0.000207	2.071447	0.701825	0.017019
 281	1.4000e-01	11.2393	24.572204	0.000204	2.040219	0.691245	0.016763
 282	1.4050e-01	11.2553	24.660294	0.000214	2.144312	0.726513	0.017618
 283	1.4100e-01	11.3002	24.740260	0.000195	1.946536	0.659504	0.015993
 284	1.4150e-01	11.3419	24.827496	0.000212	2.123494	0.719459	0.017447
 285	1.4200e-01	11.3820	24.911738	0.000205	2.050629	0.694772	0.016848
 286	1.4250e-01	11.4446	25.000256	0.000215	2.154721	0.730039	0.017704
 287	1.4300e-01	11.4831	25.083643	0.000203	2.029810	0.687718	0.016677
 288	1.4350e-01	11.4879	25.169168	0.000208	2.081857	0.705352	0.017105
 289	1.4400e-01	11.5312	25.252983	0.000204	2.040219	0.691245	0.016763
 290	1.4450e-01	11.5890	25.339363	0.000210	2.102675	0.712406	0.017276
 291	1.4500e-01	11.6018	25.427026	0.000213	2.133903	0.722986	0.017533
 292	1.4550e-01	11.6676	25.507420	0.000196	1.956945	0.663031	0.016079
 293	1.4600e-01	11.7350	25.594656	0.000212	2.123494	0.719459	0.017447
 294	1.4650e-01	11.7622	25.681463	0.000211	2.113084	0.715932	0.017362
 295	1.4700e-01	11.8184	25.761429	0.000195	1.946536	0.659504	0.015993
 296	1.4750e-01	11.8184	25.849948	-0.000215	-2.154721	-0.730039	0.017704
 297	1.4800e-01	11.8954	25.932052	0.000200	1.998582	0.677138	0.016421
 298	1.4850e-01	11.9050	26.021426	0.000218	2.175540	0.737093	0.017875
 299	1.4900e-01	11.9916	26.107378	0.000209	2.092266	0.708879	0.017191
 300	1.4950e-01	11.9836	26.189910	-0.000201	-2.008992	-0.680665	0.016506
 301	1.5000e-01	12.0382	26.268593	0.000192	1.915308	0.648924	0.015737
 302	1.5050e-01	12.0895	26.357967	0.000218	2.175540	0.737093	0.017875
 303	1.5100e-01	12.1023	26.444347	0.000210	2.102675	0.712406	0.017276
 304	1.5150e-01	12.1232	26.523885	0.000194	1.936127	0.655977	0.015908
 305	1.5200e-01	12.1906	26.607272	0.000203	2.029810	0.687718	0.016677
 306	1.5250e-01	12.1906	26.694935	-0.000213	-2.133903	-0.722986	0.017533
 307	1.5300e-01	12.2916	26.774474	0.000194	1.936127	0.655977	0.015908
 308	1.5350e-01	12.3141	26.865558	0.000222	2.217177	0.751200	0.018217
 309	1.5400e-01	12.3510	26.945524	0.000195	1.946536	0.659504	0.015993
 310	1.5450e-01	12.3975	27.028055	0.000201	2.008992	0.680665	0.016506
 311	1.5500e-01	12.4168	27.110587	0.000201	2.008992	0.680665	0.016506
 312	1.5550e-01	12.4793	27.193546	0.000202	2.019401	0.684192	0.016592
 313	1.5600e-01	12.5194	27.269236	0.000184	1.842443	0.624237	0.015138
 314	1.5650e-01	12.5499	27.356472	0.000212	2.123494	0.719459	0.017447
 315	1.5700e-01	12.5788	27.448411	0.000224	2.237996	0.758253	0.018388
 316	1.5750e-01	12.6237	27.521535	0.000178	1.779987	0.603076	0.014625
 317	1.5800e-01	12.6799	27.609198	0.000213	2.133903	0.722986	0.017533
 318	1.5850e-01	12.7023	27.689592	0.000196	1.956945	0.663031	0.016079
 319	1.5900e-01	12.7344	27.774689	0.000207	2.071447	0.701825	0.017019
 320	1.5950e-01	12.8130	27.856366	0.000199	1.988173	0.673611	0.016335
 321	1.6000e-01	12.8194	27.942318	0.000209	2.092266	0.708879	0.017191
 322	1.6050e-01	12.8547	28.025705	0.000203	2.029810	0.687718	0.016677
 323	1.6100e-01	12.8980	28.104816	0.000193	1.925717	0.652451	0.015822
 324	1.6150e-01	12.9061	28.190341	0.000208	2.081857	0.705352	0.017105
 325	1.6200e-01	12.9782	28.272873	0.000201	2.008992	0.680665	0.016506
 326	1.6250e-01	13.0552	28.353694	0.000197	1.967354	0.666558	0.016164
 327	1.6300e-01	13.0713	28.434087	0.000196	1.956945	0.663031	0.016079
 328	1.6350e-01	13.1194	28.518757	0.000206	2.061038	0.698299	0.016934
 329	1.6400e-01	13.1387	28.601716	0.000202	2.019401	0.684192	0.016592
 330	1.6450e-01	13.2125	28.682110	0.000196	1.956945	0.663031	0.016079
 331	1.6500e-01	13.2510	28.764642	0.000201	2.008992	0.680665	0.016506
 332	1.6550e-01	13.2445	28.851877	-0.000212	-2.123494	-0.719459	0.017447
 333	1.6600e-01	13.2975	28.932698	0.000197	1.967354	0.666558	0.016164
 334	1.6650e-01	13.3264	29.013092	0.000196	1.956945	0.663031	0.016079
 335	1.6700e-01	13.4050	29.101183	0.000214	2.144312	0.726513	0.017618
 336	1.6750e-01	13.4130	29.177728	0.000186	1.863262	0.631290	0.015309
 337	1.6800e-01	13.4675	29.260687	0.000202	2.019401	0.684192	0.016592
 338	1.6850e-01	13.5429	29.342363	0.000199	1.988173	0.673611	0.016335
 339	1.6900e-01	13.5654	29.416770	0.000181	1.811215	0.613656	0.014881
 340	1.6950e-01	13.5975	29.500585	0.000204	2.040219	0.691245	0.016763
 341	1.7000e-01	13.6296	29.587820	0.000212	2.123494	0.719459	0.017447
 342	1.7050e-01	13.7114	29.666931	0.000193	1.925717	0.652451	0.015822
 343	1.7100e-01	13.6889	29.738344	-0.000174	-1.738350	-0.588969	0.014283
 344	1.7150e-01	13.7499	29.819593	0.000198	1.977764	0.670084	0.016250
 345	1.7200e-01	13.7707	29.901697	0.000200	1.998582	0.677138	0.016421
 346	1.7250e-01	13.8381	29.984657	0.000202	2.019401	0.684192	0.016592
 347	1.7300e-01	13.8750	30.069754	0.000207	2.071447	0.701825	0.017019
 348	1.7350e-01	13.8975	30.153569	0.000204	2.040219	0.691245	0.016763
 349	1.7400e-01	13.9231	30.230969	0.000188	1.884080	0.638344	0.015480
 350	1.7450e-01	14.0226	30.315639	0.000206	2.061038	0.698299	0.016934
 351	1.7500e-01	14.0499	30.392184	0.000186	1.863262	0.631290	0.015309
 352	1.7550e-01	14.0547	30.471294	0.000193	1.925717	0.652451	0.015822
 353	1.7600e-01	14.0980	30.555536	0.000205	2.050629	0.694772	0.016848
 354	1.7650e-01	14.1638	30.637640	0.000200	1.998582	0.677138	0.016421
 355	1.7700e-01	14.1814	30.718889	0.000198	1.977764	0.670084	0.016250
 356	1.7750e-01	14.2536	30.792441	0.000179	1.790397	0.606603	0.014710
 357	1.7800e-01	14.2584	30.874545	0.000200	1.998582	0.677138	0.016421
 358	1.7850e-01	14.3033	30.954938	0.000196	1.956945	0.663031	0.016079
 359	1.7900e-01	14.3418	31.039181	0.000205	2.050629	0.694772	0.016848
 360	1.7950e-01	14.4237	31.119146	0.000195	1.946536	0.659504	0.015993
 361	1.8000e-01	14.4493	31.193981	0.000182	1.821624	0.617183	0.014967
 362	1.8050e-01	14.4557	31.273519	0.000194	1.936127	0.655977	0.015908
 363	1.8100e-01	14.5119	31.355623	0.000200	1.998582	0.677138	0.016421
 364	1.8150e-01	14.5552	31.433451	0.000189	1.894489	0.641870	0.015566
 365	1.8200e-01	14.5921	31.519404	0.000209	2.092266	0.708879	0.017191
 366	1.8250e-01	14.6450	31.595949	0.000186	1.863262	0.631290	0.015309
 367	1.8300e-01	14.6803	31.674632	0.000192	1.915308	0.648924	0.015737
 368	1.8350e-01	14.7301	31.755453	0.000197	1.967354	0.666558	0.016164
 369	1.8400e-01	14.7461	31.839695	0.000205	2.050629	0.694772	0.016848
 370	1.8450e-01	14.7926	31.916240	0.000186	1.863262	0.631290	0.015309
 371	1.8500e-01	14.8135	31.995351	0.000193	1.925717	0.652451	0.015822
 372	1.8550e-01	14.8712	32.076599	0.000198	1.977764	0.670084	0.016250
 373	1.8600e-01	14.9049	32.153144	0.000186	1.863262	0.631290	0.015309
 374	1.8650e-01	14.9643	32.232255	0.000193	1.925717	0.652451	0.015822
 375	1.8700e-01	15.0076	32.310938	0.000192	1.915308	0.648924	0.015737
 376	1.8750e-01	15.0156	32.391759	0.000197	1.967354	0.666558	0.016164
 377	1.8800e-01	15.0670	32.472153	0.000196	1.956945	0.663031	0.016079
 378	1.8850e-01	15.0942	32.547415	0.000183	1.832034	0.620710	0.015052
 379	1.8900e-01	15.1568	32.628236	0.000197	1.967354	0.666558	0.016164
 380	1.8950e-01	15.1744	32.707347	0.000193	1.925717	0.652451	0.015822
 381	1.9000e-01	15.2370	32.791161	0.000204	2.040219	0.691245	0.016763
 382	1.9050e-01	15.2964	32.866423	0.000183	1.832034	0.620710	0.015052
 383	1.9100e-01	15.3172	32.944251	0.000189	1.894489	0.641870	0.015566
 384	1.9150e-01	15.3525	33.025072	0.000197	1.967354	0.666558	0.016164
 385	1.9200e-01	15.3669	33.106321	0.000198	1.977764	0.670084	0.016250
 386	1.9250e-01	15.4327	33.183294	0.000187	1.873671	0.634817	0.015395
 387	1.9300e-01	15.4536	33.262404	0.000193	1.925717	0.652451	0.015822
 388	1.9350e-01	15.5145	33.338522	0.000185	1.852852	0.627763	0.015223
 389	1.9400e-01	15.5450	33.417632	0.000193	1.925717	0.652451	0.015822
 390	1.9450e-01	15.6012	33.500164	0.000201	2.008992	0.680665	0.016506
 391	1.9500e-01	15.6140	33.576281	0.000185	1.852852	0.627763	0.015223
 392	1.9550e-01	15.6942	33.654109	0.000189	1.894489	0.641870	0.015566
 393	1.9600e-01	15.7038	33.739634	0.000208	2.081857	0.705352	0.017105
 394	1.9650e-01	15.7311	33.813613	0.000180	1.800806	0.610130	0.014796
 395	1.9700e-01	15.7840	33.891014	0.000188	1.884080	0.638344	0.015480
 396	1.9750e-01	15.8258	33.970552	0.000194	1.936127	0.655977	0.015908
 397	1.9800e-01	15.8723	34.047952	0.000188	1.884080	0.638344	0.015480
 398	1.9850e-01	15.9108	34.126207	0.000190	1.904899	0.645397	0.015651
 399	1.9900e-01	15.9397	34.207029	0.000197	1.967354	0.666558	0.016164
 400	1.9950e-01	15.9782	34.278442	0.000174	1.738350	0.588969	0.014283
 401	2.0000e-01	16.0391	34.356270	0.000189	1.894489	0.641870	0.015566
 402	2.0050e-01	16.0568	34.434953	0.000192	1.915308	0.648924	0.015737
 403	2.0100e-01	16.1257	34.512781	0.000189	1.894489	0.641870	0.015566
 404	2.0150e-01	16.1578	34.589753	0.000187	1.873671	0.634817	0.015395
 405	2.0200e-01	16.1402	34.668009	-0.000190	-1.904899	-0.645397	0.015651
 406	2.0250e-01	16.2252	34.744554	0.000186	1.863262	0.631290	0.015309
 407	2.0300e-01	16.2669	34.825375	0.000197	1.967354	0.666558	0.016164
 408	2.0350e-01	16.3134	34.901492	0.000185	1.852852	0.627763	0.015223
 409	2.0400e-01	16.3375	34.979747	0.000190	1.904899	0.645397	0.015651
 410	2.0450e-01	16.3824	35.059286	0.000194	1.936127	0.655977	0.015908
 411	2.0500e-01	16.4209	35.125995	0.000162	1.623848	0.550175	0.013342
 412	2.0550e-01	16.4771	35.204251	0.000190	1.904899	0.645397	0.015651
 413	2.0600e-01	16.4899	35.288065	0.000204	2.040219	0.691245	0.016763
 414	2.0650e-01	16.5364	35.357341	0.000169	1.686304	0.571335	0.013855
 415	2.0700e-01	16.6038	35.438162	0.000197	1.967354	0.666558	0.016164
 416	2.0750e-01	16.6423	35.514279	0.000185	1.852852	0.627763	0.015223
 417	2.0800e-01	16.6744	35.592107	0.000189	1.894489	0.641870	0.015566
 418	2.0850e-01	16.6985	35.670362	0.000190	1.904899	0.645397	0.015651
 419	2.0900e-01	16.7594	35.744769	0.000181	1.811215	0.613656	0.014881
 420	2.0950e-01	16.7899	35.821742	0.000187	1.873671	0.634817	0.015395
 421	2.1000e-01	16.8204	35.898714	0.000187	1.873671	0.634817	0.015395
 422	2.1050e-01	16.8829	35.976542	0.000189	1.894489	0.641870	0.015566
 423	2.1100e-01	16.9182	36.051804	0.000183	1.832034	0.620710	0.015052
 424	2.1150e-01	16.9263	36.131770	0.000195	1.946536	0.659504	0.015993
 425	2.1200e-01	17.0113	36.202756	0.000173	1.727941	0.585442	0.014197
 426	2.1250e-01	17.0257	36.280156	0.000188	1.884080	0.638344	0.015480
 427	2.1300e-01	17.0562	36.363543	0.000203	2.029810	0.687718	0.016677
 428	2.1350e-01	17.0899	36.433673	0.000171	1.707122	0.578389	0.014026
 429	2.1400e-01	17.1701	36.511929	0.000190	1.904899	0.645397	0.015651
 430	2.1450e-01	17.1894	36.585908	0.000180	1.800806	0.610130	0.014796
 431	2.1500e-01	17.2295	36.662453	0.000186	1.863262	0.631290	0.015309
 432	2.1550e-01	17.2503	36.737715	0.000183	1.832034	0.620710	0.015052
 433	2.1600e-01	17.3193	36.807418	0.000170	1.696713	0.574862	0.013941
 434	2.1650e-01	17.3514	36.885673	0.000190	1.904899	0.645397	0.015651
 435	2.1700e-01	17.3754	36.957942	0.000176	1.759169	0.596023	0.014454
 436	2.1750e-01	17.4396	37.037908	0.000195	1.946536	0.659504	0.015993
 437	2.1800e-01	17.4524	37.118729	0.000197	1.967354	0.666558	0.016164
 438	2.1850e-01	17.4958	37.190570	0.000175	1.748759	0.592496	0.014368
 439	2.1900e-01	17.5631	37.267543	0.000187	1.873671	0.634817	0.015395
 440	2.1950e-01	17.6097	37.342377	0.000182	1.821624	0.617183	0.014967
 441	2.2000e-01	17.6353	37.417639	0.000183	1.832034	0.620710	0.015052
 442	2.2050e-01	17.6594	37.493756	0.000185	1.852852	0.627763	0.015223
 443	2.2100e-01	17.7107	37.565170	0.000174	1.738350	0.588969	0.014283
 444	2.2150e-01	17.7492	37.644281	0.000193	1.925717	0.652451	0.015822
 445	2.2200e-01	17.7797	37.722536	0.000190	1.904899	0.645397	0.015651
 446	2.2250e-01	17.8182	37.798653	0.000185	1.852852	0.627763	0.015223
 447	2.2300e-01	17.8728	37.870922	0.000176	1.759169	0.596023	0.014454
 448	2.2350e-01	17.9193	37.943191	0.000176	1.759169	0.596023	0.014454
 449	2.2400e-01	17.9257	38.018025	0.000182	1.821624	0.617183	0.014967
 450	2.2450e-01	17.9851	38.095853	0.000189	1.894489	0.641870	0.015566
 451	2.2500e-01	18.0252	38.171970	0.000185	1.852852	0.627763	0.015223
 452	2.2550e-01	18.0813	38.249798	0.000189	1.894489	0.641870	0.015566
 453	2.2600e-01	18.1102	38.319073	0.000169	1.686304	0.571335	0.013855
 454	2.2650e-01	18.1535	38.392625	0.000179	1.790397	0.606603	0.014710
 455	2.2700e-01	18.1663	38.468742	0.000185	1.852852	0.627763	0.015223
 456	2.2750e-01	18.2385	38.542721	0.000180	1.800806	0.610130	0.014796
 457	2.2800e-01	18.2546	38.617556	0.000182	1.821624	0.617183	0.014967
 458	2.2850e-01	18.3075	38.692390	0.000182	1.821624	0.617183	0.014967
 459	2.2900e-01	18.3604	38.767652	0.000183	1.832034	0.620710	0.015052
 460	2.2950e-01	18.3733	38.843342	0.000184	1.842443	0.624237	0.015138
 461	2.3000e-01	18.4519	38.917321	0.000180	1.800806	0.610130	0.014796
 462	2.3050e-01	18.4503	38.993011	-0.000184	-1.842443	-0.624237	0.015138
 463	2.3100e-01	18.5193	39.064852	0.000175	1.748759	0.592496	0.014368
 464	2.3150e-01	18.5626	39.137976	0.000178	1.779987	0.603076	0.014625
 465	2.3200e-01	18.5850	39.217514	0.000194	1.936127	0.655977	0.015908
 466	2.3250e-01	18.6155	39.287217	0.000170	1.696713	0.574862	0.013941
 467	2.3300e-01	18.6701	39.361196	0.000180	1.800806	0.610130	0.014796
 468	2.3350e-01	18.7150	39.436886	0.000184	1.842443	0.624237	0.015138
 469	2.3400e-01	18.7567	39.513858	0.000187	1.873671	0.634817	0.015395
 470	2.3450e-01	18.7872	39.579285	0.000159	1.592620	0.539594	0.013085
 471	2.3500e-01	18.8064	39.658823	0.000194	1.936127	0.655977	0.015908
 472	2.3550e-01	18.8497	39.731947	0.000178	1.779987	0.603076	0.014625
 473	2.3600e-01	18.9203	39.803361	0.000174	1.738350	0.588969	0.014283
 474	2.3650e-01	18.9316	39.879478	0.000185	1.852852	0.627763	0.015223
 475	2.3700e-01	18.9717	39.947898	0.000167	1.665485	0.564282	0.013684
 476	2.3750e-01	19.0278	40.025298	0.000188	1.884080	0.638344	0.015480
 477	2.3800e-01	19.0888	40.099277	0.000180	1.800806	0.610130	0.014796
 478	2.3850e-01	19.1192	40.167270	0.000166	1.655076	0.560755	0.013598
 479	2.3900e-01	19.1802	40.245097	0.000189	1.894489	0.641870	0.015566
 480	2.3950e-01	19.1866	40.321642	0.000186	1.863262	0.631290	0.015309
 481	2.4000e-01	19.2267	40.396049	0.000181	1.811215	0.613656	0.014881
 482	2.4050e-01	19.2845	40.465752	0.000170	1.696713	0.574862	0.013941
 483	2.4100e-01	19.3182	40.539304	0.000179	1.790397	0.606603	0.014710
 484	2.4150e-01	19.3487	40.615849	0.000186	1.863262	0.631290	0.015309
 485	2.4200e-01	19.3952	40.695387	0.000194	1.936127	0.655977	0.015908
 486	2.4250e-01	19.3984	40.768511	0.000178	1.779987	0.603076	0.014625
 487	2.4300e-01	19.4593	40.838214	0.000170	1.696713	0.574862	0.013941
 488	2.4350e-01	19.5043	40.911765	0.000179	1.790397	0.606603	0.014710
 489	2.4400e-01	19.5620	40.978475	0.000162	1.623848	0.550175	0.013342
 490	2.4450e-01	19.5684	41.052882	0.000181	1.811215	0.613656	0.014881
 491	2.4500e-01	19.6166	41.125150	0.000176	1.759169	0.596023	0.014454
 492	2.4550e-01	19.6968	41.197419	0.000176	1.759169	0.596023	0.014454
 493	2.4600e-01	19.7192	41.271398	0.000180	1.800806	0.610130	0.014796
 494	2.4650e-01	19.7321	41.343239	0.000175	1.748759	0.592496	0.014368
 495	2.4700e-01	19.8059	41.420639	0.000188	1.884080	0.638344	0.015480
 496	2.4750e-01	19.8363	41.487349	0.000162	1.623848	0.550175	0.013342
 497	2.4800e-01	19.8764	41.562611	0.000183	1.832034	0.620710	0.015052
 498	2.4850e-01	19.8748	41.634452	-0.000175	-1.748759	-0.592496	0.014368
 499	2.4900e-01	19.9358	41.702444	0.000166	1.655076	0.560755	0.013598
 500	2.4950e-01	19.9775	41.779417	0.000187	1.873671	0.634817	0.015395
 501	2.5000e-01	20.0256	41.850830	0.000174	1.738350	0.588969	0.014283
 502	2.5050e-01	19.9743	41.917112	-0.000161	-1.613439	-0.546648	0.013256
 503	2.5100e-01	19.9518	41.968000	-0.000124	-1.238705	-0.419684	0.010177
 504	2.5150e-01	19.9117	42.011190	-0.000105	-1.051338	-0.356203	0.008638
 505	2.5200e-01	19.8620	42.040268	-0.000071	-0.707831	-0.239820	0.005816
 506	2.5250e-01	19.8171	42.057801	-0.000043	-0.426781	-0.144597	0.003507
 507	2.5300e-01	19.7658	42.065926	-0.000020	-0.197776	-0.067008	0.001625
 508	2.5350e-01	19.7305	42.064643	0.000003	0.031228	0.010580	-0.000257
 509	2.5400e-01	19.6904	42.059939	0.000011	0.114502	0.038794	-0.000941
 510	2.5450e-01	19.6679	42.052242	0.000019	0.187367	0.063482	-0.001539
 511	2.5500e-01	19.6182	42.031288	0.000051	0.510055	0.172811	-0.004191
 512	2.5550e-01	19.5797	42.010335	0.000051	0.510055	0.172811	-0.004191
 513	2.5600e-01	19.5219	41.991091	0.000047	0.468418	0.158704	-0.003849
 514	2.5650e-01	19.4754	41.954316	0.000090	0.895198	0.303301	-0.007355
 515	2.5700e-01	19.4273	41.920961	0.000081	0.811924	0.275087	-0.006671
 516	2.5750e-01	19.3904	41.882475	0.000094	0.936835	0.317408	-0.007697
 517	2.5800e-01	19.4241	41.838429	-0.000107	-1.072156	-0.363256	-0.008809
 518	2.5850e-01	19.3118	41.801653	0.000090	0.895198	0.303301	-0.007355
 519	2.5900e-01	19.2733	41.757608	0.000107	1.072156	0.363256	-0.008809
 520	2.5950e-01	19.2267	41.706293	0.000125	1.249114	0.423211	-0.010263
 521	2.6000e-01	19.2011	41.661392	0.000109	1.092975	0.370310	-0.008980
 522	2.6050e-01	19.1610	41.605801	0.000135	1.353207	0.458479	-0.011118
 523	2.6100e-01	19.1032	41.559190	0.000113	1.134612	0.384417	-0.009322
 524	2.6150e-01	19.0936	41.502743	0.000137	1.374025	0.465532	-0.011289
 525	2.6200e-01	19.0198	41.443731	0.000144	1.436481	0.486693	-0.011802
 526	2.6250e-01	18.9989	41.384291	0.000145	1.446890	0.490220	-0.011888
 527	2.6300e-01	18.9572	41.329983	0.000132	1.321979	0.447899	-0.010862
 528	2.6350e-01	18.9171	41.273964	0.000136	1.363616	0.462006	-0.011204
 529	2.6400e-01	18.9011	41.218800	0.000134	1.342797	0.454952	-0.011033
 530	2.6450e-01	18.8433	41.155084	0.000155	1.550983	0.525487	-0.012743
 531	2.6500e-01	18.8321	41.092651	0.000152	1.519755	0.514907	-0.012487
 532	2.6550e-01	18.7952	41.025514	0.000163	1.634257	0.553701	-0.013427
 533	2.6600e-01	18.7439	40.968212	0.000139	1.394844	0.472586	-0.011460
 534	2.6650e-01	18.6749	40.905779	0.000152	1.519755	0.514907	-0.012487
 535	2.6700e-01	18.6652	40.844628	0.000149	1.488527	0.504327	-0.012230
 536	2.6750e-01	18.6043	40.781767	0.000153	1.530165	0.518434	-0.012572
 537	2.6800e-01	18.5963	40.711209	0.000172	1.717532	0.581915	-0.014112
 538	2.6850e-01	18.5385	40.655190	0.000136	1.363616	0.462006	-0.011204
 539	2.6900e-01	18.4840	40.587625	0.000164	1.644667	0.557228	-0.013513
 540	2.6950e-01	18.4647	40.523482	0.000156	1.561392	0.529014	-0.012829
 541	2.7000e-01	18.3989	40.464469	0.000144	1.436481	0.486693	-0.011802
 542	2.7050e-01	18.3989	40.395194	0.000169	1.686304	0.571335	-0.013855
 543	2.7100e-01	18.3476	40.325491	0.000170	1.696713	0.574862	-0.013941
 544	2.7150e-01	18.2802	40.260064	0.000159	1.592620	0.539594	-0.013085
 545	2.7200e-01	18.2562	40.194210	0.000160	1.603030	0.543121	-0.013171
 546	2.7250e-01	18.1679	40.129639	0.000157	1.571802	0.532541	-0.012914
 547	2.7300e-01	18.1663	40.066350	0.000154	1.540574	0.521961	-0.012658
 548	2.7350e-01	18.1070	39.997502	0.000168	1.675894	0.567808	-0.013770
 549	2.7400e-01	18.0476	39.926944	0.000172	1.717532	0.581915	-0.014112
 550	2.7450e-01	18.0508	39.853820	-0.000178	-1.779987	-0.603076	-0.014625
 551	2.7500e-01	18.0027	39.795663	0.000142	1.415662	0.479639	-0.011631
 552	2.7550e-01	17.9754	39.725533	0.000171	1.707122	0.578389	-0.014026
 553	2.7600e-01	17.9321	39.656257	0.000169	1.686304	0.571335	-0.013855
 554	2.7650e-01	17.9048	39.590403	0.000160	1.603030	0.543121	-0.013171
 555	2.7700e-01	17.8631	39.520700	0.000170	1.696713	0.574862	-0.013941
 556	2.7750e-01	17.8214	39.456129	0.000157	1.571802	0.532541	-0.012914
 557	2.7800e-01	17.7637	39.387281	0.000168	1.675894	0.567808	-0.013770
 558	2.7850e-01	17.7492	39.317151	0.000171	1.707122	0.578389	-0.014026
 559	2.7900e-01	17.6851	39.253434	0.000155	1.550983	0.525487	-0.012743
 560	2.7950e-01	17.6578	39.183732	0.000170	1.696713	0.574862	-0.013941
 561	2.8000e-01	17.6097	39.116167	0.000164	1.644667	0.557228	-0.013513
 562	2.8050e-01	17.5471	39.046891	0.000169	1.686304	0.571335	-0.013855
 563	2.8100e-01	17.5503	38.980610	-0.000161	-1.613439	-0.546648	-0.013256
 564	2.8150e-01	17.5006	38.915610	0.000158	1.582211	0.536068	-0.013000
 565	2.8200e-01	17.4396	38.842487	0.000178	1.779987	0.603076	-0.014625
 566	2.8250e-01	17.4123	38.772356	0.000171	1.707122	0.578389	-0.014026
 567	2.8300e-01	17.3706	38.700943	0.000174	1.738350	0.588969	-0.014283
 568	2.8350e-01	17.3402	38.631667	0.000169	1.686304	0.571335	-0.013855
 569	2.8400e-01	17.3000	38.566241	0.000159	1.592620	0.539594	-0.013085
 570	2.8450e-01	17.2471	38.496538	0.000170	1.696713	0.574862	-0.013941
 571	2.8500e-01	17.2022	38.423414	0.000178	1.779987	0.603076	-0.014625
 572	2.8550e-01	17.1653	38.360981	0.000152	1.519755	0.514907	-0.012487
 573	2.8600e-01	17.1172	38.285718	0.000183	1.832034	0.620710	-0.015052
 574	2.8650e-01	17.0771	38.219437	0.000161	1.613439	0.546648	-0.013256
 575	2.8700e-01	17.0418	38.152727	0.000162	1.623848	0.550175	-0.013342
 576	2.8750e-01	17.0161	38.079603	0.000178	1.779987	0.603076	-0.014625
 577	2.8800e-01	16.9551	38.006479	0.000178	1.779987	0.603076	-0.014625
 578	2.8850e-01	16.9375	37.939770	0.000162	1.623848	0.550175	-0.013342
 579	2.8900e-01	16.8862	37.865790	0.000180	1.800806	0.610130	-0.014796
 580	2.8950e-01	16.8605	37.797798	0.000166	1.655076	0.560755	-0.013598
 581	2.9000e-01	16.7915	37.731944	0.000160	1.603030	0.543121	-0.013171
 582	2.9050e-01	16.7674	37.658820	0.000178	1.779987	0.603076	-0.014625
 583	2.9100e-01	16.7113	37.587834	0.000173	1.727941	0.585442	-0.014197
 584	2.9150e-01	16.7113	37.516848	0.000173	1.727941	0.585442	-0.014197
 585	2.9200e-01	16.6632	37.445007	0.000175	1.748759	0.592496	-0.014368
 586	2.9250e-01	16.6022	37.377015	0.000166	1.655076	0.560755	-0.013598
 587	2.9300e-01	16.6006	37.314581	0.000152	1.519755	0.514907	-0.012487
 588	2.9350e-01	16.5573	37.235898	0.000192	1.915308	0.648924	-0.015737
 589	2.9400e-01	16.4819	37.165768	0.000171	1.707122	0.578389	-0.014026
 590	2.9450e-01	16.4418	37.095637	0.000171	1.707122	0.578389	-0.014026
 591	2.9500e-01	16.4113	37.023796	0.000175	1.748759	0.592496	-0.014368
 592	2.9550e-01	16.3696	36.955804	0.000166	1.655076	0.560755	-0.013598
 593	2.9600e-01	16.3086	36.887811	0.000166	1.655076	0.560755	-0.013598
 594	2.9650e-01	16.2926	36.810411	0.000188	1.884080	0.638344	-0.015480
 595	2.9700e-01	16.2429	36.737715	0.000177	1.769578	0.599549	-0.014539
 596	2.9750e-01	16.2124	36.672716	0.000158	1.582211	0.536068	-0.013000
 597	2.9800e-01	16.1466	36.601730	0.000173	1.727941	0.585442	-0.014197
 598	2.9850e-01	16.1113	36.524330	0.000188	1.884080	0.638344	-0.015480
 599	2.9900e-01	16.1113	36.456338	0.000166	1.655076	0.560755	-0.013598
 600	2.9950e-01	16.0471	36.381931	0.000181	1.811215	0.613656	-0.014881
 601	3.0000e-01	15.9974	36.314366	0.000164	1.644667	0.557228	-0.013513
 602	3.0050e-01	15.9653	36.243380	0.000173	1.727941	0.585442	-0.014197
 603	3.0100e-01	15.9348	36.171967	0.000174	1.738350	0.588969	-0.014283
 604	3.0150e-01	15.8883	36.106968	0.000158	1.582211	0.536068	-0.013000
 605	3.0200e-01	15.8851	36.024864	0.000200	1.998582	0.677138	-0.016421
 606	3.0250e-01	15.8193	35.954733	0.000171	1.707122	0.578389	-0.014026
 607	3.0300e-01	15.7584	35.885458	0.000169	1.686304	0.571335	-0.013855
 608	3.0350e-01	15.7455	35.814472	0.000173	1.727941	0.585442	-0.014197
 609	3.0400e-01	15.6942	35.741348	0.000178	1.779987	0.603076	-0.014625
 610	3.0450e-01	15.6766	35.668652	0.000177	1.769578	0.599549	-0.014539
 611	3.0500e-01	15.6172	35.595955	0.000177	1.769578	0.599549	-0.014539
 612	3.0550e-01	15.5707	35.526253	0.000170	1.696713	0.574862	-0.013941
 613	3.0600e-01	15.5290	35.455267	0.000173	1.727941	0.585442	-0.014197
 614	3.0650e-01	15.4889	35.383853	0.000174	1.738350	0.588969	-0.014283
 615	3.0700e-01	15.4648	35.310302	0.000179	1.790397	0.606603	-0.014710
 616	3.0750e-01	15.4231	35.240171	0.000171	1.707122	0.578389	-0.014026
 617	3.0800e-01	15.3461	35.163626	0.000186	1.863262	0.631290	-0.015309
 618	3.0850e-01	15.3333	35.088364	0.000183	1.832034	0.620710	-0.015052
 619	3.0900e-01	15.2803	35.016523	0.000175	1.748759	0.592496	-0.014368
 620	3.0950e-01	15.2659	34.951097	0.000159	1.592620	0.539594	-0.013085
 621	3.1000e-01	15.1985	34.871986	0.000193	1.925717	0.652451	-0.015822
 622	3.1050e-01	15.1600	34.798434	0.000179	1.790397	0.606603	-0.014710
 623	3.1100e-01	15.1279	34.730870	0.000164	1.644667	0.557228	-0.013513
 624	3.1150e-01	15.0798	34.655608	0.000183	1.832034	0.620710	-0.015052
 625	3.1200e-01	15.0429	34.582484	0.000178	1.779987	0.603076	-0.014625
 626	3.1250e-01	15.0060	34.511498	0.000173	1.727941	0.585442	-0.014197
 627	3.1300e-01	14.9595	34.433670	0.000189	1.894489	0.641870	-0.015566
 628	3.1350e-01	14.9258	34.363967	0.000170	1.696713	0.574862	-0.013941
 629	3.1400e-01	14.8793	34.290416	0.000179	1.790397	0.606603	-0.014710
 630	3.1450e-01	14.8424	34.217292	0.000178	1.779987	0.603076	-0.014625
 631	3.1500e-01	14.8151	34.144595	0.000177	1.769578	0.599549	-0.014539
 632	3.1550e-01	14.7622	34.067623	0.000187	1.873671	0.634817	-0.015395
 633	3.1600e-01	14.7397	33.992788	0.000182	1.821624	0.617183	-0.014967
 634	3.1650e-01	14.6707	33.922658	0.000171	1.707122	0.578389	-0.014026
 635	3.1700e-01	14.6611	33.845258	0.000188	1.884080	0.638344	-0.015480
 636	3.1750e-01	14.5889	33.775127	0.000171	1.707122	0.578389	-0.014026
 637	3.1800e-01	14.5584	33.701148	0.000180	1.800806	0.610130	-0.014796
 638	3.1850e-01	14.5311	33.627169	0.000180	1.800806	0.610130	-0.014796
 639	3.1900e-01	14.4894	33.550196	0.000187	1.873671	0.634817	-0.015395
 640	3.1950e-01	14.4301	33.475362	0.000182	1.821624	0.617183	-0.014967
 641	3.2000e-01	14.3884	33.403093	0.000176	1.759169	0.596023	-0.014454
 642	3.2050e-01	14.3707	33.332963	0.000171	1.707122	0.578389	-0.014026
 643	3.2100e-01	14.3290	33.260266	0.000177	1.769578	0.599549	-0.014539
 644	3.2150e-01	14.3130	33.184149	0.000185	1.852852	0.627763	-0.015223
 645	3.2200e-01	14.2520	33.106321	0.000189	1.894489	0.641870	-0.015566
 646	3.2250e-01	14.1878	33.037046	0.000169	1.686304	0.571335	-0.013855
 647	3.2300e-01	14.1477	32.961356	0.000184	1.842443	0.624237	-0.015138
 648	3.2350e-01	14.1349	32.884811	0.000186	1.863262	0.631290	-0.015309
 649	3.2400e-01	14.0691	32.807411	0.000188	1.884080	0.638344	-0.015480
 650	3.2450e-01	14.0370	32.733432	0.000180	1.800806	0.610130	-0.014796
 651	3.2500e-01	14.0386	32.657742	-0.000184	-1.842443	-0.624237	-0.015138
 652	3.2550e-01	13.9616	32.588895	0.000168	1.675894	0.567808	-0.013770
 653	3.2600e-01	13.9296	32.506791	0.000200	1.998582	0.677138	-0.016421
 654	3.2650e-01	13.8814	32.438798	0.000166	1.655076	0.560755	-0.013598
 655	3.2700e-01	13.8493	32.363536	0.000183	1.832034	0.620710	-0.015052
 656	3.2750e-01	13.8092	32.283998	0.000194	1.936127	0.655977	-0.015908
 657	3.2800e-01	13.7627	32.210019	0.000180	1.800806	0.610130	-0.014796
 658	3.2850e-01	13.7226	32.138178	0.000175	1.748759	0.592496	-0.014368
 659	3.2900e-01	13.7001	32.059067	0.000193	1.925717	0.652451	-0.015822
 660	3.2950e-01	13.6376	31.989792	0.000169	1.686304	0.571335	-0.013855
 661	3.3000e-01	13.6135	31.906832	0.000202	2.019401	0.684192	-0.016592
 662	3.3050e-01	13.5558	31.835419	0.000174	1.738350	0.588969	-0.014283
 663	3.3100e-01	13.5125	31.760157	0.000183	1.832034	0.620710	-0.015052
 664	3.3150e-01	13.4900	31.684467	0.000184	1.842443	0.624237	-0.015138
 665	3.3200e-01	13.4483	31.607067	0.000188	1.884080	0.638344	-0.015480
 666	3.3250e-01	13.4226	31.530094	0.000187	1.873671	0.634817	-0.015395
 667	3.3300e-01	13.3729	31.455260	0.000182	1.821624	0.617183	-0.014967
 668	3.3350e-01	13.3199	31.377432	0.000189	1.894489	0.641870	-0.015566
 669	3.3400e-01	13.2911	31.300460	0.000187	1.873671	0.634817	-0.015395
 670	3.3450e-01	13.2317	31.227763	0.000177	1.769578	0.599549	-0.014539
 671	3.3500e-01	13.1916	31.151646	0.000185	1.852852	0.627763	-0.015223
 672	3.3550e-01	13.1884	31.073818	0.000189	1.894489	0.641870	-0.015566
 673	3.3600e-01	13.1531	31.001977	0.000175	1.748759	0.592496	-0.014368
 674	3.3650e-01	13.0761	30.927143	0.000182	1.821624	0.617183	-0.014967
 675	3.3700e-01	13.0424	30.849315	0.000189	1.894489	0.641870	-0.015566
 676	3.3750e-01	12.9927	30.777902	0.000174	1.738350	0.588969	-0.014283
 677	3.3800e-01	12.9494	30.696653	0.000198	1.977764	0.670084	-0.016250
 678	3.3850e-01	12.9285	30.617970	0.000192	1.915308	0.648924	-0.015737
 679	3.3900e-01	12.9285	30.538431	0.000194	1.936127	0.655977	-0.015908
 680	3.3950e-01	12.8595	30.466163	0.000176	1.759169	0.596023	-0.014454
 681	3.4000e-01	12.8098	30.397743	0.000167	1.665485	0.564282	-0.013684
 682	3.4050e-01	12.7697	30.312218	0.000208	2.081857	0.705352	-0.017105
 683	3.4100e-01	12.7232	30.235673	0.000186	1.863262	0.631290	-0.015309
 684	3.4150e-01	12.7055	30.162121	0.000179	1.790397	0.606603	-0.014710
 685	3.4200e-01	12.6430	30.085576	0.000186	1.863262	0.631290	-0.015309
 686	3.4250e-01	12.6237	30.007748	0.000189	1.894489	0.641870	-0.015566
 687	3.4300e-01	12.5820	29.931631	0.000185	1.852852	0.627763	-0.015223
 688	3.4350e-01	12.5307	29.855514	0.000185	1.852852	0.627763	-0.015223
 689	3.4400e-01	12.4938	29.780252	0.000183	1.832034	0.620710	-0.015052
 690	3.4450e-01	12.4087	29.704562	0.000184	1.842443	0.624237	-0.015138
 691	3.4500e-01	12.4312	29.629728	-0.000182	-1.821624	-0.617183	-0.014967
 692	3.4550e-01	12.3911	29.545913	0.000204	2.040219	0.691245	-0.016763
 693	3.4600e-01	12.3269	29.469796	0.000185	1.852852	0.627763	-0.015223
 694	3.4650e-01	12.2916	29.392823	0.000187	1.873671	0.634817	-0.015395
 695	3.4700e-01	12.2612	29.322693	0.000171	1.707122	0.578389	-0.014026
 696	3.4750e-01	12.2210	29.235885	0.000211	2.113084	0.715932	-0.017362
 697	3.4800e-01	12.1745	29.157629	0.000190	1.904899	0.645397	-0.015651
 698	3.4850e-01	12.1360	29.080229	0.000188	1.884080	0.638344	-0.015480
 699	3.4900e-01	12.0702	29.006250	0.000180	1.800806	0.610130	-0.014796
 700	3.4950e-01	12.0301	28.922435	0.000204	2.040219	0.691245	-0.016763
 701	3.5000e-01	12.0093	28.850594	0.000175	1.748759	0.592496	-0.014368
 702	3.5050e-01	11.9387	28.770201	0.000196	1.956945	0.663031	-0.016079
 703	3.5100e-01	11.9146	28.690235	0.000195	1.946536	0.659504	-0.015993
 704	3.5150e-01	11.9018	28.610269	0.000195	1.946536	0.659504	-0.015993
 705	3.5200e-01	11.8505	28.531586	0.000192	1.915308	0.648924	-0.015737
 706	3.5250e-01	11.8120	28.458034	0.000179	1.790397	0.606603	-0.014710
 707	3.5300e-01	11.7670	28.380207	0.000189	1.894489	0.641870	-0.015566
 708	3.5350e-01	11.7542	28.296820	0.000203	2.029810	0.687718	-0.016677
 709	3.5400e-01	11.6836	28.217709	0.000193	1.925717	0.652451	-0.015822
 710	3.5450e-01	11.6499	28.138171	0.000194	1.936127	0.655977	-0.015908
 711	3.5500e-01	11.5954	28.063764	0.000181	1.811215	0.613656	-0.014881
 712	3.5550e-01	11.5810	27.982943	0.000197	1.967354	0.666558	-0.016164
 713	3.5600e-01	11.5296	27.899983	0.000202	2.019401	0.684192	-0.016592
 714	3.5650e-01	11.4799	27.823438	0.000186	1.863262	0.631290	-0.015309
 715	3.5700e-01	11.4478	27.743900	0.000194	1.936127	0.655977	-0.015908
 716	3.5750e-01	11.3997	27.664790	0.000193	1.925717	0.652451	-0.015822
 717	3.5800e-01	11.3516	27.588245	0.000186	1.863262	0.631290	-0.015309
 718	3.5850e-01	11.3419	27.510417	0.000189	1.894489	0.641870	-0.015566
 719	3.5900e-01	11.2922	27.430878	0.000194	1.936127	0.655977	-0.015908
 720	3.5950e-01	11.2360	27.356472	0.000181	1.811215	0.613656	-0.014881
 721	3.6000e-01	11.1815	27.272230	0.000205	2.050629	0.694772	-0.016848
 722	3.6050e-01	11.1478	27.190553	0.000199	1.988173	0.673611	-0.016335
 723	3.6100e-01	11.1045	27.111870	0.000192	1.915308	0.648924	-0.015737
 724	3.6150e-01	11.0788	27.032332	0.000194	1.936127	0.655977	-0.015908
 725	3.6200e-01	11.0419	26.951511	0.000197	1.967354	0.666558	-0.016164
 726	3.6250e-01	11.0195	26.877104	0.000181	1.811215	0.613656	-0.014881
 727	3.6300e-01	10.9569	26.793717	0.000203	2.029810	0.687718	-0.016677
 728	3.6350e-01	10.9248	26.710758	0.000202	2.019401	0.684192	-0.016592
 729	3.6400e-01	10.8976	26.631647	0.000193	1.925717	0.652451	-0.015822
 730	3.6450e-01	10.8382	26.555102	0.000186	1.863262	0.631290	-0.015309
 731	3.6500e-01	10.7772	26.472143	0.000202	2.019401	0.684192	-0.016592
 732	3.6550e-01	10.7772	26.394315	0.000189	1.894489	0.641870	-0.015566
 733	3.6600e-01	10.7548	26.312638	0.000199	1.988173	0.673611	-0.016335
 734	3.6650e-01	10.6714	26.231390	0.000198	1.977764	0.670084	-0.016250
 735	3.6700e-01	10.6184	26.156983	0.000181	1.811215	0.613656	-0.014881
 736	3.6750e-01	10.6008	26.073168	0.000204	2.040219	0.691245	-0.016763
 737	3.6800e-01	10.5542	25.994485	0.000192	1.915308	0.648924	-0.015737
 738	3.6850e-01	10.4997	25.906822	0.000213	2.133903	0.722986	-0.017533
 739	3.6900e-01	10.4772	25.831988	0.000182	1.821624	0.617183	-0.014967
 740	3.6950e-01	10.4243	25.752449	0.000194	1.936127	0.655977	-0.015908
 741	3.7000e-01	10.3842	25.669062	0.000203	2.029810	0.687718	-0.016677
 742	3.7050e-01	10.3633	25.587814	0.000198	1.977764	0.670084	-0.016250
 743	3.7100e-01	10.3521	25.505710	0.000200	1.998582	0.677138	-0.016421
 744	3.7150e-01	10.2671	25.423605	0.000200	1.998582	0.677138	-0.016421
 745	3.7200e-01	10.2286	25.345778	0.000189	1.894489	0.641870	-0.015566
 746	3.7250e-01	10.2158	25.262818	0.000202	2.019401	0.684192	-0.016592
 747	3.7300e-01	10.1644	25.181570	0.000198	1.977764	0.670084	-0.016250
 748	3.7350e-01	10.1211	25.101604	0.000195	1.946536	0.659504	-0.015993
 749	3.7400e-01	10.0778	25.019500	0.000200	1.998582	0.677138	-0.016421
 750	3.7450e-01	10.0473	24.933547	0.000209	2.092266	0.708879	-0.017191
 751	3.7500e-01	10.0136	24.858285	0.000183	1.832034	0.620710	-0.015052
 752	3.7550e-01	9.9495	24.773615	0.000206	2.061038	0.698299	-0.016934
 753	3.7600e-01	9.9222	24.690656	0.000202	2.019401	0.684192	-0.016592
 754	3.7650e-01	9.9077	24.608552	0.000200	1.998582	0.677138	-0.016421
 755	3.7700e-01	9.8372	24.528158	0.000196	1.956945	0.663031	-0.016079
 756	3.7750e-01	9.7922	24.445626	0.000201	2.008992	0.680665	-0.016506
 757	3.7800e-01	9.7634	24.363950	0.000199	1.988173	0.673611	-0.016335
 758	3.7850e-01	9.7457	24.275859	0.000214	2.144312	0.726513	-0.017618
 759	3.7900e-01	9.7040	24.196749	0.000193	1.925717	0.652451	-0.015822
 760	3.7950e-01	9.6174	24.114217	0.000201	2.008992	0.680665	-0.016506
 761	3.8000e-01	9.6254	24.032113	-0.000200	-1.998582	-0.677138	-0.016421
 762	3.8050e-01	9.5901	23.950864	0.000198	1.977764	0.670084	-0.016250
 763	3.8100e-01	9.5163	23.871326	0.000194	1.936127	0.655977	-0.015908
 764	3.8150e-01	9.4874	23.785373	0.000209	2.092266	0.708879	-0.017191
 765	3.8200e-01	9.4393	23.703697	0.000199	1.988173	0.673611	-0.016335
 766	3.8250e-01	9.3928	23.619882	0.000204	2.040219	0.691245	-0.016763
 767	3.8300e-01	9.3639	23.530936	0.000217	2.165131	0.733566	-0.017789
 768	3.8350e-01	9.3046	23.450115	0.000197	1.967354	0.666558	-0.016164
 769	3.8400e-01	9.2709	23.366728	0.000203	2.029810	0.687718	-0.016677
 770	3.8450e-01	9.2324	23.287190	0.000194	1.936127	0.655977	-0.015908
 771	3.8500e-01	9.2051	23.200382	0.000211	2.113084	0.715932	-0.017362
 772	3.8550e-01	9.1650	23.121699	0.000192	1.915308	0.648924	-0.015737
 773	3.8600e-01	9.1233	23.033608	0.000214	2.144312	0.726513	-0.017618
 774	3.8650e-01	9.0912	22.951076	0.000201	2.008992	0.680665	-0.016506
 775	3.8700e-01	9.0527	22.866834	0.000205	2.050629	0.694772	-0.016848
 776	3.8750e-01	9.0238	22.783447	0.000203	2.029810	0.687718	-0.016677
 777	3.8800e-01	8.9564	22.701343	0.000200	1.998582	0.677138	-0.016421
 778	3.8850e-01	8.9388	22.619667	0.000199	1.988173	0.673611	-0.016335
 779	3.8900e-01	8.8746	22.534997	0.000206	2.061038	0.698299	-0.016934
 780	3.8950e-01	8.8810	22.447761	-0.000212	-2.123494	-0.719459	-0.017447
 781	3.9000e-01	8.8425	22.360953	0.000211	2.113084	0.715932	-0.017362
 782	3.9050e-01	8.7527	22.284836	0.000185	1.852852	0.627763	-0.015223
 783	3.9100e-01	8.7222	22.197173	0.000213	2.133903	0.722986	-0.017533
 784	3.9150e-01	8.6500	22.115496	0.000199	1.988173	0.673611	-0.016335
 785	3.9200e-01	8.6324	22.032965	0.000201	2.008992	0.680665	-0.016506
 786	3.9250e-01	8.6051	21.946584	0.000210	2.102675	0.712406	-0.017276
 787	3.9300e-01	8.5714	21.852079	0.000230	2.300451	0.779414	-0.018901
 788	3.9350e-01	8.5297	21.769975	0.000200	1.998582	0.677138	-0.016421
 789	3.9400e-01	8.5105	21.690864	0.000193	1.925717	0.652451	-0.015822
 790	3.9450e-01	8.4495	21.604912	0.000209	2.092266	0.708879	-0.017191
 791	3.9500e-01	8.4174	21.522380	0.000201	2.008992	0.680665	-0.016506
 792	3.9550e-01	8.3869	21.437710	0.000206	2.061038	0.698299	-0.016934
 793	3.9600e-01	8.3292	21.345771	0.000224	2.237996	0.758253	-0.018388
 794	3.9650e-01	8.2730	21.267943	0.000189	1.894489	0.641870	-0.015566
 795	3.9700e-01	8.2265	21.178569	0.000218	2.175540	0.737093	-0.017875
 796	3.9750e-01	8.1944	21.099886	0.000192	1.915308	0.648924	-0.015737
 797	3.9800e-01	8.1720	21.008802	0.000222	2.217177	0.751200	-0.018217
 798	3.9850e-01	8.0901	20.926698	0.000200	1.998582	0.677138	-0.016421
 799	3.9900e-01	8.0725	20.837752	0.000217	2.165131	0.733566	-0.017789
 800	3.9950e-01	8.0645	20.748806	0.000217	2.165131	0.733566	-0.017789
 801	4.0000e-01	8.0196	20.665419	0.000203	2.029810	0.687718	-0.016677
 802	4.0050e-01	7.9859	20.578611	0.000211	2.113084	0.715932	-0.017362
 803	4.0100e-01	7.9233	20.495652	0.000202	2.019401	0.684192	-0.016592
 804	4.0150e-01	7.8976	20.411837	0.000204	2.040219	0.691245	-0.016763
 805	4.0200e-01	7.8431	20.326740	0.000207	2.071447	0.701825	-0.017019
 806	4.0250e-01	7.8190	20.237366	0.000218	2.175540	0.737093	-0.017875
 807	4.0300e-01	7.7693	20.151841	0.000208	2.081857	0.705352	-0.017105
 808	4.0350e-01	7.7228	20.071448	0.000196	1.956945	0.663031	-0.016079
 809	4.0400e-01	7.6795	19.981646	0.000219	2.185949	0.740620	-0.017960
 810	4.0450e-01	7.6185	19.900397	0.000198	1.977764	0.670084	-0.016250
 811	4.0500e-01	7.5688	19.813162	0.000212	2.123494	0.719459	-0.017447
 812	4.0550e-01	7.5688	19.725071	0.000214	2.144312	0.726513	-0.017618
 813	4.0600e-01	7.5367	19.641256	0.000204	2.040219	0.691245	-0.016763
 814	4.0650e-01	7.4757	19.552738	0.000215	2.154721	0.730039	-0.017704
 815	4.0700e-01	7.4404	19.468924	0.000204	2.040219	0.691245	-0.016763
 816	4.0750e-01	7.4292	19.380405	0.000215	2.154721	0.730039	-0.017704
 817	4.0800e-01	7.3394	19.286328	0.000229	2.290042	0.775887	-0.018816
 818	4.0850e-01	7.2977	19.200375	0.000209	2.092266	0.708879	-0.017191
 819	4.0900e-01	7.3009	19.116988	-0.000203	-2.029810	-0.687718	-0.016677
 820	4.0950e-01	7.2543	19.028042	0.000217	2.165131	0.733566	-0.017789
 821	4.1000e-01	7.2142	18.940806	0.000212	2.123494	0.719459	-0.017447
 822	4.1050e-01	7.1565	18.855281	0.000208	2.081857	0.705352	-0.017105
 823	4.1100e-01	7.1084	18.765908	0.000218	2.175540	0.737093	-0.017875
 824	4.1150e-01	7.0731	18.681665	0.000205	2.050629	0.694772	-0.016848
 825	4.1200e-01	7.0346	18.593147	0.000215	2.154721	0.730039	-0.017704
 826	4.1250e-01	6.9912	18.503346	0.000219	2.185949	0.740620	-0.017960
 827	4.1300e-01	6.9383	18.416965	0.000210	2.102675	0.712406	-0.017276
 828	4.1350e-01	6.9271	18.325881	0.000222	2.217177	0.751200	-0.018217
 829	4.1400e-01	6.8950	18.238646	0.000212	2.123494	0.719459	-0.017447
 830	4.1450e-01	6.8549	18.151838	0.000211	2.113084	0.715932	-0.017362
 831	4.1500e-01	6.7971	18.062036	0.000219	2.185949	0.740620	-0.017960
 832	4.1550e-01	6.7554	17.972663	0.000218	2.175540	0.737093	-0.017875
 833	4.1600e-01	6.7346	17.883289	0.000218	2.175540	0.737093	-0.017875
 834	4.1650e-01	6.6848	17.796481	0.000211	2.113084	0.715932	-0.017362
 835	4.1700e-01	6.6544	17.708390	0.000214	2.144312	0.726513	-0.017618
 836	4.1750e-01	6.5998	17.620299	0.000214	2.144312	0.726513	-0.017618
 837	4.1800e-01	6.5549	17.529215	0.000222	2.217177	0.751200	-0.018217
 838	4.1850e-01	6.5100	17.441552	0.000213	2.133903	0.722986	-0.017533
 839	4.1900e-01	6.4715	17.351323	0.000220	2.196359	0.744146	-0.018046
 840	4.1950e-01	6.4987	17.262377	-0.000217	-2.165131	-0.733566	-0.017789
 841	4.2000e-01	6.3832	17.173859	0.000215	2.154721	0.730039	-0.017704
 842	4.2050e-01	6.3496	17.085340	0.000215	2.154721	0.730039	-0.017704
 843	4.2100e-01	6.3399	16.997249	0.000214	2.144312	0.726513	-0.017618
 844	4.2150e-01	6.2998	16.911297	0.000209	2.092266	0.708879	-0.017191
 845	4.2200e-01	6.2389	16.818930	0.000225	2.248405	0.761780	-0.018473
 846	4.2250e-01	6.2020	16.732122	0.000211	2.113084	0.715932	-0.017362
 847	4.2300e-01	6.1763	16.638899	0.000227	2.269224	0.768834	-0.018644
 848	4.2350e-01	6.1298	16.549526	0.000218	2.175540	0.737093	-0.017875
 849	4.2400e-01	6.0849	16.464428	0.000207	2.071447	0.701825	-0.017019
 850	4.2450e-01	6.0239	16.374199	0.000220	2.196359	0.744146	-0.018046
 851	4.2500e-01	5.9790	16.287819	0.000210	2.102675	0.712406	-0.017276
 852	4.2550e-01	6.0030	16.190748	-0.000236	-2.362907	-0.800575	-0.019414
 853	4.2600e-01	5.9453	16.103513	0.000212	2.123494	0.719459	-0.017447
 854	4.2650e-01	5.8731	16.016705	0.000211	2.113084	0.715932	-0.017362
 855	4.2700e-01	5.8554	15.923055	0.000228	2.279633	0.772361	-0.018730
 856	4.2750e-01	5.8298	15.831115	0.000224	2.237996	0.758253	-0.018388
 857	4.2800e-01	5.7448	15.742597	0.000215	2.154721	0.730039	-0.017704
 858	4.2850e-01	5.7127	15.655361	0.000212	2.123494	0.719459	-0.017447
 859	4.2900e-01	5.6918	15.563422	0.000224	2.237996	0.758253	-0.018388
 860	4.2950e-01	5.6373	15.469344	0.000229	2.290042	0.775887	-0.018816
 861	4.3000e-01	5.6020	15.379115	0.000220	2.196359	0.744146	-0.018046
 862	4.3050e-01	5.5795	15.291452	0.000213	2.133903	0.722986	-0.017533
 863	4.3100e-01	5.5041	15.200796	0.000221	2.206768	0.747673	-0.018131
 864	4.3150e-01	5.5089	15.108429	-0.000225	-2.248405	-0.761780	-0.018473
 865	4.3200e-01	5.4303	15.022904	0.000208	2.081857	0.705352	-0.017105
 866	4.3250e-01	5.4191	14.927543	0.000232	2.321270	0.786468	-0.019072
 867	4.3300e-01	5.3613	14.839025	0.000215	2.154721	0.730039	-0.017704
 868	4.3350e-01	5.3100	14.747513	0.000223	2.227586	0.754727	-0.018302
 869	4.3400e-01	5.2859	14.651297	0.000234	2.342089	0.793521	-0.019243
 870	4.3450e-01	5.2330	14.561496	0.000219	2.185949	0.740620	-0.017960
 871	4.3500e-01	5.2057	14.472550	0.000217	2.165131	0.733566	-0.017789
 872	4.3550e-01	5.1576	14.381466	0.000222	2.217177	0.751200	-0.018217
 873	4.3600e-01	5.1255	14.285678	0.000233	2.331679	0.789994	-0.019158
 874	4.3650e-01	5.0822	14.196304	0.000218	2.175540	0.737093	-0.017875
 875	4.3700e-01	5.0325	14.099661	0.000235	2.352498	0.797048	-0.019329
 876	4.3750e-01	5.0084	14.009432	0.000220	2.196359	0.744146	-0.018046
 877	4.3800e-01	4.9426	13.921768	0.000213	2.133903	0.722986	-0.017533
 878	4.3850e-01	4.9186	13.818283	0.000252	2.519046	0.853476	-0.020697
 879	4.3900e-01	4.8769	13.727627	0.000221	2.206768	0.747673	-0.018131
 880	4.3950e-01	4.8528	13.634832	0.000226	2.258814	0.765307	-0.018559
 881	4.4000e-01	4.7934	13.548879	0.000209	2.092266	0.708879	-0.017191
 882	4.4050e-01	4.7598	13.457367	0.000223	2.227586	0.754727	-0.018302
 883	4.4100e-01	4.7357	13.365000	0.000225	2.248405	0.761780	-0.018473
 884	4.4150e-01	4.6972	13.270495	0.000230	2.300451	0.779414	-0.018901
 885	4.4200e-01	4.6635	13.178128	0.000225	2.248405	0.761780	-0.018473
 886	4.4250e-01	4.5769	13.088327	0.000219	2.185949	0.740620	-0.017960
 887	4.4300e-01	4.5496	12.992966	0.000232	2.321270	0.786468	-0.019072
 888	4.4350e-01	4.5143	12.899744	0.000227	2.269224	0.768834	-0.018644
 889	4.4400e-01	4.4935	12.804384	0.000232	2.321270	0.786468	-0.019072
 890	4.4450e-01	4.4181	12.714582	0.000219	2.185949	0.740620	-0.017960
 891	4.4500e-01	4.3876	12.619222	0.000232	2.321270	0.786468	-0.019072
 892	4.4550e-01	4.3603	12.521296	0.000238	2.383726	0.807628	-0.019585
 893	4.4600e-01	4.3378	12.428501	0.000226	2.258814	0.765307	-0.018559
 894	4.4650e-01	4.2817	12.333996	0.000230	2.300451	0.779414	-0.018901
 895	4.4700e-01	4.2560	12.241201	0.000226	2.258814	0.765307	-0.018559
 896	4.4750e-01	4.1838	12.151400	0.000219	2.185949	0.740620	-0.017960
 897	4.4800e-01	4.1421	12.053474	0.000238	2.383726	0.807628	-0.019585
 898	4.4850e-01	4.1116	11.956830	0.000235	2.352498	0.797048	-0.019329
 899	4.4900e-01	4.0876	11.865746	0.000222	2.217177	0.751200	-0.018217
 900	4.4950e-01	4.0362	11.769103	0.000235	2.352498	0.797048	-0.019329
 901	4.5000e-01	3.9865	11.678019	0.000222	2.217177	0.751200	-0.018217
 902	4.5050e-01	3.9705	11.581803	0.000234	2.342089	0.793521	-0.019243
 903	4.5100e-01	3.9304	11.483877	0.000238	2.383726	0.807628	-0.019585
 904	4.5150e-01	3.8871	11.391510	0.000225	2.248405	0.761780	-0.018473
 905	4.5200e-01	3.8325	11.296149	0.000232	2.321270	0.786468	-0.019072
 906	4.5250e-01	3.8165	11.200361	0.000233	2.331679	0.789994	-0.019158
 907	4.5300e-01	3.7683	11.110132	0.000220	2.196359	0.744146	-0.018046
 908	4.5350e-01	3.7379	11.010068	0.000244	2.435772	0.825262	-0.020013
 909	4.5400e-01	3.6785	10.915563	0.000230	2.300451	0.779414	-0.018901
 910	4.5450e-01	3.6352	10.816781	0.000240	2.404544	0.814682	-0.019756
 911	4.5500e-01	3.6079	10.727408	0.000218	2.175540	0.737093	-0.017875
 912	4.5550e-01	3.5726	10.632047	0.000232	2.321270	0.786468	-0.019072
 913	4.5600e-01	3.5149	10.530700	0.000247	2.467000	0.835842	-0.020269
 914	4.5650e-01	3.4764	10.435340	0.000232	2.321270	0.786468	-0.019072
 915	4.5700e-01	3.4555	10.341690	0.000228	2.279633	0.772361	-0.018730
 916	4.5750e-01	3.4122	10.244191	0.000237	2.373316	0.804101	-0.019500
 917	4.5800e-01	3.3545	10.146265	0.000238	2.383726	0.807628	-0.019585
 918	4.5850e-01	3.3079	10.054325	0.000224	2.237996	0.758253	-0.018388
 919	4.5900e-01	3.2726	9.957682	0.000235	2.352498	0.797048	-0.019329
 920	4.5950e-01	3.2438	9.865315	0.000225	2.248405	0.761780	-0.018473
 921	4.6000e-01	3.2133	9.765251	0.000244	2.435772	0.825262	-0.020013
 922	4.6050e-01	3.1379	9.665186	0.000244	2.435772	0.825262	-0.020013
 923	4.6100e-01	3.1266	9.574102	0.000222	2.217177	0.751200	-0.018217
 924	4.6150e-01	3.0769	9.471472	0.000250	2.498228	0.846422	-0.020526
 925	4.6200e-01	3.0432	9.376539	0.000231	2.310861	0.782941	-0.018987
 926	4.6250e-01	3.0015	9.276475	0.000244	2.435772	0.825262	-0.020013
 927	4.6300e-01	2.9566	9.183680	0.000226	2.258814	0.765307	-0.018559
 928	4.6350e-01	2.9213	9.082761	0.000246	2.456591	0.832315	-0.020184
 929	4.6400e-01	2.8780	8.986118	0.000235	2.352498	0.797048	-0.019329
 930	4.6450e-01	2.8475	8.889902	0.000234	2.342089	0.793521	-0.019243
 931	4.6500e-01	2.8074	8.791976	0.000238	2.383726	0.807628	-0.019585
 932	4.6550e-01	2.7561	8.691056	0.000246	2.456591	0.832315	-0.020184
 933	4.6600e-01	2.7497	8.593558	0.000237	2.373316	0.804101	-0.019500
 934	4.6650e-01	2.6630	8.496914	0.000235	2.352498	0.797048	-0.019329
 935	4.6700e-01	2.6277	8.402409	0.000230	2.300451	0.779414	-0.018901
 936	4.6750e-01	2.6181	8.299779	0.000250	2.498228	0.846422	-0.020526
 937	4.6800e-01	2.5491	8.201853	0.000238	2.383726	0.807628	-0.019585
 938	4.6850e-01	2.5154	8.104354	0.000237	2.373316	0.804101	-0.019500
 939	4.6900e-01	2.4817	8.003862	0.000245	2.446181	0.828789	-0.020098
 940	4.6950e-01	2.4320	7.903370	0.000245	2.446181	0.828789	-0.020098
 941	4.7000e-01	2.4288	7.810148	0.000227	2.269224	0.768834	-0.018644
 942	4.7050e-01	2.3582	7.705807	0.000254	2.539865	0.860530	-0.020868
 943	4.7100e-01	2.3133	7.604888	0.000246	2.456591	0.832315	-0.020184
 944	4.7150e-01	2.2652	7.510383	0.000230	2.300451	0.779414	-0.018901
 945	4.7200e-01	2.2395	7.409891	0.000245	2.446181	0.828789	-0.020098
 946	4.7250e-01	2.2283	7.307261	0.000250	2.498228	0.846422	-0.020526
 947	4.7300e-01	2.1930	7.204203	0.000251	2.508637	0.849949	-0.020612
 948	4.7350e-01	2.1112	7.103283	0.000246	2.456591	0.832315	-0.020184
 949	4.7400e-01	2.0582	7.004930	0.000239	2.394135	0.811155	-0.019671
 950	4.7450e-01	2.0181	6.908286	0.000235	2.352498	0.797048	-0.019329
 951	4.7500e-01	1.9989	6.809505	0.000240	2.404544	0.814682	-0.019756
 952	4.7550e-01	1.9716	6.703454	0.000258	2.581502	0.874637	-0.021210
 953	4.7600e-01	1.9363	6.608521	0.000231	2.310861	0.782941	-0.018987
 954	4.7650e-01	1.9042	6.498621	0.000268	2.675186	0.906377	-0.021980
 955	4.7700e-01	1.8401	6.398985	0.000243	2.425363	0.821735	-0.019927
 956	4.7750e-01	1.7839	6.303197	0.000233	2.331679	0.789994	-0.019158
 957	4.7800e-01	1.7534	6.206126	0.000236	2.362907	0.800575	-0.019414
 958	4.7850e-01	1.7165	6.101357	0.000255	2.550274	0.864056	-0.020954
 959	4.7900e-01	1.6877	5.999155	0.000249	2.487819	0.842896	-0.020440
 960	4.7950e-01	1.6155	5.894387	0.000255	2.550274	0.864056	-0.020954
 961	4.8000e-01	1.5978	5.798171	0.000234	2.342089	0.793521	-0.019243
 962	4.8050e-01	1.5545	5.696396	0.000248	2.477409	0.839369	-0.020355
 963	4.8100e-01	1.5336	5.596332	0.000244	2.435772	0.825262	-0.020013
 964	4.8150e-01	1.5048	5.488998	0.000261	2.612730	0.885217	-0.021467
 965	4.8200e-01	1.4534	5.385940	0.000251	2.508637	0.849949	-0.020612
 966	4.8250e-01	1.3909	5.288869	0.000236	2.362907	0.800575	-0.019414
 967	4.8300e-01	1.3524	5.184101	0.000255	2.550274	0.864056	-0.020954
 968	4.8350e-01	1.2914	5.082326	0.000248	2.477409	0.839369	-0.020355
 969	4.8400e-01	1.2834	4.978413	0.000253	2.529456	0.857003	-0.020783
 970	4.8450e-01	1.2353	4.870224	0.000263	2.633548	0.892270	-0.021638
 971	4.8500e-01	1.2176	4.770588	0.000243	2.425363	0.821735	-0.019927
 972	4.8550e-01	1.1647	4.668813	0.000248	2.477409	0.839369	-0.020355
 973	4.8600e-01	1.1165	4.564900	0.000253	2.529456	0.857003	-0.020783
 974	4.8650e-01	1.0476	4.463980	0.000246	2.456591	0.832315	-0.020184
 975	4.8700e-01	1.0411	4.363488	0.000245	2.446181	0.828789	-0.020098
 976	4.8750e-01	0.9802	4.255727	0.000262	2.623139	0.888744	-0.021552
 977	4.8800e-01	0.9529	4.152241	0.000252	2.519046	0.853476	-0.020697
 978	4.8850e-01	0.9096	4.047901	0.000254	2.539865	0.860530	-0.020868
 979	4.8900e-01	0.8984	3.943560	0.000254	2.539865	0.860530	-0.020868
 980	4.8950e-01	0.8390	3.838364	0.000256	2.560683	0.867583	-0.021039
 981	4.9000e-01	0.8085	3.736590	0.000248	2.477409	0.839369	-0.020355
 982	4.9050e-01	0.7540	3.627118	0.000266	2.664776	0.902851	-0.021894
 983	4.9100e-01	0.7363	3.523205	0.000253	2.529456	0.857003	-0.020783
 984	4.9150e-01	0.7123	3.412877	0.000269	2.685595	0.909904	-0.022065
 985	4.9200e-01	0.6273	3.317517	0.000232	2.321270	0.786468	-0.019072
 986	4.9250e-01	0.5968	3.211466	0.000258	2.581502	0.874637	-0.021210
 987	4.9300e-01	0.5711	3.104559	0.000260	2.602321	0.881690	-0.021381
 988	4.9350e-01	0.5053	3.001074	0.000252	2.519046	0.853476	-0.020697
 989	4.9400e-01	0.4829	2.897161	0.000253	2.529456	0.857003	-0.020783
 990	4.9450e-01	0.4380	2.790255	0.000260	2.602321	0.881690	-0.021381
 991	4.9500e-01	0.3962	2.684631	0.000257	2.571093	0.871110	-0.021125
 992	4.9550e-01	0.3802	2.579008	0.000257	2.571093	0.871110	-0.021125
 993	4.9600e-01	0.3192	2.476806	0.000249	2.487819	0.842896	-0.020440
 994	4.9650e-01	0.2920	2.363057	0.000277	2.768869	0.938118	-0.022750
 995	4.9700e-01	0.2615	2.260855	0.000249	2.487819	0.842896	-0.020440
 996	4.9750e-01	0.2278	2.155659	0.000256	2.560683	0.867583	-0.021039
 997	4.9800e-01	0.1636	2.047470	0.000263	2.633548	0.892270	-0.021638
 998	4.9850e-01	0.1203	1.937570	0.000268	2.675186	0.906377	-0.021980
 999	4.9900e-01	0.0738	1.837078	0.000245	2.446181	0.828789	-0.020098
1000	4.9950e-01	0.0642	1.725040	0.000273	2.727232	0.924011	-0.022408
1001	5.0000e-01	0.0610	1.619417	0.000257	2.571093	0.871110	-0.021125
1002	5.0050e-01	-0.0722	1.520208	0.000241	2.414954	0.818208	-0.019842
1003	5.0100e-01	-0.0690	1.409881	-0.000269	-2.685595	-0.909904	-0.022065
1004	5.0150e-01	-0.1315	1.310244	0.000243	2.425363	0.821735	-0.019927
1005	5.0200e-01	-0.1364	1.202910	0.000261	2.612730	0.885217	-0.021467
1006	5.0250e-01	-0.1540	1.095148	0.000262	2.623139	0.888744	-0.021552
1007	5.0300e-01	-0.2390	0.993374	0.000248	2.477409	0.839369	-0.020355
1008	5.0350e-01	-0.2711	0.888605	0.000255	2.550274	0.864056	-0.020954
1009	5.0400e-01	-0.3000	0.781699	0.000260	2.602321	0.881690	-0.021381
1010	5.0450e-01	-0.3481	0.673082	0.000264	2.643958	0.895797	-0.021723
1011	5.0500e-01	-0.3738	0.562755	0.000269	2.685595	0.909904	-0.022065
1012	5.0550e-01	-0.4476	0.461835	0.000246	2.456591	0.832315	-0.020184
1013	5.0600e-01	-0.4668	0.351936	0.000268	2.675186	0.906377	-0.021980
1014	5.0650e-01	-0.5005	0.245029	0.000260	2.602321	0.881690	-0.021381
1015	5.0700e-01	-0.5535	0.141544	0.000252	2.519046	0.853476	-0.020697
1016	5.0750e-01	-0.6321	0.028651	0.000275	2.748051	0.931065	-0.022579
1017	5.0800e-01	-0.6754	-0.075690	0.000254	2.539865	0.860530	-0.020868
1018	5.0850e-01	-0.6770	-0.180030	0.000254	2.539865	0.860530	-0.020868
1019	5.0900e-01	-0.7123	-0.289930	0.000268	2.675186	0.906377	-0.021980
1020	5.0950e-01	-0.7668	-0.394271	0.000254	2.539865	0.860530	-0.020868
1021	5.1000e-01	-0.7716	-0.502887	0.000264	2.643958	0.895797	-0.021723
1022	5.1050e-01	-0.7973	-0.611932	0.000265	2.654367	0.899324	-0.021809
1023	5.1100e-01	-0.8743	-0.716272	0.000254	2.539865	0.860530	-0.020868
1024	5.1150e-01	-0.8936	-0.820613	0.000254	2.539865	0.860530	-0.020868
1025	5.1200e-01	-0.9192	-0.937355	0.000284	2.841734	0.962806	-0.023348
1026	5.1250e-01	-0.9866	-1.039129	0.000248	2.477409	0.839369	-0.020355
1027	5.1300e-01	-1.0315	-1.143898	0.000255	2.550274	0.864056	-0.020954
1028	5.1350e-01	-1.0732	-1.252087	0.000263	2.633548	0.892270	-0.021638
1029	5.1400e-01	-1.0989	-1.354289	0.000249	2.487819	0.842896	-0.020440
1030	5.1450e-01	-1.1246	-1.465899	0.000272	2.716823	0.920484	-0.022322
1031	5.1500e-01	-1.1919	-1.569812	0.000253	2.529456	0.857003	-0.020783
1032	5.1550e-01	-1.2385	-1.676291	0.000259	2.591911	0.878163	-0.021296
1033	5.1600e-01	-1.2625	-1.788757	0.000274	2.737641	0.927538	-0.022493
1034	5.1650e-01	-1.3203	-1.892242	0.000252	2.519046	0.853476	-0.020697
1035	5.1700e-01	-1.3443	-2.002569	0.000269	2.685595	0.909904	-0.022065
1036	5.1750e-01	-1.3877	-2.102206	0.000243	2.425363	0.821735	-0.019927
1037	5.1800e-01	-1.4326	-2.207829	0.000257	2.571093	0.871110	-0.021125
1038	5.1850e-01	-1.4967	-2.316874	0.000265	2.654367	0.899324	-0.021809
1039	5.1900e-01	-1.5144	-2.426773	0.000268	2.675186	0.906377	-0.021980
1040	5.1950e-01	-1.5449	-2.534107	0.000261	2.612730	0.885217	-0.021467
1041	5.2000e-01	-1.5866	-2.640158	0.000258	2.581502	0.874637	-0.021210
1042	5.2050e-01	-1.6187	-2.747920	0.000262	2.623139	0.888744	-0.021552
1043	5.2100e-01	-1.6893	-2.852261	0.000254	2.539865	0.860530	-0.020868
1044	5.2150e-01	-1.7181	-2.963871	0.000272	2.716823	0.920484	-0.022322
1045	5.2200e-01	-1.7470	-3.070349	0.000259	2.591911	0.878163	-0.021296
1046	5.2250e-01	-1.7486	-3.172980	0.000250	2.498228	0.846422	-0.020526
1047	5.2300e-01	-1.8449	-3.281169	0.000263	2.633548	0.892270	-0.021638
1048	5.2350e-01	-1.8753	-3.391068	0.000268	2.675186	0.906377	-0.021980
1049	5.2400e-01	-1.8994	-3.490705	0.000243	2.425363	0.821735	-0.019927
1050	5.2450e-01	-1.9026	-3.601888	0.000271	2.706413	0.916958	-0.022237
1051	5.2500e-01	-1.9860	-3.703663	0.000248	2.477409	0.839369	-0.020355
1052	5.2550e-01	-2.0165	-3.813135	0.000266	2.664776	0.902851	-0.021894
1053	5.2600e-01	-2.0743	-3.916620	0.000252	2.519046	0.853476	-0.020697
1054	5.2650e-01	-2.1176	-4.017112	0.000245	2.446181	0.828789	-0.020098
1055	5.2700e-01	-2.1128	-4.125729	-0.000264	-2.643958	-0.895797	-0.021723
1056	5.2750e-01	-2.1737	-4.232635	0.000260	2.602321	0.881690	-0.021381
1057	5.2800e-01	-2.2267	-4.334410	0.000248	2.477409	0.839369	-0.020355
1058	5.2850e-01	-2.2924	-4.441316	0.000260	2.602321	0.881690	-0.021381
1059	5.2900e-01	-2.3197	-4.544801	0.000252	2.519046	0.853476	-0.020697
1060	5.2950e-01	-2.3582	-4.643583	0.000240	2.404544	0.814682	-0.019756
1061	5.3000e-01	-2.3759	-4.755621	0.000273	2.727232	0.924011	-0.022408
1062	5.3050e-01	-2.4096	-4.860389	0.000255	2.550274	0.864056	-0.020954
1063	5.3100e-01	-2.4593	-4.969006	0.000264	2.643958	0.895797	-0.021723
1064	5.3150e-01	-2.5026	-5.069925	0.000246	2.456591	0.832315	-0.020184
1065	5.3200e-01	-2.5620	-5.174266	0.000254	2.539865	0.860530	-0.020868
1066	5.3250e-01	-2.6133	-5.281172	0.000260	2.602321	0.881690	-0.021381
1067	5.3300e-01	-2.6245	-5.383802	0.000250	2.498228	0.846422	-0.020526
1068	5.3350e-01	-2.6662	-5.485149	0.000247	2.467000	0.835842	-0.020269
1069	5.3400e-01	-2.6935	-5.590773	0.000257	2.571093	0.871110	-0.021125
1070	5.3450e-01	-2.7753	-5.693831	0.000251	2.508637	0.849949	-0.020612
1071	5.3500e-01	-2.7625	-5.798171	-0.000254	-2.539865	-0.860530	-0.020868
1072	5.3550e-01	-2.8379	-5.900801	0.000250	2.498228	0.846422	-0.020526
1073	5.3600e-01	-2.8443	-6.008563	0.000262	2.623139	0.888744	-0.021552
1074	5.3650e-01	-2.8668	-6.110765	0.000249	2.487819	0.842896	-0.020440
1075	5.3700e-01	-2.9454	-6.211257	0.000245	2.446181	0.828789	-0.020098
1076	5.3750e-01	-3.0047	-6.309183	0.000238	2.383726	0.807628	-0.019585
1077	5.3800e-01	-3.0240	-6.416090	0.000260	2.602321	0.881690	-0.021381
1078	5.3850e-01	-3.0865	-6.515299	0.000241	2.414954	0.818208	-0.019842
1079	5.3900e-01	-3.1234	-6.619639	0.000254	2.539865	0.860530	-0.020868
1080	5.3950e-01	-3.1539	-6.724407	0.000255	2.550274	0.864056	-0.020954
1081	5.4000e-01	-3.1956	-6.827893	0.000252	2.519046	0.853476	-0.020697
1082	5.4050e-01	-3.2309	-6.930095	0.000249	2.487819	0.842896	-0.020440
1083	5.4100e-01	-3.2839	-7.034008	0.000253	2.529456	0.857003	-0.020783
1084	5.4150e-01	-3.2630	-7.137066	-0.000251	-2.508637	-0.849949	-0.020612
1085	5.4200e-01	-3.3577	-7.237985	0.000246	2.456591	0.832315	-0.020184
1086	5.4250e-01	-3.3721	-7.336339	0.000239	2.394135	0.811155	-0.019671
1087	5.4300e-01	-3.4523	-7.442818	0.000259	2.591911	0.878163	-0.021296
1088	5.4350e-01	-3.4780	-7.539034	0.000234	2.342089	0.793521	-0.019243
1089	5.4400e-01	-3.4860	-7.645085	0.000258	2.581502	0.874637	-0.021210
1090	5.4450e-01	-3.5486	-7.745577	0.000245	2.446181	0.828789	-0.020098
1091	5.4500e-01	-3.5806	-7.847779	0.000249	2.487819	0.842896	-0.020440
1092	5.4550e-01	-3.6560	-7.946560	0.000240	2.404544	0.814682	-0.019756
1093	5.4600e-01	-3.6593	-8.047908	0.000247	2.467000	0.835842	-0.020269
1094	5.4650e-01	-3.6865	-8.149682	0.000248	2.477409	0.839369	-0.020355
1095	5.4700e-01	-3.7347	-8.249747	0.000244	2.435772	0.825262	-0.020013
1096	5.4750e-01	-3.7924	-8.348956	0.000241	2.414954	0.818208	-0.019842
1097	5.4800e-01	-3.8534	-8.448593	0.000243	2.425363	0.821735	-0.019927
1098	5.4850e-01	-3.8646	-8.547802	0.000241	2.414954	0.818208	-0.019842
1099	5.4900e-01	-3.9191	-8.652570	0.000255	2.550274	0.864056	-0.020954
1100	5.4950e-01	-3.9544	-8.753062	0.000245	2.446181	0.828789	-0.020098
1101	5.5000e-01	-3.9801	-8.852271	0.000241	2.414954	0.818208	-0.019842
1102	5.5050e-01	-4.0202	-8.952335	0.000244	2.435772	0.825262	-0.020013
1103	5.5100e-01	-4.0459	-9.051117	0.000240	2.404544	0.814682	-0.019756
1104	5.5150e-01	-4.1133	-9.155457	0.000254	2.539865	0.860530	-0.020868
1105	5.5200e-01	-4.1614	-9.253811	0.000239	2.394135	0.811155	-0.019671
1106	5.5250e-01	-4.1935	-9.348744	0.000231	2.310861	0.782941	-0.018987
1107	5.5300e-01	-4.2432	-9.447953	0.000241	2.414954	0.818208	-0.019842
1108	5.5350e-01	-4.2657	-9.548017	0.000244	2.435772	0.825262	-0.020013
1109	5.5400e-01	-4.3138	-9.641667	0.000228	2.279633	0.772361	-0.018730
1110	5.5450e-01	-4.3459	-9.744725	0.000251	2.508637	0.849949	-0.020612
1111	5.5500e-01	-4.3796	-9.840085	0.000232	2.321270	0.786468	-0.019072
1112	5.5550e-01	-4.4261	-9.935446	0.000232	2.321270	0.786468	-0.019072
1113	5.5600e-01	-4.4951	-10.037648	0.000249	2.487819	0.842896	-0.020440
1114	5.5650e-01	-4.4919	-10.136857	-0.000241	-2.414954	-0.818208	-0.019842
1115	5.5700e-01	-4.5368	-10.230079	0.000227	2.269224	0.768834	-0.018644
1116	5.5750e-01	-4.5945	-10.330571	0.000245	2.446181	0.828789	-0.020098
1117	5.5800e-01	-4.6844	-10.427642	0.000236	2.362907	0.800575	-0.019414
1118	5.5850e-01	-4.6812	-10.525569	-0.000238	-2.383726	-0.807628	-0.019585
1119	5.5900e-01	-4.7052	-10.622639	0.000236	2.362907	0.800575	-0.019414
1120	5.5950e-01	-4.7309	-10.720138	0.000237	2.373316	0.804101	-0.019500
1121	5.6000e-01	-4.7838	-10.819775	0.000243	2.425363	0.821735	-0.019927
1122	5.6050e-01	-4.8368	-10.915990	0.000234	2.342089	0.793521	-0.019243
1123	5.6100e-01	-4.9025	-11.010496	0.000230	2.300451	0.779414	-0.018901
1124	5.6150e-01	-4.9410	-11.107139	0.000235	2.352498	0.797048	-0.019329
1125	5.6200e-01	-4.9811	-11.202072	0.000231	2.310861	0.782941	-0.018987
1126	5.6250e-01	-5.0116	-11.301281	0.000241	2.414954	0.818208	-0.019842
1127	5.6300e-01	-5.0357	-11.400062	0.000240	2.404544	0.814682	-0.019756
1128	5.6350e-01	-5.0838	-11.495850	0.000233	2.331679	0.789994	-0.019158
1129	5.6400e-01	-5.0918	-11.592066	0.000234	2.342089	0.793521	-0.019243
1130	5.6450e-01	-5.1512	-11.693413	0.000247	2.467000	0.835842	-0.020269
1131	5.6500e-01	-5.1961	-11.783642	0.000220	2.196359	0.744146	-0.018046
1132	5.6550e-01	-5.2490	-11.880285	0.000235	2.352498	0.797048	-0.019329
1133	5.6600e-01	-5.2731	-11.981205	0.000246	2.456591	0.832315	-0.020184
1134	5.6650e-01	-5.3293	-12.074855	0.000228	2.279633	0.772361	-0.018730
1135	5.6700e-01	-5.3597	-12.169360	0.000230	2.300451	0.779414	-0.018901
1136	5.6750e-01	-5.3774	-12.261727	0.000225	2.248405	0.761780	-0.018473
1137	5.6800e-01	-5.4143	-12.358798	0.000236	2.362907	0.800575	-0.019414
1138	5.6850e-01	-5.4303	-12.454158	0.000232	2.321270	0.786468	-0.019072
1139	5.6900e-01	-5.5234	-12.550802	0.000235	2.352498	0.797048	-0.019329
1140	5.6950e-01	-5.5506	-12.641031	0.000220	2.196359	0.744146	-0.018046
1141	5.7000e-01	-5.5619	-12.745371	0.000254	2.539865	0.860530	-0.020868
1142	5.7050e-01	-5.6469	-12.836455	0.000222	2.217177	0.751200	-0.018217
1143	5.7100e-01	-5.6934	-12.928395	0.000224	2.237996	0.758253	-0.018388
1144	5.7150e-01	-5.7255	-13.024611	0.000234	2.342089	0.793521	-0.019243
1145	5.7200e-01	-5.7817	-13.115695	0.000222	2.217177	0.751200	-0.018217
1146	5.7250e-01	-5.8073	-13.214904	0.000241	2.414954	0.818208	-0.019842
1147	5.7300e-01	-5.8394	-13.305988	0.000222	2.217177	0.751200	-0.018217
1148	5.7350e-01	-5.8603	-13.404342	0.000239	2.394135	0.811155	-0.019671
1149	5.7400e-01	-5.9052	-13.492433	0.000214	2.144312	0.726513	-0.017618
1150	5.7450e-01	-5.9405	-13.588221	0.000233	2.331679	0.789994	-0.019158
1151	5.7500e-01	-5.9918	-13.681015	0.000226	2.258814	0.765307	-0.018559
1152	5.7550e-01	-6.0159	-13.777231	0.000234	2.342089	0.793521	-0.019243
1153	5.7600e-01	-6.0752	-13.870026	0.000226	2.258814	0.765307	-0.018559
1154	5.7650e-01	-6.1137	-13.966241	0.000234	2.342089	0.793521	-0.019243
1155	5.7700e-01	-6.1603	-14.058609	0.000225	2.248405	0.761780	-0.018473
1156	5.7750e-01	-6.1811	-14.151831	0.000227	2.269224	0.768834	-0.018644
1157	5.7800e-01	-6.2164	-14.244198	0.000225	2.248405	0.761780	-0.018473
1158	5.7850e-01	-6.2661	-14.337848	0.000228	2.279633	0.772361	-0.018730
1159	5.7900e-01	-6.3367	-14.429360	0.000223	2.227586	0.754727	-0.018302
1160	5.7950e-01	-6.3351	-14.525148	-0.000233	-2.331679	-0.789994	-0.019158
1161	5.8000e-01	-6.3961	-14.616660	0.000223	2.227586	0.754727	-0.018302
1162	5.8050e-01	-6.4250	-14.712448	0.000233	2.331679	0.789994	-0.019158
1163	5.8100e-01	-6.4490	-14.805670	0.000227	2.269224	0.768834	-0.018644
1164	5.8150e-01	-6.5212	-14.898465	0.000226	2.258814	0.765307	-0.018559
1165	5.8200e-01	-6.5597	-14.992115	0.000228	2.279633	0.772361	-0.018730
1166	5.8250e-01	-6.6287	-15.080633	0.000215	2.154721	0.730039	-0.017704
1167	5.8300e-01	-6.6447	-15.172145	0.000223	2.227586	0.754727	-0.018302
1168	5.8350e-01	-6.6816	-15.261518	0.000218	2.175540	0.737093	-0.017875
1169	5.8400e-01	-6.7121	-15.352175	0.000221	2.206768	0.747673	-0.018131
1170	5.8450e-01	-6.7699	-15.447535	0.000232	2.321270	0.786468	-0.019072
1171	5.8500e-01	-6.8003	-15.536481	0.000217	2.165131	0.733566	-0.017789
1172	5.8550e-01	-6.8388	-15.630559	0.000229	2.290042	0.775887	-0.018816
1173	5.8600e-01	-6.8645	-15.717795	0.000212	2.123494	0.719459	-0.017447
1174	5.8650e-01	-6.9271	-15.810162	0.000225	2.248405	0.761780	-0.018473
1175	5.8700e-01	-6.9656	-15.901246	0.000222	2.217177	0.751200	-0.018217
1176	5.8750e-01	-7.0057	-15.994896	0.000228	2.279633	0.772361	-0.018730
1177	5.8800e-01	-7.0410	-16.084269	0.000218	2.175540	0.737093	-0.017875
1178	5.8850e-01	-7.0987	-16.174926	0.000221	2.206768	0.747673	-0.018131
1179	5.8900e-01	-7.1260	-16.262162	0.000212	2.123494	0.719459	-0.017447
1180	5.8950e-01	-7.1677	-16.357094	0.000231	2.310861	0.782941	-0.018987
1181	5.9000e-01	-7.2142	-16.451600	0.000230	2.300451	0.779414	-0.018901
1182	5.9050e-01	-7.2383	-16.540118	0.000215	2.154721	0.730039	-0.017704
1183	5.9100e-01	-7.2736	-16.626498	0.000210	2.102675	0.712406	-0.017276
1184	5.9150e-01	-7.3169	-16.720576	0.000229	2.290042	0.775887	-0.018816
1185	5.9200e-01	-7.3618	-16.814226	0.000228	2.279633	0.772361	-0.018730
1186	5.9250e-01	-7.3875	-16.905310	0.000222	2.217177	0.751200	-0.018217
1187	5.9300e-01	-7.4292	-16.994684	0.000218	2.175540	0.737093	-0.017875
1188	5.9350e-01	-7.4661	-17.082347	0.000213	2.133903	0.722986	-0.017533
1189	5.9400e-01	-7.5319	-17.176852	0.000230	2.300451	0.779414	-0.018901
1190	5.9450e-01	-7.5736	-17.262805	0.000209	2.092266	0.708879	-0.017191
1191	5.9500e-01	-7.5784	-17.356882	0.000229	2.290042	0.775887	-0.018816
1192	5.9550e-01	-7.6313	-17.444973	0.000214	2.144312	0.726513	-0.017618
1193	5.9600e-01	-7.6554	-17.533492	0.000215	2.154721	0.730039	-0.017704
1194	5.9650e-01	-7.6939	-17.624148	0.000221	2.206768	0.747673	-0.018131
1195	5.9700e-01	-7.7404	-17.712239	0.000214	2.144312	0.726513	-0.017618
1196	5.9750e-01	-7.7837	-17.799474	0.000212	2.123494	0.719459	-0.017447
1197	5.9800e-01	-7.8591	-17.886710	0.000212	2.123494	0.719459	-0.017447
1198	5.9850e-01	-7.8527	-17.983353	-0.000235	-2.352498	-0.797048	-0.019329
1199	5.9900e-01	-7.9313	-18.074437	0.000222	2.217177	0.751200	-0.018217
1200	5.9950e-01	-7.9554	-18.160390	0.000209	2.092266	0.708879	-0.017191
1201	6.0000e-01	-7.9795	-18.252757	0.000225	2.248405	0.761780	-0.018473
1202	6.0050e-01	-8.0597	-18.339565	0.000211	2.113084	0.715932	-0.017362
1203	6.0100e-01	-8.0998	-18.426801	0.000212	2.123494	0.719459	-0.017447
1204	6.0150e-01	-8.1206	-18.520878	0.000229	2.290042	0.775887	-0.018816
1205	6.0200e-01	-8.1623	-18.608541	0.000213	2.133903	0.722986	-0.017533
1206	6.0250e-01	-8.2040	-18.692784	0.000205	2.050629	0.694772	-0.016848
1207	6.0300e-01	-8.2329	-18.783868	0.000222	2.217177	0.751200	-0.018217
1208	6.0350e-01	-8.2891	-18.871959	0.000214	2.144312	0.726513	-0.017618
1209	6.0400e-01	-8.3083	-18.960905	0.000217	2.165131	0.733566	-0.017789
1210	6.0450e-01	-8.3500	-19.050278	0.000218	2.175540	0.737093	-0.017875
1211	6.0500e-01	-8.3869	-19.137942	0.000213	2.133903	0.722986	-0.017533
1212	6.0550e-01	-8.4479	-19.221328	0.000203	2.029810	0.687718	-0.016677
1213	6.0600e-01	-8.4703	-19.313268	0.000224	2.237996	0.758253	-0.018388
1214	6.0650e-01	-8.5377	-19.399648	0.000210	2.102675	0.712406	-0.017276
1215	6.0700e-01	-8.5762	-19.487311	0.000213	2.133903	0.722986	-0.017533
1216	6.0750e-01	-8.6067	-19.578396	0.000222	2.217177	0.751200	-0.018217
1217	6.0800e-01	-8.6292	-19.661783	0.000203	2.029810	0.687718	-0.016677
1218	6.0850e-01	-8.6885	-19.750301	0.000215	2.154721	0.730039	-0.017704
1219	6.0900e-01	-8.7254	-19.840957	0.000221	2.206768	0.747673	-0.018131
1220	6.0950e-01	-8.7527	-19.930759	0.000219	2.185949	0.740620	-0.017960
1221	6.1000e-01	-8.7735	-20.017994	0.000212	2.123494	0.719459	-0.017447
1222	6.1050e-01	-8.8249	-20.105658	0.000213	2.133903	0.722986	-0.017533
1223	6.1100e-01	-8.8826	-20.189472	0.000204	2.040219	0.691245	-0.016763
1224	6.1150e-01	-8.9276	-20.276708	0.000212	2.123494	0.719459	-0.017447
1225	6.1200e-01	-8.9580	-20.365226	0.000215	2.154721	0.730039	-0.017704
1226	6.1250e-01	-9.0270	-20.451606	0.000210	2.102675	0.712406	-0.017276
1227	6.1300e-01	-9.0302	-20.537987	0.000210	2.102675	0.712406	-0.017276
1228	6.1350e-01	-9.0719	-20.623512	0.000208	2.081857	0.705352	-0.017105
1229	6.1400e-01	-9.1249	-20.712458	0.000217	2.165131	0.733566	-0.017789
1230	6.1450e-01	-9.1666	-20.799693	0.000212	2.123494	0.719459	-0.017447
1231	6.1500e-01	-9.1923	-20.883508	0.000204	2.040219	0.691245	-0.016763
1232	6.1550e-01	-9.2452	-20.971599	0.000214	2.144312	0.726513	-0.017618
1233	6.1600e-01	-9.2965	-21.052848	0.000198	1.977764	0.670084	-0.016250
1234	6.1650e-01	-9.3366	-21.141794	0.000217	2.165131	0.733566	-0.017789
1235	6.1700e-01	-9.3414	-21.229029	0.000212	2.123494	0.719459	-0.017447
1236	6.1750e-01	-9.3607	-21.317975	0.000217	2.165131	0.733566	-0.017789
1237	6.1800e-01	-9.4249	-21.402217	0.000205	2.050629	0.694772	-0.016848
1238	6.1850e-01	-9.4586	-21.487315	0.000207	2.071447	0.701825	-0.017019
1239	6.1900e-01	-9.5275	-21.574123	0.000211	2.113084	0.715932	-0.017362
1240	6.1950e-01	-9.5612	-21.659648	0.000208	2.081857	0.705352	-0.017105
1241	6.2000e-01	-9.6045	-21.740897	0.000198	1.977764	0.670084	-0.016250
1242	6.2050e-01	-9.6045	-21.828560	0.000213	2.133903	0.722986	-0.017533
1243	6.2100e-01	-9.6623	-21.914085	0.000208	2.081857	0.705352	-0.017105
1244	6.2150e-01	-9.7217	-22.005597	0.000223	2.227586	0.754727	-0.018302
1245	6.2200e-01	-9.7585	-22.090694	0.000207	2.071447	0.701825	-0.017019
1246	6.2250e-01	-9.8147	-22.173226	0.000201	2.008992	0.680665	-0.016506
1247	6.2300e-01	-9.8067	-22.261317	-0.000214	-2.144312	-0.726513	-0.017618
1248	6.2350e-01	-9.8628	-22.347697	0.000210	2.102675	0.712406	-0.017276
1249	6.2400e-01	-9.9045	-22.434077	0.000210	2.102675	0.712406	-0.017276
1250	6.2450e-01	-9.9495	-22.515754	0.000199	1.988173	0.673611	-0.016335
1251	6.2500e-01	-10.0120	-22.604272	0.000215	2.154721	0.730039	-0.017704
1252	6.2550e-01	-10.0361	-22.688942	0.000206	2.061038	0.698299	-0.016934
1253	6.2600e-01	-10.0714	-22.769763	0.000197	1.967354	0.666558	-0.016164
1254	6.2650e-01	-10.1275	-22.856999	0.000212	2.123494	0.719459	-0.017447
1255	6.2700e-01	-10.1612	-22.942524	0.000208	2.081857	0.705352	-0.017105
1256	6.2750e-01	-10.1981	-23.026766	0.000205	2.050629	0.694772	-0.016848
1257	6.2800e-01	-10.2591	-23.111863	0.000207	2.071447	0.701825	-0.017019
1258	6.2850e-01	-10.2719	-23.195678	0.000204	2.040219	0.691245	-0.016763
1259	6.2900e-01	-10.3088	-23.277354	0.000199	1.988173	0.673611	-0.016335
1260	6.2950e-01	-10.3505	-23.362452	0.000207	2.071447	0.701825	-0.017019
1261	6.3000e-01	-10.3970	-23.443273	0.000197	1.967354	0.666558	-0.016164
1262	6.3050e-01	-10.4323	-23.531791	0.000215	2.154721	0.730039	-0.017704
1263	6.3100e-01	-10.4724	-23.617744	0.000209	2.092266	0.708879	-0.017191
1264	6.3150e-01	-10.4965	-23.701558	0.000204	2.040219	0.691245	-0.016763
1265	6.3200e-01	-10.5767	-23.786228	0.000206	2.061038	0.698299	-0.016934
1266	6.3250e-01	-10.5799	-23.873036	0.000211	2.113084	0.715932	-0.017362
1267	6.3300e-01	-10.6248	-23.953430	0.000196	1.956945	0.663031	-0.016079
1268	6.3350e-01	-10.6890	-24.039810	0.000210	2.102675	0.712406	-0.017276
1269	6.3400e-01	-10.7307	-24.121486	0.000199	1.988173	0.673611	-0.016335
1270	6.3450e-01	-10.7564	-24.207012	0.000208	2.081857	0.705352	-0.017105
1271	6.3500e-01	-10.7965	-24.292537	0.000208	2.081857	0.705352	-0.017105
1272	6.3550e-01	-10.8141	-24.375068	0.000201	2.008992	0.680665	-0.016506
1273	6.3600e-01	-10.8783	-24.461449	0.000210	2.102675	0.712406	-0.017276
1274	6.3650e-01	-10.9200	-24.539704	0.000190	1.904899	0.645397	-0.015651
1275	6.3700e-01	-10.9441	-24.623946	0.000205	2.050629	0.694772	-0.016848
1276	6.3750e-01	-11.0050	-24.707761	0.000204	2.040219	0.691245	-0.016763
1277	6.3800e-01	-11.0756	-24.789865	0.000200	1.998582	0.677138	-0.016421
1278	6.3850e-01	-11.0804	-24.874107	0.000205	2.050629	0.694772	-0.016848
1279	6.3900e-01	-11.0852	-24.958349	0.000205	2.050629	0.694772	-0.016848
1280	6.3950e-01	-11.1639	-25.042164	0.000204	2.040219	0.691245	-0.016763
1281	6.4000e-01	-11.1847	-25.126834	0.000206	2.061038	0.698299	-0.016934
1282	6.4050e-01	-11.2393	-25.208510	0.000199	1.988173	0.673611	-0.016335
1283	6.4100e-01	-11.2697	-25.286765	0.000190	1.904899	0.645397	-0.015651
1284	6.4150e-01	-11.2890	-25.378277	0.000223	2.227586	0.754727	-0.018302
1285	6.4200e-01	-11.3403	-25.455250	0.000187	1.873671	0.634817	-0.015395
1286	6.4250e-01	-11.3483	-25.537354	0.000200	1.998582	0.677138	-0.016421
1287	6.4300e-01	-11.4638	-25.621168	0.000204	2.040219	0.691245	-0.016763
1288	6.4350e-01	-11.4767	-25.701562	0.000196	1.956945	0.663031	-0.016079
1289	6.4400e-01	-11.5152	-25.784521	0.000202	2.019401	0.684192	-0.016592
1290	6.4450e-01	-11.5761	-25.866625	0.000200	1.998582	0.677138	-0.016421
1291	6.4500e-01	-11.6162	-25.951295	0.000206	2.061038	0.698299	-0.016934
1292	6.4550e-01	-11.6515	-26.030833	0.000194	1.936127	0.655977	-0.015908
1293	6.4600e-01	-11.6419	-26.116358	-0.000208	-2.081857	-0.705352	-0.017105
1294	6.4650e-01	-11.7189	-26.195897	0.000194	1.936127	0.655977	-0.015908
1295	6.4700e-01	-11.7703	-26.277573	0.000199	1.988173	0.673611	-0.016335
1296	6.4750e-01	-11.7927	-26.361388	0.000204	2.040219	0.691245	-0.016763
1297	6.4800e-01	-11.8344	-26.441354	0.000195	1.946536	0.659504	-0.015993
1298	6.4850e-01	-11.8826	-26.522175	0.000197	1.967354	0.666558	-0.016164
1299	6.4900e-01	-11.8922	-26.605134	0.000202	2.019401	0.684192	-0.016592
1300	6.4950e-01	-11.9628	-26.685100	0.000195	1.946536	0.659504	-0.015993
1301	6.5000e-01	-11.9916	-26.766776	0.000199	1.988173	0.673611	-0.016335
1302	6.5050e-01	-12.0334	-26.840328	0.000179	1.790397	0.606603	-0.014710
1303	6.5100e-01	-12.0446	-26.928419	0.000214	2.144312	0.726513	-0.017618
1304	6.5150e-01	-12.0590	-27.010523	0.000200	1.998582	0.677138	-0.016421
1305	6.5200e-01	-12.1489	-27.091772	0.000198	1.977764	0.670084	-0.016250
1306	6.5250e-01	-12.1665	-27.172165	0.000196	1.956945	0.663031	-0.016079
1307	6.5300e-01	-12.2323	-27.254697	0.000201	2.008992	0.680665	-0.016506
1308	6.5350e-01	-12.2403	-27.339794	0.000207	2.071447	0.701825	-0.017019
1309	6.5400e-01	-12.3382	-27.413773	0.000180	1.800806	0.610130	-0.014796
1310	6.5450e-01	-12.3382	-27.495450	0.000199	1.988173	0.673611	-0.016335
1311	6.5500e-01	-12.3638	-27.577126	0.000199	1.988173	0.673611	-0.016335
1312	6.5550e-01	-12.4585	-27.655382	0.000190	1.904899	0.645397	-0.015651
1313	6.5600e-01	-12.4761	-27.739624	0.000205	2.050629	0.694772	-0.016848
1314	6.5650e-01	-12.5387	-27.816169	0.000186	1.863262	0.631290	-0.015309
1315	6.5700e-01	-12.5579	-27.894424	0.000190	1.904899	0.645397	-0.015651
1316	6.5750e-01	-12.5996	-27.979094	0.000206	2.061038	0.698299	-0.016934
1317	6.5800e-01	-12.6269	-28.059488	0.000196	1.956945	0.663031	-0.016079
1318	6.5850e-01	-12.6686	-28.139454	0.000195	1.946536	0.659504	-0.015993
1319	6.5900e-01	-12.6863	-28.221130	0.000199	1.988173	0.673611	-0.016335
1320	6.5950e-01	-12.7184	-28.298103	0.000187	1.873671	0.634817	-0.015395
1321	6.6000e-01	-12.7873	-28.381917	0.000204	2.040219	0.691245	-0.016763
1322	6.6050e-01	-12.8146	-28.458462	0.000186	1.863262	0.631290	-0.015309
1323	6.6100e-01	-12.8643	-28.537573	0.000193	1.925717	0.652451	-0.015822
1324	6.6150e-01	-12.8643	-28.620532	0.000202	2.019401	0.684192	-0.016592
1325	6.6200e-01	-12.9702	-28.696222	0.000184	1.842443	0.624237	-0.015138
1326	6.6250e-01	-13.0071	-28.777470	0.000198	1.977764	0.670084	-0.016250
1327	6.6300e-01	-13.0488	-28.860430	0.000202	2.019401	0.684192	-0.016592
1328	6.6350e-01	-13.0905	-28.935692	0.000183	1.832034	0.620710	-0.015052
1329	6.6400e-01	-13.0970	-29.019506	0.000204	2.040219	0.691245	-0.016763
1330	6.6450e-01	-13.1499	-29.092630	0.000178	1.779987	0.603076	-0.014625
1331	6.6500e-01	-13.1948	-29.176445	0.000204	2.040219	0.691245	-0.016763
1332	6.6550e-01	-13.2413	-29.252990	0.000186	1.863262	0.631290	-0.015309
1333	6.6600e-01	-13.2654	-29.336377	0.000203	2.029810	0.687718	-0.016677
1334	6.6650e-01	-13.3183	-29.411639	0.000183	1.832034	0.620710	-0.015052
1335	6.6700e-01	-13.3520	-29.495881	0.000205	2.050629	0.694772	-0.016848
1336	6.6750e-01	-13.3889	-29.572853	0.000187	1.873671	0.634817	-0.015395
1337	6.6800e-01	-13.4467	-29.651537	0.000192	1.915308	0.648924	-0.015737
1338	6.6850e-01	-13.4643	-29.731502	0.000195	1.946536	0.659504	-0.015993
1339	6.6900e-01	-13.5205	-29.810613	0.000193	1.925717	0.652451	-0.015822
1340	6.6950e-01	-13.5445	-29.886303	0.000184	1.842443	0.624237	-0.015138
1341	6.7000e-01	-13.5959	-29.969262	0.000202	2.019401	0.684192	-0.016592
1342	6.7050e-01	-13.6504	-30.043669	0.000181	1.811215	0.613656	-0.014881
1343	6.7100e-01	-13.6905	-30.121497	0.000189	1.894489	0.641870	-0.015566
1344	6.7150e-01	-13.6921	-30.202746	0.000198	1.977764	0.670084	-0.016250
1345	6.7200e-01	-13.7579	-30.277152	0.000181	1.811215	0.613656	-0.014881
1346	6.7250e-01	-13.8140	-30.360539	0.000203	2.029810	0.687718	-0.016677
1347	6.7300e-01	-13.8429	-30.435374	0.000182	1.821624	0.617183	-0.014967
1348	6.7350e-01	-13.8686	-30.515340	0.000195	1.946536	0.659504	-0.015993
1349	6.7400e-01	-13.9231	-30.589319	0.000180	1.800806	0.610130	-0.014796
1350	6.7450e-01	-13.9616	-30.670995	0.000199	1.988173	0.673611	-0.016335
1351	6.7500e-01	-14.0017	-30.746257	0.000183	1.832034	0.620710	-0.015052
1352	6.7550e-01	-14.0338	-30.826651	0.000196	1.956945	0.663031	-0.016079
1353	6.7600e-01	-14.0739	-30.903623	0.000187	1.873671	0.634817	-0.015395
1354	6.7650e-01	-14.0771	-30.982306	0.000192	1.915308	0.648924	-0.015737
1355	6.7700e-01	-14.1509	-31.063555	0.000198	1.977764	0.670084	-0.016250
1356	6.7750e-01	-14.1670	-31.133686	0.000171	1.707122	0.578389	-0.014026
1357	6.7800e-01	-14.2424	-31.214507	0.000197	1.967354	0.666558	-0.016164
1358	6.7850e-01	-14.2616	-31.286776	0.000176	1.759169	0.596023	-0.014454
1359	6.7900e-01	-14.2969	-31.372301	0.000208	2.081857	0.705352	-0.017105
1360	6.7950e-01	-14.3595	-31.445852	0.000179	1.790397	0.606603	-0.014710
1361	6.8000e-01	-14.4028	-31.521969	0.000185	1.852852	0.627763	-0.015223
1362	6.8050e-01	-14.4285	-31.603218	0.000198	1.977764	0.670084	-0.016250
1363	6.8100e-01	-14.4686	-31.680191	0.000187	1.873671	0.634817	-0.015395
1364	6.8150e-01	-14.5167	-31.755025	0.000182	1.821624	0.617183	-0.014967
1365	6.8200e-01	-14.5536	-31.837557	0.000201	2.008992	0.680665	-0.016506
1366	6.8250e-01	-14.5905	-31.914529	0.000187	1.873671	0.634817	-0.015395
1367	6.8300e-01	-14.6210	-31.987226	0.000177	1.769578	0.599549	-0.014539
1368	6.8350e-01	-14.6964	-32.062060	0.000182	1.821624	0.617183	-0.014967
1369	6.8400e-01	-14.7188	-32.142026	0.000195	1.946536	0.659504	-0.015993
1370	6.8450e-01	-14.7397	-32.219854	0.000189	1.894489	0.641870	-0.015566
1371	6.8500e-01	-14.7862	-32.299392	0.000194	1.936127	0.655977	-0.015908
1372	6.8550e-01	-14.8151	-32.373371	0.000180	1.800806	0.610130	-0.014796
1373	6.8600e-01	-14.8664	-32.450344	0.000187	1.873671	0.634817	-0.015395
1374	6.8650e-01	-14.8985	-32.526889	0.000186	1.863262	0.631290	-0.015309
1375	6.8700e-01	-14.9675	-32.604289	0.000188	1.884080	0.638344	-0.015480
1376	6.8750e-01	-14.9932	-32.679123	0.000182	1.821624	0.617183	-0.014967
1377	6.8800e-01	-15.0028	-32.757807	0.000192	1.915308	0.648924	-0.015737
1378	6.8850e-01	-15.0750	-32.832213	0.000181	1.811215	0.613656	-0.014881
1379	6.8900e-01	-15.0910	-32.910469	0.000190	1.904899	0.645397	-0.015651
1380	6.8950e-01	-15.1407	-32.985731	0.000183	1.832034	0.620710	-0.015052
1381	6.9000e-01	-15.1696	-33.061420	0.000184	1.842443	0.624237	-0.015138
1382	6.9050e-01	-15.2178	-33.136255	0.000182	1.821624	0.617183	-0.014967
1383	6.9100e-01	-15.2482	-33.211517	0.000183	1.832034	0.620710	-0.015052
1384	6.9150e-01	-15.2867	-33.288490	0.000187	1.873671	0.634817	-0.015395
1385	6.9200e-01	-15.3589	-33.367173	0.000192	1.915308	0.648924	-0.015737
1386	6.9250e-01	-15.4022	-33.443290	0.000185	1.852852	0.627763	-0.015223
1387	6.9300e-01	-15.3958	-33.521973	-0.000192	-1.915308	-0.648924	-0.015737
1388	6.9350e-01	-15.4456	-33.594242	0.000176	1.759169	0.596023	-0.014454
1389	6.9400e-01	-15.5129	-33.669504	0.000183	1.832034	0.620710	-0.015052
1390	6.9450e-01	-15.5386	-33.746049	0.000186	1.863262	0.631290	-0.015309
1391	6.9500e-01	-15.5787	-33.818317	0.000176	1.759169	0.596023	-0.014454
1392	6.9550e-01	-15.6509	-33.893152	0.000182	1.821624	0.617183	-0.014967
1393	6.9600e-01	-15.6541	-33.967558	0.000181	1.811215	0.613656	-0.014881
1394	6.9650e-01	-15.7038	-34.048807	0.000198	1.977764	0.670084	-0.016250
1395	6.9700e-01	-15.7696	-34.122359	0.000179	1.790397	0.606603	-0.014710
1396	6.9750e-01	-15.7937	-34.197621	0.000183	1.832034	0.620710	-0.015052
1397	6.9800e-01	-15.8562	-34.272455	0.000182	1.821624	0.617183	-0.014967
1398	6.9850e-01	-15.8803	-34.348145	0.000184	1.842443	0.624237	-0.015138
1399	6.9900e-01	-15.9188	-34.425973	0.000189	1.894489	0.641870	-0.015566
1400	6.9950e-01	-15.9669	-34.497814	0.000175	1.748759	0.592496	-0.014368
1401	7.0000e-01	-15.9862	-34.574359	0.000186	1.863262	0.631290	-0.015309
1402	7.0050e-01	-16.0070	-34.646627	0.000176	1.759169	0.596023	-0.014454
1403	7.0100e-01	-16.0744	-34.726166	0.000194	1.936127	0.655977	-0.015908
1404	7.0150e-01	-16.1257	-34.801000	0.000182	1.821624	0.617183	-0.014967
1405	7.0200e-01	-16.1434	-34.874124	0.000178	1.779987	0.603076	-0.014625
1406	7.0250e-01	-16.1803	-34.949814	0.000184	1.842443	0.624237	-0.015138
1407	7.0300e-01	-16.2477	-35.022510	0.000177	1.769578	0.599549	-0.014539
1408	7.0350e-01	-16.2525	-35.099483	0.000187	1.873671	0.634817	-0.015395
1409	7.0400e-01	-16.2990	-35.172179	0.000177	1.769578	0.599549	-0.014539
1410	7.0450e-01	-16.3327	-35.247869	0.000184	1.842443	0.624237	-0.015138
1411	7.0500e-01	-16.3969	-35.322703	0.000182	1.821624	0.617183	-0.014967
1412	7.0550e-01	-16.4209	-35.393689	0.000173	1.727941	0.585442	-0.014197
1413	7.0600e-01	-16.4578	-35.472799	0.000193	1.925717	0.652451	-0.015822
1414	7.0650e-01	-16.5011	-35.541219	0.000167	1.665485	0.564282	-0.013684
1415	7.0700e-01	-16.5428	-35.619047	0.000189	1.894489	0.641870	-0.015566
1416	7.0750e-01	-16.5830	-35.692599	0.000179	1.790397	0.606603	-0.014710
1417	7.0800e-01	-16.6471	-35.763585	0.000173	1.727941	0.585442	-0.014197
1418	7.0850e-01	-16.6712	-35.840557	0.000187	1.873671	0.634817	-0.015395
1419	7.0900e-01	-16.6985	-35.912826	0.000176	1.759169	0.596023	-0.014454
1420	7.0950e-01	-16.7402	-35.988515	0.000184	1.842443	0.624237	-0.015138
1421	7.1000e-01	-16.8043	-36.064633	0.000185	1.852852	0.627763	-0.015223
1422	7.1050e-01	-16.8412	-36.135619	0.000173	1.727941	0.585442	-0.014197
1423	7.1100e-01	-16.8910	-36.213019	0.000188	1.884080	0.638344	-0.015480
1424	7.1150e-01	-16.9279	-36.286998	0.000180	1.800806	0.610130	-0.014796
1425	7.1200e-01	-16.9295	-36.363543	0.000186	1.863262	0.631290	-0.015309
1426	7.1250e-01	-17.0001	-36.434956	0.000174	1.738350	0.588969	-0.014283
1427	7.1300e-01	-17.0353	-36.509363	0.000181	1.811215	0.613656	-0.014881
1428	7.1350e-01	-17.0402	-36.584197	0.000182	1.821624	0.617183	-0.014967
1429	7.1400e-01	-17.1220	-36.656039	0.000175	1.748759	0.592496	-0.014368
1430	7.1450e-01	-17.1476	-36.729162	0.000178	1.779987	0.603076	-0.014625
1431	7.1500e-01	-17.1942	-36.800576	0.000174	1.738350	0.588969	-0.014283
1432	7.1550e-01	-17.2118	-36.871989	0.000174	1.738350	0.588969	-0.014283
1433	7.1600e-01	-17.3033	-36.948962	0.000187	1.873671	0.634817	-0.015395
1434	7.1650e-01	-17.2856	-37.021658	-0.000177	-1.769578	-0.599549	-0.014539
1435	7.1700e-01	-17.3674	-37.096065	0.000181	1.811215	0.613656	-0.014881
1436	7.1750e-01	-17.3947	-37.165768	0.000170	1.696713	0.574862	-0.013941
1437	7.1800e-01	-17.4605	-37.235898	0.000171	1.707122	0.578389	-0.014026
1438	7.1850e-01	-17.4573	-37.313726	-0.000189	-1.894489	-0.641870	-0.015566
1439	7.1900e-01	-17.5214	-37.388133	0.000181	1.811215	0.613656	-0.014881
1440	7.1950e-01	-17.5503	-37.458691	0.000172	1.717532	0.581915	-0.014112
1441	7.2000e-01	-17.5872	-37.531815	0.000178	1.779987	0.603076	-0.014625
1442	7.2050e-01	-17.6434	-37.602373	0.000172	1.717532	0.581915	-0.014112
1443	7.2100e-01	-17.6450	-37.678918	0.000186	1.863262	0.631290	-0.015309
1444	7.2150e-01	-17.6867	-37.749049	0.000171	1.707122	0.578389	-0.014026
1445	7.2200e-01	-17.7508	-37.825594	0.000186	1.863262	0.631290	-0.015309
1446	7.2250e-01	-17.8070	-37.903421	0.000189	1.894489	0.641870	-0.015566
1447	7.2300e-01	-17.8487	-37.967993	0.000157	1.571802	0.532541	-0.012914
1448	7.2350e-01	-17.8952	-38.040689	0.000177	1.769578	0.599549	-0.014539
1449	7.2400e-01	-17.9145	-38.113813	0.000178	1.779987	0.603076	-0.014625
1450	7.2450e-01	-17.9241	-38.190358	0.000186	1.863262	0.631290	-0.015309
1451	7.2500e-01	-17.9770	-38.262199	0.000175	1.748759	0.592496	-0.014368
1452	7.2550e-01	-18.0075	-38.336178	0.000180	1.800806	0.610130	-0.014796
1453	7.2600e-01	-18.0492	-38.407164	0.000173	1.727941	0.585442	-0.014197
1454	7.2650e-01	-18.1166	-38.477722	0.000172	1.717532	0.581915	-0.014112
1455	7.2700e-01	-18.1503	-38.555550	0.000189	1.894489	0.641870	-0.015566
1456	7.2750e-01	-18.1808	-38.623970	0.000167	1.665485	0.564282	-0.013684
1457	7.2800e-01	-18.2465	-38.694528	0.000172	1.717532	0.581915	-0.014112
1458	7.2850e-01	-18.2738	-38.768507	0.000180	1.800806	0.610130	-0.014796
1459	7.2900e-01	-18.3492	-38.837355	0.000168	1.675894	0.567808	-0.013770
1460	7.2950e-01	-18.3476	-38.913472	-0.000185	-1.852852	-0.627763	-0.015223
1461	7.3000e-01	-18.3604	-38.989162	0.000184	1.842443	0.624237	-0.015138
1462	7.3050e-01	-18.4262	-39.055872	0.000162	1.623848	0.550175	-0.013342
1463	7.3100e-01	-18.4792	-39.130278	0.000181	1.811215	0.613656	-0.014881
1464	7.3150e-01	-18.5032	-39.202547	0.000176	1.759169	0.596023	-0.014454
1465	7.3200e-01	-18.5530	-39.271822	0.000169	1.686304	0.571335	-0.013855
1466	7.3250e-01	-18.5754	-39.347084	0.000183	1.832034	0.620710	-0.015052
1467	7.3300e-01	-18.6364	-39.417643	0.000172	1.717532	0.581915	-0.014112
1468	7.3350e-01	-18.6620	-39.487345	0.000170	1.696713	0.574862	-0.013941
1469	7.3400e-01	-18.7182	-39.560042	0.000177	1.769578	0.599549	-0.014539
1470	7.3450e-01	-18.7567	-39.632738	0.000177	1.769578	0.599549	-0.014539
1471	7.3500e-01	-18.8048	-39.702441	0.000170	1.696713	0.574862	-0.013941
1472	7.3550e-01	-18.8369	-39.779414	0.000187	1.873671	0.634817	-0.015395
1473	7.3600e-01	-18.8610	-39.853820	0.000181	1.811215	0.613656	-0.014881
1474	7.3650e-01	-18.9043	-39.921385	0.000164	1.644667	0.557228	-0.013513
1475	7.3700e-01	-18.9428	-39.994509	0.000178	1.779987	0.603076	-0.014625
1476	7.3750e-01	-18.9765	-40.069771	0.000183	1.832034	0.620710	-0.015052
1477	7.3800e-01	-19.0262	-40.136481	0.000162	1.623848	0.550175	-0.013342
1478	7.3850e-01	-19.0888	-40.207894	0.000174	1.738350	0.588969	-0.014283
1479	7.3900e-01	-19.1369	-40.281873	0.000180	1.800806	0.610130	-0.014796
1480	7.3950e-01	-19.1545	-40.348155	0.000161	1.613439	0.546648	-0.013256
1481	7.4000e-01	-19.1754	-40.425128	0.000187	1.873671	0.634817	-0.015395
1482	7.4050e-01	-19.2380	-40.498252	0.000178	1.779987	0.603076	-0.014625
1483	7.4100e-01	-19.2877	-40.567955	0.000170	1.696713	0.574862	-0.013941
1484	7.4150e-01	-19.3037	-40.636375	0.000167	1.665485	0.564282	-0.013684
1485	7.4200e-01	-19.3037	-40.711637	0.000183	1.832034	0.620710	-0.015052
1486	7.4250e-01	-19.4064	-40.783050	0.000174	1.738350	0.588969	-0.014283
1487	7.4300e-01	-19.4385	-40.855319	0.000176	1.759169	0.596023	-0.014454
1488	7.4350e-01	-19.4994	-40.924594	0.000169	1.686304	0.571335	-0.013855
1489	7.4400e-01	-19.5203	-40.992159	0.000164	1.644667	0.557228	-0.013513
1490	7.4450e-01	-19.5460	-41.070842	0.000192	1.915308	0.648924	-0.015737
1491	7.4500e-01	-19.5893	-41.139262	0.000167	1.665485	0.564282	-0.013684
1492	7.4550e-01	-19.6294	-41.211531	0.000176	1.759169	0.596023	-0.014454
1493	7.4600e-01	-19.6663	-41.280806	0.000169	1.686304	0.571335	-0.013855
1494	7.4650e-01	-19.7224	-41.350936	0.000171	1.707122	0.578389	-0.014026
1495	7.4700e-01	-19.7433	-41.421495	0.000172	1.717532	0.581915	-0.014112
1496	7.4750e-01	-19.7818	-41.489487	0.000166	1.655076	0.560755	-0.013598
1497	7.4800e-01	-19.8460	-41.561328	0.000175	1.748759	0.592496	-0.014368
1498	7.4850e-01	-19.8700	-41.631031	0.000170	1.696713	0.574862	-0.013941
1499	7.4900e-01	-19.9101	-41.702872	0.000175	1.748759	0.592496	-0.014368
1500	7.4950e-01	-19.9358	-41.775568	0.000177	1.769578	0.599549	-0.014539
1501	7.5000e-01	-19.9952	-41.844844	0.000169	1.686304	0.571335	-0.013855
1502	7.5050e-01	-19.9069	-41.911126	-0.000161	-1.613439	-0.546648	-0.013256
1503	7.5100e-01	-19.8716	-41.965006	-0.000131	-1.311570	-0.444372	-0.010776
1504	7.5150e-01	-19.8187	-42.004348	-0.000096	-0.957654	-0.324462	-0.007868
1505	7.5200e-01	-19.7914	-42.034709	-0.000074	-0.739059	-0.250400	-0.006072
1506	7.5250e-01	-19.7722	-42.049249	-0.000035	-0.353916	-0.119910	-0.002908
1507	7.5300e-01	-19.7385	-42.059939	-0.000026	-0.260232	-0.088169	-0.002138
1508	7.5350e-01	-19.6839	-42.065926	-0.000015	-0.145730	-0.049375	-0.001197
1509	7.5400e-01	-19.6470	-42.061650	0.000010	0.104093	0.035268	0.000855
1510	7.5450e-01	-19.6005	-42.054808	0.000017	0.166549	0.056428	0.001368
1511	7.5500e-01	-19.5925	-42.036420	0.000045	0.447599	0.151651	0.003678
1512	7.5550e-01	-19.5444	-42.014611	0.000053	0.530873	0.179865	0.004362
1513	7.5600e-01	-19.5043	-41.990664	0.000058	0.582920	0.197499	0.004789
1514	7.5650e-01	-19.4513	-41.966289	0.000059	0.593329	0.201025	0.004875
1515	7.5700e-01	-19.3984	-41.931224	0.000085	0.853561	0.289194	0.007013
1516	7.5750e-01	-19.3711	-41.896586	0.000084	0.843152	0.285668	0.006928
1517	7.5800e-01	-19.3551	-41.857245	0.000096	0.957654	0.324462	0.007868
1518	7.5850e-01	-19.3278	-41.816193	0.000100	0.999291	0.338569	0.008210
1519	7.5900e-01	-19.2733	-41.773003	0.000105	1.051338	0.356203	0.008638
1520	7.5950e-01	-19.2267	-41.724681	0.000118	1.176249	0.398524	0.009664
1521	7.6000e-01	-19.1818	-41.673366	0.000125	1.249114	0.423211	0.010263
1522	7.6050e-01	-19.1417	-41.628038	0.000110	1.103384	0.373837	0.009066
1523	7.6100e-01	-19.0759	-41.575440	0.000128	1.280342	0.433792	0.010520
1524	7.6150e-01	-19.0759	-41.526263	-0.000120	-1.197067	-0.405577	0.009835
1525	7.6200e-01	-18.9765	-41.474948	0.000125	1.249114	0.423211	0.010263
1526	7.6250e-01	-18.9412	-41.417218	0.000141	1.405253	0.476113	0.011546
1527	7.6300e-01	-18.9460	-41.367614	-0.000121	-1.207477	-0.409104	0.009921
1528	7.6350e-01	-18.9139	-41.305608	0.000151	1.509346	0.511380	0.012401
1529	7.6400e-01	-18.8545	-41.255576	0.000122	1.217886	0.412631	0.010006
1530	7.6450e-01	-18.8289	-41.193570	0.000151	1.509346	0.511380	0.012401
1531	7.6500e-01	-18.7663	-41.137979	0.000135	1.353207	0.458479	0.011118
1532	7.6550e-01	-18.7230	-41.078967	0.000144	1.436481	0.486693	0.011802
1533	7.6600e-01	-18.6989	-41.017389	0.000150	1.498937	0.507853	0.012316
1534	7.6650e-01	-18.6123	-40.956238	0.000149	1.488527	0.504327	0.012230
1535	7.6700e-01	-18.6043	-40.901502	0.000133	1.332388	0.451425	0.010947
1536	7.6750e-01	-18.5513	-40.835648	0.000160	1.603030	0.543121	0.013171
1537	7.6800e-01	-18.5193	-40.774070	0.000150	1.498937	0.507853	0.012316
1538	7.6850e-01	-18.4888	-40.709499	0.000157	1.571802	0.532541	0.012914
1539	7.6900e-01	-18.4679	-40.650486	0.000144	1.436481	0.486693	0.011802
1540	7.6950e-01	-18.4310	-40.584204	0.000161	1.613439	0.546648	0.013256
1541	7.7000e-01	-18.3925	-40.520061	0.000156	1.561392	0.529014	0.012829
1542	7.7050e-01	-18.3155	-40.460193	0.000146	1.457300	0.493746	0.011974
1543	7.7100e-01	-18.3059	-40.394339	0.000160	1.603030	0.543121	0.013171
1544	7.7150e-01	-18.2481	-40.332761	0.000150	1.498937	0.507853	0.012316
1545	7.7200e-01	-18.2145	-40.269472	0.000154	1.540574	0.521961	0.012658
1546	7.7250e-01	-18.1824	-40.201907	0.000164	1.644667	0.557228	0.013513
1547	7.7300e-01	-18.0974	-40.141185	0.000148	1.478118	0.500800	0.012145
1548	7.7350e-01	-18.0845	-40.076613	0.000157	1.571802	0.532541	0.012914
1549	7.7400e-01	-18.0556	-40.012042	0.000157	1.571802	0.532541	0.012914
1550	7.7450e-01	-18.0268	-39.948753	0.000154	1.540574	0.521961	0.012658
1551	7.7500e-01	-17.9706	-39.885037	0.000155	1.550983	0.525487	0.012743
1552	7.7550e-01	-17.9209	-39.817900	0.000163	1.634257	0.553701	0.013427
1553	7.7600e-01	-17.9064	-39.752901	0.000158	1.582211	0.536068	0.013000
1554	7.7650e-01	-17.8343	-39.686619	0.000161	1.613439	0.546648	0.013256
1555	7.7700e-01	-17.8054	-39.623758	0.000153	1.530165	0.518434	0.012572
1556	7.7750e-01	-17.7733	-39.556193	0.000164	1.644667	0.557228	0.013513
1557	7.7800e-01	-17.7364	-39.485635	0.000172	1.717532	0.581915	0.014112
1558	7.7850e-01	-17.6738	-39.415504	0.000171	1.707122	0.578389	0.014026
1559	7.7900e-01	-17.6225	-39.353071	0.000152	1.519755	0.514907	0.012487
1560	7.7950e-01	-17.5968	-39.294059	0.000144	1.436481	0.486693	0.011802
1561	7.8000e-01	-17.5615	-39.221363	0.000177	1.769578	0.599549	0.014539
1562	7.8050e-01	-17.5246	-39.156364	0.000158	1.582211	0.536068	0.013000
1563	7.8100e-01	-17.4781	-39.094358	0.000151	1.509346	0.511380	0.012401
1564	7.8150e-01	-17.4621	-39.025510	0.000168	1.675894	0.567808	0.013770
1565	7.8200e-01	-17.3674	-38.960084	0.000159	1.592620	0.539594	0.013085
1566	7.8250e-01	-17.3530	-38.895940	0.000156	1.561392	0.529014	0.012829
1567	7.8300e-01	-17.3209	-38.828375	0.000164	1.644667	0.557228	0.013513
1568	7.8350e-01	-17.2776	-38.766797	0.000150	1.498937	0.507853	0.012316
1569	7.8400e-01	-17.2551	-38.696239	0.000172	1.717532	0.581915	0.014112
1570	7.8450e-01	-17.2423	-38.626963	0.000169	1.686304	0.571335	0.013855
1571	7.8500e-01	-17.1765	-38.562820	0.000156	1.561392	0.529014	0.012829
1572	7.8550e-01	-17.1316	-38.495682	0.000163	1.634257	0.553701	0.013427
1573	7.8600e-01	-17.0995	-38.429828	0.000160	1.603030	0.543121	0.013171
1574	7.8650e-01	-17.0434	-38.364402	0.000159	1.592620	0.539594	0.013085
1575	7.8700e-01	-17.0097	-38.291705	0.000177	1.769578	0.599549	0.014539
1576	7.8750e-01	-16.9455	-38.225851	0.000160	1.603030	0.543121	0.013171
1577	7.8800e-01	-16.9487	-38.159141	-0.000162	-1.623848	-0.550175	0.013342
1578	7.8850e-01	-16.8894	-38.092859	0.000161	1.613439	0.546648	0.013256
1579	7.8900e-01	-16.8653	-38.022301	0.000172	1.717532	0.581915	0.014112
1580	7.8950e-01	-16.8059	-37.957302	0.000158	1.582211	0.536068	0.013000
1581	7.9000e-01	-16.7658	-37.892731	0.000157	1.571802	0.532541	0.012914
1582	7.9050e-01	-16.7578	-37.821317	0.000174	1.738350	0.588969	0.014283
1583	7.9100e-01	-16.6824	-37.751187	0.000171	1.707122	0.578389	0.014026
1584	7.9150e-01	-16.6423	-37.681912	0.000169	1.686304	0.571335	0.013855
1585	7.9200e-01	-16.6006	-37.618195	0.000155	1.550983	0.525487	0.012743
1586	7.9250e-01	-16.5749	-37.548920	0.000169	1.686304	0.571335	0.013855
1587	7.9300e-01	-16.5509	-37.481783	0.000163	1.634257	0.553701	0.013427
1588	7.9350e-01	-16.4771	-37.407804	0.000180	1.800806	0.610130	0.014796
1589	7.9400e-01	-16.4610	-37.340667	0.000163	1.634257	0.553701	0.013427
1590	7.9450e-01	-16.4113	-37.278233	0.000152	1.519755	0.514907	0.012487
1591	7.9500e-01	-16.3535	-37.208958	0.000169	1.686304	0.571335	0.013855
1592	7.9550e-01	-16.3327	-37.140966	0.000166	1.655076	0.560755	0.013598
1593	7.9600e-01	-16.2749	-37.071690	0.000169	1.686304	0.571335	0.013855
1594	7.9650e-01	-16.2557	-37.001987	0.000170	1.696713	0.574862	0.013941
1595	7.9700e-01	-16.2236	-36.933995	0.000166	1.655076	0.560755	0.013598
1596	7.9750e-01	-16.1851	-36.859588	0.000181	1.811215	0.613656	0.014881
1597	7.9800e-01	-16.1145	-36.795872	0.000155	1.550983	0.525487	0.012743
1598	7.9850e-01	-16.1209	-36.724886	-0.000173	-1.727941	-0.585442	0.014197
1599	7.9900e-01	-16.0600	-36.658177	0.000162	1.623848	0.550175	0.013342
1600	7.9950e-01	-15.9910	-36.588474	0.000170	1.696713	0.574862	0.013941
1601	8.0000e-01	-15.9701	-36.518343	0.000171	1.707122	0.578389	0.014026
1602	8.0050e-01	-15.9541	-36.449923	0.000167	1.665485	0.564282	0.013684
1603	8.0100e-01	-15.8610	-36.379793	0.000171	1.707122	0.578389	0.014026
1604	8.0150e-01	-15.8803	-36.312228	-0.000164	-1.644667	-0.557228	0.013513
1605	8.0200e-01	-15.8258	-36.243380	0.000168	1.675894	0.567808	0.013770
1606	8.0250e-01	-15.7792	-36.177953	0.000159	1.592620	0.539594	0.013085
1607	8.0300e-01	-15.6862	-36.108251	0.000170	1.696713	0.574862	0.013941
1608	8.0350e-01	-15.6349	-36.039831	0.000167	1.665485	0.564282	0.013684
1609	8.0400e-01	-15.6525	-35.965424	-0.000181	-1.811215	-0.613656	0.014881
1610	8.0450e-01	-15.5931	-35.896576	0.000168	1.675894	0.567808	0.013770
1611	8.0500e-01	-15.5595	-35.820459	0.000185	1.852852	0.627763	0.015223
1612	8.0550e-01	-15.5370	-35.753749	0.000162	1.623848	0.550175	0.013342
1613	8.0600e-01	-15.5033	-35.680198	0.000179	1.790397	0.606603	0.014710
1614	8.0650e-01	-15.4584	-35.613488	0.000162	1.623848	0.550175	0.013342
1615	8.0700e-01	-15.4103	-35.543785	0.000170	1.696713	0.574862	0.013941
1616	8.0750e-01	-15.3718	-35.477076	0.000162	1.623848	0.550175	0.013342
1617	8.0800e-01	-15.3637	-35.400531	0.000186	1.863262	0.631290	0.015309
1618	8.0850e-01	-15.3124	-35.331683	0.000168	1.675894	0.567808	0.013770
1619	8.0900e-01	-15.2322	-35.261553	0.000171	1.707122	0.578389	0.014026
1620	8.0950e-01	-15.2113	-35.193988	0.000164	1.644667	0.557228	0.013513
1621	8.1000e-01	-15.1873	-35.123430	0.000172	1.717532	0.581915	0.014112
1622	8.1050e-01	-15.1311	-35.056720	0.000162	1.623848	0.550175	0.013342
1623	8.1100e-01	-15.0621	-34.982313	0.000181	1.811215	0.613656	0.014881
1624	8.1150e-01	-15.0365	-34.912183	0.000171	1.707122	0.578389	0.014026
1625	8.1200e-01	-15.0140	-34.840342	0.000175	1.748759	0.592496	0.014368
1626	8.1250e-01	-14.9755	-34.771066	0.000169	1.686304	0.571335	0.013855
1627	8.1300e-01	-14.8777	-34.697087	0.000180	1.800806	0.610130	0.014796
1628	8.1350e-01	-14.8937	-34.627384	-0.000170	-1.696713	-0.574862	0.013941
1629	8.1400e-01	-14.8728	-34.552977	0.000181	1.811215	0.613656	0.014881
1630	8.1450e-01	-14.7974	-34.484130	0.000168	1.675894	0.567808	0.013770
1631	8.1500e-01	-14.7429	-34.412716	0.000174	1.738350	0.588969	0.014283
1632	8.1550e-01	-14.6916	-34.343013	0.000170	1.696713	0.574862	0.013941
1633	8.1600e-01	-14.6675	-34.272028	0.000173	1.727941	0.585442	0.014197
1634	8.1650e-01	-14.6466	-34.200614	0.000174	1.738350	0.588969	0.014283
1635	8.1700e-01	-14.6242	-34.131339	0.000169	1.686304	0.571335	0.013855
1636	8.1750e-01	-14.5488	-34.056932	0.000181	1.811215	0.613656	0.014881
1637	8.1800e-01	-14.5023	-33.990650	0.000161	1.613439	0.546648	0.013256
1638	8.1850e-01	-14.4975	-33.911967	0.000192	1.915308	0.648924	0.015737
1639	8.1900e-01	-14.4670	-33.844402	0.000164	1.644667	0.557228	0.013513
1640	8.1950e-01	-14.4060	-33.772134	0.000176	1.759169	0.596023	0.014454
1641	8.2000e-01	-14.3755	-33.702858	0.000169	1.686304	0.571335	0.013855
1642	8.2050e-01	-14.3178	-33.629307	0.000179	1.790397	0.606603	0.014710
1643	8.2100e-01	-14.2424	-33.558321	0.000173	1.727941	0.585442	0.014197
1644	8.2150e-01	-14.2664	-33.484342	-0.000180	-1.800806	-0.610130	0.014796
1645	8.2200e-01	-14.2023	-33.411218	0.000178	1.779987	0.603076	0.014625
1646	8.2250e-01	-14.1830	-33.340660	0.000172	1.717532	0.581915	0.014112
1647	8.2300e-01	-14.1381	-33.273095	0.000164	1.644667	0.557228	0.013513
1648	8.2350e-01	-14.0932	-33.193984	0.000193	1.925717	0.652451	0.015822
1649	8.2400e-01	-14.0579	-33.123854	0.000171	1.707122	0.578389	0.014026
1650	8.2450e-01	-14.0210	-33.056289	0.000164	1.644667	0.557228	0.013513
1651	8.2500e-01	-13.9809	-32.982310	0.000180	1.800806	0.610130	0.014796
1652	8.2550e-01	-13.9328	-32.910469	0.000175	1.748759	0.592496	0.014368
1653	8.2600e-01	-13.9263	-32.837772	0.000177	1.769578	0.599549	0.014539
1654	8.2650e-01	-13.8670	-32.764649	0.000178	1.779987	0.603076	0.014625
1655	8.2700e-01	-13.7980	-32.694090	0.000172	1.717532	0.581915	0.014112
1656	8.2750e-01	-13.7547	-32.624387	0.000170	1.696713	0.574862	0.013941
1657	8.2800e-01	-13.7274	-32.546132	0.000190	1.904899	0.645397	0.015651
1658	8.2850e-01	-13.6809	-32.473863	0.000176	1.759169	0.596023	0.014454
1659	8.2900e-01	-13.6616	-32.402450	0.000174	1.738350	0.588969	0.014283
1660	8.2950e-01	-13.6135	-32.327616	0.000182	1.821624	0.617183	0.014967
1661	8.3000e-01	-13.5830	-32.252353	0.000183	1.832034	0.620710	0.015052
1662	8.3050e-01	-13.5365	-32.180085	0.000176	1.759169	0.596023	0.014454
1663	8.3100e-01	-13.4932	-32.103112	0.000187	1.873671	0.634817	0.015395
1664	8.3150e-01	-13.4354	-32.036830	0.000161	1.613439	0.546648	0.013256
1665	8.3200e-01	-13.3937	-31.959430	0.000188	1.884080	0.638344	0.015480
1666	8.3250e-01	-13.3873	-31.886734	0.000177	1.769578	0.599549	0.014539
1667	8.3300e-01	-13.3296	-31.814038	0.000177	1.769578	0.599549	0.014539
1668	8.3350e-01	-13.2830	-31.738348	0.000184	1.842443	0.624237	0.015138
1669	8.3400e-01	-13.2590	-31.666507	0.000175	1.748759	0.592496	0.014368
1670	8.3450e-01	-13.1740	-31.597232	0.000169	1.686304	0.571335	0.013855
1671	8.3500e-01	-13.1531	-31.518976	0.000190	1.904899	0.645397	0.015651
1672	8.3550e-01	-13.1178	-31.444997	0.000180	1.800806	0.610130	0.014796
1673	8.3600e-01	-13.0905	-31.368880	0.000185	1.852852	0.627763	0.015223
1674	8.3650e-01	-13.0665	-31.293618	0.000183	1.832034	0.620710	0.015052
1675	8.3700e-01	-13.0055	-31.219211	0.000181	1.811215	0.613656	0.014881
1676	8.3750e-01	-12.9574	-31.148653	0.000172	1.717532	0.581915	0.014112
1677	8.3800e-01	-12.9381	-31.074673	0.000180	1.800806	0.610130	0.014796
1678	8.3850e-01	-12.8740	-30.997273	0.000188	1.884080	0.638344	0.015480
1679	8.3900e-01	-12.8692	-30.920728	0.000186	1.863262	0.631290	0.015309
1680	8.3950e-01	-12.8050	-30.847604	0.000178	1.779987	0.603076	0.014625
1681	8.4000e-01	-12.7809	-30.773198	0.000181	1.811215	0.613656	0.014881
1682	8.4050e-01	-12.7424	-30.702212	0.000173	1.727941	0.585442	0.014197
1683	8.4100e-01	-12.7376	-30.625667	0.000186	1.863262	0.631290	0.015309
1684	8.4150e-01	-12.6622	-30.553398	0.000176	1.759169	0.596023	0.014454
1685	8.4200e-01	-12.6205	-30.476426	0.000187	1.873671	0.634817	0.015395
1686	8.4250e-01	-12.5980	-30.404157	0.000176	1.759169	0.596023	0.014454
1687	8.4300e-01	-12.5194	-30.331461	0.000177	1.769578	0.599549	0.014539
1688	8.4350e-01	-12.4954	-30.252778	0.000192	1.915308	0.648924	0.015737
1689	8.4400e-01	-12.4665	-30.177943	0.000182	1.821624	0.617183	0.014967
1690	8.4450e-01	-12.4152	-30.102681	0.000183	1.832034	0.620710	0.015052
1691	8.4500e-01	-12.3911	-30.030413	0.000176	1.759169	0.596023	0.014454
1692	8.4550e-01	-12.3061	-29.956433	0.000180	1.800806	0.610130	0.014796
1693	8.4600e-01	-12.2740	-29.882027	0.000181	1.811215	0.613656	0.014881
1694	8.4650e-01	-12.2531	-29.802488	0.000194	1.936127	0.655977	0.015908
1695	8.4700e-01	-12.2194	-29.724233	0.000190	1.904899	0.645397	0.015651
1696	8.4750e-01	-12.1649	-29.653675	0.000172	1.717532	0.581915	0.014112
1697	8.4800e-01	-12.1360	-29.578840	0.000182	1.821624	0.617183	0.014967
1698	8.4850e-01	-12.0767	-29.503578	0.000183	1.832034	0.620710	0.015052
1699	8.4900e-01	-12.0494	-29.433020	0.000172	1.717532	0.581915	0.014112
1700	8.4950e-01	-12.0013	-29.354337	0.000192	1.915308	0.648924	0.015737
1701	8.5000e-01	-11.9515	-29.273516	0.000197	1.967354	0.666558	0.016164
1702	8.5050e-01	-11.9098	-29.199109	0.000181	1.811215	0.613656	0.014881
1703	8.5100e-01	-11.8842	-29.120426	0.000192	1.915308	0.648924	0.015737
1704	8.5150e-01	-11.8441	-29.042171	0.000190	1.904899	0.645397	0.015651
1705	8.5200e-01	-11.7815	-28.971185	0.000173	1.727941	0.585442	0.014197
1706	8.5250e-01	-11.7542	-28.889081	0.000200	1.998582	0.677138	0.016421
1707	8.5300e-01	-11.7318	-28.818950	0.000171	1.707122	0.578389	0.014026
1708	8.5350e-01	-11.7269	-28.742405	0.000186	1.863262	0.631290	0.015309
1709	8.5400e-01	-11.6435	-28.667143	0.000183	1.832034	0.620710	0.015052
1710	8.5450e-01	-11.6018	-28.586750	0.000196	1.956945	0.663031	0.016079
1711	8.5500e-01	-11.5810	-28.515764	0.000173	1.727941	0.585442	0.014197
1712	8.5550e-01	-11.5409	-28.439647	0.000185	1.852852	0.627763	0.015223
1713	8.5600e-01	-11.4959	-28.362674	0.000187	1.873671	0.634817	0.015395
1714	8.5650e-01	-11.4141	-28.286129	0.000186	1.863262	0.631290	0.015309
1715	8.5700e-01	-11.3997	-28.205308	0.000197	1.967354	0.666558	0.016164
1716	8.5750e-01	-11.3660	-28.130901	0.000181	1.811215	0.613656	0.014881
1717	8.5800e-01	-11.3211	-28.052646	0.000190	1.904899	0.645397	0.015651
1718	8.5850e-01	-11.2729	-27.976956	0.000184	1.842443	0.624237	0.015138
1719	8.5900e-01	-11.2665	-27.896135	0.000197	1.967354	0.666558	0.016164
1720	8.5950e-01	-11.2168	-27.825149	0.000173	1.727941	0.585442	0.014197
1721	8.6000e-01	-11.1639	-27.746894	0.000190	1.904899	0.645397	0.015651
1722	8.6050e-01	-11.1366	-27.666072	0.000197	1.967354	0.666558	0.016164
1723	8.6100e-01	-11.1013	-27.592093	0.000180	1.800806	0.610130	0.014796
1724	8.6150e-01	-11.0788	-27.516404	0.000184	1.842443	0.624237	0.015138
1725	8.6200e-01	-11.0131	-27.439431	0.000187	1.873671	0.634817	0.015395
1726	8.6250e-01	-10.9505	-27.357327	0.000200	1.998582	0.677138	0.016421
1727	8.6300e-01	-10.9168	-27.279927	0.000188	1.884080	0.638344	0.015480
1728	8.6350e-01	-10.8847	-27.204237	0.000184	1.842443	0.624237	0.015138
1729	8.6400e-01	-10.8382	-27.125126	0.000193	1.925717	0.652451	0.015822
1730	8.6450e-01	-10.7997	-27.049009	0.000185	1.852852	0.627763	0.015223
1731	8.6500e-01	-10.7500	-26.967333	0.000199	1.988173	0.673611	0.016335
1732	8.6550e-01	-10.7371	-26.890360	0.000187	1.873671	0.634817	0.015395
1733	8.6600e-01	-10.6617	-26.810822	0.000194	1.936127	0.655977	0.015908
1734	8.6650e-01	-10.6489	-26.736843	0.000180	1.800806	0.610130	0.014796
1735	8.6700e-01	-10.5992	-26.659870	0.000187	1.873671	0.634817	0.015395
1736	8.6750e-01	-10.5013	-26.587601	0.000176	1.759169	0.596023	0.014454
1737	8.6800e-01	-10.5125	-26.506353	-0.000198	-1.977764	-0.670084	0.016250
1738	8.6850e-01	-10.4965	-26.422110	0.000205	2.050629	0.694772	0.016848
1739	8.6900e-01	-10.4339	-26.347704	0.000181	1.811215	0.613656	0.014881
1740	8.6950e-01	-10.4323	-26.267310	0.000196	1.956945	0.663031	0.016079
1741	8.7000e-01	-10.3826	-26.192476	0.000182	1.821624	0.617183	0.014967
1742	8.7050e-01	-10.3216	-26.112510	0.000195	1.946536	0.659504	0.015993
1743	8.7100e-01	-10.2543	-26.035537	0.000187	1.873671	0.634817	0.015395
1744	8.7150e-01	-10.2093	-25.953433	0.000200	1.998582	0.677138	0.016421
1745	8.7200e-01	-10.1917	-25.876888	0.000186	1.863262	0.631290	0.015309
1746	8.7250e-01	-10.1789	-25.793929	0.000202	2.019401	0.684192	0.016592
1747	8.7300e-01	-10.0794	-25.720805	0.000178	1.779987	0.603076	0.014625
1748	8.7350e-01	-10.0794	-25.642977	-0.000189	-1.894489	-0.641870	0.015566
1749	8.7400e-01	-10.0072	-25.561728	0.000198	1.977764	0.670084	0.016250
1750	8.7450e-01	-10.0232	-25.481762	-0.000195	-1.946536	-0.659504	0.015993
1751	8.7500e-01	-9.9607	-25.404362	0.000188	1.884080	0.638344	0.015480
1752	8.7550e-01	-9.9126	-25.323969	0.000196	1.956945	0.663031	0.016079
1753	8.7600e-01	-9.8741	-25.241865	0.000200	1.998582	0.677138	0.016421
1754	8.7650e-01	-9.8243	-25.166603	0.000183	1.832034	0.620710	0.015052
1755	8.7700e-01	-9.8035	-25.087064	0.000194	1.936127	0.655977	0.015908
1756	8.7750e-01	-9.7794	-25.005816	0.000198	1.977764	0.670084	0.016250
1757	8.7800e-01	-9.7056	-24.925850	0.000195	1.946536	0.659504	0.015993
1758	8.7850e-01	-9.6815	-24.848022	0.000189	1.894489	0.641870	0.015566
1759	8.7900e-01	-9.6414	-24.767201	0.000197	1.967354	0.666558	0.016164
1760	8.7950e-01	-9.5997	-24.688518	0.000192	1.915308	0.648924	0.015737
1761	8.8000e-01	-9.5548	-24.606414	0.000200	1.998582	0.677138	0.016421
1762	8.8050e-01	-9.5115	-24.527303	0.000193	1.925717	0.652451	0.015822
1763	8.8100e-01	-9.4858	-24.449903	0.000188	1.884080	0.638344	0.015480
1764	8.8150e-01	-9.4618	-24.372503	0.000188	1.884080	0.638344	0.015480
1765	8.8200e-01	-9.4088	-24.289116	0.000203	2.029810	0.687718	0.016677
1766	8.8250e-01	-9.3864	-24.207867	0.000198	1.977764	0.670084	0.016250
1767	8.8300e-01	-9.3366	-24.126190	0.000199	1.988173	0.673611	0.016335
1768	8.8350e-01	-9.2837	-24.046224	0.000195	1.946536	0.659504	0.015993
1769	8.8400e-01	-9.2388	-23.968397	0.000189	1.894489	0.641870	0.015566
1770	8.8450e-01	-9.2051	-23.887148	0.000198	1.977764	0.670084	0.016250
1771	8.8500e-01	-9.1393	-23.809748	0.000188	1.884080	0.638344	0.015480
1772	8.8550e-01	-9.1297	-23.723795	0.000209	2.092266	0.708879	0.017191
1773	8.8600e-01	-9.0976	-23.643401	0.000196	1.956945	0.663031	0.016079
1774	8.8650e-01	-9.0559	-23.563863	0.000194	1.936127	0.655977	0.015908
1775	8.8700e-01	-9.0174	-23.484325	0.000194	1.936127	0.655977	0.015908
1776	8.8750e-01	-8.9741	-23.404787	0.000194	1.936127	0.655977	0.015908
1777	8.8800e-01	-8.9083	-23.322255	0.000201	2.008992	0.680665	0.016506
1778	8.8850e-01	-8.8618	-23.241006	0.000198	1.977764	0.670084	0.016250
1779	8.8900e-01	-8.8409	-23.156764	0.000205	2.050629	0.694772	0.016848
1780	8.8950e-01	-8.8137	-23.079791	0.000187	1.873671	0.634817	0.015395
1781	8.9000e-01	-8.7671	-22.995549	0.000205	2.050629	0.694772	0.016848
1782	8.9050e-01	-8.7286	-22.913873	0.000199	1.988173	0.673611	0.016335
1783	8.9100e-01	-8.6965	-22.830486	0.000203	2.029810	0.687718	0.016677
1784	8.9150e-01	-8.6436	-22.754796	0.000184	1.842443	0.624237	0.015138
1785	8.9200e-01	-8.6211	-22.667133	0.000213	2.133903	0.722986	0.017533
1786	8.9250e-01	-8.5826	-22.585884	0.000198	1.977764	0.670084	0.016250
1787	8.9300e-01	-8.5361	-22.500359	0.000208	2.081857	0.705352	0.017105
1788	8.9350e-01	-8.4960	-22.422104	0.000190	1.904899	0.645397	0.015651
1789	8.9400e-01	-8.4302	-22.337006	0.000207	2.071447	0.701825	0.017019
1790	8.9450e-01	-8.4254	-22.253619	0.000203	2.029810	0.687718	0.016677
1791	8.9500e-01	-8.3885	-22.171943	0.000199	1.988173	0.673611	0.016335
1792	8.9550e-01	-8.3083	-22.091549	0.000196	1.956945	0.663031	0.016079
1793	8.9600e-01	-8.2794	-22.009873	0.000199	1.988173	0.673611	0.016335
1794	8.9650e-01	-8.2201	-21.920927	0.000217	2.165131	0.733566	0.017789
1795	8.9700e-01	-8.1848	-21.841389	0.000194	1.936127	0.655977	0.015908
1796	8.9750e-01	-8.1912	-21.760567	-0.000197	-1.967354	-0.666558	0.016164
1797	8.9800e-01	-8.1367	-21.679746	0.000197	1.967354	0.666558	0.016164
1798	8.9850e-01	-8.0950	-21.595932	0.000204	2.040219	0.691245	0.016763
1799	8.9900e-01	-8.0420	-21.515966	0.000195	1.946536	0.659504	0.015993
1800	8.9950e-01	-8.0436	-21.430441	-0.000208	-2.081857	-0.705352	0.017105
1801	9.0000e-01	-7.9843	-21.353468	0.000187	1.873671	0.634817	0.015395
1802	9.0050e-01	-7.9153	-21.265377	0.000214	2.144312	0.726513	0.017618
1803	9.0100e-01	-7.8880	-21.184556	0.000197	1.967354	0.666558	0.016164
1804	9.0150e-01	-7.8704	-21.102024	0.000201	2.008992	0.680665	0.016506
1805	9.0200e-01	-7.7918	-21.019493	0.000201	2.008992	0.680665	0.016506
1806	9.0250e-01	-7.7629	-20.930119	0.000218	2.175540	0.737093	0.017875
1807	9.0300e-01	-7.7067	-20.849298	0.000197	1.967354	0.666558	0.016164
1808	9.0350e-01	-7.6795	-20.768477	0.000197	1.967354	0.666558	0.016164
1809	9.0400e-01	-7.6426	-20.688938	0.000194	1.936127	0.655977	0.015908
1810	9.0450e-01	-7.5832	-20.600848	0.000214	2.144312	0.726513	0.017618
1811	9.0500e-01	-7.5559	-20.521309	0.000194	1.936127	0.655977	0.015908
1812	9.0550e-01	-7.5303	-20.433218	0.000214	2.144312	0.726513	0.017618
1813	9.0600e-01	-7.4821	-20.350259	0.000202	2.019401	0.684192	0.016592
1814	9.0650e-01	-7.4148	-20.269010	0.000198	1.977764	0.670084	0.016250
1815	9.0700e-01	-7.4420	-20.184341	-0.000206	-2.061038	-0.698299	0.016934
1816	9.0750e-01	-7.3554	-20.100526	0.000204	2.040219	0.691245	0.016763
1817	9.0800e-01	-7.3426	-20.017139	0.000203	2.029810	0.687718	0.016677
1818	9.0850e-01	-7.2784	-19.929048	0.000214	2.144312	0.726513	0.017618
1819	9.0900e-01	-7.2479	-19.846089	0.000202	2.019401	0.684192	0.016592
1820	9.0950e-01	-7.1998	-19.763985	0.000200	1.998582	0.677138	0.016421
1821	9.1000e-01	-7.1725	-19.678888	0.000207	2.071447	0.701825	0.017019
1822	9.1050e-01	-7.1292	-19.595928	0.000202	2.019401	0.684192	0.016592
1823	9.1100e-01	-7.0827	-19.512969	0.000202	2.019401	0.684192	0.016592
1824	9.1150e-01	-7.0410	-19.425733	0.000212	2.123494	0.719459	0.017447
1825	9.1200e-01	-6.9800	-19.338070	0.000213	2.133903	0.722986	0.017533
1826	9.1250e-01	-6.9704	-19.253400	0.000206	2.061038	0.698299	0.016934
1827	9.1300e-01	-6.9335	-19.169586	0.000204	2.040219	0.691245	0.016763
1828	9.1350e-01	-6.8902	-19.088337	0.000198	1.977764	0.670084	0.016250
1829	9.1400e-01	-6.8501	-19.000246	0.000214	2.144312	0.726513	0.017618
1830	9.1450e-01	-6.7731	-18.914721	0.000208	2.081857	0.705352	0.017105
1831	9.1500e-01	-6.7747	-18.831334	-0.000203	-2.029810	-0.687718	0.016677
1832	9.1550e-01	-6.7201	-18.744954	0.000210	2.102675	0.712406	0.017276
1833	9.1600e-01	-6.6945	-18.659429	0.000208	2.081857	0.705352	0.017105
1834	9.1650e-01	-6.6640	-18.575187	0.000205	2.050629	0.694772	0.016848
1835	9.1700e-01	-6.5998	-18.490517	0.000206	2.061038	0.698299	0.016934
1836	9.1750e-01	-6.5774	-18.404992	0.000208	2.081857	0.705352	0.017105
1837	9.1800e-01	-6.5340	-18.319467	0.000208	2.081857	0.705352	0.017105
1838	9.1850e-01	-6.5148	-18.230521	0.000217	2.165131	0.733566	0.017789
1839	9.1900e-01	-6.4458	-18.143285	0.000212	2.123494	0.719459	0.017447
1840	9.1950e-01	-6.4474	-18.053056	-0.000220	-2.196359	-0.744146	0.018046
1841	9.2000e-01	-6.3544	-17.970525	0.000201	2.008992	0.680665	0.016506
1842	9.2050e-01	-6.3447	-17.883289	0.000212	2.123494	0.719459	0.017447
1843	9.2100e-01	-6.3127	-17.802040	0.000198	1.977764	0.670084	0.016250
1844	9.2150e-01	-6.2629	-17.710101	0.000224	2.237996	0.758253	0.018388
1845	9.2200e-01	-6.2036	-17.628852	0.000198	1.977764	0.670084	0.016250
1846	9.2250e-01	-6.1939	-17.542899	0.000209	2.092266	0.708879	0.017191
1847	9.2300e-01	-6.1394	-17.454808	0.000214	2.144312	0.726513	0.017618
1848	9.2350e-01	-6.0752	-17.371422	0.000203	2.029810	0.687718	0.016677
1849	9.2400e-01	-6.0367	-17.282048	0.000218	2.175540	0.737093	0.017875
1850	9.2450e-01	-6.0030	-17.196095	0.000209	2.092266	0.708879	0.017191
1851	9.2500e-01	-5.9645	-17.110998	0.000207	2.071447	0.701825	0.017019
1852	9.2550e-01	-5.9100	-17.025473	0.000208	2.081857	0.705352	0.017105
1853	9.2600e-01	-5.8603	-16.937810	0.000213	2.133903	0.722986	0.017533
1854	9.2650e-01	-5.8795	-16.848863	-0.000217	-2.165131	-0.733566	0.017789
1855	9.2700e-01	-5.7945	-16.762483	0.000210	2.102675	0.712406	0.017276
1856	9.2750e-01	-5.7480	-16.678669	0.000204	2.040219	0.691245	0.016763
1857	9.2800e-01	-5.7319	-16.587584	0.000222	2.217177	0.751200	0.018217
1858	9.2850e-01	-5.7030	-16.499066	0.000215	2.154721	0.730039	0.017704
1859	9.2900e-01	-5.6453	-16.413969	0.000207	2.071447	0.701825	0.017019
1860	9.2950e-01	-5.6132	-16.323740	0.000220	2.196359	0.744146	0.018046
1861	9.3000e-01	-5.5763	-16.236504	0.000212	2.123494	0.719459	0.017447
1862	9.3050e-01	-5.5314	-16.149696	0.000211	2.113084	0.715932	0.017362
1863	9.3100e-01	-5.4897	-16.059895	0.000219	2.185949	0.740620	0.017960
1864	9.3150e-01	-5.4271	-15.971804	0.000214	2.144312	0.726513	0.017618
1865	9.3200e-01	-5.4079	-15.882430	0.000218	2.175540	0.737093	0.017875
1866	9.3250e-01	-5.3694	-15.792201	0.000220	2.196359	0.744146	0.018046
1867	9.3300e-01	-5.3565	-15.708387	0.000204	2.040219	0.691245	0.016763
1868	9.3350e-01	-5.2667	-15.619441	0.000217	2.165131	0.733566	0.017789
1869	9.3400e-01	-5.2571	-15.530495	0.000217	2.165131	0.733566	0.017789
1870	9.3450e-01	-5.1881	-15.444114	0.000210	2.102675	0.712406	0.017276
1871	9.3500e-01	-5.1704	-15.356451	0.000213	2.133903	0.722986	0.017533
1872	9.3550e-01	-5.1592	-15.263657	0.000226	2.258814	0.765307	0.018559
1873	9.3600e-01	-5.0966	-15.173855	0.000219	2.185949	0.740620	0.017960
1874	9.3650e-01	-5.0614	-15.087475	0.000210	2.102675	0.712406	0.017276
1875	9.3700e-01	-5.0068	-14.993825	0.000228	2.279633	0.772361	0.018730
1876	9.3750e-01	-4.9876	-14.906162	0.000213	2.133903	0.722986	0.017533
1877	9.3800e-01	-4.9234	-14.818071	0.000214	2.144312	0.726513	0.017618
1878	9.3850e-01	-4.8865	-14.727414	0.000221	2.206768	0.747673	0.018131
1879	9.3900e-01	-4.8464	-14.641462	0.000209	2.092266	0.708879	0.017191
1880	9.3950e-01	-4.8031	-14.549950	0.000223	2.227586	0.754727	0.018302
1881	9.4000e-01	-4.7710	-14.459721	0.000220	2.196359	0.744146	0.018046
1882	9.4050e-01	-4.6860	-14.372485	0.000212	2.123494	0.719459	0.017447
1883	9.4100e-01	-4.7084	-14.281829	-0.000221	-2.206768	-0.747673	0.018131
1884	9.4150e-01	-4.6571	-14.189034	0.000226	2.258814	0.765307	0.018559
1885	9.4200e-01	-4.5801	-14.102226	0.000211	2.113084	0.715932	0.017362
1886	9.4250e-01	-4.5624	-14.010714	0.000223	2.227586	0.754727	0.018302
1887	9.4300e-01	-4.5095	-13.917920	0.000226	2.258814	0.765307	0.018559
1888	9.4350e-01	-4.4710	-13.830257	0.000213	2.133903	0.722986	0.017533
1889	9.4400e-01	-4.4469	-13.733613	0.000235	2.352498	0.797048	0.019329
1890	9.4450e-01	-4.4004	-13.647233	0.000210	2.102675	0.712406	0.017276
1891	9.4500e-01	-4.3763	-13.557432	0.000219	2.185949	0.740620	0.017960
1892	9.4550e-01	-4.3298	-13.466348	0.000222	2.217177	0.751200	0.018217
1893	9.4600e-01	-4.2945	-13.372270	0.000229	2.290042	0.775887	0.018816
1894	9.4650e-01	-4.2352	-13.286745	0.000208	2.081857	0.705352	0.017105
1895	9.4700e-01	-4.2191	-13.190529	0.000234	2.342089	0.793521	0.019243
1896	9.4750e-01	-4.1550	-13.100728	0.000219	2.185949	0.740620	0.017960
1897	9.4800e-01	-4.0988	-13.011354	0.000218	2.175540	0.737093	0.017875
1898	9.4850e-01	-4.1068	-12.917277	-0.000229	-2.290042	-0.775887	0.018816
1899	9.4900e-01	-4.0250	-12.826620	0.000221	2.206768	0.747673	0.018131
1900	9.4950e-01	-3.9865	-12.738102	0.000215	2.154721	0.730039	0.017704
1901	9.5000e-01	-3.9480	-12.645735	0.000225	2.248405	0.761780	0.018473
1902	9.5050e-01	-3.9111	-12.554650	0.000222	2.217177	0.751200	0.018217
1903	9.5100e-01	-3.8806	-12.462711	0.000224	2.237996	0.758253	0.018388
1904	9.5150e-01	-3.8470	-12.366495	0.000234	2.342089	0.793521	0.019243
1905	9.5200e-01	-3.8133	-12.272845	0.000228	2.279633	0.772361	0.018730
1906	9.5250e-01	-3.7587	-12.185182	0.000213	2.133903	0.722986	0.017533
1907	9.5300e-01	-3.7330	-12.091532	0.000228	2.279633	0.772361	0.018730
1908	9.5350e-01	-3.7042	-12.000448	0.000222	2.217177	0.751200	0.018217
1909	9.5400e-01	-3.6817	-11.905088	0.000232	2.321270	0.786468	0.019072
1910	9.5450e-01	-3.6127	-11.810582	0.000230	2.300451	0.779414	0.018901
1911	9.5500e-01	-3.5582	-11.720354	0.000220	2.196359	0.744146	0.018046
1912	9.5550e-01	-3.5421	-11.629269	0.000222	2.217177	0.751200	0.018217
1913	9.5600e-01	-3.4892	-11.533481	0.000233	2.331679	0.789994	0.019158
1914	9.5650e-01	-3.4443	-11.437693	0.000233	2.331679	0.789994	0.019158
1915	9.5700e-01	-3.4090	-11.351741	0.000209	2.092266	0.708879	0.017191
1916	9.5750e-01	-3.3577	-11.256380	0.000232	2.321270	0.786468	0.019072
1917	9.5800e-01	-3.3240	-11.163158	0.000227	2.269224	0.768834	0.018644
1918	9.5850e-01	-3.2855	-11.067797	0.000232	2.321270	0.786468	0.019072
1919	9.5900e-01	-3.2550	-10.976713	0.000222	2.217177	0.751200	0.018217
1920	9.5950e-01	-3.2165	-10.877932	0.000240	2.404544	0.814682	0.019756
1921	9.6000e-01	-3.1908	-10.788130	0.000219	2.185949	0.740620	0.017960
1922	9.6050e-01	-3.1411	-10.691915	0.000234	2.342089	0.793521	0.019243
1923	9.6100e-01	-3.1058	-10.595699	0.000234	2.342089	0.793521	0.019243
1924	9.6150e-01	-3.0400	-10.504615	0.000222	2.217177	0.751200	0.018217
1925	9.6200e-01	-2.9935	-10.409254	0.000232	2.321270	0.786468	0.019072
1926	9.6250e-01	-2.9598	-10.316032	0.000227	2.269224	0.768834	0.018644
1927	9.6300e-01	-2.9630	-10.223665	-0.000225	-2.248405	-0.761780	0.018473
1928	9.6350e-01	-2.8988	-10.130870	0.000226	2.258814	0.765307	0.018559
1929	9.6400e-01	-2.8074	-10.033372	0.000237	2.373316	0.804101	0.019500
1930	9.6450e-01	-2.8138	-9.943998	-0.000218	-2.175540	-0.737093	0.017875
1931	9.6500e-01	-2.7866	-9.843506	0.000245	2.446181	0.828789	0.020098
1932	9.6550e-01	-2.7112	-9.749429	0.000229	2.290042	0.775887	0.018816
1933	9.6600e-01	-2.6903	-9.658772	0.000221	2.206768	0.747673	0.018131
1934	9.6650e-01	-2.6502	-9.562984	0.000233	2.331679	0.789994	0.019158
1935	9.6700e-01	-2.6005	-9.464630	0.000239	2.394135	0.811155	0.019671
1936	9.6750e-01	-2.5491	-9.369697	0.000231	2.310861	0.782941	0.018987
1937	9.6800e-01	-2.5523	-9.268778	-0.000246	-2.456591	-0.832315	0.020184
1938	9.6850e-01	-2.4689	-9.177266	0.000223	2.227586	0.754727	0.018302
1939	9.6900e-01	-2.4384	-9.081906	0.000232	2.321270	0.786468	0.019072
1940	9.6950e-01	-2.4080	-8.979276	0.000250	2.498228	0.846422	0.020526
1941	9.7000e-01	-2.3759	-8.888191	0.000222	2.217177	0.751200	0.018217
1942	9.7050e-01	-2.2908	-8.786844	0.000247	2.467000	0.835842	0.020269
1943	9.7100e-01	-2.2764	-8.689346	0.000237	2.373316	0.804101	0.019500
1944	9.7150e-01	-2.2379	-8.593130	0.000234	2.342089	0.793521	0.019243
1945	9.7200e-01	-2.1994	-8.495204	0.000238	2.383726	0.807628	0.019585
1946	9.7250e-01	-2.1657	-8.398133	0.000236	2.362907	0.800575	0.019414
1947	9.7300e-01	-2.1112	-8.301917	0.000234	2.342089	0.793521	0.019243
1948	9.7350e-01	-2.0711	-8.202708	0.000241	2.414954	0.818208	0.019842
1949	9.7400e-01	-2.0502	-8.109486	0.000227	2.269224	0.768834	0.018644
1950	9.7450e-01	-2.0085	-8.010277	0.000241	2.414954	0.818208	0.019842
1951	9.7500e-01	-1.9668	-7.912778	0.000237	2.373316	0.804101	0.019500
1952	9.7550e-01	-1.9042	-7.816990	0.000233	2.331679	0.789994	0.019158
1953	9.7600e-01	-1.8914	-7.718636	0.000239	2.394135	0.811155	0.019671
1954	9.7650e-01	-1.8240	-7.621565	0.000236	2.362907	0.800575	0.019414
1955	9.7700e-01	-1.8096	-7.523211	0.000239	2.394135	0.811155	0.019671
1956	9.7750e-01	-1.7582	-7.426996	0.000234	2.342089	0.793521	0.019243
1957	9.7800e-01	-1.6957	-7.328642	0.000239	2.394135	0.811155	0.019671
1958	9.7850e-01	-1.6203	-7.231143	0.000237	2.373316	0.804101	0.019500
1959	9.7900e-01	-1.6508	-7.132362	-0.000240	-2.404544	-0.814682	0.019756
1960	9.7950e-01	-1.6203	-7.031442	0.000246	2.456591	0.832315	0.020184
1961	9.8000e-01	-1.5946	-6.931806	0.000243	2.425363	0.821735	0.019927
1962	9.8050e-01	-1.5272	-6.831741	0.000244	2.435772	0.825262	0.020013
1963	9.8100e-01	-1.4984	-6.735098	0.000235	2.352498	0.797048	0.019329
1964	9.8150e-01	-1.4615	-6.638027	0.000236	2.362907	0.800575	0.019414
1965	9.8200e-01	-1.4117	-6.534542	0.000252	2.519046	0.853476	0.020697
1966	9.8250e-01	-1.3476	-6.432339	0.000249	2.487819	0.842896	0.020440
1967	9.8300e-01	-1.3123	-6.331420	0.000246	2.456591	0.832315	0.020184
1968	9.8350e-01	-1.2706	-6.236487	0.000231	2.310861	0.782941	0.018987
1969	9.8400e-01	-1.2417	-6.132146	0.000254	2.539865	0.860530	0.020868
1970	9.8450e-01	-1.1855	-6.035076	0.000236	2.362907	0.800575	0.019414
1971	9.8500e-01	-1.1695	-5.935011	0.000244	2.435772	0.825262	0.020013
1972	9.8550e-01	-1.1326	-5.833664	0.000247	2.467000	0.835842	0.020269
1973	9.8600e-01	-1.0732	-5.731034	0.000250	2.498228	0.846422	0.020526
1974	9.8650e-01	-1.0556	-5.630542	0.000245	2.446181	0.828789	0.020098
1975	9.8700e-01	-0.9994	-5.531761	0.000240	2.404544	0.814682	0.019756
1976	9.8750e-01	-0.9674	-5.427420	0.000254	2.539865	0.860530	0.020868
1977	9.8800e-01	-0.9144	-5.330777	0.000235	2.352498	0.797048	0.019329
1978	9.8850e-01	-0.8535	-5.227719	0.000251	2.508637	0.849949	0.020612
1979	9.8900e-01	-0.8535	-5.124234	-0.000252	-2.519046	-0.853476	0.020697
1980	9.8950e-01	-0.7460	-5.029301	0.000231	2.310861	0.782941	0.018987
1981	9.9000e-01	-0.7813	-4.923677	-0.000257	-2.571093	-0.871110	0.021125
1982	9.9050e-01	-0.7428	-4.816771	0.000260	2.602321	0.881690	0.021381
1983	9.9100e-01	-0.7139	-4.714996	0.000248	2.477409	0.839369	0.020355
1984	9.9150e-01	-0.6433	-4.616642	0.000239	2.394135	0.811155	0.019671
1985	9.9200e-01	-0.5984	-4.516151	0.000245	2.446181	0.828789	0.020098
1986	9.9250e-01	-0.5390	-4.414803	0.000247	2.467000	0.835842	0.020269
1987	9.9300e-01	-0.5037	-4.313884	0.000246	2.456591	0.832315	0.020184
1988	9.9350e-01	-0.4893	-4.207405	0.000259	2.591911	0.878163	0.021296
1989	9.9400e-01	-0.4476	-4.105203	0.000249	2.487819	0.842896	0.020440
1990	9.9450e-01	-0.3962	-4.001717	0.000252	2.519046	0.853476	0.020697
1991	9.9500e-01	-0.3658	-3.899943	0.000248	2.477409	0.839369	0.020355
1992	9.9550e-01	-0.3289	-3.799023	0.000246	2.456591	0.832315	0.020184
1993	9.9600e-01	-0.2839	-3.693399	0.000257	2.571093	0.871110	0.021125
1994	9.9650e-01	-0.2406	-3.592908	0.000245	2.446181	0.828789	0.020098
1995	9.9700e-01	-0.2037	-3.488567	0.000254	2.539865	0.860530	0.020868
1996	9.9750e-01	-0.1460	-3.385509	0.000251	2.508637	0.849949	0.020612
1997	9.9800e-01	-0.0786	-3.282024	0.000252	2.519046	0.853476	0.020697
1998	9.9850e-01	-0.0786	-3.185808	-0.000234	-2.342089	-0.793521	0.019243
1999	9.9900e-01	-0.0241	-3.078474	0.000261	2.612730	0.885217	0.021467
2000	9.9950e-01	0.0080	-2.976272	0.000249	2.487819	0.842896	0.020440
2001	1.0000e+00	0.0321	-2.873214	0.000249	2.487819	0.842896	0.020612

Center data before PMax,+/-Pr and +/-Vc Calc.

PMax (uC/cm2):	4.19e+01
Pr (uC/cm2):	1.57e+00
-Pr (uC/cm2):	-2.87e+00
PLoss (uC/cm2):	-2.05e+00
Vc:	7.63e-01
-Vc:	-6.44e-01
C (Max-Eff) (nF):	2.09e-01
K (Eff):	7.08e+02
Vert. (+/-Pr) Shift (uC/cm2):	-6.50e-01
Horiz. Shift (+/-Vc):	5.94e-02
Offset (uC/cm2):	8.24e-01

A (Loop Area - uC/cm2·Volts):	1.26e-01



Hysteresis Version: 5.48.1 - Radiant Technologies, Inc., 1999 - 9/12/24

