»»»»»»»»»»»»»»»»»»»»»»»»»»»»»»»»»»»» Hysteresis ««««««««««««««««««««««««««««««««««««
»»»  Executed Version:	5.48.1
»»»  Vision Version:	5.48.4 (R)
»»»  Vision Compiled:	9/18/24
»»»  Driver Version:	5.47.0
»»»  Windows Version:	Windows 8 or 8.1
»»»  Processor Information:	x86 (AMD or Intel) - 32 Processors
»»»  Tester Name:	PMF21124-494 (100V)
»»»  Tester S/N:	PMF21124-494
»»»  Internal Amp Type:	100V RevK 270k
»»»  Internal Amp S/N:	iAB2-596/K     
»»»  Execution Count:	1
»»»»»»»»»»»»»»»»»»»»»»»»»»»»»»»»»»»»»»»»»»««««««««««««««««««««««««««««««««««««««««««

Stored:	6/9/2025 - 11:55:48
Configured:	06/09/25 11:17:29 AM
Executed:	06/09/25 11:54:49 AM

»»»»»»»»»»»»»»»»»»»»»»»»»»»»»»»»»»» Sample Info ««««««««««««««««««««««««««««««««««««
Sample Name:	
Lot Name:	
Wafer Name:	
Die Row/Column:	0/0
Capacitor Number:	0
Sample Area (cm2):	1.00e-04
Sample Thickness (microns):	3.00e-01

Amplifier:	Internal

»»»»»»»»»»»»»»»»»»»»»»»»»»»»»»»»»»» Tester Info «««««««««««««««««««««««««««««««««««
Tester Name:	PMF21124-494 (100V)
Tester Serial Number:	PMF21124-494
Return Signal Amp. Level:	1.9 [Index: 2]

»»»»»»»»»»»»»»»»»»»»»»»»»»»»»»»» Hysteresis Info ««««««««««««««««««««««««««««««««««
Task Name:	Hyst-785
Volts:	20.00
Field:	666.67 (kV/cm)
DCBias:	0.00
DCField:	0.00 (kV/cm)
Hysteresis Period (ms):	2.00e+02
Preset:	Enabled
Preset Delay (ms):	1.00e+03
Profile:	Standard Bipolar

»»»»»»»»»»»»»»»»»»»»»»»»»»»»»»»»»»»»»» Data «««««««««««««««««««««««««««««««««««««««
Points:	2009

Valid Data

Point	Time (ms)	Drive Voltage	Measured Polarization (uC/cm2)	Capacitance (uF)	Normalized Capacitance (uF/cm2)	Dielectric Constant	Instantaneous Current (mA)
   1	0.0000e+00	0.0064	-1.788030	0.000153	1.533477	0.519556	0.000062
   2	9.9500e-02	0.0529	-1.726521	0.000153	1.533477	0.519556	0.000062
   3	1.9900e-01	0.1011	-1.639757	0.000216	2.163116	0.732884	0.000087
   4	2.9850e-01	0.1283	-1.554216	0.000213	2.132650	0.722561	0.000086
   5	3.9800e-01	0.1813	-1.464600	0.000223	2.234205	0.756969	0.000090
   6	4.9750e-01	0.2198	-1.378244	0.000215	2.152961	0.729443	0.000087
   7	5.9700e-01	0.2342	-1.287813	0.000225	2.254516	0.763851	0.000091
   8	6.9650e-01	0.3000	-1.204716	0.000207	2.071717	0.701917	0.000084
   9	7.9600e-01	0.3337	-1.114693	0.000224	2.244360	0.760410	0.000090
  10	8.9550e-01	0.3754	-1.024263	0.000225	2.254516	0.763851	0.000091
  11	9.9500e-01	0.4059	-0.939128	0.000212	2.122494	0.719121	0.000086
  12	1.0945e+00	0.4508	-0.847884	0.000227	2.274827	0.770732	0.000092
  13	1.1940e+00	0.4925	-0.759083	0.000221	2.213894	0.750087	0.000089
  14	1.2935e+00	0.5294	-0.671097	0.000219	2.193583	0.743206	0.000088
  15	1.3930e+00	0.5695	-0.583926	0.000217	2.173272	0.736324	0.000088
  16	1.4925e+00	0.6080	-0.491866	0.000230	2.295138	0.777614	0.000093
  17	1.5920e+00	0.6257	-0.403065	0.000221	2.213894	0.750087	0.000089
  18	1.6915e+00	0.6962	-0.314265	0.000221	2.213894	0.750087	0.000089
  19	1.7910e+00	0.7123	-0.231982	0.000205	2.051406	0.695035	0.000083
  20	1.8905e+00	0.7700	-0.141144	0.000226	2.264671	0.767291	0.000091
  21	1.9900e+00	0.7957	-0.053158	0.000219	2.193583	0.743206	0.000088
  22	2.0895e+00	0.8599	0.040123	0.000233	2.325604	0.787936	0.000094
  23	2.1890e+00	0.8791	0.125665	0.000213	2.132650	0.722561	0.000086
  24	2.2885e+00	0.9449	0.214873	0.000222	2.224049	0.753528	0.000090
  25	2.3880e+00	0.9690	0.304896	0.000224	2.244360	0.760410	0.000090
  26	2.4875e+00	1.0219	0.401029	0.000240	2.396692	0.812021	0.000097
  27	2.5870e+00	1.0588	0.484941	0.000209	2.092028	0.708798	0.000084
  28	2.6865e+00	1.0813	0.572113	0.000217	2.173272	0.736324	0.000088
  29	2.7860e+00	1.1133	0.665801	0.000234	2.335759	0.791377	0.000094
  30	2.8855e+00	1.1599	0.756231	0.000225	2.254516	0.763851	0.000091
  31	2.9850e+00	1.2256	0.845847	0.000223	2.234205	0.756969	0.000090
  32	3.0845e+00	1.2513	0.935462	0.000223	2.234205	0.756969	0.000090
  33	3.1840e+00	1.2866	1.029151	0.000234	2.335759	0.791377	0.000094
  34	3.2835e+00	1.3267	1.113471	0.000210	2.102183	0.712239	0.000085
  35	3.3830e+00	1.3732	1.203901	0.000225	2.254516	0.763851	0.000091
  36	3.4825e+00	1.4101	1.296368	0.000231	2.305293	0.781054	0.000093
  37	3.5820e+00	1.4550	1.388020	0.000228	2.284982	0.774173	0.000092
  38	3.6815e+00	1.4807	1.475191	0.000217	2.173272	0.736324	0.000088
  39	3.7810e+00	1.5176	1.568880	0.000234	2.335759	0.791377	0.000094
  40	3.8805e+00	1.5689	1.660532	0.000228	2.284982	0.774173	0.000092
  41	3.9800e+00	1.6106	1.748925	0.000220	2.203738	0.746647	0.000089
  42	4.0795e+00	1.6379	1.839355	0.000225	2.254516	0.763851	0.000091
  43	4.1790e+00	1.6860	1.933044	0.000234	2.335759	0.791377	0.000094
  44	4.2785e+00	1.7037	2.022252	0.000222	2.224049	0.753528	0.000090
  45	4.3780e+00	1.7855	2.116348	0.000235	2.345915	0.794817	0.000095
  46	4.4775e+00	1.8176	2.197002	0.000201	2.010784	0.681272	0.000081
  47	4.5770e+00	1.8401	2.287025	0.000224	2.244360	0.760410	0.000090
  48	4.6765e+00	1.8753	2.377047	0.000224	2.244360	0.760410	0.000090
  49	4.7760e+00	1.9283	2.466663	0.000223	2.234205	0.756969	0.000090
  50	4.8755e+00	1.9524	2.546095	0.000198	1.980318	0.670950	0.000080
  51	4.9750e+00	2.0053	2.633673	0.000218	2.183427	0.739765	0.000088
  52	5.0745e+00	2.0518	2.722881	0.000222	2.224049	0.753528	0.000090
  53	5.1740e+00	2.0839	2.804757	0.000204	2.041251	0.691594	0.000082
  54	5.2735e+00	2.1368	2.890299	0.000213	2.132650	0.722561	0.000086
  55	5.3730e+00	2.1721	2.980729	0.000225	2.254516	0.763851	0.000091
  56	5.4725e+00	2.2138	3.068715	0.000219	2.193583	0.743206	0.000088
  57	5.5720e+00	2.2604	3.160775	0.000230	2.295138	0.777614	0.000093
  58	5.6715e+00	2.2957	3.247946	0.000217	2.173272	0.736324	0.000088
  59	5.7710e+00	2.3293	3.330229	0.000205	2.051406	0.695035	0.000083
  60	5.8705e+00	2.3759	3.416586	0.000215	2.152961	0.729443	0.000087
  61	5.9700e+00	2.3999	3.503350	0.000216	2.163116	0.732884	0.000087
  62	6.0695e+00	2.4529	3.591336	0.000219	2.193583	0.743206	0.000088
  63	6.1690e+00	2.4882	3.674841	0.000208	2.081873	0.705358	0.000084
  64	6.2685e+00	2.5299	3.762827	0.000219	2.193583	0.743206	0.000088
  65	6.3680e+00	2.5796	3.845925	0.000207	2.071717	0.701917	0.000084
  66	6.4675e+00	2.6149	3.939206	0.000233	2.325604	0.787936	0.000094
  67	6.5670e+00	2.6454	4.028007	0.000221	2.213894	0.750087	0.000089
  68	6.6665e+00	2.6823	4.113956	0.000214	2.142805	0.726002	0.000086
  69	6.7660e+00	2.7208	4.203979	0.000224	2.244360	0.760410	0.000090
  70	6.8655e+00	2.7593	4.299297	0.000238	2.376381	0.805140	0.000096
  71	6.9650e+00	2.8138	4.388505	0.000222	2.224049	0.753528	0.000090
  72	7.0645e+00	2.8315	4.478528	0.000224	2.244360	0.760410	0.000090
  73	7.1640e+00	2.8844	4.568958	0.000225	2.254516	0.763851	0.000091
  74	7.2635e+00	2.9277	4.661017	0.000230	2.295138	0.777614	0.000093
  75	7.3630e+00	2.9646	4.748188	0.000217	2.173272	0.736324	0.000088
  76	7.4625e+00	2.9919	4.844321	0.000240	2.396692	0.812021	0.000097
  77	7.5620e+00	3.0224	4.930271	0.000214	2.142805	0.726002	0.000086
  78	7.6615e+00	3.0914	5.020293	0.000224	2.244360	0.760410	0.000090
  79	7.7610e+00	3.1234	5.111538	0.000227	2.274827	0.770732	0.000092
  80	7.8605e+00	3.1668	5.212152	0.000251	2.508402	0.849870	0.000101
  81	7.9600e+00	3.1956	5.293620	0.000203	2.031095	0.688154	0.000082
  82	8.0595e+00	3.2518	5.387716	0.000235	2.345915	0.794817	0.000095
  83	8.1590e+00	3.2919	5.473258	0.000213	2.132650	0.722561	0.000086
  84	8.2585e+00	3.3127	5.564910	0.000228	2.284982	0.774173	0.000092
  85	8.3580e+00	3.3753	5.654933	0.000224	2.244360	0.760410	0.000090
  86	8.4575e+00	3.4026	5.746585	0.000228	2.284982	0.774173	0.000092
  87	8.5570e+00	3.4491	5.836608	0.000224	2.244360	0.760410	0.000090
  88	8.6565e+00	3.4828	5.925816	0.000222	2.224049	0.753528	0.000090
  89	8.7560e+00	3.5197	6.020727	0.000237	2.366226	0.801699	0.000095
  90	8.8555e+00	3.5630	6.110342	0.000223	2.234205	0.756969	0.000090
  91	8.9550e+00	3.6015	6.199957	0.000223	2.234205	0.756969	0.000090
  92	9.0545e+00	3.6432	6.293239	0.000233	2.325604	0.787936	0.000094
  93	9.1540e+00	3.6833	6.380003	0.000216	2.163116	0.732884	0.000087
  94	9.2535e+00	3.7202	6.468396	0.000220	2.203738	0.746647	0.000089
  95	9.3530e+00	3.7523	6.560048	0.000228	2.284982	0.774173	0.000092
  96	9.4525e+00	3.7924	6.649663	0.000223	2.234205	0.756969	0.000090
  97	9.5520e+00	3.8309	6.744574	0.000237	2.366226	0.801699	0.000095
  98	9.6515e+00	3.8903	6.826857	0.000205	2.051406	0.695035	0.000083
  99	9.7510e+00	3.9095	6.916473	0.000223	2.234205	0.756969	0.000090
 100	9.8505e+00	3.9496	7.010162	0.000234	2.335759	0.791377	0.000094
 101	9.9500e+00	3.9849	7.106294	0.000240	2.396692	0.812021	0.000097
 102	1.0050e+01	4.0250	7.188578	0.000205	2.051406	0.695035	0.000083
 103	1.0149e+01	4.0731	7.289599	0.000252	2.518558	0.853311	0.000102
 104	1.0248e+01	4.1213	7.376770	0.000217	2.173272	0.736324	0.000088
 105	1.0348e+01	4.1646	7.466793	0.000224	2.244360	0.760410	0.000090
 106	1.0447e+01	4.1919	7.556408	0.000223	2.234205	0.756969	0.000090
 107	1.0547e+01	4.2304	7.646023	0.000223	2.234205	0.756969	0.000090
 108	1.0646e+01	4.2753	7.741749	0.000239	2.386537	0.808581	0.000096
 109	1.0746e+01	4.3314	7.826476	0.000211	2.112339	0.715680	0.000085
 110	1.0845e+01	4.3523	7.920165	0.000234	2.335759	0.791377	0.000094
 111	1.0945e+01	4.3731	8.007744	0.000218	2.183427	0.739765	0.000088
 112	1.1044e+01	4.4357	8.094915	0.000217	2.173272	0.736324	0.000088
 113	1.1144e+01	4.4758	8.186160	0.000227	2.274827	0.770732	0.000092
 114	1.1243e+01	4.5207	8.277812	0.000228	2.284982	0.774173	0.000092
 115	1.1343e+01	4.5528	8.364983	0.000217	2.173272	0.736324	0.000088
 116	1.1443e+01	4.6009	8.455413	0.000225	2.254516	0.763851	0.000091
 117	1.1542e+01	4.6378	8.539733	0.000210	2.102183	0.712239	0.000085
 118	1.1642e+01	4.6699	8.633014	0.000233	2.325604	0.787936	0.000094
 119	1.1741e+01	4.7068	8.718149	0.000212	2.122494	0.719121	0.000086
 120	1.1841e+01	4.7517	8.811430	0.000233	2.325604	0.787936	0.000094
 121	1.1940e+01	4.7951	8.896565	0.000212	2.122494	0.719121	0.000086
 122	1.2040e+01	4.8624	8.987810	0.000227	2.274827	0.770732	0.000092
 123	1.2139e+01	4.8769	9.072537	0.000211	2.112339	0.715680	0.000085
 124	1.2239e+01	4.9154	9.161338	0.000221	2.213894	0.750087	0.000089
 125	1.2338e+01	4.9651	9.248102	0.000216	2.163116	0.732884	0.000087
 126	1.2438e+01	4.9876	9.338939	0.000226	2.264671	0.767291	0.000091
 127	1.2537e+01	5.0373	9.424888	0.000214	2.142805	0.726002	0.000086
 128	1.2636e+01	5.0806	9.516133	0.000227	2.274827	0.770732	0.000092
 129	1.2736e+01	5.1159	9.601675	0.000213	2.132650	0.722561	0.000086
 130	1.2835e+01	5.1592	9.689661	0.000219	2.193583	0.743206	0.000088
 131	1.2935e+01	5.2041	9.777240	0.000218	2.183427	0.739765	0.000088
 132	1.3034e+01	5.2250	9.871743	0.000236	2.356070	0.798258	0.000095
 133	1.3134e+01	5.2908	9.966247	0.000236	2.356070	0.798258	0.000095
 134	1.3233e+01	5.3228	10.054233	0.000219	2.193583	0.743206	0.000088
 135	1.3333e+01	5.3678	10.147921	0.000234	2.335759	0.791377	0.000094
 136	1.3432e+01	5.3822	10.239166	0.000227	2.274827	0.770732	0.000092
 137	1.3532e+01	5.4303	10.330411	0.000227	2.274827	0.770732	0.000092
 138	1.3632e+01	5.4817	10.413916	0.000208	2.081873	0.705358	0.000084
 139	1.3731e+01	5.5170	10.508827	0.000237	2.366226	0.801699	0.000095
 140	1.3831e+01	5.5410	10.596405	0.000218	2.183427	0.739765	0.000088
 141	1.3930e+01	5.5988	10.683984	0.000218	2.183427	0.739765	0.000088
 142	1.4030e+01	5.6453	10.769526	0.000213	2.132650	0.722561	0.000086
 143	1.4129e+01	5.6822	10.862807	0.000233	2.325604	0.787936	0.000094
 144	1.4229e+01	5.7480	10.958126	0.000238	2.376381	0.805140	0.000096
 145	1.4328e+01	5.7287	11.049778	-0.000228	-2.284982	-0.774173	0.000092
 146	1.4428e+01	5.7801	11.138171	0.000220	2.203738	0.746647	0.000089
 147	1.4527e+01	5.8458	11.225342	0.000217	2.173272	0.736324	0.000088
 148	1.4627e+01	5.8635	11.310477	0.000212	2.122494	0.719121	0.000086
 149	1.4726e+01	5.9068	11.403351	0.000232	2.315448	0.784495	0.000093
 150	1.4825e+01	5.9405	11.489708	0.000215	2.152961	0.729443	0.000087
 151	1.4925e+01	6.0127	11.576879	0.000217	2.173272	0.736324	0.000088
 152	1.5024e+01	6.0367	11.661606	0.000211	2.112339	0.715680	0.000085
 153	1.5124e+01	6.0800	11.748778	0.000217	2.173272	0.736324	0.000088
 154	1.5223e+01	6.1218	11.831875	0.000207	2.071717	0.701917	0.000084
 155	1.5323e+01	6.1538	11.916603	0.000211	2.112339	0.715680	0.000085
 156	1.5422e+01	6.1907	11.999701	0.000207	2.071717	0.701917	0.000084
 157	1.5522e+01	6.2437	12.079947	0.000200	2.000629	0.677831	0.000081
 158	1.5621e+01	6.2886	12.169970	0.000224	2.244360	0.760410	0.000090
 159	1.5721e+01	6.3159	12.251438	0.000203	2.031095	0.688154	0.000082
 160	1.5820e+01	6.3688	12.333314	0.000204	2.041251	0.691594	0.000082
 161	1.5920e+01	6.3961	12.414783	0.000203	2.031095	0.688154	0.000082
 162	1.6020e+01	6.4233	12.501954	0.000217	2.173272	0.736324	0.000088
 163	1.6119e+01	6.4602	12.582200	0.000200	2.000629	0.677831	0.000081
 164	1.6218e+01	6.5148	12.662854	0.000201	2.010784	0.681272	0.000081
 165	1.6318e+01	6.5469	12.739027	0.000190	1.899074	0.643424	0.000077
 166	1.6418e+01	6.6175	12.824162	0.000212	2.122494	0.719121	0.000086
 167	1.6517e+01	6.6175	12.908074	-0.000209	-2.092028	-0.708798	0.000084
 168	1.6616e+01	6.6848	12.989950	0.000204	2.041251	0.691594	0.000082
 169	1.6716e+01	6.7073	13.066938	0.000192	1.919385	0.650305	0.000077
 170	1.6816e+01	6.7522	13.151258	0.000210	2.102183	0.712239	0.000085
 171	1.6915e+01	6.7843	13.233541	0.000205	2.051406	0.695035	0.000083
 172	1.7015e+01	6.8645	13.314602	0.000202	2.020940	0.684713	0.000081
 173	1.7114e+01	6.8677	13.390775	0.000190	1.899074	0.643424	0.000077
 174	1.7213e+01	6.9078	13.477947	0.000217	2.173272	0.736324	0.000088
 175	1.7313e+01	6.9511	13.554934	0.000192	1.919385	0.650305	0.000077
 176	1.7413e+01	6.9816	13.637625	0.000206	2.061562	0.698476	0.000083
 177	1.7512e+01	7.0474	13.717871	0.000200	2.000629	0.677831	0.000081
 178	1.7611e+01	7.0747	13.795674	0.000194	1.939696	0.657187	0.000078
 179	1.7711e+01	7.1084	13.877550	0.000204	2.041251	0.691594	0.000082
 180	1.7811e+01	7.1549	13.959426	0.000204	2.041251	0.691594	0.000082
 181	1.7910e+01	7.1789	14.037635	0.000195	1.949851	0.660628	0.000079
 182	1.8009e+01	7.2335	14.117882	0.000200	2.000629	0.677831	0.000081
 183	1.8109e+01	7.2720	14.197721	0.000199	1.990473	0.674391	0.000080
 184	1.8209e+01	7.2944	14.276745	0.000197	1.970162	0.667509	0.000079
 185	1.8308e+01	7.3426	14.360251	0.000208	2.081873	0.705358	0.000084
 186	1.8407e+01	7.3586	14.431128	0.000177	1.767053	0.598694	0.000071
 187	1.8507e+01	7.4581	14.512189	0.000202	2.020940	0.684713	0.000081
 188	1.8607e+01	7.4549	14.589992	-0.000194	-1.939696	-0.657187	0.000078
 189	1.8706e+01	7.5030	14.669016	0.000197	1.970162	0.667509	0.000079
 190	1.8805e+01	7.5383	14.744375	0.000188	1.878763	0.636542	0.000076
 191	1.8905e+01	7.5752	14.823399	0.000197	1.970162	0.667509	0.000079
 192	1.9005e+01	7.6394	14.900794	0.000193	1.929540	0.653746	0.000078
 193	1.9104e+01	7.6923	14.979819	0.000197	1.970162	0.667509	0.000079
 194	1.9203e+01	7.7132	15.061287	0.000203	2.031095	0.688154	0.000082
 195	1.9303e+01	7.7324	15.137053	0.000189	1.888918	0.639983	0.000076
 196	1.9402e+01	7.7629	15.214855	0.000194	1.939696	0.657187	0.000078
 197	1.9502e+01	7.8303	15.294694	0.000199	1.990473	0.674391	0.000080
 198	1.9602e+01	7.8704	15.373312	0.000196	1.960007	0.664068	0.000079
 199	1.9701e+01	7.9057	15.449892	0.000191	1.909229	0.646864	0.000077
 200	1.9800e+01	7.9265	15.521992	0.000180	1.797519	0.609016	0.000072
 201	1.9900e+01	7.9666	15.601831	0.000199	1.990473	0.674391	0.000080
 202	2.0000e+01	8.0196	15.679633	0.000194	1.939696	0.657187	0.000078
 203	2.0099e+01	8.0885	15.756621	0.000192	1.919385	0.650305	0.000077
 204	2.0198e+01	8.1046	15.827906	0.000178	1.777208	0.602134	0.000072
 205	2.0298e+01	8.1511	15.907745	0.000199	1.990473	0.674391	0.000080
 206	2.0398e+01	8.1832	15.983511	0.000189	1.888918	0.639983	0.000076
 207	2.0497e+01	8.2265	16.063757	0.000200	2.000629	0.677831	0.000081
 208	2.0596e+01	8.2746	16.143189	0.000198	1.980318	0.670950	0.000080
 209	2.0696e+01	8.3196	16.219769	0.000191	1.909229	0.646864	0.000077
 210	2.0796e+01	8.3292	16.297979	0.000195	1.949851	0.660628	0.000079
 211	2.0895e+01	8.3709	16.368857	0.000177	1.767053	0.598694	0.000071
 212	2.0994e+01	8.4270	16.449103	0.000200	2.000629	0.677831	0.000081
 213	2.1094e+01	8.4591	16.524054	0.000187	1.868608	0.633101	0.000075
 214	2.1194e+01	8.4928	16.599820	0.000189	1.888918	0.639983	0.000076
 215	2.1293e+01	8.5409	16.671920	0.000180	1.797519	0.609016	0.000072
 216	2.1392e+01	8.5859	16.746056	0.000185	1.848297	0.626220	0.000075
 217	2.1492e+01	8.6131	16.816119	0.000175	1.746742	0.591812	0.000070
 218	2.1591e+01	8.6468	16.886182	0.000175	1.746742	0.591812	0.000070
 219	2.1691e+01	8.6965	16.961948	0.000189	1.888918	0.639983	0.000076
 220	2.1791e+01	8.7350	17.034047	0.000180	1.797519	0.609016	0.000072
 221	2.1890e+01	8.7848	17.104517	0.000176	1.756897	0.595253	0.000071
 222	2.1989e+01	8.8249	17.176617	0.000180	1.797519	0.609016	0.000072
 223	2.2089e+01	8.8538	17.249124	0.000181	1.807675	0.612457	0.000073
 224	2.2189e+01	8.8874	17.328963	0.000199	1.990473	0.674391	0.000080
 225	2.2288e+01	8.9243	17.398619	0.000174	1.736586	0.588371	0.000070
 226	2.2387e+01	8.9805	17.467867	0.000173	1.726431	0.584931	0.000070
 227	2.2487e+01	9.0126	17.539559	0.000179	1.787364	0.605575	0.000072
 228	2.2587e+01	9.0543	17.610844	0.000178	1.777208	0.602134	0.000072
 229	2.2686e+01	9.0880	17.680500	0.000174	1.736586	0.588371	0.000070
 230	2.2785e+01	9.1265	17.750970	0.000176	1.756897	0.595253	0.000071
 231	2.2885e+01	9.1810	17.825106	0.000185	1.848297	0.626220	0.000075
 232	2.2985e+01	9.2372	17.898835	0.000184	1.838141	0.622779	0.000074
 233	2.3084e+01	9.2404	17.968491	0.000174	1.736586	0.588371	0.000070
 234	2.3183e+01	9.2901	18.041813	0.000183	1.827986	0.619338	0.000074
 235	2.3283e+01	9.3414	18.118393	0.000191	1.909229	0.646864	0.000077
 236	2.3383e+01	9.3992	18.193751	0.000188	1.878763	0.636542	0.000076
 237	2.3482e+01	9.4297	18.271146	0.000193	1.929540	0.653746	0.000078
 238	2.3581e+01	9.4505	18.343246	0.000180	1.797519	0.609016	0.000072
 239	2.3681e+01	9.5003	18.418604	0.000188	1.878763	0.636542	0.000076
 240	2.3780e+01	9.5580	18.496814	0.000195	1.949851	0.660628	0.000079
 241	2.3880e+01	9.5676	18.571765	0.000187	1.868608	0.633101	0.000075
 242	2.3980e+01	9.6270	18.645902	0.000185	1.848297	0.626220	0.000075
 243	2.4079e+01	9.6495	18.723297	0.000193	1.929540	0.653746	0.000078
 244	2.4178e+01	9.6896	18.794582	0.000178	1.777208	0.602134	0.000072
 245	2.4278e+01	9.7233	18.869940	0.000188	1.878763	0.636542	0.000076
 246	2.4378e+01	9.7810	18.944076	0.000185	1.848297	0.626220	0.000075
 247	2.4477e+01	9.8035	19.025138	0.000202	2.020940	0.684713	0.000081
 248	2.4576e+01	9.8484	19.100089	0.000187	1.868608	0.633101	0.000075
 249	2.4676e+01	9.9077	19.172596	0.000181	1.807675	0.612457	0.000073
 250	2.4776e+01	9.9142	19.249583	0.000192	1.919385	0.650305	0.000077
 251	2.4875e+01	9.9703	19.327793	0.000195	1.949851	0.660628	0.000079
 252	2.4974e+01	10.0297	19.395005	0.000168	1.675653	0.567727	0.000068
 253	2.5074e+01	10.0569	19.474029	0.000197	1.970162	0.667509	0.000079
 254	2.5174e+01	10.0858	19.550202	0.000190	1.899074	0.643424	0.000077
 255	2.5273e+01	10.1147	19.626782	0.000191	1.909229	0.646864	0.000077
 256	2.5372e+01	10.1837	19.700511	0.000184	1.838141	0.622779	0.000074
 257	2.5472e+01	10.2270	19.774648	0.000185	1.848297	0.626220	0.000075
 258	2.5572e+01	10.2414	19.852043	0.000193	1.929540	0.653746	0.000078
 259	2.5671e+01	10.2928	19.932697	0.000201	2.010784	0.681272	0.000081
 260	2.5770e+01	10.3281	20.006018	0.000183	1.827986	0.619338	0.000074
 261	2.5870e+01	10.3617	20.075267	0.000173	1.726431	0.584931	0.000070
 262	2.5970e+01	10.4034	20.157957	0.000206	2.061562	0.698476	0.000083
 263	2.6069e+01	10.4580	20.230057	0.000180	1.797519	0.609016	0.000072
 264	2.6169e+01	10.4869	20.306230	0.000190	1.899074	0.643424	0.000077
 265	2.6268e+01	10.5254	20.384032	0.000194	1.939696	0.657187	0.000078
 266	2.6367e+01	10.6008	20.458576	0.000186	1.858452	0.629661	0.000075
 267	2.6467e+01	10.6040	20.534749	0.000190	1.899074	0.643424	0.000077
 268	2.6567e+01	10.6473	20.612551	0.000194	1.939696	0.657187	0.000078
 269	2.6666e+01	10.6906	20.687095	0.000186	1.858452	0.629661	0.000075
 270	2.6765e+01	10.7708	20.761231	0.000185	1.848297	0.626220	0.000075
 271	2.6865e+01	10.7708	20.835775	-0.000186	-1.858452	-0.629661	0.000075
 272	2.6965e+01	10.8109	20.913170	0.000193	1.929540	0.653746	0.000078
 273	2.7064e+01	10.8526	20.990158	0.000192	1.919385	0.650305	0.000077
 274	2.7163e+01	10.8992	21.063887	0.000184	1.838141	0.622779	0.000074
 275	2.7263e+01	10.9184	21.139653	0.000189	1.888918	0.639983	0.000076
 276	2.7363e+01	10.9681	21.217455	0.000194	1.939696	0.657187	0.000078
 277	2.7462e+01	11.0002	21.293221	0.000189	1.888918	0.639983	0.000076
 278	2.7561e+01	11.0644	21.368987	0.000189	1.888918	0.639983	0.000076
 279	2.7661e+01	11.0644	21.439457	-0.000176	-1.756897	-0.595253	0.000071
 280	2.7761e+01	11.1398	21.518481	0.000197	1.970162	0.667509	0.000079
 281	2.7860e+01	11.1687	21.590581	0.000180	1.797519	0.609016	0.000072
 282	2.7959e+01	11.2152	21.663495	0.000182	1.817830	0.615898	0.000073
 283	2.8059e+01	11.2745	21.738854	0.000188	1.878763	0.636542	0.000076
 284	2.8159e+01	11.2858	21.813397	0.000186	1.858452	0.629661	0.000075
 285	2.8258e+01	11.3323	21.892829	0.000198	1.980318	0.670950	0.000080
 286	2.8358e+01	11.3804	21.969002	0.000190	1.899074	0.643424	0.000077
 287	2.8457e+01	11.4125	22.048841	0.000199	1.990473	0.674391	0.000080
 288	2.8556e+01	11.4414	22.116460	0.000169	1.685809	0.571168	0.000068
 289	2.8656e+01	11.4863	22.191819	0.000188	1.878763	0.636542	0.000076
 290	2.8756e+01	11.5360	22.270028	0.000195	1.949851	0.660628	0.000079
 291	2.8855e+01	11.5810	22.339684	0.000174	1.736586	0.588371	0.000070
 292	2.8954e+01	11.6002	22.411376	0.000179	1.787364	0.605575	0.000072
 293	2.9054e+01	11.6355	22.485513	0.000185	1.848297	0.626220	0.000075
 294	2.9154e+01	11.6965	22.560056	0.000186	1.858452	0.629661	0.000075
 295	2.9253e+01	11.7382	22.637451	0.000193	1.929540	0.653746	0.000078
 296	2.9352e+01	11.7558	22.706700	0.000173	1.726431	0.584931	0.000070
 297	2.9452e+01	11.8264	22.783687	0.000192	1.919385	0.650305	0.000077
 298	2.9552e+01	11.8617	22.858638	0.000187	1.868608	0.633101	0.000075
 299	2.9651e+01	11.9066	22.937663	0.000197	1.970162	0.667509	0.000079
 300	2.9750e+01	11.9291	23.015873	0.000195	1.949851	0.660628	0.000079
 301	2.9850e+01	11.9708	23.091638	0.000189	1.888918	0.639983	0.000076
 302	2.9950e+01	12.0141	23.171477	0.000199	1.990473	0.674391	0.000080
 303	3.0049e+01	12.0558	23.247650	0.000190	1.899074	0.643424	0.000077
 304	3.0148e+01	12.0895	23.325453	0.000194	1.939696	0.657187	0.000078
 305	3.0248e+01	12.1312	23.402441	0.000192	1.919385	0.650305	0.000077
 306	3.0348e+01	12.1777	23.477799	0.000188	1.878763	0.636542	0.000076
 307	3.0447e+01	12.2082	23.557231	0.000198	1.980318	0.670950	0.000080
 308	3.0547e+01	12.2467	23.631367	0.000185	1.848297	0.626220	0.000075
 309	3.0646e+01	12.2836	23.703874	0.000181	1.807675	0.612457	0.000073
 310	3.0745e+01	12.3301	23.781269	0.000193	1.929540	0.653746	0.000078
 311	3.0845e+01	12.3686	23.861923	0.000201	2.010784	0.681272	0.000081
 312	3.0945e+01	12.4136	23.942577	0.000201	2.010784	0.681272	0.000081
 313	3.1044e+01	12.4505	24.019157	0.000191	1.909229	0.646864	0.000077
 314	3.1143e+01	12.4873	24.090850	0.000179	1.787364	0.605575	0.000072
 315	3.1243e+01	12.5146	24.166208	0.000188	1.878763	0.636542	0.000076
 316	3.1343e+01	12.5692	24.247269	0.000202	2.020940	0.684713	0.000081
 317	3.1442e+01	12.6269	24.319369	0.000180	1.797519	0.609016	0.000072
 318	3.1541e+01	12.6558	24.387802	0.000171	1.706120	0.578049	0.000069
 319	3.1641e+01	12.6702	24.463975	0.000190	1.899074	0.643424	0.000077
 320	3.1741e+01	12.7360	24.536075	0.000180	1.797519	0.609016	0.000072
 321	3.1840e+01	12.7745	24.604916	0.000172	1.716275	0.581490	0.000069
 322	3.1939e+01	12.8178	24.679459	0.000186	1.858452	0.629661	0.000075
 323	3.2039e+01	12.8290	24.750337	0.000177	1.767053	0.598694	0.000071
 324	3.2139e+01	12.8708	24.823251	0.000182	1.817830	0.615898	0.000073
 325	3.2238e+01	12.9173	24.888426	0.000162	1.624876	0.550523	0.000066
 326	3.2337e+01	12.9718	24.955638	0.000168	1.675653	0.567727	0.000068
 327	3.2437e+01	13.0103	25.027737	0.000180	1.797519	0.609016	0.000072
 328	3.2536e+01	13.0440	25.100652	0.000182	1.817830	0.615898	0.000073
 329	3.2636e+01	13.0777	25.164197	0.000158	1.584254	0.536760	0.000064
 330	3.2736e+01	13.1419	25.235482	0.000178	1.777208	0.602134	0.000072
 331	3.2835e+01	13.1611	25.307989	0.000181	1.807675	0.612457	0.000073
 332	3.2934e+01	13.2044	25.379274	0.000178	1.777208	0.602134	0.000072
 333	3.3034e+01	13.2478	25.443634	0.000160	1.604565	0.543641	0.000065
 334	3.3133e+01	13.2847	25.514104	0.000176	1.756897	0.595253	0.000071
 335	3.3233e+01	13.3135	25.583353	0.000173	1.726431	0.584931	0.000070
 336	3.3333e+01	13.3793	25.655452	0.000180	1.797519	0.609016	0.000072
 337	3.3432e+01	13.4018	25.724700	0.000173	1.726431	0.584931	0.000070
 338	3.3532e+01	13.4306	25.795171	0.000176	1.756897	0.595253	0.000071
 339	3.3631e+01	13.4820	25.863604	0.000171	1.706120	0.578049	0.000069
 340	3.3730e+01	13.5285	25.930408	0.000167	1.665498	0.564286	0.000067
 341	3.3830e+01	13.5461	26.000879	0.000176	1.756897	0.595253	0.000071
 342	3.3929e+01	13.6151	26.067276	0.000166	1.655343	0.560845	0.000067
 343	3.4029e+01	13.6472	26.138153	0.000177	1.767053	0.598694	0.000071
 344	3.4129e+01	13.6488	26.204550	0.000166	1.655343	0.560845	0.000067
 345	3.4228e+01	13.7210	26.272576	0.000170	1.695964	0.574608	0.000068
 346	3.4328e+01	13.7563	26.343046	0.000176	1.756897	0.595253	0.000071
 347	3.4427e+01	13.8028	26.413109	0.000175	1.746742	0.591812	0.000070
 348	3.4526e+01	13.8253	26.477470	0.000160	1.604565	0.543641	0.000065
 349	3.4626e+01	13.8734	26.543052	0.000164	1.635032	0.553964	0.000066
 350	3.4725e+01	13.9119	26.607412	0.000160	1.604565	0.543641	0.000065
 351	3.4825e+01	13.9600	26.679511	0.000180	1.797519	0.609016	0.000072
 352	3.4925e+01	14.0082	26.745094	0.000164	1.635032	0.553964	0.000066
 353	3.5024e+01	14.0370	26.816379	0.000178	1.777208	0.602134	0.000072
 354	3.5123e+01	14.0755	26.876665	0.000150	1.503010	0.509234	0.000061
 355	3.5223e+01	14.1237	26.938989	0.000155	1.553788	0.526438	0.000063
 356	3.5322e+01	14.1509	27.006607	0.000169	1.685809	0.571168	0.000068
 357	3.5422e+01	14.1862	27.070968	0.000160	1.604565	0.543641	0.000065
 358	3.5522e+01	14.2215	27.136957	0.000165	1.645187	0.557404	0.000066
 359	3.5621e+01	14.2825	27.202947	0.000165	1.645187	0.557404	0.000066
 360	3.5721e+01	14.3146	27.271787	0.000172	1.716275	0.581490	0.000069
 361	3.5820e+01	14.3675	27.338184	0.000166	1.655343	0.560845	0.000067
 362	3.5919e+01	14.4028	27.405396	0.000168	1.675653	0.567727	0.000068
 363	3.6019e+01	14.4541	27.468127	0.000156	1.563943	0.529878	0.000063
 364	3.6118e+01	14.4830	27.536560	0.000171	1.706120	0.578049	0.000069
 365	3.6218e+01	14.5231	27.605401	0.000172	1.716275	0.581490	0.000069
 366	3.6318e+01	14.5488	27.667724	0.000155	1.553788	0.526438	0.000063
 367	3.6417e+01	14.5841	27.730863	0.000157	1.574099	0.533319	0.000063
 368	3.6517e+01	14.6515	27.799296	0.000171	1.706120	0.578049	0.000069
 369	3.6616e+01	14.6579	27.857546	0.000145	1.452233	0.492030	0.000059
 370	3.6715e+01	14.7140	27.925980	0.000171	1.706120	0.578049	0.000069
 371	3.6815e+01	14.7573	27.990340	0.000160	1.604565	0.543641	0.000065
 372	3.6914e+01	14.7830	28.056737	0.000166	1.655343	0.560845	0.000067
 373	3.7014e+01	14.8183	28.123541	0.000167	1.665498	0.564286	0.000067
 374	3.7114e+01	14.8969	28.188308	0.000161	1.614721	0.547082	0.000065
 375	3.7213e+01	14.9338	28.250224	0.000154	1.543632	0.522997	0.000062
 376	3.7313e+01	14.9498	28.320287	0.000175	1.746742	0.591812	0.000070
 377	3.7412e+01	14.9851	28.387091	0.000167	1.665498	0.564286	0.000067
 378	3.7511e+01	15.0365	28.448600	0.000153	1.533477	0.519556	0.000062
 379	3.7611e+01	15.0958	28.514590	0.000165	1.645187	0.557404	0.000066
 380	3.7711e+01	15.1215	28.577728	0.000157	1.574099	0.533319	0.000063
 381	3.7810e+01	15.1600	28.641273	0.000158	1.584254	0.536760	0.000064
 382	3.7910e+01	15.1841	28.704411	0.000157	1.574099	0.533319	0.000063
 383	3.8009e+01	15.2322	28.765513	0.000152	1.523321	0.516115	0.000061
 384	3.8108e+01	15.2851	28.824170	0.000146	1.462388	0.495471	0.000059
 385	3.8208e+01	15.3092	28.879976	0.000139	1.391300	0.471385	0.000056
 386	3.8307e+01	15.3750	28.946373	0.000166	1.655343	0.560845	0.000067
 387	3.8407e+01	15.3990	29.007067	0.000151	1.513166	0.512674	0.000061
 388	3.8507e+01	15.4295	29.063687	0.000141	1.411611	0.478267	0.000057
 389	3.8606e+01	15.4808	29.125603	0.000154	1.543632	0.522997	0.000062
 390	3.8706e+01	15.5193	29.187112	0.000153	1.533477	0.519556	0.000062
 391	3.8805e+01	15.5611	29.249436	0.000155	1.553788	0.526438	0.000063
 392	3.8904e+01	15.5899	29.307278	0.000144	1.442078	0.488589	0.000058
 393	3.9004e+01	15.6204	29.371231	0.000159	1.594410	0.540201	0.000064
 394	3.9103e+01	15.6782	29.430296	0.000147	1.472544	0.498911	0.000059
 395	3.9203e+01	15.7247	29.490990	0.000151	1.513166	0.512674	0.000061
 396	3.9303e+01	15.7359	29.550462	0.000148	1.482699	0.502352	0.000060
 397	3.9402e+01	15.8001	29.609526	0.000147	1.472544	0.498911	0.000059
 398	3.9502e+01	15.8225	29.664925	0.000138	1.381145	0.467944	0.000056
 399	3.9601e+01	15.8771	29.730507	0.000164	1.635032	0.553964	0.000066
 400	3.9700e+01	15.9124	29.789979	0.000148	1.482699	0.502352	0.000060
 401	3.9800e+01	15.9461	29.850673	0.000151	1.513166	0.512674	0.000061
 402	3.9900e+01	15.9894	29.911775	0.000152	1.523321	0.516115	0.000061
 403	3.9999e+01	16.0311	29.978579	0.000167	1.665498	0.564286	0.000067
 404	4.0099e+01	16.0744	30.039680	0.000152	1.523321	0.516115	0.000061
 405	4.0198e+01	16.1290	30.104855	0.000162	1.624876	0.550523	0.000066
 406	4.0297e+01	16.1370	30.165956	0.000152	1.523321	0.516115	0.000061
 407	4.0397e+01	16.1626	30.231131	0.000162	1.624876	0.550523	0.000066
 408	4.0496e+01	16.2557	30.294269	0.000157	1.574099	0.533319	0.000063
 409	4.0596e+01	16.2589	30.356593	0.000155	1.553788	0.526438	0.000063
 410	4.0696e+01	16.3086	30.422582	0.000165	1.645187	0.557404	0.000066
 411	4.0795e+01	16.3455	30.482054	0.000148	1.482699	0.502352	0.000060
 412	4.0895e+01	16.3760	30.546822	0.000161	1.614721	0.547082	0.000065
 413	4.0994e+01	16.4418	30.616070	0.000173	1.726431	0.584931	0.000070
 414	4.1093e+01	16.4626	30.684911	0.000172	1.716275	0.581490	0.000069
 415	4.1193e+01	16.5060	30.743568	0.000146	1.462388	0.495471	0.000059
 416	4.1292e+01	16.5621	30.807521	0.000159	1.594410	0.540201	0.000064
 417	4.1392e+01	16.5846	30.872696	0.000162	1.624876	0.550523	0.000066
 418	4.1492e+01	16.6199	30.937056	0.000160	1.604565	0.543641	0.000065
 419	4.1591e+01	16.6728	31.002231	0.000162	1.624876	0.550523	0.000066
 420	4.1691e+01	16.6904	31.064147	0.000154	1.543632	0.522997	0.000062
 421	4.1790e+01	16.7370	31.125655	0.000153	1.533477	0.519556	0.000062
 422	4.1889e+01	16.7658	31.192052	0.000166	1.655343	0.560845	0.000067
 423	4.1989e+01	16.8220	31.260078	0.000170	1.695964	0.574608	0.000068
 424	4.2089e+01	16.8637	31.323624	0.000158	1.584254	0.536760	0.000064
 425	4.2188e+01	16.9006	31.384725	0.000152	1.523321	0.516115	0.000061
 426	4.2288e+01	16.9551	31.448271	0.000158	1.584254	0.536760	0.000064
 427	4.2387e+01	16.9744	31.515890	0.000169	1.685809	0.571168	0.000068
 428	4.2486e+01	17.0209	31.575769	0.000149	1.492855	0.505793	0.000060
 429	4.2586e+01	17.0738	31.640129	0.000160	1.604565	0.543641	0.000065
 430	4.2685e+01	17.1059	31.703674	0.000158	1.584254	0.536760	0.000064
 431	4.2785e+01	17.1364	31.769664	0.000165	1.645187	0.557404	0.000066
 432	4.2885e+01	17.2006	31.838097	0.000171	1.706120	0.578049	0.000069
 433	4.2984e+01	17.2359	31.893496	0.000138	1.381145	0.467944	0.000056
 434	4.3084e+01	17.2327	31.961930	-0.000171	-1.706120	-0.578049	0.000069
 435	4.3183e+01	17.3225	32.026290	0.000160	1.604565	0.543641	0.000065
 436	4.3282e+01	17.3402	32.092687	0.000166	1.655343	0.560845	0.000067
 437	4.3382e+01	17.4059	32.156232	0.000158	1.584254	0.536760	0.000064
 438	4.3481e+01	17.4348	32.224666	0.000171	1.706120	0.578049	0.000069
 439	4.3581e+01	17.4508	32.290248	0.000164	1.635032	0.553964	0.000066
 440	4.3681e+01	17.5102	32.356237	0.000165	1.645187	0.557404	0.000066
 441	4.3780e+01	17.5407	32.422227	0.000165	1.645187	0.557404	0.000066
 442	4.3880e+01	17.5776	32.480884	0.000146	1.462388	0.495471	0.000059
 443	4.3979e+01	17.6225	32.552576	0.000179	1.787364	0.605575	0.000072
 444	4.4078e+01	17.6658	32.609197	0.000141	1.411611	0.478267	0.000057
 445	4.4178e+01	17.7139	32.675594	0.000166	1.655343	0.560845	0.000067
 446	4.4278e+01	17.7589	32.739954	0.000160	1.604565	0.543641	0.000065
 447	4.4377e+01	17.7909	32.806351	0.000166	1.655343	0.560845	0.000067
 448	4.4477e+01	17.8230	32.868267	0.000154	1.543632	0.522997	0.000062
 449	4.4576e+01	17.8695	32.934664	0.000166	1.655343	0.560845	0.000067
 450	4.4675e+01	17.8984	32.999431	0.000161	1.614721	0.547082	0.000065
 451	4.4775e+01	17.9610	33.059310	0.000149	1.492855	0.505793	0.000060
 452	4.4874e+01	17.9706	33.125300	0.000165	1.645187	0.557404	0.000066
 453	4.4974e+01	18.0268	33.189660	0.000160	1.604565	0.543641	0.000065
 454	4.5074e+01	18.0765	33.251576	0.000154	1.543632	0.522997	0.000062
 455	4.5173e+01	18.0957	33.316751	0.000162	1.624876	0.550523	0.000066
 456	4.5273e+01	18.1391	33.378667	0.000154	1.543632	0.522997	0.000062
 457	4.5372e+01	18.1679	33.445064	0.000166	1.655343	0.560845	0.000067
 458	4.5471e+01	18.2257	33.509017	0.000159	1.594410	0.540201	0.000064
 459	4.5571e+01	18.2818	33.568489	0.000148	1.482699	0.502352	0.000060
 460	4.5670e+01	18.3011	33.637330	0.000172	1.716275	0.581490	0.000069
 461	4.5770e+01	18.3620	33.698431	0.000152	1.523321	0.516115	0.000061
 462	4.5870e+01	18.3845	33.757496	0.000147	1.472544	0.498911	0.000059
 463	4.5969e+01	18.4262	33.825929	0.000171	1.706120	0.578049	0.000069
 464	4.6069e+01	18.4840	33.891919	0.000165	1.645187	0.557404	0.000066
 465	4.6168e+01	18.5000	33.955464	0.000158	1.584254	0.536760	0.000064
 466	4.6267e+01	18.5321	34.022268	0.000167	1.665498	0.564286	0.000067
 467	4.6367e+01	18.5963	34.091109	0.000172	1.716275	0.581490	0.000069
 468	4.6467e+01	18.6139	34.157099	0.000165	1.645187	0.557404	0.000066
 469	4.6566e+01	18.6524	34.224310	0.000168	1.675653	0.567727	0.000068
 470	4.6666e+01	18.6893	34.293151	0.000172	1.716275	0.581490	0.000069
 471	4.6765e+01	18.7310	34.357104	0.000159	1.594410	0.540201	0.000064
 472	4.6864e+01	18.7759	34.428796	0.000179	1.787364	0.605575	0.000072
 473	4.6964e+01	18.8369	34.494378	0.000164	1.635032	0.553964	0.000066
 474	4.7063e+01	18.8497	34.558738	0.000160	1.604565	0.543641	0.000065
 475	4.7163e+01	18.9235	34.627579	0.000172	1.716275	0.581490	0.000069
 476	4.7263e+01	18.9444	34.687051	0.000148	1.482699	0.502352	0.000060
 477	4.7362e+01	18.9861	34.751819	0.000161	1.614721	0.547082	0.000065
 478	4.7462e+01	19.0134	34.822696	0.000177	1.767053	0.598694	0.000071
 479	4.7561e+01	19.0663	34.892352	0.000174	1.736586	0.588371	0.000070
 480	4.7660e+01	19.0904	34.955897	0.000158	1.584254	0.536760	0.000064
 481	4.7760e+01	19.1417	35.021480	0.000164	1.635032	0.553964	0.000066
 482	4.7859e+01	19.1738	35.092357	0.000177	1.767053	0.598694	0.000071
 483	4.7959e+01	19.2331	35.158347	0.000165	1.645187	0.557404	0.000066
 484	4.8059e+01	19.2620	35.224743	0.000166	1.655343	0.560845	0.000067
 485	4.8158e+01	19.2941	35.286660	0.000154	1.543632	0.522997	0.000062
 486	4.8258e+01	19.3358	35.349798	0.000157	1.574099	0.533319	0.000063
 487	4.8357e+01	19.3984	35.413343	0.000158	1.584254	0.536760	0.000064
 488	4.8456e+01	19.3775	35.474852	-0.000153	-1.533477	-0.519556	0.000062
 489	4.8556e+01	19.4642	35.537990	0.000157	1.574099	0.533319	0.000063
 490	4.8656e+01	19.4882	35.595425	0.000143	1.431922	0.485148	0.000058
 491	4.8755e+01	19.5347	35.656527	0.000152	1.523321	0.516115	0.000061
 492	4.8855e+01	19.6005	35.720479	0.000159	1.594410	0.540201	0.000064
 493	4.8954e+01	19.6117	35.782803	0.000155	1.553788	0.526438	0.000063
 494	4.9053e+01	19.6551	35.838609	0.000139	1.391300	0.471385	0.000056
 495	4.9153e+01	19.6904	35.905413	0.000167	1.665498	0.564286	0.000067
 496	4.9252e+01	19.7240	35.963256	0.000144	1.442078	0.488589	0.000058
 497	4.9352e+01	19.7738	36.023950	0.000151	1.513166	0.512674	0.000061
 498	4.9452e+01	19.8091	36.085866	0.000154	1.543632	0.522997	0.000062
 499	4.9551e+01	19.8636	36.144523	0.000146	1.462388	0.495471	0.000059
 500	4.9651e+01	19.9021	36.203995	0.000148	1.482699	0.502352	0.000060
 501	4.9750e+01	19.9230	36.273651	0.000174	1.736586	0.588371	0.000070
 502	4.9849e+01	19.9727	36.324976	0.000128	1.279590	0.433537	0.000052
 503	4.9949e+01	20.0016	36.388521	0.000158	1.584254	0.536760	0.000064
 504	5.0048e+01	19.9984	36.341269	0.000118	1.178035	0.399129	-0.000047
 505	5.0148e+01	19.9374	36.292388	0.000122	1.218657	0.412892	-0.000049
 506	5.0248e+01	19.9005	36.239841	0.000131	1.310056	0.443859	-0.000053
 507	5.0347e+01	19.8684	36.197477	0.000106	1.056169	0.357840	-0.000043
 508	5.0447e+01	19.8235	36.149818	0.000119	1.188191	0.402570	-0.000048
 509	5.0546e+01	19.7770	36.097271	0.000131	1.310056	0.443859	-0.000053
 510	5.0645e+01	19.7513	36.044724	0.000131	1.310056	0.443859	-0.000053
 511	5.0745e+01	19.7064	35.992992	0.000129	1.289745	0.436978	-0.000052
 512	5.0844e+01	19.6374	35.937593	0.000138	1.381145	0.467944	-0.000056
 513	5.0944e+01	19.6310	35.889934	0.000119	1.188191	0.402570	-0.000048
 514	5.1044e+01	19.5781	35.837387	0.000131	1.310056	0.443859	-0.000053
 515	5.1143e+01	19.5347	35.785247	0.000130	1.299901	0.440418	-0.000052
 516	5.1242e+01	19.4994	35.734736	0.000126	1.259279	0.426655	-0.000051
 517	5.1342e+01	19.4481	35.685041	0.000124	1.238968	0.419774	-0.000050
 518	5.1441e+01	19.3984	35.630864	0.000135	1.350678	0.457622	-0.000054
 519	5.1541e+01	19.3888	35.578724	0.000130	1.299901	0.440418	-0.000052
 520	5.1641e+01	19.3422	35.523326	0.000138	1.381145	0.467944	-0.000056
 521	5.1740e+01	19.2957	35.469556	0.000134	1.340523	0.454181	-0.000054
 522	5.1840e+01	19.2524	35.417009	0.000131	1.310056	0.443859	-0.000053
 523	5.1939e+01	19.2139	35.359981	0.000142	1.421767	0.481708	-0.000057
 524	5.2038e+01	19.1738	35.300509	0.000148	1.482699	0.502352	-0.000060
 525	5.2138e+01	19.1385	35.249591	0.000127	1.269434	0.430096	-0.000051
 526	5.2237e+01	19.1096	35.197859	0.000129	1.289745	0.436978	-0.000052
 527	5.2337e+01	19.0727	35.142460	0.000138	1.381145	0.467944	-0.000056
 528	5.2437e+01	19.0358	35.086247	0.000140	1.401456	0.474826	-0.000056
 529	5.2536e+01	18.9765	35.032885	0.000133	1.330367	0.450741	-0.000054
 530	5.2636e+01	18.9524	34.977079	0.000139	1.391300	0.471385	-0.000056
 531	5.2735e+01	18.9043	34.918829	0.000145	1.452233	0.492030	-0.000059
 532	5.2834e+01	18.8674	34.866689	0.000130	1.299901	0.440418	-0.000052
 533	5.2934e+01	18.8353	34.812920	0.000134	1.340523	0.454181	-0.000054
 534	5.3033e+01	18.7936	34.757929	0.000137	1.370989	0.464504	-0.000055
 535	5.3133e+01	18.7535	34.700901	0.000142	1.421767	0.481708	-0.000057
 536	5.3233e+01	18.6877	34.644280	0.000141	1.411611	0.478267	-0.000057
 537	5.3332e+01	18.6909	34.586030	-0.000145	-1.452233	-0.492030	-0.000059
 538	5.3431e+01	18.6027	34.529410	0.000141	1.411611	0.478267	-0.000057
 539	5.3531e+01	18.5754	34.476863	0.000131	1.310056	0.443859	-0.000053
 540	5.3630e+01	18.5385	34.421057	0.000139	1.391300	0.471385	-0.000056
 541	5.3730e+01	18.5000	34.364843	0.000140	1.401456	0.474826	-0.000056
 542	5.3830e+01	18.4663	34.307001	0.000144	1.442078	0.488589	-0.000058
 543	5.3929e+01	18.4070	34.250380	0.000141	1.411611	0.478267	-0.000057
 544	5.4029e+01	18.3957	34.194981	0.000138	1.381145	0.467944	-0.000056
 545	5.4128e+01	18.3332	34.137139	0.000144	1.442078	0.488589	-0.000058
 546	5.4227e+01	18.2818	34.082962	0.000135	1.350678	0.457622	-0.000054
 547	5.4327e+01	18.2658	34.025934	0.000142	1.421767	0.481708	-0.000057
 548	5.4426e+01	18.2305	33.963611	0.000155	1.553788	0.526438	-0.000063
 549	5.4526e+01	18.1856	33.909027	0.000136	1.360834	0.461063	-0.000055
 550	5.4626e+01	18.1471	33.849148	0.000149	1.492855	0.505793	-0.000060
 551	5.4725e+01	18.0941	33.786417	0.000156	1.563943	0.529878	-0.000063
 552	5.4825e+01	18.0829	33.725316	0.000152	1.523321	0.516115	-0.000061
 553	5.4924e+01	18.0220	33.666251	0.000147	1.472544	0.498911	-0.000059
 554	5.5023e+01	17.9883	33.602705	0.000158	1.584254	0.536760	-0.000064
 555	5.5123e+01	17.9433	33.544048	0.000146	1.462388	0.495471	-0.000059
 556	5.5222e+01	17.8968	33.480095	0.000159	1.594410	0.540201	-0.000064
 557	5.5322e+01	17.8679	33.420623	0.000148	1.482699	0.502352	-0.000060
 558	5.5422e+01	17.8166	33.360744	0.000149	1.492855	0.505793	-0.000060
 559	5.5521e+01	17.7942	33.305345	0.000138	1.381145	0.467944	-0.000056
 560	5.5620e+01	17.7428	33.239763	0.000164	1.635032	0.553964	-0.000066
 561	5.5720e+01	17.7027	33.182328	0.000143	1.431922	0.485148	-0.000058
 562	5.5819e+01	17.6867	33.115931	0.000166	1.655343	0.560845	-0.000067
 563	5.5919e+01	17.6209	33.054422	0.000153	1.533477	0.519556	-0.000062
 564	5.6019e+01	17.5824	32.994950	0.000148	1.482699	0.502352	-0.000060
 565	5.6118e+01	17.5567	32.930183	0.000161	1.614721	0.547082	-0.000065
 566	5.6218e+01	17.5150	32.870711	0.000148	1.482699	0.502352	-0.000060
 567	5.6317e+01	17.4589	32.809609	0.000152	1.523321	0.516115	-0.000061
 568	5.6416e+01	17.4364	32.751359	0.000145	1.452233	0.492030	-0.000059
 569	5.6516e+01	17.4091	32.686999	0.000160	1.604565	0.543641	-0.000065
 570	5.6615e+01	17.3562	32.630786	0.000140	1.401456	0.474826	-0.000056
 571	5.6715e+01	17.3097	32.566833	0.000159	1.594410	0.540201	-0.000064
 572	5.6815e+01	17.2664	32.514693	0.000130	1.299901	0.440418	-0.000052
 573	5.6914e+01	17.2359	32.452777	0.000154	1.543632	0.522997	-0.000062
 574	5.7014e+01	17.1926	32.398601	0.000135	1.350678	0.457622	-0.000054
 575	5.7113e+01	17.1428	32.339129	0.000148	1.482699	0.502352	-0.000060
 576	5.7212e+01	17.1075	32.280472	0.000146	1.462388	0.495471	-0.000059
 577	5.7312e+01	17.0610	32.223444	0.000142	1.421767	0.481708	-0.000057
 578	5.7411e+01	17.0450	32.165601	0.000144	1.442078	0.488589	-0.000058
 579	5.7511e+01	16.9872	32.108573	0.000142	1.421767	0.481708	-0.000057
 580	5.7611e+01	16.9375	32.051138	0.000143	1.431922	0.485148	-0.000058
 581	5.7710e+01	16.8829	31.993295	0.000144	1.442078	0.488589	-0.000058
 582	5.7809e+01	16.8781	31.934638	0.000146	1.462388	0.495471	-0.000059
 583	5.7909e+01	16.8268	31.881276	0.000133	1.330367	0.450741	-0.000054
 584	5.8008e+01	16.7803	31.822618	0.000146	1.462388	0.495471	-0.000059
 585	5.8108e+01	16.7674	31.759073	0.000158	1.584254	0.536760	-0.000064
 586	5.8208e+01	16.7081	31.706526	0.000131	1.310056	0.443859	-0.000053
 587	5.8307e+01	16.6856	31.650313	0.000140	1.401456	0.474826	-0.000056
 588	5.8407e+01	16.6311	31.590841	0.000148	1.482699	0.502352	-0.000060
 589	5.8506e+01	16.5749	31.535849	0.000137	1.370989	0.464504	-0.000055
 590	5.8605e+01	16.5621	31.473526	0.000155	1.553788	0.526438	-0.000063
 591	5.8705e+01	16.5156	31.418127	0.000138	1.381145	0.467944	-0.000056
 592	5.8804e+01	16.4691	31.363136	0.000137	1.370989	0.464504	-0.000055
 593	5.8904e+01	16.4241	31.304479	0.000146	1.462388	0.495471	-0.000059
 594	5.9004e+01	16.3969	31.243377	0.000152	1.523321	0.516115	-0.000061
 595	5.9103e+01	16.3632	31.186757	0.000141	1.411611	0.478267	-0.000057
 596	5.9203e+01	16.3311	31.132988	0.000134	1.340523	0.454181	-0.000054
 597	5.9302e+01	16.2637	31.077182	0.000139	1.391300	0.471385	-0.000056
 598	5.9401e+01	16.2156	31.016895	0.000150	1.503010	0.509234	-0.000061
 599	5.9501e+01	16.2156	30.958238	0.000146	1.462388	0.495471	-0.000059
 600	5.9600e+01	16.1402	30.902432	0.000139	1.391300	0.471385	-0.000056
 601	5.9700e+01	16.1145	30.847848	0.000136	1.360834	0.461063	-0.000055
 602	5.9800e+01	16.0744	30.789190	0.000146	1.462388	0.495471	-0.000059
 603	5.9899e+01	16.0407	30.732570	0.000141	1.411611	0.478267	-0.000057
 604	5.9998e+01	15.9862	30.672283	0.000150	1.503010	0.509234	-0.000061
 605	6.0098e+01	15.9509	30.617699	0.000136	1.360834	0.461063	-0.000055
 606	6.0197e+01	15.9268	30.563115	0.000136	1.360834	0.461063	-0.000055
 607	6.0297e+01	15.8643	30.503236	0.000149	1.492855	0.505793	-0.000060
 608	6.0397e+01	15.8322	30.445801	0.000143	1.431922	0.485148	-0.000058
 609	6.0496e+01	15.7889	30.393253	0.000131	1.310056	0.443859	-0.000053
 610	6.0596e+01	15.7439	30.333374	0.000149	1.492855	0.505793	-0.000060
 611	6.0695e+01	15.7135	30.282864	0.000126	1.259279	0.426655	-0.000051
 612	6.0794e+01	15.6798	30.217689	0.000162	1.624876	0.550523	-0.000066
 613	6.0894e+01	15.6461	30.159031	0.000146	1.462388	0.495471	-0.000059
 614	6.0993e+01	15.5787	30.105262	0.000134	1.340523	0.454181	-0.000054
 615	6.1093e+01	15.5819	30.049049	-0.000140	-1.401456	-0.474826	-0.000056
 616	6.1193e+01	15.5242	29.985504	0.000158	1.584254	0.536760	-0.000064
 617	6.1292e+01	15.4808	29.927254	0.000145	1.452233	0.492030	-0.000059
 618	6.1392e+01	15.4311	29.873077	0.000135	1.350678	0.457622	-0.000054
 619	6.1491e+01	15.3830	29.811976	0.000152	1.523321	0.516115	-0.000061
 620	6.1590e+01	15.3734	29.756984	0.000137	1.370989	0.464504	-0.000055
 621	6.1690e+01	15.3284	29.694254	0.000156	1.563943	0.529878	-0.000063
 622	6.1789e+01	15.2627	29.641706	0.000131	1.310056	0.443859	-0.000053
 623	6.1889e+01	15.2466	29.586308	0.000138	1.381145	0.467944	-0.000056
 624	6.1989e+01	15.2017	29.525206	0.000152	1.523321	0.516115	-0.000061
 625	6.2088e+01	15.1584	29.463290	0.000154	1.543632	0.522997	-0.000062
 626	6.2188e+01	15.1103	29.404633	0.000146	1.462388	0.495471	-0.000059
 627	6.2287e+01	15.0798	29.350049	0.000136	1.360834	0.461063	-0.000055
 628	6.2386e+01	15.0557	29.291799	0.000145	1.452233	0.492030	-0.000059
 629	6.2486e+01	15.0092	29.229883	0.000154	1.543632	0.522997	-0.000062
 630	6.2586e+01	14.9675	29.171226	0.000146	1.462388	0.495471	-0.000059
 631	6.2685e+01	14.9210	29.114198	0.000142	1.421767	0.481708	-0.000057
 632	6.2785e+01	14.8857	29.055541	0.000146	1.462388	0.495471	-0.000059
 633	6.2884e+01	14.8408	28.997698	0.000144	1.442078	0.488589	-0.000058
 634	6.2983e+01	14.8007	28.944336	0.000133	1.330367	0.450741	-0.000054
 635	6.3083e+01	14.7269	28.892196	0.000130	1.299901	0.440418	-0.000052
 636	6.3182e+01	14.7333	28.839242	-0.000132	-1.320212	-0.447300	-0.000053
 637	6.3282e+01	14.6787	28.780177	0.000147	1.472544	0.498911	-0.000059
 638	6.3382e+01	14.6338	28.726000	0.000135	1.350678	0.457622	-0.000054
 639	6.3481e+01	14.5921	28.675897	0.000125	1.249124	0.423215	-0.000050
 640	6.3581e+01	14.5648	28.615611	0.000150	1.503010	0.509234	-0.000061
 641	6.3680e+01	14.5263	28.558175	0.000143	1.431922	0.485148	-0.000058
 642	6.3779e+01	14.4590	28.506035	0.000130	1.299901	0.440418	-0.000052
 643	6.3879e+01	14.4365	28.445749	0.000150	1.503010	0.509234	-0.000061
 644	6.3978e+01	14.3787	28.389128	0.000141	1.411611	0.478267	-0.000057
 645	6.4078e+01	14.3803	28.339432	-0.000124	-1.238968	-0.419774	-0.000050
 646	6.4177e+01	14.3049	28.280775	0.000146	1.462388	0.495471	-0.000059
 647	6.4277e+01	14.2953	28.225376	0.000138	1.381145	0.467944	-0.000056
 648	6.4376e+01	14.2376	28.167126	0.000145	1.452233	0.492030	-0.000059
 649	6.4476e+01	14.1959	28.113765	0.000133	1.330367	0.450741	-0.000054
 650	6.4576e+01	14.1397	28.060403	0.000133	1.330367	0.450741	-0.000054
 651	6.4675e+01	14.1221	28.001745	0.000146	1.462388	0.495471	-0.000059
 652	6.4775e+01	14.0804	27.941866	0.000149	1.492855	0.505793	-0.000060
 653	6.4874e+01	14.0451	27.884431	0.000143	1.431922	0.485148	-0.000058
 654	6.4974e+01	14.0066	27.826995	0.000143	1.431922	0.485148	-0.000058
 655	6.5073e+01	13.9616	27.765894	0.000152	1.523321	0.516115	-0.000061
 656	6.5172e+01	13.9231	27.704385	0.000153	1.533477	0.519556	-0.000062
 657	6.5272e+01	13.8782	27.644506	0.000149	1.492855	0.505793	-0.000060
 658	6.5371e+01	13.8526	27.584219	0.000150	1.503010	0.509234	-0.000061
 659	6.5471e+01	13.7948	27.521488	0.000156	1.563943	0.529878	-0.000063
 660	6.5570e+01	13.7483	27.456721	0.000161	1.614721	0.547082	-0.000065
 661	6.5670e+01	13.7050	27.399693	0.000142	1.421767	0.481708	-0.000057
 662	6.5769e+01	13.6713	27.334111	0.000164	1.635032	0.553964	-0.000066
 663	6.5869e+01	13.6456	27.274232	0.000149	1.492855	0.505793	-0.000060
 664	6.5969e+01	13.5975	27.210279	0.000159	1.594410	0.540201	-0.000064
 665	6.6068e+01	13.5622	27.149585	0.000151	1.513166	0.512674	-0.000061
 666	6.6168e+01	13.5285	27.087669	0.000154	1.543632	0.522997	-0.000062
 667	6.6267e+01	13.4740	27.028604	0.000147	1.472544	0.498911	-0.000059
 668	6.6367e+01	13.4515	26.962207	0.000166	1.655343	0.560845	-0.000067
 669	6.6466e+01	13.4018	26.903550	0.000146	1.462388	0.495471	-0.000059
 670	6.6566e+01	13.3584	26.837968	0.000164	1.635032	0.553964	-0.000066
 671	6.6665e+01	13.2895	26.774015	0.000159	1.594410	0.540201	-0.000064
 672	6.6764e+01	13.2718	26.708433	0.000164	1.635032	0.553964	-0.000066
 673	6.6864e+01	13.2429	26.644480	0.000159	1.594410	0.540201	-0.000064
 674	6.6963e+01	13.2093	26.583379	0.000152	1.523321	0.516115	-0.000061
 675	6.7063e+01	13.1675	26.522685	0.000151	1.513166	0.512674	-0.000061
 676	6.7162e+01	13.1066	26.453844	0.000172	1.716275	0.581490	-0.000069
 677	6.7262e+01	13.1082	26.390298	-0.000158	-1.584254	-0.536760	-0.000064
 678	6.7362e+01	13.0296	26.327567	0.000156	1.563943	0.529878	-0.000063
 679	6.7461e+01	12.9959	26.262800	0.000161	1.614721	0.547082	-0.000065
 680	6.7561e+01	12.9606	26.200477	0.000155	1.553788	0.526438	-0.000063
 681	6.7660e+01	12.9269	26.140190	0.000150	1.503010	0.509234	-0.000061
 682	6.7760e+01	12.8884	26.078681	0.000153	1.533477	0.519556	-0.000062
 683	6.7859e+01	12.8435	26.011877	0.000167	1.665498	0.564286	-0.000067
 684	6.7959e+01	12.8066	25.951998	0.000149	1.492855	0.505793	-0.000060
 685	6.8058e+01	12.7601	25.888860	0.000157	1.574099	0.533319	-0.000063
 686	6.8157e+01	12.7312	25.817575	0.000178	1.777208	0.602134	-0.000072
 687	6.8257e+01	12.6911	25.751585	0.000165	1.645187	0.557404	-0.000066
 688	6.8356e+01	12.6430	25.688040	0.000158	1.584254	0.536760	-0.000064
 689	6.8456e+01	12.6012	25.622865	0.000162	1.624876	0.550523	-0.000066
 690	6.8555e+01	12.5724	25.553209	0.000174	1.736586	0.588371	-0.000070
 691	6.8655e+01	12.5130	25.488849	0.000160	1.604565	0.543641	-0.000065
 692	6.8754e+01	12.4954	25.423267	0.000164	1.635032	0.553964	-0.000066
 693	6.8854e+01	12.4328	25.358500	0.000161	1.614721	0.547082	-0.000065
 694	6.8954e+01	12.4216	25.290881	0.000169	1.685809	0.571168	-0.000068
 695	6.9053e+01	12.3590	25.224076	0.000167	1.665498	0.564286	-0.000067
 696	6.9153e+01	12.3317	25.155643	0.000171	1.706120	0.578049	-0.000069
 697	6.9252e+01	12.2916	25.096578	0.000147	1.472544	0.498911	-0.000059
 698	6.9352e+01	12.2515	25.026515	0.000175	1.746742	0.591812	-0.000070
 699	6.9451e+01	12.2291	24.958489	0.000170	1.695964	0.574608	-0.000068
 700	6.9550e+01	12.1681	24.894944	0.000158	1.584254	0.536760	-0.000064
 701	6.9650e+01	12.1280	24.827325	0.000169	1.685809	0.571168	-0.000068
 702	6.9749e+01	12.0863	24.760521	0.000167	1.665498	0.564286	-0.000067
 703	6.9849e+01	12.0510	24.689236	0.000178	1.777208	0.602134	-0.000072
 704	6.9948e+01	12.0013	24.623654	0.000164	1.635032	0.553964	-0.000066
 705	7.0048e+01	11.9868	24.558479	0.000162	1.624876	0.550523	-0.000066
 706	7.0147e+01	11.9307	24.493304	0.000162	1.624876	0.550523	-0.000066
 707	7.0247e+01	11.8874	24.426907	0.000166	1.655343	0.560845	-0.000067
 708	7.0347e+01	11.8424	24.358066	0.000172	1.716275	0.581490	-0.000069
 709	7.0446e+01	11.8120	24.292484	0.000164	1.635032	0.553964	-0.000066
 710	7.0546e+01	11.7703	24.223236	0.000173	1.726431	0.584931	-0.000070
 711	7.0645e+01	11.7446	24.161727	0.000153	1.533477	0.519556	-0.000062
 712	7.0745e+01	11.6884	24.090442	0.000178	1.777208	0.602134	-0.000072
 713	7.0844e+01	11.6435	24.025675	0.000161	1.614721	0.547082	-0.000065
 714	7.0944e+01	11.5858	23.954390	0.000178	1.777208	0.602134	-0.000072
 715	7.1043e+01	11.5874	23.890030	-0.000160	-1.604565	-0.543641	-0.000065
 716	7.1142e+01	11.5248	23.818337	0.000179	1.787364	0.605575	-0.000072
 717	7.1242e+01	11.4959	23.749496	0.000172	1.716275	0.581490	-0.000069
 718	7.1341e+01	11.4382	23.676175	0.000183	1.827986	0.619338	-0.000074
 719	7.1441e+01	11.4125	23.606519	0.000174	1.736586	0.588371	-0.000070
 720	7.1540e+01	11.3708	23.535642	0.000177	1.767053	0.598694	-0.000071
 721	7.1640e+01	11.3403	23.461098	0.000186	1.858452	0.629661	-0.000075
 722	7.1740e+01	11.2874	23.390220	0.000177	1.767053	0.598694	-0.000071
 723	7.1839e+01	11.2521	23.315269	0.000187	1.868608	0.633101	-0.000075
 724	7.1939e+01	11.2232	23.248465	0.000167	1.665498	0.564286	-0.000067
 725	7.2038e+01	11.1687	23.175143	0.000183	1.827986	0.619338	-0.000074
 726	7.2138e+01	11.1318	23.104673	0.000176	1.756897	0.595253	-0.000071
 727	7.2237e+01	11.0869	23.032574	0.000180	1.797519	0.609016	-0.000072
 728	7.2337e+01	11.0484	22.965362	0.000168	1.675653	0.567727	-0.000068
 729	7.2436e+01	11.0259	22.886745	0.000196	1.960007	0.664068	-0.000079
 730	7.2535e+01	10.9858	22.813831	0.000182	1.817830	0.615898	-0.000073
 731	7.2635e+01	10.9361	22.740916	0.000182	1.817830	0.615898	-0.000073
 732	7.2734e+01	10.8895	22.666780	0.000185	1.848297	0.626220	-0.000075
 733	7.2834e+01	10.8655	22.595902	0.000177	1.767053	0.598694	-0.000071
 734	7.2933e+01	10.8189	22.525432	0.000176	1.756897	0.595253	-0.000071
 735	7.3033e+01	10.7756	22.449259	0.000190	1.899074	0.643424	-0.000077
 736	7.3132e+01	10.7291	22.386121	0.000157	1.574099	0.533319	-0.000063
 737	7.3232e+01	10.7018	22.310355	0.000189	1.888918	0.639983	-0.000076
 738	7.3332e+01	10.6473	22.242329	0.000170	1.695964	0.574608	-0.000068
 739	7.3431e+01	10.6184	22.171859	0.000176	1.756897	0.595253	-0.000071
 740	7.3531e+01	10.5591	22.109128	0.000156	1.563943	0.529878	-0.000063
 741	7.3630e+01	10.5462	22.036621	0.000181	1.807675	0.612457	-0.000073
 742	7.3730e+01	10.4917	21.971854	0.000161	1.614721	0.547082	-0.000065
 743	7.3829e+01	10.4452	21.901791	0.000175	1.746742	0.591812	-0.000070
 744	7.3928e+01	10.4259	21.830506	0.000178	1.777208	0.602134	-0.000072
 745	7.4028e+01	10.3714	21.760035	0.000176	1.756897	0.595253	-0.000071
 746	7.4127e+01	10.3425	21.696490	0.000158	1.584254	0.536760	-0.000064
 747	7.4227e+01	10.3008	21.619502	0.000192	1.919385	0.650305	-0.000077
 748	7.4326e+01	10.2591	21.557586	0.000154	1.543632	0.522997	-0.000062
 749	7.4426e+01	10.2254	21.489153	0.000171	1.706120	0.578049	-0.000069
 750	7.4525e+01	10.1676	21.419497	0.000174	1.736586	0.588371	-0.000070
 751	7.4625e+01	10.1436	21.351064	0.000171	1.706120	0.578049	-0.000069
 752	7.4725e+01	10.0874	21.280186	0.000177	1.767053	0.598694	-0.000071
 753	7.4824e+01	10.0698	21.216640	0.000158	1.584254	0.536760	-0.000064
 754	7.4924e+01	10.0216	21.140467	0.000190	1.899074	0.643424	-0.000077
 755	7.5023e+01	9.9863	21.077737	0.000156	1.563943	0.529878	-0.000063
 756	7.5123e+01	9.9398	21.007266	0.000176	1.756897	0.595253	-0.000071
 757	7.5222e+01	9.9061	20.938018	0.000173	1.726431	0.584931	-0.000070
 758	7.5322e+01	9.8372	20.866733	0.000178	1.777208	0.602134	-0.000072
 759	7.5421e+01	9.8099	20.804002	0.000156	1.563943	0.529878	-0.000063
 760	7.5520e+01	9.7762	20.733940	0.000175	1.746742	0.591812	-0.000070
 761	7.5620e+01	9.7329	20.666728	0.000168	1.675653	0.567727	-0.000068
 762	7.5719e+01	9.7088	20.595443	0.000178	1.777208	0.602134	-0.000072
 763	7.5819e+01	9.6767	20.531490	0.000159	1.594410	0.540201	-0.000064
 764	7.5918e+01	9.6270	20.458169	0.000183	1.827986	0.619338	-0.000074
 765	7.6018e+01	9.5741	20.392994	0.000162	1.624876	0.550523	-0.000066
 766	7.6118e+01	9.5404	20.320894	0.000180	1.797519	0.609016	-0.000072
 767	7.6217e+01	9.4955	20.251239	0.000174	1.736586	0.588371	-0.000070
 768	7.6317e+01	9.4602	20.188101	0.000157	1.574099	0.533319	-0.000063
 769	7.6416e+01	9.4457	20.118445	0.000174	1.736586	0.588371	-0.000070
 770	7.6516e+01	9.3639	20.043087	0.000188	1.878763	0.636542	-0.000076
 771	7.6615e+01	9.3398	19.975468	0.000169	1.685809	0.571168	-0.000068
 772	7.6715e+01	9.3142	19.910293	0.000162	1.624876	0.550523	-0.000066
 773	7.6814e+01	9.2420	19.842267	0.000170	1.695964	0.574608	-0.000068
 774	7.6913e+01	9.2388	19.776277	0.000165	1.645187	0.557404	-0.000066
 775	7.7013e+01	9.1618	19.705400	0.000177	1.767053	0.598694	-0.000071
 776	7.7112e+01	9.1233	19.635744	0.000174	1.736586	0.588371	-0.000070
 777	7.7212e+01	9.0976	19.566496	0.000173	1.726431	0.584931	-0.000070
 778	7.7311e+01	9.0816	19.501321	0.000162	1.624876	0.550523	-0.000066
 779	7.7411e+01	9.0206	19.430851	0.000176	1.756897	0.595253	-0.000071
 780	7.7510e+01	8.9741	19.357122	0.000184	1.838141	0.622779	-0.000074
 781	7.7610e+01	8.9532	19.292354	0.000161	1.614721	0.547082	-0.000065
 782	7.7710e+01	8.8955	19.221884	0.000176	1.756897	0.595253	-0.000071
 783	7.7809e+01	8.8698	19.149377	0.000181	1.807675	0.612457	-0.000073
 784	7.7909e+01	8.8024	19.078092	0.000178	1.777208	0.602134	-0.000072
 785	7.8008e+01	8.7816	19.012103	0.000165	1.645187	0.557404	-0.000066
 786	7.8108e+01	8.7463	18.944891	0.000168	1.675653	0.567727	-0.000068
 787	7.8207e+01	8.7014	18.868311	0.000191	1.909229	0.646864	-0.000077
 788	7.8306e+01	8.6596	18.806802	0.000153	1.533477	0.519556	-0.000062
 789	7.8406e+01	8.6276	18.731036	0.000189	1.888918	0.639983	-0.000076
 790	7.8505e+01	8.5859	18.667491	0.000158	1.584254	0.536760	-0.000064
 791	7.8605e+01	8.5554	18.593762	0.000184	1.838141	0.622779	-0.000074
 792	7.8704e+01	8.4944	18.522884	0.000177	1.767053	0.598694	-0.000071
 793	7.8804e+01	8.4495	18.449970	0.000182	1.817830	0.615898	-0.000073
 794	7.8903e+01	8.4142	18.381129	0.000172	1.716275	0.581490	-0.000069
 795	7.9003e+01	8.3837	18.312695	0.000171	1.706120	0.578049	-0.000069
 796	7.9103e+01	8.3597	18.238966	0.000184	1.838141	0.622779	-0.000074
 797	7.9202e+01	8.3131	18.168903	0.000175	1.746742	0.591812	-0.000070
 798	7.9302e+01	8.2650	18.097619	0.000178	1.777208	0.602134	-0.000072
 799	7.9401e+01	8.2201	18.031629	0.000165	1.645187	0.557404	-0.000066
 800	7.9501e+01	8.1752	17.956678	0.000187	1.868608	0.633101	-0.000075
 801	7.9600e+01	8.1367	17.891503	0.000162	1.624876	0.550523	-0.000066
 802	7.9700e+01	8.0918	17.821033	0.000176	1.756897	0.595253	-0.000071
 803	7.9799e+01	8.0789	17.757488	0.000158	1.584254	0.536760	-0.000064
 804	7.9898e+01	8.0067	17.690683	0.000167	1.665498	0.564286	-0.000067
 805	7.9998e+01	7.9778	17.623472	0.000168	1.675653	0.567727	-0.000068
 806	8.0097e+01	7.9506	17.555038	0.000171	1.706120	0.578049	-0.000069
 807	8.0197e+01	7.9105	17.488234	0.000167	1.665498	0.564286	-0.000067
 808	8.0296e+01	7.8639	17.419801	0.000171	1.706120	0.578049	-0.000069
 809	8.0396e+01	7.8174	17.347701	0.000180	1.797519	0.609016	-0.000072
 810	8.0496e+01	7.7773	17.280082	0.000169	1.685809	0.571168	-0.000068
 811	8.0595e+01	7.7404	17.213278	0.000167	1.665498	0.564286	-0.000067
 812	8.0695e+01	7.7083	17.142400	0.000177	1.767053	0.598694	-0.000071
 813	8.0794e+01	7.6795	17.077633	0.000161	1.614721	0.547082	-0.000065
 814	8.0894e+01	7.6249	17.010421	0.000168	1.675653	0.567727	-0.000068
 815	8.0993e+01	7.5784	16.939136	0.000178	1.777208	0.602134	-0.000072
 816	8.1093e+01	7.5511	16.874369	0.000161	1.614721	0.547082	-0.000065
 817	8.1192e+01	7.5110	16.802269	0.000180	1.797519	0.609016	-0.000072
 818	8.1291e+01	7.4629	16.731799	0.000176	1.756897	0.595253	-0.000071
 819	8.1391e+01	7.4100	16.661329	0.000176	1.756897	0.595253	-0.000071
 820	8.1490e+01	7.4083	16.588414	0.000182	1.817830	0.615898	-0.000073
 821	8.1590e+01	7.3362	16.519574	0.000172	1.716275	0.581490	-0.000069
 822	8.1689e+01	7.3121	16.445030	0.000186	1.858452	0.629661	-0.000075
 823	8.1789e+01	7.2575	16.374152	0.000177	1.767053	0.598694	-0.000071
 824	8.1888e+01	7.2255	16.296350	0.000194	1.939696	0.657187	-0.000078
 825	8.1988e+01	7.1918	16.222621	0.000184	1.838141	0.622779	-0.000074
 826	8.2088e+01	7.1420	16.150521	0.000180	1.797519	0.609016	-0.000072
 827	8.2187e+01	7.1003	16.071904	0.000196	1.960007	0.664068	-0.000079
 828	8.2287e+01	7.0731	16.001026	0.000177	1.767053	0.598694	-0.000071
 829	8.2386e+01	7.0394	15.923224	0.000194	1.939696	0.657187	-0.000078
 830	8.2486e+01	6.9864	15.851124	0.000180	1.797519	0.609016	-0.000072
 831	8.2585e+01	6.9495	15.771693	0.000198	1.980318	0.670950	-0.000080
 832	8.2684e+01	6.9303	15.697556	0.000185	1.848297	0.626220	-0.000075
 833	8.2784e+01	6.8790	15.621383	0.000190	1.899074	0.643424	-0.000077
 834	8.2883e+01	6.8100	15.546025	0.000188	1.878763	0.636542	-0.000076
 835	8.2983e+01	6.7875	15.469444	0.000191	1.909229	0.646864	-0.000077
 836	8.3082e+01	6.7346	15.394493	0.000187	1.868608	0.633101	-0.000075
 837	8.3182e+01	6.7073	15.318320	0.000190	1.899074	0.643424	-0.000077
 838	8.3281e+01	6.6688	15.242555	0.000189	1.888918	0.639983	-0.000076
 839	8.3381e+01	6.6351	15.166789	0.000189	1.888918	0.639983	-0.000076
 840	8.3481e+01	6.5870	15.087764	0.000197	1.970162	0.667509	-0.000079
 841	8.3580e+01	6.5549	15.009147	0.000196	1.960007	0.664068	-0.000079
 842	8.3680e+01	6.5116	14.932160	0.000192	1.919385	0.650305	-0.000077
 843	8.3779e+01	6.4618	14.865355	0.000167	1.665498	0.564286	-0.000067
 844	8.3879e+01	6.4394	14.787553	0.000194	1.939696	0.657187	-0.000078
 845	8.3978e+01	6.3865	14.706492	0.000202	2.020940	0.684713	-0.000081
 846	8.4078e+01	6.3592	14.626653	0.000199	1.990473	0.674391	-0.000080
 847	8.4177e+01	6.3078	14.552109	0.000186	1.858452	0.629661	-0.000075
 848	8.4276e+01	6.2758	14.477565	0.000186	1.858452	0.629661	-0.000075
 849	8.4376e+01	6.2164	14.396504	0.000202	2.020940	0.684713	-0.000081
 850	8.4475e+01	6.1635	14.317887	0.000196	1.960007	0.664068	-0.000079
 851	8.4575e+01	6.1474	14.237233	0.000201	2.010784	0.681272	-0.000081
 852	8.4674e+01	6.1153	14.159023	0.000195	1.949851	0.660628	-0.000079
 853	8.4774e+01	6.0752	14.080814	0.000195	1.949851	0.660628	-0.000079
 854	8.4874e+01	6.0399	13.998123	0.000206	2.061562	0.698476	-0.000083
 855	8.4973e+01	5.9854	13.915433	0.000206	2.061562	0.698476	-0.000083
 856	8.5073e+01	5.9581	13.838037	0.000193	1.929540	0.653746	-0.000078
 857	8.5172e+01	5.9148	13.761050	0.000192	1.919385	0.650305	-0.000077
 858	8.5272e+01	5.8875	13.677137	0.000209	2.092028	0.708798	-0.000084
 859	8.5371e+01	5.8426	13.596891	0.000200	2.000629	0.677831	-0.000081
 860	8.5471e+01	5.8089	13.517459	0.000198	1.980318	0.670950	-0.000080
 861	8.5570e+01	5.7656	13.436805	0.000201	2.010784	0.681272	-0.000081
 862	8.5669e+01	5.7095	13.355337	0.000203	2.031095	0.688154	-0.000082
 863	8.5769e+01	5.6485	13.275090	0.000200	2.000629	0.677831	-0.000081
 864	8.5868e+01	5.6613	13.189955	-0.000212	-2.122494	-0.719121	-0.000086
 865	8.5968e+01	5.5988	13.117856	0.000180	1.797519	0.609016	-0.000072
 866	8.6067e+01	5.5474	13.034758	0.000207	2.071717	0.701917	-0.000084
 867	8.6167e+01	5.5041	12.951253	0.000208	2.081873	0.705358	-0.000084
 868	8.6266e+01	5.4608	12.868155	0.000207	2.071717	0.701917	-0.000084
 869	8.6366e+01	5.4271	12.794019	0.000185	1.848297	0.626220	-0.000075
 870	8.6466e+01	5.3982	12.712143	0.000204	2.041251	0.691594	-0.000082
 871	8.6565e+01	5.3453	12.626193	0.000214	2.142805	0.726002	-0.000086
 872	8.6665e+01	5.3244	12.542688	0.000208	2.081873	0.705358	-0.000084
 873	8.6764e+01	5.2747	12.464478	0.000195	1.949851	0.660628	-0.000079
 874	8.6864e+01	5.2394	12.378936	0.000213	2.132650	0.722561	-0.000086
 875	8.6963e+01	5.1833	12.293802	0.000212	2.122494	0.719121	-0.000086
 876	8.7063e+01	5.1624	12.215999	0.000194	1.939696	0.657187	-0.000078
 877	8.7162e+01	5.1095	12.129643	0.000215	2.152961	0.729443	-0.000087
 878	8.7261e+01	5.0662	12.057136	0.000181	1.807675	0.612457	-0.000073
 879	8.7361e+01	5.0437	11.970779	0.000215	2.152961	0.729443	-0.000087
 880	8.7460e+01	5.0004	11.890125	0.000201	2.010784	0.681272	-0.000081
 881	8.7560e+01	4.9619	11.802547	0.000218	2.183427	0.739765	-0.000088
 882	8.7659e+01	4.9106	11.719449	0.000207	2.071717	0.701917	-0.000084
 883	8.7759e+01	4.8769	11.634314	0.000212	2.122494	0.719121	-0.000086
 884	8.7859e+01	4.8400	11.552438	0.000204	2.041251	0.691594	-0.000082
 885	8.7958e+01	4.7951	11.465267	0.000217	2.173272	0.736324	-0.000088
 886	8.8058e+01	4.7325	11.379725	0.000213	2.132650	0.722561	-0.000086
 887	8.8157e+01	4.7180	11.294183	0.000213	2.132650	0.722561	-0.000086
 888	8.8257e+01	4.6812	11.204975	0.000222	2.224049	0.753528	-0.000090
 889	8.8356e+01	4.6378	11.113731	0.000227	2.274827	0.770732	-0.000092
 890	8.8456e+01	4.5961	11.027781	0.000214	2.142805	0.726002	-0.000086
 891	8.8555e+01	4.5432	10.942647	0.000212	2.122494	0.719121	-0.000086
 892	8.8654e+01	4.5239	10.855883	0.000216	2.163116	0.732884	-0.000087
 893	8.8754e+01	4.4822	10.764231	0.000228	2.284982	0.774173	-0.000092
 894	8.8853e+01	4.4132	10.677467	0.000216	2.163116	0.732884	-0.000087
 895	8.8953e+01	4.4004	10.592739	0.000211	2.112339	0.715680	-0.000085
 896	8.9052e+01	4.3924	10.507605	0.000212	2.122494	0.719121	-0.000086
 897	8.9152e+01	4.2849	10.417175	0.000225	2.254516	0.763851	-0.000091
 898	8.9251e+01	4.2689	10.323486	0.000234	2.335759	0.791377	-0.000094
 899	8.9351e+01	4.2320	10.237537	0.000214	2.142805	0.726002	-0.000086
 900	8.9451e+01	4.1870	10.145885	0.000228	2.284982	0.774173	-0.000092
 901	8.9550e+01	4.1710	10.060343	0.000213	2.132650	0.722561	-0.000086
 902	8.9650e+01	4.1100	9.968283	0.000230	2.295138	0.777614	-0.000093
 903	8.9749e+01	4.0587	9.884371	0.000209	2.092028	0.708798	-0.000084
 904	8.9849e+01	4.0379	9.795570	0.000221	2.213894	0.750087	-0.000089
 905	8.9948e+01	3.9994	9.713287	0.000205	2.051406	0.695035	-0.000083
 906	9.0047e+01	3.9544	9.622857	0.000225	2.254516	0.763851	-0.000091
 907	9.0147e+01	3.9256	9.539759	0.000207	2.071717	0.701917	-0.000084
 908	9.0246e+01	3.8790	9.450144	0.000223	2.234205	0.756969	-0.000090
 909	9.0346e+01	3.8405	9.367046	0.000207	2.071717	0.701917	-0.000084
 910	9.0445e+01	3.7892	9.282318	0.000211	2.112339	0.715680	-0.000085
 911	9.0545e+01	3.7764	9.200035	0.000205	2.051406	0.695035	-0.000083
 912	9.0644e+01	3.7314	9.111642	0.000220	2.203738	0.746647	-0.000089
 913	9.0744e+01	3.6705	9.024878	0.000216	2.163116	0.732884	-0.000087
 914	9.0844e+01	3.6368	8.940558	0.000210	2.102183	0.712239	-0.000085
 915	9.0943e+01	3.6191	8.857053	0.000208	2.081873	0.705358	-0.000084
 916	9.1043e+01	3.5550	8.767845	0.000222	2.224049	0.753528	-0.000090
 917	9.1142e+01	3.5117	8.685969	0.000204	2.041251	0.691594	-0.000082
 918	9.1242e+01	3.4716	8.598390	0.000218	2.183427	0.739765	-0.000088
 919	9.1341e+01	3.4443	8.512034	0.000215	2.152961	0.729443	-0.000087
 920	9.1441e+01	3.3930	8.426899	0.000212	2.122494	0.719121	-0.000086
 921	9.1540e+01	3.3721	8.344616	0.000205	2.051406	0.695035	-0.000083
 922	9.1639e+01	3.3240	8.258259	0.000215	2.152961	0.729443	-0.000087
 923	9.1739e+01	3.2871	8.170681	0.000218	2.183427	0.739765	-0.000088
 924	9.1838e+01	3.2518	8.084731	0.000214	2.142805	0.726002	-0.000086
 925	9.1938e+01	3.1988	8.000819	0.000209	2.092028	0.708798	-0.000084
 926	9.2037e+01	3.1652	7.913647	0.000217	2.173272	0.736324	-0.000088
 927	9.2137e+01	3.1138	7.830957	0.000206	2.061562	0.698476	-0.000083
 928	9.2237e+01	3.0737	7.742564	0.000220	2.203738	0.746647	-0.000089
 929	9.2336e+01	3.0272	7.654170	0.000220	2.203738	0.746647	-0.000089
 930	9.2436e+01	3.0047	7.571072	0.000207	2.071717	0.701917	-0.000084
 931	9.2535e+01	2.9534	7.482679	0.000220	2.203738	0.746647	-0.000089
 932	9.2635e+01	2.9325	7.397137	0.000213	2.132650	0.722561	-0.000086
 933	9.2734e+01	2.8828	7.308744	0.000220	2.203738	0.746647	-0.000089
 934	9.2834e+01	2.8636	7.220350	0.000220	2.203738	0.746647	-0.000089
 935	9.2933e+01	2.7946	7.136438	0.000209	2.092028	0.708798	-0.000084
 936	9.3032e+01	2.7513	7.052933	0.000208	2.081873	0.705358	-0.000084
 937	9.3132e+01	2.7144	6.966983	0.000214	2.142805	0.726002	-0.000086
 938	9.3231e+01	2.6919	6.876553	0.000225	2.254516	0.763851	-0.000091
 939	9.3331e+01	2.6486	6.795085	0.000203	2.031095	0.688154	-0.000082
 940	9.3430e+01	2.6133	6.709950	0.000212	2.122494	0.719121	-0.000086
 941	9.3530e+01	2.5411	6.621150	0.000221	2.213894	0.750087	-0.000089
 942	9.3629e+01	2.5363	6.532756	0.000220	2.203738	0.746647	-0.000089
 943	9.3729e+01	2.4834	6.444770	0.000219	2.193583	0.743206	-0.000088
 944	9.3829e+01	2.4609	6.365746	0.000197	1.970162	0.667509	-0.000079
 945	9.3928e+01	2.4112	6.273279	0.000231	2.305293	0.781054	-0.000093
 946	9.4028e+01	2.3534	6.188144	0.000212	2.122494	0.719121	-0.000086
 947	9.4127e+01	2.3085	6.093641	0.000236	2.356070	0.798258	-0.000095
 948	9.4227e+01	2.3085	6.012580	0.000202	2.020940	0.684713	-0.000081
 949	9.4326e+01	2.2283	5.919706	0.000232	2.315448	0.784495	-0.000093
 950	9.4425e+01	2.2203	5.836608	0.000207	2.071717	0.701917	-0.000084
 951	9.4525e+01	2.1513	5.748214	0.000220	2.203738	0.746647	-0.000089
 952	9.4624e+01	2.1256	5.655748	0.000231	2.305293	0.781054	-0.000093
 953	9.4724e+01	2.0807	5.573057	0.000206	2.061562	0.698476	-0.000083
 954	9.4823e+01	2.0454	5.480998	0.000230	2.295138	0.777614	-0.000093
 955	9.4923e+01	2.0245	5.395863	0.000212	2.122494	0.719121	-0.000086
 956	9.5022e+01	1.9427	5.303804	0.000230	2.295138	0.777614	-0.000093
 957	9.5122e+01	1.9203	5.219891	0.000209	2.092028	0.708798	-0.000084
 958	9.5222e+01	1.8930	5.131090	0.000221	2.213894	0.750087	-0.000089
 959	9.5321e+01	1.8641	5.039846	0.000227	2.274827	0.770732	-0.000092
 960	9.5421e+01	1.8112	4.949823	0.000224	2.244360	0.760410	-0.000090
 961	9.5520e+01	1.7614	4.863466	0.000215	2.152961	0.729443	-0.000087
 962	9.5620e+01	1.7229	4.773444	0.000224	2.244360	0.760410	-0.000090
 963	9.5719e+01	1.6620	4.681384	0.000230	2.295138	0.777614	-0.000093
 964	9.5819e+01	1.6363	4.597879	0.000208	2.081873	0.705358	-0.000084
 965	9.5918e+01	1.6155	4.506227	0.000228	2.284982	0.774173	-0.000092
 966	9.6017e+01	1.5561	4.423944	0.000205	2.051406	0.695035	-0.000083
 967	9.6117e+01	1.5096	4.334736	0.000222	2.224049	0.753528	-0.000090
 968	9.6216e+01	1.4743	4.240232	0.000236	2.356070	0.798258	-0.000095
 969	9.6316e+01	1.4278	4.156727	0.000208	2.081873	0.705358	-0.000084
 970	9.6415e+01	1.3909	4.068741	0.000219	2.193583	0.743206	-0.000088
 971	9.6515e+01	1.3572	3.985643	0.000207	2.071717	0.701917	-0.000084
 972	9.6615e+01	1.3171	3.895620	0.000224	2.244360	0.760410	-0.000090
 973	9.6714e+01	1.2866	3.812523	0.000207	2.071717	0.701917	-0.000084
 974	9.6814e+01	1.2593	3.721685	0.000226	2.264671	0.767291	-0.000091
 975	9.6913e+01	1.1887	3.643475	0.000195	1.949851	0.660628	-0.000079
 976	9.7013e+01	1.1631	3.553045	0.000225	2.254516	0.763851	-0.000091
 977	9.7112e+01	1.1198	3.464652	0.000220	2.203738	0.746647	-0.000089
 978	9.7212e+01	1.0684	3.377481	0.000217	2.173272	0.736324	-0.000088
 979	9.7311e+01	1.0636	3.291939	0.000213	2.132650	0.722561	-0.000086
 980	9.7410e+01	0.9882	3.202731	0.000222	2.224049	0.753528	-0.000090
 981	9.7510e+01	0.9802	3.112301	0.000225	2.254516	0.763851	-0.000091
 982	9.7609e+01	0.9272	3.030018	0.000205	2.051406	0.695035	-0.000083
 983	9.7709e+01	0.8936	2.947734	0.000205	2.051406	0.695035	-0.000083
 984	9.7808e+01	0.8502	2.852824	0.000237	2.366226	0.801699	-0.000095
 985	9.7908e+01	0.8085	2.767689	0.000212	2.122494	0.719121	-0.000086
 986	9.8007e+01	0.7861	2.679296	0.000220	2.203738	0.746647	-0.000089
 987	9.8107e+01	0.7460	2.592124	0.000217	2.173272	0.736324	-0.000088
 988	9.8207e+01	0.6994	2.500880	0.000227	2.274827	0.770732	-0.000092
 989	9.8306e+01	0.6577	2.410042	0.000226	2.264671	0.767291	-0.000091
 990	9.8406e+01	0.6160	2.320020	0.000224	2.244360	0.760410	-0.000090
 991	9.8505e+01	0.5791	2.229589	0.000225	2.254516	0.763851	-0.000091
 992	9.8605e+01	0.5519	2.133864	0.000239	2.386537	0.808581	-0.000096
 993	9.8704e+01	0.4925	2.041397	0.000231	2.305293	0.781054	-0.000093
 994	9.8803e+01	0.4444	1.952597	0.000221	2.213894	0.750087	-0.000089
 995	9.8903e+01	0.4171	1.857278	0.000238	2.376381	0.805140	-0.000096
 996	9.9002e+01	0.3706	1.762775	0.000236	2.356070	0.798258	-0.000095
 997	9.9102e+01	0.3192	1.673567	0.000222	2.224049	0.753528	-0.000090
 998	9.9201e+01	0.3112	1.585988	0.000218	2.183427	0.739765	-0.000088
 999	9.9301e+01	0.2631	1.485375	0.000251	2.508402	0.849870	-0.000101
1000	9.9400e+01	0.2086	1.389242	0.000240	2.396692	0.812021	-0.000097
1001	9.9500e+01	0.1909	1.299626	0.000223	2.234205	0.756969	-0.000090
1002	9.9600e+01	0.1315	1.209604	0.000224	2.244360	0.760410	-0.000090
1003	9.9699e+01	0.0898	1.118766	0.000226	2.264671	0.767291	-0.000091
1004	9.9799e+01	0.0449	1.017338	0.000253	2.528713	0.856751	-0.000102
1005	9.9898e+01	0.0144	0.946053	0.000178	1.777208	0.602134	-0.000072
1006	9.9998e+01	-0.0257	0.852364	0.000234	2.335759	0.791377	-0.000094
1007	1.0010e+02	-0.0738	0.759490	0.000232	2.315448	0.784495	-0.000093
1008	1.0020e+02	-0.0690	0.671097	-0.000220	-2.203738	-0.746647	-0.000089
1009	1.0030e+02	-0.1332	0.571705	0.000248	2.477936	0.839547	-0.000100
1010	1.0040e+02	-0.1829	0.479239	0.000231	2.305293	0.781054	-0.000093
1011	1.0050e+02	-0.2166	0.388401	0.000226	2.264671	0.767291	-0.000091
1012	1.0059e+02	-0.2647	0.294305	0.000235	2.345915	0.794817	-0.000095
1013	1.0069e+02	-0.2968	0.200209	0.000235	2.345915	0.794817	-0.000095
1014	1.0079e+02	-0.3577	0.104891	0.000238	2.376381	0.805140	-0.000096
1015	1.0089e+02	-0.3834	0.013239	0.000228	2.284982	0.774173	-0.000092
1016	1.0099e+02	-0.4267	-0.080450	0.000234	2.335759	0.791377	-0.000094
1017	1.0109e+02	-0.4636	-0.176990	0.000241	2.406848	0.815462	-0.000097
1018	1.0119e+02	-0.4925	-0.274345	0.000243	2.427159	0.822344	-0.000098
1019	1.0129e+02	-0.5438	-0.364775	0.000225	2.254516	0.763851	-0.000091
1020	1.0139e+02	-0.5727	-0.457242	0.000231	2.305293	0.781054	-0.000093
1021	1.0149e+02	-0.5871	-0.557856	0.000251	2.508402	0.849870	-0.000101
1022	1.0159e+02	-0.6353	-0.649915	0.000230	2.295138	0.777614	-0.000093
1023	1.0169e+02	-0.6802	-0.741567	0.000228	2.284982	0.774173	-0.000092
1024	1.0179e+02	-0.7235	-0.836071	0.000236	2.356070	0.798258	-0.000095
1025	1.0189e+02	-0.7781	-0.933018	0.000242	2.417003	0.818903	-0.000097
1026	1.0199e+02	-0.8406	-1.034039	0.000252	2.518558	0.853311	-0.000102
1027	1.0209e+02	-0.8518	-1.123247	0.000222	2.224049	0.753528	-0.000090
1028	1.0219e+02	-0.8936	-1.217751	0.000236	2.356070	0.798258	-0.000095
1029	1.0229e+02	-0.9593	-1.315920	0.000245	2.447470	0.829225	-0.000099
1030	1.0239e+02	-0.9722	-1.404313	0.000220	2.203738	0.746647	-0.000089
1031	1.0248e+02	-1.0187	-1.502890	0.000246	2.457625	0.832666	-0.000099
1032	1.0258e+02	-1.0556	-1.591284	0.000220	2.203738	0.746647	-0.000089
1033	1.0268e+02	-1.1053	-1.688231	0.000242	2.417003	0.818903	-0.000097
1034	1.0278e+02	-1.1502	-1.783549	0.000238	2.376381	0.805140	-0.000096
1035	1.0288e+02	-1.1823	-1.874794	0.000227	2.274827	0.770732	-0.000092
1036	1.0298e+02	-1.2080	-1.967668	0.000232	2.315448	0.784495	-0.000093
1037	1.0308e+02	-1.2465	-2.063394	0.000239	2.386537	0.808581	-0.000096
1038	1.0318e+02	-1.2834	-2.153824	0.000225	2.254516	0.763851	-0.000091
1039	1.0328e+02	-1.3347	-2.254030	0.000250	2.498247	0.846429	-0.000101
1040	1.0338e+02	-1.3909	-2.343238	0.000222	2.224049	0.753528	-0.000090
1041	1.0348e+02	-1.4262	-2.438149	0.000237	2.366226	0.801699	-0.000095
1042	1.0358e+02	-1.4390	-2.525320	0.000217	2.173272	0.736324	-0.000088
1043	1.0368e+02	-1.4807	-2.624304	0.000247	2.467781	0.836107	-0.000099
1044	1.0378e+02	-1.5320	-2.715142	0.000226	2.264671	0.767291	-0.000091
1045	1.0388e+02	-1.5754	-2.804350	0.000222	2.224049	0.753528	-0.000090
1046	1.0398e+02	-1.6026	-2.897224	0.000232	2.315448	0.784495	-0.000093
1047	1.0408e+02	-1.6796	-2.992542	0.000238	2.376381	0.805140	-0.000096
1048	1.0418e+02	-1.6973	-3.082157	0.000223	2.234205	0.756969	-0.000090
1049	1.0428e+02	-1.7342	-3.177476	0.000238	2.376381	0.805140	-0.000096
1050	1.0438e+02	-1.7454	-3.267498	0.000224	2.244360	0.760410	-0.000090
1051	1.0447e+02	-1.8336	-3.366483	0.000247	2.467781	0.836107	-0.000099
1052	1.0457e+02	-1.8657	-3.457320	0.000226	2.264671	0.767291	-0.000091
1053	1.0467e+02	-1.9026	-3.558341	0.000252	2.518558	0.853311	-0.000102
1054	1.0477e+02	-1.9395	-3.652030	0.000234	2.335759	0.791377	-0.000094
1055	1.0487e+02	-1.9828	-3.745718	0.000234	2.335759	0.791377	-0.000094
1056	1.0497e+02	-2.0294	-3.846332	0.000251	2.508402	0.849870	-0.000101
1057	1.0507e+02	-2.0582	-3.939613	0.000233	2.325604	0.787936	-0.000094
1058	1.0517e+02	-2.1031	-4.035339	0.000239	2.386537	0.808581	-0.000096
1059	1.0527e+02	-2.1224	-4.126584	0.000227	2.274827	0.770732	-0.000092
1060	1.0537e+02	-2.1769	-4.224753	0.000245	2.447470	0.829225	-0.000099
1061	1.0547e+02	-2.2090	-4.320479	0.000239	2.386537	0.808581	-0.000096
1062	1.0557e+02	-2.2652	-4.414982	0.000236	2.356070	0.798258	-0.000095
1063	1.0567e+02	-2.2941	-4.502561	0.000218	2.183427	0.739765	-0.000088
1064	1.0577e+02	-2.3261	-4.602360	0.000249	2.488092	0.842988	-0.000100
1065	1.0587e+02	-2.3662	-4.696456	0.000235	2.345915	0.794817	-0.000095
1066	1.0597e+02	-2.4352	-4.796662	0.000250	2.498247	0.846429	-0.000101
1067	1.0607e+02	-2.4336	-4.883834	-0.000217	-2.173272	-0.736324	-0.000088
1068	1.0617e+02	-2.5026	-4.980374	0.000241	2.406848	0.815462	-0.000097
1069	1.0627e+02	-2.5427	-5.074877	0.000236	2.356070	0.798258	-0.000095
1070	1.0637e+02	-2.5652	-5.171825	0.000242	2.417003	0.818903	-0.000097
1071	1.0647e+02	-2.6069	-5.253701	0.000204	2.041251	0.691594	-0.000082
1072	1.0656e+02	-2.6614	-5.353499	0.000249	2.488092	0.842988	-0.000100
1073	1.0666e+02	-2.6983	-5.438227	0.000211	2.112339	0.715680	-0.000085
1074	1.0676e+02	-2.7192	-5.533952	0.000239	2.386537	0.808581	-0.000096
1075	1.0686e+02	-2.7641	-5.618679	0.000211	2.112339	0.715680	-0.000085
1076	1.0696e+02	-2.8106	-5.709110	0.000225	2.254516	0.763851	-0.000091
1077	1.0706e+02	-2.8395	-5.797096	0.000219	2.193583	0.743206	-0.000088
1078	1.0716e+02	-2.8716	-5.883452	0.000215	2.152961	0.729443	-0.000087
1079	1.0726e+02	-2.9357	-5.979178	0.000239	2.386537	0.808581	-0.000096
1080	1.0736e+02	-2.9678	-6.060239	0.000202	2.020940	0.684713	-0.000081
1081	1.0746e+02	-3.0047	-6.149447	0.000222	2.224049	0.753528	-0.000090
1082	1.0756e+02	-3.0641	-6.238655	0.000222	2.224049	0.753528	-0.000090
1083	1.0766e+02	-3.0946	-6.325011	0.000215	2.152961	0.729443	-0.000087
1084	1.0776e+02	-3.1234	-6.410146	0.000212	2.122494	0.719121	-0.000086
1085	1.0786e+02	-3.1507	-6.496503	0.000215	2.152961	0.729443	-0.000087
1086	1.0796e+02	-3.2053	-6.580823	0.000210	2.102183	0.712239	-0.000085
1087	1.0806e+02	-3.2486	-6.670031	0.000222	2.224049	0.753528	-0.000090
1088	1.0816e+02	-3.2646	-6.754351	0.000210	2.102183	0.712239	-0.000085
1089	1.0826e+02	-3.3095	-6.839892	0.000213	2.132650	0.722561	-0.000086
1090	1.0836e+02	-3.3561	-6.928286	0.000220	2.203738	0.746647	-0.000089
1091	1.0845e+02	-3.4026	-7.015050	0.000216	2.163116	0.732884	-0.000087
1092	1.0855e+02	-3.4395	-7.100592	0.000213	2.132650	0.722561	-0.000086
1093	1.0865e+02	-3.4635	-7.184097	0.000208	2.081873	0.705358	-0.000084
1094	1.0875e+02	-3.5325	-7.267602	0.000208	2.081873	0.705358	-0.000084
1095	1.0885e+02	-3.5710	-7.353144	0.000213	2.132650	0.722561	-0.000086
1096	1.0895e+02	-3.6208	-7.437464	0.000210	2.102183	0.712239	-0.000085
1097	1.0905e+02	-3.6769	-7.525043	0.000218	2.183427	0.739765	-0.000088
1098	1.0915e+02	-3.6994	-7.604474	0.000198	1.980318	0.670950	-0.000080
1099	1.0925e+02	-3.7186	-7.693275	0.000221	2.213894	0.750087	-0.000089
1100	1.0935e+02	-3.7443	-7.775558	0.000205	2.051406	0.695035	-0.000083
1101	1.0945e+02	-3.8261	-7.863952	0.000220	2.203738	0.746647	-0.000089
1102	1.0955e+02	-3.8470	-7.941754	0.000194	1.939696	0.657187	-0.000078
1103	1.0965e+02	-3.8790	-8.028925	0.000217	2.173272	0.736324	-0.000088
1104	1.0975e+02	-3.9207	-8.115282	0.000215	2.152961	0.729443	-0.000087
1105	1.0985e+02	-3.9801	-8.193899	0.000196	1.960007	0.664068	-0.000079
1106	1.0995e+02	-4.0186	-8.276182	0.000205	2.051406	0.695035	-0.000083
1107	1.1005e+02	-4.0362	-8.356021	0.000199	1.990473	0.674391	-0.000080
1108	1.1015e+02	-4.0940	-8.438712	0.000206	2.061562	0.698476	-0.000083
1109	1.1025e+02	-4.1068	-8.525476	0.000216	2.163116	0.732884	-0.000087
1110	1.1035e+02	-4.1678	-8.607759	0.000205	2.051406	0.695035	-0.000083
1111	1.1044e+02	-4.1919	-8.681895	0.000185	1.848297	0.626220	-0.000075
1112	1.1054e+02	-4.2448	-8.769067	0.000217	2.173272	0.736324	-0.000088
1113	1.1064e+02	-4.2817	-8.846055	0.000192	1.919385	0.650305	-0.000077
1114	1.1074e+02	-4.3411	-8.928338	0.000205	2.051406	0.695035	-0.000083
1115	1.1084e+02	-4.3683	-9.012250	0.000209	2.092028	0.708798	-0.000084
1116	1.1094e+02	-4.4068	-9.094941	0.000206	2.061562	0.698476	-0.000083
1117	1.1104e+02	-4.4566	-9.173151	0.000195	1.949851	0.660628	-0.000079
1118	1.1114e+02	-4.4774	-9.259915	0.000216	2.163116	0.732884	-0.000087
1119	1.1124e+02	-4.5143	-9.342198	0.000205	2.051406	0.695035	-0.000083
1120	1.1134e+02	-4.5528	-9.419185	0.000192	1.919385	0.650305	-0.000077
1121	1.1144e+02	-4.5977	-9.500247	0.000202	2.020940	0.684713	-0.000081
1122	1.1154e+02	-4.6426	-9.581715	0.000203	2.031095	0.688154	-0.000082
1123	1.1164e+02	-4.6699	-9.663591	0.000204	2.041251	0.691594	-0.000082
1124	1.1174e+02	-4.7180	-9.740171	0.000191	1.909229	0.646864	-0.000077
1125	1.1184e+02	-4.7614	-9.818789	0.000196	1.960007	0.664068	-0.000079
1126	1.1194e+02	-4.8015	-9.903516	0.000211	2.112339	0.715680	-0.000085
1127	1.1204e+02	-4.8448	-9.980096	0.000191	1.909229	0.646864	-0.000077
1128	1.1214e+02	-4.8865	-10.063194	0.000207	2.071717	0.701917	-0.000084
1129	1.1224e+02	-4.9202	-10.144255	0.000202	2.020940	0.684713	-0.000081
1130	1.1234e+02	-4.9266	-10.226946	0.000206	2.061562	0.698476	-0.000083
1131	1.1244e+02	-5.0100	-10.308007	0.000202	2.020940	0.684713	-0.000081
1132	1.1253e+02	-5.0309	-10.385402	0.000193	1.929540	0.653746	-0.000078
1133	1.1263e+02	-5.0774	-10.466463	0.000202	2.020940	0.684713	-0.000081
1134	1.1273e+02	-5.1175	-10.543044	0.000191	1.909229	0.646864	-0.000077
1135	1.1283e+02	-5.1640	-10.619624	0.000191	1.909229	0.646864	-0.000077
1136	1.1293e+02	-5.2105	-10.696204	0.000191	1.909229	0.646864	-0.000077
1137	1.1303e+02	-5.2314	-10.770341	0.000185	1.848297	0.626220	-0.000075
1138	1.1313e+02	-5.2924	-10.845699	0.000188	1.878763	0.636542	-0.000076
1139	1.1323e+02	-5.3084	-10.923909	0.000195	1.949851	0.660628	-0.000079
1140	1.1333e+02	-5.3613	-10.995601	0.000179	1.787364	0.605575	-0.000072
1141	1.1343e+02	-5.4239	-11.072589	0.000192	1.919385	0.650305	-0.000077
1142	1.1353e+02	-5.4416	-11.144281	0.000179	1.787364	0.605575	-0.000072
1143	1.1363e+02	-5.4704	-11.222084	0.000194	1.939696	0.657187	-0.000078
1144	1.1373e+02	-5.5330	-11.296627	0.000186	1.858452	0.629661	-0.000075
1145	1.1383e+02	-5.5571	-11.378096	0.000203	2.031095	0.688154	-0.000082
1146	1.1393e+02	-5.5956	-11.448159	0.000175	1.746742	0.591812	-0.000070
1147	1.1403e+02	-5.6437	-11.528813	0.000201	2.010784	0.681272	-0.000081
1148	1.1413e+02	-5.6694	-11.598875	0.000175	1.746742	0.591812	-0.000070
1149	1.1423e+02	-5.7191	-11.675456	0.000191	1.909229	0.646864	-0.000077
1150	1.1433e+02	-5.7560	-11.748370	0.000182	1.817830	0.615898	-0.000073
1151	1.1442e+02	-5.7881	-11.822099	0.000184	1.838141	0.622779	-0.000074
1152	1.1452e+02	-5.8314	-11.896236	0.000185	1.848297	0.626220	-0.000075
1153	1.1462e+02	-5.8875	-11.969965	0.000184	1.838141	0.622779	-0.000074
1154	1.1472e+02	-5.9132	-12.041249	0.000178	1.777208	0.602134	-0.000072
1155	1.1482e+02	-5.9357	-12.121089	0.000199	1.990473	0.674391	-0.000080
1156	1.1492e+02	-6.0175	-12.196447	0.000188	1.878763	0.636542	-0.000076
1157	1.1502e+02	-6.0480	-12.278323	0.000204	2.041251	0.691594	-0.000082
1158	1.1512e+02	-6.0881	-12.358162	0.000199	1.990473	0.674391	-0.000080
1159	1.1522e+02	-6.1201	-12.430262	0.000180	1.797519	0.609016	-0.000072
1160	1.1532e+02	-6.1699	-12.512137	0.000204	2.041251	0.691594	-0.000082
1161	1.1542e+02	-6.2036	-12.586681	0.000186	1.858452	0.629661	-0.000075
1162	1.1552e+02	-6.2645	-12.672630	0.000214	2.142805	0.726002	-0.000086
1163	1.1562e+02	-6.2726	-12.747174	0.000186	1.858452	0.629661	-0.000075
1164	1.1572e+02	-6.2998	-12.824569	0.000193	1.929540	0.653746	-0.000078
1165	1.1582e+02	-6.3576	-12.900335	0.000189	1.888918	0.639983	-0.000076
1166	1.1592e+02	-6.4089	-12.983840	0.000208	2.081873	0.705358	-0.000084
1167	1.1602e+02	-6.4282	-13.052274	0.000171	1.706120	0.578049	-0.000069
1168	1.1612e+02	-6.4827	-13.128039	0.000189	1.888918	0.639983	-0.000076
1169	1.1622e+02	-6.5180	-13.205842	0.000194	1.939696	0.657187	-0.000078
1170	1.1632e+02	-6.5581	-13.284866	0.000197	1.970162	0.667509	-0.000079
1171	1.1642e+02	-6.6046	-13.363076	0.000195	1.949851	0.660628	-0.000079
1172	1.1651e+02	-6.6544	-13.442101	0.000197	1.970162	0.667509	-0.000079
1173	1.1661e+02	-6.6736	-13.521125	0.000197	1.970162	0.667509	-0.000079
1174	1.1671e+02	-6.7025	-13.596891	0.000189	1.888918	0.639983	-0.000076
1175	1.1681e+02	-6.7667	-13.677545	0.000201	2.010784	0.681272	-0.000081
1176	1.1691e+02	-6.7907	-13.756976	0.000198	1.980318	0.670950	-0.000080
1177	1.1701e+02	-6.8453	-13.829076	0.000180	1.797519	0.609016	-0.000072
1178	1.1711e+02	-6.8757	-13.912581	0.000208	2.081873	0.705358	-0.000084
1179	1.1721e+02	-6.9126	-13.989162	0.000191	1.909229	0.646864	-0.000077
1180	1.1731e+02	-6.9576	-14.068186	0.000197	1.970162	0.667509	-0.000079
1181	1.1741e+02	-6.9784	-14.145174	0.000192	1.919385	0.650305	-0.000077
1182	1.1751e+02	-7.0137	-14.218495	0.000183	1.827986	0.619338	-0.000074
1183	1.1761e+02	-7.0682	-14.306074	0.000218	2.183427	0.739765	-0.000088
1184	1.1771e+02	-7.1100	-14.380210	0.000185	1.848297	0.626220	-0.000075
1185	1.1781e+02	-7.1517	-14.454754	0.000186	1.858452	0.629661	-0.000075
1186	1.1791e+02	-7.2014	-14.532149	0.000193	1.929540	0.653746	-0.000078
1187	1.1801e+02	-7.2367	-14.614432	0.000205	2.051406	0.695035	-0.000083
1188	1.1811e+02	-7.2800	-14.695086	0.000201	2.010784	0.681272	-0.000081
1189	1.1821e+02	-7.3137	-14.772889	0.000194	1.939696	0.657187	-0.000078
1190	1.1831e+02	-7.3426	-14.842952	0.000175	1.746742	0.591812	-0.000070
1191	1.1841e+02	-7.3827	-14.924013	0.000202	2.020940	0.684713	-0.000081
1192	1.1850e+02	-7.4100	-15.005074	0.000202	2.020940	0.684713	-0.000081
1193	1.1860e+02	-7.4870	-15.088172	0.000207	2.071717	0.701917	-0.000084
1194	1.1870e+02	-7.5303	-15.163937	0.000189	1.888918	0.639983	-0.000076
1195	1.1880e+02	-7.5463	-15.237259	0.000183	1.827986	0.619338	-0.000074
1196	1.1890e+02	-7.5672	-15.316284	0.000197	1.970162	0.667509	-0.000079
1197	1.1900e+02	-7.6217	-15.400604	0.000210	2.102183	0.712239	-0.000085
1198	1.1910e+02	-7.6426	-15.472703	0.000180	1.797519	0.609016	-0.000072
1199	1.1920e+02	-7.7148	-15.549691	0.000192	1.919385	0.650305	-0.000077
1200	1.1930e+02	-7.7484	-15.626271	0.000191	1.909229	0.646864	-0.000077
1201	1.1940e+02	-7.8062	-15.710591	0.000210	2.102183	0.712239	-0.000085
1202	1.1950e+02	-7.8271	-15.781469	0.000177	1.767053	0.598694	-0.000071
1203	1.1960e+02	-7.8672	-15.859679	0.000195	1.949851	0.660628	-0.000079
1204	1.1970e+02	-7.9201	-15.935852	0.000190	1.899074	0.643424	-0.000077
1205	1.1980e+02	-7.9666	-16.018542	0.000206	2.061562	0.698476	-0.000083
1206	1.1990e+02	-7.9730	-16.098789	0.000200	2.000629	0.677831	-0.000081
1207	1.2000e+02	-8.0244	-16.175369	0.000191	1.909229	0.646864	-0.000077
1208	1.2010e+02	-8.0773	-16.250320	0.000187	1.868608	0.633101	-0.000075
1209	1.2020e+02	-8.0998	-16.324049	0.000184	1.838141	0.622779	-0.000074
1210	1.2030e+02	-8.1575	-16.403074	0.000197	1.970162	0.667509	-0.000079
1211	1.2039e+02	-8.1768	-16.480061	0.000192	1.919385	0.650305	-0.000077
1212	1.2049e+02	-8.2297	-16.556642	0.000191	1.909229	0.646864	-0.000077
1213	1.2059e+02	-8.2698	-16.628741	0.000180	1.797519	0.609016	-0.000072
1214	1.2069e+02	-8.3067	-16.706951	0.000195	1.949851	0.660628	-0.000079
1215	1.2079e+02	-8.3516	-16.783531	0.000191	1.909229	0.646864	-0.000077
1216	1.2089e+02	-8.3917	-16.864593	0.000202	2.020940	0.684713	-0.000081
1217	1.2099e+02	-8.4399	-16.937914	0.000183	1.827986	0.619338	-0.000074
1218	1.2109e+02	-8.4591	-17.019790	0.000204	2.041251	0.691594	-0.000082
1219	1.2119e+02	-8.4864	-17.096371	0.000191	1.909229	0.646864	-0.000077
1220	1.2129e+02	-8.5570	-17.177839	0.000203	2.031095	0.688154	-0.000082
1221	1.2139e+02	-8.5939	-17.251975	0.000185	1.848297	0.626220	-0.000075
1222	1.2149e+02	-8.6244	-17.339147	0.000217	2.173272	0.736324	-0.000088
1223	1.2159e+02	-8.6677	-17.418579	0.000198	1.980318	0.670950	-0.000080
1224	1.2169e+02	-8.6885	-17.498010	0.000198	1.980318	0.670950	-0.000080
1225	1.2179e+02	-8.7254	-17.575813	0.000194	1.939696	0.657187	-0.000078
1226	1.2189e+02	-8.7639	-17.651578	0.000189	1.888918	0.639983	-0.000076
1227	1.2199e+02	-8.8153	-17.731418	0.000199	1.990473	0.674391	-0.000080
1228	1.2209e+02	-8.8634	-17.815738	0.000210	2.102183	0.712239	-0.000085
1229	1.2219e+02	-8.9051	-17.887837	0.000180	1.797519	0.609016	-0.000072
1230	1.2229e+02	-8.9500	-17.970528	0.000206	2.061562	0.698476	-0.000083
1231	1.2239e+02	-8.9773	-18.051996	0.000203	2.031095	0.688154	-0.000082
1232	1.2248e+02	-9.0495	-18.133465	0.000203	2.031095	0.688154	-0.000082
1233	1.2258e+02	-9.0543	-18.208416	0.000187	1.868608	0.633101	-0.000075
1234	1.2268e+02	-9.1153	-18.289070	0.000201	2.010784	0.681272	-0.000081
1235	1.2278e+02	-9.1441	-18.370538	0.000203	2.031095	0.688154	-0.000082
1236	1.2288e+02	-9.2003	-18.448748	0.000195	1.949851	0.660628	-0.000079
1237	1.2298e+02	-9.2452	-18.528180	0.000198	1.980318	0.670950	-0.000080
1238	1.2308e+02	-9.2644	-18.605982	0.000194	1.939696	0.657187	-0.000078
1239	1.2318e+02	-9.2949	-18.680933	0.000187	1.868608	0.633101	-0.000075
1240	1.2328e+02	-9.3591	-18.758736	0.000194	1.939696	0.657187	-0.000078
1241	1.2338e+02	-9.3880	-18.832057	0.000183	1.827986	0.619338	-0.000074
1242	1.2348e+02	-9.4217	-18.904157	0.000180	1.797519	0.609016	-0.000072
1243	1.2358e+02	-9.4666	-18.978293	0.000185	1.848297	0.626220	-0.000075
1244	1.2368e+02	-9.5179	-19.051615	0.000183	1.827986	0.619338	-0.000074
1245	1.2378e+02	-9.5580	-19.128603	0.000192	1.919385	0.650305	-0.000077
1246	1.2388e+02	-9.5805	-19.198665	0.000175	1.746742	0.591812	-0.000070
1247	1.2398e+02	-9.6334	-19.267914	0.000173	1.726431	0.584931	-0.000070
1248	1.2408e+02	-9.6463	-19.345716	0.000194	1.939696	0.657187	-0.000078
1249	1.2418e+02	-9.7104	-19.420260	0.000186	1.858452	0.629661	-0.000075
1250	1.2428e+02	-9.7233	-19.491952	0.000179	1.787364	0.605575	-0.000072
1251	1.2438e+02	-9.7858	-19.564052	0.000180	1.797519	0.609016	-0.000072
1252	1.2447e+02	-9.8115	-19.638188	0.000185	1.848297	0.626220	-0.000075
1253	1.2457e+02	-9.8741	-19.711917	0.000184	1.838141	0.622779	-0.000074
1254	1.2467e+02	-9.8981	-19.777499	0.000164	1.635032	0.553964	-0.000066
1255	1.2477e+02	-9.9478	-19.853265	0.000189	1.888918	0.639983	-0.000076
1256	1.2487e+02	-9.9896	-19.922513	0.000173	1.726431	0.584931	-0.000070
1257	1.2497e+02	-10.0281	-19.997872	0.000188	1.878763	0.636542	-0.000076
1258	1.2507e+02	-10.0794	-20.071601	0.000184	1.838141	0.622779	-0.000074
1259	1.2517e+02	-10.0938	-20.148588	0.000192	1.919385	0.650305	-0.000077
1260	1.2527e+02	-10.1500	-20.219466	0.000177	1.767053	0.598694	-0.000071
1261	1.2537e+02	-10.1789	-20.287492	0.000170	1.695964	0.574608	-0.000068
1262	1.2547e+02	-10.2142	-20.359592	0.000180	1.797519	0.609016	-0.000072
1263	1.2557e+02	-10.2591	-20.430062	0.000176	1.756897	0.595253	-0.000071
1264	1.2567e+02	-10.3152	-20.505013	0.000187	1.868608	0.633101	-0.000075
1265	1.2577e+02	-10.3425	-20.570188	0.000162	1.624876	0.550523	-0.000066
1266	1.2587e+02	-10.3842	-20.641473	0.000178	1.777208	0.602134	-0.000072
1267	1.2597e+02	-10.4355	-20.711128	0.000174	1.736586	0.588371	-0.000070
1268	1.2607e+02	-10.4596	-20.785672	0.000186	1.858452	0.629661	-0.000075
1269	1.2617e+02	-10.5093	-20.855735	0.000175	1.746742	0.591812	-0.000070
1270	1.2627e+02	-10.5510	-20.925391	0.000174	1.736586	0.588371	-0.000070
1271	1.2636e+02	-10.5847	-20.994231	0.000172	1.716275	0.581490	-0.000069
1272	1.2646e+02	-10.6152	-21.071219	0.000192	1.919385	0.650305	-0.000077
1273	1.2656e+02	-10.6521	-21.135987	0.000161	1.614721	0.547082	-0.000065
1274	1.2666e+02	-10.6794	-21.207679	0.000179	1.787364	0.605575	-0.000072
1275	1.2676e+02	-10.7468	-21.272446	0.000161	1.614721	0.547082	-0.000065
1276	1.2686e+02	-10.7468	-21.345361	0.000182	1.817830	0.615898	-0.000073
1277	1.2696e+02	-10.8157	-21.417460	0.000180	1.797519	0.609016	-0.000072
1278	1.2706e+02	-10.8863	-21.481006	0.000158	1.584254	0.536760	-0.000064
1279	1.2716e+02	-10.9184	-21.547810	0.000167	1.665498	0.564286	-0.000067
1280	1.2726e+02	-10.9425	-21.621946	0.000185	1.848297	0.626220	-0.000075
1281	1.2736e+02	-10.9633	-21.689973	0.000170	1.695964	0.574608	-0.000068
1282	1.2746e+02	-11.0066	-21.760850	0.000177	1.767053	0.598694	-0.000071
1283	1.2756e+02	-11.0516	-21.824396	0.000158	1.584254	0.536760	-0.000064
1284	1.2766e+02	-11.0756	-21.898532	0.000185	1.848297	0.626220	-0.000075
1285	1.2776e+02	-11.1238	-21.966151	0.000169	1.685809	0.571168	-0.000068
1286	1.2786e+02	-11.1815	-22.035399	0.000173	1.726431	0.584931	-0.000070
1287	1.2796e+02	-11.2056	-22.102203	0.000167	1.665498	0.564286	-0.000067
1288	1.2806e+02	-11.2377	-22.173488	0.000178	1.777208	0.602134	-0.000072
1289	1.2816e+02	-11.2970	-22.245588	0.000180	1.797519	0.609016	-0.000072
1290	1.2826e+02	-11.3195	-22.309541	0.000159	1.594410	0.540201	-0.000064
1291	1.2835e+02	-11.3981	-22.373493	0.000159	1.594410	0.540201	-0.000064
1292	1.2845e+02	-11.4093	-22.445593	0.000180	1.797519	0.609016	-0.000072
1293	1.2855e+02	-11.4655	-22.514434	0.000172	1.716275	0.581490	-0.000069
1294	1.2865e+02	-11.5040	-22.580423	0.000165	1.645187	0.557404	-0.000066
1295	1.2875e+02	-11.5457	-22.652523	0.000180	1.797519	0.609016	-0.000072
1296	1.2885e+02	-11.5810	-22.720142	0.000169	1.685809	0.571168	-0.000068
1297	1.2895e+02	-11.6018	-22.784502	0.000160	1.604565	0.543641	-0.000065
1298	1.2905e+02	-11.6419	-22.854565	0.000175	1.746742	0.591812	-0.000070
1299	1.2915e+02	-11.7141	-22.926664	0.000180	1.797519	0.609016	-0.000072
1300	1.2925e+02	-11.7478	-22.986951	0.000150	1.503010	0.509234	-0.000061
1301	1.2935e+02	-11.7735	-23.060680	0.000184	1.838141	0.622779	-0.000074
1302	1.2945e+02	-11.8055	-23.123818	0.000157	1.574099	0.533319	-0.000063
1303	1.2955e+02	-11.8553	-23.189400	0.000164	1.635032	0.553964	-0.000066
1304	1.2965e+02	-11.8681	-23.254983	0.000164	1.635032	0.553964	-0.000066
1305	1.2975e+02	-11.9259	-23.323823	0.000172	1.716275	0.581490	-0.000069
1306	1.2985e+02	-11.9788	-23.379629	0.000139	1.391300	0.471385	-0.000056
1307	1.2995e+02	-12.0221	-23.443582	0.000159	1.594410	0.540201	-0.000064
1308	1.3005e+02	-12.0606	-23.513645	0.000175	1.746742	0.591812	-0.000070
1309	1.3015e+02	-12.0911	-23.576376	0.000156	1.563943	0.529878	-0.000063
1310	1.3025e+02	-12.1071	-23.637477	0.000152	1.523321	0.516115	-0.000061
1311	1.3034e+02	-12.1793	-23.698171	0.000151	1.513166	0.512674	-0.000061
1312	1.3044e+02	-12.2291	-23.773937	0.000189	1.888918	0.639983	-0.000076
1313	1.3054e+02	-12.2644	-23.833816	0.000149	1.492855	0.505793	-0.000060
1314	1.3064e+02	-12.2644	-23.895325	0.000153	1.533477	0.519556	-0.000062
1315	1.3074e+02	-12.3301	-23.956426	0.000152	1.523321	0.516115	-0.000061
1316	1.3084e+02	-12.3542	-24.021601	0.000162	1.624876	0.550523	-0.000066
1317	1.3094e+02	-12.4071	-24.083110	0.000153	1.533477	0.519556	-0.000062
1318	1.3104e+02	-12.4039	-24.147877	-0.000161	-1.614721	-0.547082	-0.000065
1319	1.3114e+02	-12.4809	-24.205720	0.000144	1.442078	0.488589	-0.000058
1320	1.3124e+02	-12.5419	-24.272117	0.000166	1.655343	0.560845	-0.000067
1321	1.3134e+02	-12.5611	-24.335255	0.000157	1.574099	0.533319	-0.000063
1322	1.3144e+02	-12.6349	-24.400837	0.000164	1.635032	0.553964	-0.000066
1323	1.3154e+02	-12.6414	-24.467234	0.000166	1.655343	0.560845	-0.000067
1324	1.3164e+02	-12.6734	-24.535260	0.000170	1.695964	0.574608	-0.000068
1325	1.3174e+02	-12.7232	-24.601250	0.000165	1.645187	0.557404	-0.000066
1326	1.3184e+02	-12.7649	-24.669276	0.000170	1.695964	0.574608	-0.000068
1327	1.3194e+02	-12.8050	-24.731192	0.000154	1.543632	0.522997	-0.000062
1328	1.3204e+02	-12.8676	-24.804921	0.000184	1.838141	0.622779	-0.000074
1329	1.3214e+02	-12.8788	-24.864800	0.000149	1.492855	0.505793	-0.000060
1330	1.3224e+02	-12.9462	-24.929568	0.000161	1.614721	0.547082	-0.000065
1331	1.3234e+02	-12.9750	-24.999631	0.000175	1.746742	0.591812	-0.000070
1332	1.3243e+02	-12.9959	-25.071323	0.000179	1.787364	0.605575	-0.000072
1333	1.3253e+02	-13.0360	-25.136090	0.000161	1.614721	0.547082	-0.000065
1334	1.3263e+02	-13.0905	-25.205746	0.000174	1.736586	0.588371	-0.000070
1335	1.3273e+02	-13.1114	-25.270514	0.000161	1.614721	0.547082	-0.000065
1336	1.3283e+02	-13.1788	-25.336096	0.000164	1.635032	0.553964	-0.000066
1337	1.3293e+02	-13.2333	-25.402085	0.000165	1.645187	0.557404	-0.000066
1338	1.3303e+02	-13.2494	-25.473777	0.000179	1.787364	0.605575	-0.000072
1339	1.3313e+02	-13.2766	-25.543840	0.000175	1.746742	0.591812	-0.000070
1340	1.3323e+02	-13.3215	-25.608608	0.000161	1.614721	0.547082	-0.000065
1341	1.3333e+02	-13.3601	-25.673375	0.000161	1.614721	0.547082	-0.000065
1342	1.3343e+02	-13.4146	-25.744660	0.000178	1.777208	0.602134	-0.000072
1343	1.3353e+02	-13.4258	-25.812279	0.000169	1.685809	0.571168	-0.000068
1344	1.3363e+02	-13.4836	-25.875010	0.000156	1.563943	0.529878	-0.000063
1345	1.3373e+02	-13.5445	-25.943851	0.000172	1.716275	0.581490	-0.000069
1346	1.3383e+02	-13.5734	-26.011877	0.000170	1.695964	0.574608	-0.000068
1347	1.3393e+02	-13.6199	-26.078681	0.000167	1.665498	0.564286	-0.000067
1348	1.3403e+02	-13.6440	-26.149151	0.000176	1.756897	0.595253	-0.000071
1349	1.3413e+02	-13.6761	-26.217992	0.000172	1.716275	0.581490	-0.000069
1350	1.3423e+02	-13.7242	-26.285204	0.000168	1.675653	0.567727	-0.000068
1351	1.3432e+02	-13.7788	-26.348342	0.000157	1.574099	0.533319	-0.000063
1352	1.3442e+02	-13.8044	-26.417183	0.000172	1.716275	0.581490	-0.000069
1353	1.3452e+02	-13.8558	-26.486838	0.000174	1.736586	0.588371	-0.000070
1354	1.3462e+02	-13.8927	-26.556901	0.000175	1.746742	0.591812	-0.000070
1355	1.3472e+02	-13.9247	-26.620039	0.000157	1.574099	0.533319	-0.000063
1356	1.3482e+02	-13.9681	-26.684807	0.000161	1.614721	0.547082	-0.000065
1357	1.3492e+02	-14.0017	-26.755277	0.000176	1.756897	0.595253	-0.000071
1358	1.3502e+02	-14.0467	-26.825340	0.000175	1.746742	0.591812	-0.000070
1359	1.3512e+02	-14.0771	-26.893774	0.000171	1.706120	0.578049	-0.000069
1360	1.3522e+02	-14.1269	-26.960985	0.000168	1.675653	0.567727	-0.000068
1361	1.3532e+02	-14.1702	-27.031863	0.000177	1.767053	0.598694	-0.000071
1362	1.3542e+02	-14.2055	-27.100704	0.000172	1.716275	0.581490	-0.000069
1363	1.3552e+02	-14.2392	-27.163434	0.000156	1.563943	0.529878	-0.000063
1364	1.3562e+02	-14.2873	-27.235534	0.000180	1.797519	0.609016	-0.000072
1365	1.3572e+02	-14.3226	-27.302338	0.000167	1.665498	0.564286	-0.000067
1366	1.3582e+02	-14.3691	-27.371586	0.000173	1.726431	0.584931	-0.000070
1367	1.3592e+02	-14.4028	-27.436761	0.000162	1.624876	0.550523	-0.000066
1368	1.3602e+02	-14.4477	-27.507639	0.000177	1.767053	0.598694	-0.000071
1369	1.3612e+02	-14.4814	-27.571999	0.000160	1.604565	0.543641	-0.000065
1370	1.3622e+02	-14.5279	-27.642062	0.000175	1.746742	0.591812	-0.000070
1371	1.3631e+02	-14.5793	-27.704385	0.000155	1.553788	0.526438	-0.000063
1372	1.3641e+02	-14.6049	-27.770375	0.000165	1.645187	0.557404	-0.000066
1373	1.3651e+02	-14.6402	-27.841660	0.000178	1.777208	0.602134	-0.000072
1374	1.3661e+02	-14.7092	-27.908057	0.000166	1.655343	0.560845	-0.000067
1375	1.3671e+02	-14.7285	-27.976083	0.000170	1.695964	0.574608	-0.000068
1376	1.3681e+02	-14.7461	-28.042480	0.000166	1.655343	0.560845	-0.000067
1377	1.3691e+02	-14.7910	-28.112543	0.000175	1.746742	0.591812	-0.000070
1378	1.3701e+02	-14.8359	-28.176088	0.000158	1.584254	0.536760	-0.000064
1379	1.3711e+02	-14.8728	-28.242892	0.000167	1.665498	0.564286	-0.000067
1380	1.3721e+02	-14.9242	-28.312955	0.000175	1.746742	0.591812	-0.000070
1381	1.3731e+02	-14.9482	-28.380574	0.000169	1.685809	0.571168	-0.000068
1382	1.3741e+02	-15.0012	-28.444527	0.000159	1.594410	0.540201	-0.000064
1383	1.3751e+02	-15.0365	-28.511738	0.000168	1.675653	0.567727	-0.000068
1384	1.3761e+02	-15.0926	-28.574876	0.000157	1.574099	0.533319	-0.000063
1385	1.3771e+02	-15.1151	-28.646976	0.000180	1.797519	0.609016	-0.000072
1386	1.3781e+02	-15.1504	-28.711743	0.000161	1.614721	0.547082	-0.000065
1387	1.3791e+02	-15.2178	-28.782621	0.000177	1.767053	0.598694	-0.000071
1388	1.3801e+02	-15.2370	-28.851869	0.000173	1.726431	0.584931	-0.000070
1389	1.3811e+02	-15.2835	-28.921932	0.000175	1.746742	0.591812	-0.000070
1390	1.3821e+02	-15.3156	-28.994032	0.000180	1.797519	0.609016	-0.000072
1391	1.3831e+02	-15.3702	-29.064909	0.000177	1.767053	0.598694	-0.000071
1392	1.3840e+02	-15.4167	-29.135380	0.000176	1.756897	0.595253	-0.000071
1393	1.3850e+02	-15.4343	-29.204628	0.000173	1.726431	0.584931	-0.000070
1394	1.3860e+02	-15.4712	-29.275098	0.000176	1.756897	0.595253	-0.000071
1395	1.3870e+02	-15.5274	-29.344346	0.000173	1.726431	0.584931	-0.000070
1396	1.3880e+02	-15.5595	-29.415224	0.000177	1.767053	0.598694	-0.000071
1397	1.3890e+02	-15.5867	-29.482436	0.000168	1.675653	0.567727	-0.000068
1398	1.3900e+02	-15.6397	-29.551276	0.000172	1.716275	0.581490	-0.000069
1399	1.3910e+02	-15.6766	-29.624598	0.000183	1.827986	0.619338	-0.000074
1400	1.3920e+02	-15.7151	-29.695068	0.000176	1.756897	0.595253	-0.000071
1401	1.3930e+02	-15.7391	-29.761465	0.000166	1.655343	0.560845	-0.000067
1402	1.3940e+02	-15.8097	-29.834379	0.000182	1.817830	0.615898	-0.000073
1403	1.3950e+02	-15.8562	-29.901591	0.000168	1.675653	0.567727	-0.000068
1404	1.3960e+02	-15.8386	-29.971247	-0.000174	-1.736586	-0.588371	-0.000070
1405	1.3970e+02	-15.9156	-30.042532	0.000178	1.777208	0.602134	-0.000072
1406	1.3980e+02	-15.9637	-30.106484	0.000159	1.594410	0.540201	-0.000064
1407	1.3990e+02	-16.0070	-30.170437	0.000159	1.594410	0.540201	-0.000064
1408	1.4000e+02	-16.0231	-30.240907	0.000176	1.756897	0.595253	-0.000071
1409	1.4010e+02	-16.0776	-30.308934	0.000170	1.695964	0.574608	-0.000068
1410	1.4020e+02	-16.1081	-30.366369	0.000143	1.431922	0.485148	-0.000058
1411	1.4029e+02	-16.1642	-30.436839	0.000176	1.756897	0.595253	-0.000071
1412	1.4039e+02	-16.2011	-30.501199	0.000160	1.604565	0.543641	-0.000065
1413	1.4049e+02	-16.2332	-30.565967	0.000161	1.614721	0.547082	-0.000065
1414	1.4059e+02	-16.3215	-30.630734	0.000161	1.614721	0.547082	-0.000065
1415	1.4069e+02	-16.3359	-30.695502	0.000161	1.614721	0.547082	-0.000065
1416	1.4079e+02	-16.3295	-30.758640	-0.000157	-1.574099	-0.533319	-0.000063
1417	1.4089e+02	-16.3808	-30.818519	0.000149	1.492855	0.505793	-0.000060
1418	1.4099e+02	-16.4225	-30.886953	0.000171	1.706120	0.578049	-0.000069
1419	1.4109e+02	-16.4546	-30.952535	0.000164	1.635032	0.553964	-0.000066
1420	1.4119e+02	-16.5060	-31.014858	0.000155	1.553788	0.526438	-0.000063
1421	1.4129e+02	-16.5236	-31.076774	0.000154	1.543632	0.522997	-0.000062
1422	1.4139e+02	-16.6022	-31.138283	0.000153	1.533477	0.519556	-0.000062
1423	1.4149e+02	-16.6471	-31.203865	0.000164	1.635032	0.553964	-0.000066
1424	1.4159e+02	-16.6648	-31.267003	0.000157	1.574099	0.533319	-0.000063
1425	1.4169e+02	-16.7193	-31.329327	0.000155	1.553788	0.526438	-0.000063
1426	1.4179e+02	-16.7450	-31.395316	0.000165	1.645187	0.557404	-0.000066
1427	1.4189e+02	-16.7963	-31.458454	0.000157	1.574099	0.533319	-0.000063
1428	1.4199e+02	-16.8284	-31.521185	0.000156	1.563943	0.529878	-0.000063
1429	1.4209e+02	-16.8605	-31.585952	0.000161	1.614721	0.547082	-0.000065
1430	1.4219e+02	-16.9327	-31.647054	0.000152	1.523321	0.516115	-0.000061
1431	1.4228e+02	-16.9295	-31.710192	-0.000157	-1.574099	-0.533319	-0.000063
1432	1.4238e+02	-16.9936	-31.770071	0.000149	1.492855	0.505793	-0.000060
1433	1.4248e+02	-17.0113	-31.832395	0.000155	1.553788	0.526438	-0.000063
1434	1.4258e+02	-17.0610	-31.898384	0.000165	1.645187	0.557404	-0.000066
1435	1.4268e+02	-17.1156	-31.958671	0.000150	1.503010	0.509234	-0.000061
1436	1.4278e+02	-17.1444	-32.028326	0.000174	1.736586	0.588371	-0.000070
1437	1.4288e+02	-17.2038	-32.084132	0.000139	1.391300	0.471385	-0.000056
1438	1.4298e+02	-17.2214	-32.146863	0.000156	1.563943	0.529878	-0.000063
1439	1.4308e+02	-17.2599	-32.210001	0.000157	1.574099	0.533319	-0.000063
1440	1.4318e+02	-17.3209	-32.271510	0.000153	1.533477	0.519556	-0.000062
1441	1.4328e+02	-17.3642	-32.331797	0.000150	1.503010	0.509234	-0.000061
1442	1.4338e+02	-17.4011	-32.392898	0.000152	1.523321	0.516115	-0.000061
1443	1.4348e+02	-17.4236	-32.456443	0.000158	1.584254	0.536760	-0.000064
1444	1.4358e+02	-17.4942	-32.513879	0.000143	1.431922	0.485148	-0.000058
1445	1.4368e+02	-17.5134	-32.576610	0.000156	1.563943	0.529878	-0.000063
1446	1.4378e+02	-17.5583	-32.638118	0.000153	1.533477	0.519556	-0.000062
1447	1.4388e+02	-17.5904	-32.696776	0.000146	1.462388	0.495471	-0.000059
1448	1.4398e+02	-17.6369	-32.759914	0.000157	1.574099	0.533319	-0.000063
1449	1.4408e+02	-17.6995	-32.828755	0.000172	1.716275	0.581490	-0.000069
1450	1.4418e+02	-17.7123	-32.883338	0.000136	1.360834	0.461063	-0.000055
1451	1.4428e+02	-17.7252	-32.946069	0.000156	1.563943	0.529878	-0.000063
1452	1.4437e+02	-17.8038	-33.008800	0.000156	1.563943	0.529878	-0.000063
1453	1.4447e+02	-17.8407	-33.071531	0.000156	1.563943	0.529878	-0.000063
1454	1.4457e+02	-17.8439	-33.128966	0.000143	1.431922	0.485148	-0.000058
1455	1.4467e+02	-17.9145	-33.189660	0.000151	1.513166	0.512674	-0.000061
1456	1.4477e+02	-17.9530	-33.256464	0.000167	1.665498	0.564286	-0.000067
1457	1.4487e+02	-17.9738	-33.316751	0.000150	1.503010	0.509234	-0.000061
1458	1.4497e+02	-18.0637	-33.374594	0.000144	1.442078	0.488589	-0.000058
1459	1.4507e+02	-18.0845	-33.439361	0.000161	1.614721	0.547082	-0.000065
1460	1.4517e+02	-18.1038	-33.502907	0.000158	1.584254	0.536760	-0.000064
1461	1.4527e+02	-18.1583	-33.560342	0.000143	1.431922	0.485148	-0.000058
1462	1.4537e+02	-18.2064	-33.626331	0.000165	1.645187	0.557404	-0.000066
1463	1.4547e+02	-18.2257	-33.687433	0.000152	1.523321	0.516115	-0.000061
1464	1.4557e+02	-18.2770	-33.752200	0.000161	1.614721	0.547082	-0.000065
1465	1.4567e+02	-18.3284	-33.809228	0.000142	1.421767	0.481708	-0.000057
1466	1.4577e+02	-18.3508	-33.875218	0.000165	1.645187	0.557404	-0.000066
1467	1.4587e+02	-18.4022	-33.933060	0.000144	1.442078	0.488589	-0.000058
1468	1.4597e+02	-18.4294	-33.998642	0.000164	1.635032	0.553964	-0.000066
1469	1.4607e+02	-18.4455	-34.058522	0.000149	1.492855	0.505793	-0.000060
1470	1.4617e+02	-18.5032	-34.117586	0.000147	1.472544	0.498911	-0.000059
1471	1.4626e+02	-18.5513	-34.177058	0.000148	1.482699	0.502352	-0.000060
1472	1.4636e+02	-18.5931	-34.234494	0.000143	1.431922	0.485148	-0.000058
1473	1.4646e+02	-18.6235	-34.291522	0.000142	1.421767	0.481708	-0.000057
1474	1.4656e+02	-18.6685	-34.353438	0.000154	1.543632	0.522997	-0.000062
1475	1.4666e+02	-18.6941	-34.406800	0.000133	1.330367	0.450741	-0.000054
1476	1.4676e+02	-18.7423	-34.466272	0.000148	1.482699	0.502352	-0.000060
1477	1.4686e+02	-18.7840	-34.520856	0.000136	1.360834	0.461063	-0.000055
1478	1.4696e+02	-18.7952	-34.579920	0.000147	1.472544	0.498911	-0.000059
1479	1.4706e+02	-18.8754	-34.643873	0.000159	1.594410	0.540201	-0.000064
1480	1.4716e+02	-18.9091	-34.708640	0.000161	1.614721	0.547082	-0.000065
1481	1.4726e+02	-18.9428	-34.759151	0.000126	1.259279	0.426655	-0.000051
1482	1.4736e+02	-18.9877	-34.822696	0.000158	1.584254	0.536760	-0.000064
1483	1.4746e+02	-19.0294	-34.878095	0.000138	1.381145	0.467944	-0.000056
1484	1.4756e+02	-19.0567	-34.938382	0.000150	1.503010	0.509234	-0.000061
1485	1.4766e+02	-19.1096	-34.990929	0.000131	1.310056	0.443859	-0.000053
1486	1.4776e+02	-19.1497	-35.053252	0.000155	1.553788	0.526438	-0.000063
1487	1.4786e+02	-19.1850	-35.116798	0.000158	1.584254	0.536760	-0.000064
1488	1.4796e+02	-19.2251	-35.174233	0.000143	1.431922	0.485148	-0.000058
1489	1.4806e+02	-19.2620	-35.235334	0.000152	1.523321	0.516115	-0.000061
1490	1.4816e+02	-19.3102	-35.291955	0.000141	1.411611	0.478267	-0.000057
1491	1.4825e+02	-19.3487	-35.355500	0.000158	1.584254	0.536760	-0.000064
1492	1.4835e+02	-19.3952	-35.416194	0.000151	1.513166	0.512674	-0.000061
1493	1.4845e+02	-19.4224	-35.482591	0.000166	1.655343	0.560845	-0.000067
1494	1.4855e+02	-19.4497	-35.540434	0.000144	1.442078	0.488589	-0.000058
1495	1.4865e+02	-19.5171	-35.603165	0.000156	1.563943	0.529878	-0.000063
1496	1.4875e+02	-19.5219	-35.672006	0.000172	1.716275	0.581490	-0.000069
1497	1.4885e+02	-19.5909	-35.740032	0.000170	1.695964	0.574608	-0.000068
1498	1.4895e+02	-19.6326	-35.800318	0.000150	1.503010	0.509234	-0.000061
1499	1.4905e+02	-19.6342	-35.867123	0.000167	1.665498	0.564286	-0.000067
1500	1.4915e+02	-19.7048	-35.932705	0.000164	1.635032	0.553964	-0.000066
1501	1.4925e+02	-19.7433	-35.997880	0.000162	1.624876	0.550523	-0.000066
1502	1.4935e+02	-19.7754	-36.065498	0.000169	1.685809	0.571168	-0.000068
1503	1.4945e+02	-19.8139	-36.128637	0.000157	1.574099	0.533319	-0.000063
1504	1.4955e+02	-19.8379	-36.194219	0.000164	1.635032	0.553964	-0.000066
1505	1.4965e+02	-19.8813	-36.259801	0.000164	1.635032	0.553964	-0.000066
1506	1.4975e+02	-19.9422	-36.327420	0.000169	1.685809	0.571168	-0.000068
1507	1.4985e+02	-19.9775	-36.388521	0.000152	1.523321	0.516115	-0.000061
1508	1.4995e+02	-19.9470	-36.353897	0.000086	0.863215	0.292465	0.000035
1509	1.5005e+02	-19.8925	-36.318458	0.000088	0.883526	0.299347	0.000036
1510	1.5015e+02	-19.8572	-36.280575	0.000094	0.944459	0.319991	0.000038
1511	1.5025e+02	-19.8187	-36.241470	0.000097	0.974926	0.330314	0.000039
1512	1.5034e+02	-19.7577	-36.198292	0.000108	1.076480	0.364721	0.000043
1513	1.5044e+02	-19.7449	-36.156743	0.000104	1.035859	0.350958	0.000042
1514	1.5054e+02	-19.7128	-36.118046	0.000096	0.964770	0.326873	0.000039
1515	1.5064e+02	-19.6631	-36.073238	0.000112	1.117102	0.378485	0.000045
1516	1.5074e+02	-19.6262	-36.038614	0.000086	0.863215	0.292465	0.000035
1517	1.5084e+02	-19.5813	-35.997065	0.000104	1.035859	0.350958	0.000042
1518	1.5094e+02	-19.5267	-35.952665	0.000111	1.106947	0.375044	0.000045
1519	1.5104e+02	-19.4978	-35.911116	0.000104	1.035859	0.350958	0.000042
1520	1.5114e+02	-19.4337	-35.866308	0.000112	1.117102	0.378485	0.000045
1521	1.5124e+02	-19.4305	-35.823130	0.000108	1.076480	0.364721	0.000043
1522	1.5134e+02	-19.4048	-35.777100	0.000115	1.147569	0.388807	0.000046
1523	1.5144e+02	-19.3503	-35.735551	0.000104	1.035859	0.350958	0.000042
1524	1.5154e+02	-19.3053	-35.696446	0.000097	0.974926	0.330314	0.000039
1525	1.5164e+02	-19.2716	-35.654490	0.000105	1.046014	0.354399	0.000042
1526	1.5174e+02	-19.2348	-35.611312	0.000108	1.076480	0.364721	0.000043
1527	1.5184e+02	-19.1433	-35.569763	0.000104	1.035859	0.350958	0.000042
1528	1.5194e+02	-19.1096	-35.519252	0.000126	1.259279	0.426655	0.000051
1529	1.5204e+02	-19.0936	-35.474037	0.000113	1.127258	0.381925	0.000045
1530	1.5214e+02	-19.0711	-35.437376	0.000091	0.913993	0.309669	0.000037
1531	1.5224e+02	-19.0326	-35.390125	0.000118	1.178035	0.399129	0.000047
1532	1.5233e+02	-18.9749	-35.342873	0.000118	1.178035	0.399129	0.000047
1533	1.5243e+02	-18.9364	-35.295621	0.000118	1.178035	0.399129	0.000047
1534	1.5253e+02	-18.9171	-35.249184	0.000116	1.157724	0.392248	0.000047
1535	1.5263e+02	-18.8465	-35.203562	0.000114	1.137413	0.385366	0.000046
1536	1.5273e+02	-18.8305	-35.155495	0.000120	1.198346	0.406011	0.000048
1537	1.5283e+02	-18.7808	-35.108651	0.000117	1.167880	0.395688	0.000047
1538	1.5293e+02	-18.7406	-35.063843	0.000112	1.117102	0.378485	0.000045
1539	1.5303e+02	-18.7182	-35.017813	0.000115	1.147569	0.388807	0.000046
1540	1.5313e+02	-18.6685	-34.971376	0.000116	1.157724	0.392248	0.000047
1541	1.5323e+02	-18.6460	-34.923717	0.000119	1.188191	0.402570	0.000048
1542	1.5333e+02	-18.5722	-34.880539	0.000108	1.076480	0.364721	0.000043
1543	1.5343e+02	-18.5690	-34.835324	0.000113	1.127258	0.381925	0.000045
1544	1.5353e+02	-18.4984	-34.786850	0.000121	1.208502	0.409451	0.000049
1545	1.5363e+02	-18.4759	-34.732674	0.000135	1.350678	0.457622	0.000054
1546	1.5373e+02	-18.4503	-34.687459	0.000113	1.127258	0.381925	0.000045
1547	1.5383e+02	-18.3717	-34.638985	0.000121	1.208502	0.409451	0.000049
1548	1.5393e+02	-18.3364	-34.594992	0.000110	1.096791	0.371603	0.000044
1549	1.5403e+02	-18.3428	-34.541223	-0.000134	-1.340523	-0.454181	0.000054
1550	1.5413e+02	-18.2626	-34.493564	0.000119	1.188191	0.402570	0.000048
1551	1.5422e+02	-18.2401	-34.445905	0.000119	1.188191	0.402570	0.000048
1552	1.5432e+02	-18.1856	-34.400689	0.000113	1.127258	0.381925	0.000045
1553	1.5442e+02	-18.1551	-34.352623	0.000120	1.198346	0.406011	0.000048
1554	1.5452e+02	-18.1054	-34.302520	0.000125	1.249124	0.423215	0.000050
1555	1.5462e+02	-18.0765	-34.254861	0.000119	1.188191	0.402570	0.000048
1556	1.5472e+02	-18.0524	-34.206794	0.000120	1.198346	0.406011	0.000048
1557	1.5482e+02	-18.0075	-34.170541	0.000090	0.903837	0.306228	0.000036
1558	1.5492e+02	-17.9546	-34.119216	0.000128	1.279590	0.433537	0.000052
1559	1.5502e+02	-17.9113	-34.076037	0.000108	1.076480	0.364721	0.000043
1560	1.5512e+02	-17.8631	-34.033674	0.000106	1.056169	0.357840	0.000043
1561	1.5522e+02	-17.8343	-33.988866	0.000112	1.117102	0.378485	0.000045
1562	1.5532e+02	-17.7974	-33.940392	0.000121	1.208502	0.409451	0.000049
1563	1.5542e+02	-17.7476	-33.894363	0.000115	1.147569	0.388807	0.000046
1564	1.5552e+02	-17.6995	-33.843038	0.000128	1.279590	0.433537	0.000052
1565	1.5562e+02	-17.6835	-33.797008	0.000115	1.147569	0.388807	0.000046
1566	1.5572e+02	-17.6289	-33.750571	0.000116	1.157724	0.392248	0.000047
1567	1.5582e+02	-17.5936	-33.705356	0.000113	1.127258	0.381925	0.000045
1568	1.5592e+02	-17.5487	-33.661770	0.000109	1.086636	0.368162	0.000044
1569	1.5602e+02	-17.5198	-33.610852	0.000127	1.269434	0.430096	0.000051
1570	1.5612e+02	-17.4733	-33.564415	0.000116	1.157724	0.392248	0.000047
1571	1.5622e+02	-17.4027	-33.517163	0.000118	1.178035	0.399129	0.000047
1572	1.5631e+02	-17.3899	-33.469912	0.000118	1.178035	0.399129	0.000047
1573	1.5641e+02	-17.3434	-33.421031	0.000122	1.218657	0.412892	0.000049
1574	1.5651e+02	-17.3017	-33.373372	0.000119	1.188191	0.402570	0.000048
1575	1.5661e+02	-17.2407	-33.324083	0.000123	1.228813	0.416333	0.000050
1576	1.5671e+02	-17.2230	-33.271536	0.000131	1.310056	0.443859	0.000053
1577	1.5681e+02	-17.1685	-33.219803	0.000129	1.289745	0.436978	0.000052
1578	1.5691e+02	-17.1669	-33.169700	0.000125	1.249124	0.423215	0.000050
1579	1.5701e+02	-17.1364	-33.114709	0.000137	1.370989	0.464504	0.000055
1580	1.5711e+02	-17.0899	-33.062162	0.000131	1.310056	0.443859	0.000053
1581	1.5721e+02	-17.0418	-33.012059	0.000125	1.249124	0.423215	0.000050
1582	1.5731e+02	-16.9856	-32.955438	0.000141	1.411611	0.478267	0.000057
1583	1.5741e+02	-16.9423	-32.900447	0.000137	1.370989	0.464504	0.000055
1584	1.5751e+02	-16.8910	-32.853195	0.000118	1.178035	0.399129	0.000047
1585	1.5761e+02	-16.8605	-32.794945	0.000145	1.452233	0.492030	0.000059
1586	1.5771e+02	-16.8316	-32.737917	0.000142	1.421767	0.481708	0.000057
1587	1.5781e+02	-16.8027	-32.691480	0.000116	1.157724	0.392248	0.000047
1588	1.5791e+02	-16.7498	-32.636489	0.000137	1.370989	0.464504	0.000055
1589	1.5801e+02	-16.7033	-32.579054	0.000143	1.431922	0.485148	0.000058
1590	1.5811e+02	-16.6551	-32.528136	0.000127	1.269434	0.430096	0.000051
1591	1.5821e+02	-16.6279	-32.475181	0.000132	1.320212	0.447300	0.000053
1592	1.5830e+02	-16.5894	-32.418561	0.000141	1.411611	0.478267	0.000057
1593	1.5840e+02	-16.5268	-32.365606	0.000132	1.320212	0.447300	0.000053
1594	1.5850e+02	-16.5204	-32.305319	0.000150	1.503010	0.509234	0.000061
1595	1.5860e+02	-16.4851	-32.254809	0.000126	1.259279	0.426655	0.000051
1596	1.5870e+02	-16.4546	-32.197374	0.000143	1.431922	0.485148	0.000058
1597	1.5880e+02	-16.3937	-32.145641	0.000129	1.289745	0.436978	0.000052
1598	1.5890e+02	-16.3487	-32.088613	0.000142	1.421767	0.481708	0.000057
1599	1.5900e+02	-16.3247	-32.032400	0.000140	1.401456	0.474826	0.000056
1600	1.5910e+02	-16.2429	-31.979445	0.000132	1.320212	0.447300	0.000053
1601	1.5920e+02	-16.2445	-31.924861	-0.000136	-1.360834	-0.461063	0.000055
1602	1.5930e+02	-16.1899	-31.870278	0.000136	1.360834	0.461063	0.000055
1603	1.5940e+02	-16.1370	-31.809176	0.000152	1.523321	0.516115	0.000061
1604	1.5950e+02	-16.1209	-31.756629	0.000131	1.310056	0.443859	0.000053
1605	1.5960e+02	-16.0696	-31.702860	0.000134	1.340523	0.454181	0.000054
1606	1.5970e+02	-16.0423	-31.645017	0.000144	1.442078	0.488589	0.000058
1607	1.5980e+02	-16.0231	-31.590026	0.000137	1.370989	0.464504	0.000055
1608	1.5990e+02	-15.9846	-31.530147	0.000149	1.492855	0.505793	0.000060
1609	1.6000e+02	-15.9188	-31.474341	0.000139	1.391300	0.471385	0.000056
1610	1.6010e+02	-15.8562	-31.411610	0.000156	1.563943	0.529878	0.000063
1611	1.6019e+02	-15.8081	-31.359470	0.000130	1.299901	0.440418	0.000052
1612	1.6029e+02	-15.7840	-31.295517	0.000159	1.594410	0.540201	0.000064
1613	1.6039e+02	-15.7680	-31.240119	0.000138	1.381145	0.467944	0.000056
1614	1.6049e+02	-15.7231	-31.181461	0.000146	1.462388	0.495471	0.000059
1615	1.6059e+02	-15.6798	-31.128507	0.000132	1.320212	0.447300	0.000053
1616	1.6069e+02	-15.6637	-31.069035	0.000148	1.482699	0.502352	0.000060
1617	1.6079e+02	-15.6060	-31.010785	0.000145	1.452233	0.492030	0.000059
1618	1.6089e+02	-15.5739	-30.954979	0.000139	1.391300	0.471385	0.000056
1619	1.6099e+02	-15.5274	-30.897136	0.000144	1.442078	0.488589	0.000058
1620	1.6109e+02	-15.4728	-30.838886	0.000145	1.452233	0.492030	0.000059
1621	1.6119e+02	-15.4536	-30.783895	0.000137	1.370989	0.464504	0.000055
1622	1.6129e+02	-15.3974	-30.725238	0.000146	1.462388	0.495471	0.000059
1623	1.6139e+02	-15.3541	-30.667395	0.000144	1.442078	0.488589	0.000058
1624	1.6149e+02	-15.3156	-30.610367	0.000142	1.421767	0.481708	0.000057
1625	1.6159e+02	-15.2803	-30.543970	0.000166	1.655343	0.560845	0.000067
1626	1.6169e+02	-15.2258	-30.483276	0.000151	1.513166	0.512674	0.000061
1627	1.6179e+02	-15.1921	-30.430322	0.000132	1.320212	0.447300	0.000053
1628	1.6189e+02	-15.1327	-30.374516	0.000139	1.391300	0.471385	0.000056
1629	1.6199e+02	-15.1327	-30.316673	-0.000144	-1.442078	-0.488589	0.000058
1630	1.6209e+02	-15.0878	-30.252720	0.000159	1.594410	0.540201	0.000064
1631	1.6219e+02	-15.0381	-30.193656	0.000147	1.472544	0.498911	0.000059
1632	1.6228e+02	-14.9996	-30.140701	0.000132	1.320212	0.447300	0.000053
1633	1.6238e+02	-14.9675	-30.077156	0.000158	1.584254	0.536760	0.000064
1634	1.6248e+02	-14.9017	-30.022572	0.000136	1.360834	0.461063	0.000055
1635	1.6258e+02	-14.8809	-29.957397	0.000162	1.624876	0.550523	0.000066
1636	1.6268e+02	-14.8520	-29.902406	0.000137	1.370989	0.464504	0.000055
1637	1.6278e+02	-14.7974	-29.837231	0.000162	1.624876	0.550523	0.000066
1638	1.6288e+02	-14.7766	-29.780610	0.000141	1.411611	0.478267	0.000057
1639	1.6298e+02	-14.7092	-29.713399	0.000168	1.675653	0.567727	0.000068
1640	1.6308e+02	-14.6900	-29.657593	0.000139	1.391300	0.471385	0.000056
1641	1.6318e+02	-14.6515	-29.590789	0.000167	1.665498	0.564286	0.000067
1642	1.6328e+02	-14.5953	-29.526429	0.000160	1.604565	0.543641	0.000065
1643	1.6338e+02	-14.5552	-29.462068	0.000160	1.604565	0.543641	0.000065
1644	1.6348e+02	-14.5327	-29.405855	0.000140	1.401456	0.474826	0.000056
1645	1.6358e+02	-14.4878	-29.338236	0.000169	1.685809	0.571168	0.000068
1646	1.6368e+02	-14.4317	-29.277542	0.000151	1.513166	0.512674	0.000061
1647	1.6378e+02	-14.4124	-29.219292	0.000145	1.452233	0.492030	0.000059
1648	1.6388e+02	-14.3611	-29.149229	0.000175	1.746742	0.591812	0.000070
1649	1.6398e+02	-14.3467	-29.091794	0.000143	1.431922	0.485148	0.000058
1650	1.6408e+02	-14.2825	-29.031100	0.000151	1.513166	0.512674	0.000061
1651	1.6418e+02	-14.2295	-28.959000	0.000180	1.797519	0.609016	0.000072
1652	1.6427e+02	-14.2183	-28.896677	0.000155	1.553788	0.526438	0.000063
1653	1.6437e+02	-14.1670	-28.828651	0.000170	1.695964	0.574608	0.000068
1654	1.6447e+02	-14.1172	-28.771215	0.000143	1.431922	0.485148	0.000058
1655	1.6457e+02	-14.0739	-28.704004	0.000168	1.675653	0.567727	0.000068
1656	1.6467e+02	-14.0451	-28.640051	0.000159	1.594410	0.540201	0.000064
1657	1.6477e+02	-13.9937	-28.578135	0.000154	1.543632	0.522997	0.000062
1658	1.6487e+02	-13.9648	-28.516626	0.000153	1.533477	0.519556	0.000062
1659	1.6497e+02	-13.9328	-28.462450	0.000135	1.350678	0.457622	0.000054
1660	1.6507e+02	-13.8750	-28.394016	0.000171	1.706120	0.578049	0.000069
1661	1.6517e+02	-13.8574	-28.336174	0.000144	1.442078	0.488589	0.000058
1662	1.6527e+02	-13.7804	-28.281182	0.000137	1.370989	0.464504	0.000055
1663	1.6537e+02	-13.7707	-28.219266	0.000154	1.543632	0.522997	0.000062
1664	1.6547e+02	-13.7098	-28.158980	0.000150	1.503010	0.509234	0.000061
1665	1.6557e+02	-13.6681	-28.095027	0.000159	1.594410	0.540201	0.000064
1666	1.6567e+02	-13.6536	-28.040850	0.000135	1.350678	0.457622	0.000054
1667	1.6577e+02	-13.6199	-27.978119	0.000156	1.563943	0.529878	0.000063
1668	1.6587e+02	-13.5718	-27.918647	0.000148	1.482699	0.502352	0.000060
1669	1.6597e+02	-13.5253	-27.857546	0.000152	1.523321	0.516115	0.000061
1670	1.6607e+02	-13.4884	-27.801740	0.000139	1.391300	0.471385	0.000056
1671	1.6616e+02	-13.4483	-27.744712	0.000142	1.421767	0.481708	0.000057
1672	1.6626e+02	-13.4050	-27.675464	0.000173	1.726431	0.584931	0.000070
1673	1.6636e+02	-13.3745	-27.620473	0.000137	1.370989	0.464504	0.000055
1674	1.6646e+02	-13.3376	-27.563852	0.000141	1.411611	0.478267	0.000057
1675	1.6656e+02	-13.2991	-27.504787	0.000147	1.472544	0.498911	0.000059
1676	1.6666e+02	-13.2510	-27.444908	0.000149	1.492855	0.505793	0.000060
1677	1.6676e+02	-13.2173	-27.385029	0.000149	1.492855	0.505793	0.000060
1678	1.6686e+02	-13.1675	-27.319039	0.000165	1.645187	0.557404	0.000066
1679	1.6696e+02	-13.1098	-27.262419	0.000141	1.411611	0.478267	0.000057
1680	1.6706e+02	-13.0841	-27.205391	0.000142	1.421767	0.481708	0.000057
1681	1.6716e+02	-13.0601	-27.143475	0.000154	1.543632	0.522997	0.000062
1682	1.6726e+02	-12.9943	-27.085225	0.000145	1.452233	0.492030	0.000059
1683	1.6736e+02	-12.9798	-27.024938	0.000150	1.503010	0.509234	0.000061
1684	1.6746e+02	-12.9333	-26.971983	0.000132	1.320212	0.447300	0.000053
1685	1.6756e+02	-12.8996	-26.902328	0.000174	1.736586	0.588371	0.000070
1686	1.6766e+02	-12.8371	-26.849373	0.000132	1.320212	0.447300	0.000053
1687	1.6776e+02	-12.8018	-26.789087	0.000150	1.503010	0.509234	0.000061
1688	1.6786e+02	-12.7745	-26.730022	0.000147	1.472544	0.498911	0.000059
1689	1.6796e+02	-12.7520	-26.668513	0.000153	1.533477	0.519556	0.000062
1690	1.6806e+02	-12.6879	-26.612707	0.000139	1.391300	0.471385	0.000056
1691	1.6816e+02	-12.6526	-26.549162	0.000158	1.584254	0.536760	0.000064
1692	1.6825e+02	-12.6125	-26.492541	0.000141	1.411611	0.478267	0.000057
1693	1.6835e+02	-12.5900	-26.435106	0.000143	1.431922	0.485148	0.000058
1694	1.6845e+02	-12.5387	-26.374819	0.000150	1.503010	0.509234	0.000061
1695	1.6855e+02	-12.4986	-26.312496	0.000155	1.553788	0.526438	0.000063
1696	1.6865e+02	-12.4713	-26.257097	0.000138	1.381145	0.467944	0.000056
1697	1.6875e+02	-12.4168	-26.196811	0.000150	1.503010	0.509234	0.000061
1698	1.6885e+02	-12.3799	-26.134894	0.000154	1.543632	0.522997	0.000062
1699	1.6895e+02	-12.3253	-26.077866	0.000142	1.421767	0.481708	0.000057
1700	1.6905e+02	-12.3029	-26.020024	0.000144	1.442078	0.488589	0.000058
1701	1.6915e+02	-12.2403	-25.959737	0.000150	1.503010	0.509234	0.000061
1702	1.6925e+02	-12.2259	-25.902709	0.000142	1.421767	0.481708	0.000057
1703	1.6935e+02	-12.1633	-25.839164	0.000158	1.584254	0.536760	0.000064
1704	1.6945e+02	-12.1312	-25.778877	0.000150	1.503010	0.509234	0.000061
1705	1.6955e+02	-12.0783	-25.715332	0.000158	1.584254	0.536760	0.000064
1706	1.6965e+02	-12.0654	-25.658711	0.000141	1.411611	0.478267	0.000057
1707	1.6975e+02	-12.0093	-25.600054	0.000146	1.462388	0.495471	0.000059
1708	1.6985e+02	-11.9692	-25.538952	0.000152	1.523321	0.516115	0.000061
1709	1.6995e+02	-11.9355	-25.478666	0.000150	1.503010	0.509234	0.000061
1710	1.7005e+02	-11.8954	-25.415120	0.000158	1.584254	0.536760	0.000064
1711	1.7015e+02	-11.8649	-25.355241	0.000149	1.492855	0.505793	0.000060
1712	1.7024e+02	-11.8023	-25.291695	0.000158	1.584254	0.536760	0.000064
1713	1.7034e+02	-11.7654	-25.237519	0.000135	1.350678	0.457622	0.000054
1714	1.7044e+02	-11.7334	-25.171122	0.000166	1.655343	0.560845	0.000067
1715	1.7054e+02	-11.7109	-25.113279	0.000144	1.442078	0.488589	0.000058
1716	1.7064e+02	-11.6323	-25.051771	0.000153	1.533477	0.519556	0.000062
1717	1.7074e+02	-11.6082	-24.993521	0.000145	1.452233	0.492030	0.000059
1718	1.7084e+02	-11.5777	-24.927124	0.000166	1.655343	0.560845	0.000067
1719	1.7094e+02	-11.5264	-24.865615	0.000153	1.533477	0.519556	0.000062
1720	1.7104e+02	-11.4975	-24.809402	0.000140	1.401456	0.474826	0.000056
1721	1.7114e+02	-11.4735	-24.750744	0.000146	1.462388	0.495471	0.000059
1722	1.7124e+02	-11.4270	-24.693716	0.000142	1.421767	0.481708	0.000057
1723	1.7134e+02	-11.3772	-24.635874	0.000144	1.442078	0.488589	0.000058
1724	1.7144e+02	-11.3259	-24.575587	0.000150	1.503010	0.509234	0.000061
1725	1.7154e+02	-11.3082	-24.523447	0.000130	1.299901	0.440418	0.000052
1726	1.7164e+02	-11.2360	-24.461124	0.000155	1.553788	0.526438	0.000063
1727	1.7174e+02	-11.2216	-24.408984	0.000130	1.299901	0.440418	0.000052
1728	1.7184e+02	-11.1767	-24.344217	0.000161	1.614721	0.547082	0.000065
1729	1.7194e+02	-11.1334	-24.288411	0.000139	1.391300	0.471385	0.000056
1730	1.7204e+02	-11.1157	-24.225680	0.000156	1.563943	0.529878	0.000063
1731	1.7213e+02	-11.0548	-24.169059	0.000141	1.411611	0.478267	0.000057
1732	1.7223e+02	-11.0082	-24.112031	0.000142	1.421767	0.481708	0.000057
1733	1.7233e+02	-10.9810	-24.052152	0.000149	1.492855	0.505793	0.000060
1734	1.7243e+02	-10.9489	-23.998790	0.000133	1.330367	0.450741	0.000054
1735	1.7253e+02	-10.9056	-23.940133	0.000146	1.462388	0.495471	0.000059
1736	1.7263e+02	-10.8398	-23.879031	0.000152	1.523321	0.516115	0.000061
1737	1.7273e+02	-10.8222	-23.819967	0.000147	1.472544	0.498911	0.000059
1738	1.7283e+02	-10.7788	-23.764161	0.000139	1.391300	0.471385	0.000056
1739	1.7293e+02	-10.7468	-23.701430	0.000156	1.563943	0.529878	0.000063
1740	1.7303e+02	-10.7163	-23.642365	0.000147	1.472544	0.498911	0.000059
1741	1.7313e+02	-10.6569	-23.580042	0.000155	1.553788	0.526438	0.000063
1742	1.7323e+02	-10.6152	-23.519348	0.000151	1.513166	0.512674	0.000061
1743	1.7333e+02	-10.5895	-23.458247	0.000152	1.523321	0.516115	0.000061
1744	1.7343e+02	-10.5398	-23.393479	0.000161	1.614721	0.547082	0.000065
1745	1.7353e+02	-10.4805	-23.325860	0.000169	1.685809	0.571168	0.000068
1746	1.7363e+02	-10.4548	-23.262722	0.000157	1.574099	0.533319	0.000063
1747	1.7373e+02	-10.4339	-23.196733	0.000165	1.645187	0.557404	0.000066
1748	1.7383e+02	-10.4051	-23.139297	0.000143	1.431922	0.485148	0.000058
1749	1.7393e+02	-10.3393	-23.072900	0.000166	1.655343	0.560845	0.000067
1750	1.7403e+02	-10.3008	-23.011392	0.000153	1.533477	0.519556	0.000062
1751	1.7413e+02	-10.2639	-22.944995	0.000166	1.655343	0.560845	0.000067
1752	1.7422e+02	-10.2254	-22.879413	0.000164	1.635032	0.553964	0.000066
1753	1.7432e+02	-10.1724	-22.813423	0.000165	1.645187	0.557404	0.000066
1754	1.7442e+02	-10.1452	-22.751507	0.000154	1.543632	0.522997	0.000062
1755	1.7452e+02	-10.1083	-22.687147	0.000160	1.604565	0.543641	0.000065
1756	1.7462e+02	-10.0666	-22.623194	0.000159	1.594410	0.540201	0.000064
1757	1.7472e+02	-10.0120	-22.552724	0.000176	1.756897	0.595253	0.000071
1758	1.7482e+02	-9.9783	-22.489993	0.000156	1.563943	0.529878	0.000063
1759	1.7492e+02	-9.9719	-22.422782	0.000168	1.675653	0.567727	0.000068
1760	1.7502e+02	-9.9045	-22.360866	0.000154	1.543632	0.522997	0.000062
1761	1.7512e+02	-9.8612	-22.286729	0.000185	1.848297	0.626220	0.000075
1762	1.7522e+02	-9.8179	-22.224813	0.000154	1.543632	0.522997	0.000062
1763	1.7532e+02	-9.7794	-22.160860	0.000159	1.594410	0.540201	0.000064
1764	1.7542e+02	-9.7585	-22.089168	0.000179	1.787364	0.605575	0.000072
1765	1.7552e+02	-9.7056	-22.024401	0.000161	1.614721	0.547082	0.000065
1766	1.7562e+02	-9.6511	-21.958411	0.000165	1.645187	0.557404	0.000066
1767	1.7572e+02	-9.6222	-21.887534	0.000177	1.767053	0.598694	0.000071
1768	1.7582e+02	-9.5933	-21.826840	0.000151	1.513166	0.512674	0.000061
1769	1.7592e+02	-9.5420	-21.760035	0.000167	1.665498	0.564286	0.000067
1770	1.7602e+02	-9.5051	-21.692824	0.000168	1.675653	0.567727	0.000068
1771	1.7612e+02	-9.4618	-21.626020	0.000167	1.665498	0.564286	0.000067
1772	1.7621e+02	-9.4313	-21.557994	0.000170	1.695964	0.574608	0.000068
1773	1.7631e+02	-9.3799	-21.486301	0.000179	1.787364	0.605575	0.000072
1774	1.7641e+02	-9.3414	-21.420719	0.000164	1.635032	0.553964	0.000066
1775	1.7651e+02	-9.2917	-21.355544	0.000162	1.624876	0.550523	0.000066
1776	1.7661e+02	-9.2612	-21.285074	0.000176	1.756897	0.595253	0.000071
1777	1.7671e+02	-9.2372	-21.217048	0.000170	1.695964	0.574608	0.000068
1778	1.7681e+02	-9.1874	-21.146170	0.000177	1.767053	0.598694	0.000071
1779	1.7691e+02	-9.1297	-21.072034	0.000185	1.848297	0.626220	0.000075
1780	1.7701e+02	-9.1104	-21.008081	0.000159	1.594410	0.540201	0.000064
1781	1.7711e+02	-9.0703	-20.938018	0.000175	1.746742	0.591812	0.000070
1782	1.7721e+02	-9.0158	-20.868770	0.000173	1.726431	0.584931	0.000070
1783	1.7731e+02	-8.9997	-20.793819	0.000187	1.868608	0.633101	0.000075
1784	1.7741e+02	-8.9276	-20.725385	0.000171	1.706120	0.578049	0.000069
1785	1.7751e+02	-8.9099	-20.658989	0.000166	1.655343	0.560845	0.000067
1786	1.7761e+02	-8.8714	-20.589740	0.000173	1.726431	0.584931	0.000070
1787	1.7771e+02	-8.8104	-20.519677	0.000175	1.746742	0.591812	0.000070
1788	1.7781e+02	-8.7960	-20.450429	0.000173	1.726431	0.584931	0.000070
1789	1.7791e+02	-8.7399	-20.382403	0.000170	1.695964	0.574608	0.000068
1790	1.7801e+02	-8.7190	-20.313562	0.000172	1.716275	0.581490	0.000069
1791	1.7810e+02	-8.6564	-20.240240	0.000183	1.827986	0.619338	0.000074
1792	1.7820e+02	-8.6131	-20.173844	0.000166	1.655343	0.560845	0.000067
1793	1.7830e+02	-8.5826	-20.101337	0.000181	1.807675	0.612457	0.000073
1794	1.7840e+02	-8.5538	-20.034940	0.000166	1.655343	0.560845	0.000067
1795	1.7850e+02	-8.5040	-19.959581	0.000188	1.878763	0.636542	0.000076
1796	1.7860e+02	-8.4736	-19.892370	0.000168	1.675653	0.567727	0.000068
1797	1.7870e+02	-8.4383	-19.823936	0.000171	1.706120	0.578049	0.000069
1798	1.7880e+02	-8.3853	-19.756317	0.000169	1.685809	0.571168	0.000068
1799	1.7890e+02	-8.3436	-19.681366	0.000187	1.868608	0.633101	0.000075
1800	1.7900e+02	-8.2891	-19.613748	0.000169	1.685809	0.571168	0.000068
1801	1.7910e+02	-8.2634	-19.541648	0.000180	1.797519	0.609016	0.000072
1802	1.7920e+02	-8.2554	-19.472400	0.000173	1.726431	0.584931	0.000070
1803	1.7930e+02	-8.1896	-19.401929	0.000176	1.756897	0.595253	0.000071
1804	1.7940e+02	-8.1431	-19.327386	0.000186	1.858452	0.629661	0.000075
1805	1.7950e+02	-8.1270	-19.256508	0.000177	1.767053	0.598694	0.000071
1806	1.7960e+02	-8.0516	-19.182372	0.000185	1.848297	0.626220	0.000075
1807	1.7970e+02	-8.0324	-19.107828	0.000186	1.858452	0.629661	0.000075
1808	1.7980e+02	-7.9859	-19.036950	0.000177	1.767053	0.598694	0.000071
1809	1.7990e+02	-7.9393	-18.955889	0.000202	2.020940	0.684713	0.000081
1810	1.8000e+02	-7.8992	-18.873606	0.000205	2.051406	0.695035	0.000083
1811	1.8009e+02	-7.8607	-18.801914	0.000179	1.787364	0.605575	0.000072
1812	1.8019e+02	-7.8062	-18.728592	0.000183	1.827986	0.619338	0.000074
1813	1.8029e+02	-7.7886	-18.656085	0.000181	1.807675	0.612457	0.000073
1814	1.8039e+02	-7.7565	-18.577875	0.000195	1.949851	0.660628	0.000079
1815	1.8049e+02	-7.7308	-18.507405	0.000176	1.756897	0.595253	0.000071
1816	1.8059e+02	-7.6666	-18.434491	0.000182	1.817830	0.615898	0.000073
1817	1.8069e+02	-7.6281	-18.354652	0.000199	1.990473	0.674391	0.000080
1818	1.8079e+02	-7.6057	-18.281330	0.000183	1.827986	0.619338	0.000074
1819	1.8089e+02	-7.5527	-18.196603	0.000211	2.112339	0.715680	0.000085
1820	1.8099e+02	-7.5126	-18.126540	0.000175	1.746742	0.591812	0.000070
1821	1.8109e+02	-7.4597	-18.048737	0.000194	1.939696	0.657187	0.000078
1822	1.8119e+02	-7.4035	-17.976638	0.000180	1.797519	0.609016	0.000072
1823	1.8129e+02	-7.4051	-17.892318	-0.000210	-2.102183	-0.712239	0.000085
1824	1.8139e+02	-7.3538	-17.822255	0.000175	1.746742	0.591812	0.000070
1825	1.8149e+02	-7.2912	-17.753821	0.000171	1.706120	0.578049	0.000069
1826	1.8159e+02	-7.2592	-17.677648	0.000190	1.899074	0.643424	0.000077
1827	1.8169e+02	-7.2030	-17.602290	0.000188	1.878763	0.636542	0.000076
1828	1.8179e+02	-7.1886	-17.530598	0.000179	1.787364	0.605575	0.000072
1829	1.8189e+02	-7.1661	-17.459720	0.000177	1.767053	0.598694	0.000071
1830	1.8199e+02	-7.1164	-17.387213	0.000181	1.807675	0.612457	0.000073
1831	1.8209e+02	-7.0699	-17.312262	0.000187	1.868608	0.633101	0.000075
1832	1.8218e+02	-7.0201	-17.238126	0.000185	1.848297	0.626220	0.000075
1833	1.8228e+02	-6.9993	-17.168470	0.000174	1.736586	0.588371	0.000070
1834	1.8238e+02	-6.9527	-17.095963	0.000181	1.807675	0.612457	0.000073
1835	1.8248e+02	-6.9046	-17.028752	0.000168	1.675653	0.567727	0.000068
1836	1.8258e+02	-6.8838	-16.950135	0.000196	1.960007	0.664068	0.000079
1837	1.8268e+02	-6.8244	-16.880479	0.000174	1.736586	0.588371	0.000070
1838	1.8278e+02	-6.8019	-16.808379	0.000180	1.797519	0.609016	0.000072
1839	1.8288e+02	-6.7602	-16.739131	0.000173	1.726431	0.584931	0.000070
1840	1.8298e+02	-6.7185	-16.661329	0.000194	1.939696	0.657187	0.000078
1841	1.8308e+02	-6.6800	-16.587600	0.000184	1.838141	0.622779	0.000074
1842	1.8318e+02	-6.6319	-16.519166	0.000171	1.706120	0.578049	0.000069
1843	1.8328e+02	-6.5934	-16.443808	0.000188	1.878763	0.636542	0.000076
1844	1.8338e+02	-6.5597	-16.372116	0.000179	1.787364	0.605575	0.000072
1845	1.8348e+02	-6.5132	-16.300016	0.000180	1.797519	0.609016	0.000072
1846	1.8358e+02	-6.4699	-16.223435	0.000191	1.909229	0.646864	0.000077
1847	1.8368e+02	-6.4362	-16.151336	0.000180	1.797519	0.609016	0.000072
1848	1.8378e+02	-6.4025	-16.089827	0.000153	1.533477	0.519556	0.000062
1849	1.8388e+02	-6.3608	-16.020986	0.000172	1.716275	0.581490	0.000069
1850	1.8398e+02	-6.3223	-15.946443	0.000186	1.858452	0.629661	0.000075
1851	1.8407e+02	-6.2693	-15.871899	0.000186	1.858452	0.629661	0.000075
1852	1.8417e+02	-6.2324	-15.801021	0.000177	1.767053	0.598694	0.000071
1853	1.8427e+02	-6.1955	-15.724441	0.000191	1.909229	0.646864	0.000077
1854	1.8437e+02	-6.1490	-15.650712	0.000184	1.838141	0.622779	0.000074
1855	1.8447e+02	-6.1153	-15.579427	0.000178	1.777208	0.602134	0.000072
1856	1.8457e+02	-6.0656	-15.510993	0.000171	1.706120	0.578049	0.000069
1857	1.8467e+02	-6.0351	-15.433191	0.000194	1.939696	0.657187	0.000078
1858	1.8477e+02	-5.9806	-15.363943	0.000173	1.726431	0.584931	0.000070
1859	1.8487e+02	-5.9421	-15.288992	0.000187	1.868608	0.633101	0.000075
1860	1.8497e+02	-5.9180	-15.213226	0.000189	1.888918	0.639983	0.000076
1861	1.8507e+02	-5.8907	-15.145200	0.000170	1.695964	0.574608	0.000068
1862	1.8517e+02	-5.8346	-15.069434	0.000189	1.888918	0.639983	0.000076
1863	1.8527e+02	-5.8089	-14.998556	0.000177	1.767053	0.598694	0.000071
1864	1.8537e+02	-5.7544	-14.925235	0.000183	1.827986	0.619338	0.000074
1865	1.8547e+02	-5.7143	-14.852728	0.000181	1.807675	0.612457	0.000073
1866	1.8557e+02	-5.6758	-14.783887	0.000172	1.716275	0.581490	0.000069
1867	1.8567e+02	-5.6421	-14.706492	0.000193	1.929540	0.653746	0.000078
1868	1.8577e+02	-5.5827	-14.632763	0.000184	1.838141	0.622779	0.000074
1869	1.8587e+02	-5.5747	-14.561478	0.000178	1.777208	0.602134	0.000072
1870	1.8597e+02	-5.4945	-14.482046	0.000198	1.980318	0.670950	0.000080
1871	1.8606e+02	-5.4817	-14.411576	0.000176	1.756897	0.595253	0.000071
1872	1.8616e+02	-5.4319	-14.333366	0.000195	1.949851	0.660628	0.000079
1873	1.8626e+02	-5.3966	-14.265340	0.000170	1.695964	0.574608	0.000068
1874	1.8636e+02	-5.3533	-14.188352	0.000192	1.919385	0.650305	0.000077
1875	1.8646e+02	-5.3068	-14.116660	0.000179	1.787364	0.605575	0.000072
1876	1.8656e+02	-5.2715	-14.044153	0.000181	1.807675	0.612457	0.000073
1877	1.8666e+02	-5.2442	-13.968794	0.000188	1.878763	0.636542	0.000076
1878	1.8676e+02	-5.1977	-13.895065	0.000184	1.838141	0.622779	0.000074
1879	1.8686e+02	-5.1544	-13.821336	0.000184	1.838141	0.622779	0.000074
1880	1.8696e+02	-5.1351	-13.746793	0.000186	1.858452	0.629661	0.000075
1881	1.8706e+02	-5.0758	-13.670212	0.000191	1.909229	0.646864	0.000077
1882	1.8716e+02	-5.0614	-13.596483	0.000184	1.838141	0.622779	0.000074
1883	1.8726e+02	-4.9988	-13.518274	0.000195	1.949851	0.660628	0.000079
1884	1.8736e+02	-4.9603	-13.437620	0.000201	2.010784	0.681272	0.000081
1885	1.8746e+02	-4.9330	-13.365520	0.000180	1.797519	0.609016	0.000072
1886	1.8756e+02	-4.8865	-13.293828	0.000179	1.787364	0.605575	0.000072
1887	1.8766e+02	-4.8448	-13.219691	0.000185	1.848297	0.626220	0.000075
1888	1.8776e+02	-4.8079	-13.139852	0.000199	1.990473	0.674391	0.000080
1889	1.8786e+02	-4.7710	-13.066938	0.000182	1.817830	0.615898	0.000073
1890	1.8796e+02	-4.7004	-12.994431	0.000181	1.807675	0.612457	0.000073
1891	1.8806e+02	-4.6795	-12.920295	0.000185	1.848297	0.626220	0.000075
1892	1.8815e+02	-4.6426	-12.853898	0.000166	1.655343	0.560845	0.000067
1893	1.8825e+02	-4.5897	-12.780576	0.000183	1.827986	0.619338	0.000074
1894	1.8835e+02	-4.5608	-12.707255	0.000183	1.827986	0.619338	0.000074
1895	1.8845e+02	-4.5127	-12.639228	0.000170	1.695964	0.574608	0.000068
1896	1.8855e+02	-4.4822	-12.563870	0.000188	1.878763	0.636542	0.000076
1897	1.8865e+02	-4.4261	-12.488104	0.000189	1.888918	0.639983	0.000076
1898	1.8875e+02	-4.4100	-12.414375	0.000184	1.838141	0.622779	0.000074
1899	1.8885e+02	-4.3619	-12.336980	0.000193	1.929540	0.653746	0.000078
1900	1.8895e+02	-4.3282	-12.271805	0.000162	1.624876	0.550523	0.000066
1901	1.8905e+02	-4.2833	-12.191966	0.000199	1.990473	0.674391	0.000080
1902	1.8915e+02	-4.2480	-12.121496	0.000176	1.756897	0.595253	0.000071
1903	1.8925e+02	-4.2047	-12.047360	0.000185	1.848297	0.626220	0.000075
1904	1.8935e+02	-4.1662	-11.978111	0.000173	1.726431	0.584931	0.000070
1905	1.8945e+02	-4.1325	-11.906012	0.000180	1.797519	0.609016	0.000072
1906	1.8955e+02	-4.0731	-11.828617	0.000193	1.929540	0.653746	0.000078
1907	1.8965e+02	-4.0186	-11.750814	0.000194	1.939696	0.657187	0.000078
1908	1.8975e+02	-3.9945	-11.677493	0.000183	1.827986	0.619338	0.000074
1909	1.8985e+02	-3.9528	-11.597653	0.000199	1.990473	0.674391	0.000080
1910	1.8995e+02	-3.9416	-11.520666	0.000192	1.919385	0.650305	0.000077
1911	1.9004e+02	-3.8919	-11.444493	0.000190	1.899074	0.643424	0.000077
1912	1.9014e+02	-3.8293	-11.358951	0.000213	2.132650	0.722561	0.000086
1913	1.9024e+02	-3.8004	-11.284814	0.000185	1.848297	0.626220	0.000075
1914	1.9034e+02	-3.7507	-11.200494	0.000210	2.102183	0.712239	0.000085
1915	1.9044e+02	-3.7266	-11.121063	0.000198	1.980318	0.670950	0.000080
1916	1.9054e+02	-3.6833	-11.036335	0.000211	2.112339	0.715680	0.000085
1917	1.9064e+02	-3.6416	-10.966272	0.000175	1.746742	0.591812	0.000070
1918	1.9074e+02	-3.6191	-10.878694	0.000218	2.183427	0.739765	0.000088
1919	1.9084e+02	-3.5582	-10.802113	0.000191	1.909229	0.646864	0.000077
1920	1.9094e+02	-3.5101	-10.718608	0.000208	2.081873	0.705358	0.000084
1921	1.9104e+02	-3.4988	-10.636325	0.000205	2.051406	0.695035	0.000083
1922	1.9114e+02	-3.4427	-10.556486	0.000199	1.990473	0.674391	0.000080
1923	1.9124e+02	-3.3962	-10.475425	0.000202	2.020940	0.684713	0.000081
1924	1.9134e+02	-3.3464	-10.391512	0.000209	2.092028	0.708798	0.000084
1925	1.9144e+02	-3.3400	-10.310044	0.000203	2.031095	0.688154	0.000082
1926	1.9154e+02	-3.2999	-10.224909	0.000212	2.122494	0.719121	0.000086
1927	1.9164e+02	-3.2406	-10.151180	0.000184	1.838141	0.622779	0.000074
1928	1.9174e+02	-3.2149	-10.064823	0.000215	2.152961	0.729443	0.000087
1929	1.9184e+02	-3.1635	-9.982133	0.000206	2.061562	0.698476	0.000083
1930	1.9194e+02	-3.1315	-9.899442	0.000206	2.061562	0.698476	0.000083
1931	1.9203e+02	-3.0801	-9.820011	0.000198	1.980318	0.670950	0.000080
1932	1.9213e+02	-3.0336	-9.733654	0.000215	2.152961	0.729443	0.000087
1933	1.9223e+02	-3.0063	-9.648112	0.000213	2.132650	0.722561	0.000086
1934	1.9233e+02	-2.9871	-9.567458	0.000201	2.010784	0.681272	0.000081
1935	1.9243e+02	-2.9133	-9.483138	0.000210	2.102183	0.712239	0.000085
1936	1.9253e+02	-2.9021	-9.399226	0.000209	2.092028	0.708798	0.000084
1937	1.9263e+02	-2.8668	-9.308796	0.000225	2.254516	0.763851	0.000091
1938	1.9273e+02	-2.7946	-9.226105	0.000206	2.061562	0.698476	0.000083
1939	1.9283e+02	-2.7769	-9.146266	0.000199	1.990473	0.674391	0.000080
1940	1.9293e+02	-2.7240	-9.061946	0.000210	2.102183	0.712239	0.000085
1941	1.9303e+02	-2.6919	-8.967035	0.000237	2.366226	0.801699	0.000095
1942	1.9313e+02	-2.6550	-8.883937	0.000207	2.071717	0.701917	0.000084
1943	1.9323e+02	-2.5876	-8.795137	0.000221	2.213894	0.750087	0.000089
1944	1.9333e+02	-2.5636	-8.714483	0.000201	2.010784	0.681272	0.000081
1945	1.9343e+02	-2.5251	-8.621609	0.000232	2.315448	0.784495	0.000093
1946	1.9353e+02	-2.5090	-8.536882	0.000211	2.112339	0.715680	0.000085
1947	1.9363e+02	-2.4400	-8.448081	0.000221	2.213894	0.750087	0.000089
1948	1.9373e+02	-2.4112	-8.364168	0.000209	2.092028	0.708798	0.000084
1949	1.9383e+02	-2.3903	-8.278219	0.000214	2.142805	0.726002	0.000086
1950	1.9393e+02	-2.3245	-8.189418	0.000221	2.213894	0.750087	0.000089
1951	1.9403e+02	-2.2796	-8.101840	0.000218	2.183427	0.739765	0.000088
1952	1.9412e+02	-2.2539	-8.019149	0.000206	2.061562	0.698476	0.000083
1953	1.9422e+02	-2.2138	-7.927904	0.000227	2.274827	0.770732	0.000092
1954	1.9432e+02	-2.1785	-7.840326	0.000218	2.183427	0.739765	0.000088
1955	1.9442e+02	-2.1160	-7.752747	0.000218	2.183427	0.739765	0.000088
1956	1.9452e+02	-2.0887	-7.658244	0.000236	2.356070	0.798258	0.000095
1957	1.9462e+02	-2.0454	-7.574331	0.000209	2.092028	0.708798	0.000084
1958	1.9472e+02	-2.0101	-7.490011	0.000210	2.102183	0.712239	0.000085
1959	1.9482e+02	-1.9844	-7.400396	0.000223	2.234205	0.756969	0.000090
1960	1.9492e+02	-1.9540	-7.309966	0.000225	2.254516	0.763851	0.000091
1961	1.9502e+02	-1.8850	-7.222387	0.000218	2.183427	0.739765	0.000088
1962	1.9512e+02	-1.8433	-7.131550	0.000226	2.264671	0.767291	0.000091
1963	1.9522e+02	-1.7935	-7.039898	0.000228	2.284982	0.774173	0.000092
1964	1.9532e+02	-1.7775	-6.948246	0.000228	2.284982	0.774173	0.000092
1965	1.9542e+02	-1.7246	-6.867184	0.000202	2.020940	0.684713	0.000081
1966	1.9552e+02	-1.6909	-6.775532	0.000228	2.284982	0.774173	0.000092
1967	1.9562e+02	-1.6620	-6.687546	0.000219	2.193583	0.743206	0.000088
1968	1.9572e+02	-1.6074	-6.593450	0.000235	2.345915	0.794817	0.000095
1969	1.9582e+02	-1.5705	-6.506279	0.000217	2.173272	0.736324	0.000088
1970	1.9592e+02	-1.5577	-6.418293	0.000219	2.193583	0.743206	0.000088
1971	1.9601e+02	-1.4775	-6.323382	0.000237	2.366226	0.801699	0.000095
1972	1.9611e+02	-1.4406	-6.228879	0.000236	2.356070	0.798258	0.000095
1973	1.9621e+02	-1.4005	-6.140485	0.000220	2.203738	0.746647	0.000089
1974	1.9631e+02	-1.3652	-6.045982	0.000236	2.356070	0.798258	0.000095
1975	1.9641e+02	-1.3427	-5.953922	0.000230	2.295138	0.777614	0.000093
1976	1.9651e+02	-1.2770	-5.859419	0.000236	2.356070	0.798258	0.000095
1977	1.9661e+02	-1.2449	-5.762471	0.000242	2.417003	0.818903	0.000097
1978	1.9671e+02	-1.2160	-5.660228	0.000255	2.549024	0.863633	0.000103
1979	1.9681e+02	-1.1791	-5.571020	0.000222	2.224049	0.753528	0.000090
1980	1.9691e+02	-1.1182	-5.471221	0.000249	2.488092	0.842988	0.000100
1981	1.9701e+02	-1.1053	-5.376311	0.000237	2.366226	0.801699	0.000095
1982	1.9711e+02	-1.0829	-5.281807	0.000236	2.356070	0.798258	0.000095
1983	1.9721e+02	-1.0187	-5.190970	0.000226	2.264671	0.767291	0.000091
1984	1.9731e+02	-0.9497	-5.093208	0.000244	2.437314	0.825784	0.000098
1985	1.9741e+02	-0.9321	-4.996667	0.000241	2.406848	0.815462	0.000097
1986	1.9751e+02	-0.8839	-4.899313	0.000243	2.427159	0.822344	0.000098
1987	1.9761e+02	-0.8502	-4.800736	0.000246	2.457625	0.832666	0.000099
1988	1.9771e+02	-0.8166	-4.705417	0.000238	2.376381	0.805140	0.000096
1989	1.9781e+02	-0.7700	-4.609285	0.000240	2.396692	0.812021	0.000097
1990	1.9791e+02	-0.7492	-4.514781	0.000236	2.356070	0.798258	0.000095
1991	1.9800e+02	-0.6898	-4.417019	0.000244	2.437314	0.825784	0.000098
1992	1.9810e+02	-0.6770	-4.323330	0.000234	2.335759	0.791377	0.000094
1993	1.9820e+02	-0.6144	-4.224346	0.000247	2.467781	0.836107	0.000099
1994	1.9830e+02	-0.5775	-4.133509	0.000226	2.264671	0.767291	0.000091
1995	1.9840e+02	-0.5262	-4.040227	0.000233	2.325604	0.787936	0.000094
1996	1.9850e+02	-0.4845	-3.949390	0.000226	2.264671	0.767291	0.000091
1997	1.9860e+02	-0.4684	-3.856108	0.000233	2.325604	0.787936	0.000094
1998	1.9870e+02	-0.4155	-3.762012	0.000235	2.345915	0.794817	0.000095
1999	1.9880e+02	-0.3834	-3.665472	0.000241	2.406848	0.815462	0.000097
2000	1.9890e+02	-0.3433	-3.575042	0.000225	2.254516	0.763851	0.000091
2001	1.9900e+02	-0.2743	-3.481760	0.000233	2.325604	0.787936	0.000094
2002	1.9910e+02	-0.2727	-3.391330	0.000225	2.254516	0.763851	0.000091
2003	1.9920e+02	-0.2262	-3.293568	0.000244	2.437314	0.825784	0.000098
2004	1.9930e+02	-0.1813	-3.205175	0.000220	2.203738	0.746647	0.000089
2005	1.9940e+02	-0.1476	-3.111486	0.000234	2.335759	0.791377	0.000094
2006	1.9950e+02	-0.1155	-3.017797	0.000234	2.335759	0.791377	0.000094
2007	1.9960e+02	-0.0626	-2.926553	0.000227	2.274827	0.770732	0.000092
2008	1.9970e+02	-0.0305	-2.830827	0.000239	2.386537	0.808581	0.000096
2009	1.9980e+02	0.0225	-2.734287	0.000239	2.386537	0.808581	0.000097

Center data before PMax,+/-Pr and +/-Vc Calc.

PMax (uC/cm2):	3.64e+01
Pr (uC/cm2):	9.12e-01
-Pr (uC/cm2):	-2.73e+00
PLoss (uC/cm2):	-9.46e-01
Vc:	8.32e-01
-Vc:	-3.90e-01
C (Max-Eff) (nF):	1.82e-01
K (Eff):	6.16e+02
Vert. (+/-Pr) Shift (uC/cm2):	-9.11e-01
Horiz. Shift (+/-Vc):	2.21e-01
Offset (uC/cm2):	1.79e+00

A (Loop Area - uC/cm2·Volts):	9.33e-03



Hysteresis Version: 5.48.1 - Radiant Technologies, Inc., 1999 - 9/12/24

