»»»»»»»»»»»»»»»»»»»»»»»»»»»»»»»»»»»» Hysteresis ««««««««««««««««««««««««««««««««««««
»»»  Executed Version:	5.48.1
»»»  Vision Version:	5.48.4 (R)
»»»  Vision Compiled:	9/18/24
»»»  Driver Version:	5.47.0
»»»  Windows Version:	Windows 8 or 8.1
»»»  Processor Information:	x86 (AMD or Intel) - 32 Processors
»»»  Tester Name:	PMF21124-494 (100V)
»»»  Tester S/N:	PMF21124-494
»»»  Internal Amp Type:	100V RevK 270k
»»»  Internal Amp S/N:	iAB2-596/K     
»»»  Execution Count:	1
»»»»»»»»»»»»»»»»»»»»»»»»»»»»»»»»»»»»»»»»»»««««««««««««««««««««««««««««««««««««««««««

Stored:	6/9/2025 - 12:45:18
Configured:	06/09/25 11:17:29 AM
Executed:	06/09/25 12:44:36 PM

»»»»»»»»»»»»»»»»»»»»»»»»»»»»»»»»»»» Sample Info ««««««««««««««««««««««««««««««««««««
Sample Name:	
Lot Name:	
Wafer Name:	
Die Row/Column:	0/0
Capacitor Number:	0
Sample Area (cm2):	1.00e-04
Sample Thickness (microns):	3.00e-01

Amplifier:	Internal

»»»»»»»»»»»»»»»»»»»»»»»»»»»»»»»»»»» Tester Info «««««««««««««««««««««««««««««««««««
Tester Name:	PMF21124-494 (100V)
Tester Serial Number:	PMF21124-494
Return Signal Amp. Level:	1.9 [Index: 2]

»»»»»»»»»»»»»»»»»»»»»»»»»»»»»»»» Hysteresis Info ««««««««««««««««««««««««««««««««««
Task Name:	Hyst-785
Volts:	20.00
Field:	666.67 (kV/cm)
DCBias:	0.00
DCField:	0.00 (kV/cm)
Hysteresis Period (ms):	2.00e+02
Preset:	Enabled
Preset Delay (ms):	1.00e+03
Profile:	Standard Bipolar

»»»»»»»»»»»»»»»»»»»»»»»»»»»»»»»»»»»»»» Data «««««««««««««««««««««««««««««««««««««««
Points:	2009

Valid Data

Point	Time (ms)	Drive Voltage	Measured Polarization (uC/cm2)	Capacitance (uF)	Normalized Capacitance (uF/cm2)	Dielectric Constant	Instantaneous Current (mA)
   1	0.0000e+00	0.0193	-0.893099	0.000121	1.209516	0.409795	0.000049
   2	9.9500e-02	0.0561	-0.844625	0.000121	1.209516	0.409795	0.000049
   3	1.9900e-01	0.1091	-0.773340	0.000178	1.778700	0.602640	0.000072
   4	2.9850e-01	0.1315	-0.705721	0.000169	1.687224	0.571647	0.000068
   5	3.9800e-01	0.1717	-0.633621	0.000180	1.799028	0.609527	0.000072
   6	4.9750e-01	0.2150	-0.566817	0.000167	1.666896	0.564760	0.000067
   7	5.9700e-01	0.2615	-0.500420	0.000166	1.656732	0.561316	0.000067
   8	6.9650e-01	0.2904	-0.429135	0.000178	1.778700	0.602640	0.000072
   9	7.9600e-01	0.3273	-0.365183	0.000160	1.595748	0.540654	0.000064
  10	8.9550e-01	0.3738	-0.297564	0.000169	1.687224	0.571647	0.000068
  11	9.9500e-01	0.4267	-0.227908	0.000174	1.738044	0.588865	0.000070
  12	1.0945e+00	0.4604	-0.161919	0.000165	1.646568	0.557872	0.000066
  13	1.1940e+00	0.4941	-0.094707	0.000168	1.677060	0.568203	0.000068
  14	1.2935e+00	0.5246	-0.025052	0.000174	1.738044	0.588865	0.000070
  15	1.3930e+00	0.5711	0.036050	0.000152	1.524600	0.516549	0.000061
  16	1.4925e+00	0.6080	0.109371	0.000183	1.829520	0.619858	0.000074
  17	1.5920e+00	0.6481	0.176583	0.000168	1.677060	0.568203	0.000068
  18	1.6915e+00	0.7010	0.246646	0.000175	1.748208	0.592309	0.000070
  19	1.7910e+00	0.7203	0.307340	0.000151	1.514436	0.513105	0.000061
  20	1.8905e+00	0.7732	0.376588	0.000173	1.727880	0.585422	0.000070
  21	1.9900e+00	0.8037	0.444614	0.000170	1.697388	0.575091	0.000068
  22	2.0895e+00	0.8599	0.513048	0.000171	1.707552	0.578534	0.000069
  23	2.1890e+00	0.8791	0.580259	0.000168	1.677060	0.568203	0.000068
  24	2.2885e+00	0.9305	0.646656	0.000166	1.656732	0.561316	0.000067
  25	2.3880e+00	0.9722	0.713053	0.000166	1.656732	0.561316	0.000067
  26	2.4875e+00	1.0010	0.780265	0.000168	1.677060	0.568203	0.000068
  27	2.5870e+00	1.0620	0.849513	0.000173	1.727880	0.585422	0.000070
  28	2.6865e+00	1.0909	0.916317	0.000167	1.666896	0.564760	0.000067
  29	2.7860e+00	1.1037	0.983121	0.000167	1.666896	0.564760	0.000067
  30	2.8855e+00	1.1727	1.053592	0.000176	1.758372	0.595753	0.000071
  31	2.9850e+00	1.2304	1.122025	0.000171	1.707552	0.578534	0.000069
  32	3.0845e+00	1.2545	1.189644	0.000169	1.687224	0.571647	0.000068
  33	3.1840e+00	1.2802	1.251560	0.000154	1.544928	0.523436	0.000062
  34	3.2835e+00	1.3171	1.322438	0.000177	1.768536	0.599196	0.000071
  35	3.3830e+00	1.3796	1.392908	0.000176	1.758372	0.595753	0.000071
  36	3.4825e+00	1.4165	1.456046	0.000158	1.575420	0.533767	0.000063
  37	3.5820e+00	1.4358	1.523257	0.000168	1.677060	0.568203	0.000068
  38	3.6815e+00	1.4791	1.592506	0.000173	1.727880	0.585422	0.000070
  39	3.7810e+00	1.5304	1.660532	0.000170	1.697388	0.575091	0.000068
  40	3.8805e+00	1.5721	1.726929	0.000166	1.656732	0.561316	0.000067
  41	3.9800e+00	1.6026	1.794548	0.000169	1.687224	0.571647	0.000068
  42	4.0795e+00	1.6636	1.858500	0.000160	1.595748	0.540654	0.000064
  43	4.1790e+00	1.7117	1.924490	0.000165	1.646568	0.557872	0.000066
  44	4.2785e+00	1.7326	1.994553	0.000175	1.748208	0.592309	0.000070
  45	4.3780e+00	1.7727	2.065430	0.000177	1.768536	0.599196	0.000071
  46	4.4775e+00	1.7839	2.125310	0.000149	1.494108	0.506218	0.000060
  47	4.5770e+00	1.8753	2.198224	0.000182	1.819356	0.616415	0.000073
  48	4.6765e+00	1.9026	2.260547	0.000156	1.555092	0.526880	0.000063
  49	4.7760e+00	1.9235	2.327352	0.000167	1.666896	0.564760	0.000067
  50	4.8755e+00	1.9652	2.386824	0.000148	1.483944	0.502774	0.000060
  51	4.9750e+00	2.0037	2.451998	0.000163	1.626240	0.550985	0.000066
  52	5.0745e+00	2.0486	2.517988	0.000165	1.646568	0.557872	0.000066
  53	5.1740e+00	2.0935	2.585607	0.000169	1.687224	0.571647	0.000068
  54	5.2735e+00	2.1256	2.650782	0.000163	1.626240	0.550985	0.000066
  55	5.3730e+00	2.1641	2.716771	0.000165	1.646568	0.557872	0.000066
  56	5.4725e+00	2.1994	2.785205	0.000171	1.707552	0.578534	0.000069
  57	5.5720e+00	2.2331	2.844269	0.000147	1.473780	0.499330	0.000059
  58	5.6715e+00	2.3069	2.912296	0.000170	1.697388	0.575091	0.000068
  59	5.7710e+00	2.3229	2.974619	0.000156	1.555092	0.526880	0.000063
  60	5.8705e+00	2.3550	3.045497	0.000177	1.768536	0.599196	0.000071
  61	5.9700e+00	2.3823	3.104969	0.000148	1.483944	0.502774	0.000060
  62	6.0695e+00	2.4577	3.172587	0.000169	1.687224	0.571647	0.000068
  63	6.1690e+00	2.4850	3.230837	0.000145	1.453452	0.492443	0.000059
  64	6.2685e+00	2.5251	3.302530	0.000179	1.788864	0.606084	0.000072
  65	6.3680e+00	2.5668	3.365260	0.000157	1.565256	0.530323	0.000063
  66	6.4675e+00	2.6037	3.430843	0.000164	1.636404	0.554429	0.000066
  67	6.5670e+00	2.6406	3.498462	0.000169	1.687224	0.571647	0.000068
  68	6.6665e+00	2.6855	3.565673	0.000168	1.677060	0.568203	0.000068
  69	6.7660e+00	2.7384	3.633699	0.000170	1.697388	0.575091	0.000068
  70	6.8655e+00	2.7513	3.697245	0.000159	1.585584	0.537210	0.000064
  71	6.9650e+00	2.8058	3.765271	0.000170	1.697388	0.575091	0.000068
  72	7.0645e+00	2.8523	3.828002	0.000157	1.565256	0.530323	0.000063
  73	7.1640e+00	2.8972	3.893176	0.000163	1.626240	0.550985	0.000066
  74	7.2635e+00	2.9261	3.957537	0.000161	1.605912	0.544098	0.000065
  75	7.3630e+00	2.9566	4.022711	0.000163	1.626240	0.550985	0.000066
  76	7.4625e+00	3.0063	4.087479	0.000162	1.616076	0.547541	0.000065
  77	7.5620e+00	3.0513	4.152246	0.000162	1.616076	0.547541	0.000065
  78	7.6615e+00	3.0721	4.219458	0.000168	1.677060	0.568203	0.000068
  79	7.7610e+00	3.1202	4.280559	0.000152	1.524600	0.516549	0.000061
  80	7.8605e+00	3.1700	4.350622	0.000175	1.748208	0.592309	0.000070
  81	7.9600e+00	3.1956	4.419056	0.000171	1.707552	0.578534	0.000069
  82	8.0595e+00	3.2389	4.478120	0.000147	1.473780	0.499330	0.000059
  83	8.1590e+00	3.2550	4.546147	0.000170	1.697388	0.575091	0.000068
  84	8.2585e+00	3.3240	4.609692	0.000159	1.585584	0.537210	0.000064
  85	8.3580e+00	3.3801	4.675681	0.000165	1.646568	0.557872	0.000066
  86	8.4575e+00	3.3994	4.739227	0.000159	1.585584	0.537210	0.000064
  87	8.5570e+00	3.4395	4.803587	0.000161	1.605912	0.544098	0.000065
  88	8.6565e+00	3.4651	4.868762	0.000163	1.626240	0.550985	0.000066
  89	8.7560e+00	3.5213	4.936788	0.000170	1.697388	0.575091	0.000068
  90	8.8555e+00	3.5598	4.999926	0.000158	1.575420	0.533767	0.000063
  91	8.9550e+00	3.5823	5.069582	0.000174	1.738044	0.588865	0.000070
  92	9.0545e+00	3.6368	5.135571	0.000165	1.646568	0.557872	0.000066
  93	9.1540e+00	3.6945	5.204412	0.000172	1.717716	0.581978	0.000069
  94	9.2535e+00	3.7379	5.268772	0.000161	1.605912	0.544098	0.000065
  95	9.3530e+00	3.7651	5.338835	0.000175	1.748208	0.592309	0.000070
  96	9.4525e+00	3.7796	5.402381	0.000159	1.585584	0.537210	0.000064
  97	9.5520e+00	3.8437	5.472444	0.000175	1.748208	0.592309	0.000070
  98	9.6515e+00	3.8758	5.535582	0.000158	1.575420	0.533767	0.000063
  99	9.7510e+00	3.9063	5.607274	0.000179	1.788864	0.606084	0.000072
 100	9.8505e+00	3.9528	5.674485	0.000168	1.677060	0.568203	0.000068
 101	9.9500e+00	3.9961	5.744141	0.000174	1.738044	0.588865	0.000070
 102	1.0050e+01	4.0218	5.806872	0.000157	1.565256	0.530323	0.000063
 103	1.0149e+01	4.0812	5.874898	0.000170	1.697388	0.575091	0.000068
 104	1.0248e+01	4.1116	5.945368	0.000176	1.758372	0.595753	0.000071
 105	1.0348e+01	4.1806	6.012987	0.000169	1.687224	0.571647	0.000068
 106	1.0447e+01	4.2111	6.078977	0.000165	1.646568	0.557872	0.000066
 107	1.0547e+01	4.2159	6.150669	0.000179	1.788864	0.606084	0.000072
 108	1.0646e+01	4.2785	6.218288	0.000169	1.687224	0.571647	0.000068
 109	1.0746e+01	4.3154	6.283055	0.000162	1.616076	0.547541	0.000065
 110	1.0845e+01	4.3860	6.347823	0.000162	1.616076	0.547541	0.000065
 111	1.0945e+01	4.3683	6.415849	-0.000170	-1.697388	-0.575091	0.000068
 112	1.1044e+01	4.4517	6.487541	0.000179	1.788864	0.606084	0.000072
 113	1.1144e+01	4.4485	6.554345	-0.000167	-1.666896	-0.564760	0.000067
 114	1.1243e+01	4.5207	6.621557	0.000168	1.677060	0.568203	0.000068
 115	1.1343e+01	4.5624	6.687546	0.000165	1.646568	0.557872	0.000066
 116	1.1443e+01	4.5977	6.755980	0.000171	1.707552	0.578534	0.000069
 117	1.1542e+01	4.6459	6.820340	0.000161	1.605912	0.544098	0.000065
 118	1.1642e+01	4.6956	6.890403	0.000175	1.748208	0.592309	0.000070
 119	1.1741e+01	4.7245	6.958836	0.000171	1.707552	0.578534	0.000069
 120	1.1841e+01	4.7469	7.020345	0.000153	1.534764	0.519992	0.000062
 121	1.1940e+01	4.8095	7.088371	0.000170	1.697388	0.575091	0.000068
 122	1.2040e+01	4.8464	7.157212	0.000172	1.717716	0.581978	0.000069
 123	1.2139e+01	4.8769	7.226461	0.000173	1.727880	0.585422	0.000070
 124	1.2239e+01	4.9154	7.291635	0.000163	1.626240	0.550985	0.000066
 125	1.2338e+01	4.9282	7.356810	0.000163	1.626240	0.550985	0.000066
 126	1.2438e+01	5.0052	7.426058	0.000173	1.727880	0.585422	0.000070
 127	1.2537e+01	5.0341	7.492455	0.000166	1.656732	0.561316	0.000067
 128	1.2636e+01	5.0694	7.562518	0.000175	1.748208	0.592309	0.000070
 129	1.2736e+01	5.1175	7.626064	0.000159	1.585584	0.537210	0.000064
 130	1.2835e+01	5.1688	7.696941	0.000177	1.768536	0.599196	0.000071
 131	1.2935e+01	5.2025	7.763338	0.000166	1.656732	0.561316	0.000067
 132	1.3034e+01	5.2410	7.835438	0.000180	1.799028	0.609527	0.000072
 133	1.3134e+01	5.2956	7.907945	0.000181	1.809192	0.612971	0.000073
 134	1.3233e+01	5.2892	7.974341	-0.000166	-1.656732	-0.561316	0.000067
 135	1.3333e+01	5.3646	8.041553	0.000168	1.677060	0.568203	0.000068
 136	1.3432e+01	5.4015	8.109172	0.000169	1.687224	0.571647	0.000068
 137	1.3532e+01	5.4400	8.183716	0.000186	1.860012	0.630189	0.000075
 138	1.3632e+01	5.4881	8.244410	0.000151	1.514436	0.513105	0.000061
 139	1.3731e+01	5.5314	8.316102	0.000179	1.788864	0.606084	0.000072
 140	1.3831e+01	5.5635	8.384128	0.000170	1.697388	0.575091	0.000068
 141	1.3930e+01	5.5891	8.455413	0.000178	1.778700	0.602640	0.000072
 142	1.4030e+01	5.6293	8.517329	0.000154	1.544928	0.523436	0.000062
 143	1.4129e+01	5.6581	8.588614	0.000178	1.778700	0.602640	0.000072
 144	1.4229e+01	5.7111	8.657455	0.000172	1.717716	0.581978	0.000069
 145	1.4328e+01	5.7528	8.725074	0.000169	1.687224	0.571647	0.000068
 146	1.4428e+01	5.7913	8.789841	0.000162	1.616076	0.547541	0.000065
 147	1.4527e+01	5.8314	8.859497	0.000174	1.738044	0.588865	0.000070
 148	1.4627e+01	5.8731	8.924264	0.000162	1.616076	0.547541	0.000065
 149	1.4726e+01	5.9148	8.993105	0.000172	1.717716	0.581978	0.000069
 150	1.4825e+01	5.9565	9.061946	0.000172	1.717716	0.581978	0.000069
 151	1.4925e+01	5.9886	9.125084	0.000158	1.575420	0.533767	0.000063
 152	1.5024e+01	6.0351	9.190666	0.000164	1.636404	0.554429	0.000066
 153	1.5124e+01	6.0560	9.256656	0.000165	1.646568	0.557872	0.000066
 154	1.5223e+01	6.1153	9.323460	0.000167	1.666896	0.564760	0.000067
 155	1.5323e+01	6.1458	9.391486	0.000170	1.697388	0.575091	0.000068
 156	1.5422e+01	6.1875	9.455846	0.000161	1.605912	0.544098	0.000065
 157	1.5522e+01	6.2132	9.525502	0.000174	1.738044	0.588865	0.000070
 158	1.5621e+01	6.2742	9.592713	0.000168	1.677060	0.568203	0.000068
 159	1.5721e+01	6.3207	9.663591	0.000177	1.768536	0.599196	0.000071
 160	1.5820e+01	6.3608	9.726322	0.000157	1.565256	0.530323	0.000063
 161	1.5920e+01	6.4041	9.791497	0.000163	1.626240	0.550985	0.000066
 162	1.6020e+01	6.4266	9.861152	0.000174	1.738044	0.588865	0.000070
 163	1.6119e+01	6.4811	9.920624	0.000148	1.483944	0.502774	0.000060
 164	1.6218e+01	6.5020	9.986206	0.000164	1.636404	0.554429	0.000066
 165	1.6318e+01	6.5613	10.050566	0.000161	1.605912	0.544098	0.000065
 166	1.6418e+01	6.5790	10.119815	0.000173	1.727880	0.585422	0.000070
 167	1.6517e+01	6.6560	10.184175	0.000161	1.605912	0.544098	0.000065
 168	1.6616e+01	6.6640	10.251386	0.000168	1.677060	0.568203	0.000068
 169	1.6716e+01	6.6864	10.314932	0.000159	1.585584	0.537210	0.000064
 170	1.6816e+01	6.7570	10.379699	0.000162	1.616076	0.547541	0.000065
 171	1.6915e+01	6.7715	10.444467	0.000162	1.616076	0.547541	0.000065
 172	1.7015e+01	6.8308	10.511271	0.000167	1.666896	0.564760	0.000067
 173	1.7114e+01	6.8693	10.579704	0.000171	1.707552	0.578534	0.000069
 174	1.7213e+01	6.9110	10.638769	0.000147	1.473780	0.499330	0.000059
 175	1.7313e+01	6.9576	10.700685	0.000154	1.544928	0.523436	0.000062
 176	1.7413e+01	6.9768	10.769119	0.000171	1.707552	0.578534	0.000069
 177	1.7512e+01	6.9800	10.827369	0.000145	1.453452	0.492443	0.000059
 178	1.7611e+01	7.0570	10.887655	0.000150	1.504272	0.509661	0.000061
 179	1.7711e+01	7.1084	10.949979	0.000156	1.555092	0.526880	0.000063
 180	1.7811e+01	7.1485	11.014746	0.000162	1.616076	0.547541	0.000065
 181	1.7910e+01	7.1870	11.077884	0.000158	1.575420	0.533767	0.000063
 182	1.8009e+01	7.2255	11.139800	0.000154	1.544928	0.523436	0.000062
 183	1.8109e+01	7.2688	11.200494	0.000151	1.514436	0.513105	0.000061
 184	1.8209e+01	7.3137	11.264447	0.000160	1.595748	0.540654	0.000064
 185	1.8308e+01	7.3506	11.322697	0.000145	1.453452	0.492443	0.000059
 186	1.8407e+01	7.3634	11.379725	0.000142	1.422960	0.482112	0.000057
 187	1.8507e+01	7.4244	11.443271	0.000159	1.585584	0.537210	0.000064
 188	1.8607e+01	7.4645	11.506001	0.000157	1.565256	0.530323	0.000063
 189	1.8706e+01	7.5030	11.569954	0.000160	1.595748	0.540654	0.000064
 190	1.8805e+01	7.5319	11.627797	0.000144	1.443288	0.488999	0.000058
 191	1.8905e+01	7.5944	11.689306	0.000153	1.534764	0.519992	0.000062
 192	1.9005e+01	7.6265	11.748370	0.000147	1.473780	0.499330	0.000059
 193	1.9104e+01	7.6779	11.806620	0.000145	1.453452	0.492443	0.000059
 194	1.9203e+01	7.6891	11.869351	0.000157	1.565256	0.530323	0.000063
 195	1.9303e+01	7.7677	11.932489	0.000158	1.575420	0.533767	0.000063
 196	1.9402e+01	7.7837	11.990332	0.000144	1.443288	0.488999	0.000058
 197	1.9502e+01	7.8527	12.051840	0.000153	1.534764	0.519992	0.000062
 198	1.9602e+01	7.8527	12.110498	-0.000146	-1.463616	-0.495887	0.000059
 199	1.9701e+01	7.9008	12.173228	0.000157	1.565256	0.530323	0.000063
 200	1.9800e+01	7.9522	12.227405	0.000135	1.351812	0.458006	0.000054
 201	1.9900e+01	7.9891	12.289728	0.000156	1.555092	0.526880	0.000063
 202	2.0000e+01	8.0196	12.350422	0.000151	1.514436	0.513105	0.000061
 203	2.0099e+01	8.0581	12.411931	0.000153	1.534764	0.519992	0.000062
 204	2.0198e+01	8.1030	12.468552	0.000141	1.412796	0.478668	0.000057
 205	2.0298e+01	8.1303	12.532097	0.000159	1.585584	0.537210	0.000064
 206	2.0398e+01	8.1912	12.589533	0.000143	1.433124	0.485556	0.000058
 207	2.0497e+01	8.2329	12.648597	0.000147	1.473780	0.499330	0.000059
 208	2.0596e+01	8.2602	12.705625	0.000142	1.422960	0.482112	0.000057
 209	2.0696e+01	8.3147	12.765505	0.000149	1.494108	0.506218	0.000060
 210	2.0796e+01	8.3468	12.827421	0.000154	1.544928	0.523436	0.000062
 211	2.0895e+01	8.3821	12.887300	0.000149	1.494108	0.506218	0.000060
 212	2.0994e+01	8.4158	12.946772	0.000148	1.483944	0.502774	0.000060
 213	2.1094e+01	8.4607	13.002578	0.000139	1.392468	0.471781	0.000056
 214	2.1194e+01	8.5008	13.057977	0.000138	1.382304	0.468337	0.000056
 215	2.1293e+01	8.5570	13.117041	0.000147	1.473780	0.499330	0.000059
 216	2.1392e+01	8.5859	13.176106	0.000147	1.473780	0.499330	0.000059
 217	2.1492e+01	8.6340	13.226209	0.000125	1.250172	0.423570	0.000050
 218	2.1591e+01	8.6677	13.287310	0.000152	1.524600	0.516549	0.000061
 219	2.1691e+01	8.6949	13.341080	0.000134	1.341648	0.454563	0.000054
 220	2.1791e+01	8.7495	13.397700	0.000141	1.412796	0.478668	0.000057
 221	2.1890e+01	8.7880	13.451062	0.000133	1.331484	0.451119	0.000054
 222	2.1989e+01	8.7960	13.510941	0.000149	1.494108	0.506218	0.000060
 223	2.2089e+01	8.8554	13.567155	0.000140	1.402632	0.475225	0.000056
 224	2.2189e+01	8.9115	13.624590	0.000143	1.433124	0.485556	0.000058
 225	2.2288e+01	8.9276	13.677952	0.000133	1.331484	0.451119	0.000054
 226	2.2387e+01	9.0014	13.737424	0.000148	1.483944	0.502774	0.000060
 227	2.2487e+01	9.0110	13.787527	0.000125	1.250172	0.423570	0.000050
 228	2.2587e+01	9.0543	13.847406	0.000149	1.494108	0.506218	0.000060
 229	2.2686e+01	9.1104	13.906878	0.000148	1.483944	0.502774	0.000060
 230	2.2785e+01	9.1185	13.960240	0.000133	1.331484	0.451119	0.000054
 231	2.2885e+01	9.1906	14.014824	0.000136	1.361976	0.461450	0.000055
 232	2.2985e+01	9.2211	14.071445	0.000141	1.412796	0.478668	0.000057
 233	2.3084e+01	9.2516	14.130509	0.000147	1.473780	0.499330	0.000059
 234	2.3183e+01	9.3110	14.188759	0.000145	1.453452	0.492443	0.000059
 235	2.3283e+01	9.3238	14.246195	0.000143	1.433124	0.485556	0.000058
 236	2.3383e+01	9.3944	14.299964	0.000134	1.341648	0.454563	0.000054
 237	2.3482e+01	9.4185	14.355363	0.000138	1.382304	0.468337	0.000056
 238	2.3581e+01	9.4489	14.417279	0.000154	1.544928	0.523436	0.000062
 239	2.3681e+01	9.4906	14.471862	0.000136	1.361976	0.461450	0.000055
 240	2.3780e+01	9.5307	14.525224	0.000133	1.331484	0.451119	0.000054
 241	2.3880e+01	9.5805	14.583067	0.000144	1.443288	0.488999	0.000058
 242	2.3980e+01	9.6126	14.638058	0.000137	1.372140	0.464894	0.000055
 243	2.4079e+01	9.6398	14.696308	0.000145	1.453452	0.492443	0.000059
 244	2.4178e+01	9.6944	14.751299	0.000137	1.372140	0.464894	0.000055
 245	2.4278e+01	9.7329	14.805883	0.000136	1.361976	0.461450	0.000055
 246	2.4378e+01	9.7778	14.865355	0.000148	1.483944	0.502774	0.000060
 247	2.4477e+01	9.8195	14.917903	0.000131	1.311156	0.444232	0.000053
 248	2.4576e+01	9.8676	14.970857	0.000132	1.321320	0.447675	0.000053
 249	2.4676e+01	9.8965	15.031959	0.000152	1.524600	0.516549	0.000061
 250	2.4776e+01	9.9462	15.091431	0.000148	1.483944	0.502774	0.000060
 251	2.4875e+01	9.9703	15.143570	0.000130	1.300992	0.440788	0.000052
 252	2.4974e+01	10.0313	15.197340	0.000134	1.341648	0.454563	0.000054
 253	2.5074e+01	10.0634	15.254368	0.000142	1.422960	0.482112	0.000057
 254	2.5174e+01	10.1002	15.310581	0.000140	1.402632	0.475225	0.000056
 255	2.5273e+01	10.1163	15.366794	0.000140	1.402632	0.475225	0.000056
 256	2.5372e+01	10.1612	15.423822	0.000142	1.422960	0.482112	0.000057
 257	2.5472e+01	10.1981	15.476777	0.000132	1.321320	0.447675	0.000053
 258	2.5572e+01	10.2478	15.536656	0.000149	1.494108	0.506218	0.000060
 259	2.5671e+01	10.3056	15.594906	0.000145	1.453452	0.492443	0.000059
 260	2.5770e+01	10.3521	15.655193	0.000150	1.504272	0.509661	0.000061
 261	2.5870e+01	10.3601	15.714257	0.000147	1.473780	0.499330	0.000059
 262	2.5970e+01	10.4067	15.770878	0.000141	1.412796	0.478668	0.000057
 263	2.6069e+01	10.4612	15.825869	0.000137	1.372140	0.464894	0.000055
 264	2.6169e+01	10.4965	15.891044	0.000163	1.626240	0.550985	0.000066
 265	2.6268e+01	10.5334	15.943998	0.000132	1.321320	0.447675	0.000053
 266	2.6367e+01	10.5559	16.000619	0.000141	1.412796	0.478668	0.000057
 267	2.6467e+01	10.5944	16.062128	0.000153	1.534764	0.519992	0.000062
 268	2.6567e+01	10.6665	16.124451	0.000156	1.555092	0.526880	0.000063
 269	2.6666e+01	10.7034	16.179035	0.000136	1.361976	0.461450	0.000055
 270	2.6765e+01	10.7548	16.236878	0.000144	1.443288	0.488999	0.000058
 271	2.6865e+01	10.7837	16.295942	0.000147	1.473780	0.499330	0.000059
 272	2.6965e+01	10.8238	16.357044	0.000152	1.524600	0.516549	0.000061
 273	2.7064e+01	10.8703	16.414479	0.000143	1.433124	0.485556	0.000058
 274	2.7163e+01	10.9088	16.471100	0.000141	1.412796	0.478668	0.000057
 275	2.7263e+01	10.9184	16.531386	0.000150	1.504272	0.509661	0.000061
 276	2.7363e+01	11.0066	16.589229	0.000144	1.443288	0.488999	0.000058
 277	2.7462e+01	11.0227	16.647886	0.000146	1.463616	0.495887	0.000059
 278	2.7561e+01	11.0580	16.707766	0.000149	1.494108	0.506218	0.000060
 279	2.7661e+01	11.0852	16.764386	0.000141	1.412796	0.478668	0.000057
 280	2.7761e+01	11.1366	16.823044	0.000146	1.463616	0.495887	0.000059
 281	2.7860e+01	11.1703	16.882108	0.000147	1.473780	0.499330	0.000059
 282	2.7959e+01	11.2168	16.943617	0.000153	1.534764	0.519992	0.000062
 283	2.8059e+01	11.2521	16.993313	0.000124	1.240008	0.420126	0.000050
 284	2.8159e+01	11.2665	17.052785	0.000148	1.483944	0.502774	0.000060
 285	2.8258e+01	11.3259	17.119182	0.000166	1.656732	0.561316	0.000067
 286	2.8358e+01	11.3868	17.174173	0.000137	1.372140	0.464894	0.000055
 287	2.8457e+01	11.4334	17.234867	0.000151	1.514436	0.513105	0.000061
 288	2.8556e+01	11.4430	17.293932	0.000147	1.473780	0.499330	0.000059
 289	2.8656e+01	11.5088	17.351774	0.000144	1.443288	0.488999	0.000058
 290	2.8756e+01	11.5216	17.410432	0.000146	1.463616	0.495887	0.000059
 291	2.8855e+01	11.5729	17.468682	0.000145	1.453452	0.492443	0.000059
 292	2.8954e+01	11.6146	17.527339	0.000146	1.463616	0.495887	0.000059
 293	2.9054e+01	11.6435	17.588440	0.000152	1.524600	0.516549	0.000061
 294	2.9154e+01	11.6820	17.646283	0.000144	1.443288	0.488999	0.000058
 295	2.9253e+01	11.7269	17.706977	0.000151	1.514436	0.513105	0.000061
 296	2.9352e+01	11.7526	17.761561	0.000136	1.361976	0.461450	0.000055
 297	2.9452e+01	11.7975	17.823884	0.000156	1.555092	0.526880	0.000063
 298	2.9552e+01	11.8713	17.881727	0.000144	1.443288	0.488999	0.000058
 299	2.9651e+01	11.8842	17.944865	0.000158	1.575420	0.533767	0.000063
 300	2.9750e+01	11.9323	18.004337	0.000148	1.483944	0.502774	0.000060
 301	2.9850e+01	11.9756	18.064624	0.000150	1.504272	0.509661	0.000061
 302	2.9950e+01	11.9916	18.124096	0.000148	1.483944	0.502774	0.000060
 303	3.0049e+01	12.0478	18.187641	0.000159	1.585584	0.537210	0.000064
 304	3.0148e+01	12.0719	18.245077	0.000143	1.433124	0.485556	0.000058
 305	3.0248e+01	12.1184	18.306993	0.000154	1.544928	0.523436	0.000062
 306	3.0348e+01	12.1713	18.364835	0.000144	1.443288	0.488999	0.000058
 307	3.0447e+01	12.2018	18.425122	0.000150	1.504272	0.509661	0.000061
 308	3.0547e+01	12.2371	18.481335	0.000140	1.402632	0.475225	0.000056
 309	3.0646e+01	12.2932	18.542029	0.000151	1.514436	0.513105	0.000061
 310	3.0745e+01	12.3398	18.605167	0.000158	1.575420	0.533767	0.000063
 311	3.0845e+01	12.3654	18.664232	0.000147	1.473780	0.499330	0.000059
 312	3.0945e+01	12.4280	18.725741	0.000153	1.534764	0.519992	0.000062
 313	3.1044e+01	12.4424	18.784398	0.000146	1.463616	0.495887	0.000059
 314	3.1143e+01	12.4906	18.842648	0.000145	1.453452	0.492443	0.000059
 315	3.1243e+01	12.5387	18.898454	0.000139	1.392468	0.471781	0.000056
 316	3.1343e+01	12.5916	18.963629	0.000163	1.626240	0.550985	0.000066
 317	3.1442e+01	12.6253	19.022693	0.000147	1.473780	0.499330	0.000059
 318	3.1541e+01	12.6430	19.081351	0.000146	1.463616	0.495887	0.000059
 319	3.1641e+01	12.6702	19.133491	0.000130	1.300992	0.440788	0.000052
 320	3.1741e+01	12.7248	19.194185	0.000151	1.514436	0.513105	0.000061
 321	3.1840e+01	12.7889	19.252842	0.000146	1.463616	0.495887	0.000059
 322	3.1939e+01	12.7809	19.311092	-0.000145	-1.453452	-0.492443	0.000059
 323	3.2039e+01	12.8403	19.368935	0.000144	1.443288	0.488999	0.000058
 324	3.2139e+01	12.8948	19.430036	0.000152	1.524600	0.516549	0.000061
 325	3.2238e+01	12.9221	19.485842	0.000139	1.392468	0.471781	0.000056
 326	3.2337e+01	12.9606	19.545314	0.000148	1.483944	0.502774	0.000060
 327	3.2437e+01	13.0135	19.601935	0.000141	1.412796	0.478668	0.000057
 328	3.2536e+01	13.0488	19.664258	0.000156	1.555092	0.526880	0.000063
 329	3.2636e+01	13.0793	19.719657	0.000138	1.382304	0.468337	0.000056
 330	3.2736e+01	13.1066	19.779129	0.000148	1.483944	0.502774	0.000060
 331	3.2835e+01	13.1708	19.835342	0.000140	1.402632	0.475225	0.000056
 332	3.2934e+01	13.2044	19.895221	0.000149	1.494108	0.506218	0.000060
 333	3.3034e+01	13.2478	19.951842	0.000141	1.412796	0.478668	0.000057
 334	3.3133e+01	13.2782	20.009277	0.000143	1.433124	0.485556	0.000058
 335	3.3233e+01	13.3264	20.068342	0.000147	1.473780	0.499330	0.000059
 336	3.3333e+01	13.3520	20.124555	0.000140	1.402632	0.475225	0.000056
 337	3.3432e+01	13.4002	20.185249	0.000151	1.514436	0.513105	0.000061
 338	3.3532e+01	13.4306	20.240648	0.000138	1.382304	0.468337	0.000056
 339	3.3631e+01	13.4804	20.301342	0.000151	1.514436	0.513105	0.000061
 340	3.3730e+01	13.5253	20.355111	0.000134	1.341648	0.454563	0.000054
 341	3.3830e+01	13.5750	20.416620	0.000153	1.534764	0.519992	0.000062
 342	3.3929e+01	13.6135	20.472426	0.000139	1.392468	0.471781	0.000056
 343	3.4029e+01	13.6472	20.524158	0.000129	1.290828	0.437344	0.000052
 344	3.4129e+01	13.6761	20.582408	0.000145	1.453452	0.492443	0.000059
 345	3.4228e+01	13.7130	20.637807	0.000138	1.382304	0.468337	0.000056
 346	3.4328e+01	13.7659	20.690354	0.000131	1.311156	0.444232	0.000053
 347	3.4427e+01	13.7916	20.749826	0.000148	1.483944	0.502774	0.000060
 348	3.4526e+01	13.8189	20.804002	0.000135	1.351812	0.458006	0.000054
 349	3.4626e+01	13.8927	20.856957	0.000132	1.321320	0.447675	0.000053
 350	3.4725e+01	13.9215	20.910726	0.000134	1.341648	0.454563	0.000054
 351	3.4825e+01	13.9616	20.966939	0.000140	1.402632	0.475225	0.000056
 352	3.4925e+01	13.9921	21.021523	0.000136	1.361976	0.461450	0.000055
 353	3.5024e+01	14.0242	21.074885	0.000133	1.331484	0.451119	0.000054
 354	3.5123e+01	14.0787	21.125396	0.000126	1.260336	0.427013	0.000051
 355	3.5223e+01	14.1237	21.179980	0.000136	1.361976	0.461450	0.000055
 356	3.5322e+01	14.1461	21.232527	0.000131	1.311156	0.444232	0.000053
 357	3.5422e+01	14.2135	21.285889	0.000133	1.331484	0.451119	0.000054
 358	3.5522e+01	14.2648	21.338436	0.000131	1.311156	0.444232	0.000053
 359	3.5621e+01	14.2648	21.395057	-0.000141	-1.412796	-0.478668	0.000057
 360	3.5721e+01	14.3258	21.448826	0.000134	1.341648	0.454563	0.000054
 361	3.5820e+01	14.3659	21.500558	0.000129	1.290828	0.437344	0.000052
 362	3.5919e+01	14.3948	21.557179	0.000141	1.412796	0.478668	0.000057
 363	3.6019e+01	14.4654	21.610133	0.000132	1.321320	0.447675	0.000053
 364	3.6118e+01	14.4814	21.662681	0.000131	1.311156	0.444232	0.000053
 365	3.6218e+01	14.5039	21.715635	0.000132	1.321320	0.447675	0.000053
 366	3.6318e+01	14.5520	21.768997	0.000133	1.331484	0.451119	0.000054
 367	3.6417e+01	14.6049	21.821951	0.000132	1.321320	0.447675	0.000053
 368	3.6517e+01	14.6482	21.874091	0.000130	1.300992	0.440788	0.000052
 369	3.6616e+01	14.6803	21.925009	0.000127	1.270500	0.430457	0.000051
 370	3.6715e+01	14.7477	21.982037	0.000142	1.422960	0.482112	0.000057
 371	3.6815e+01	14.7317	22.031326	-0.000123	-1.229844	-0.416682	0.000050
 372	3.6914e+01	14.7926	22.086317	0.000137	1.372140	0.464894	0.000055
 373	3.7014e+01	14.8424	22.138457	0.000130	1.300992	0.440788	0.000052
 374	3.7114e+01	14.8761	22.192633	0.000135	1.351812	0.458006	0.000054
 375	3.7213e+01	14.9338	22.241922	0.000123	1.229844	0.416682	0.000050
 376	3.7313e+01	14.9691	22.298542	0.000141	1.412796	0.478668	0.000057
 377	3.7412e+01	14.9900	22.343350	0.000112	1.118040	0.378802	0.000045
 378	3.7511e+01	15.0477	22.403229	0.000149	1.494108	0.506218	0.000060
 379	3.7611e+01	15.0862	22.453740	0.000126	1.260336	0.427013	0.000051
 380	3.7711e+01	15.1151	22.505065	0.000128	1.280664	0.433901	0.000052
 381	3.7810e+01	15.1375	22.550280	0.000113	1.128204	0.382246	0.000045
 382	3.7910e+01	15.2001	22.604457	0.000135	1.351812	0.458006	0.000054
 383	3.8009e+01	15.2354	22.657411	0.000132	1.321320	0.447675	0.000053
 384	3.8108e+01	15.2530	22.704663	0.000118	1.179024	0.399464	0.000047
 385	3.8208e+01	15.3236	22.752729	0.000120	1.199352	0.406352	0.000048
 386	3.8307e+01	15.3525	22.807313	0.000136	1.361976	0.461450	0.000055
 387	3.8407e+01	15.3846	22.854158	0.000117	1.168860	0.396021	0.000047
 388	3.8507e+01	15.4423	22.903039	0.000122	1.219680	0.413239	0.000049
 389	3.8606e+01	15.4825	22.953956	0.000127	1.270500	0.430457	0.000051
 390	3.8706e+01	15.5081	23.004874	0.000127	1.270500	0.430457	0.000051
 391	3.8805e+01	15.5578	23.055385	0.000126	1.260336	0.427013	0.000051
 392	3.8904e+01	15.5996	23.106710	0.000128	1.280664	0.433901	0.000052
 393	3.9004e+01	15.6349	23.154776	0.000120	1.199352	0.406352	0.000048
 394	3.9103e+01	15.6718	23.201621	0.000117	1.168860	0.396021	0.000047
 395	3.9203e+01	15.7103	23.253761	0.000130	1.300992	0.440788	0.000052
 396	3.9303e+01	15.7455	23.300198	0.000116	1.158696	0.392577	0.000047
 397	3.9402e+01	15.7921	23.351523	0.000128	1.280664	0.433901	0.000052
 398	3.9502e+01	15.8338	23.402441	0.000127	1.270500	0.430457	0.000051
 399	3.9601e+01	15.8755	23.451729	0.000123	1.229844	0.416682	0.000050
 400	3.9700e+01	15.8867	23.499388	0.000119	1.189188	0.402908	0.000048
 401	3.9800e+01	15.9429	23.550713	0.000128	1.280664	0.433901	0.000052
 402	3.9900e+01	15.9910	23.604075	0.000133	1.331484	0.451119	0.000054
 403	3.9999e+01	16.0215	23.656215	0.000130	1.300992	0.440788	0.000052
 404	4.0099e+01	16.0696	23.704281	0.000120	1.199352	0.406352	0.000048
 405	4.0198e+01	16.1161	23.756014	0.000129	1.290828	0.437344	0.000052
 406	4.0297e+01	16.1578	23.803266	0.000118	1.179024	0.399464	0.000047
 407	4.0397e+01	16.1915	23.856220	0.000132	1.321320	0.447675	0.000053
 408	4.0496e+01	16.2541	23.902657	0.000116	1.158696	0.392577	0.000047
 409	4.0596e+01	16.2621	23.951946	0.000123	1.229844	0.416682	0.000050
 410	4.0696e+01	16.2798	24.002456	0.000126	1.260336	0.427013	0.000051
 411	4.0795e+01	16.3439	24.052152	0.000124	1.240008	0.420126	0.000050
 412	4.0895e+01	16.3792	24.101848	0.000124	1.240008	0.420126	0.000050
 413	4.0994e+01	16.4306	24.154802	0.000132	1.321320	0.447675	0.000053
 414	4.1093e+01	16.4787	24.203276	0.000121	1.209516	0.409795	0.000049
 415	4.1193e+01	16.5060	24.250528	0.000118	1.179024	0.399464	0.000047
 416	4.1292e+01	16.5477	24.301446	0.000127	1.270500	0.430457	0.000051
 417	4.1392e+01	16.5862	24.350734	0.000123	1.229844	0.416682	0.000050
 418	4.1492e+01	16.6247	24.400837	0.000125	1.250172	0.423570	0.000050
 419	4.1591e+01	16.6760	24.453384	0.000131	1.311156	0.444232	0.000053
 420	4.1691e+01	16.7273	24.499414	0.000115	1.148532	0.389133	0.000046
 421	4.1790e+01	16.7466	24.546258	0.000117	1.168860	0.396021	0.000047
 422	4.1889e+01	16.7899	24.600842	0.000136	1.361976	0.461450	0.000055
 423	4.1989e+01	16.8300	24.650946	0.000125	1.250172	0.423570	0.000050
 424	4.2089e+01	16.8765	24.702271	0.000128	1.280664	0.433901	0.000052
 425	4.2188e+01	16.9150	24.749115	0.000117	1.168860	0.396021	0.000047
 426	4.2288e+01	16.9535	24.802477	0.000133	1.331484	0.451119	0.000054
 427	4.2387e+01	17.0097	24.855839	0.000133	1.331484	0.451119	0.000054
 428	4.2486e+01	17.0081	24.902276	-0.000116	-1.158696	-0.392577	0.000047
 429	4.2586e+01	17.0658	24.954008	0.000129	1.290828	0.437344	0.000052
 430	4.2685e+01	17.1124	25.004519	0.000126	1.260336	0.427013	0.000051
 431	4.2785e+01	17.1605	25.060732	0.000140	1.402632	0.475225	0.000056
 432	4.2885e+01	17.1813	25.113279	0.000131	1.311156	0.444232	0.000053
 433	4.2984e+01	17.2439	25.165827	0.000131	1.311156	0.444232	0.000053
 434	4.3084e+01	17.2744	25.222854	0.000142	1.422960	0.482112	0.000057
 435	4.3183e+01	17.3097	25.267662	0.000112	1.118040	0.378802	0.000045
 436	4.3282e+01	17.3385	25.321839	0.000135	1.351812	0.458006	0.000054
 437	4.3382e+01	17.3867	25.373164	0.000128	1.280664	0.433901	0.000052
 438	4.3481e+01	17.4364	25.428970	0.000139	1.392468	0.471781	0.000056
 439	4.3581e+01	17.4701	25.483554	0.000136	1.361976	0.461450	0.000055
 440	4.3681e+01	17.4974	25.534879	0.000128	1.280664	0.433901	0.000052
 441	4.3780e+01	17.5311	25.584982	0.000125	1.250172	0.423570	0.000050
 442	4.3880e+01	17.5647	25.635900	0.000127	1.270500	0.430457	0.000051
 443	4.3979e+01	17.6321	25.690076	0.000135	1.351812	0.458006	0.000054
 444	4.4078e+01	17.6770	25.740587	0.000126	1.260336	0.427013	0.000051
 445	4.4178e+01	17.6995	25.798429	0.000144	1.443288	0.488999	0.000058
 446	4.4278e+01	17.7460	25.844459	0.000115	1.148532	0.389133	0.000046
 447	4.4377e+01	17.7990	25.894970	0.000126	1.260336	0.427013	0.000051
 448	4.4477e+01	17.8182	25.951590	0.000141	1.412796	0.478668	0.000057
 449	4.4576e+01	17.8904	26.003730	0.000130	1.300992	0.440788	0.000052
 450	4.4675e+01	17.9064	26.052611	0.000122	1.219680	0.413239	0.000049
 451	4.4775e+01	17.9417	26.112491	0.000149	1.494108	0.506218	0.000060
 452	4.4874e+01	17.9899	26.162186	0.000124	1.240008	0.420126	0.000050
 453	4.4974e+01	18.0187	26.213104	0.000127	1.270500	0.430457	0.000051
 454	4.5074e+01	18.0637	26.266873	0.000134	1.341648	0.454563	0.000054
 455	4.5173e+01	18.0845	26.318606	0.000129	1.290828	0.437344	0.000052
 456	4.5273e+01	18.1375	26.368709	0.000125	1.250172	0.423570	0.000050
 457	4.5372e+01	18.1599	26.424515	0.000139	1.392468	0.471781	0.000056
 458	4.5471e+01	18.2241	26.474618	0.000125	1.250172	0.423570	0.000050
 459	4.5571e+01	18.2658	26.525536	0.000127	1.270500	0.430457	0.000051
 460	4.5670e+01	18.3043	26.579305	0.000134	1.341648	0.454563	0.000054
 461	4.5770e+01	18.3412	26.630223	0.000127	1.270500	0.430457	0.000051
 462	4.5870e+01	18.3861	26.683178	0.000132	1.321320	0.447675	0.000053
 463	4.5969e+01	18.4102	26.742242	0.000147	1.473780	0.499330	0.000059
 464	4.6069e+01	18.4679	26.791123	0.000122	1.219680	0.413239	0.000049
 465	4.6168e+01	18.5048	26.845707	0.000136	1.361976	0.461450	0.000055
 466	4.6267e+01	18.5209	26.901513	0.000139	1.392468	0.471781	0.000056
 467	4.6367e+01	18.5754	26.951616	0.000125	1.250172	0.423570	0.000050
 468	4.6467e+01	18.6171	27.010681	0.000147	1.473780	0.499330	0.000059
 469	4.6566e+01	18.6572	27.061599	0.000127	1.270500	0.430457	0.000051
 470	4.6666e+01	18.7038	27.119441	0.000144	1.443288	0.488999	0.000058
 471	4.6765e+01	18.7326	27.171989	0.000131	1.311156	0.444232	0.000053
 472	4.6864e+01	18.7824	27.222499	0.000126	1.260336	0.427013	0.000051
 473	4.6964e+01	18.8321	27.276676	0.000135	1.351812	0.458006	0.000054
 474	4.7063e+01	18.8562	27.334111	0.000143	1.433124	0.485556	0.000058
 475	4.7163e+01	18.9011	27.385843	0.000129	1.290828	0.437344	0.000052
 476	4.7263e+01	18.9299	27.444501	0.000146	1.463616	0.495887	0.000059
 477	4.7362e+01	18.9797	27.492567	0.000120	1.199352	0.406352	0.000048
 478	4.7462e+01	19.0310	27.547966	0.000138	1.382304	0.468337	0.000056
 479	4.7561e+01	19.0615	27.600106	0.000130	1.300992	0.440788	0.000052
 480	4.7660e+01	19.1112	27.658763	0.000146	1.463616	0.495887	0.000059
 481	4.7760e+01	19.1417	27.707644	0.000122	1.219680	0.413239	0.000049
 482	4.7859e+01	19.1995	27.761413	0.000134	1.341648	0.454563	0.000054
 483	4.7959e+01	19.2107	27.813960	0.000131	1.311156	0.444232	0.000053
 484	4.8059e+01	19.2733	27.866915	0.000132	1.321320	0.447675	0.000053
 485	4.8158e+01	19.2989	27.920277	0.000133	1.331484	0.451119	0.000054
 486	4.8258e+01	19.3422	27.970787	0.000126	1.260336	0.427013	0.000051
 487	4.8357e+01	19.3727	28.022112	0.000128	1.280664	0.433901	0.000052
 488	4.8456e+01	19.4192	28.073845	0.000129	1.290828	0.437344	0.000052
 489	4.8556e+01	19.4481	28.126392	0.000131	1.311156	0.444232	0.000053
 490	4.8656e+01	19.4818	28.174866	0.000121	1.209516	0.409795	0.000049
 491	4.8755e+01	19.5283	28.230672	0.000139	1.392468	0.471781	0.000056
 492	4.8855e+01	19.5925	28.279146	0.000121	1.209516	0.409795	0.000049
 493	4.8954e+01	19.6134	28.334544	0.000138	1.382304	0.468337	0.000056
 494	4.9053e+01	19.6470	28.389535	0.000137	1.372140	0.464894	0.000055
 495	4.9153e+01	19.6936	28.441268	0.000129	1.290828	0.437344	0.000052
 496	4.9252e+01	19.7417	28.492593	0.000128	1.280664	0.433901	0.000052
 497	4.9352e+01	19.7994	28.544733	0.000130	1.300992	0.440788	0.000052
 498	4.9452e+01	19.8251	28.593207	0.000121	1.209516	0.409795	0.000049
 499	4.9551e+01	19.8492	28.649013	0.000139	1.392468	0.471781	0.000056
 500	4.9651e+01	19.8973	28.700338	0.000128	1.280664	0.433901	0.000052
 501	4.9750e+01	19.9326	28.752070	0.000129	1.290828	0.437344	0.000052
 502	4.9849e+01	19.9919	28.806247	0.000135	1.351812	0.458006	0.000054
 503	4.9949e+01	20.0224	28.857165	0.000127	1.270500	0.430457	0.000051
 504	5.0048e+01	19.9759	28.823355	0.000084	0.843612	0.285824	-0.000034
 505	5.0148e+01	19.9358	28.786287	0.000092	0.924924	0.313373	-0.000037
 506	5.0248e+01	19.8941	28.745146	0.000103	1.026564	0.347809	-0.000041
 507	5.0347e+01	19.8476	28.708077	0.000092	0.924924	0.313373	-0.000037
 508	5.0447e+01	19.8283	28.668565	0.000099	0.985908	0.334035	-0.000040
 509	5.0546e+01	19.7690	28.632719	0.000089	0.894432	0.303042	-0.000036
 510	5.0645e+01	19.7224	28.585467	0.000118	1.179024	0.399464	-0.000047
 511	5.0745e+01	19.7224	28.543918	0.000104	1.036728	0.351253	-0.000042
 512	5.0844e+01	19.6615	28.503999	0.000100	0.996072	0.337478	-0.000040
 513	5.0944e+01	19.6182	28.462857	0.000103	1.026564	0.347809	-0.000041
 514	5.1044e+01	19.5845	28.420493	0.000106	1.057056	0.358140	-0.000043
 515	5.1143e+01	19.5428	28.375686	0.000112	1.118040	0.378802	-0.000045
 516	5.1242e+01	19.4946	28.334137	0.000104	1.036728	0.351253	-0.000042
 517	5.1342e+01	19.4561	28.290959	0.000108	1.077384	0.365028	-0.000043
 518	5.1441e+01	19.4208	28.249410	0.000104	1.036728	0.351253	-0.000042
 519	5.1541e+01	19.3711	28.203380	0.000115	1.148532	0.389133	-0.000046
 520	5.1641e+01	19.3599	28.158980	0.000111	1.107876	0.375359	-0.000045
 521	5.1740e+01	19.3198	28.119467	0.000099	0.985908	0.334035	-0.000040
 522	5.1840e+01	19.2364	28.071401	0.000120	1.199352	0.406352	-0.000048
 523	5.1939e+01	19.2171	28.024557	0.000117	1.168860	0.396021	-0.000047
 524	5.2038e+01	19.1722	27.986674	0.000095	0.945252	0.320260	-0.000038
 525	5.2138e+01	19.1545	27.939015	0.000119	1.189188	0.402908	-0.000048
 526	5.2237e+01	19.0856	27.895836	0.000108	1.077384	0.365028	-0.000043
 527	5.2337e+01	19.0823	27.847770	0.000120	1.199352	0.406352	-0.000048
 528	5.2437e+01	19.0262	27.804999	0.000107	1.067220	0.361584	-0.000043
 529	5.2536e+01	18.9829	27.760599	0.000111	1.107876	0.375359	-0.000045
 530	5.2636e+01	18.9251	27.712939	0.000119	1.189188	0.402908	-0.000048
 531	5.2735e+01	18.8963	27.671798	0.000103	1.026564	0.347809	-0.000041
 532	5.2834e+01	18.8337	27.625768	0.000115	1.148532	0.389133	-0.000046
 533	5.2934e+01	18.8128	27.578516	0.000118	1.179024	0.399464	-0.000047
 534	5.3033e+01	18.8064	27.532079	0.000116	1.158696	0.392577	-0.000047
 535	5.3133e+01	18.7631	27.482384	0.000124	1.240008	0.420126	-0.000050
 536	5.3233e+01	18.6925	27.439613	0.000107	1.067220	0.361584	-0.000043
 537	5.3332e+01	18.6540	27.390324	0.000123	1.229844	0.416682	-0.000050
 538	5.3431e+01	18.6380	27.345516	0.000112	1.118040	0.378802	-0.000045
 539	5.3531e+01	18.5963	27.299079	0.000116	1.158696	0.392577	-0.000047
 540	5.3630e+01	18.5546	27.254679	0.000111	1.107876	0.375359	-0.000045
 541	5.3730e+01	18.5032	27.208242	0.000116	1.158696	0.392577	-0.000047
 542	5.3830e+01	18.4599	27.163027	0.000113	1.128204	0.382246	-0.000045
 543	5.3929e+01	18.4439	27.114146	0.000122	1.219680	0.413239	-0.000049
 544	5.4029e+01	18.3861	27.067302	0.000117	1.168860	0.396021	-0.000047
 545	5.4128e+01	18.3524	27.020050	0.000118	1.179024	0.399464	-0.000047
 546	5.4227e+01	18.2947	26.969132	0.000127	1.270500	0.430457	-0.000051
 547	5.4327e+01	18.2770	26.928398	0.000102	1.016400	0.344366	-0.000041
 548	5.4426e+01	18.2225	26.872999	0.000138	1.382304	0.468337	-0.000056
 549	5.4526e+01	18.1888	26.833487	0.000099	0.985908	0.334035	-0.000040
 550	5.4626e+01	18.1519	26.779310	0.000135	1.351812	0.458006	-0.000054
 551	5.4725e+01	18.0765	26.727578	0.000129	1.290828	0.437344	-0.000052
 552	5.4825e+01	18.0524	26.679919	0.000119	1.189188	0.402908	-0.000048
 553	5.4924e+01	18.0284	26.634296	0.000114	1.138368	0.385690	-0.000046
 554	5.5023e+01	17.9979	26.581749	0.000131	1.311156	0.444232	-0.000053
 555	5.5123e+01	17.9466	26.527573	0.000135	1.351812	0.458006	-0.000054
 556	5.5222e+01	17.9032	26.481543	0.000115	1.148532	0.389133	-0.000046
 557	5.5322e+01	17.8728	26.433477	0.000120	1.199352	0.406352	-0.000048
 558	5.5422e+01	17.8262	26.380929	0.000131	1.311156	0.444232	-0.000053
 559	5.5521e+01	17.7829	26.334492	0.000116	1.158696	0.392577	-0.000047
 560	5.5620e+01	17.7332	26.288055	0.000116	1.158696	0.392577	-0.000047
 561	5.5720e+01	17.6851	26.238359	0.000124	1.240008	0.420126	-0.000050
 562	5.5819e+01	17.6706	26.189886	0.000121	1.209516	0.409795	-0.000049
 563	5.5919e+01	17.6337	26.132043	0.000144	1.443288	0.488999	-0.000058
 564	5.6019e+01	17.6016	26.083162	0.000122	1.219680	0.413239	-0.000049
 565	5.6118e+01	17.5503	26.037132	0.000115	1.148532	0.389133	-0.000046
 566	5.6218e+01	17.4926	25.984992	0.000130	1.300992	0.440788	-0.000052
 567	5.6317e+01	17.4701	25.935704	0.000123	1.229844	0.416682	-0.000050
 568	5.6416e+01	17.4412	25.886415	0.000123	1.229844	0.416682	-0.000050
 569	5.6516e+01	17.3899	25.836720	0.000124	1.240008	0.420126	-0.000050
 570	5.6615e+01	17.3369	25.790283	0.000116	1.158696	0.392577	-0.000047
 571	5.6715e+01	17.3161	25.741402	0.000122	1.219680	0.413239	-0.000049
 572	5.6815e+01	17.2712	25.690484	0.000127	1.270500	0.430457	-0.000051
 573	5.6914e+01	17.2086	25.637937	0.000131	1.311156	0.444232	-0.000053
 574	5.7014e+01	17.2086	25.589870	0.000120	1.199352	0.406352	-0.000048
 575	5.7113e+01	17.1412	25.540582	0.000123	1.229844	0.416682	-0.000050
 576	5.7212e+01	17.1011	25.487220	0.000133	1.331484	0.451119	-0.000054
 577	5.7312e+01	17.0722	25.440375	0.000117	1.168860	0.396021	-0.000047
 578	5.7411e+01	17.0257	25.387014	0.000133	1.331484	0.451119	-0.000054
 579	5.7511e+01	16.9712	25.340984	0.000115	1.148532	0.389133	-0.000046
 580	5.7611e+01	16.9343	25.290473	0.000126	1.260336	0.427013	-0.000051
 581	5.7710e+01	16.9182	25.240778	0.000124	1.240008	0.420126	-0.000050
 582	5.7809e+01	16.8781	25.191489	0.000123	1.229844	0.416682	-0.000050
 583	5.7909e+01	16.8316	25.144645	0.000117	1.168860	0.396021	-0.000047
 584	5.8008e+01	16.8140	25.092505	0.000130	1.300992	0.440788	-0.000052
 585	5.8108e+01	16.7450	25.041994	0.000126	1.260336	0.427013	-0.000051
 586	5.8208e+01	16.7065	24.989855	0.000130	1.300992	0.440788	-0.000052
 587	5.8307e+01	16.6519	24.942195	0.000119	1.189188	0.402908	-0.000048
 588	5.8407e+01	16.6343	24.890056	0.000130	1.300992	0.440788	-0.000052
 589	5.8506e+01	16.5878	24.842397	0.000119	1.189188	0.402908	-0.000048
 590	5.8605e+01	16.5621	24.787405	0.000137	1.372140	0.464894	-0.000055
 591	5.8705e+01	16.5011	24.737709	0.000124	1.240008	0.420126	-0.000050
 592	5.8804e+01	16.4947	24.694124	0.000109	1.087548	0.368471	-0.000044
 593	5.8904e+01	16.4289	24.643613	0.000126	1.260336	0.427013	-0.000051
 594	5.9004e+01	16.3808	24.594325	0.000123	1.229844	0.416682	-0.000050
 595	5.9103e+01	16.3327	24.546666	0.000119	1.189188	0.402908	-0.000048
 596	5.9203e+01	16.3150	24.499414	0.000118	1.179024	0.399464	-0.000047
 597	5.9302e+01	16.2685	24.452977	0.000116	1.158696	0.392577	-0.000047
 598	5.9401e+01	16.2380	24.402874	0.000125	1.250172	0.423570	-0.000050
 599	5.9501e+01	16.2140	24.352363	0.000126	1.260336	0.427013	-0.000051
 600	5.9600e+01	16.1755	24.303482	0.000122	1.219680	0.413239	-0.000049
 601	5.9700e+01	16.1290	24.260304	0.000108	1.077384	0.365028	-0.000043
 602	5.9800e+01	16.0471	24.210201	0.000125	1.250172	0.423570	-0.000050
 603	5.9899e+01	16.0263	24.165393	0.000112	1.118040	0.378802	-0.000045
 604	5.9998e+01	15.9910	24.115290	0.000125	1.250172	0.423570	-0.000050
 605	6.0098e+01	15.9525	24.072519	0.000107	1.067220	0.361584	-0.000043
 606	6.0197e+01	15.8947	24.024045	0.000121	1.209516	0.409795	-0.000049
 607	6.0297e+01	15.8755	23.974350	0.000124	1.240008	0.420126	-0.000050
 608	6.0397e+01	15.8338	23.927505	0.000117	1.168860	0.396021	-0.000047
 609	6.0496e+01	15.7873	23.879439	0.000120	1.199352	0.406352	-0.000048
 610	6.0596e+01	15.7375	23.830150	0.000123	1.229844	0.416682	-0.000050
 611	6.0695e+01	15.7279	23.783713	0.000116	1.158696	0.392577	-0.000047
 612	6.0794e+01	15.6669	23.738091	0.000114	1.138368	0.385690	-0.000046
 613	6.0894e+01	15.6413	23.690839	0.000118	1.179024	0.399464	-0.000047
 614	6.0993e+01	15.5899	23.639921	0.000127	1.270500	0.430457	-0.000051
 615	6.1093e+01	15.5627	23.592262	0.000119	1.189188	0.402908	-0.000048
 616	6.1193e+01	15.5193	23.543788	0.000121	1.209516	0.409795	-0.000049
 617	6.1292e+01	15.4792	23.499795	0.000110	1.097712	0.371915	-0.000044
 618	6.1392e+01	15.4279	23.453358	0.000116	1.158696	0.392577	-0.000047
 619	6.1491e+01	15.3878	23.408143	0.000113	1.128204	0.382246	-0.000045
 620	6.1590e+01	15.3782	23.354782	0.000133	1.331484	0.451119	-0.000054
 621	6.1690e+01	15.2915	23.307122	0.000119	1.189188	0.402908	-0.000048
 622	6.1789e+01	15.2723	23.256612	0.000126	1.260336	0.427013	-0.000051
 623	6.1889e+01	15.2290	23.212619	0.000110	1.097712	0.371915	-0.000044
 624	6.1989e+01	15.1841	23.163331	0.000123	1.229844	0.416682	-0.000050
 625	6.2088e+01	15.1327	23.114449	0.000122	1.219680	0.413239	-0.000049
 626	6.2188e+01	15.1279	23.067605	0.000117	1.168860	0.396021	-0.000047
 627	6.2287e+01	15.0862	23.020761	0.000117	1.168860	0.396021	-0.000047
 628	6.2386e+01	15.0397	22.974324	0.000116	1.158696	0.392577	-0.000047
 629	6.2486e+01	15.0028	22.925850	0.000121	1.209516	0.409795	-0.000049
 630	6.2586e+01	14.9450	22.878191	0.000119	1.189188	0.402908	-0.000048
 631	6.2685e+01	14.9178	22.833383	0.000112	1.118040	0.378802	-0.000045
 632	6.2785e+01	14.8680	22.785724	0.000119	1.189188	0.402908	-0.000048
 633	6.2884e+01	14.8199	22.733177	0.000131	1.311156	0.444232	-0.000053
 634	6.2983e+01	14.8039	22.690406	0.000107	1.067220	0.361584	-0.000043
 635	6.3083e+01	14.7541	22.647635	0.000107	1.067220	0.361584	-0.000043
 636	6.3182e+01	14.7140	22.604457	0.000108	1.077384	0.365028	-0.000043
 637	6.3282e+01	14.6739	22.555168	0.000123	1.229844	0.416682	-0.000050
 638	6.3382e+01	14.6370	22.509546	0.000114	1.138368	0.385690	-0.000046
 639	6.3481e+01	14.5825	22.462701	0.000117	1.168860	0.396021	-0.000047
 640	6.3581e+01	14.5392	22.416672	0.000115	1.148532	0.389133	-0.000046
 641	6.3680e+01	14.5103	22.369013	0.000119	1.189188	0.402908	-0.000048
 642	6.3779e+01	14.4622	22.324612	0.000111	1.107876	0.375359	-0.000045
 643	6.3879e+01	14.4285	22.275731	0.000122	1.219680	0.413239	-0.000049
 644	6.3978e+01	14.3948	22.229294	0.000116	1.158696	0.392577	-0.000047
 645	6.4078e+01	14.3595	22.183672	0.000114	1.138368	0.385690	-0.000046
 646	6.4177e+01	14.3098	22.138049	0.000114	1.138368	0.385690	-0.000046
 647	6.4277e+01	14.2953	22.091612	0.000116	1.158696	0.392577	-0.000047
 648	6.4376e+01	14.2456	22.040287	0.000128	1.280664	0.433901	-0.000052
 649	6.4476e+01	14.1846	22.000368	0.000100	0.996072	0.337478	-0.000040
 650	6.4576e+01	14.1558	21.951079	0.000123	1.229844	0.416682	-0.000050
 651	6.4675e+01	14.0868	21.899754	0.000128	1.280664	0.433901	-0.000052
 652	6.4775e+01	14.0755	21.850873	0.000122	1.219680	0.413239	-0.000049
 653	6.4874e+01	14.0402	21.805250	0.000114	1.138368	0.385690	-0.000046
 654	6.4974e+01	14.0146	21.757999	0.000118	1.179024	0.399464	-0.000047
 655	6.5073e+01	13.9632	21.707896	0.000125	1.250172	0.423570	-0.000050
 656	6.5172e+01	13.9231	21.659829	0.000120	1.199352	0.406352	-0.000048
 657	6.5272e+01	13.8718	21.609319	0.000126	1.260336	0.427013	-0.000051
 658	6.5371e+01	13.8365	21.563289	0.000115	1.148532	0.389133	-0.000046
 659	6.5471e+01	13.8060	21.520925	0.000106	1.057056	0.358140	-0.000043
 660	6.5570e+01	13.7611	21.471637	0.000123	1.229844	0.416682	-0.000050
 661	6.5670e+01	13.7018	21.423978	0.000119	1.189188	0.402908	-0.000048
 662	6.5769e+01	13.6985	21.376319	0.000119	1.189188	0.402908	-0.000048
 663	6.5869e+01	13.6376	21.325808	0.000126	1.260336	0.427013	-0.000051
 664	6.5969e+01	13.6023	21.278557	0.000118	1.179024	0.399464	-0.000047
 665	6.6068e+01	13.5654	21.230490	0.000120	1.199352	0.406352	-0.000048
 666	6.6168e+01	13.5108	21.181609	0.000122	1.219680	0.413239	-0.000049
 667	6.6267e+01	13.4756	21.131506	0.000125	1.250172	0.423570	-0.000050
 668	6.6367e+01	13.4563	21.083847	0.000119	1.189188	0.402908	-0.000048
 669	6.6466e+01	13.4018	21.037002	0.000117	1.168860	0.396021	-0.000047
 670	6.6566e+01	13.3729	20.984863	0.000130	1.300992	0.440788	-0.000052
 671	6.6665e+01	13.3215	20.940462	0.000111	1.107876	0.375359	-0.000045
 672	6.6764e+01	13.2975	20.887915	0.000131	1.311156	0.444232	-0.000053
 673	6.6864e+01	13.2221	20.842293	0.000114	1.138368	0.385690	-0.000046
 674	6.6963e+01	13.2076	20.790560	0.000129	1.290828	0.437344	-0.000052
 675	6.7063e+01	13.1675	20.743308	0.000118	1.179024	0.399464	-0.000047
 676	6.7162e+01	13.1306	20.689947	0.000133	1.331484	0.451119	-0.000054
 677	6.7262e+01	13.0937	20.639843	0.000125	1.250172	0.423570	-0.000050
 678	6.7362e+01	13.0504	20.588518	0.000128	1.280664	0.433901	-0.000052
 679	6.7461e+01	12.9927	20.541267	0.000118	1.179024	0.399464	-0.000047
 680	6.7561e+01	12.9590	20.491163	0.000125	1.250172	0.423570	-0.000050
 681	6.7660e+01	12.9237	20.436579	0.000136	1.361976	0.461450	-0.000055
 682	6.7760e+01	12.8964	20.386069	0.000126	1.260336	0.427013	-0.000051
 683	6.7859e+01	12.8483	20.335559	0.000126	1.260336	0.427013	-0.000051
 684	6.7959e+01	12.8162	20.285048	0.000126	1.260336	0.427013	-0.000051
 685	6.8058e+01	12.7585	20.234538	0.000126	1.260336	0.427013	-0.000051
 686	6.8157e+01	12.7280	20.177510	0.000142	1.422960	0.482112	-0.000057
 687	6.8257e+01	12.6734	20.122518	0.000137	1.372140	0.464894	-0.000055
 688	6.8356e+01	12.6542	20.065898	0.000141	1.412796	0.478668	-0.000057
 689	6.8456e+01	12.6109	20.017424	0.000121	1.209516	0.409795	-0.000049
 690	6.8555e+01	12.5499	19.964877	0.000131	1.311156	0.444232	-0.000053
 691	6.8655e+01	12.5323	19.909886	0.000137	1.372140	0.464894	-0.000055
 692	6.8754e+01	12.4938	19.857338	0.000131	1.311156	0.444232	-0.000053
 693	6.8854e+01	12.4537	19.803162	0.000135	1.351812	0.458006	-0.000054
 694	6.8954e+01	12.4007	19.747763	0.000138	1.382304	0.468337	-0.000056
 695	6.9053e+01	12.3847	19.696438	0.000128	1.280664	0.433901	-0.000052
 696	6.9153e+01	12.3349	19.642262	0.000135	1.351812	0.458006	-0.000054
 697	6.9252e+01	12.2948	19.590122	0.000130	1.300992	0.440788	-0.000052
 698	6.9352e+01	12.2419	19.533908	0.000140	1.402632	0.475225	-0.000056
 699	6.9451e+01	12.2098	19.481361	0.000131	1.311156	0.444232	-0.000053
 700	6.9550e+01	12.1585	19.423519	0.000144	1.443288	0.488999	-0.000058
 701	6.9650e+01	12.1328	19.370564	0.000132	1.321320	0.447675	-0.000053
 702	6.9749e+01	12.0895	19.318017	0.000131	1.311156	0.444232	-0.000053
 703	6.9849e+01	12.0654	19.264248	0.000134	1.341648	0.454563	-0.000054
 704	6.9948e+01	12.0029	19.208849	0.000138	1.382304	0.468337	-0.000056
 705	7.0048e+01	11.9628	19.155894	0.000132	1.321320	0.447675	-0.000053
 706	7.0147e+01	11.9227	19.098052	0.000144	1.443288	0.488999	-0.000058
 707	7.0247e+01	11.8713	19.046727	0.000128	1.280664	0.433901	-0.000052
 708	7.0347e+01	11.8489	18.993772	0.000132	1.321320	0.447675	-0.000053
 709	7.0446e+01	11.8007	18.938374	0.000138	1.382304	0.468337	-0.000056
 710	7.0546e+01	11.7638	18.877680	0.000151	1.514436	0.513105	-0.000061
 711	7.0645e+01	11.7334	18.824318	0.000133	1.331484	0.451119	-0.000054
 712	7.0745e+01	11.6884	18.770141	0.000135	1.351812	0.458006	-0.000054
 713	7.0844e+01	11.6483	18.716779	0.000133	1.331484	0.451119	-0.000054
 714	7.0944e+01	11.6146	18.658937	0.000144	1.443288	0.488999	-0.000058
 715	7.1043e+01	11.5649	18.603131	0.000139	1.392468	0.471781	-0.000056
 716	7.1142e+01	11.5200	18.546103	0.000142	1.422960	0.482112	-0.000057
 717	7.1242e+01	11.5023	18.489889	0.000140	1.402632	0.475225	-0.000056
 718	7.1341e+01	11.4638	18.432047	0.000144	1.443288	0.488999	-0.000058
 719	7.1441e+01	11.4125	18.379907	0.000130	1.300992	0.440788	-0.000052
 720	7.1540e+01	11.3612	18.319620	0.000150	1.504272	0.509661	-0.000061
 721	7.1640e+01	11.3387	18.260148	0.000148	1.483944	0.502774	-0.000060
 722	7.1740e+01	11.2906	18.205564	0.000136	1.361976	0.461450	-0.000055
 723	7.1839e+01	11.2649	18.142426	0.000158	1.575420	0.533767	-0.000063
 724	7.1939e+01	11.2232	18.089064	0.000133	1.331484	0.451119	-0.000054
 725	7.2038e+01	11.1526	18.030407	0.000146	1.463616	0.495887	-0.000059
 726	7.2138e+01	11.1318	17.970120	0.000150	1.504272	0.509661	-0.000061
 727	7.2237e+01	11.0804	17.913907	0.000140	1.402632	0.475225	-0.000056
 728	7.2337e+01	11.0644	17.857694	0.000140	1.402632	0.475225	-0.000056
 729	7.2436e+01	11.0034	17.799851	0.000144	1.443288	0.488999	-0.000058
 730	7.2535e+01	10.9794	17.746082	0.000134	1.341648	0.454563	-0.000054
 731	7.2635e+01	10.9056	17.683351	0.000157	1.565256	0.530323	-0.000063
 732	7.2734e+01	10.8863	17.624287	0.000147	1.473780	0.499330	-0.000059
 733	7.2834e+01	10.8607	17.569295	0.000137	1.372140	0.464894	-0.000055
 734	7.2933e+01	10.8222	17.509416	0.000149	1.494108	0.506218	-0.000060
 735	7.3033e+01	10.7804	17.454425	0.000137	1.372140	0.464894	-0.000055
 736	7.3132e+01	10.7227	17.394953	0.000148	1.483944	0.502774	-0.000060
 737	7.3232e+01	10.6922	17.335888	0.000147	1.473780	0.499330	-0.000059
 738	7.3332e+01	10.6601	17.278453	0.000143	1.433124	0.485556	-0.000058
 739	7.3431e+01	10.6280	17.224276	0.000135	1.351812	0.458006	-0.000054
 740	7.3531e+01	10.5703	17.166026	0.000145	1.453452	0.492443	-0.000059
 741	7.3630e+01	10.5398	17.110220	0.000139	1.392468	0.471781	-0.000056
 742	7.3730e+01	10.4997	17.049934	0.000150	1.504272	0.509661	-0.000061
 743	7.3829e+01	10.4436	16.992091	0.000144	1.443288	0.488999	-0.000058
 744	7.3928e+01	10.4115	16.935470	0.000141	1.412796	0.478668	-0.000057
 745	7.4028e+01	10.3698	16.872739	0.000157	1.565256	0.530323	-0.000063
 746	7.4127e+01	10.3537	16.818970	0.000134	1.341648	0.454563	-0.000054
 747	7.4227e+01	10.2960	16.761128	0.000144	1.443288	0.488999	-0.000058
 748	7.4326e+01	10.2623	16.698804	0.000156	1.555092	0.526880	-0.000063
 749	7.4426e+01	10.2174	16.640962	0.000144	1.443288	0.488999	-0.000058
 750	7.4525e+01	10.1789	16.588822	0.000130	1.300992	0.440788	-0.000052
 751	7.4625e+01	10.1275	16.528128	0.000151	1.514436	0.513105	-0.000061
 752	7.4725e+01	10.1051	16.470285	0.000144	1.443288	0.488999	-0.000058
 753	7.4824e+01	10.0617	16.407554	0.000157	1.565256	0.530323	-0.000063
 754	7.4924e+01	10.0200	16.348897	0.000146	1.463616	0.495887	-0.000059
 755	7.5023e+01	9.9880	16.293906	0.000137	1.372140	0.464894	-0.000055
 756	7.5123e+01	9.9270	16.237692	0.000140	1.402632	0.475225	-0.000056
 757	7.5222e+01	9.9110	16.177406	0.000150	1.504272	0.509661	-0.000061
 758	7.5322e+01	9.8484	16.114675	0.000157	1.565256	0.530323	-0.000063
 759	7.5421e+01	9.8436	16.063350	0.000128	1.280664	0.433901	-0.000052
 760	7.5520e+01	9.7634	16.001841	0.000153	1.534764	0.519992	-0.000062
 761	7.5620e+01	9.7377	15.946850	0.000137	1.372140	0.464894	-0.000055
 762	7.5719e+01	9.7120	15.892266	0.000136	1.361976	0.461450	-0.000055
 763	7.5819e+01	9.6591	15.836460	0.000139	1.392468	0.471781	-0.000056
 764	7.5918e+01	9.6158	15.778210	0.000145	1.453452	0.492443	-0.000059
 765	7.6018e+01	9.5853	15.723219	0.000137	1.372140	0.464894	-0.000055
 766	7.6118e+01	9.5452	15.664561	0.000146	1.463616	0.495887	-0.000059
 767	7.6217e+01	9.5035	15.608756	0.000139	1.392468	0.471781	-0.000056
 768	7.6317e+01	9.4297	15.554172	0.000136	1.361976	0.461450	-0.000055
 769	7.6416e+01	9.4393	15.500402	-0.000134	-1.341648	-0.454563	-0.000054
 770	7.6516e+01	9.3864	15.441745	0.000146	1.463616	0.495887	-0.000059
 771	7.6615e+01	9.3350	15.387976	0.000134	1.341648	0.454563	-0.000054
 772	7.6715e+01	9.3142	15.332577	0.000138	1.382304	0.468337	-0.000056
 773	7.6814e+01	9.2773	15.277179	0.000138	1.382304	0.468337	-0.000056
 774	7.6913e+01	9.2211	15.221780	0.000138	1.382304	0.468337	-0.000056
 775	7.7013e+01	9.1923	15.162308	0.000148	1.483944	0.502774	-0.000060
 776	7.7112e+01	9.1393	15.108132	0.000135	1.351812	0.458006	-0.000054
 777	7.7212e+01	9.0944	15.052733	0.000138	1.382304	0.468337	-0.000056
 778	7.7311e+01	9.0511	14.998556	0.000135	1.351812	0.458006	-0.000054
 779	7.7411e+01	9.0254	14.939084	0.000148	1.483944	0.502774	-0.000060
 780	7.7510e+01	8.9949	14.883686	0.000138	1.382304	0.468337	-0.000056
 781	7.7610e+01	8.9388	14.829102	0.000136	1.361976	0.461450	-0.000055
 782	7.7710e+01	8.9035	14.772889	0.000140	1.402632	0.475225	-0.000056
 783	7.7809e+01	8.8618	14.713417	0.000148	1.483944	0.502774	-0.000060
 784	7.7909e+01	8.8040	14.661277	0.000130	1.300992	0.440788	-0.000052
 785	7.8008e+01	8.7719	14.600990	0.000150	1.504272	0.509661	-0.000061
 786	7.8108e+01	8.7479	14.552516	0.000121	1.209516	0.409795	-0.000049
 787	7.8207e+01	8.6982	14.492230	0.000150	1.504272	0.509661	-0.000061
 788	7.8306e+01	8.6629	14.436016	0.000140	1.402632	0.475225	-0.000056
 789	7.8406e+01	8.6260	14.376952	0.000147	1.473780	0.499330	-0.000059
 790	7.8505e+01	8.5859	14.326849	0.000125	1.250172	0.423570	-0.000050
 791	7.8605e+01	8.5490	14.270635	0.000140	1.402632	0.475225	-0.000056
 792	7.8704e+01	8.4976	14.211978	0.000146	1.463616	0.495887	-0.000059
 793	7.8804e+01	8.4559	14.151691	0.000150	1.504272	0.509661	-0.000061
 794	7.8903e+01	8.4206	14.099551	0.000130	1.300992	0.440788	-0.000052
 795	7.9003e+01	8.3869	14.041301	0.000145	1.453452	0.492443	-0.000059
 796	7.9103e+01	8.3420	13.988347	0.000132	1.321320	0.447675	-0.000053
 797	7.9202e+01	8.3131	13.929690	0.000146	1.463616	0.495887	-0.000059
 798	7.9302e+01	8.2762	13.873884	0.000139	1.392468	0.471781	-0.000056
 799	7.9401e+01	8.2329	13.818892	0.000137	1.372140	0.464894	-0.000055
 800	7.9501e+01	8.1816	13.760235	0.000146	1.463616	0.495887	-0.000059
 801	7.9600e+01	8.1399	13.707688	0.000131	1.311156	0.444232	-0.000053
 802	7.9700e+01	8.1046	13.653511	0.000135	1.351812	0.458006	-0.000054
 803	7.9799e+01	8.0853	13.600149	0.000133	1.331484	0.451119	-0.000054
 804	7.9898e+01	8.0147	13.550861	0.000123	1.229844	0.416682	-0.000050
 805	7.9998e+01	7.9730	13.495870	0.000137	1.372140	0.464894	-0.000055
 806	8.0097e+01	7.9458	13.435990	0.000149	1.494108	0.506218	-0.000060
 807	8.0197e+01	7.9185	13.383443	0.000131	1.311156	0.444232	-0.000053
 808	8.0296e+01	7.8591	13.326823	0.000141	1.412796	0.478668	-0.000057
 809	8.0396e+01	7.8303	13.273053	0.000134	1.341648	0.454563	-0.000054
 810	8.0496e+01	7.7741	13.212767	0.000150	1.504272	0.509661	-0.000061
 811	8.0595e+01	7.7452	13.161034	0.000129	1.290828	0.437344	-0.000052
 812	8.0695e+01	7.6891	13.107672	0.000133	1.331484	0.451119	-0.000054
 813	8.0794e+01	7.6650	13.052681	0.000137	1.372140	0.464894	-0.000055
 814	8.0894e+01	7.6249	12.995653	0.000142	1.422960	0.482112	-0.000057
 815	8.0993e+01	7.6009	12.941069	0.000136	1.361976	0.461450	-0.000055
 816	8.1093e+01	7.5447	12.886078	0.000137	1.372140	0.464894	-0.000055
 817	8.1192e+01	7.5094	12.831087	0.000137	1.372140	0.464894	-0.000055
 818	8.1291e+01	7.4709	12.771207	0.000149	1.494108	0.506218	-0.000060
 819	8.1391e+01	7.4212	12.718253	0.000132	1.321320	0.447675	-0.000053
 820	8.1490e+01	7.3971	12.656744	0.000153	1.534764	0.519992	-0.000062
 821	8.1590e+01	7.3362	12.600531	0.000140	1.402632	0.475225	-0.000056
 822	8.1689e+01	7.3233	12.543096	0.000143	1.433124	0.485556	-0.000058
 823	8.1789e+01	7.2688	12.487290	0.000139	1.392468	0.471781	-0.000056
 824	8.1888e+01	7.2207	12.429854	0.000143	1.433124	0.485556	-0.000058
 825	8.1988e+01	7.1966	12.373234	0.000141	1.412796	0.478668	-0.000057
 826	8.2088e+01	7.1533	12.317020	0.000140	1.402632	0.475225	-0.000056
 827	8.2187e+01	7.1068	12.257548	0.000148	1.483944	0.502774	-0.000060
 828	8.2287e+01	7.0747	12.203372	0.000135	1.351812	0.458006	-0.000054
 829	8.2386e+01	7.0314	12.146751	0.000141	1.412796	0.478668	-0.000057
 830	8.2486e+01	6.9896	12.094611	0.000130	1.300992	0.440788	-0.000052
 831	8.2585e+01	6.9383	12.029844	0.000162	1.616076	0.547541	-0.000065
 832	8.2684e+01	6.8838	11.974853	0.000137	1.372140	0.464894	-0.000055
 833	8.2784e+01	6.8677	11.914566	0.000150	1.504272	0.509661	-0.000061
 834	8.2883e+01	6.8196	11.861204	0.000133	1.331484	0.451119	-0.000054
 835	8.2983e+01	6.7891	11.803769	0.000143	1.433124	0.485556	-0.000058
 836	8.3082e+01	6.7282	11.743889	0.000149	1.494108	0.506218	-0.000060
 837	8.3182e+01	6.7025	11.689306	0.000136	1.361976	0.461450	-0.000055
 838	8.3281e+01	6.6576	11.629019	0.000150	1.504272	0.509661	-0.000061
 839	8.3381e+01	6.6399	11.572398	0.000141	1.412796	0.478668	-0.000057
 840	8.3481e+01	6.5822	11.514963	0.000143	1.433124	0.485556	-0.000058
 841	8.3580e+01	6.5533	11.455491	0.000148	1.483944	0.502774	-0.000060
 842	8.3680e+01	6.5004	11.396426	0.000147	1.473780	0.499330	-0.000059
 843	8.3779e+01	6.4795	11.341435	0.000137	1.372140	0.464894	-0.000055
 844	8.3879e+01	6.4314	11.281148	0.000150	1.504272	0.509661	-0.000061
 845	8.3978e+01	6.3848	11.219232	0.000154	1.544928	0.523436	-0.000062
 846	8.4078e+01	6.3672	11.160575	0.000146	1.463616	0.495887	-0.000059
 847	8.4177e+01	6.3127	11.100288	0.000150	1.504272	0.509661	-0.000061
 848	8.4276e+01	6.2709	11.040816	0.000148	1.483944	0.502774	-0.000060
 849	8.4376e+01	6.2357	10.978900	0.000154	1.544928	0.523436	-0.000062
 850	8.4475e+01	6.1923	10.914540	0.000161	1.605912	0.544098	-0.000065
 851	8.4575e+01	6.1346	10.857919	0.000141	1.412796	0.478668	-0.000057
 852	8.4674e+01	6.1201	10.791523	0.000166	1.656732	0.561316	-0.000067
 853	8.4774e+01	6.0784	10.731236	0.000150	1.504272	0.509661	-0.000061
 854	8.4874e+01	6.0191	10.664839	0.000166	1.656732	0.561316	-0.000067
 855	8.4973e+01	5.9950	10.604145	0.000151	1.514436	0.513105	-0.000061
 856	8.5073e+01	5.9453	10.542636	0.000153	1.534764	0.519992	-0.000062
 857	8.5172e+01	5.9100	10.483572	0.000147	1.473780	0.499330	-0.000059
 858	8.5272e+01	5.8875	10.417989	0.000164	1.636404	0.554429	-0.000066
 859	8.5371e+01	5.8298	10.353629	0.000161	1.605912	0.544098	-0.000065
 860	8.5471e+01	5.7945	10.294565	0.000147	1.473780	0.499330	-0.000059
 861	8.5570e+01	5.7608	10.230205	0.000161	1.605912	0.544098	-0.000065
 862	8.5669e+01	5.7255	10.167881	0.000156	1.555092	0.526880	-0.000063
 863	8.5769e+01	5.6806	10.101892	0.000165	1.646568	0.557872	-0.000066
 864	8.5868e+01	5.6453	10.036717	0.000163	1.626240	0.550985	-0.000066
 865	8.5968e+01	5.5908	9.978467	0.000145	1.453452	0.492443	-0.000059
 866	8.6067e+01	5.5522	9.913292	0.000163	1.626240	0.550985	-0.000066
 867	8.6167e+01	5.5105	9.849747	0.000159	1.585584	0.537210	-0.000064
 868	8.6266e+01	5.4752	9.785794	0.000160	1.595748	0.540654	-0.000064
 869	8.6366e+01	5.4464	9.722248	0.000159	1.585584	0.537210	-0.000064
 870	8.6466e+01	5.3982	9.660740	0.000153	1.534764	0.519992	-0.000062
 871	8.6565e+01	5.3533	9.591491	0.000173	1.727880	0.585422	-0.000070
 872	8.6665e+01	5.3100	9.531612	0.000149	1.494108	0.506218	-0.000060
 873	8.6764e+01	5.2699	9.469289	0.000156	1.555092	0.526880	-0.000063
 874	8.6864e+01	5.2298	9.399226	0.000175	1.748208	0.592309	-0.000070
 875	8.6963e+01	5.2089	9.336495	0.000157	1.565256	0.530323	-0.000063
 876	8.7063e+01	5.1464	9.272542	0.000160	1.595748	0.540654	-0.000064
 877	8.7162e+01	5.1239	9.205331	0.000168	1.677060	0.568203	-0.000068
 878	8.7261e+01	5.0774	9.146266	0.000147	1.473780	0.499330	-0.000059
 879	8.7361e+01	5.0357	9.080276	0.000165	1.646568	0.557872	-0.000066
 880	8.7460e+01	5.0196	9.015509	0.000162	1.616076	0.547541	-0.000065
 881	8.7560e+01	4.9571	8.940558	0.000187	1.870176	0.633633	-0.000075
 882	8.7659e+01	4.9218	8.879864	0.000151	1.514436	0.513105	-0.000061
 883	8.7759e+01	4.8705	8.819170	0.000151	1.514436	0.513105	-0.000061
 884	8.7859e+01	4.8416	8.750329	0.000172	1.717716	0.581978	-0.000069
 885	8.7958e+01	4.7967	8.678637	0.000179	1.788864	0.606084	-0.000072
 886	8.8058e+01	4.7501	8.611833	0.000167	1.666896	0.564760	-0.000067
 887	8.8157e+01	4.7020	8.548694	0.000158	1.575420	0.533767	-0.000063
 888	8.8257e+01	4.6812	8.480261	0.000171	1.707552	0.578534	-0.000069
 889	8.8356e+01	4.6394	8.408161	0.000180	1.799028	0.609527	-0.000072
 890	8.8456e+01	4.6041	8.342579	0.000164	1.636404	0.554429	-0.000066
 891	8.8555e+01	4.5592	8.275368	0.000168	1.677060	0.568203	-0.000068
 892	8.8654e+01	4.5320	8.206527	0.000172	1.717716	0.581978	-0.000069
 893	8.8754e+01	4.4582	8.138908	0.000169	1.687224	0.571647	-0.000068
 894	8.8853e+01	4.4357	8.073326	0.000164	1.636404	0.554429	-0.000066
 895	8.8953e+01	4.3747	8.002448	0.000177	1.768536	0.599196	-0.000071
 896	8.9052e+01	4.3603	7.934829	0.000169	1.687224	0.571647	-0.000068
 897	8.9152e+01	4.3138	7.865581	0.000173	1.727880	0.585422	-0.000070
 898	8.9251e+01	4.2801	7.797962	0.000169	1.687224	0.571647	-0.000068
 899	8.9351e+01	4.2352	7.728307	0.000174	1.738044	0.588865	-0.000070
 900	8.9451e+01	4.2047	7.659058	0.000173	1.727880	0.585422	-0.000070
 901	8.9550e+01	4.1534	7.595513	0.000159	1.585584	0.537210	-0.000064
 902	8.9650e+01	4.1277	7.524228	0.000178	1.778700	0.602640	-0.000072
 903	8.9749e+01	4.0764	7.457831	0.000166	1.656732	0.561316	-0.000067
 904	8.9849e+01	4.0459	7.389805	0.000170	1.697388	0.575091	-0.000068
 905	8.9948e+01	3.9961	7.322593	0.000168	1.677060	0.568203	-0.000068
 906	9.0047e+01	3.9625	7.256197	0.000166	1.656732	0.561316	-0.000067
 907	9.0147e+01	3.9159	7.186541	0.000174	1.738044	0.588865	-0.000070
 908	9.0246e+01	3.9031	7.118107	0.000171	1.707552	0.578534	-0.000069
 909	9.0346e+01	3.8437	7.052525	0.000164	1.636404	0.554429	-0.000066
 910	9.0445e+01	3.7892	6.982462	0.000175	1.748208	0.592309	-0.000070
 911	9.0545e+01	3.7507	6.911992	0.000176	1.758372	0.595753	-0.000071
 912	9.0644e+01	3.7186	6.841522	0.000176	1.758372	0.595753	-0.000071
 913	9.0744e+01	3.6962	6.776754	0.000162	1.616076	0.547541	-0.000065
 914	9.0844e+01	3.6480	6.702618	0.000185	1.849848	0.626746	-0.000075
 915	9.0943e+01	3.6208	6.641924	0.000151	1.514436	0.513105	-0.000061
 916	9.1043e+01	3.5550	6.570639	0.000178	1.778700	0.602640	-0.000072
 917	9.1142e+01	3.5229	6.501798	0.000172	1.717716	0.581978	-0.000069
 918	9.1242e+01	3.5117	6.432550	0.000173	1.727880	0.585422	-0.000070
 919	9.1341e+01	3.4443	6.363302	0.000173	1.727880	0.585422	-0.000070
 920	9.1441e+01	3.4010	6.296497	0.000167	1.666896	0.564760	-0.000067
 921	9.1540e+01	3.3737	6.222768	0.000184	1.839684	0.623302	-0.000074
 922	9.1639e+01	3.3159	6.155150	0.000169	1.687224	0.571647	-0.000068
 923	9.1739e+01	3.2774	6.084679	0.000176	1.758372	0.595753	-0.000071
 924	9.1838e+01	3.2325	6.017060	0.000169	1.687224	0.571647	-0.000068
 925	9.1938e+01	3.2181	5.943331	0.000184	1.839684	0.623302	-0.000074
 926	9.2037e+01	3.1684	5.880601	0.000157	1.565256	0.530323	-0.000063
 927	9.2137e+01	3.1475	5.808908	0.000179	1.788864	0.606084	-0.000072
 928	9.2237e+01	3.0705	5.744141	0.000162	1.616076	0.547541	-0.000065
 929	9.2336e+01	3.0496	5.670412	0.000184	1.839684	0.623302	-0.000074
 930	9.2436e+01	2.9871	5.606867	0.000159	1.585584	0.537210	-0.000064
 931	9.2535e+01	2.9726	5.540470	0.000166	1.656732	0.561316	-0.000067
 932	9.2635e+01	2.9422	5.472851	0.000169	1.687224	0.571647	-0.000068
 933	9.2734e+01	2.8828	5.405232	0.000169	1.687224	0.571647	-0.000068
 934	9.2834e+01	2.8571	5.336798	0.000171	1.707552	0.578534	-0.000069
 935	9.2933e+01	2.7946	5.271624	0.000163	1.626240	0.550985	-0.000066
 936	9.3032e+01	2.7609	5.208486	0.000158	1.575420	0.533767	-0.000063
 937	9.3132e+01	2.7256	5.138015	0.000176	1.758372	0.595753	-0.000071
 938	9.3231e+01	2.6662	5.069989	0.000170	1.697388	0.575091	-0.000068
 939	9.3331e+01	2.6438	5.003185	0.000167	1.666896	0.564760	-0.000067
 940	9.3430e+01	2.6069	4.935973	0.000168	1.677060	0.568203	-0.000068
 941	9.3530e+01	2.5523	4.868762	0.000168	1.677060	0.568203	-0.000068
 942	9.3629e+01	2.5315	4.803180	0.000164	1.636404	0.554429	-0.000066
 943	9.3729e+01	2.4946	4.731487	0.000179	1.788864	0.606084	-0.000072
 944	9.3829e+01	2.4513	4.671201	0.000150	1.504272	0.509661	-0.000061
 945	9.3928e+01	2.3999	4.603175	0.000170	1.697388	0.575091	-0.000068
 946	9.4028e+01	2.3630	4.531075	0.000180	1.799028	0.609527	-0.000072
 947	9.4127e+01	2.3117	4.463049	0.000170	1.697388	0.575091	-0.000068
 948	9.4227e+01	2.2668	4.401133	0.000154	1.544928	0.523436	-0.000062
 949	9.4326e+01	2.2187	4.333514	0.000169	1.687224	0.571647	-0.000068
 950	9.4425e+01	2.2058	4.264266	0.000173	1.727880	0.585422	-0.000070
 951	9.4525e+01	2.1529	4.195832	0.000171	1.707552	0.578534	-0.000069
 952	9.4624e+01	2.1256	4.124954	0.000177	1.768536	0.599196	-0.000071
 953	9.4724e+01	2.0855	4.061409	0.000159	1.585584	0.537210	-0.000064
 954	9.4823e+01	2.0406	3.988902	0.000181	1.809192	0.612971	-0.000073
 955	9.4923e+01	1.9989	3.929023	0.000149	1.494108	0.506218	-0.000060
 956	9.5022e+01	1.9764	3.855701	0.000183	1.829520	0.619858	-0.000074
 957	9.5122e+01	1.9251	3.788897	0.000167	1.666896	0.564760	-0.000067
 958	9.5222e+01	1.8898	3.721685	0.000168	1.677060	0.568203	-0.000068
 959	9.5321e+01	1.8433	3.654881	0.000167	1.666896	0.564760	-0.000067
 960	9.5421e+01	1.7999	3.585225	0.000174	1.738044	0.588865	-0.000070
 961	9.5520e+01	1.7647	3.518014	0.000168	1.677060	0.568203	-0.000068
 962	9.5620e+01	1.7278	3.449988	0.000170	1.697388	0.575091	-0.000068
 963	9.5719e+01	1.6957	3.383591	0.000166	1.656732	0.561316	-0.000067
 964	9.5819e+01	1.6363	3.312713	0.000177	1.768536	0.599196	-0.000071
 965	9.5918e+01	1.6026	3.244687	0.000170	1.697388	0.575091	-0.000068
 966	9.6017e+01	1.5673	3.184808	0.000149	1.494108	0.506218	-0.000060
 967	9.6117e+01	1.5449	3.115152	0.000174	1.738044	0.588865	-0.000070
 968	9.6216e+01	1.4887	3.044682	0.000176	1.758372	0.595753	-0.000071
 969	9.6316e+01	1.4502	2.977878	0.000167	1.666896	0.564760	-0.000067
 970	9.6415e+01	1.4149	2.918406	0.000148	1.483944	0.502774	-0.000060
 971	9.6515e+01	1.3732	2.848750	0.000174	1.738044	0.588865	-0.000070
 972	9.6615e+01	1.3267	2.782761	0.000165	1.646568	0.557872	-0.000066
 973	9.6714e+01	1.2770	2.713920	0.000172	1.717716	0.581978	-0.000069
 974	9.6814e+01	1.2657	2.647523	0.000166	1.656732	0.561316	-0.000067
 975	9.6913e+01	1.2369	2.582755	0.000162	1.616076	0.547541	-0.000065
 976	9.7013e+01	1.1759	2.515544	0.000168	1.677060	0.568203	-0.000068
 977	9.7112e+01	1.1374	2.446296	0.000173	1.727880	0.585422	-0.000070
 978	9.7212e+01	1.0957	2.381121	0.000163	1.626240	0.550985	-0.000066
 979	9.7311e+01	1.0524	2.315946	0.000163	1.626240	0.550985	-0.000066
 980	9.7410e+01	0.9914	2.249549	0.000166	1.656732	0.561316	-0.000067
 981	9.7510e+01	0.9481	2.182745	0.000167	1.666896	0.564760	-0.000067
 982	9.7609e+01	0.9305	2.117570	0.000163	1.626240	0.550985	-0.000066
 983	9.7709e+01	0.8759	2.047100	0.000176	1.758372	0.595753	-0.000071
 984	9.7808e+01	0.8486	1.984369	0.000157	1.565256	0.530323	-0.000063
 985	9.7908e+01	0.8246	1.912677	0.000179	1.788864	0.606084	-0.000072
 986	9.8007e+01	0.7572	1.846280	0.000166	1.656732	0.561316	-0.000067
 987	9.8107e+01	0.7203	1.775403	0.000177	1.768536	0.599196	-0.000071
 988	9.8207e+01	0.6834	1.709006	0.000166	1.656732	0.561316	-0.000067
 989	9.8306e+01	0.6417	1.640979	0.000170	1.697388	0.575091	-0.000068
 990	9.8406e+01	0.6064	1.572139	0.000172	1.717716	0.581978	-0.000069
 991	9.8505e+01	0.5663	1.503705	0.000171	1.707552	0.578534	-0.000069
 992	9.8605e+01	0.5214	1.437308	0.000166	1.656732	0.561316	-0.000067
 993	9.8704e+01	0.4909	1.368467	0.000172	1.717716	0.581978	-0.000069
 994	9.8803e+01	0.4540	1.302478	0.000165	1.646568	0.557872	-0.000066
 995	9.8903e+01	0.4155	1.236081	0.000166	1.656732	0.561316	-0.000067
 996	9.9002e+01	0.3834	1.164796	0.000178	1.778700	0.602640	-0.000072
 997	9.9102e+01	0.3465	1.098807	0.000165	1.646568	0.557872	-0.000066
 998	9.9201e+01	0.3064	1.034854	0.000160	1.595748	0.540654	-0.000064
 999	9.9301e+01	0.2631	0.966013	0.000172	1.717716	0.581978	-0.000069
1000	9.9400e+01	0.2390	0.893099	0.000182	1.819356	0.616415	-0.000073
1001	9.9500e+01	0.1620	0.827109	0.000165	1.646568	0.557872	-0.000066
1002	9.9600e+01	0.1364	0.757453	0.000174	1.738044	0.588865	-0.000070
1003	9.9699e+01	0.0898	0.689020	0.000171	1.707552	0.578534	-0.000069
1004	9.9799e+01	0.0481	0.622216	0.000167	1.666896	0.564760	-0.000067
1005	9.9898e+01	0.0337	0.572113	0.000125	1.250172	0.423570	-0.000050
1006	9.9998e+01	-0.0160	0.501642	0.000176	1.758372	0.595753	-0.000071
1007	1.0010e+02	-0.0722	0.432394	0.000173	1.727880	0.585422	-0.000070
1008	1.0020e+02	-0.1171	0.358665	0.000184	1.839684	0.623302	-0.000074
1009	1.0030e+02	-0.1492	0.295934	0.000157	1.565256	0.530323	-0.000063
1010	1.0040e+02	-0.1749	0.227908	0.000170	1.697388	0.575091	-0.000068
1011	1.0050e+02	-0.2230	0.162733	0.000163	1.626240	0.550985	-0.000066
1012	1.0059e+02	-0.2422	0.086560	0.000190	1.900668	0.643964	-0.000077
1013	1.0069e+02	-0.2872	0.017312	0.000173	1.727880	0.585422	-0.000070
1014	1.0079e+02	-0.3401	-0.049899	0.000168	1.677060	0.568203	-0.000068
1015	1.0089e+02	-0.3706	-0.121592	0.000179	1.788864	0.606084	-0.000072
1016	1.0099e+02	-0.4075	-0.193691	0.000180	1.799028	0.609527	-0.000072
1017	1.0109e+02	-0.4444	-0.265791	0.000180	1.799028	0.609527	-0.000072
1018	1.0119e+02	-0.4797	-0.339520	0.000184	1.839684	0.623302	-0.000074
1019	1.0129e+02	-0.5647	-0.403880	0.000161	1.605912	0.544098	-0.000065
1020	1.0139e+02	-0.6128	-0.473128	0.000173	1.727880	0.585422	-0.000070
1021	1.0149e+02	-0.5984	-0.547672	-0.000186	-1.860012	-0.630189	-0.000075
1022	1.0159e+02	-0.6674	-0.618957	0.000178	1.778700	0.602640	-0.000072
1023	1.0169e+02	-0.7043	-0.689427	0.000176	1.758372	0.595753	-0.000071
1024	1.0179e+02	-0.7363	-0.765600	0.000190	1.900668	0.643964	-0.000077
1025	1.0189e+02	-0.7588	-0.830368	0.000162	1.616076	0.547541	-0.000065
1026	1.0199e+02	-0.8021	-0.903689	0.000183	1.829520	0.619858	-0.000074
1027	1.0209e+02	-0.8727	-0.977826	0.000185	1.849848	0.626746	-0.000075
1028	1.0219e+02	-0.9048	-1.047889	0.000175	1.748208	0.592309	-0.000070
1029	1.0229e+02	-0.9369	-1.120396	0.000181	1.809192	0.612971	-0.000073
1030	1.0239e+02	-0.9786	-1.193717	0.000183	1.829520	0.619858	-0.000074
1031	1.0248e+02	-1.0235	-1.261744	0.000170	1.697388	0.575091	-0.000068
1032	1.0258e+02	-1.0363	-1.331399	0.000174	1.738044	0.588865	-0.000070
1033	1.0268e+02	-1.0813	-1.405535	0.000185	1.849848	0.626746	-0.000075
1034	1.0278e+02	-1.1262	-1.473969	0.000171	1.707552	0.578534	-0.000069
1035	1.0288e+02	-1.1775	-1.547291	0.000183	1.829520	0.619858	-0.000074
1036	1.0298e+02	-1.1903	-1.618576	0.000178	1.778700	0.602640	-0.000072
1037	1.0308e+02	-1.2417	-1.688639	0.000175	1.748208	0.592309	-0.000070
1038	1.0318e+02	-1.2882	-1.759109	0.000176	1.758372	0.595753	-0.000071
1039	1.0328e+02	-1.3299	-1.832838	0.000184	1.839684	0.623302	-0.000074
1040	1.0338e+02	-1.3716	-1.898827	0.000165	1.646568	0.557872	-0.000066
1041	1.0348e+02	-1.4117	-1.973371	0.000186	1.860012	0.630189	-0.000075
1042	1.0358e+02	-1.4615	-2.045063	0.000179	1.788864	0.606084	-0.000072
1043	1.0368e+02	-1.4855	-2.114719	0.000174	1.738044	0.588865	-0.000070
1044	1.0378e+02	-1.5385	-2.187633	0.000182	1.819356	0.616415	-0.000073
1045	1.0388e+02	-1.5770	-2.253215	0.000164	1.636404	0.554429	-0.000066
1046	1.0398e+02	-1.6042	-2.322871	0.000174	1.738044	0.588865	-0.000070
1047	1.0408e+02	-1.6572	-2.395785	0.000182	1.819356	0.616415	-0.000073
1048	1.0418e+02	-1.7037	-2.468700	0.000182	1.819356	0.616415	-0.000073
1049	1.0428e+02	-1.7374	-2.539170	0.000176	1.758372	0.595753	-0.000071
1050	1.0438e+02	-1.7775	-2.612491	0.000183	1.829520	0.619858	-0.000074
1051	1.0447e+02	-1.8032	-2.683369	0.000177	1.768536	0.599196	-0.000071
1052	1.0457e+02	-1.8513	-2.755061	0.000179	1.788864	0.606084	-0.000072
1053	1.0467e+02	-1.8882	-2.829198	0.000185	1.849848	0.626746	-0.000075
1054	1.0477e+02	-1.9315	-2.906185	0.000192	1.920996	0.650851	-0.000077
1055	1.0487e+02	-1.9652	-2.975841	0.000174	1.738044	0.588865	-0.000070
1056	1.0497e+02	-2.0117	-3.049163	0.000183	1.829520	0.619858	-0.000074
1057	1.0507e+02	-2.0438	-3.118004	0.000172	1.717716	0.581978	-0.000069
1058	1.0517e+02	-2.0823	-3.189696	0.000179	1.788864	0.606084	-0.000072
1059	1.0527e+02	-2.1336	-3.257315	0.000169	1.687224	0.571647	-0.000068
1060	1.0537e+02	-2.1737	-3.333895	0.000191	1.910832	0.647407	-0.000077
1061	1.0547e+02	-2.2203	-3.408031	0.000185	1.849848	0.626746	-0.000075
1062	1.0557e+02	-2.2652	-3.478909	0.000177	1.768536	0.599196	-0.000071
1063	1.0567e+02	-2.2780	-3.549787	0.000177	1.768536	0.599196	-0.000071
1064	1.0577e+02	-2.3422	-3.621072	0.000178	1.778700	0.602640	-0.000072
1065	1.0587e+02	-2.3791	-3.696430	0.000188	1.880340	0.637077	-0.000076
1066	1.0597e+02	-2.3807	-3.766493	0.000175	1.748208	0.592309	-0.000070
1067	1.0607e+02	-2.4593	-3.834519	0.000170	1.697388	0.575091	-0.000068
1068	1.0617e+02	-2.4785	-3.911914	0.000193	1.931160	0.654295	-0.000078
1069	1.0627e+02	-2.4978	-3.977496	0.000164	1.636404	0.554429	-0.000066
1070	1.0637e+02	-2.5571	-4.051225	0.000184	1.839684	0.623302	-0.000074
1071	1.0647e+02	-2.6117	-4.121696	0.000176	1.758372	0.595753	-0.000071
1072	1.0656e+02	-2.6662	-4.188500	0.000167	1.666896	0.564760	-0.000067
1073	1.0666e+02	-2.6935	-4.257748	0.000173	1.727880	0.585422	-0.000070
1074	1.0676e+02	-2.7288	-4.332292	0.000186	1.860012	0.630189	-0.000075
1075	1.0686e+02	-2.7721	-4.400318	0.000170	1.697388	0.575091	-0.000068
1076	1.0696e+02	-2.8106	-4.466307	0.000165	1.646568	0.557872	-0.000066
1077	1.0706e+02	-2.8395	-4.540851	0.000186	1.860012	0.630189	-0.000075
1078	1.0716e+02	-2.9005	-4.613358	0.000181	1.809192	0.612971	-0.000073
1079	1.0726e+02	-2.9694	-4.682199	0.000172	1.717716	0.581978	-0.000069
1080	1.0736e+02	-2.9903	-4.753077	0.000177	1.768536	0.599196	-0.000071
1081	1.0746e+02	-3.0031	-4.824769	0.000179	1.788864	0.606084	-0.000072
1082	1.0756e+02	-3.0448	-4.893202	0.000171	1.707552	0.578534	-0.000069
1083	1.0766e+02	-3.0962	-4.960007	0.000167	1.666896	0.564760	-0.000067
1084	1.0776e+02	-3.1299	-5.030477	0.000176	1.758372	0.595753	-0.000071
1085	1.0786e+02	-3.1684	-5.098096	0.000169	1.687224	0.571647	-0.000068
1086	1.0796e+02	-3.2020	-5.162048	0.000160	1.595748	0.540654	-0.000064
1087	1.0806e+02	-3.2486	-5.236185	0.000185	1.849848	0.626746	-0.000075
1088	1.0816e+02	-3.2839	-5.305840	0.000174	1.738044	0.588865	-0.000070
1089	1.0826e+02	-3.3320	-5.376311	0.000176	1.758372	0.595753	-0.000071
1090	1.0836e+02	-3.3737	-5.441893	0.000164	1.636404	0.554429	-0.000066
1091	1.0845e+02	-3.4058	-5.513178	0.000178	1.778700	0.602640	-0.000072
1092	1.0855e+02	-3.4491	-5.582426	0.000173	1.727880	0.585422	-0.000070
1093	1.0865e+02	-3.4684	-5.645157	0.000157	1.565256	0.530323	-0.000063
1094	1.0875e+02	-3.5213	-5.715627	0.000176	1.758372	0.595753	-0.000071
1095	1.0885e+02	-3.5614	-5.782839	0.000168	1.677060	0.568203	-0.000068
1096	1.0895e+02	-3.6031	-5.849643	0.000167	1.666896	0.564760	-0.000067
1097	1.0905e+02	-3.6721	-5.916040	0.000166	1.656732	0.561316	-0.000067
1098	1.0915e+02	-3.6753	-5.980400	0.000161	1.605912	0.544098	-0.000065
1099	1.0925e+02	-3.7330	-6.047611	0.000168	1.677060	0.568203	-0.000068
1100	1.0935e+02	-3.7732	-6.116452	0.000172	1.717716	0.581978	-0.000069
1101	1.0945e+02	-3.8133	-6.180812	0.000161	1.605912	0.544098	-0.000065
1102	1.0955e+02	-3.8389	-6.241099	0.000150	1.504272	0.509661	-0.000061
1103	1.0965e+02	-3.8774	-6.309532	0.000171	1.707552	0.578534	-0.000069
1104	1.0975e+02	-3.9272	-6.373078	0.000159	1.585584	0.537210	-0.000064
1105	1.0985e+02	-3.9721	-6.440697	0.000169	1.687224	0.571647	-0.000068
1106	1.0995e+02	-4.0282	-6.505872	0.000163	1.626240	0.550985	-0.000066
1107	1.1005e+02	-4.0411	-6.563714	0.000144	1.443288	0.488999	-0.000058
1108	1.1015e+02	-4.0812	-6.631333	0.000169	1.687224	0.571647	-0.000068
1109	1.1025e+02	-4.1133	-6.692434	0.000152	1.524600	0.516549	-0.000061
1110	1.1035e+02	-4.1534	-6.757609	0.000163	1.626240	0.550985	-0.000066
1111	1.1044e+02	-4.2111	-6.817896	0.000150	1.504272	0.509661	-0.000061
1112	1.1054e+02	-4.2336	-6.886330	0.000171	1.707552	0.578534	-0.000069
1113	1.1064e+02	-4.2865	-6.944987	0.000146	1.463616	0.495887	-0.000059
1114	1.1074e+02	-4.3058	-7.010976	0.000165	1.646568	0.557872	-0.000066
1115	1.1084e+02	-4.3828	-7.075744	0.000162	1.616076	0.547541	-0.000065
1116	1.1094e+02	-4.3908	-7.140104	0.000161	1.605912	0.544098	-0.000065
1117	1.1104e+02	-4.4245	-7.203242	0.000158	1.575420	0.533767	-0.000063
1118	1.1114e+02	-4.4886	-7.268417	0.000163	1.626240	0.550985	-0.000066
1119	1.1124e+02	-4.5143	-7.329518	0.000152	1.524600	0.516549	-0.000061
1120	1.1134e+02	-4.5608	-7.387361	0.000144	1.443288	0.488999	-0.000058
1121	1.1144e+02	-4.5897	-7.450092	0.000157	1.565256	0.530323	-0.000063
1122	1.1154e+02	-4.6571	-7.518525	0.000171	1.707552	0.578534	-0.000069
1123	1.1164e+02	-4.6844	-7.576775	0.000145	1.453452	0.492443	-0.000059
1124	1.1174e+02	-4.7197	-7.641950	0.000163	1.626240	0.550985	-0.000066
1125	1.1184e+02	-4.7694	-7.703459	0.000153	1.534764	0.519992	-0.000062
1126	1.1194e+02	-4.7742	-7.763745	0.000150	1.504272	0.509661	-0.000061
1127	1.1204e+02	-4.8352	-7.830550	0.000167	1.666896	0.564760	-0.000067
1128	1.1214e+02	-4.8865	-7.895317	0.000162	1.616076	0.547541	-0.000065
1129	1.1224e+02	-4.9090	-7.953160	0.000144	1.443288	0.488999	-0.000058
1130	1.1234e+02	-4.9458	-8.013446	0.000150	1.504272	0.509661	-0.000061
1131	1.1244e+02	-4.9876	-8.075770	0.000156	1.555092	0.526880	-0.000063
1132	1.1253e+02	-5.0485	-8.141759	0.000165	1.646568	0.557872	-0.000066
1133	1.1263e+02	-5.0918	-8.202046	0.000150	1.504272	0.509661	-0.000061
1134	1.1273e+02	-5.0983	-8.257037	0.000137	1.372140	0.464894	-0.000055
1135	1.1283e+02	-5.1704	-8.322212	0.000163	1.626240	0.550985	-0.000066
1136	1.1293e+02	-5.2089	-8.380869	0.000146	1.463616	0.495887	-0.000059
1137	1.1303e+02	-5.2442	-8.439119	0.000145	1.453452	0.492443	-0.000059
1138	1.1313e+02	-5.2795	-8.495333	0.000140	1.402632	0.475225	-0.000056
1139	1.1323e+02	-5.3325	-8.557249	0.000154	1.544928	0.523436	-0.000062
1140	1.1333e+02	-5.3726	-8.616721	0.000148	1.483944	0.502774	-0.000060
1141	1.1343e+02	-5.4095	-8.679859	0.000158	1.575420	0.533767	-0.000063
1142	1.1353e+02	-5.4464	-8.729962	0.000125	1.250172	0.423570	-0.000050
1143	1.1363e+02	-5.4817	-8.798395	0.000171	1.707552	0.578534	-0.000069
1144	1.1373e+02	-5.5202	-8.852979	0.000136	1.361976	0.461450	-0.000055
1145	1.1383e+02	-5.5571	-8.914081	0.000152	1.524600	0.516549	-0.000061
1146	1.1393e+02	-5.6100	-8.971516	0.000143	1.433124	0.485556	-0.000058
1147	1.1403e+02	-5.6405	-9.030581	0.000147	1.473780	0.499330	-0.000059
1148	1.1413e+02	-5.6790	-9.088831	0.000145	1.453452	0.492443	-0.000059
1149	1.1423e+02	-5.7303	-9.150339	0.000153	1.534764	0.519992	-0.000062
1150	1.1433e+02	-5.7496	-9.203701	0.000133	1.331484	0.451119	-0.000054
1151	1.1442e+02	-5.7897	-9.259915	0.000140	1.402632	0.475225	-0.000056
1152	1.1452e+02	-5.8330	-9.321016	0.000152	1.524600	0.516549	-0.000061
1153	1.1462e+02	-5.8571	-9.382117	0.000152	1.524600	0.516549	-0.000061
1154	1.1472e+02	-5.9084	-9.443219	0.000152	1.524600	0.516549	-0.000061
1155	1.1482e+02	-5.9613	-9.499025	0.000139	1.392468	0.471781	-0.000056
1156	1.1492e+02	-5.9886	-9.559719	0.000151	1.514436	0.513105	-0.000061
1157	1.1502e+02	-6.0383	-9.620820	0.000152	1.524600	0.516549	-0.000061
1158	1.1512e+02	-6.0736	-9.683958	0.000158	1.575420	0.533767	-0.000063
1159	1.1522e+02	-6.1025	-9.736098	0.000130	1.300992	0.440788	-0.000052
1160	1.1532e+02	-6.1811	-9.800051	0.000160	1.595748	0.540654	-0.000064
1161	1.1542e+02	-6.1972	-9.858301	0.000145	1.453452	0.492443	-0.000059
1162	1.1552e+02	-6.2533	-9.916143	0.000144	1.443288	0.488999	-0.000058
1163	1.1562e+02	-6.2854	-9.972764	0.000141	1.412796	0.478668	-0.000057
1164	1.1572e+02	-6.3159	-10.029385	0.000141	1.412796	0.478668	-0.000057
1165	1.1582e+02	-6.3640	-10.090079	0.000151	1.514436	0.513105	-0.000061
1166	1.1592e+02	-6.3929	-10.149958	0.000149	1.494108	0.506218	-0.000060
1167	1.1602e+02	-6.4378	-10.200469	0.000126	1.260336	0.427013	-0.000051
1168	1.1612e+02	-6.4683	-10.259533	0.000147	1.473780	0.499330	-0.000059
1169	1.1622e+02	-6.5036	-10.321449	0.000154	1.544928	0.523436	-0.000062
1170	1.1632e+02	-6.5389	-10.380107	0.000146	1.463616	0.495887	-0.000059
1171	1.1642e+02	-6.6014	-10.436320	0.000140	1.402632	0.475225	-0.000056
1172	1.1651e+02	-6.6271	-10.493348	0.000142	1.422960	0.482112	-0.000057
1173	1.1661e+02	-6.6832	-10.551190	0.000144	1.443288	0.488999	-0.000058
1174	1.1671e+02	-6.7025	-10.609033	0.000144	1.443288	0.488999	-0.000058
1175	1.1681e+02	-6.7602	-10.667283	0.000145	1.453452	0.492443	-0.000059
1176	1.1691e+02	-6.7987	-10.726348	0.000147	1.473780	0.499330	-0.000059
1177	1.1701e+02	-6.8388	-10.782968	0.000141	1.412796	0.478668	-0.000057
1178	1.1711e+02	-6.8549	-10.842848	0.000149	1.494108	0.506218	-0.000060
1179	1.1721e+02	-6.9062	-10.903134	0.000150	1.504272	0.509661	-0.000061
1180	1.1731e+02	-6.9511	-10.966680	0.000159	1.585584	0.537210	-0.000064
1181	1.1741e+02	-6.9816	-11.023708	0.000142	1.422960	0.482112	-0.000057
1182	1.1751e+02	-7.0426	-11.083180	0.000148	1.483944	0.502774	-0.000060
1183	1.1761e+02	-7.0650	-11.145096	0.000154	1.544928	0.523436	-0.000062
1184	1.1771e+02	-7.1260	-11.202531	0.000143	1.433124	0.485556	-0.000058
1185	1.1781e+02	-7.1565	-11.266891	0.000161	1.605912	0.544098	-0.000065
1186	1.1791e+02	-7.1805	-11.321475	0.000136	1.361976	0.461450	-0.000055
1187	1.1801e+02	-7.2094	-11.387057	0.000164	1.636404	0.554429	-0.000066
1188	1.1811e+02	-7.2816	-11.448566	0.000153	1.534764	0.519992	-0.000062
1189	1.1821e+02	-7.3281	-11.507631	0.000147	1.473780	0.499330	-0.000059
1190	1.1831e+02	-7.3265	-11.570769	-0.000158	-1.575420	-0.533767	-0.000063
1191	1.1841e+02	-7.3955	-11.629426	0.000146	1.463616	0.495887	-0.000059
1192	1.1850e+02	-7.4228	-11.694194	0.000162	1.616076	0.547541	-0.000065
1193	1.1860e+02	-7.4709	-11.754480	0.000150	1.504272	0.509661	-0.000061
1194	1.1870e+02	-7.5190	-11.816396	0.000154	1.544928	0.523436	-0.000062
1195	1.1880e+02	-7.5287	-11.879127	0.000157	1.565256	0.530323	-0.000063
1196	1.1890e+02	-7.5960	-11.938599	0.000148	1.483944	0.502774	-0.000060
1197	1.1900e+02	-7.6073	-12.000923	0.000156	1.555092	0.526880	-0.000063
1198	1.1910e+02	-7.6891	-12.056729	0.000139	1.392468	0.471781	-0.000056
1199	1.1920e+02	-7.7099	-12.120274	0.000159	1.585584	0.537210	-0.000064
1200	1.1930e+02	-7.7549	-12.177302	0.000142	1.422960	0.482112	-0.000057
1201	1.1940e+02	-7.7902	-12.242477	0.000163	1.626240	0.550985	-0.000066
1202	1.1950e+02	-7.8383	-12.297468	0.000137	1.372140	0.464894	-0.000055
1203	1.1960e+02	-7.8463	-12.358162	0.000151	1.514436	0.513105	-0.000061
1204	1.1970e+02	-7.8976	-12.421707	0.000159	1.585584	0.537210	-0.000064
1205	1.1980e+02	-7.9586	-12.478328	0.000141	1.412796	0.478668	-0.000057
1206	1.1990e+02	-7.9827	-12.545132	0.000167	1.666896	0.564760	-0.000067
1207	1.2000e+02	-8.0484	-12.605419	0.000150	1.504272	0.509661	-0.000061
1208	1.2010e+02	-8.0597	-12.663262	0.000144	1.443288	0.488999	-0.000058
1209	1.2020e+02	-8.1094	-12.725178	0.000154	1.544928	0.523436	-0.000062
1210	1.2030e+02	-8.1463	-12.789130	0.000160	1.595748	0.540654	-0.000064
1211	1.2039e+02	-8.1768	-12.847788	0.000146	1.463616	0.495887	-0.000059
1212	1.2049e+02	-8.2153	-12.905630	0.000144	1.443288	0.488999	-0.000058
1213	1.2059e+02	-8.2730	-12.966732	0.000152	1.524600	0.516549	-0.000061
1214	1.2069e+02	-8.2987	-13.029870	0.000158	1.575420	0.533767	-0.000063
1215	1.2079e+02	-8.3581	-13.085268	0.000138	1.382304	0.468337	-0.000056
1216	1.2089e+02	-8.3773	-13.151258	0.000165	1.646568	0.557872	-0.000066
1217	1.2099e+02	-8.4318	-13.209101	0.000144	1.443288	0.488999	-0.000058
1218	1.2109e+02	-8.4463	-13.270202	0.000152	1.524600	0.516549	-0.000061
1219	1.2119e+02	-8.5008	-13.334969	0.000162	1.616076	0.547541	-0.000065
1220	1.2129e+02	-8.5393	-13.396478	0.000153	1.534764	0.519992	-0.000062
1221	1.2139e+02	-8.5891	-13.457987	0.000153	1.534764	0.519992	-0.000062
1222	1.2149e+02	-8.6420	-13.520310	0.000156	1.555092	0.526880	-0.000063
1223	1.2159e+02	-8.6677	-13.581819	0.000153	1.534764	0.519992	-0.000062
1224	1.2169e+02	-8.7158	-13.647809	0.000165	1.646568	0.557872	-0.000066
1225	1.2179e+02	-8.7415	-13.706059	0.000145	1.453452	0.492443	-0.000059
1226	1.2189e+02	-8.7864	-13.763901	0.000144	1.443288	0.488999	-0.000058
1227	1.2199e+02	-8.8249	-13.829891	0.000165	1.646568	0.557872	-0.000066
1228	1.2209e+02	-8.8730	-13.893436	0.000159	1.585584	0.537210	-0.000064
1229	1.2219e+02	-8.8858	-13.952501	0.000147	1.473780	0.499330	-0.000059
1230	1.2229e+02	-8.9420	-14.014417	0.000154	1.544928	0.523436	-0.000062
1231	1.2239e+02	-8.9901	-14.081628	0.000168	1.677060	0.568203	-0.000068
1232	1.2248e+02	-9.0334	-14.141100	0.000148	1.483944	0.502774	-0.000060
1233	1.2258e+02	-9.0591	-14.205053	0.000160	1.595748	0.540654	-0.000064
1234	1.2268e+02	-9.1185	-14.266969	0.000154	1.544928	0.523436	-0.000062
1235	1.2278e+02	-9.1602	-14.327663	0.000151	1.514436	0.513105	-0.000061
1236	1.2288e+02	-9.1746	-14.393245	0.000164	1.636404	0.554429	-0.000066
1237	1.2298e+02	-9.2115	-14.452717	0.000148	1.483944	0.502774	-0.000060
1238	1.2308e+02	-9.2741	-14.511782	0.000147	1.473780	0.499330	-0.000059
1239	1.2318e+02	-9.2981	-14.570439	0.000146	1.463616	0.495887	-0.000059
1240	1.2328e+02	-9.3414	-14.625838	0.000138	1.382304	0.468337	-0.000056
1241	1.2338e+02	-9.3864	-14.691827	0.000165	1.646568	0.557872	-0.000066
1242	1.2348e+02	-9.4040	-14.751299	0.000148	1.483944	0.502774	-0.000060
1243	1.2358e+02	-9.4618	-14.809957	0.000146	1.463616	0.495887	-0.000059
1244	1.2368e+02	-9.4938	-14.871058	0.000152	1.524600	0.516549	-0.000061
1245	1.2378e+02	-9.5275	-14.932567	0.000153	1.534764	0.519992	-0.000062
1246	1.2388e+02	-9.5725	-14.992446	0.000149	1.494108	0.506218	-0.000060
1247	1.2398e+02	-9.6142	-15.050696	0.000145	1.453452	0.492443	-0.000059
1248	1.2408e+02	-9.6607	-15.113020	0.000156	1.555092	0.526880	-0.000063
1249	1.2418e+02	-9.7040	-15.172899	0.000149	1.494108	0.506218	-0.000060
1250	1.2428e+02	-9.7329	-15.233186	0.000150	1.504272	0.509661	-0.000061
1251	1.2438e+02	-9.7938	-15.294694	0.000153	1.534764	0.519992	-0.000062
1252	1.2447e+02	-9.8211	-15.351315	0.000141	1.412796	0.478668	-0.000057
1253	1.2457e+02	-9.8564	-15.415675	0.000161	1.605912	0.544098	-0.000065
1254	1.2467e+02	-9.9045	-15.471888	0.000140	1.402632	0.475225	-0.000056
1255	1.2477e+02	-9.9382	-15.532583	0.000151	1.514436	0.513105	-0.000061
1256	1.2487e+02	-9.9767	-15.588796	0.000140	1.402632	0.475225	-0.000056
1257	1.2497e+02	-10.0088	-15.657637	0.000172	1.717716	0.581978	-0.000069
1258	1.2507e+02	-10.0698	-15.711813	0.000135	1.351812	0.458006	-0.000054
1259	1.2517e+02	-10.1002	-15.772507	0.000151	1.514436	0.513105	-0.000061
1260	1.2527e+02	-10.1291	-15.832387	0.000149	1.494108	0.506218	-0.000060
1261	1.2537e+02	-10.1789	-15.892673	0.000150	1.504272	0.509661	-0.000061
1262	1.2547e+02	-10.2286	-15.950923	0.000145	1.453452	0.492443	-0.000059
1263	1.2557e+02	-10.2430	-16.005915	0.000137	1.372140	0.464894	-0.000055
1264	1.2567e+02	-10.3104	-16.069053	0.000158	1.575420	0.533767	-0.000063
1265	1.2577e+02	-10.3473	-16.126081	0.000142	1.422960	0.482112	-0.000057
1266	1.2587e+02	-10.3746	-16.178220	0.000130	1.300992	0.440788	-0.000052
1267	1.2597e+02	-10.4179	-16.239729	0.000153	1.534764	0.519992	-0.000062
1268	1.2607e+02	-10.4291	-16.295535	0.000139	1.392468	0.471781	-0.000056
1269	1.2617e+02	-10.4788	-16.347268	0.000129	1.290828	0.437344	-0.000052
1270	1.2627e+02	-10.5478	-16.409591	0.000156	1.555092	0.526880	-0.000063
1271	1.2636e+02	-10.5895	-16.460101	0.000126	1.260336	0.427013	-0.000051
1272	1.2646e+02	-10.6104	-16.518759	0.000146	1.463616	0.495887	-0.000059
1273	1.2656e+02	-10.6649	-16.573343	0.000136	1.361976	0.461450	-0.000055
1274	1.2666e+02	-10.6970	-16.627112	0.000134	1.341648	0.454563	-0.000054
1275	1.2676e+02	-10.7275	-16.685362	0.000145	1.453452	0.492443	-0.000059
1276	1.2686e+02	-10.7820	-16.741575	0.000140	1.402632	0.475225	-0.000056
1277	1.2696e+02	-10.7965	-16.794530	0.000132	1.321320	0.447675	-0.000053
1278	1.2706e+02	-10.8494	-16.849928	0.000138	1.382304	0.468337	-0.000056
1279	1.2716e+02	-10.9136	-16.902476	0.000131	1.311156	0.444232	-0.000053
1280	1.2726e+02	-10.9216	-16.961948	0.000148	1.483944	0.502774	-0.000060
1281	1.2736e+02	-10.9601	-17.020605	0.000146	1.463616	0.495887	-0.000059
1282	1.2746e+02	-11.0131	-17.078447	0.000144	1.443288	0.488999	-0.000058
1283	1.2756e+02	-11.0596	-17.130180	0.000129	1.290828	0.437344	-0.000052
1284	1.2766e+02	-11.0740	-17.185171	0.000137	1.372140	0.464894	-0.000055
1285	1.2776e+02	-11.1382	-17.240570	0.000138	1.382304	0.468337	-0.000056
1286	1.2786e+02	-11.1911	-17.291895	0.000128	1.280664	0.433901	-0.000052
1287	1.2796e+02	-11.2184	-17.349738	0.000144	1.443288	0.488999	-0.000058
1288	1.2806e+02	-11.2505	-17.400248	0.000126	1.260336	0.427013	-0.000051
1289	1.2816e+02	-11.2906	-17.457276	0.000142	1.422960	0.482112	-0.000057
1290	1.2826e+02	-11.3499	-17.509416	0.000130	1.300992	0.440788	-0.000052
1291	1.2835e+02	-11.3901	-17.568073	0.000146	1.463616	0.495887	-0.000059
1292	1.2845e+02	-11.4302	-17.620213	0.000130	1.300992	0.440788	-0.000052
1293	1.2855e+02	-11.4462	-17.676834	0.000141	1.412796	0.478668	-0.000057
1294	1.2865e+02	-11.5007	-17.732232	0.000138	1.382304	0.468337	-0.000056
1295	1.2875e+02	-11.5312	-17.789260	0.000142	1.422960	0.482112	-0.000057
1296	1.2885e+02	-11.5585	-17.838549	0.000123	1.229844	0.416682	-0.000050
1297	1.2895e+02	-11.6243	-17.893540	0.000137	1.372140	0.464894	-0.000055
1298	1.2905e+02	-11.6628	-17.945680	0.000130	1.300992	0.440788	-0.000052
1299	1.2915e+02	-11.7077	-18.001078	0.000138	1.382304	0.468337	-0.000056
1300	1.2925e+02	-11.7253	-18.046293	0.000113	1.128204	0.382246	-0.000045
1301	1.2935e+02	-11.7895	-18.105765	0.000148	1.483944	0.502774	-0.000060
1302	1.2945e+02	-11.7991	-18.161571	0.000139	1.392468	0.471781	-0.000056
1303	1.2955e+02	-11.8553	-18.207601	0.000115	1.148532	0.389133	-0.000046
1304	1.2965e+02	-11.9018	-18.259334	0.000129	1.290828	0.437344	-0.000052
1305	1.2975e+02	-11.9227	-18.312288	0.000132	1.321320	0.447675	-0.000053
1306	1.2985e+02	-11.9916	-18.364021	0.000129	1.290828	0.437344	-0.000052
1307	1.2995e+02	-12.0173	-18.414938	0.000127	1.270500	0.430457	-0.000051
1308	1.3005e+02	-12.0606	-18.471966	0.000142	1.422960	0.482112	-0.000057
1309	1.3015e+02	-12.0879	-18.523699	0.000129	1.290828	0.437344	-0.000052
1310	1.3025e+02	-12.1489	-18.572580	0.000122	1.219680	0.413239	-0.000049
1311	1.3034e+02	-12.1777	-18.624312	0.000129	1.290828	0.437344	-0.000052
1312	1.3044e+02	-12.2082	-18.675638	0.000128	1.280664	0.433901	-0.000052
1313	1.3054e+02	-12.2547	-18.723297	0.000119	1.189188	0.402908	-0.000048
1314	1.3064e+02	-12.2804	-18.775844	0.000131	1.311156	0.444232	-0.000053
1315	1.3074e+02	-12.3366	-18.829613	0.000134	1.341648	0.454563	-0.000054
1316	1.3084e+02	-12.3558	-18.882975	0.000133	1.331484	0.451119	-0.000054
1317	1.3094e+02	-12.4200	-18.931449	0.000121	1.209516	0.409795	-0.000049
1318	1.3104e+02	-12.4665	-18.984811	0.000133	1.331484	0.451119	-0.000054
1319	1.3114e+02	-12.4825	-19.035321	0.000126	1.260336	0.427013	-0.000051
1320	1.3124e+02	-12.5339	-19.086239	0.000127	1.270500	0.430457	-0.000051
1321	1.3134e+02	-12.6061	-19.139601	0.000133	1.331484	0.451119	-0.000054
1322	1.3144e+02	-12.6061	-19.190519	0.000127	1.270500	0.430457	-0.000051
1323	1.3154e+02	-12.6510	-19.242251	0.000129	1.290828	0.437344	-0.000052
1324	1.3164e+02	-12.6831	-19.299686	0.000143	1.433124	0.485556	-0.000058
1325	1.3174e+02	-12.7296	-19.351012	0.000128	1.280664	0.433901	-0.000052
1326	1.3184e+02	-12.7520	-19.401929	0.000127	1.270500	0.430457	-0.000051
1327	1.3194e+02	-12.7986	-19.453255	0.000128	1.280664	0.433901	-0.000052
1328	1.3204e+02	-12.8708	-19.508246	0.000137	1.372140	0.464894	-0.000055
1329	1.3214e+02	-12.8884	-19.552239	0.000110	1.097712	0.371915	-0.000044
1330	1.3224e+02	-12.9189	-19.602342	0.000125	1.250172	0.423570	-0.000050
1331	1.3234e+02	-12.9670	-19.652445	0.000125	1.250172	0.423570	-0.000050
1332	1.3243e+02	-13.0183	-19.704178	0.000129	1.290828	0.437344	-0.000052
1333	1.3253e+02	-13.0552	-19.756317	0.000130	1.300992	0.440788	-0.000052
1334	1.3263e+02	-13.0921	-19.810901	0.000136	1.361976	0.461450	-0.000055
1335	1.3273e+02	-13.1339	-19.863856	0.000132	1.321320	0.447675	-0.000053
1336	1.3283e+02	-13.1515	-19.914774	0.000127	1.270500	0.430457	-0.000051
1337	1.3293e+02	-13.2157	-19.962840	0.000120	1.199352	0.406352	-0.000048
1338	1.3303e+02	-13.2462	-20.016202	0.000133	1.331484	0.451119	-0.000054
1339	1.3313e+02	-13.3055	-20.072823	0.000141	1.412796	0.478668	-0.000057
1340	1.3323e+02	-13.3215	-20.116001	0.000108	1.077384	0.365028	-0.000043
1341	1.3333e+02	-13.3777	-20.175066	0.000147	1.473780	0.499330	-0.000059
1342	1.3343e+02	-13.4066	-20.220688	0.000114	1.138368	0.385690	-0.000046
1343	1.3353e+02	-13.4242	-20.273642	0.000132	1.321320	0.447675	-0.000053
1344	1.3363e+02	-13.4900	-20.320487	0.000117	1.168860	0.396021	-0.000047
1345	1.3373e+02	-13.5477	-20.376700	0.000140	1.402632	0.475225	-0.000056
1346	1.3383e+02	-13.5574	-20.426803	0.000125	1.250172	0.423570	-0.000050
1347	1.3393e+02	-13.6023	-20.485461	0.000146	1.463616	0.495887	-0.000059
1348	1.3403e+02	-13.6761	-20.536378	0.000127	1.270500	0.430457	-0.000051
1349	1.3413e+02	-13.6873	-20.589333	0.000132	1.321320	0.447675	-0.000053
1350	1.3423e+02	-13.7194	-20.642695	0.000133	1.331484	0.451119	-0.000054
1351	1.3432e+02	-13.7852	-20.697279	0.000136	1.361976	0.461450	-0.000055
1352	1.3442e+02	-13.7996	-20.746567	0.000123	1.229844	0.416682	-0.000050
1353	1.3452e+02	-13.8397	-20.804410	0.000144	1.443288	0.488999	-0.000058
1354	1.3462e+02	-13.8718	-20.855328	0.000127	1.270500	0.430457	-0.000051
1355	1.3472e+02	-13.9247	-20.916836	0.000153	1.534764	0.519992	-0.000062
1356	1.3482e+02	-13.9632	-20.970198	0.000133	1.331484	0.451119	-0.000054
1357	1.3492e+02	-14.0017	-21.020709	0.000126	1.260336	0.427013	-0.000051
1358	1.3502e+02	-14.0290	-21.079773	0.000147	1.473780	0.499330	-0.000059
1359	1.3512e+02	-14.0820	-21.131099	0.000128	1.280664	0.433901	-0.000052
1360	1.3522e+02	-14.1221	-21.188534	0.000143	1.433124	0.485556	-0.000058
1361	1.3532e+02	-14.1590	-21.242303	0.000134	1.341648	0.454563	-0.000054
1362	1.3542e+02	-14.1878	-21.295258	0.000132	1.321320	0.447675	-0.000053
1363	1.3552e+02	-14.2279	-21.351064	0.000139	1.392468	0.471781	-0.000056
1364	1.3562e+02	-14.2953	-21.409313	0.000145	1.453452	0.492443	-0.000059
1365	1.3572e+02	-14.3033	-21.459009	0.000124	1.240008	0.420126	-0.000050
1366	1.3582e+02	-14.3563	-21.511556	0.000131	1.311156	0.444232	-0.000053
1367	1.3592e+02	-14.3948	-21.565733	0.000135	1.351812	0.458006	-0.000054
1368	1.3602e+02	-14.4509	-21.621946	0.000140	1.402632	0.475225	-0.000056
1369	1.3612e+02	-14.4862	-21.678160	0.000140	1.402632	0.475225	-0.000056
1370	1.3622e+02	-14.5231	-21.733966	0.000139	1.392468	0.471781	-0.000056
1371	1.3631e+02	-14.5584	-21.786920	0.000132	1.321320	0.447675	-0.000053
1372	1.3641e+02	-14.5873	-21.841097	0.000135	1.351812	0.458006	-0.000054
1373	1.3651e+02	-14.6306	-21.892422	0.000128	1.280664	0.433901	-0.000052
1374	1.3661e+02	-14.6691	-21.950672	0.000145	1.453452	0.492443	-0.000059
1375	1.3671e+02	-14.7220	-22.004441	0.000134	1.341648	0.454563	-0.000054
1376	1.3681e+02	-14.7525	-22.061062	0.000141	1.412796	0.478668	-0.000057
1377	1.3691e+02	-14.8103	-22.112794	0.000129	1.290828	0.437344	-0.000052
1378	1.3701e+02	-14.8408	-22.164527	0.000129	1.290828	0.437344	-0.000052
1379	1.3711e+02	-14.8616	-22.219925	0.000138	1.382304	0.468337	-0.000056
1380	1.3721e+02	-14.9306	-22.271658	0.000129	1.290828	0.437344	-0.000052
1381	1.3731e+02	-14.9659	-22.326242	0.000136	1.361976	0.461450	-0.000055
1382	1.3741e+02	-14.9932	-22.386121	0.000149	1.494108	0.506218	-0.000060
1383	1.3751e+02	-15.0493	-22.437446	0.000128	1.280664	0.433901	-0.000052
1384	1.3761e+02	-15.0782	-22.494474	0.000142	1.422960	0.482112	-0.000057
1385	1.3771e+02	-15.1055	-22.547836	0.000133	1.331484	0.451119	-0.000054
1386	1.3781e+02	-15.1584	-22.601198	0.000133	1.331484	0.451119	-0.000054
1387	1.3791e+02	-15.2049	-22.661484	0.000150	1.504272	0.509661	-0.000061
1388	1.3801e+02	-15.2370	-22.716476	0.000137	1.372140	0.464894	-0.000055
1389	1.3811e+02	-15.2899	-22.775540	0.000147	1.473780	0.499330	-0.000059
1390	1.3821e+02	-15.3317	-22.827680	0.000130	1.300992	0.440788	-0.000052
1391	1.3831e+02	-15.3557	-22.889189	0.000153	1.534764	0.519992	-0.000062
1392	1.3840e+02	-15.3990	-22.938477	0.000123	1.229844	0.416682	-0.000050
1393	1.3850e+02	-15.4488	-23.001616	0.000158	1.575420	0.533767	-0.000063
1394	1.3860e+02	-15.4841	-23.057014	0.000138	1.382304	0.468337	-0.000056
1395	1.3870e+02	-15.5113	-23.114449	0.000143	1.433124	0.485556	-0.000058
1396	1.3880e+02	-15.5514	-23.168626	0.000135	1.351812	0.458006	-0.000054
1397	1.3890e+02	-15.6012	-23.219544	0.000127	1.270500	0.430457	-0.000051
1398	1.3900e+02	-15.6461	-23.280645	0.000152	1.524600	0.516549	-0.000061
1399	1.3910e+02	-15.6573	-23.336044	0.000138	1.382304	0.468337	-0.000056
1400	1.3920e+02	-15.7247	-23.394701	0.000146	1.463616	0.495887	-0.000059
1401	1.3930e+02	-15.7439	-23.443990	0.000123	1.229844	0.416682	-0.000050
1402	1.3940e+02	-15.7873	-23.500610	0.000141	1.412796	0.478668	-0.000057
1403	1.3950e+02	-15.8418	-23.555601	0.000137	1.372140	0.464894	-0.000055
1404	1.3960e+02	-15.8947	-23.614666	0.000147	1.473780	0.499330	-0.000059
1405	1.3970e+02	-15.9140	-23.670065	0.000138	1.382304	0.468337	-0.000056
1406	1.3980e+02	-15.9525	-23.720982	0.000127	1.270500	0.430457	-0.000051
1407	1.3990e+02	-15.9942	-23.779232	0.000145	1.453452	0.492443	-0.000059
1408	1.4000e+02	-16.0279	-23.835853	0.000141	1.412796	0.478668	-0.000057
1409	1.4010e+02	-16.0889	-23.887993	0.000130	1.300992	0.440788	-0.000052
1410	1.4020e+02	-16.1241	-23.946243	0.000145	1.453452	0.492443	-0.000059
1411	1.4029e+02	-16.1642	-23.998383	0.000130	1.300992	0.440788	-0.000052
1412	1.4039e+02	-16.2076	-24.053781	0.000138	1.382304	0.468337	-0.000056
1413	1.4049e+02	-16.2236	-24.109180	0.000138	1.382304	0.468337	-0.000056
1414	1.4059e+02	-16.2749	-24.163356	0.000135	1.351812	0.458006	-0.000054
1415	1.4069e+02	-16.3118	-24.215904	0.000131	1.311156	0.444232	-0.000053
1416	1.4079e+02	-16.3600	-24.276598	0.000151	1.514436	0.513105	-0.000061
1417	1.4089e+02	-16.4001	-24.329960	0.000133	1.331484	0.451119	-0.000054
1418	1.4099e+02	-16.4193	-24.379655	0.000124	1.240008	0.420126	-0.000050
1419	1.4109e+02	-16.4386	-24.432610	0.000132	1.321320	0.447675	-0.000053
1420	1.4119e+02	-16.4899	-24.485972	0.000133	1.331484	0.451119	-0.000054
1421	1.4129e+02	-16.5509	-24.543407	0.000143	1.433124	0.485556	-0.000058
1422	1.4139e+02	-16.6134	-24.595954	0.000131	1.311156	0.444232	-0.000053
1423	1.4149e+02	-16.6343	-24.652575	0.000141	1.412796	0.478668	-0.000057
1424	1.4159e+02	-16.6888	-24.706344	0.000134	1.341648	0.454563	-0.000054
1425	1.4169e+02	-16.6856	-24.759706	-0.000133	-1.331484	-0.451119	-0.000054
1426	1.4179e+02	-16.7225	-24.822029	0.000156	1.555092	0.526880	-0.000063
1427	1.4189e+02	-16.8011	-24.872133	0.000125	1.250172	0.423570	-0.000050
1428	1.4199e+02	-16.8172	-24.928346	0.000140	1.402632	0.475225	-0.000056
1429	1.4209e+02	-16.8653	-24.976412	0.000120	1.199352	0.406352	-0.000048
1430	1.4219e+02	-16.9038	-25.030996	0.000136	1.361976	0.461450	-0.000055
1431	1.4228e+02	-16.9503	-25.082321	0.000128	1.280664	0.433901	-0.000052
1432	1.4238e+02	-17.0129	-25.134054	0.000129	1.290828	0.437344	-0.000052
1433	1.4248e+02	-17.0209	-25.187008	0.000132	1.321320	0.447675	-0.000053
1434	1.4258e+02	-17.0530	-25.237926	0.000127	1.270500	0.430457	-0.000051
1435	1.4268e+02	-17.1107	-25.288029	0.000125	1.250172	0.423570	-0.000050
1436	1.4278e+02	-17.1541	-25.343428	0.000138	1.382304	0.468337	-0.000056
1437	1.4288e+02	-17.1878	-25.392309	0.000122	1.219680	0.413239	-0.000049
1438	1.4298e+02	-17.2246	-25.446078	0.000134	1.341648	0.454563	-0.000054
1439	1.4308e+02	-17.2792	-25.495367	0.000123	1.229844	0.416682	-0.000050
1440	1.4318e+02	-17.3000	-25.547914	0.000131	1.311156	0.444232	-0.000053
1441	1.4328e+02	-17.3482	-25.596388	0.000121	1.209516	0.409795	-0.000049
1442	1.4338e+02	-17.4027	-25.646491	0.000125	1.250172	0.423570	-0.000050
1443	1.4348e+02	-17.4236	-25.698631	0.000130	1.300992	0.440788	-0.000052
1444	1.4358e+02	-17.4637	-25.748326	0.000124	1.240008	0.420126	-0.000050
1445	1.4368e+02	-17.5054	-25.795578	0.000118	1.179024	0.399464	-0.000047
1446	1.4378e+02	-17.5680	-25.846496	0.000127	1.270500	0.430457	-0.000051
1447	1.4388e+02	-17.5920	-25.902709	0.000140	1.402632	0.475225	-0.000056
1448	1.4398e+02	-17.6257	-25.951183	0.000121	1.209516	0.409795	-0.000049
1449	1.4408e+02	-17.6626	-26.000064	0.000122	1.219680	0.413239	-0.000049
1450	1.4418e+02	-17.7091	-26.050575	0.000126	1.260336	0.427013	-0.000051
1451	1.4428e+02	-17.7428	-26.097826	0.000118	1.179024	0.399464	-0.000047
1452	1.4437e+02	-17.7669	-26.152410	0.000136	1.361976	0.461450	-0.000055
1453	1.4447e+02	-17.8294	-26.202106	0.000124	1.240008	0.420126	-0.000050
1454	1.4457e+02	-17.8824	-26.250172	0.000120	1.199352	0.406352	-0.000048
1455	1.4467e+02	-17.9177	-26.306793	0.000141	1.412796	0.478668	-0.000057
1456	1.4477e+02	-17.9466	-26.351193	0.000111	1.107876	0.375359	-0.000045
1457	1.4487e+02	-17.9883	-26.403333	0.000130	1.300992	0.440788	-0.000052
1458	1.4497e+02	-18.0203	-26.453029	0.000124	1.240008	0.420126	-0.000050
1459	1.4507e+02	-18.0829	-26.498651	0.000114	1.138368	0.385690	-0.000046
1460	1.4517e+02	-18.1230	-26.551199	0.000131	1.311156	0.444232	-0.000053
1461	1.4527e+02	-18.1342	-26.600894	0.000124	1.240008	0.420126	-0.000050
1462	1.4537e+02	-18.2048	-26.653849	0.000132	1.321320	0.447675	-0.000053
1463	1.4547e+02	-18.2498	-26.698249	0.000111	1.107876	0.375359	-0.000045
1464	1.4557e+02	-18.2257	-26.752018	-0.000134	-1.341648	-0.454563	-0.000054
1465	1.4567e+02	-18.3187	-26.801714	0.000124	1.240008	0.420126	-0.000050
1466	1.4577e+02	-18.3701	-26.850188	0.000121	1.209516	0.409795	-0.000049
1467	1.4587e+02	-18.3941	-26.900291	0.000125	1.250172	0.423570	-0.000050
1468	1.4597e+02	-18.4230	-26.944284	0.000110	1.097712	0.371915	-0.000044
1469	1.4607e+02	-18.4551	-26.995202	0.000127	1.270500	0.430457	-0.000051
1470	1.4617e+02	-18.5096	-27.045305	0.000125	1.250172	0.423570	-0.000050
1471	1.4626e+02	-18.5465	-27.095408	0.000125	1.250172	0.423570	-0.000050
1472	1.4636e+02	-18.6059	-27.141031	0.000114	1.138368	0.385690	-0.000046
1473	1.4646e+02	-18.6123	-27.187060	0.000115	1.148532	0.389133	-0.000046
1474	1.4656e+02	-18.6476	-27.237978	0.000127	1.270500	0.430457	-0.000051
1475	1.4666e+02	-18.7182	-27.284822	0.000117	1.168860	0.396021	-0.000047
1476	1.4676e+02	-18.7711	-27.332482	0.000119	1.189188	0.402908	-0.000048
1477	1.4686e+02	-18.7872	-27.379326	0.000117	1.168860	0.396021	-0.000047
1478	1.4696e+02	-18.8273	-27.432688	0.000133	1.331484	0.451119	-0.000054
1479	1.4706e+02	-18.8642	-27.479125	0.000116	1.158696	0.392577	-0.000047
1480	1.4716e+02	-18.9267	-27.526784	0.000119	1.189188	0.402908	-0.000048
1481	1.4726e+02	-18.9444	-27.577702	0.000127	1.270500	0.430457	-0.000051
1482	1.4736e+02	-18.9813	-27.624139	0.000116	1.158696	0.392577	-0.000047
1483	1.4746e+02	-19.0278	-27.671798	0.000119	1.189188	0.402908	-0.000048
1484	1.4756e+02	-19.0775	-27.718642	0.000117	1.168860	0.396021	-0.000047
1485	1.4766e+02	-19.1032	-27.762635	0.000110	1.097712	0.371915	-0.000044
1486	1.4776e+02	-19.1626	-27.814775	0.000130	1.300992	0.440788	-0.000052
1487	1.4786e+02	-19.1946	-27.865286	0.000126	1.260336	0.427013	-0.000051
1488	1.4796e+02	-19.2123	-27.910093	0.000112	1.118040	0.378802	-0.000045
1489	1.4806e+02	-19.2428	-27.960604	0.000126	1.260336	0.427013	-0.000051
1490	1.4816e+02	-19.2893	-28.014373	0.000134	1.341648	0.454563	-0.000054
1491	1.4825e+02	-19.3422	-28.055922	0.000104	1.036728	0.351253	-0.000042
1492	1.4835e+02	-19.3855	-28.110506	0.000136	1.361976	0.461450	-0.000055
1493	1.4845e+02	-19.4192	-28.161831	0.000128	1.280664	0.433901	-0.000052
1494	1.4855e+02	-19.4497	-28.210305	0.000121	1.209516	0.409795	-0.000049
1495	1.4865e+02	-19.5107	-28.258778	0.000121	1.209516	0.409795	-0.000049
1496	1.4875e+02	-19.5219	-28.308882	0.000125	1.250172	0.423570	-0.000050
1497	1.4885e+02	-19.5813	-28.358577	0.000124	1.240008	0.420126	-0.000050
1498	1.4895e+02	-19.6230	-28.399719	0.000103	1.026564	0.347809	-0.000041
1499	1.4905e+02	-19.6438	-28.457154	0.000143	1.433124	0.485556	-0.000058
1500	1.4915e+02	-19.7305	-28.506035	0.000122	1.219680	0.413239	-0.000049
1501	1.4925e+02	-19.7273	-28.557768	-0.000129	-1.290828	-0.437344	-0.000052
1502	1.4935e+02	-19.7882	-28.602168	0.000111	1.107876	0.375359	-0.000045
1503	1.4945e+02	-19.8267	-28.657567	0.000138	1.382304	0.468337	-0.000056
1504	1.4955e+02	-19.8604	-28.705633	0.000120	1.199352	0.406352	-0.000048
1505	1.4965e+02	-19.8925	-28.754922	0.000123	1.229844	0.416682	-0.000050
1506	1.4975e+02	-19.9246	-28.807876	0.000132	1.321320	0.447675	-0.000053
1507	1.4985e+02	-19.9807	-28.857165	0.000123	1.229844	0.416682	-0.000050
1508	1.4995e+02	-19.9278	-28.818467	0.000097	0.965580	0.327147	0.000039
1509	1.5005e+02	-19.9053	-28.787509	0.000077	0.772464	0.261718	0.000031
1510	1.5015e+02	-19.8395	-28.744738	0.000107	1.067220	0.361584	0.000043
1511	1.5025e+02	-19.8283	-28.709707	0.000087	0.874104	0.296154	0.000035
1512	1.5034e+02	-19.7722	-28.670194	0.000099	0.985908	0.334035	0.000040
1513	1.5044e+02	-19.7128	-28.635570	0.000086	0.863940	0.292711	0.000035
1514	1.5054e+02	-19.7016	-28.594836	0.000102	1.016400	0.344366	0.000041
1515	1.5064e+02	-19.6390	-28.563878	0.000077	0.772464	0.261718	0.000031
1516	1.5074e+02	-19.6085	-28.518256	0.000114	1.138368	0.385690	0.000046
1517	1.5084e+02	-19.6101	-28.482410	-0.000089	-0.894432	-0.303042	0.000036
1518	1.5094e+02	-19.5363	-28.443712	0.000097	0.965580	0.327147	0.000039
1519	1.5104e+02	-19.4962	-28.401756	0.000105	1.046892	0.354697	0.000042
1520	1.5114e+02	-19.4770	-28.369168	0.000081	0.813120	0.275493	0.000033
1521	1.5124e+02	-19.4080	-28.334137	0.000087	0.874104	0.296154	0.000035
1522	1.5134e+02	-19.3952	-28.289329	0.000112	1.118040	0.378802	0.000045
1523	1.5144e+02	-19.3551	-28.257964	0.000078	0.782628	0.265162	0.000032
1524	1.5154e+02	-19.3021	-28.219674	0.000096	0.955416	0.323704	0.000038
1525	1.5164e+02	-19.2716	-28.183827	0.000089	0.894432	0.303042	0.000036
1526	1.5174e+02	-19.2155	-28.143093	0.000102	1.016400	0.344366	0.000041
1527	1.5184e+02	-19.1818	-28.107247	0.000089	0.894432	0.303042	0.000036
1528	1.5194e+02	-19.1401	-28.064476	0.000107	1.067220	0.361584	0.000043
1529	1.5204e+02	-19.1257	-28.026186	0.000096	0.955416	0.323704	0.000038
1530	1.5214e+02	-19.0775	-27.987488	0.000097	0.965580	0.327147	0.000039
1531	1.5224e+02	-19.0118	-27.945939	0.000104	1.036728	0.351253	0.000042
1532	1.5233e+02	-18.9684	-27.909686	0.000090	0.904596	0.306485	0.000036
1533	1.5243e+02	-18.9283	-27.866508	0.000108	1.077384	0.365028	0.000043
1534	1.5253e+02	-18.8930	-27.829032	0.000094	0.935088	0.316816	0.000038
1535	1.5263e+02	-18.8610	-27.784632	0.000111	1.107876	0.375359	0.000045
1536	1.5273e+02	-18.8353	-27.747971	0.000091	0.914760	0.309929	0.000037
1537	1.5283e+02	-18.7840	-27.704385	0.000109	1.087548	0.368471	0.000044
1538	1.5293e+02	-18.7423	-27.668132	0.000090	0.904596	0.306485	0.000036
1539	1.5303e+02	-18.7021	-27.629842	0.000096	0.955416	0.323704	0.000038
1540	1.5313e+02	-18.6396	-27.591144	0.000097	0.965580	0.327147	0.000039
1541	1.5323e+02	-18.6203	-27.550817	0.000101	1.006236	0.340922	0.000041
1542	1.5333e+02	-18.5850	-27.512527	0.000096	0.955416	0.323704	0.000038
1543	1.5343e+02	-18.5481	-27.464461	0.000120	1.199352	0.406352	0.000048
1544	1.5353e+02	-18.4679	-27.424134	0.000101	1.006236	0.340922	0.000041
1545	1.5363e+02	-18.4583	-27.382992	0.000103	1.026564	0.347809	0.000041
1546	1.5373e+02	-18.4182	-27.345516	0.000094	0.935088	0.316816	0.000038
1547	1.5383e+02	-18.3941	-27.303560	0.000105	1.046892	0.354697	0.000042
1548	1.5393e+02	-18.3428	-27.266899	0.000091	0.914760	0.309929	0.000037
1549	1.5403e+02	-18.3027	-27.218018	0.000122	1.219680	0.413239	0.000049
1550	1.5413e+02	-18.2802	-27.181357	0.000091	0.914760	0.309929	0.000037
1551	1.5422e+02	-18.2289	-27.140216	0.000103	1.026564	0.347809	0.000041
1552	1.5432e+02	-18.1792	-27.101111	0.000098	0.975744	0.330591	0.000039
1553	1.5442e+02	-18.1487	-27.065265	0.000089	0.894432	0.303042	0.000036
1554	1.5452e+02	-18.0990	-27.020864	0.000111	1.107876	0.375359	0.000045
1555	1.5462e+02	-18.0621	-26.983389	0.000094	0.935088	0.316816	0.000038
1556	1.5472e+02	-18.0139	-26.943469	0.000100	0.996072	0.337478	0.000040
1557	1.5482e+02	-18.0123	-26.903550	0.000100	0.996072	0.337478	0.000040
1558	1.5492e+02	-17.9433	-26.866074	0.000094	0.935088	0.316816	0.000038
1559	1.5502e+02	-17.8904	-26.826562	0.000099	0.985908	0.334035	0.000040
1560	1.5512e+02	-17.8599	-26.787865	0.000097	0.965580	0.327147	0.000039
1561	1.5522e+02	-17.8359	-26.747945	0.000100	0.996072	0.337478	0.000040
1562	1.5532e+02	-17.7974	-26.705581	0.000106	1.057056	0.358140	0.000043
1563	1.5542e+02	-17.7428	-26.664847	0.000102	1.016400	0.344366	0.000041
1564	1.5552e+02	-17.6835	-26.621261	0.000109	1.087548	0.368471	0.000044
1565	1.5562e+02	-17.6770	-26.589081	0.000080	0.802956	0.272049	0.000032
1566	1.5572e+02	-17.6257	-26.547940	0.000103	1.026564	0.347809	0.000041
1567	1.5582e+02	-17.5840	-26.509650	0.000096	0.955416	0.323704	0.000038
1568	1.5592e+02	-17.5471	-26.464435	0.000113	1.128204	0.382246	0.000045
1569	1.5602e+02	-17.5038	-26.426144	0.000096	0.955416	0.323704	0.000038
1570	1.5612e+02	-17.4877	-26.383781	0.000106	1.057056	0.358140	0.000043
1571	1.5622e+02	-17.4332	-26.345491	0.000096	0.955416	0.323704	0.000038
1572	1.5631e+02	-17.3899	-26.301090	0.000111	1.107876	0.375359	0.000045
1573	1.5641e+02	-17.3498	-26.263207	0.000095	0.945252	0.320260	0.000038
1574	1.5651e+02	-17.3321	-26.219214	0.000110	1.097712	0.371915	0.000044
1575	1.5661e+02	-17.2648	-26.176851	0.000106	1.057056	0.358140	0.000043
1576	1.5671e+02	-17.2343	-26.137338	0.000099	0.985908	0.334035	0.000040
1577	1.5681e+02	-17.1910	-26.093345	0.000110	1.097712	0.371915	0.000044
1578	1.5691e+02	-17.1541	-26.051389	0.000105	1.046892	0.354697	0.000042
1579	1.5701e+02	-17.1220	-26.010248	0.000103	1.026564	0.347809	0.000041
1580	1.5711e+02	-17.0578	-25.969513	0.000102	1.016400	0.344366	0.000041
1581	1.5721e+02	-17.0482	-25.932853	0.000091	0.914760	0.309929	0.000037
1582	1.5731e+02	-16.9824	-25.888452	0.000111	1.107876	0.375359	0.000045
1583	1.5741e+02	-16.9311	-25.843645	0.000112	1.118040	0.378802	0.000045
1584	1.5751e+02	-16.9150	-25.801688	0.000105	1.046892	0.354697	0.000042
1585	1.5761e+02	-16.8701	-25.762176	0.000099	0.985908	0.334035	0.000040
1586	1.5771e+02	-16.8444	-25.714110	0.000120	1.199352	0.406352	0.000048
1587	1.5781e+02	-16.7867	-25.675819	0.000096	0.955416	0.323704	0.000038
1588	1.5791e+02	-16.7321	-25.633863	0.000105	1.046892	0.354697	0.000042
1589	1.5801e+02	-16.7097	-25.595980	0.000095	0.945252	0.320260	0.000038
1590	1.5811e+02	-16.6664	-25.546692	0.000123	1.229844	0.416682	0.000050
1591	1.5821e+02	-16.6086	-25.504328	0.000106	1.057056	0.358140	0.000043
1592	1.5830e+02	-16.5878	-25.463594	0.000102	1.016400	0.344366	0.000041
1593	1.5840e+02	-16.5637	-25.415120	0.000121	1.209516	0.409795	0.000049
1594	1.5850e+02	-16.5284	-25.382533	0.000081	0.813120	0.275493	0.000033
1595	1.5860e+02	-16.4626	-25.335688	0.000117	1.168860	0.396021	0.000047
1596	1.5870e+02	-16.4370	-25.293325	0.000106	1.057056	0.358140	0.000043
1597	1.5880e+02	-16.4017	-25.247702	0.000114	1.138368	0.385690	0.000046
1598	1.5890e+02	-16.3584	-25.199229	0.000121	1.209516	0.409795	0.000049
1599	1.5900e+02	-16.3231	-25.154421	0.000112	1.118040	0.378802	0.000045
1600	1.5910e+02	-16.2717	-25.111243	0.000108	1.077384	0.365028	0.000043
1601	1.5920e+02	-16.2204	-25.065620	0.000114	1.138368	0.385690	0.000046
1602	1.5930e+02	-16.1947	-25.019591	0.000115	1.148532	0.389133	0.000046
1603	1.5940e+02	-16.1418	-24.969487	0.000125	1.250172	0.423570	0.000050
1604	1.5950e+02	-16.1049	-24.927938	0.000104	1.036728	0.351253	0.000042
1605	1.5960e+02	-16.0600	-24.883538	0.000111	1.107876	0.375359	0.000045
1606	1.5970e+02	-16.0118	-24.834657	0.000122	1.219680	0.413239	0.000049
1607	1.5980e+02	-15.9974	-24.786591	0.000120	1.199352	0.406352	0.000048
1608	1.5990e+02	-15.9605	-24.742190	0.000111	1.107876	0.375359	0.000045
1609	1.6000e+02	-15.9316	-24.694124	0.000120	1.199352	0.406352	0.000048
1610	1.6010e+02	-15.8755	-24.645243	0.000122	1.219680	0.413239	0.000049
1611	1.6019e+02	-15.7969	-24.601250	0.000110	1.097712	0.371915	0.000044
1612	1.6029e+02	-15.7744	-24.553183	0.000120	1.199352	0.406352	0.000048
1613	1.6039e+02	-15.7455	-24.500636	0.000131	1.311156	0.444232	0.000053
1614	1.6049e+02	-15.7295	-24.457050	0.000109	1.087548	0.368471	0.000044
1615	1.6059e+02	-15.7038	-24.414279	0.000107	1.067220	0.361584	0.000043
1616	1.6069e+02	-15.6621	-24.360103	0.000135	1.351812	0.458006	0.000054
1617	1.6079e+02	-15.6044	-24.312851	0.000118	1.179024	0.399464	0.000047
1618	1.6089e+02	-15.5514	-24.268044	0.000112	1.118040	0.378802	0.000045
1619	1.6099e+02	-15.5193	-24.217533	0.000126	1.260336	0.427013	0.000051
1620	1.6109e+02	-15.4632	-24.167430	0.000125	1.250172	0.423570	0.000050
1621	1.6119e+02	-15.4167	-24.123844	0.000109	1.087548	0.368471	0.000044
1622	1.6129e+02	-15.3894	-24.073741	0.000125	1.250172	0.423570	0.000050
1623	1.6139e+02	-15.3605	-24.026489	0.000118	1.179024	0.399464	0.000047
1624	1.6149e+02	-15.3124	-23.976794	0.000124	1.240008	0.420126	0.000050
1625	1.6159e+02	-15.2883	-23.928320	0.000121	1.209516	0.409795	0.000049
1626	1.6169e+02	-15.2290	-23.874551	0.000134	1.341648	0.454563	0.000054
1627	1.6179e+02	-15.2065	-23.833409	0.000103	1.026564	0.347809	0.000041
1628	1.6189e+02	-15.1584	-23.784935	0.000121	1.209516	0.409795	0.000049
1629	1.6199e+02	-15.1327	-23.735239	0.000124	1.240008	0.420126	0.000050
1630	1.6209e+02	-15.0910	-23.683100	0.000130	1.300992	0.440788	0.000052
1631	1.6219e+02	-15.0365	-23.634219	0.000122	1.219680	0.413239	0.000049
1632	1.6228e+02	-14.9787	-23.585337	0.000122	1.219680	0.413239	0.000049
1633	1.6238e+02	-14.9466	-23.538900	0.000116	1.158696	0.392577	0.000047
1634	1.6248e+02	-14.9097	-23.485538	0.000133	1.331484	0.451119	0.000054
1635	1.6258e+02	-14.8825	-23.433806	0.000129	1.290828	0.437344	0.000052
1636	1.6268e+02	-14.8263	-23.388184	0.000114	1.138368	0.385690	0.000046
1637	1.6278e+02	-14.8039	-23.335229	0.000132	1.321320	0.447675	0.000053
1638	1.6288e+02	-14.7622	-23.287163	0.000120	1.199352	0.406352	0.000048
1639	1.6298e+02	-14.7188	-23.232579	0.000136	1.361976	0.461450	0.000055
1640	1.6308e+02	-14.6771	-23.179217	0.000133	1.331484	0.451119	0.000054
1641	1.6318e+02	-14.6242	-23.131150	0.000120	1.199352	0.406352	0.000048
1642	1.6328e+02	-14.5937	-23.079418	0.000129	1.290828	0.437344	0.000052
1643	1.6338e+02	-14.5536	-23.024019	0.000138	1.382304	0.468337	0.000056
1644	1.6348e+02	-14.5440	-22.975138	0.000122	1.219680	0.413239	0.000049
1645	1.6358e+02	-14.4894	-22.922184	0.000132	1.321320	0.447675	0.000053
1646	1.6368e+02	-14.4397	-22.869229	0.000132	1.321320	0.447675	0.000053
1647	1.6378e+02	-14.3852	-22.821163	0.000120	1.199352	0.406352	0.000048
1648	1.6388e+02	-14.3499	-22.769838	0.000128	1.280664	0.433901	0.000052
1649	1.6398e+02	-14.3306	-22.716068	0.000134	1.341648	0.454563	0.000054
1650	1.6408e+02	-14.2873	-22.665151	0.000127	1.270500	0.430457	0.000051
1651	1.6418e+02	-14.2392	-22.610567	0.000136	1.361976	0.461450	0.000055
1652	1.6427e+02	-14.1991	-22.562093	0.000121	1.209516	0.409795	0.000049
1653	1.6437e+02	-14.1702	-22.509138	0.000132	1.321320	0.447675	0.000053
1654	1.6447e+02	-14.1205	-22.457813	0.000128	1.280664	0.433901	0.000052
1655	1.6457e+02	-14.0996	-22.399156	0.000146	1.463616	0.495887	0.000059
1656	1.6467e+02	-14.0370	-22.349867	0.000123	1.229844	0.416682	0.000050
1657	1.6477e+02	-13.9841	-22.301394	0.000121	1.209516	0.409795	0.000049
1658	1.6487e+02	-13.9809	-22.247624	0.000134	1.341648	0.454563	0.000054
1659	1.6497e+02	-13.9456	-22.197521	0.000125	1.250172	0.423570	0.000050
1660	1.6507e+02	-13.8862	-22.146604	0.000127	1.270500	0.430457	0.000051
1661	1.6517e+02	-13.8429	-22.096500	0.000125	1.250172	0.423570	0.000050
1662	1.6527e+02	-13.8092	-22.042731	0.000134	1.341648	0.454563	0.000054
1663	1.6537e+02	-13.7579	-21.991813	0.000127	1.270500	0.430457	0.000051
1664	1.6547e+02	-13.7242	-21.935193	0.000141	1.412796	0.478668	0.000057
1665	1.6557e+02	-13.7066	-21.888348	0.000117	1.168860	0.396021	0.000047
1666	1.6567e+02	-13.6408	-21.832950	0.000138	1.382304	0.468337	0.000056
1667	1.6577e+02	-13.5766	-21.783254	0.000124	1.240008	0.420126	0.000050
1668	1.6587e+02	-13.5638	-21.730707	0.000131	1.311156	0.444232	0.000053
1669	1.6597e+02	-13.5477	-21.677345	0.000133	1.331484	0.451119	0.000054
1670	1.6607e+02	-13.4659	-21.626020	0.000128	1.280664	0.433901	0.000052
1671	1.6616e+02	-13.4451	-21.571843	0.000135	1.351812	0.458006	0.000054
1672	1.6626e+02	-13.4130	-21.522555	0.000123	1.229844	0.416682	0.000050
1673	1.6636e+02	-13.3793	-21.472452	0.000125	1.250172	0.423570	0.000050
1674	1.6646e+02	-13.3135	-21.412980	0.000148	1.483944	0.502774	0.000060
1675	1.6656e+02	-13.2879	-21.363284	0.000124	1.240008	0.420126	0.000050
1676	1.6666e+02	-13.2462	-21.311551	0.000129	1.290828	0.437344	0.000052
1677	1.6676e+02	-13.1884	-21.262263	0.000123	1.229844	0.416682	0.000050
1678	1.6686e+02	-13.1724	-21.202791	0.000148	1.483944	0.502774	0.000060
1679	1.6696e+02	-13.1403	-21.154724	0.000120	1.199352	0.406352	0.000048
1680	1.6706e+02	-13.0873	-21.100955	0.000134	1.341648	0.454563	0.000054
1681	1.6716e+02	-13.0264	-21.045149	0.000139	1.392468	0.471781	0.000056
1682	1.6726e+02	-12.9831	-21.000342	0.000112	1.118040	0.378802	0.000045
1683	1.6736e+02	-12.9365	-20.944128	0.000140	1.402632	0.475225	0.000056
1684	1.6746e+02	-12.9061	-20.898099	0.000115	1.148532	0.389133	0.000046
1685	1.6756e+02	-12.8900	-20.847181	0.000127	1.270500	0.430457	0.000051
1686	1.6766e+02	-12.8547	-20.801151	0.000115	1.148532	0.389133	0.000046
1687	1.6776e+02	-12.8242	-20.745752	0.000138	1.382304	0.468337	0.000056
1688	1.6786e+02	-12.7889	-20.696871	0.000122	1.219680	0.413239	0.000049
1689	1.6796e+02	-12.7264	-20.647176	0.000124	1.240008	0.420126	0.000050
1690	1.6806e+02	-12.6783	-20.598294	0.000122	1.219680	0.413239	0.000049
1691	1.6816e+02	-12.6622	-20.544525	0.000134	1.341648	0.454563	0.000054
1692	1.6825e+02	-12.6446	-20.498903	0.000114	1.138368	0.385690	0.000046
1693	1.6835e+02	-12.5868	-20.451244	0.000119	1.189188	0.402908	0.000048
1694	1.6845e+02	-12.5419	-20.400733	0.000126	1.260336	0.427013	0.000051
1695	1.6855e+02	-12.4793	-20.351445	0.000123	1.229844	0.416682	0.000050
1696	1.6865e+02	-12.4296	-20.296454	0.000137	1.372140	0.464894	0.000055
1697	1.6875e+02	-12.3943	-20.250424	0.000115	1.148532	0.389133	0.000046
1698	1.6885e+02	-12.3654	-20.201950	0.000121	1.209516	0.409795	0.000049
1699	1.6895e+02	-12.3285	-20.150218	0.000129	1.290828	0.437344	0.000052
1700	1.6905e+02	-12.2772	-20.104188	0.000115	1.148532	0.389133	0.000046
1701	1.6915e+02	-12.2499	-20.050011	0.000135	1.351812	0.458006	0.000054
1702	1.6925e+02	-12.2162	-20.001130	0.000122	1.219680	0.413239	0.000049
1703	1.6935e+02	-12.1697	-19.953064	0.000120	1.199352	0.406352	0.000048
1704	1.6945e+02	-12.1104	-19.900109	0.000132	1.321320	0.447675	0.000053
1705	1.6955e+02	-12.0943	-19.847562	0.000131	1.311156	0.444232	0.000053
1706	1.6965e+02	-12.0382	-19.804384	0.000108	1.077384	0.365028	0.000043
1707	1.6975e+02	-12.0093	-19.750615	0.000134	1.341648	0.454563	0.000054
1708	1.6985e+02	-11.9692	-19.700511	0.000125	1.250172	0.423570	0.000050
1709	1.6995e+02	-11.9403	-19.651630	0.000122	1.219680	0.413239	0.000049
1710	1.7005e+02	-11.8858	-19.599083	0.000131	1.311156	0.444232	0.000053
1711	1.7015e+02	-11.8312	-19.551017	0.000120	1.199352	0.406352	0.000048
1712	1.7024e+02	-11.8216	-19.500099	0.000127	1.270500	0.430457	0.000051
1713	1.7034e+02	-11.7606	-19.449588	0.000126	1.260336	0.427013	0.000051
1714	1.7044e+02	-11.7414	-19.394190	0.000138	1.382304	0.468337	0.000056
1715	1.7054e+02	-11.6981	-19.350197	0.000110	1.097712	0.371915	0.000044
1716	1.7064e+02	-11.6483	-19.298057	0.000130	1.300992	0.440788	0.000052
1717	1.7074e+02	-11.6082	-19.250805	0.000118	1.179024	0.399464	0.000047
1718	1.7084e+02	-11.5489	-19.198258	0.000131	1.311156	0.444232	0.000053
1719	1.7094e+02	-11.5232	-19.157117	0.000103	1.026564	0.347809	0.000041
1720	1.7104e+02	-11.5023	-19.100089	0.000142	1.422960	0.482112	0.000057
1721	1.7114e+02	-11.4510	-19.052837	0.000118	1.179024	0.399464	0.000047
1722	1.7124e+02	-11.4414	-18.996216	0.000141	1.412796	0.478668	0.000057
1723	1.7134e+02	-11.3852	-18.953038	0.000108	1.077384	0.365028	0.000043
1724	1.7144e+02	-11.3339	-18.906194	0.000117	1.168860	0.396021	0.000047
1725	1.7154e+02	-11.3066	-18.858127	0.000120	1.199352	0.406352	0.000048
1726	1.7164e+02	-11.2633	-18.810875	0.000118	1.179024	0.399464	0.000047
1727	1.7174e+02	-11.2184	-18.761587	0.000123	1.229844	0.416682	0.000050
1728	1.7184e+02	-11.1558	-18.716779	0.000112	1.118040	0.378802	0.000045
1729	1.7194e+02	-11.1270	-18.660973	0.000139	1.392468	0.471781	0.000056
1730	1.7204e+02	-11.0965	-18.611685	0.000123	1.229844	0.416682	0.000050
1731	1.7213e+02	-11.0612	-18.564026	0.000119	1.189188	0.402908	0.000048
1732	1.7223e+02	-11.0163	-18.514330	0.000124	1.240008	0.420126	0.000050
1733	1.7233e+02	-10.9906	-18.465856	0.000121	1.209516	0.409795	0.000049
1734	1.7243e+02	-10.9296	-18.418197	0.000119	1.189188	0.402908	0.000048
1735	1.7253e+02	-10.8895	-18.365243	0.000132	1.321320	0.447675	0.000053
1736	1.7263e+02	-10.8478	-18.317176	0.000120	1.199352	0.406352	0.000048
1737	1.7273e+02	-10.8206	-18.268702	0.000121	1.209516	0.409795	0.000049
1738	1.7283e+02	-10.7756	-18.221451	0.000118	1.179024	0.399464	0.000047
1739	1.7293e+02	-10.7307	-18.171348	0.000125	1.250172	0.423570	0.000050
1740	1.7303e+02	-10.7002	-18.117171	0.000135	1.351812	0.458006	0.000054
1741	1.7313e+02	-10.6649	-18.071956	0.000113	1.128204	0.382246	0.000045
1742	1.7323e+02	-10.5911	-18.020223	0.000129	1.290828	0.437344	0.000052
1743	1.7333e+02	-10.5767	-17.968898	0.000128	1.280664	0.433901	0.000052
1744	1.7343e+02	-10.5446	-17.917980	0.000127	1.270500	0.430457	0.000051
1745	1.7353e+02	-10.5045	-17.865841	0.000130	1.300992	0.440788	0.000052
1746	1.7363e+02	-10.4692	-17.814108	0.000129	1.290828	0.437344	0.000052
1747	1.7373e+02	-10.3970	-17.764412	0.000124	1.240008	0.420126	0.000050
1748	1.7383e+02	-10.3762	-17.715124	0.000123	1.229844	0.416682	0.000050
1749	1.7393e+02	-10.3152	-17.666650	0.000121	1.209516	0.409795	0.000049
1750	1.7403e+02	-10.2960	-17.616140	0.000126	1.260336	0.427013	0.000051
1751	1.7413e+02	-10.2510	-17.565629	0.000126	1.260336	0.427013	0.000051
1752	1.7422e+02	-10.2125	-17.515526	0.000125	1.250172	0.423570	0.000050
1753	1.7432e+02	-10.1805	-17.459720	0.000139	1.392468	0.471781	0.000056
1754	1.7442e+02	-10.1179	-17.412468	0.000118	1.179024	0.399464	0.000047
1755	1.7452e+02	-10.0842	-17.354218	0.000145	1.453452	0.492443	0.000059
1756	1.7462e+02	-10.0585	-17.306967	0.000118	1.179024	0.399464	0.000047
1757	1.7472e+02	-10.0361	-17.255234	0.000129	1.290828	0.437344	0.000052
1758	1.7482e+02	-9.9687	-17.205946	0.000123	1.229844	0.416682	0.000050
1759	1.7492e+02	-9.9478	-17.157879	0.000120	1.199352	0.406352	0.000048
1760	1.7502e+02	-9.9142	-17.100851	0.000142	1.422960	0.482112	0.000057
1761	1.7512e+02	-9.8676	-17.050748	0.000125	1.250172	0.423570	0.000050
1762	1.7522e+02	-9.8259	-16.997386	0.000133	1.331484	0.451119	0.000054
1763	1.7532e+02	-9.7602	-16.947283	0.000125	1.250172	0.423570	0.000050
1764	1.7542e+02	-9.7377	-16.894736	0.000131	1.311156	0.444232	0.000053
1765	1.7552e+02	-9.6992	-16.840152	0.000136	1.361976	0.461450	0.000055
1766	1.7562e+02	-9.6559	-16.786790	0.000133	1.331484	0.451119	0.000054
1767	1.7572e+02	-9.6190	-16.734650	0.000130	1.300992	0.440788	0.000052
1768	1.7582e+02	-9.5885	-16.677622	0.000142	1.422960	0.482112	0.000057
1769	1.7592e+02	-9.5259	-16.622224	0.000138	1.382304	0.468337	0.000056
1770	1.7602e+02	-9.5019	-16.568047	0.000135	1.351812	0.458006	0.000054
1771	1.7612e+02	-9.4602	-16.517944	0.000125	1.250172	0.423570	0.000050
1772	1.7621e+02	-9.4072	-16.462953	0.000137	1.372140	0.464894	0.000055
1773	1.7631e+02	-9.3864	-16.406332	0.000141	1.412796	0.478668	0.000057
1774	1.7641e+02	-9.3398	-16.349304	0.000142	1.422960	0.482112	0.000057
1775	1.7651e+02	-9.3190	-16.294313	0.000137	1.372140	0.464894	0.000055
1776	1.7661e+02	-9.2612	-16.239322	0.000137	1.372140	0.464894	0.000055
1777	1.7671e+02	-9.2179	-16.183923	0.000138	1.382304	0.468337	0.000056
1778	1.7681e+02	-9.1714	-16.127303	0.000141	1.412796	0.478668	0.000057
1779	1.7691e+02	-9.1570	-16.072719	0.000136	1.361976	0.461450	0.000055
1780	1.7701e+02	-9.1008	-16.010803	0.000154	1.544928	0.523436	0.000062
1781	1.7711e+02	-9.0687	-15.960700	0.000125	1.250172	0.423570	0.000050
1782	1.7721e+02	-9.0527	-15.902042	0.000146	1.463616	0.495887	0.000059
1783	1.7731e+02	-8.9837	-15.843385	0.000146	1.463616	0.495887	0.000059
1784	1.7741e+02	-8.9420	-15.790838	0.000131	1.311156	0.444232	0.000053
1785	1.7751e+02	-8.9019	-15.732995	0.000144	1.443288	0.488999	0.000058
1786	1.7761e+02	-8.8506	-15.676374	0.000141	1.412796	0.478668	0.000057
1787	1.7771e+02	-8.8313	-15.618124	0.000145	1.453452	0.492443	0.000059
1788	1.7781e+02	-8.7912	-15.559874	0.000145	1.453452	0.492443	0.000059
1789	1.7791e+02	-8.7463	-15.503661	0.000140	1.402632	0.475225	0.000056
1790	1.7801e+02	-8.7062	-15.447448	0.000140	1.402632	0.475225	0.000056
1791	1.7810e+02	-8.6580	-15.391642	0.000139	1.392468	0.471781	0.000056
1792	1.7820e+02	-8.6388	-15.337873	0.000134	1.341648	0.454563	0.000054
1793	1.7830e+02	-8.5778	-15.273105	0.000162	1.616076	0.547541	0.000065
1794	1.7840e+02	-8.5490	-15.221373	0.000129	1.290828	0.437344	0.000052
1795	1.7850e+02	-8.5040	-15.164345	0.000142	1.422960	0.482112	0.000057
1796	1.7860e+02	-8.4591	-15.103243	0.000152	1.524600	0.516549	0.000061
1797	1.7870e+02	-8.4014	-15.044179	0.000147	1.473780	0.499330	0.000059
1798	1.7880e+02	-8.3901	-14.992039	0.000130	1.300992	0.440788	0.000052
1799	1.7890e+02	-8.3548	-14.932160	0.000149	1.494108	0.506218	0.000060
1800	1.7900e+02	-8.3035	-14.873095	0.000147	1.473780	0.499330	0.000059
1801	1.7910e+02	-8.2746	-14.815252	0.000144	1.443288	0.488999	0.000058
1802	1.7920e+02	-8.2185	-14.753336	0.000154	1.544928	0.523436	0.000062
1803	1.7930e+02	-8.1704	-14.695086	0.000145	1.453452	0.492443	0.000059
1804	1.7940e+02	-8.1319	-14.636836	0.000145	1.453452	0.492443	0.000059
1805	1.7950e+02	-8.1078	-14.575735	0.000152	1.524600	0.516549	0.000061
1806	1.7960e+02	-8.0613	-14.517892	0.000144	1.443288	0.488999	0.000058
1807	1.7970e+02	-8.0324	-14.458828	0.000147	1.473780	0.499330	0.000059
1808	1.7980e+02	-7.9811	-14.401392	0.000143	1.433124	0.485556	0.000058
1809	1.7990e+02	-7.9634	-14.337847	0.000159	1.585584	0.537210	0.000064
1810	1.8000e+02	-7.9008	-14.277967	0.000149	1.494108	0.506218	0.000060
1811	1.8009e+02	-7.8447	-14.218903	0.000147	1.473780	0.499330	0.000059
1812	1.8019e+02	-7.8238	-14.153728	0.000163	1.626240	0.550985	0.000066
1813	1.8029e+02	-7.7789	-14.099144	0.000136	1.361976	0.461450	0.000055
1814	1.8039e+02	-7.7597	-14.032340	0.000167	1.666896	0.564760	0.000067
1815	1.8049e+02	-7.7035	-13.972461	0.000149	1.494108	0.506218	0.000060
1816	1.8059e+02	-7.6763	-13.913396	0.000147	1.473780	0.499330	0.000059
1817	1.8069e+02	-7.6201	-13.853517	0.000149	1.494108	0.506218	0.000060
1818	1.8079e+02	-7.5752	-13.789971	0.000159	1.585584	0.537210	0.000064
1819	1.8089e+02	-7.5367	-13.729277	0.000151	1.514436	0.513105	0.000061
1820	1.8099e+02	-7.5078	-13.671842	0.000143	1.433124	0.485556	0.000058
1821	1.8109e+02	-7.4597	-13.605445	0.000166	1.656732	0.561316	0.000067
1822	1.8119e+02	-7.4356	-13.545566	0.000149	1.494108	0.506218	0.000060
1823	1.8129e+02	-7.4196	-13.485686	0.000149	1.494108	0.506218	0.000060
1824	1.8139e+02	-7.3121	-13.422955	0.000157	1.565256	0.530323	0.000063
1825	1.8149e+02	-7.3313	-13.367964	-0.000137	-1.372140	-0.464894	0.000055
1826	1.8159e+02	-7.2495	-13.308085	0.000149	1.494108	0.506218	0.000060
1827	1.8169e+02	-7.2174	-13.246169	0.000154	1.544928	0.523436	0.000062
1828	1.8179e+02	-7.2046	-13.185882	0.000150	1.504272	0.509661	0.000061
1829	1.8189e+02	-7.1372	-13.128854	0.000142	1.422960	0.482112	0.000057
1830	1.8199e+02	-7.1180	-13.068160	0.000151	1.514436	0.513105	0.000061
1831	1.8209e+02	-7.0634	-12.999727	0.000171	1.707552	0.578534	0.000069
1832	1.8218e+02	-7.0281	-12.939847	0.000149	1.494108	0.506218	0.000060
1833	1.8228e+02	-6.9736	-12.875487	0.000161	1.605912	0.544098	0.000065
1834	1.8238e+02	-6.9479	-12.812349	0.000158	1.575420	0.533767	0.000063
1835	1.8248e+02	-6.9094	-12.754914	0.000143	1.433124	0.485556	0.000058
1836	1.8258e+02	-6.8886	-12.691368	0.000159	1.585584	0.537210	0.000064
1837	1.8268e+02	-6.8244	-12.632304	0.000147	1.473780	0.499330	0.000059
1838	1.8278e+02	-6.7955	-12.568758	0.000159	1.585584	0.537210	0.000064
1839	1.8288e+02	-6.7378	-12.510101	0.000146	1.463616	0.495887	0.000059
1840	1.8298e+02	-6.7249	-12.453480	0.000141	1.412796	0.478668	0.000057
1841	1.8308e+02	-6.6544	-12.384639	0.000172	1.717716	0.581978	0.000069
1842	1.8318e+02	-6.6303	-12.330055	0.000136	1.361976	0.461450	0.000055
1843	1.8328e+02	-6.6014	-12.266103	0.000160	1.595748	0.540654	0.000064
1844	1.8338e+02	-6.5549	-12.206223	0.000149	1.494108	0.506218	0.000060
1845	1.8348e+02	-6.5036	-12.142270	0.000160	1.595748	0.540654	0.000064
1846	1.8358e+02	-6.4923	-12.078318	0.000160	1.595748	0.540654	0.000064
1847	1.8368e+02	-6.4121	-12.018031	0.000150	1.504272	0.509661	0.000061
1848	1.8378e+02	-6.4041	-11.962632	0.000138	1.382304	0.468337	0.000056
1849	1.8388e+02	-6.3544	-11.904382	0.000145	1.453452	0.492443	0.000059
1850	1.8398e+02	-6.3175	-11.842059	0.000156	1.555092	0.526880	0.000063
1851	1.8407e+02	-6.2645	-11.784624	0.000143	1.433124	0.485556	0.000058
1852	1.8417e+02	-6.2405	-11.728818	0.000139	1.392468	0.471781	0.000056
1853	1.8427e+02	-6.1988	-11.666087	0.000157	1.565256	0.530323	0.000063
1854	1.8437e+02	-6.1538	-11.607022	0.000147	1.473780	0.499330	0.000059
1855	1.8447e+02	-6.1073	-11.545921	0.000152	1.524600	0.516549	0.000061
1856	1.8457e+02	-6.0913	-11.483598	0.000156	1.555092	0.526880	0.000063
1857	1.8467e+02	-6.0415	-11.424940	0.000146	1.463616	0.495887	0.000059
1858	1.8477e+02	-6.0046	-11.366690	0.000145	1.453452	0.492443	0.000059
1859	1.8487e+02	-5.9437	-11.308440	0.000145	1.453452	0.492443	0.000059
1860	1.8497e+02	-5.9132	-11.251820	0.000141	1.412796	0.478668	0.000057
1861	1.8507e+02	-5.8843	-11.193570	0.000145	1.453452	0.492443	0.000059
1862	1.8517e+02	-5.8490	-11.132876	0.000151	1.514436	0.513105	0.000061
1863	1.8527e+02	-5.7993	-11.072589	0.000150	1.504272	0.509661	0.000061
1864	1.8537e+02	-5.7624	-11.015968	0.000141	1.412796	0.478668	0.000057
1865	1.8547e+02	-5.7303	-10.955274	0.000151	1.514436	0.513105	0.000061
1866	1.8557e+02	-5.6629	-10.896210	0.000147	1.473780	0.499330	0.000059
1867	1.8567e+02	-5.6389	-10.839996	0.000140	1.402632	0.475225	0.000056
1868	1.8577e+02	-5.5924	-10.776858	0.000158	1.575420	0.533767	0.000063
1869	1.8587e+02	-5.5298	-10.717794	0.000147	1.473780	0.499330	0.000059
1870	1.8597e+02	-5.5041	-10.658322	0.000148	1.483944	0.502774	0.000060
1871	1.8606e+02	-5.4769	-10.595998	0.000156	1.555092	0.526880	0.000063
1872	1.8616e+02	-5.4496	-10.535711	0.000150	1.504272	0.509661	0.000061
1873	1.8626e+02	-5.3806	-10.482757	0.000132	1.321320	0.447675	0.000053
1874	1.8636e+02	-5.3597	-10.422470	0.000150	1.504272	0.509661	0.000061
1875	1.8646e+02	-5.3116	-10.360147	0.000156	1.555092	0.526880	0.000063
1876	1.8656e+02	-5.2924	-10.297009	0.000158	1.575420	0.533767	0.000063
1877	1.8666e+02	-5.2523	-10.239981	0.000142	1.422960	0.482112	0.000057
1878	1.8676e+02	-5.2025	-10.180509	0.000148	1.483944	0.502774	0.000060
1879	1.8686e+02	-5.1480	-10.123888	0.000141	1.412796	0.478668	0.000057
1880	1.8696e+02	-5.1095	-10.054233	0.000174	1.738044	0.588865	0.000070
1881	1.8706e+02	-5.0822	-10.005759	0.000121	1.209516	0.409795	0.000049
1882	1.8716e+02	-5.0405	-9.944250	0.000153	1.534764	0.519992	0.000062
1883	1.8726e+02	-5.0052	-9.882334	0.000154	1.544928	0.523436	0.000062
1884	1.8736e+02	-4.9571	-9.822455	0.000149	1.494108	0.506218	0.000060
1885	1.8746e+02	-4.9122	-9.761761	0.000151	1.514436	0.513105	0.000061
1886	1.8756e+02	-4.8865	-9.702696	0.000147	1.473780	0.499330	0.000059
1887	1.8766e+02	-4.8416	-9.642409	0.000150	1.504272	0.509661	0.000061
1888	1.8776e+02	-4.7983	-9.585789	0.000141	1.412796	0.478668	0.000057
1889	1.8786e+02	-4.7469	-9.521021	0.000162	1.616076	0.547541	0.000065
1890	1.8796e+02	-4.7213	-9.465623	0.000138	1.382304	0.468337	0.000056
1891	1.8806e+02	-4.6731	-9.408595	0.000142	1.422960	0.482112	0.000057
1892	1.8815e+02	-4.6539	-9.352381	0.000140	1.402632	0.475225	0.000056
1893	1.8825e+02	-4.6058	-9.296168	0.000140	1.402632	0.475225	0.000056
1894	1.8835e+02	-4.5608	-9.237918	0.000145	1.453452	0.492443	0.000059
1895	1.8845e+02	-4.5143	-9.177631	0.000150	1.504272	0.509661	0.000061
1896	1.8855e+02	-4.4710	-9.114901	0.000157	1.565256	0.530323	0.000063
1897	1.8865e+02	-4.4405	-9.058687	0.000140	1.402632	0.475225	0.000056
1898	1.8875e+02	-4.3860	-8.996771	0.000154	1.544928	0.523436	0.000062
1899	1.8885e+02	-4.3555	-8.936077	0.000151	1.514436	0.513105	0.000061
1900	1.8895e+02	-4.3234	-8.877827	0.000145	1.453452	0.492443	0.000059
1901	1.8905e+02	-4.2977	-8.820799	0.000142	1.422960	0.482112	0.000057
1902	1.8915e+02	-4.2416	-8.766215	0.000136	1.361976	0.461450	0.000055
1903	1.8925e+02	-4.1887	-8.701855	0.000161	1.605912	0.544098	0.000065
1904	1.8935e+02	-4.1662	-8.647679	0.000135	1.351812	0.458006	0.000054
1905	1.8945e+02	-4.1357	-8.582504	0.000163	1.626240	0.550985	0.000066
1906	1.8955e+02	-4.0876	-8.521810	0.000151	1.514436	0.513105	0.000061
1907	1.8965e+02	-4.0314	-8.460708	0.000152	1.524600	0.516549	0.000061
1908	1.8975e+02	-3.9929	-8.408976	0.000129	1.290828	0.437344	0.000052
1909	1.8985e+02	-3.9785	-8.343394	0.000164	1.636404	0.554429	0.000066
1910	1.8995e+02	-3.9207	-8.284736	0.000146	1.463616	0.495887	0.000059
1911	1.9004e+02	-3.8855	-8.216303	0.000171	1.707552	0.578534	0.000069
1912	1.9014e+02	-3.8614	-8.161719	0.000136	1.361976	0.461450	0.000055
1913	1.9024e+02	-3.7988	-8.099396	0.000156	1.555092	0.526880	0.000063
1914	1.9034e+02	-3.7619	-8.038702	0.000151	1.514436	0.513105	0.000061
1915	1.9044e+02	-3.7202	-7.978822	0.000149	1.494108	0.506218	0.000060
1916	1.9054e+02	-3.6753	-7.914869	0.000160	1.595748	0.540654	0.000064
1917	1.9064e+02	-3.6528	-7.859064	0.000139	1.392468	0.471781	0.000056
1918	1.9074e+02	-3.5935	-7.794703	0.000161	1.605912	0.544098	0.000065
1919	1.9084e+02	-3.5694	-7.734009	0.000151	1.514436	0.513105	0.000061
1920	1.9094e+02	-3.5405	-7.670871	0.000158	1.575420	0.533767	0.000063
1921	1.9104e+02	-3.4844	-7.610177	0.000151	1.514436	0.513105	0.000061
1922	1.9114e+02	-3.4539	-7.550705	0.000148	1.483944	0.502774	0.000060
1923	1.9124e+02	-3.4010	-7.484716	0.000165	1.646568	0.557872	0.000066
1924	1.9134e+02	-3.3737	-7.421578	0.000158	1.575420	0.533767	0.000063
1925	1.9144e+02	-3.3127	-7.363328	0.000145	1.453452	0.492443	0.000059
1926	1.9154e+02	-3.2983	-7.300190	0.000158	1.575420	0.533767	0.000063
1927	1.9164e+02	-3.2454	-7.242754	0.000143	1.433124	0.485556	0.000058
1928	1.9174e+02	-3.2037	-7.177172	0.000164	1.636404	0.554429	0.000066
1929	1.9184e+02	-3.1764	-7.119737	0.000143	1.433124	0.485556	0.000058
1930	1.9194e+02	-3.1283	-7.053747	0.000165	1.646568	0.557872	0.000066
1931	1.9203e+02	-3.0881	-6.988980	0.000162	1.616076	0.547541	0.000065
1932	1.9213e+02	-3.0480	-6.925434	0.000159	1.585584	0.537210	0.000064
1933	1.9223e+02	-3.0047	-6.859852	0.000164	1.636404	0.554429	0.000066
1934	1.9233e+02	-2.9742	-6.796714	0.000158	1.575420	0.533767	0.000063
1935	1.9243e+02	-2.9341	-6.734391	0.000156	1.555092	0.526880	0.000063
1936	1.9253e+02	-2.9085	-6.667587	0.000167	1.666896	0.564760	0.000067
1937	1.9263e+02	-2.8443	-6.601190	0.000166	1.656732	0.561316	0.000067
1938	1.9273e+02	-2.8058	-6.537237	0.000160	1.595748	0.540654	0.000064
1939	1.9283e+02	-2.7833	-6.466359	0.000177	1.768536	0.599196	0.000071
1940	1.9293e+02	-2.7352	-6.407295	0.000147	1.473780	0.499330	0.000059
1941	1.9303e+02	-2.6887	-6.334380	0.000182	1.819356	0.616415	0.000073
1942	1.9313e+02	-2.6630	-6.267984	0.000166	1.656732	0.561316	0.000067
1943	1.9323e+02	-2.6085	-6.199957	0.000170	1.697388	0.575091	0.000068
1944	1.9333e+02	-2.5796	-6.139263	0.000151	1.514436	0.513105	0.000061
1945	1.9343e+02	-2.5186	-6.067571	0.000179	1.788864	0.606084	0.000072
1946	1.9353e+02	-2.5042	-6.002396	0.000163	1.626240	0.550985	0.000066
1947	1.9363e+02	-2.4481	-5.929482	0.000182	1.819356	0.616415	0.000073
1948	1.9373e+02	-2.3967	-5.867566	0.000154	1.544928	0.523436	0.000062
1949	1.9383e+02	-2.3759	-5.799132	0.000171	1.707552	0.578534	0.000069
1950	1.9393e+02	-2.3326	-5.728662	0.000176	1.758372	0.595753	0.000071
1951	1.9403e+02	-2.2973	-5.663487	0.000163	1.626240	0.550985	0.000066
1952	1.9412e+02	-2.2732	-5.598312	0.000163	1.626240	0.550985	0.000066
1953	1.9422e+02	-2.1962	-5.527842	0.000176	1.758372	0.595753	0.000071
1954	1.9432e+02	-2.1545	-5.461853	0.000165	1.646568	0.557872	0.000066
1955	1.9442e+02	-2.1384	-5.389346	0.000181	1.809192	0.612971	0.000073
1956	1.9452e+02	-2.0999	-5.324986	0.000161	1.605912	0.544098	0.000065
1957	1.9462e+02	-2.0486	-5.257367	0.000169	1.687224	0.571647	0.000068
1958	1.9472e+02	-2.0213	-5.189748	0.000169	1.687224	0.571647	0.000068
1959	1.9482e+02	-1.9588	-5.121314	0.000171	1.707552	0.578534	0.000069
1960	1.9492e+02	-1.9379	-5.048400	0.000182	1.819356	0.616415	0.000073
1961	1.9502e+02	-1.8882	-4.977522	0.000177	1.768536	0.599196	0.000071
1962	1.9512e+02	-1.8545	-4.908681	0.000172	1.717716	0.581978	0.000069
1963	1.9522e+02	-1.8144	-4.845543	0.000158	1.575420	0.533767	0.000063
1964	1.9532e+02	-1.7631	-4.771407	0.000185	1.849848	0.626746	0.000075
1965	1.9542e+02	-1.7133	-4.703788	0.000169	1.687224	0.571647	0.000068
1966	1.9552e+02	-1.6893	-4.633725	0.000175	1.748208	0.592309	0.000070
1967	1.9562e+02	-1.6572	-4.567736	0.000165	1.646568	0.557872	0.000066
1968	1.9572e+02	-1.6123	-4.494414	0.000183	1.829520	0.619858	0.000074
1969	1.9582e+02	-1.5802	-4.427203	0.000168	1.677060	0.568203	0.000068
1970	1.9592e+02	-1.5449	-4.354696	0.000181	1.809192	0.612971	0.000073
1971	1.9601e+02	-1.4903	-4.283003	0.000179	1.788864	0.606084	0.000072
1972	1.9611e+02	-1.4582	-4.212940	0.000175	1.748208	0.592309	0.000070
1973	1.9621e+02	-1.4342	-4.139619	0.000183	1.829520	0.619858	0.000074
1974	1.9631e+02	-1.3556	-4.067519	0.000180	1.799028	0.609527	0.000072
1975	1.9641e+02	-1.3235	-3.993790	0.000184	1.839684	0.623302	0.000074
1976	1.9651e+02	-1.2866	-3.921690	0.000180	1.799028	0.609527	0.000072
1977	1.9661e+02	-1.2465	-3.843888	0.000194	1.941324	0.657738	0.000078
1978	1.9671e+02	-1.2048	-3.776269	0.000169	1.687224	0.571647	0.000068
1979	1.9681e+02	-1.1759	-3.702133	0.000185	1.849848	0.626746	0.000075
1980	1.9691e+02	-1.1422	-3.629626	0.000181	1.809192	0.612971	0.000073
1981	1.9701e+02	-1.0909	-3.560378	0.000173	1.727880	0.585422	0.000070
1982	1.9711e+02	-1.0476	-3.484612	0.000189	1.890504	0.640520	0.000076
1983	1.9721e+02	-1.0219	-3.419437	0.000163	1.626240	0.550985	0.000066
1984	1.9731e+02	-0.9738	-3.342449	0.000192	1.920996	0.650851	0.000077
1985	1.9741e+02	-0.9385	-3.267091	0.000188	1.880340	0.637077	0.000076
1986	1.9751e+02	-0.8759	-3.194177	0.000182	1.819356	0.616415	0.000073
1987	1.9761e+02	-0.8599	-3.112301	0.000204	2.042964	0.692175	0.000082
1988	1.9771e+02	-0.8069	-3.047533	0.000162	1.616076	0.547541	0.000065
1989	1.9781e+02	-0.7813	-2.973397	0.000185	1.849848	0.626746	0.000075
1990	1.9791e+02	-0.7315	-2.898039	0.000188	1.880340	0.637077	0.000076
1991	1.9800e+02	-0.6882	-2.823495	0.000186	1.860012	0.630189	0.000075
1992	1.9810e+02	-0.6449	-2.755876	0.000169	1.687224	0.571647	0.000068
1993	1.9820e+02	-0.6112	-2.683369	0.000181	1.809192	0.612971	0.000073
1994	1.9830e+02	-0.5727	-2.610862	0.000181	1.809192	0.612971	0.000073
1995	1.9840e+02	-0.5486	-2.539984	0.000177	1.768536	0.599196	0.000071
1996	1.9850e+02	-0.5021	-2.468292	0.000179	1.788864	0.606084	0.000072
1997	1.9860e+02	-0.4556	-2.390897	0.000193	1.931160	0.654295	0.000078
1998	1.9870e+02	-0.4203	-2.319205	0.000179	1.788864	0.606084	0.000072
1999	1.9880e+02	-0.3754	-2.245883	0.000183	1.829520	0.619858	0.000074
2000	1.9890e+02	-0.3369	-2.171747	0.000185	1.849848	0.626746	0.000075
2001	1.9900e+02	-0.3128	-2.098018	0.000184	1.839684	0.623302	0.000074
2002	1.9910e+02	-0.2631	-2.022659	0.000188	1.880340	0.637077	0.000076
2003	1.9920e+02	-0.2230	-1.948523	0.000185	1.849848	0.626746	0.000075
2004	1.9930e+02	-0.1781	-1.880497	0.000170	1.697388	0.575091	0.000068
2005	1.9940e+02	-0.1299	-1.804324	0.000190	1.900668	0.643964	0.000077
2006	1.9950e+02	-0.0930	-1.731002	0.000183	1.829520	0.619858	0.000074
2007	1.9960e+02	-0.0481	-1.660125	0.000177	1.768536	0.599196	0.000071
2008	1.9970e+02	-0.0144	-1.580285	0.000199	1.992144	0.674957	0.000080
2009	1.9980e+02	0.0273	-1.509000	0.000199	1.992144	0.674957	0.000072

Center data before PMax,+/-Pr and +/-Vc Calc.

PMax (uC/cm2):	2.89e+01
Pr (uC/cm2):	5.24e-01
-Pr (uC/cm2):	-1.51e+00
PLoss (uC/cm2):	-6.16e-01
Vc:	5.44e-01
-Vc:	-3.01e-01
C (Max-Eff) (nF):	1.44e-01
K (Eff):	4.88e+02
Vert. (+/-Pr) Shift (uC/cm2):	-4.92e-01
Horiz. Shift (+/-Vc):	1.21e-01
Offset (uC/cm2):	9.13e-01

A (Loop Area - uC/cm2·Volts):	4.00e-03



Hysteresis Version: 5.48.1 - Radiant Technologies, Inc., 1999 - 9/12/24

