»»»»»»»»»»»»»»»»»»»»»»»»»»»»»»»»»»»» Hysteresis ««««««««««««««««««««««««««««««««««««
»»»  Executed Version:	5.48.1
»»»  Vision Version:	5.48.4 (R)
»»»  Vision Compiled:	9/18/24
»»»  Driver Version:	5.47.0
»»»  Windows Version:	Windows 8 or 8.1
»»»  Processor Information:	x86 (AMD or Intel) - 32 Processors
»»»  Tester Name:	PMF21124-494 (100V)
»»»  Tester S/N:	PMF21124-494
»»»  Internal Amp Type:	100V RevK 270k
»»»  Internal Amp S/N:	iAB2-596/K     
»»»  Execution Count:	1
»»»»»»»»»»»»»»»»»»»»»»»»»»»»»»»»»»»»»»»»»»««««««««««««««««««««««««««««««««««««««««««

Stored:	6/9/2025 - 12:9:7
Configured:	06/09/25 11:17:29 AM
Executed:	06/09/25 12:08:11 PM

»»»»»»»»»»»»»»»»»»»»»»»»»»»»»»»»»»» Sample Info ««««««««««««««««««««««««««««««««««««
Sample Name:	
Lot Name:	
Wafer Name:	
Die Row/Column:	0/0
Capacitor Number:	0
Sample Area (cm2):	1.00e-04
Sample Thickness (microns):	3.00e-01

Amplifier:	Internal

»»»»»»»»»»»»»»»»»»»»»»»»»»»»»»»»»»» Tester Info «««««««««««««««««««««««««««««««««««
Tester Name:	PMF21124-494 (100V)
Tester Serial Number:	PMF21124-494
Return Signal Amp. Level:	1.79 [Index: 2]

»»»»»»»»»»»»»»»»»»»»»»»»»»»»»»»» Hysteresis Info ««««««««««««««««««««««««««««««««««
Task Name:	Hyst-785
Volts:	20.00
Field:	666.67 (kV/cm)
DCBias:	0.00
DCField:	0.00 (kV/cm)
Hysteresis Period (ms):	1.00e+00
Preset:	Enabled
Preset Delay (ms):	1.00e+03
Profile:	Standard Bipolar

»»»»»»»»»»»»»»»»»»»»»»»»»»»»»»»»»»»»»» Data «««««««««««««««««««««««««««««««««««««««
Points:	2001

Valid Data

Point	Time (ms)	Drive Voltage	Measured Polarization (uC/cm2)	Capacitance (uF)	Normalized Capacitance (uF/cm2)	Dielectric Constant	Instantaneous Current (mA)
   1	0.0000e+00	0.0594	-0.937782	-0.000119	-1.185214	-0.401561	0.009664
   2	5.0000e-04	0.0417	-0.889461	-0.000119	-1.185214	-0.401561	0.009664
   3	1.0000e-03	0.1332	-0.850974	0.000094	0.943975	0.319828	0.007697
   4	1.5000e-03	0.1668	-0.776995	0.000181	1.814531	0.614780	0.014796
   5	2.0000e-03	0.1861	-0.673082	0.000255	2.548734	0.863534	0.020783
   6	2.5000e-03	0.2583	-0.581143	0.000226	2.255052	0.764032	0.018388
   7	3.0000e-03	0.2888	-0.505025	0.000187	1.866974	0.632548	0.015223
   8	3.5000e-03	0.3112	-0.386573	0.000291	2.905347	0.984358	0.023690
   9	4.0000e-03	0.3850	-0.324995	0.000151	1.510361	0.511724	0.012316
  10	4.5000e-03	0.3690	-0.187727	-0.000337	-3.366846	-1.140718	0.027454
  11	5.0000e-03	0.4155	-0.068420	0.000293	2.926324	0.991465	0.023861
  12	5.5000e-03	0.4765	0.003421	0.000176	1.762088	0.597011	0.014368
  13	6.0000e-03	0.5101	0.094933	0.000224	2.244564	0.760479	0.018302
  14	6.5000e-03	0.5823	0.196708	0.000250	2.496291	0.845766	0.020355
  15	7.0000e-03	0.6208	0.269832	0.000179	1.793553	0.607672	0.014625
  16	7.5000e-03	0.6449	0.368613	0.000242	2.422870	0.820891	0.019756
  17	8.0000e-03	0.6914	0.466539	0.000240	2.401893	0.813783	0.019585
  18	8.5000e-03	0.6946	0.596537	0.000319	3.188539	1.080306	0.026000
  19	9.0000e-03	0.7524	0.679497	0.000203	2.034792	0.689406	0.016592
  20	9.5000e-03	0.8053	0.758607	0.000194	1.940394	0.657423	0.015822
  21	1.0000e-02	0.8342	0.854395	0.000235	2.349450	0.796015	0.019158
  22	1.0500e-02	0.8695	0.963440	0.000267	2.674597	0.906178	0.021809
  23	1.1000e-02	0.9224	1.051958	0.000217	2.171144	0.735603	0.017704
  24	1.1500e-02	0.9754	1.152022	0.000245	2.454336	0.831552	0.020013
  25	1.2000e-02	0.9882	1.251232	0.000243	2.433359	0.824444	0.019842
  26	1.2500e-02	1.0556	1.344881	0.000230	2.297007	0.778247	0.018730
  27	1.3000e-02	1.0909	1.443235	0.000241	2.412382	0.817337	0.019671
  28	1.3500e-02	1.1246	1.536458	0.000229	2.286518	0.774693	0.018644
  29	1.4000e-02	1.1534	1.651916	0.000283	2.831926	0.959483	0.023092
  30	1.4500e-02	1.1952	1.713494	0.000151	1.510361	0.511724	0.012316
  31	1.5000e-02	1.2561	1.834085	0.000296	2.957790	1.002126	0.024118
  32	1.5500e-02	1.2850	1.916189	0.000201	2.013814	0.682299	0.016421
  33	1.6000e-02	1.2914	2.020957	0.000257	2.569711	0.870642	0.020954
  34	1.6500e-02	1.3684	2.101778	0.000198	1.982348	0.671638	0.016164
  35	1.7000e-02	1.3764	2.226645	0.000306	3.062676	1.037663	0.024973
  36	1.7500e-02	1.4470	2.324571	0.000240	2.401893	0.813783	0.019585
  37	1.8000e-02	1.4679	2.419504	0.000233	2.328473	0.788908	0.018987
  38	1.8500e-02	1.5465	2.509733	0.000221	2.213098	0.749818	0.018046
  39	1.9000e-02	1.5754	2.605093	0.000234	2.338961	0.792462	0.019072
  40	1.9500e-02	1.5994	2.714993	0.000270	2.695574	0.913285	0.021980
  41	2.0000e-02	1.6235	2.809498	0.000232	2.317984	0.785354	0.018901
  42	2.0500e-02	1.6668	2.915977	0.000261	2.611665	0.884856	0.021296
  43	2.1000e-02	1.7262	3.005350	0.000219	2.192121	0.742711	0.017875
  44	2.1500e-02	1.7663	3.104559	0.000243	2.433359	0.824444	0.019842
  45	2.2000e-02	1.7951	3.209328	0.000257	2.569711	0.870642	0.020954
  46	2.2500e-02	1.8352	3.285873	0.000188	1.877462	0.636101	0.015309
  47	2.3000e-02	1.8994	3.391924	0.000260	2.601177	0.881303	0.021210
  48	2.3500e-02	1.9155	3.493271	0.000249	2.485802	0.842213	0.020269
  49	2.4000e-02	1.9636	3.595046	0.000250	2.496291	0.845766	0.020355
  50	2.4500e-02	2.0261	3.674156	0.000194	1.940394	0.657423	0.015822
  51	2.5000e-02	2.0261	3.770800	-0.000237	-2.370427	-0.803122	0.019329
  52	2.5500e-02	2.0823	3.904646	0.000328	3.282937	1.112289	0.026769
  53	2.6000e-02	2.1096	3.997013	0.000227	2.265541	0.767586	0.018473
  54	2.6500e-02	2.1577	4.090663	0.000230	2.297007	0.778247	0.018730
  55	2.7000e-02	2.1657	4.193293	0.000252	2.517268	0.852873	0.020526
  56	2.7500e-02	2.2203	4.292503	0.000243	2.433359	0.824444	0.019842
  57	2.8000e-02	2.2748	4.374607	0.000201	2.013814	0.682299	0.016421
  58	2.8500e-02	2.3117	4.452434	0.000191	1.908928	0.646762	0.015566
  59	2.9000e-02	2.3646	4.573880	0.000298	2.978767	1.009234	0.024289
  60	2.9500e-02	2.4160	4.647859	0.000181	1.814531	0.614780	0.014796
  61	3.0000e-02	2.4577	4.750489	0.000252	2.517268	0.852873	0.020526
  62	3.0500e-02	2.4625	4.872362	0.000299	2.989256	1.012787	0.024375
  63	3.1000e-02	2.5299	4.945486	0.000179	1.793553	0.607672	0.014625
  64	3.1500e-02	2.5652	5.058807	0.000278	2.779483	0.941714	0.022664
  65	3.2000e-02	2.6053	5.139628	0.000198	1.982348	0.671638	0.016164
  66	3.2500e-02	2.6374	5.240975	0.000249	2.485802	0.842213	0.020269
  67	3.3000e-02	2.6903	5.321369	0.000197	1.971860	0.668084	0.016079
  68	3.3500e-02	2.7128	5.441104	0.000294	2.936813	0.995019	0.023947
  69	3.4000e-02	2.7464	5.548438	0.000263	2.632643	0.891963	0.021467
  70	3.4500e-02	2.8026	5.627976	0.000195	1.950883	0.660977	0.015908
  71	3.5000e-02	2.8267	5.710936	0.000203	2.034792	0.689406	0.016592
  72	3.5500e-02	2.8860	5.825539	0.000281	2.810949	0.952375	0.022921
  73	3.6000e-02	2.9053	5.927742	0.000251	2.506779	0.849320	0.020440
  74	3.6500e-02	2.9742	6.025668	0.000240	2.401893	0.813783	0.019585
  75	3.7000e-02	2.9807	6.116324	0.000222	2.223587	0.753372	0.018131
  76	3.7500e-02	3.0545	6.212540	0.000236	2.359939	0.799569	0.019243
  77	3.8000e-02	3.0657	6.308328	0.000235	2.349450	0.796015	0.019158
  78	3.8500e-02	3.1202	6.421649	0.000278	2.779483	0.941714	0.022664
  79	3.9000e-02	3.1748	6.487075	0.000160	1.604758	0.543707	0.013085
  80	3.9500e-02	3.1908	6.593982	0.000262	2.622154	0.888410	0.021381
  81	4.0000e-02	3.2309	6.683783	0.000220	2.202609	0.746264	0.017960
  82	4.0500e-02	3.2710	6.807367	0.000303	3.031210	1.027002	0.024717
  83	4.1000e-02	3.3593	6.856544	0.000121	1.206191	0.408669	0.009835
  84	4.1500e-02	3.3593	6.958318	-0.000250	-2.496291	-0.845766	0.020355
  85	4.2000e-02	3.3897	7.064797	0.000261	2.611665	0.884856	0.021296
  86	4.2500e-02	3.4170	7.175980	0.000273	2.727040	0.923946	0.022237
  87	4.3000e-02	3.4748	7.249104	0.000179	1.793553	0.607672	0.014625
  88	4.3500e-02	3.5373	7.348740	0.000244	2.443848	0.827998	0.019927
  89	4.4000e-02	3.5710	7.416733	0.000167	1.667690	0.565029	0.013598
  90	4.4500e-02	3.6288	7.552718	0.000334	3.335380	1.130057	0.027197
  91	4.5000e-02	3.6577	7.595908	0.000106	1.059350	0.358918	0.008638
  92	4.5500e-02	3.6785	7.721630	0.000308	3.083653	1.044770	0.025144
  93	4.6000e-02	3.7250	7.826398	0.000257	2.569711	0.870642	0.020954
  94	4.6500e-02	3.7555	7.914489	0.000216	2.160655	0.732050	0.017618
  95	4.7000e-02	3.7764	8.009421	0.000233	2.328473	0.788908	0.018987
  96	4.7500e-02	3.8213	8.112479	0.000253	2.527756	0.856427	0.020612
  97	4.8000e-02	3.9143	8.192873	0.000197	1.971860	0.668084	0.016079
  98	4.8500e-02	3.9352	8.293365	0.000246	2.464825	0.835105	0.020098
  99	4.9000e-02	3.9496	8.383166	0.000220	2.202609	0.746264	0.017960
 100	4.9500e-02	4.0411	8.460566	0.000190	1.898440	0.643209	0.015480
 101	5.0000e-02	4.0603	8.582012	0.000298	2.978767	1.009234	0.024289
 102	5.0500e-02	4.0731	8.666681	0.000208	2.076746	0.703621	0.016934
 103	5.1000e-02	4.1405	8.772305	0.000259	2.590688	0.877749	0.021125
 104	5.1500e-02	4.1502	8.865100	0.000228	2.276030	0.771140	0.018559
 105	5.2000e-02	4.1935	8.949342	0.000207	2.066257	0.700067	0.016848
 106	5.2500e-02	4.2480	9.064373	0.000282	2.821438	0.955929	0.023006
 107	5.3000e-02	4.2817	9.114833	0.000124	1.237657	0.419329	0.010092
 108	5.3500e-02	4.2993	9.237989	0.000302	3.020721	1.023448	0.024631
 109	5.4000e-02	4.3491	9.325652	0.000215	2.150166	0.728496	0.017533
 110	5.4500e-02	4.3860	9.416736	0.000223	2.234075	0.756925	0.018217
 111	5.5000e-02	4.4469	9.497557	0.000198	1.982348	0.671638	0.016164
 112	5.5500e-02	4.4822	9.580944	0.000205	2.045280	0.692960	0.016677
 113	5.6000e-02	4.5063	9.688706	0.000264	2.643131	0.895517	0.021552
 114	5.6500e-02	4.5640	9.785349	0.000237	2.370427	0.803122	0.019329
 115	5.7000e-02	4.6009	9.868736	0.000205	2.045280	0.692960	0.016677
 116	5.7500e-02	4.6346	9.992320	0.000303	3.031210	1.027002	0.024717
 117	5.8000e-02	4.6924	10.060312	0.000167	1.667690	0.565029	0.013598
 118	5.8500e-02	4.6956	10.160804	0.000246	2.464825	0.835105	0.020098
 119	5.9000e-02	4.7646	10.239915	0.000194	1.940394	0.657423	0.015822
 120	5.9500e-02	4.7934	10.324157	0.000207	2.066257	0.700067	0.016848
 121	6.0000e-02	4.8400	10.441754	0.000288	2.884369	0.977251	0.023519
 122	6.0500e-02	4.8560	10.538397	0.000237	2.370427	0.803122	0.019329
 123	6.1000e-02	4.9218	10.611521	0.000179	1.793553	0.607672	0.014625
 124	6.1500e-02	4.9635	10.702178	0.000222	2.223587	0.753372	0.018131
 125	6.2000e-02	5.0068	10.790269	0.000216	2.160655	0.732050	0.017618
 126	6.2500e-02	5.0694	10.892899	0.000252	2.517268	0.852873	0.020526
 127	6.3000e-02	5.0854	10.994246	0.000249	2.485802	0.842213	0.020269
 128	6.3500e-02	5.1111	11.092172	0.000240	2.401893	0.813783	0.019585
 129	6.4000e-02	5.1560	11.149046	0.000139	1.394986	0.472634	0.011375
 130	6.4500e-02	5.2170	11.232005	0.000203	2.034792	0.689406	0.016592
 131	6.5000e-02	5.2619	11.348320	0.000285	2.852904	0.966590	0.023263
 132	6.5500e-02	5.2635	11.459074	0.000272	2.716552	0.920393	0.022151
 133	6.6000e-02	5.3164	11.538185	0.000194	1.940394	0.657423	0.015822
 134	6.6500e-02	5.3918	11.598053	0.000147	1.468406	0.497510	0.011974
 135	6.7000e-02	5.3982	11.715650	0.000288	2.884369	0.977251	0.023519
 136	6.7500e-02	5.4624	11.805023	0.000219	2.192121	0.742711	0.017875
 137	6.8000e-02	5.4624	11.894397	-0.000219	-2.192121	-0.742711	0.017875
 138	6.8500e-02	5.5170	11.986336	0.000226	2.255052	0.764032	0.018388
 139	6.9000e-02	5.5683	12.089822	0.000254	2.538245	0.859981	0.020697
 140	6.9500e-02	5.6196	12.138143	0.000119	1.185214	0.401561	0.009664
 141	7.0000e-02	5.6437	12.253175	0.000282	2.821438	0.955929	0.023006
 142	7.0500e-02	5.6533	12.352384	0.000243	2.433359	0.824444	0.019842
 143	7.1000e-02	5.7159	12.421659	0.000170	1.699156	0.575690	0.013855
 144	7.1500e-02	5.7512	12.533269	0.000274	2.737529	0.927500	0.022322
 145	7.2000e-02	5.8009	12.605965	0.000178	1.783065	0.604119	0.014539
 146	7.2500e-02	5.8554	12.688925	0.000203	2.034792	0.689406	0.016592
 147	7.3000e-02	5.8779	12.774877	0.000211	2.108212	0.714282	0.017191
 148	7.3500e-02	5.9164	12.883494	0.000266	2.664109	0.902624	0.021723
 149	7.4000e-02	5.9694	12.970302	0.000213	2.129189	0.721389	0.017362
 150	7.4500e-02	6.0143	13.049413	0.000194	1.940394	0.657423	0.015822
 151	7.5000e-02	6.0431	13.123820	0.000183	1.825019	0.618333	0.014881
 152	7.5500e-02	6.0768	13.234575	0.000272	2.716552	0.920393	0.022151
 153	7.6000e-02	6.1314	13.351744	0.000287	2.873881	0.973697	0.023434
 154	7.6500e-02	6.1266	13.441118	-0.000219	-2.192121	-0.742711	0.017875
 155	7.7000e-02	6.1843	13.518518	0.000190	1.898440	0.643209	0.015480
 156	7.7500e-02	6.2629	13.603188	0.000208	2.076746	0.703621	0.016934
 157	7.8000e-02	6.2918	13.681443	0.000192	1.919417	0.650316	0.015651
 158	7.8500e-02	6.3512	13.782790	0.000249	2.485802	0.842213	0.020269
 159	7.9000e-02	6.3479	13.847789	-0.000159	-1.594270	-0.540153	0.013000
 160	7.9500e-02	6.4073	13.967097	0.000293	2.926324	0.991465	0.023861
 161	8.0000e-02	6.4474	14.041931	0.000184	1.835508	0.621887	0.014967
 162	8.0500e-02	6.4875	14.149693	0.000264	2.643131	0.895517	0.021552
 163	8.1000e-02	6.4939	14.264296	0.000281	2.810949	0.952375	0.022921
 164	8.1500e-02	6.5806	14.328868	0.000158	1.583781	0.536600	0.012914
 165	8.2000e-02	6.5918	14.402419	0.000180	1.804042	0.611226	0.014710
 166	8.2500e-02	6.6511	14.490082	0.000215	2.150166	0.728496	0.017533
 167	8.3000e-02	6.6640	14.589291	0.000243	2.433359	0.824444	0.019842
 168	8.3500e-02	6.7105	14.643600	0.000133	1.332054	0.451312	0.010862
 169	8.4000e-02	6.7602	14.726987	0.000205	2.045280	0.692960	0.016677
 170	8.4500e-02	6.8244	14.810374	0.000205	2.045280	0.692960	0.016677
 171	8.5000e-02	6.8212	14.915142	-0.000257	-2.569711	-0.870642	0.020954
 172	8.5500e-02	6.8838	15.001522	0.000212	2.118700	0.717835	0.017276
 173	8.6000e-02	6.9383	15.095600	0.000231	2.307496	0.781801	0.018816
 174	8.6500e-02	6.9592	15.190960	0.000234	2.338961	0.792462	0.019072
 175	8.7000e-02	6.9848	15.273492	0.000202	2.024303	0.685852	0.016506
 176	8.7500e-02	7.0233	15.364576	0.000223	2.234075	0.756925	0.018217
 177	8.8000e-02	7.0843	15.436845	0.000177	1.772576	0.600565	0.014454
 178	8.8500e-02	7.1324	15.548027	0.000273	2.727040	0.923946	0.022237
 179	8.9000e-02	7.1789	15.598915	0.000125	1.248145	0.422883	0.010177
 180	8.9500e-02	7.1838	15.719505	0.000296	2.957790	1.002126	0.024118
 181	9.0000e-02	7.2351	15.816148	0.000237	2.370427	0.803122	0.019329
 182	9.0500e-02	7.2559	15.882858	0.000164	1.636224	0.554368	0.013342
 183	9.1000e-02	7.3346	15.975653	0.000228	2.276030	0.771140	0.018559
 184	9.1500e-02	7.3747	16.046211	0.000173	1.730622	0.586350	0.014112
 185	9.2000e-02	7.4228	16.144137	0.000240	2.401893	0.813783	0.019585
 186	9.2500e-02	7.4468	16.208281	0.000157	1.573292	0.533046	0.012829
 187	9.3000e-02	7.4757	16.319463	0.000273	2.727040	0.923946	0.022237
 188	9.3500e-02	7.4918	16.429363	0.000270	2.695574	0.913285	0.021980
 189	9.4000e-02	7.5768	16.497355	0.000167	1.667690	0.565029	0.013598
 190	9.4500e-02	7.6137	16.591433	0.000231	2.307496	0.781801	0.018816
 191	9.5000e-02	7.6265	16.664129	0.000178	1.783065	0.604119	0.014539
 192	9.5500e-02	7.6811	16.761628	0.000239	2.391404	0.810230	0.019500
 193	9.6000e-02	7.7148	16.838600	0.000189	1.887951	0.639655	0.015395
 194	9.6500e-02	7.7533	16.910441	0.000176	1.762088	0.597011	0.014368
 195	9.7000e-02	7.8014	17.004519	0.000231	2.307496	0.781801	0.018816
 196	9.7500e-02	7.8415	17.096458	0.000226	2.255052	0.764032	0.018388
 197	9.8000e-02	7.8800	17.197806	0.000249	2.485802	0.842213	0.020269
 198	9.8500e-02	7.9153	17.278199	0.000197	1.971860	0.668084	0.016079
 199	9.9000e-02	7.9554	17.338922	0.000149	1.489383	0.504617	0.012145
 200	9.9500e-02	7.9730	17.438986	0.000245	2.454336	0.831552	0.020013
 201	1.0000e-01	8.0500	17.517669	0.000193	1.929905	0.653870	0.015737
 202	1.0050e-01	8.0741	17.616451	0.000242	2.422870	0.820891	0.019756
 203	1.0100e-01	8.1447	17.690430	0.000181	1.814531	0.614780	0.014796
 204	1.0150e-01	8.1543	17.781087	0.000222	2.223587	0.753372	0.018131
 205	1.0200e-01	8.1800	17.878585	0.000239	2.391404	0.810230	0.019500
 206	1.0250e-01	8.2249	17.947005	0.000168	1.678179	0.568582	0.013684
 207	1.0300e-01	8.2843	18.043648	0.000237	2.370427	0.803122	0.019329
 208	1.0350e-01	8.3212	18.109930	0.000163	1.625736	0.550814	0.013256
 209	1.0400e-01	8.3805	18.190752	0.000198	1.982348	0.671638	0.016164
 210	1.0450e-01	8.3757	18.298086	-0.000263	-2.632643	-0.891963	0.021467
 211	1.0500e-01	8.4639	18.371637	0.000180	1.804042	0.611226	0.014710
 212	1.0550e-01	8.4720	18.468280	0.000237	2.370427	0.803122	0.019329
 213	1.0600e-01	8.5265	18.544398	0.000187	1.866974	0.632548	0.015223
 214	1.0650e-01	8.5666	18.628212	0.000206	2.055769	0.696513	0.016763
 215	1.0700e-01	8.5955	18.723573	0.000234	2.338961	0.792462	0.019072
 216	1.0750e-01	8.6516	18.814657	0.000223	2.234075	0.756925	0.018217
 217	1.0800e-01	8.6821	18.889919	0.000185	1.845996	0.625441	0.015052
 218	1.0850e-01	8.7431	18.942089	0.000128	1.279611	0.433544	0.010434
 219	1.0900e-01	8.7687	19.037022	0.000233	2.328473	0.788908	0.018987
 220	1.0950e-01	8.8153	19.121692	0.000208	2.076746	0.703621	0.016934
 221	1.1000e-01	8.8409	19.212348	0.000222	2.223587	0.753372	0.018131
 222	1.1050e-01	8.8586	19.323959	0.000274	2.737529	0.927500	0.022322
 223	1.1100e-01	8.9099	19.380833	0.000139	1.394986	0.472634	0.011375
 224	1.1150e-01	8.9452	19.488594	0.000264	2.643131	0.895517	0.021552
 225	1.1200e-01	9.0014	19.549745	0.000150	1.499872	0.508170	0.012230
 226	1.1250e-01	9.0463	19.663065	0.000278	2.779483	0.941714	0.022664
 227	1.1300e-01	9.0816	19.725926	0.000154	1.541827	0.522385	0.012572
 228	1.1350e-01	9.1217	19.837536	0.000274	2.737529	0.927500	0.022322
 229	1.1400e-01	9.1489	19.879016	0.000102	1.017396	0.344703	0.008296
 230	1.1450e-01	9.2131	19.968390	0.000219	2.192121	0.742711	0.017875
 231	1.1500e-01	9.2420	20.047073	0.000193	1.929905	0.653870	0.015737
 232	1.1550e-01	9.2484	20.171939	0.000306	3.062676	1.037663	0.024973
 233	1.1600e-01	9.2981	20.233090	0.000150	1.499872	0.508170	0.012230
 234	1.1650e-01	9.3591	20.298944	0.000162	1.615247	0.547260	0.013171
 235	1.1700e-01	9.3960	20.407989	0.000267	2.674597	0.906178	0.021809
 236	1.1750e-01	9.4425	20.468711	0.000149	1.489383	0.504617	0.012145
 237	1.1800e-01	9.5163	20.524303	0.000136	1.363520	0.461973	0.011118
 238	1.1850e-01	9.5131	20.626505	-0.000251	-2.506779	-0.849320	0.020440
 239	1.1900e-01	9.5564	20.724859	0.000241	2.412382	0.817337	0.019671
 240	1.1950e-01	9.5997	20.790713	0.000162	1.615247	0.547260	0.013171
 241	1.2000e-01	9.6398	20.892488	0.000250	2.496291	0.845766	0.020355
 242	1.2050e-01	9.6815	20.954066	0.000151	1.510361	0.511724	0.012316
 243	1.2100e-01	9.7136	21.055413	0.000249	2.485802	0.842213	0.020269
 244	1.2150e-01	9.7473	21.139228	0.000206	2.055769	0.696513	0.016763
 245	1.2200e-01	9.8003	21.190543	0.000126	1.258634	0.426437	0.010263
 246	1.2250e-01	9.8372	21.296166	0.000259	2.590688	0.877749	0.021125
 247	1.2300e-01	9.8708	21.360310	0.000157	1.573292	0.533046	0.012829
 248	1.2350e-01	9.9061	21.456098	0.000235	2.349450	0.796015	0.019158
 249	1.2400e-01	9.9527	21.527084	0.000174	1.741110	0.589904	0.014197
 250	1.2450e-01	9.9880	21.634846	0.000264	2.643131	0.895517	0.021552
 251	1.2500e-01	10.0361	21.695996	0.000150	1.499872	0.508170	0.012230
 252	1.2550e-01	10.0794	21.782376	0.000212	2.118700	0.717835	0.017276
 253	1.2600e-01	10.1195	21.864480	0.000201	2.013814	0.682299	0.016421
 254	1.2650e-01	10.1756	21.932045	0.000166	1.657201	0.561475	0.013513
 255	1.2700e-01	10.1949	22.035530	0.000254	2.538245	0.859981	0.020697
 256	1.2750e-01	10.2494	22.110792	0.000185	1.845996	0.625441	0.015052
 257	1.2800e-01	10.2976	22.182633	0.000176	1.762088	0.597011	0.014368
 258	1.2850e-01	10.3200	22.275001	0.000227	2.265541	0.767586	0.018473
 259	1.2900e-01	10.3521	22.342565	0.000166	1.657201	0.561475	0.013513
 260	1.2950e-01	10.3970	22.447761	0.000258	2.580200	0.874195	0.021039
 261	1.3000e-01	10.4420	22.529438	0.000200	2.003326	0.678745	0.016335
 262	1.3050e-01	10.4917	22.580753	0.000126	1.258634	0.426437	0.010263
 263	1.3100e-01	10.4997	22.691080	0.000271	2.706063	0.916839	0.022065
 264	1.3150e-01	10.5575	22.766770	0.000186	1.856485	0.628994	0.015138
 265	1.3200e-01	10.6008	22.803973	0.000091	0.912510	0.309167	0.007441
 266	1.3250e-01	10.6553	22.914300	0.000271	2.706063	0.916839	0.022065
 267	1.3300e-01	10.7034	23.004102	0.000220	2.202609	0.746264	0.017960
 268	1.3350e-01	10.7291	23.054989	0.000125	1.248145	0.422883	0.010177
 269	1.3400e-01	10.7403	23.163606	0.000266	2.664109	0.902624	0.021723
 270	1.3450e-01	10.7885	23.236302	0.000178	1.783065	0.604119	0.014539
 271	1.3500e-01	10.8510	23.310709	0.000183	1.825019	0.618333	0.014881
 272	1.3550e-01	10.8976	23.379984	0.000170	1.699156	0.575690	0.013855
 273	1.3600e-01	10.9489	23.468075	0.000216	2.160655	0.732050	0.017618
 274	1.3650e-01	10.9874	23.548896	0.000198	1.982348	0.671638	0.016164
 275	1.3700e-01	11.0115	23.629290	0.000197	1.971860	0.668084	0.016079
 276	1.3750e-01	11.0275	23.723795	0.000232	2.317984	0.785354	0.018901
 277	1.3800e-01	11.0788	23.795208	0.000175	1.751599	0.593458	0.014283
 278	1.3850e-01	11.1173	23.879878	0.000208	2.076746	0.703621	0.016934
 279	1.3900e-01	11.1526	23.956851	0.000189	1.887951	0.639655	0.015395
 280	1.3950e-01	11.2040	24.026126	0.000170	1.699156	0.575690	0.013855
 281	1.4000e-01	11.2601	24.118065	0.000226	2.255052	0.764032	0.018388
 282	1.4050e-01	11.2762	24.190762	0.000178	1.783065	0.604119	0.014539
 283	1.4100e-01	11.3147	24.284839	0.000231	2.307496	0.781801	0.018816
 284	1.4150e-01	11.3548	24.359674	0.000184	1.835508	0.621887	0.014967
 285	1.4200e-01	11.4013	24.431942	0.000177	1.772576	0.600565	0.014454
 286	1.4250e-01	11.4638	24.508487	0.000188	1.877462	0.636101	0.015309
 287	1.4300e-01	11.4815	24.570065	0.000151	1.510361	0.511724	0.012316
 288	1.4350e-01	11.5296	24.652169	0.000201	2.013814	0.682299	0.016421
 289	1.4400e-01	11.5697	24.750523	0.000241	2.412382	0.817337	0.019671
 290	1.4450e-01	11.5729	24.857857	0.000263	2.632643	0.891963	0.021467
 291	1.4500e-01	11.6419	24.906606	0.000120	1.195702	0.405115	0.009750
 292	1.4550e-01	11.6965	24.984862	0.000192	1.919417	0.650316	0.015651
 293	1.4600e-01	11.7285	25.058413	0.000180	1.804042	0.611226	0.014710
 294	1.4650e-01	11.7654	25.127261	0.000169	1.688667	0.572136	0.013770
 295	1.4700e-01	11.8104	25.206372	0.000194	1.940394	0.657423	0.015822
 296	1.4750e-01	11.8890	25.261535	0.000135	1.353031	0.458419	0.011033
 297	1.4800e-01	11.8665	25.363738	-0.000251	-2.506779	-0.849320	0.020440
 298	1.4850e-01	11.9435	25.422323	0.000144	1.436940	0.486849	0.011717
 299	1.4900e-01	11.9339	25.541202	-0.000292	-2.915835	-0.987912	0.023776
 300	1.4950e-01	12.0125	25.607912	0.000164	1.636224	0.554368	0.013342
 301	1.5000e-01	12.0269	25.694720	0.000213	2.129189	0.721389	0.017362
 302	1.5050e-01	12.0638	25.763995	0.000170	1.699156	0.575690	0.013855
 303	1.5100e-01	12.1168	25.846527	0.000202	2.024303	0.685852	0.016506
 304	1.5150e-01	12.1585	25.930341	0.000206	2.055769	0.696513	0.016763
 305	1.5200e-01	12.2002	26.013728	0.000205	2.045280	0.692960	0.016677
 306	1.5250e-01	12.2644	26.047083	0.000082	0.818112	0.277184	0.006671
 307	1.5300e-01	12.2724	26.137312	0.000221	2.213098	0.749818	0.018046
 308	1.5350e-01	12.2980	26.266027	0.000316	3.157073	1.069645	0.025743
 309	1.5400e-01	12.3718	26.303658	0.000092	0.922998	0.312720	0.007526
 310	1.5450e-01	12.4071	26.386618	0.000203	2.034792	0.689406	0.016592
 311	1.5500e-01	12.4440	26.460597	0.000181	1.814531	0.614780	0.014796
 312	1.5550e-01	12.4793	26.526023	0.000160	1.604758	0.543707	0.013085
 313	1.5600e-01	12.5146	26.610266	0.000207	2.066257	0.700067	0.016848
 314	1.5650e-01	12.5868	26.667567	0.000141	1.405475	0.476188	0.011460
 315	1.5700e-01	12.5884	26.787302	0.000294	2.936813	0.995019	0.023947
 316	1.5750e-01	12.6381	26.841183	0.000132	1.321566	0.447759	0.010776
 317	1.5800e-01	12.6750	26.939965	0.000242	2.422870	0.820891	0.019756
 318	1.5850e-01	12.7328	26.994701	0.000134	1.342543	0.454866	0.010947
 319	1.5900e-01	12.7553	27.078088	0.000205	2.045280	0.692960	0.016677
 320	1.5950e-01	12.7857	27.161475	0.000205	2.045280	0.692960	0.016677
 321	1.6000e-01	12.8659	27.228184	0.000164	1.636224	0.554368	0.013342
 322	1.6050e-01	12.9012	27.289762	0.000151	1.510361	0.511724	0.012316
 323	1.6100e-01	12.9093	27.388544	0.000242	2.422870	0.820891	0.019756
 324	1.6150e-01	12.9285	27.504858	0.000285	2.852904	0.966590	0.023263
 325	1.6200e-01	12.9975	27.537357	0.000080	0.797135	0.270077	0.006500
 326	1.6250e-01	13.0569	27.603211	0.000162	1.615247	0.547260	0.013171
 327	1.6300e-01	13.0986	27.670349	0.000165	1.646713	0.557921	0.013427
 328	1.6350e-01	13.1339	27.755874	0.000210	2.097723	0.710728	0.017105
 329	1.6400e-01	13.1627	27.810182	0.000133	1.332054	0.451312	0.010862
 330	1.6450e-01	13.2125	27.909391	0.000243	2.433359	0.824444	0.019842
 331	1.6500e-01	13.2285	27.983370	0.000181	1.814531	0.614780	0.014796
 332	1.6550e-01	13.2734	28.037251	0.000132	1.321566	0.447759	0.010776
 333	1.6600e-01	13.3264	28.138171	0.000248	2.475313	0.838659	0.020184
 334	1.6650e-01	13.3649	28.205735	0.000166	1.657201	0.561475	0.013513
 335	1.6700e-01	13.3937	28.270307	0.000158	1.583781	0.536600	0.012914
 336	1.6750e-01	13.4354	28.366523	0.000236	2.359939	0.799569	0.019243
 337	1.6800e-01	13.4675	28.445206	0.000193	1.929905	0.653870	0.015737
 338	1.6850e-01	13.5173	28.524744	0.000195	1.950883	0.660977	0.015908
 339	1.6900e-01	13.5654	28.592736	0.000167	1.667690	0.565029	0.013598
 340	1.6950e-01	13.5895	28.659446	0.000164	1.636224	0.554368	0.013342
 341	1.7000e-01	13.6215	28.726155	0.000164	1.636224	0.554368	0.013342
 342	1.7050e-01	13.7178	28.794575	0.000168	1.678179	0.568582	0.013684
 343	1.7100e-01	13.7050	28.882666	-0.000216	-2.160655	-0.732050	0.017618
 344	1.7150e-01	13.7836	28.964770	0.000201	2.013814	0.682299	0.016421
 345	1.7200e-01	13.8028	29.030197	0.000160	1.604758	0.543707	0.013085
 346	1.7250e-01	13.8333	29.108025	0.000191	1.908928	0.646762	0.015566
 347	1.7300e-01	13.8959	29.181576	0.000180	1.804042	0.611226	0.014710
 348	1.7350e-01	13.9087	29.254273	0.000178	1.783065	0.604119	0.014539
 349	1.7400e-01	13.9584	29.351344	0.000238	2.380916	0.806676	0.019414
 350	1.7450e-01	13.9873	29.419336	0.000167	1.667690	0.565029	0.013598
 351	1.7500e-01	14.0322	29.495026	0.000186	1.856485	0.628994	0.015138
 352	1.7550e-01	14.0771	29.563446	0.000168	1.678179	0.568582	0.013684
 353	1.7600e-01	14.1269	29.628872	0.000160	1.604758	0.543707	0.013085
 354	1.7650e-01	14.1654	29.707555	0.000193	1.929905	0.653870	0.015737
 355	1.7700e-01	14.2135	29.789660	0.000201	2.013814	0.682299	0.016421
 356	1.7750e-01	14.2231	29.853803	0.000157	1.573292	0.533046	0.012829
 357	1.7800e-01	14.2793	29.939328	0.000210	2.097723	0.710728	0.017105
 358	1.7850e-01	14.3306	29.988933	0.000122	1.216679	0.412222	0.009921
 359	1.7900e-01	14.3643	30.073175	0.000207	2.066257	0.700067	0.016848
 360	1.7950e-01	14.4076	30.163832	0.000222	2.223587	0.753372	0.018131
 361	1.8000e-01	14.4557	30.210015	0.000113	1.132771	0.383793	0.009237
 362	1.8050e-01	14.4317	30.309224	-0.000243	-2.433359	-0.824444	0.019842
 363	1.8100e-01	14.5119	30.375079	0.000162	1.615247	0.547260	0.013171
 364	1.8150e-01	14.5696	30.441788	0.000164	1.636224	0.554368	0.013342
 365	1.8200e-01	14.5712	30.544846	0.000253	2.527756	0.856427	0.020612
 366	1.8250e-01	14.6402	30.585470	0.000100	0.996419	0.337596	0.008125
 367	1.8300e-01	14.6868	30.654745	0.000170	1.699156	0.575690	0.013855
 368	1.8350e-01	14.6996	30.723165	0.000168	1.678179	0.568582	0.013684
 369	1.8400e-01	14.7349	30.812539	0.000219	2.192121	0.742711	0.017875
 370	1.8450e-01	14.7910	30.870269	0.000142	1.415963	0.479741	0.011546
 371	1.8500e-01	14.8504	30.967767	0.000239	2.391404	0.810230	0.019500
 372	1.8550e-01	14.8841	31.027207	0.000146	1.457918	0.493956	0.011888
 373	1.8600e-01	14.9113	31.112732	0.000210	2.097723	0.710728	0.017105
 374	1.8650e-01	14.9739	31.183290	0.000173	1.730622	0.586350	0.014112
 375	1.8700e-01	14.9996	31.242303	0.000145	1.447429	0.490402	0.011802
 376	1.8750e-01	15.0686	31.303025	0.000149	1.489383	0.504617	0.012145
 377	1.8800e-01	15.0942	31.366314	0.000155	1.552315	0.525939	0.012658
 378	1.8850e-01	15.1119	31.457826	0.000224	2.244564	0.760479	0.018302
 379	1.8900e-01	15.1889	31.517693	0.000147	1.468406	0.497510	0.011974
 380	1.8950e-01	15.1985	31.598514	0.000198	1.982348	0.671638	0.016164
 381	1.9000e-01	15.2242	31.675487	0.000189	1.887951	0.639655	0.015395
 382	1.9050e-01	15.2563	31.767426	0.000226	2.255052	0.764032	0.018388
 383	1.9100e-01	15.3060	31.815748	0.000119	1.185214	0.401561	0.009664
 384	1.9150e-01	15.3493	31.912391	0.000237	2.370427	0.803122	0.019329
 385	1.9200e-01	15.3958	31.959858	0.000116	1.164236	0.394454	0.009493
 386	1.9250e-01	15.4407	32.057784	0.000240	2.401893	0.813783	0.019585
 387	1.9300e-01	15.4825	32.129625	0.000176	1.762088	0.597011	0.014368
 388	1.9350e-01	15.5177	32.182223	0.000129	1.290100	0.437098	0.010520
 389	1.9400e-01	15.5643	32.252781	0.000173	1.730622	0.586350	0.014112
 390	1.9450e-01	15.5947	32.307517	0.000134	1.342543	0.454866	0.010947
 391	1.9500e-01	15.6493	32.410147	0.000252	2.517268	0.852873	0.020526
 392	1.9550e-01	15.6974	32.458896	0.000120	1.195702	0.405115	0.009750
 393	1.9600e-01	15.7167	32.553402	0.000232	2.317984	0.785354	0.018901
 394	1.9650e-01	15.7471	32.610276	0.000139	1.394986	0.472634	0.011375
 395	1.9700e-01	15.7776	32.701788	0.000224	2.244564	0.760479	0.018302
 396	1.9750e-01	15.8466	32.759089	0.000141	1.405475	0.476188	0.011460
 397	1.9800e-01	15.8835	32.801852	0.000105	1.048862	0.355364	0.008553
 398	1.9850e-01	15.8947	32.919877	0.000289	2.894858	0.980804	0.023605
 399	1.9900e-01	15.9766	32.956652	0.000090	0.902021	0.305613	0.007355
 400	1.9950e-01	16.0151	33.040467	0.000206	2.055769	0.696513	0.016763
 401	2.0000e-01	16.0311	33.113591	0.000179	1.793553	0.607672	0.014625
 402	2.0050e-01	16.0824	33.208524	0.000233	2.328473	0.788908	0.018987
 403	2.0100e-01	16.1257	33.268819	0.000148	1.478895	0.501063	0.012059
 404	2.0150e-01	16.1707	33.328259	0.000146	1.457918	0.493956	0.011888
 405	2.0200e-01	16.2076	33.420626	0.000227	2.265541	0.767586	0.018473
 406	2.0250e-01	16.2733	33.462105	0.000102	1.017396	0.344703	0.008296
 407	2.0300e-01	16.3006	33.550624	0.000217	2.171144	0.735603	0.017704
 408	2.0350e-01	16.3279	33.620327	0.000171	1.709644	0.579243	0.013941
 409	2.0400e-01	16.3487	33.705852	0.000210	2.097723	0.710728	0.017105
 410	2.0450e-01	16.3792	33.752891	0.000115	1.153748	0.390900	0.009408
 411	2.0500e-01	16.4225	33.829008	0.000187	1.866974	0.632548	0.015223
 412	2.0550e-01	16.4707	33.898283	0.000170	1.699156	0.575690	0.013855
 413	2.0600e-01	16.5220	33.969269	0.000174	1.741110	0.589904	0.014197
 414	2.0650e-01	16.5589	34.008610	0.000096	0.964953	0.326935	0.007868
 415	2.0700e-01	16.6038	34.109530	0.000248	2.475313	0.838659	0.020184
 416	2.0750e-01	16.6359	34.168542	0.000145	1.447429	0.490402	0.011802
 417	2.0800e-01	16.6904	34.251074	0.000202	2.024303	0.685852	0.016506
 418	2.0850e-01	16.7017	34.309231	0.000143	1.426452	0.483295	0.011631
 419	2.0900e-01	16.7787	34.413144	0.000255	2.548734	0.863534	0.020783
 420	2.0950e-01	16.7835	34.456762	0.000107	1.069839	0.362471	0.008724
 421	2.1000e-01	16.8172	34.548701	0.000226	2.255052	0.764032	0.018388
 422	2.1050e-01	16.8797	34.593174	0.000109	1.090816	0.369578	0.008895
 423	2.1100e-01	16.9198	34.656035	0.000154	1.541827	0.522385	0.012572
 424	2.1150e-01	16.9423	34.734718	0.000193	1.929905	0.653870	0.015737
 425	2.1200e-01	16.9776	34.836065	0.000249	2.485802	0.842213	0.020269
 426	2.1250e-01	17.0257	34.892940	0.000139	1.394986	0.472634	0.011375
 427	2.1300e-01	17.0867	34.955800	0.000154	1.541827	0.522385	0.012572
 428	2.1350e-01	17.1444	35.013957	0.000143	1.426452	0.483295	0.011631
 429	2.1400e-01	17.1653	35.089220	0.000185	1.845996	0.625441	0.015052
 430	2.1450e-01	17.1861	35.138396	0.000121	1.206191	0.408669	0.009835
 431	2.1500e-01	17.2391	35.231191	0.000228	2.276030	0.771140	0.018559
 432	2.1550e-01	17.2792	35.310729	0.000195	1.950883	0.660977	0.015908
 433	2.1600e-01	17.3161	35.377011	0.000163	1.625736	0.550814	0.013256
 434	2.1650e-01	17.3482	35.448852	0.000176	1.762088	0.597011	0.014368
 435	2.1700e-01	17.4075	35.518128	0.000170	1.699156	0.575690	0.013855
 436	2.1750e-01	17.4332	35.575857	0.000142	1.415963	0.479741	0.011546
 437	2.1800e-01	17.4781	35.652830	0.000189	1.887951	0.639655	0.015395
 438	2.1850e-01	17.5182	35.696020	0.000106	1.059350	0.358918	0.008638
 439	2.1900e-01	17.5567	35.778124	0.000201	2.013814	0.682299	0.016421
 440	2.1950e-01	17.5872	35.861938	0.000206	2.055769	0.696513	0.016763
 441	2.2000e-01	17.6161	35.936345	0.000183	1.825019	0.618333	0.014881
 442	2.2050e-01	17.6883	35.963713	0.000067	0.671271	0.227433	0.005474
 443	2.2100e-01	17.7107	36.081738	0.000289	2.894858	0.980804	0.023605
 444	2.2150e-01	17.7701	36.122362	0.000100	0.996419	0.337596	0.008125
 445	2.2200e-01	17.7942	36.179236	0.000139	1.394986	0.472634	0.011375
 446	2.2250e-01	17.8599	36.271603	0.000227	2.265541	0.767586	0.018473
 447	2.2300e-01	17.8936	36.325484	0.000132	1.321566	0.447759	0.010776
 448	2.2350e-01	17.9369	36.396898	0.000175	1.751599	0.593458	0.014283
 449	2.2400e-01	17.9642	36.456338	0.000146	1.457918	0.493956	0.011888
 450	2.2450e-01	18.0059	36.552553	0.000236	2.359939	0.799569	0.019243
 451	2.2500e-01	18.0508	36.582059	0.000072	0.723715	0.245201	0.005901
 452	2.2550e-01	18.0829	36.669723	0.000215	2.150166	0.728496	0.017533
 453	2.2600e-01	18.0925	36.736432	0.000164	1.636224	0.554368	0.013342
 454	2.2650e-01	18.1503	36.801859	0.000160	1.604758	0.543707	0.013085
 455	2.2700e-01	18.1824	36.900213	0.000241	2.412382	0.817337	0.019671
 456	2.2750e-01	18.2465	36.951528	0.000126	1.258634	0.426437	0.010263
 457	2.2800e-01	18.2850	37.004553	0.000130	1.300588	0.440651	0.010605
 458	2.2850e-01	18.3316	37.072546	0.000167	1.667690	0.565029	0.013598
 459	2.2900e-01	18.3813	37.132841	0.000148	1.478895	0.501063	0.012059
 460	2.2950e-01	18.3909	37.218793	0.000211	2.108212	0.714282	0.017191
 461	2.3000e-01	18.4407	37.284648	0.000162	1.615247	0.547260	0.013171
 462	2.3050e-01	18.4920	37.332114	0.000116	1.164236	0.394454	0.009493
 463	2.3100e-01	18.5177	37.432606	0.000246	2.464825	0.835105	0.020098
 464	2.3150e-01	18.5754	37.489480	0.000139	1.394986	0.472634	0.011375
 465	2.3200e-01	18.5915	37.554907	0.000160	1.604758	0.543707	0.013085
 466	2.3250e-01	18.6332	37.637011	0.000201	2.013814	0.682299	0.016421
 467	2.3300e-01	18.6861	37.688754	0.000127	1.269123	0.429990	0.010349
 468	2.3350e-01	18.7150	37.761450	0.000178	1.783065	0.604119	0.014539
 469	2.3400e-01	18.7503	37.846975	0.000210	2.097723	0.710728	0.017105
 470	2.3450e-01	18.7968	37.897435	0.000124	1.237657	0.419329	0.010092
 471	2.3500e-01	18.8337	37.948750	0.000126	1.258634	0.426437	0.010263
 472	2.3550e-01	18.8850	38.011183	0.000153	1.531338	0.518831	0.012487
 473	2.3600e-01	18.9075	38.118089	0.000262	2.622154	0.888410	0.021381
 474	2.3650e-01	18.9428	38.184799	0.000164	1.636224	0.554368	0.013342
 475	2.3700e-01	19.0021	38.243811	0.000145	1.447429	0.490402	0.011802
 476	2.3750e-01	19.0182	38.314797	0.000174	1.741110	0.589904	0.014197
 477	2.3800e-01	19.0759	38.375520	0.000149	1.489383	0.504617	0.012145
 478	2.3850e-01	19.1176	38.420848	0.000111	1.111793	0.376686	0.009066
 479	2.3900e-01	19.1674	38.506373	0.000210	2.097723	0.710728	0.017105
 480	2.3950e-01	19.2027	38.544004	0.000092	0.922998	0.312720	0.007526
 481	2.4000e-01	19.2348	38.628674	0.000208	2.076746	0.703621	0.016934
 482	2.4050e-01	19.2765	38.708212	0.000195	1.950883	0.660977	0.015908
 483	2.4100e-01	19.3102	38.786468	0.000192	1.919417	0.650316	0.015651
 484	2.4150e-01	19.3583	38.852750	0.000163	1.625736	0.550814	0.013256
 485	2.4200e-01	19.4337	38.907486	0.000134	1.342543	0.454866	0.010947
 486	2.4250e-01	19.4176	39.015247	-0.000264	-2.643131	-0.895517	0.021552
 487	2.4300e-01	19.4513	39.048174	0.000081	0.807623	0.273630	0.006585
 488	2.4350e-01	19.5155	39.107187	0.000145	1.447429	0.490402	0.011802
 489	2.4400e-01	19.5508	39.173896	0.000164	1.636224	0.554368	0.013342
 490	2.4450e-01	19.6117	39.240606	0.000164	1.636224	0.554368	0.013342
 491	2.4500e-01	19.6470	39.325703	0.000209	2.087235	0.707174	0.017019
 492	2.4550e-01	19.6855	39.373597	0.000117	1.174725	0.398008	0.009579
 493	2.4600e-01	19.7208	39.434320	0.000149	1.489383	0.504617	0.012145
 494	2.4650e-01	19.7641	39.515141	0.000198	1.982348	0.671638	0.016164
 495	2.4700e-01	19.7978	39.573726	0.000144	1.436940	0.486849	0.011717
 496	2.4750e-01	19.8347	39.642573	0.000169	1.688667	0.572136	0.013770
 497	2.4800e-01	19.8700	39.713559	0.000174	1.741110	0.589904	0.014197
 498	2.4850e-01	19.9069	39.769151	0.000136	1.363520	0.461973	0.011118
 499	2.4900e-01	19.9486	39.857669	0.000217	2.171144	0.735603	0.017704
 500	2.4950e-01	19.9903	39.916254	0.000144	1.436940	0.486849	0.011717
 501	2.5000e-01	20.0433	39.958589	0.000104	1.038373	0.351810	0.008467
 502	2.5050e-01	19.9919	39.966713	-0.000020	-0.199284	-0.067519	0.001625
 503	2.5100e-01	19.9583	39.931221	0.000087	0.870555	0.294952	-0.007099
 504	2.5150e-01	19.9069	39.870070	0.000150	1.499872	0.508170	-0.012230
 505	2.5200e-01	19.8540	39.816189	0.000132	1.321566	0.447759	-0.010776
 506	2.5250e-01	19.8123	39.773854	0.000104	1.038373	0.351810	-0.008467
 507	2.5300e-01	19.7994	39.703296	0.000173	1.730622	0.586350	-0.014112
 508	2.5350e-01	19.7513	39.639152	0.000157	1.573292	0.533046	-0.012829
 509	2.5400e-01	19.6823	39.582278	0.000139	1.394986	0.472634	-0.011375
 510	2.5450e-01	19.6486	39.548068	0.000084	0.839089	0.284291	-0.006842
 511	2.5500e-01	19.6150	39.484780	0.000155	1.552315	0.525939	-0.012658
 512	2.5550e-01	19.5957	39.424057	0.000149	1.489383	0.504617	-0.012145
 513	2.5600e-01	19.5203	39.365900	0.000143	1.426452	0.483295	-0.011631
 514	2.5650e-01	19.5331	39.284651	-0.000199	-1.992837	-0.675191	-0.016250
 515	2.5700e-01	19.4545	39.235902	0.000120	1.195702	0.405115	-0.009750
 516	2.5750e-01	19.4080	39.189291	0.000114	1.143259	0.387347	-0.009322
 517	2.5800e-01	19.4176	39.096924	-0.000227	-2.265541	-0.767586	-0.018473
 518	2.5850e-01	19.3262	39.068273	0.000070	0.702737	0.238094	-0.005730
 519	2.5900e-01	19.3085	39.019096	0.000121	1.206191	0.408669	-0.009835
 520	2.5950e-01	19.2620	38.924591	0.000232	2.317984	0.785354	-0.018901
 521	2.6000e-01	19.2283	38.900216	0.000060	0.597851	0.202557	-0.004875
 522	2.6050e-01	19.1561	38.841204	0.000145	1.447429	0.490402	-0.011802
 523	2.6100e-01	19.1353	38.777488	0.000156	1.562804	0.529492	-0.012743
 524	2.6150e-01	19.1064	38.691962	0.000210	2.097723	0.710728	-0.017105
 525	2.6200e-01	19.0631	38.638937	0.000130	1.300588	0.440651	-0.010605
 526	2.6250e-01	19.0262	38.571372	0.000166	1.657201	0.561475	-0.013513
 527	2.6300e-01	19.0021	38.503380	0.000167	1.667690	0.565029	-0.013598
 528	2.6350e-01	18.9588	38.448644	0.000134	1.342543	0.454866	-0.010947
 529	2.6400e-01	18.9107	38.374237	0.000183	1.825019	0.618333	-0.014881
 530	2.6450e-01	18.8578	38.346441	0.000068	0.681760	0.230987	-0.005559
 531	2.6500e-01	18.8321	38.277594	0.000169	1.688667	0.572136	-0.013770
 532	2.6550e-01	18.7888	38.183516	0.000231	2.307496	0.781801	-0.018816
 533	2.6600e-01	18.7455	38.157859	0.000063	0.629317	0.213218	-0.005132
 534	2.6650e-01	18.7166	38.095853	0.000152	1.520849	0.515278	-0.012401
 535	2.6700e-01	18.6685	38.029571	0.000163	1.625736	0.550814	-0.013256
 536	2.6750e-01	18.6139	37.976118	0.000131	1.311077	0.444205	-0.010691
 537	2.6800e-01	18.5706	37.919244	0.000139	1.394986	0.472634	-0.011375
 538	2.6850e-01	18.5530	37.823883	0.000234	2.338961	0.792462	-0.019072
 539	2.6900e-01	18.5112	37.768292	0.000136	1.363520	0.461973	-0.011118
 540	2.6950e-01	18.4631	37.704576	0.000156	1.562804	0.529492	-0.012743
 541	2.7000e-01	18.3957	37.643853	0.000149	1.489383	0.504617	-0.012145
 542	2.7050e-01	18.3476	37.595104	0.000120	1.195702	0.405115	-0.009750
 543	2.7100e-01	18.3348	37.522835	0.000177	1.772576	0.600565	-0.014454
 544	2.7150e-01	18.3027	37.460402	0.000153	1.531338	0.518831	-0.012487
 545	2.7200e-01	18.2385	37.409514	0.000125	1.248145	0.422883	-0.010177
 546	2.7250e-01	18.2113	37.356061	0.000131	1.311077	0.444205	-0.010691
 547	2.7300e-01	18.1856	37.298332	0.000142	1.415963	0.479741	-0.011546
 548	2.7350e-01	18.1535	37.193564	0.000257	2.569711	0.870642	-0.020954
 549	2.7400e-01	18.0990	37.164057	0.000072	0.723715	0.245201	-0.005901
 550	2.7450e-01	18.0701	37.094782	0.000170	1.699156	0.575690	-0.013855
 551	2.7500e-01	18.0380	37.023796	0.000174	1.741110	0.589904	-0.014197
 552	2.7550e-01	17.9449	36.965212	0.000144	1.436940	0.486849	-0.011717
 553	2.7600e-01	17.9193	36.911758	0.000131	1.311077	0.444205	-0.010691
 554	2.7650e-01	17.9032	36.827516	0.000207	2.066257	0.700067	-0.016848
 555	2.7700e-01	17.8487	36.768932	0.000144	1.436940	0.486849	-0.011717
 556	2.7750e-01	17.8150	36.726597	0.000104	1.038373	0.351810	-0.008467
 557	2.7800e-01	17.7717	36.654756	0.000176	1.762088	0.597011	-0.014368
 558	2.7850e-01	17.7621	36.563671	0.000223	2.234075	0.756925	-0.018217
 559	2.7900e-01	17.6979	36.521337	0.000104	1.038373	0.351810	-0.008467
 560	2.7950e-01	17.6626	36.462752	0.000144	1.436940	0.486849	-0.011717
 561	2.8000e-01	17.6594	36.390056	0.000178	1.783065	0.604119	-0.014539
 562	2.8050e-01	17.5776	36.319925	0.000172	1.720133	0.582797	-0.014026
 563	2.8100e-01	17.5551	36.266044	0.000132	1.321566	0.447759	-0.010776
 564	2.8150e-01	17.5311	36.192065	0.000181	1.814531	0.614780	-0.014796
 565	2.8200e-01	17.4621	36.133480	0.000144	1.436940	0.486849	-0.011717
 566	2.8250e-01	17.4300	36.073185	0.000148	1.478895	0.501063	-0.012059
 567	2.8300e-01	17.4043	36.004338	0.000169	1.688667	0.572136	-0.013770
 568	2.8350e-01	17.3482	35.948746	0.000136	1.363520	0.461973	-0.011118
 569	2.8400e-01	17.3000	35.892300	0.000138	1.384497	0.469080	-0.011289
 570	2.8450e-01	17.2455	35.820031	0.000177	1.772576	0.600565	-0.014454
 571	2.8500e-01	17.2246	35.762302	0.000142	1.415963	0.479741	-0.011546
 572	2.8550e-01	17.1910	35.680625	0.000200	2.003326	0.678745	-0.016335
 573	2.8600e-01	17.1428	35.624606	0.000137	1.374009	0.465527	-0.011204
 574	2.8650e-01	17.0883	35.579278	0.000111	1.111793	0.376686	-0.009066
 575	2.8700e-01	17.0418	35.489904	0.000219	2.192121	0.742711	-0.017875
 576	2.8750e-01	17.0193	35.441155	0.000120	1.195702	0.405115	-0.009750
 577	2.8800e-01	16.9888	35.382143	0.000145	1.447429	0.490402	-0.011802
 578	2.8850e-01	16.9343	35.310302	0.000176	1.762088	0.597011	-0.014368
 579	2.8900e-01	16.8990	35.243165	0.000165	1.646713	0.557921	-0.013427
 580	2.8950e-01	16.8460	35.184152	0.000145	1.447429	0.490402	-0.011802
 581	2.9000e-01	16.8236	35.098200	0.000211	2.108212	0.714282	-0.017191
 582	2.9050e-01	16.7755	35.042608	0.000136	1.363520	0.461973	-0.011118
 583	2.9100e-01	16.7498	34.976326	0.000163	1.625736	0.550814	-0.013256
 584	2.9150e-01	16.7017	34.920735	0.000136	1.363520	0.461973	-0.011118
 585	2.9200e-01	16.6439	34.857874	0.000154	1.541827	0.522385	-0.012572
 586	2.9250e-01	16.6038	34.808270	0.000122	1.216679	0.412222	-0.009921
 587	2.9300e-01	16.5717	34.726166	0.000201	2.013814	0.682299	-0.016421
 588	2.9350e-01	16.5236	34.659029	0.000165	1.646713	0.557921	-0.013427
 589	2.9400e-01	16.4979	34.584622	0.000183	1.825019	0.618333	-0.014881
 590	2.9450e-01	16.4594	34.527748	0.000139	1.394986	0.472634	-0.011375
 591	2.9500e-01	16.4065	34.457617	0.000172	1.720133	0.582797	-0.014026
 592	2.9550e-01	16.3584	34.415710	0.000103	1.027884	0.348257	-0.008381
 593	2.9600e-01	16.3471	34.330612	0.000209	2.087235	0.707174	-0.017019
 594	2.9650e-01	16.3006	34.272455	0.000143	1.426452	0.483295	-0.011631
 595	2.9700e-01	16.2637	34.181799	0.000222	2.223587	0.753372	-0.018131
 596	2.9750e-01	16.2028	34.130056	0.000127	1.269123	0.429990	-0.010349
 597	2.9800e-01	16.1723	34.075748	0.000133	1.332054	0.451312	-0.010862
 598	2.9850e-01	16.1450	33.985091	0.000222	2.223587	0.753372	-0.018131
 599	2.9900e-01	16.0856	33.935487	0.000122	1.216679	0.412222	-0.009921
 600	2.9950e-01	16.0536	33.867494	0.000167	1.667690	0.565029	-0.013598
 601	3.0000e-01	16.0247	33.802923	0.000158	1.583781	0.536600	-0.012914
 602	3.0050e-01	15.9621	33.749470	0.000131	1.311077	0.444205	-0.010691
 603	3.0100e-01	15.9397	33.674208	0.000185	1.845996	0.625441	-0.015052
 604	3.0150e-01	15.9044	33.568156	0.000260	2.601177	0.881303	-0.021210
 605	3.0200e-01	15.8755	33.543354	0.000061	0.608340	0.206111	-0.004960
 606	3.0250e-01	15.8338	33.465954	0.000190	1.898440	0.643209	-0.015480
 607	3.0300e-01	15.7824	33.406942	0.000145	1.447429	0.490402	-0.011802
 608	3.0350e-01	15.7680	33.342370	0.000158	1.583781	0.536600	-0.012914
 609	3.0400e-01	15.7038	33.281648	0.000149	1.489383	0.504617	-0.012145
 610	3.0450e-01	15.6525	33.208096	0.000180	1.804042	0.611226	-0.014710
 611	3.0500e-01	15.6076	33.148656	0.000146	1.457918	0.493956	-0.011888
 612	3.0550e-01	15.5835	33.075532	0.000179	1.793553	0.607672	-0.014625
 613	3.0600e-01	15.5386	33.003263	0.000177	1.772576	0.600565	-0.014454
 614	3.0650e-01	15.5001	32.963494	0.000098	0.975441	0.330488	-0.007954
 615	3.0700e-01	15.4873	32.853167	0.000271	2.706063	0.916839	-0.022065
 616	3.0750e-01	15.4231	32.809549	0.000107	1.069839	0.362471	-0.008724
 617	3.0800e-01	15.3557	32.734715	0.000184	1.835508	0.621887	-0.014967
 618	3.0850e-01	15.3268	32.668433	0.000163	1.625736	0.550814	-0.013256
 619	3.0900e-01	15.2932	32.587612	0.000198	1.982348	0.671638	-0.016164
 620	3.0950e-01	15.2867	32.528599	0.000145	1.447429	0.490402	-0.011802
 621	3.1000e-01	15.2226	32.449489	0.000194	1.940394	0.657423	-0.015822
 622	3.1050e-01	15.1616	32.419127	0.000074	0.744692	0.252308	-0.006072
 623	3.1100e-01	15.1295	32.329326	0.000220	2.202609	0.746264	-0.017960
 624	3.1150e-01	15.1087	32.249788	0.000195	1.950883	0.660977	-0.015908
 625	3.1200e-01	15.0621	32.184361	0.000160	1.604758	0.543707	-0.013085
 626	3.1250e-01	15.0092	32.129197	0.000135	1.353031	0.458419	-0.011033
 627	3.1300e-01	14.9691	32.057784	0.000175	1.751599	0.593458	-0.014283
 628	3.1350e-01	14.9450	31.989364	0.000168	1.678179	0.568582	-0.013684
 629	3.1400e-01	14.8809	31.923510	0.000162	1.615247	0.547260	-0.013171
 630	3.1450e-01	14.8873	31.841406	-0.000201	-2.013814	-0.682299	-0.016421
 631	3.1500e-01	14.8167	31.772130	0.000170	1.699156	0.575690	-0.013855
 632	3.1550e-01	14.7894	31.702855	0.000170	1.699156	0.575690	-0.013855
 633	3.1600e-01	14.7172	31.654961	0.000117	1.174725	0.398008	-0.009579
 634	3.1650e-01	14.6675	31.581409	0.000180	1.804042	0.611226	-0.014710
 635	3.1700e-01	14.6338	31.518976	0.000153	1.531338	0.518831	-0.012487
 636	3.1750e-01	14.6146	31.459964	0.000145	1.447429	0.490402	-0.011802
 637	3.1800e-01	14.5905	31.357334	0.000252	2.517268	0.852873	-0.020526
 638	3.1850e-01	14.5552	31.302170	0.000135	1.353031	0.458419	-0.011033
 639	3.1900e-01	14.5215	31.218783	0.000205	2.045280	0.692960	-0.016677
 640	3.1950e-01	14.4573	31.159343	0.000146	1.457918	0.493956	-0.011888
 641	3.2000e-01	14.4269	31.086647	0.000178	1.783065	0.604119	-0.014539
 642	3.2050e-01	14.3916	31.036187	0.000124	1.237657	0.419329	-0.010092
 643	3.2100e-01	14.3178	30.971616	0.000158	1.583781	0.536600	-0.012914
 644	3.2150e-01	14.2937	30.904051	0.000166	1.657201	0.561475	-0.013513
 645	3.2200e-01	14.2376	30.821947	0.000201	2.013814	0.682299	-0.016421
 646	3.2250e-01	14.2215	30.749251	0.000178	1.783065	0.604119	-0.014539
 647	3.2300e-01	14.1654	30.686390	0.000154	1.541827	0.522385	-0.012572
 648	3.2350e-01	14.1301	30.619680	0.000164	1.636224	0.554368	-0.013342
 649	3.2400e-01	14.0836	30.552543	0.000165	1.646713	0.557921	-0.013427
 650	3.2450e-01	14.0707	30.456755	0.000235	2.349450	0.796015	-0.019158
 651	3.2500e-01	14.0162	30.408006	0.000120	1.195702	0.405115	-0.009750
 652	3.2550e-01	13.9809	30.331888	0.000187	1.866974	0.632548	-0.015223
 653	3.2600e-01	13.9296	30.265179	0.000164	1.636224	0.554368	-0.013342
 654	3.2650e-01	13.9135	30.202318	0.000154	1.541827	0.522385	-0.012572
 655	3.2700e-01	13.8686	30.139885	0.000153	1.531338	0.518831	-0.012487
 656	3.2750e-01	13.8237	30.056070	0.000206	2.055769	0.696513	-0.016763
 657	3.2800e-01	13.7980	29.990643	0.000160	1.604758	0.543707	-0.013085
 658	3.2850e-01	13.7226	29.911533	0.000194	1.940394	0.657423	-0.015822
 659	3.2900e-01	13.6937	29.839264	0.000177	1.772576	0.600565	-0.014454
 660	3.2950e-01	13.6312	29.779397	0.000147	1.468406	0.497510	-0.011974
 661	3.3000e-01	13.6215	29.715253	0.000157	1.573292	0.533046	-0.012829
 662	3.3050e-01	13.5654	29.632721	0.000202	2.024303	0.685852	-0.016506
 663	3.3100e-01	13.5477	29.552755	0.000196	1.961371	0.664531	-0.015993
 664	3.3150e-01	13.5125	29.501012	0.000127	1.269123	0.429990	-0.010349
 665	3.3200e-01	13.4579	29.415915	0.000209	2.087235	0.707174	-0.017019
 666	3.3250e-01	13.4306	29.369731	0.000113	1.132771	0.383793	-0.009237
 667	3.3300e-01	13.3921	29.273516	0.000236	2.359939	0.799569	-0.019243
 668	3.3350e-01	13.3440	29.225622	0.000117	1.174725	0.398008	-0.009579
 669	3.3400e-01	13.3087	29.118715	0.000262	2.622154	0.888410	-0.021381
 670	3.3450e-01	13.2526	29.085788	0.000081	0.807623	0.273630	-0.006585
 671	3.3500e-01	13.2349	28.990428	0.000234	2.338961	0.792462	-0.019072
 672	3.3550e-01	13.1788	28.927995	0.000153	1.531338	0.518831	-0.012487
 673	3.3600e-01	13.1483	28.860857	0.000165	1.646713	0.557921	-0.013427
 674	3.3650e-01	13.1050	28.809970	0.000125	1.248145	0.422883	-0.010177
 675	3.3700e-01	13.0729	28.699643	0.000271	2.706063	0.916839	-0.022065
 676	3.3750e-01	13.0264	28.623098	0.000188	1.877462	0.636101	-0.015309
 677	3.3800e-01	12.9590	28.579480	0.000107	1.069839	0.362471	-0.008724
 678	3.3850e-01	12.9686	28.479416	-0.000245	-2.454336	-0.831552	-0.020013
 679	3.3900e-01	12.9285	28.394746	0.000208	2.076746	0.703621	-0.016934
 680	3.3950e-01	12.8531	28.362674	0.000079	0.786646	0.266523	-0.006414
 681	3.4000e-01	12.8307	28.287412	0.000185	1.845996	0.625441	-0.015052
 682	3.4050e-01	12.7889	28.203597	0.000206	2.055769	0.696513	-0.016763
 683	3.4100e-01	12.7168	28.138598	0.000159	1.594270	0.540153	-0.013000
 684	3.4150e-01	12.6991	28.078731	0.000147	1.468406	0.497510	-0.011974
 685	3.4200e-01	12.6750	28.001331	0.000190	1.898440	0.643209	-0.015480
 686	3.4250e-01	12.6125	27.940608	0.000149	1.489383	0.504617	-0.012145
 687	3.4300e-01	12.5660	27.891431	0.000121	1.206191	0.408669	-0.009835
 688	3.4350e-01	12.5403	27.779393	0.000275	2.748017	0.931054	-0.022408
 689	3.4400e-01	12.4713	27.694723	0.000208	2.076746	0.703621	-0.016934
 690	3.4450e-01	12.4585	27.645119	0.000122	1.216679	0.412222	-0.009921
 691	3.4500e-01	12.4232	27.582685	0.000153	1.531338	0.518831	-0.012487
 692	3.4550e-01	12.3863	27.504858	0.000191	1.908928	0.646762	-0.015566
 693	3.4600e-01	12.3430	27.418050	0.000213	2.129189	0.721389	-0.017362
 694	3.4650e-01	12.2820	27.368445	0.000122	1.216679	0.412222	-0.009921
 695	3.4700e-01	12.2916	27.255980	-0.000276	-2.758506	-0.934607	-0.022493
 696	3.4750e-01	12.1906	27.208086	0.000117	1.174725	0.398008	-0.009579
 697	3.4800e-01	12.1809	27.130686	0.000190	1.898440	0.643209	-0.015480
 698	3.4850e-01	12.1392	27.063121	0.000166	1.657201	0.561475	-0.013513
 699	3.4900e-01	12.0815	26.984010	0.000194	1.940394	0.657423	-0.015822
 700	3.4950e-01	12.0478	26.941248	0.000105	1.048862	0.355364	-0.008553
 701	3.5000e-01	12.0141	26.841183	0.000245	2.454336	0.831552	-0.020013
 702	3.5050e-01	11.9804	26.760790	0.000197	1.971860	0.668084	-0.016079
 703	3.5100e-01	11.9387	26.686811	0.000181	1.814531	0.614780	-0.014796
 704	3.5150e-01	11.8970	26.612404	0.000183	1.825019	0.618333	-0.014881
 705	3.5200e-01	11.8585	26.537997	0.000183	1.825019	0.618333	-0.014881
 706	3.5250e-01	11.8376	26.458886	0.000194	1.940394	0.657423	-0.015822
 707	3.5300e-01	11.7574	26.405005	0.000132	1.321566	0.447759	-0.010776
 708	3.5350e-01	11.7542	26.317342	0.000215	2.150166	0.728496	-0.017533
 709	3.5400e-01	11.7077	26.257902	0.000146	1.457918	0.493956	-0.011888
 710	3.5450e-01	11.6548	26.175371	0.000202	2.024303	0.685852	-0.016506
 711	3.5500e-01	11.6339	26.093267	0.000201	2.013814	0.682299	-0.016421
 712	3.5550e-01	11.5633	26.024419	0.000169	1.688667	0.572136	-0.013770
 713	3.5600e-01	11.5232	25.969255	0.000135	1.353031	0.458419	-0.011033
 714	3.5650e-01	11.5120	25.905112	0.000157	1.573292	0.533046	-0.012829
 715	3.5700e-01	11.4655	25.780245	0.000306	3.062676	1.037663	-0.024973
 716	3.5750e-01	11.4157	25.719095	0.000150	1.499872	0.508170	-0.012230
 717	3.5800e-01	11.3740	25.648109	0.000174	1.741110	0.589904	-0.014197
 718	3.5850e-01	11.3403	25.586103	0.000152	1.520849	0.515278	-0.012401
 719	3.5900e-01	11.2922	25.510413	0.000186	1.856485	0.628994	-0.015138
 720	3.5950e-01	11.2489	25.427882	0.000202	2.024303	0.685852	-0.016506
 721	3.6000e-01	11.2040	25.350482	0.000190	1.898440	0.643209	-0.015480
 722	3.6050e-01	11.1783	25.262818	0.000215	2.150166	0.728496	-0.017533
 723	3.6100e-01	11.1414	25.192260	0.000173	1.730622	0.586350	-0.014112
 724	3.6150e-01	11.0820	25.149070	0.000106	1.059350	0.358918	-0.008638
 725	3.6200e-01	11.0500	25.055848	0.000229	2.286518	0.774693	-0.018644
 726	3.6250e-01	11.0323	24.989993	0.000162	1.615247	0.547260	-0.013171
 727	3.6300e-01	10.9906	24.892067	0.000240	2.401893	0.813783	-0.019585
 728	3.6350e-01	10.9409	24.833910	0.000143	1.426452	0.483295	-0.011631
 729	3.6400e-01	10.8992	24.757793	0.000187	1.866974	0.632548	-0.015223
 730	3.6450e-01	10.8478	24.694932	0.000154	1.541827	0.522385	-0.012572
 731	3.6500e-01	10.8045	24.632499	0.000153	1.531338	0.518831	-0.012487
 732	3.6550e-01	10.7965	24.535428	0.000238	2.380916	0.806676	-0.019414
 733	3.6600e-01	10.7355	24.452896	0.000202	2.024303	0.685852	-0.016506
 734	3.6650e-01	10.6778	24.400726	0.000128	1.279611	0.433544	-0.010434
 735	3.6700e-01	10.6553	24.286977	0.000279	2.789972	0.945268	-0.022750
 736	3.6750e-01	10.6393	24.215564	0.000175	1.751599	0.593458	-0.014283
 737	3.6800e-01	10.5799	24.116355	0.000243	2.433359	0.824444	-0.019842
 738	3.6850e-01	10.5222	24.078724	0.000092	0.922998	0.312720	-0.007526
 739	3.6900e-01	10.4917	23.999613	0.000194	1.940394	0.657423	-0.015822
 740	3.6950e-01	10.4660	23.906819	0.000228	2.276030	0.771140	-0.018559
 741	3.7000e-01	10.4115	23.829418	0.000190	1.898440	0.643209	-0.015480
 742	3.7050e-01	10.3810	23.776393	0.000130	1.300588	0.440651	-0.010605
 743	3.7100e-01	10.3521	23.680605	0.000235	2.349450	0.796015	-0.019158
 744	3.7150e-01	10.3345	23.617744	0.000154	1.541827	0.522385	-0.012572
 745	3.7200e-01	10.2398	23.521956	0.000235	2.349450	0.796015	-0.019158
 746	3.7250e-01	10.2029	23.454819	0.000165	1.646713	0.557921	-0.013427
 747	3.7300e-01	10.1821	23.383833	0.000174	1.741110	0.589904	-0.014197
 748	3.7350e-01	10.1371	23.323538	0.000148	1.478895	0.501063	-0.012059
 749	3.7400e-01	10.1067	23.214493	0.000267	2.674597	0.906178	-0.021809
 750	3.7450e-01	10.0473	23.128541	0.000211	2.108212	0.714282	-0.017191
 751	3.7500e-01	10.0361	23.064397	0.000157	1.573292	0.533046	-0.012829
 752	3.7550e-01	9.9751	22.995549	0.000169	1.688667	0.572136	-0.013770
 753	3.7600e-01	9.9206	22.920715	0.000184	1.835508	0.621887	-0.014967
 754	3.7650e-01	9.8853	22.839894	0.000198	1.982348	0.671638	-0.016164
 755	3.7700e-01	9.8548	22.765914	0.000181	1.814531	0.614780	-0.014796
 756	3.7750e-01	9.8307	22.683383	0.000202	2.024303	0.685852	-0.016506
 757	3.7800e-01	9.7842	22.603844	0.000195	1.950883	0.660977	-0.015908
 758	3.7850e-01	9.7120	22.526017	0.000191	1.908928	0.646762	-0.015566
 759	3.7900e-01	9.7233	22.429801	-0.000236	-2.359939	-0.799569	-0.019243
 760	3.7950e-01	9.6575	22.386611	0.000106	1.059350	0.358918	-0.008638
 761	3.8000e-01	9.6174	22.267303	0.000293	2.926324	0.991465	-0.023861
 762	3.8050e-01	9.5676	22.231810	0.000087	0.870555	0.294952	-0.007099
 763	3.8100e-01	9.5083	22.173653	0.000143	1.426452	0.483295	-0.011631
 764	3.8150e-01	9.4971	22.062043	0.000274	2.737529	0.927500	-0.022322
 765	3.8200e-01	9.4553	21.983360	0.000193	1.929905	0.653870	-0.015737
 766	3.8250e-01	9.4345	21.893559	0.000220	2.202609	0.746264	-0.017960
 767	3.8300e-01	9.3639	21.825566	0.000167	1.667690	0.565029	-0.013598
 768	3.8350e-01	9.3302	21.760567	0.000159	1.594270	0.540153	-0.013000
 769	3.8400e-01	9.3062	21.665207	0.000234	2.338961	0.792462	-0.019072
 770	3.8450e-01	9.2532	21.591228	0.000181	1.814531	0.614780	-0.014796
 771	3.8500e-01	9.2179	21.521952	0.000170	1.699156	0.575690	-0.013855
 772	3.8550e-01	9.1698	21.442414	0.000195	1.950883	0.660977	-0.015908
 773	3.8600e-01	9.1313	21.362448	0.000196	1.961371	0.664531	-0.015993
 774	3.8650e-01	9.0992	21.297449	0.000159	1.594270	0.540153	-0.013000
 775	3.8700e-01	9.0270	21.214918	0.000202	2.024303	0.685852	-0.016506
 776	3.8750e-01	9.0286	21.093472	-0.000298	-2.978767	-1.009234	-0.024289
 777	3.8800e-01	8.9757	21.034887	0.000144	1.436940	0.486849	-0.011717
 778	3.8850e-01	8.9372	20.949790	0.000209	2.087235	0.707174	-0.017019
 779	3.8900e-01	8.8971	20.889495	0.000148	1.478895	0.501063	-0.012059
 780	3.8950e-01	8.8746	20.788575	0.000248	2.475313	0.838659	-0.020184
 781	3.9000e-01	8.8329	20.714168	0.000183	1.825019	0.618333	-0.014881
 782	3.9050e-01	8.7784	20.645748	0.000168	1.678179	0.568582	-0.013684
 783	3.9100e-01	8.7334	20.558085	0.000215	2.150166	0.728496	-0.017533
 784	3.9150e-01	8.6965	20.483678	0.000183	1.825019	0.618333	-0.014881
 785	3.9200e-01	8.6725	20.384897	0.000242	2.422870	0.820891	-0.019756
 786	3.9250e-01	8.6067	20.305359	0.000195	1.950883	0.660977	-0.015908
 787	3.9300e-01	8.5490	20.242498	0.000154	1.541827	0.522385	-0.012572
 788	3.9350e-01	8.5457	20.160394	0.000201	2.013814	0.682299	-0.016421
 789	3.9400e-01	8.5105	20.085559	0.000184	1.835508	0.621887	-0.014967
 790	3.9450e-01	8.4703	19.998751	0.000213	2.129189	0.721389	-0.017362
 791	3.9500e-01	8.4094	19.888852	0.000270	2.695574	0.913285	-0.021980
 792	3.9550e-01	8.3661	19.828556	0.000148	1.478895	0.501063	-0.012059
 793	3.9600e-01	8.3163	19.762702	0.000162	1.615247	0.547260	-0.013171
 794	3.9650e-01	8.2746	19.683164	0.000195	1.950883	0.660977	-0.015908
 795	3.9700e-01	8.2586	19.577540	0.000259	2.590688	0.877749	-0.021125
 796	3.9750e-01	8.2137	19.499285	0.000192	1.919417	0.650316	-0.015651
 797	3.9800e-01	8.1912	19.437279	0.000152	1.520849	0.515278	-0.012401
 798	3.9850e-01	8.1110	19.365866	0.000175	1.751599	0.593458	-0.014283
 799	3.9900e-01	8.0837	19.272216	0.000230	2.297007	0.778247	-0.018730
 800	3.9950e-01	8.0436	19.199520	0.000178	1.783065	0.604119	-0.014539
 801	4.0000e-01	8.0228	19.093041	0.000261	2.611665	0.884856	-0.021296
 802	4.0050e-01	7.9586	19.030608	0.000153	1.531338	0.518831	-0.012487
 803	4.0100e-01	7.9041	18.947648	0.000203	2.034792	0.689406	-0.016592
 804	4.0150e-01	7.9249	18.841597	-0.000260	-2.601177	-0.881303	-0.021210
 805	4.0200e-01	7.8495	18.760348	0.000199	1.992837	0.675191	-0.016250
 806	4.0250e-01	7.8094	18.700481	0.000147	1.468406	0.497510	-0.011974
 807	4.0300e-01	7.7693	18.599989	0.000246	2.464825	0.835105	-0.020098
 808	4.0350e-01	7.7292	18.518313	0.000200	2.003326	0.678745	-0.016335
 809	4.0400e-01	7.7003	18.442195	0.000187	1.866974	0.632548	-0.015223
 810	4.0450e-01	7.6698	18.347262	0.000233	2.328473	0.788908	-0.018987
 811	4.0500e-01	7.6169	18.279698	0.000166	1.657201	0.561475	-0.013513
 812	4.0550e-01	7.5736	18.195883	0.000206	2.055769	0.696513	-0.016763
 813	4.0600e-01	7.4966	18.097957	0.000240	2.401893	0.813783	-0.019585
 814	4.0650e-01	7.5046	18.038517	-0.000146	-1.457918	-0.493956	-0.011888
 815	4.0700e-01	7.4581	17.941874	0.000237	2.370427	0.803122	-0.019329
 816	4.0750e-01	7.4212	17.874736	0.000165	1.646713	0.557921	-0.013427
 817	4.0800e-01	7.3682	17.774672	0.000245	2.454336	0.831552	-0.020013
 818	4.0850e-01	7.3650	17.681877	0.000228	2.276030	0.771140	-0.018559
 819	4.0900e-01	7.3073	17.603622	0.000192	1.919417	0.650316	-0.015651
 820	4.0950e-01	7.2608	17.547176	0.000138	1.384497	0.469080	-0.011289
 821	4.1000e-01	7.2255	17.454808	0.000227	2.265541	0.767586	-0.018473
 822	4.1050e-01	7.2030	17.351751	0.000253	2.527756	0.856427	-0.020612
 823	4.1100e-01	7.1388	17.259811	0.000226	2.255052	0.764032	-0.018388
 824	4.1150e-01	7.0971	17.185832	0.000181	1.814531	0.614780	-0.014796
 825	4.1200e-01	7.0618	17.098169	0.000215	2.150166	0.728496	-0.017533
 826	4.1250e-01	7.0249	17.015637	0.000202	2.024303	0.685852	-0.016506
 827	4.1300e-01	6.9864	16.943796	0.000176	1.762088	0.597011	-0.014368
 828	4.1350e-01	6.9110	16.862120	0.000200	2.003326	0.678745	-0.016335
 829	4.1400e-01	6.9078	16.768898	0.000229	2.286518	0.774693	-0.018644
 830	4.1450e-01	6.8693	16.665840	0.000253	2.527756	0.856427	-0.020612
 831	4.1500e-01	6.8019	16.608538	0.000141	1.405475	0.476188	-0.011460
 832	4.1550e-01	6.7795	16.520020	0.000217	2.171144	0.735603	-0.017704
 833	4.1600e-01	6.7362	16.409692	0.000271	2.706063	0.916839	-0.022065
 834	4.1650e-01	6.6945	16.344693	0.000159	1.594270	0.540153	-0.013000
 835	4.1700e-01	6.6463	16.263444	0.000199	1.992837	0.675191	-0.016250
 836	4.1750e-01	6.6303	16.157393	0.000260	2.601177	0.881303	-0.021210
 837	4.1800e-01	6.5854	16.075717	0.000200	2.003326	0.678745	-0.016335
 838	4.1850e-01	6.5148	16.001738	0.000181	1.814531	0.614780	-0.014796
 839	4.1900e-01	6.5148	15.896970	0.000257	2.569711	0.870642	-0.020954
 840	4.1950e-01	6.5116	15.796050	0.000248	2.475313	0.838659	-0.020184
 841	4.2000e-01	6.3977	15.742597	0.000131	1.311077	0.444205	-0.010691
 842	4.2050e-01	6.3656	15.684867	0.000142	1.415963	0.479741	-0.011546
 843	4.2100e-01	6.3271	15.621579	0.000155	1.552315	0.525939	-0.012658
 844	4.2150e-01	6.3159	15.490298	0.000322	3.220005	1.090967	-0.026256
 845	4.2200e-01	6.2597	15.413325	0.000189	1.887951	0.639655	-0.015395
 846	4.2250e-01	6.2116	15.314544	0.000242	2.422870	0.820891	-0.019756
 847	4.2300e-01	6.1827	15.241848	0.000178	1.783065	0.604119	-0.014539
 848	4.2350e-01	6.1330	15.155467	0.000212	2.118700	0.717835	-0.017276
 849	4.2400e-01	6.0929	15.052837	0.000252	2.517268	0.852873	-0.020526
 850	4.2450e-01	6.0672	14.945931	0.000262	2.622154	0.888410	-0.021381
 851	4.2500e-01	6.0046	14.888629	0.000141	1.405475	0.476188	-0.011460
 852	4.2550e-01	5.9902	14.803959	0.000208	2.076746	0.703621	-0.016934
 853	4.2600e-01	5.9389	14.703895	0.000245	2.454336	0.831552	-0.020013
 854	4.2650e-01	5.8988	14.621363	0.000202	2.024303	0.685852	-0.016506
 855	4.2700e-01	5.8490	14.560213	0.000150	1.499872	0.508170	-0.012230
 856	4.2750e-01	5.7993	14.468274	0.000226	2.255052	0.764032	-0.018388
 857	4.2800e-01	5.8073	14.353670	-0.000281	-2.810949	-0.952375	-0.022921
 858	4.2850e-01	5.7191	14.276270	0.000190	1.898440	0.643209	-0.015480
 859	4.2900e-01	5.7030	14.179626	0.000237	2.370427	0.803122	-0.019329
 860	4.2950e-01	5.6565	14.102226	0.000190	1.898440	0.643209	-0.015480
 861	4.3000e-01	5.6180	13.997030	0.000258	2.580200	0.874195	-0.021039
 862	4.3050e-01	5.5956	13.930321	0.000164	1.636224	0.554368	-0.013342
 863	4.3100e-01	5.5490	13.834961	0.000234	2.338961	0.792462	-0.019072
 864	4.3150e-01	5.5266	13.734469	0.000246	2.464825	0.835105	-0.020098
 865	4.3200e-01	5.4480	13.665193	0.000170	1.699156	0.575690	-0.013855
 866	4.3250e-01	5.4400	13.556149	0.000267	2.674597	0.906178	-0.021809
 867	4.3300e-01	5.3838	13.474045	0.000201	2.013814	0.682299	-0.016421
 868	4.3350e-01	5.3485	13.390230	0.000206	2.055769	0.696513	-0.016763
 869	4.3400e-01	5.2956	13.288028	0.000251	2.506779	0.849320	-0.020440
 870	4.3450e-01	5.2266	13.204641	0.000205	2.045280	0.692960	-0.016677
 871	4.3500e-01	5.2170	13.123392	0.000199	1.992837	0.675191	-0.016250
 872	4.3550e-01	5.1833	13.028459	0.000233	2.328473	0.788908	-0.018987
 873	4.3600e-01	5.1576	12.944217	0.000207	2.066257	0.700067	-0.016848
 874	4.3650e-01	5.1143	12.838594	0.000259	2.590688	0.877749	-0.021125
 875	4.3700e-01	5.0774	12.763759	0.000184	1.835508	0.621887	-0.014967
 876	4.3750e-01	5.0196	12.676524	0.000214	2.139678	0.724942	-0.017447
 877	4.3800e-01	4.9860	12.569190	0.000263	2.632643	0.891963	-0.021467
 878	4.3850e-01	4.9394	12.484948	0.000207	2.066257	0.700067	-0.016848
 879	4.3900e-01	4.8961	12.409258	0.000186	1.856485	0.628994	-0.015138
 880	4.3950e-01	4.8721	12.302352	0.000262	2.622154	0.888410	-0.021381
 881	4.4000e-01	4.8416	12.216399	0.000211	2.108212	0.714282	-0.017191
 882	4.4050e-01	4.7549	12.147551	0.000169	1.688667	0.572136	-0.013770
 883	4.4100e-01	4.7213	12.059033	0.000217	2.171144	0.735603	-0.017704
 884	4.4150e-01	4.7068	11.958541	0.000246	2.464825	0.835105	-0.020098
 885	4.4200e-01	4.6812	11.869595	0.000218	2.181632	0.739157	-0.017789
 886	4.4250e-01	4.6186	11.763544	0.000260	2.601177	0.881303	-0.021210
 887	4.4300e-01	4.5833	11.660914	0.000252	2.517268	0.852873	-0.020526
 888	4.4350e-01	4.5271	11.590355	0.000173	1.730622	0.586350	-0.014112
 889	4.4400e-01	4.4822	11.517232	0.000179	1.793553	0.607672	-0.014625
 890	4.4450e-01	4.4421	11.397496	0.000294	2.936813	0.995019	-0.023947
 891	4.4500e-01	4.4197	11.303419	0.000231	2.307496	0.781801	-0.018816
 892	4.4550e-01	4.3619	11.230295	0.000179	1.793553	0.607672	-0.014625
 893	4.4600e-01	4.3330	11.131086	0.000243	2.433359	0.824444	-0.019842
 894	4.4650e-01	4.2785	11.051548	0.000195	1.950883	0.660977	-0.015908
 895	4.4700e-01	4.2592	10.938227	0.000278	2.779483	0.941714	-0.022664
 896	4.4750e-01	4.2143	10.850991	0.000214	2.139678	0.724942	-0.017447
 897	4.4800e-01	4.1598	10.745368	0.000259	2.590688	0.877749	-0.021125
 898	4.4850e-01	4.1518	10.677375	0.000167	1.667690	0.565029	-0.013598
 899	4.4900e-01	4.0924	10.575173	0.000251	2.506779	0.849320	-0.020440
 900	4.4950e-01	4.0828	10.460142	0.000282	2.821438	0.955929	-0.023006
 901	4.5000e-01	3.9977	10.406689	0.000131	1.311077	0.444205	-0.010691
 902	4.5050e-01	3.9560	10.298499	0.000265	2.653620	0.899071	-0.021638
 903	4.5100e-01	3.9416	10.208698	0.000220	2.202609	0.746264	-0.017960
 904	4.5150e-01	3.9240	10.077845	0.000321	3.209517	1.087414	-0.026171
 905	4.5200e-01	3.8598	9.997451	0.000197	1.971860	0.668084	-0.016079
 906	4.5250e-01	3.8036	9.945709	0.000127	1.269123	0.429990	-0.010349
 907	4.5300e-01	3.7748	9.838802	0.000262	2.622154	0.888410	-0.021381
 908	4.5350e-01	3.7282	9.749429	0.000219	2.192121	0.742711	-0.017875
 909	4.5400e-01	3.6817	9.639529	0.000270	2.695574	0.913285	-0.021980
 910	4.5450e-01	3.6721	9.537754	0.000250	2.496291	0.845766	-0.020355
 911	4.5500e-01	3.6063	9.474893	0.000154	1.541827	0.522385	-0.012572
 912	4.5550e-01	3.5742	9.370553	0.000256	2.559222	0.867088	-0.020868
 913	4.5600e-01	3.5229	9.275192	0.000234	2.338961	0.792462	-0.019072
 914	4.5650e-01	3.5149	9.150753	0.000305	3.052187	1.034109	-0.024888
 915	4.5700e-01	3.4619	9.072498	0.000192	1.919417	0.650316	-0.015651
 916	4.5750e-01	3.4154	8.979703	0.000228	2.276030	0.771140	-0.018559
 917	4.5800e-01	3.3946	8.887336	0.000227	2.265541	0.767586	-0.018473
 918	4.5850e-01	3.3400	8.793259	0.000231	2.307496	0.781801	-0.018816
 919	4.5900e-01	3.2742	8.711154	0.000201	2.013814	0.682299	-0.016421
 920	4.5950e-01	3.2694	8.602965	0.000265	2.653620	0.899071	-0.021638
 921	4.6000e-01	3.2293	8.491783	0.000273	2.727040	0.923946	-0.022237
 922	4.6050e-01	3.1844	8.400699	0.000223	2.234075	0.756925	-0.018217
 923	4.6100e-01	3.1315	8.340831	0.000147	1.468406	0.497510	-0.011974
 924	4.6150e-01	3.1010	8.219813	0.000297	2.968278	1.005680	-0.024204
 925	4.6200e-01	3.0432	8.138992	0.000198	1.982348	0.671638	-0.016164
 926	4.6250e-01	3.0240	8.022678	0.000285	2.852904	0.966590	-0.023263
 927	4.6300e-01	2.9839	7.952120	0.000173	1.730622	0.586350	-0.014112
 928	4.6350e-01	2.9390	7.833667	0.000291	2.905347	0.984358	-0.023690
 929	4.6400e-01	2.8956	7.741728	0.000226	2.255052	0.764032	-0.018388
 930	4.6450e-01	2.8684	7.615579	0.000309	3.094142	1.048324	-0.025230
 931	4.6500e-01	2.8090	7.536895	0.000193	1.929905	0.653870	-0.015737
 932	4.6550e-01	2.7673	7.426996	0.000270	2.695574	0.913285	-0.021980
 933	4.6600e-01	2.7144	7.331635	0.000234	2.338961	0.792462	-0.019072
 934	4.6650e-01	2.7144	7.238841	0.000228	2.276030	0.771140	-0.018559
 935	4.6700e-01	2.6438	7.159302	0.000195	1.950883	0.660977	-0.015908
 936	4.6750e-01	2.6053	7.071639	0.000215	2.150166	0.728496	-0.017533
 937	4.6800e-01	2.5940	6.936937	0.000330	3.303914	1.119396	-0.026940
 938	4.6850e-01	2.5475	6.854833	0.000201	2.013814	0.682299	-0.016421
 939	4.6900e-01	2.5010	6.765887	0.000218	2.181632	0.739157	-0.017789
 940	4.6950e-01	2.4850	6.641021	0.000306	3.062676	1.037663	-0.024973
 941	4.7000e-01	2.4015	6.579015	0.000152	1.520849	0.515278	-0.012401
 942	4.7050e-01	2.3919	6.451155	0.000314	3.136096	1.062538	-0.025572
 943	4.7100e-01	2.3310	6.364347	0.000213	2.129189	0.721389	-0.017362
 944	4.7150e-01	2.3005	6.265993	0.000241	2.412382	0.817337	-0.019671
 945	4.7200e-01	2.2620	6.163791	0.000251	2.506779	0.849320	-0.020440
 946	4.7250e-01	2.2395	6.053891	0.000270	2.695574	0.913285	-0.021980
 947	4.7300e-01	2.1802	5.978629	0.000185	1.845996	0.625441	-0.015052
 948	4.7350e-01	2.1160	5.896525	0.000201	2.013814	0.682299	-0.016421
 949	4.7400e-01	2.0983	5.784487	0.000275	2.748017	0.931054	-0.022408
 950	4.7450e-01	2.0406	5.660903	0.000303	3.031210	1.027002	-0.024717
 951	4.7500e-01	1.9909	5.583076	0.000191	1.908928	0.646762	-0.015566
 952	4.7550e-01	1.9700	5.498406	0.000208	2.076746	0.703621	-0.016934
 953	4.7600e-01	1.9507	5.382519	0.000284	2.842415	0.963036	-0.023177
 954	4.7650e-01	1.9235	5.252949	0.000318	3.178051	1.076753	-0.025914
 955	4.7700e-01	1.8657	5.164003	0.000218	2.181632	0.739157	-0.017789
 956	4.7750e-01	1.8016	5.078478	0.000210	2.097723	0.710728	-0.017105
 957	4.7800e-01	1.7679	4.971999	0.000261	2.611665	0.884856	-0.021296
 958	4.7850e-01	1.7181	4.886902	0.000209	2.087235	0.707174	-0.017019
 959	4.7900e-01	1.6925	4.780423	0.000261	2.611665	0.884856	-0.021296
 960	4.7950e-01	1.6540	4.676510	0.000255	2.548734	0.863534	-0.020783
 961	4.8000e-01	1.6411	4.552071	0.000305	3.052187	1.034109	-0.024888
 962	4.8050e-01	1.5754	4.453717	0.000241	2.412382	0.817337	-0.019671
 963	4.8100e-01	1.5192	4.368620	0.000209	2.087235	0.707174	-0.017019
 964	4.8150e-01	1.5032	4.248029	0.000296	2.957790	1.002126	-0.024118
 965	4.8200e-01	1.4422	4.165925	0.000201	2.013814	0.682299	-0.016421
 966	4.8250e-01	1.4230	4.026947	0.000341	3.408800	1.154933	-0.027796
 967	4.8300e-01	1.3941	3.939284	0.000215	2.150166	0.728496	-0.017533
 968	4.8350e-01	1.3251	3.856752	0.000202	2.024303	0.685852	-0.016506
 969	4.8400e-01	1.3026	3.750701	0.000260	2.601177	0.881303	-0.021210
 970	4.8450e-01	1.2722	3.645078	0.000259	2.590688	0.877749	-0.021125
 971	4.8500e-01	1.2192	3.544158	0.000248	2.475313	0.838659	-0.020184
 972	4.8550e-01	1.1599	3.452219	0.000226	2.255052	0.764032	-0.018388
 973	4.8600e-01	1.1182	3.348306	0.000255	2.548734	0.863534	-0.020783
 974	4.8650e-01	1.1198	3.218735	-0.000318	-3.178051	-1.076753	-0.025914
 975	4.8700e-01	1.0861	3.116105	0.000252	2.517268	0.852873	-0.020526
 976	4.8750e-01	1.0026	3.016041	0.000245	2.454336	0.831552	-0.020013
 977	4.8800e-01	0.9577	2.925812	0.000221	2.213098	0.749818	-0.018046
 978	4.8850e-01	0.9449	2.820616	0.000258	2.580200	0.874195	-0.021039
 979	4.8900e-01	0.8807	2.733381	0.000214	2.139678	0.724942	-0.017447
 980	4.8950e-01	0.8551	2.635027	0.000241	2.412382	0.817337	-0.019671
 981	4.9000e-01	0.8005	2.509733	0.000307	3.073165	1.041216	-0.025059
 982	4.9050e-01	0.7781	2.408386	0.000249	2.485802	0.842213	-0.020269
 983	4.9100e-01	0.7219	2.315591	0.000228	2.276030	0.771140	-0.018559
 984	4.9150e-01	0.7010	2.180034	0.000332	3.324891	1.126504	-0.027111
 985	4.9200e-01	0.6240	2.147962	0.000079	0.786646	0.266523	-0.006414
 986	4.9250e-01	0.6112	1.982471	0.000406	4.059094	1.375258	-0.033098
 987	4.9300e-01	0.5631	1.884972	0.000239	2.391404	0.810230	-0.019500
 988	4.9350e-01	0.5278	1.816125	0.000169	1.688667	0.572136	-0.013770
 989	4.9400e-01	0.4861	1.693396	0.000301	3.010233	1.019894	-0.024546
 990	4.9450e-01	0.4636	1.565536	0.000314	3.136096	1.062538	-0.025572
 991	4.9500e-01	0.3866	1.462906	0.000252	2.517268	0.852873	-0.020526
 992	4.9550e-01	0.3914	1.368829	-0.000231	-2.307496	-0.781801	-0.018816
 993	4.9600e-01	0.3529	1.255080	0.000279	2.789972	0.945268	-0.022750
 994	4.9650e-01	0.2791	1.165706	0.000219	2.192121	0.742711	-0.017875
 995	4.9700e-01	0.2583	1.063076	0.000252	2.517268	0.852873	-0.020526
 996	4.9750e-01	0.1973	0.947618	0.000283	2.831926	0.959483	-0.023092
 997	4.9800e-01	0.1717	0.844560	0.000253	2.527756	0.856427	-0.020612
 998	4.9850e-01	0.1027	0.753048	0.000224	2.244564	0.760479	-0.018302
 999	4.9900e-01	0.1267	0.634596	-0.000291	-2.905347	-0.984358	-0.023690
1000	4.9950e-01	0.0481	0.533676	0.000248	2.475313	0.838659	-0.020184
1001	5.0000e-01	0.0738	0.419500	-0.000280	-2.800461	-0.948822	-0.022835
1002	5.0050e-01	-0.0144	0.316443	0.000253	2.527756	0.856427	-0.020612
1003	5.0100e-01	-0.0529	0.248023	0.000168	1.678179	0.568582	-0.013684
1004	5.0150e-01	-0.0770	0.118880	0.000317	3.167562	1.073199	-0.025829
1005	5.0200e-01	-0.1556	0.036348	0.000202	2.024303	0.685852	-0.016506
1006	5.0250e-01	-0.1733	-0.070558	0.000262	2.622154	0.888410	-0.021381
1007	5.0300e-01	-0.2102	-0.172761	0.000251	2.506779	0.849320	-0.020440
1008	5.0350e-01	-0.2599	-0.272397	0.000244	2.443848	0.827998	-0.019927
1009	5.0400e-01	-0.3048	-0.371179	0.000242	2.422870	0.820891	-0.019756
1010	5.0450e-01	-0.3674	-0.478940	0.000264	2.643131	0.895517	-0.021552
1011	5.0500e-01	-0.3946	-0.567886	0.000218	2.181632	0.739157	-0.017789
1012	5.0550e-01	-0.4235	-0.699167	0.000322	3.220005	1.090967	-0.026256
1013	5.0600e-01	-0.4749	-0.797521	0.000241	2.412382	0.817337	-0.019671
1014	5.0650e-01	-0.4845	-0.906566	0.000267	2.674597	0.906178	-0.021809
1015	5.0700e-01	-0.5438	-0.984821	0.000192	1.919417	0.650316	-0.015651
1016	5.0750e-01	-0.5791	-1.083175	0.000241	2.412382	0.817337	-0.019671
1017	5.0800e-01	-0.6208	-1.235409	0.000373	3.733947	1.265096	-0.030447
1018	5.0850e-01	-0.6834	-1.299553	0.000157	1.573292	0.533046	-0.012829
1019	5.0900e-01	-0.7299	-1.396624	0.000238	2.380916	0.806676	-0.019414
1020	5.0950e-01	-0.7187	-1.525767	-0.000317	-3.167562	-1.073199	-0.025829
1021	5.1000e-01	-0.7829	-1.638660	0.000277	2.768995	0.938161	-0.022579
1022	5.1050e-01	-0.8150	-1.744711	0.000260	2.601177	0.881303	-0.021210
1023	5.1100e-01	-0.8871	-1.837933	0.000229	2.286518	0.774693	-0.018644
1024	5.1150e-01	-0.9016	-1.922176	0.000207	2.066257	0.700067	-0.016848
1025	5.1200e-01	-0.9513	-2.032075	0.000270	2.695574	0.913285	-0.021980
1026	5.1250e-01	-1.0026	-2.154804	0.000301	3.010233	1.019894	-0.024546
1027	5.1300e-01	-1.0123	-2.257861	0.000253	2.527756	0.856427	-0.020612
1028	5.1350e-01	-1.0941	-2.308321	0.000124	1.237657	0.419329	-0.010092
1029	5.1400e-01	-1.0941	-2.470819	0.000399	3.985674	1.350383	-0.032500
1030	5.1450e-01	-1.1438	-2.537528	0.000164	1.636224	0.554368	-0.013342
1031	5.1500e-01	-1.1342	-2.670947	-0.000327	-3.272448	-1.108735	-0.026684
1032	5.1550e-01	-1.2256	-2.754334	0.000205	2.045280	0.692960	-0.016677
1033	5.1600e-01	-1.2657	-2.858247	0.000255	2.548734	0.863534	-0.020783
1034	5.1650e-01	-1.3091	-2.944628	0.000212	2.118700	0.717835	-0.017276
1035	5.1700e-01	-1.3572	-3.055383	0.000272	2.716552	0.920393	-0.022151
1036	5.1750e-01	-1.3524	-3.182387	-0.000312	-3.115119	-1.055431	-0.025401
1037	5.1800e-01	-1.4486	-3.247386	0.000159	1.594270	0.540153	-0.013000
1038	5.1850e-01	-1.4663	-3.369260	0.000299	2.989256	1.012787	-0.024375
1039	5.1900e-01	-1.4984	-3.465475	0.000236	2.359939	0.799569	-0.019243
1040	5.1950e-01	-1.5385	-3.583072	0.000288	2.884369	0.977251	-0.023519
1041	5.2000e-01	-1.5850	-3.656196	0.000179	1.793553	0.607672	-0.014625
1042	5.2050e-01	-1.6058	-3.771655	0.000283	2.831926	0.959483	-0.023092
1043	5.2100e-01	-1.6492	-3.895666	0.000304	3.041699	1.030555	-0.024802
1044	5.2150e-01	-1.6812	-3.994875	0.000243	2.433359	0.824444	-0.019842
1045	5.2200e-01	-1.7390	-4.068427	0.000180	1.804042	0.611226	-0.014710
1046	5.2250e-01	-1.7871	-4.174906	0.000261	2.611665	0.884856	-0.021296
1047	5.2300e-01	-1.7855	-4.282667	-0.000264	-2.643131	-0.895517	-0.021552
1048	5.2350e-01	-1.8657	-4.386580	0.000255	2.548734	0.863534	-0.020783
1049	5.2400e-01	-1.8962	-4.471677	0.000209	2.087235	0.707174	-0.017019
1050	5.2450e-01	-1.9620	-4.560196	0.000217	2.171144	0.735603	-0.017704
1051	5.2500e-01	-1.9892	-4.665819	0.000259	2.590688	0.877749	-0.021125
1052	5.2550e-01	-2.0310	-4.770160	0.000256	2.559222	0.867088	-0.020868
1053	5.2600e-01	-2.0711	-4.873645	0.000254	2.538245	0.859981	-0.020697
1054	5.2650e-01	-2.1048	-4.981834	0.000265	2.653620	0.899071	-0.021638
1055	5.2700e-01	-2.1609	-5.074202	0.000227	2.265541	0.767586	-0.018473
1056	5.2750e-01	-2.1769	-5.175121	0.000248	2.475313	0.838659	-0.020184
1057	5.2800e-01	-2.2122	-5.267488	0.000227	2.265541	0.767586	-0.018473
1058	5.2850e-01	-2.2716	-5.390644	0.000302	3.020721	1.023448	-0.024631
1059	5.2900e-01	-2.3117	-5.468044	0.000190	1.898440	0.643209	-0.015480
1060	5.2950e-01	-2.3117	-5.575378	0.000263	2.632643	0.891963	-0.021467
1061	5.3000e-01	-2.3839	-5.645509	0.000172	1.720133	0.582797	-0.014026
1062	5.3050e-01	-2.4047	-5.765672	0.000295	2.947301	0.998573	-0.024033
1063	5.3100e-01	-2.4545	-5.857183	0.000224	2.244564	0.760479	-0.018302
1064	5.3150e-01	-2.5074	-5.961524	0.000256	2.559222	0.867088	-0.020868
1065	5.3200e-01	-2.5186	-6.073562	0.000275	2.748017	0.931054	-0.022408
1066	5.3250e-01	-2.5716	-6.156521	0.000203	2.034792	0.689406	-0.016592
1067	5.3300e-01	-2.6101	-6.267704	0.000273	2.727040	0.923946	-0.022237
1068	5.3350e-01	-2.6646	-6.360071	0.000227	2.265541	0.767586	-0.018473
1069	5.3400e-01	-2.7192	-6.431484	0.000175	1.751599	0.593458	-0.014283
1070	5.3450e-01	-2.7079	-6.557206	-0.000308	-3.083653	-1.044770	-0.025144
1071	5.3500e-01	-2.7721	-6.647007	0.000220	2.202609	0.746264	-0.017960
1072	5.3550e-01	-2.8347	-6.722269	0.000185	1.845996	0.625441	-0.015052
1073	5.3600e-01	-2.8571	-6.859537	0.000337	3.366846	1.140718	-0.027454
1074	5.3650e-01	-2.9277	-6.930950	0.000175	1.751599	0.593458	-0.014283
1075	5.3700e-01	-2.9357	-7.049403	0.000291	2.905347	0.984358	-0.023690
1076	5.3750e-01	-2.9710	-7.131079	0.000200	2.003326	0.678745	-0.016335
1077	5.3800e-01	-3.0304	-7.230716	0.000244	2.443848	0.827998	-0.019927
1078	5.3850e-01	-3.0448	-7.328642	0.000240	2.401893	0.813783	-0.019585
1079	5.3900e-01	-3.1090	-7.410318	0.000200	2.003326	0.678745	-0.016335
1080	5.3950e-01	-3.1459	-7.496699	0.000212	2.118700	0.717835	-0.017276
1081	5.4000e-01	-3.1940	-7.612585	0.000284	2.842415	0.963036	-0.023177
1082	5.4050e-01	-3.2149	-7.721630	0.000267	2.674597	0.906178	-0.021809
1083	5.4100e-01	-3.2855	-7.793898	0.000177	1.772576	0.600565	-0.014454
1084	5.4150e-01	-3.2855	-7.891824	0.000240	2.401893	0.813783	-0.019585
1085	5.4200e-01	-3.3416	-7.996165	0.000256	2.559222	0.867088	-0.020868
1086	5.4250e-01	-3.3785	-8.099223	0.000253	2.527756	0.856427	-0.020612
1087	5.4300e-01	-3.4122	-8.174057	0.000184	1.835508	0.621887	-0.014967
1088	5.4350e-01	-3.4828	-8.259582	0.000210	2.097723	0.710728	-0.017105
1089	5.4400e-01	-3.5277	-8.370765	0.000273	2.727040	0.923946	-0.022237
1090	5.4450e-01	-3.5261	-8.472540	-0.000250	-2.496291	-0.845766	-0.020355
1091	5.4500e-01	-3.5566	-8.556782	0.000207	2.066257	0.700067	-0.016848
1092	5.4550e-01	-3.6095	-8.640596	0.000206	2.055769	0.696513	-0.016763
1093	5.4600e-01	-3.6737	-8.738950	0.000241	2.412382	0.817337	-0.019671
1094	5.4650e-01	-3.7122	-8.826613	0.000215	2.150166	0.728496	-0.017533
1095	5.4700e-01	-3.7298	-8.926678	0.000245	2.454336	0.831552	-0.020013
1096	5.4750e-01	-3.7780	-9.017334	0.000222	2.223587	0.753372	-0.018131
1097	5.4800e-01	-3.8357	-9.117826	0.000246	2.464825	0.835105	-0.020098
1098	5.4850e-01	-3.8790	-9.214897	0.000238	2.380916	0.806676	-0.019414
1099	5.4900e-01	-3.9143	-9.293580	0.000193	1.929905	0.653870	-0.015737
1100	5.4950e-01	-3.9368	-9.396638	0.000253	2.527756	0.856427	-0.020612
1101	5.5000e-01	-4.0106	-9.469334	0.000178	1.783065	0.604119	-0.014539
1102	5.5050e-01	-4.0491	-9.577096	0.000264	2.643131	0.895517	-0.021552
1103	5.5100e-01	-4.0731	-9.656634	0.000195	1.950883	0.660977	-0.015908
1104	5.5150e-01	-4.0876	-9.760547	0.000255	2.548734	0.863534	-0.020783
1105	5.5200e-01	-4.1550	-9.855480	0.000233	2.328473	0.788908	-0.018987
1106	5.5250e-01	-4.1822	-9.936301	0.000198	1.982348	0.671638	-0.016164
1107	5.5300e-01	-4.2143	-10.034655	0.000241	2.412382	0.817337	-0.019671
1108	5.5350e-01	-4.2753	-10.105213	0.000173	1.730622	0.586350	-0.014112
1109	5.5400e-01	-4.3074	-10.220672	0.000283	2.831926	0.959483	-0.023092
1110	5.5450e-01	-4.3330	-10.319026	0.000241	2.412382	0.817337	-0.019671
1111	5.5500e-01	-4.4116	-10.399847	0.000198	1.982348	0.671638	-0.016164
1112	5.5550e-01	-4.4245	-10.494352	0.000232	2.317984	0.785354	-0.018901
1113	5.5600e-01	-4.4598	-10.608100	0.000279	2.789972	0.945268	-0.022750
1114	5.5650e-01	-4.5111	-10.704316	0.000236	2.359939	0.799569	-0.019243
1115	5.5700e-01	-4.5416	-10.775302	0.000174	1.741110	0.589904	-0.014197
1116	5.5750e-01	-4.5817	-10.865531	0.000221	2.213098	0.749818	-0.018046
1117	5.5800e-01	-4.6378	-10.939937	0.000183	1.825019	0.618333	-0.014881
1118	5.5850e-01	-4.6394	-11.049837	0.000270	2.695574	0.913285	-0.021980
1119	5.5900e-01	-4.6844	-11.146053	0.000236	2.359939	0.799569	-0.019243
1120	5.5950e-01	-4.7437	-11.199506	0.000131	1.311077	0.444205	-0.010691
1121	5.6000e-01	-4.8047	-11.289735	0.000221	2.213098	0.749818	-0.018046
1122	5.6050e-01	-4.8031	-11.406904	-0.000287	-2.873881	-0.973697	-0.023434
1123	5.6100e-01	-4.8560	-11.476179	0.000170	1.699156	0.575690	-0.013855
1124	5.6150e-01	-4.9106	-11.594632	0.000291	2.905347	0.984358	-0.023690
1125	5.6200e-01	-4.9587	-11.666045	0.000175	1.751599	0.593458	-0.014283
1126	5.6250e-01	-4.9908	-11.758412	0.000227	2.265541	0.767586	-0.018473
1127	5.6300e-01	-5.0164	-11.864463	0.000260	2.601177	0.881303	-0.021210
1128	5.6350e-01	-5.0533	-11.928607	0.000157	1.573292	0.533046	-0.012829
1129	5.6400e-01	-5.1063	-12.050480	0.000299	2.989256	1.012787	-0.024375
1130	5.6450e-01	-5.1432	-12.122749	0.000177	1.772576	0.600565	-0.014454
1131	5.6500e-01	-5.1849	-12.209129	0.000212	2.118700	0.717835	-0.017276
1132	5.6550e-01	-5.2490	-12.299786	0.000222	2.223587	0.753372	-0.018131
1133	5.6600e-01	-5.2779	-12.388304	0.000217	2.171144	0.735603	-0.017704
1134	5.6650e-01	-5.2988	-12.486230	0.000240	2.401893	0.813783	-0.019585
1135	5.6700e-01	-5.3437	-12.570473	0.000207	2.066257	0.700067	-0.016848
1136	5.6750e-01	-5.3758	-12.653004	0.000202	2.024303	0.685852	-0.016506
1137	5.6800e-01	-5.4367	-12.741950	0.000218	2.181632	0.739157	-0.017789
1138	5.6850e-01	-5.4736	-12.832179	0.000221	2.213098	0.749818	-0.018046
1139	5.6900e-01	-5.5154	-12.907869	0.000186	1.856485	0.628994	-0.015138
1140	5.6950e-01	-5.5571	-12.991683	0.000206	2.055769	0.696513	-0.016763
1141	5.7000e-01	-5.5667	-13.096452	0.000257	2.569711	0.870642	-0.020954
1142	5.7050e-01	-5.6357	-13.196944	0.000246	2.464825	0.835105	-0.020098
1143	5.7100e-01	-5.6581	-13.284607	0.000215	2.150166	0.728496	-0.017533
1144	5.7150e-01	-5.7159	-13.368421	0.000206	2.055769	0.696513	-0.016763
1145	5.7200e-01	-5.7207	-13.439835	0.000175	1.751599	0.593458	-0.014283
1146	5.7250e-01	-5.7768	-13.542892	0.000253	2.527756	0.856427	-0.020612
1147	5.7300e-01	-5.8266	-13.632266	0.000219	2.192121	0.742711	-0.017875
1148	5.7350e-01	-5.8699	-13.692989	0.000149	1.489383	0.504617	-0.012145
1149	5.7400e-01	-5.8956	-13.811013	0.000289	2.894858	0.980804	-0.023605
1150	5.7450e-01	-5.9373	-13.887986	0.000189	1.887951	0.639655	-0.015395
1151	5.7500e-01	-6.0030	-13.950847	0.000154	1.541827	0.522385	-0.012572
1152	5.7550e-01	-6.0046	-14.056470	0.000259	2.590688	0.877749	-0.021125
1153	5.7600e-01	-6.0576	-14.128739	0.000177	1.772576	0.600565	-0.014454
1154	5.7650e-01	-6.1378	-14.196731	0.000167	1.667690	0.565029	-0.013598
1155	5.7700e-01	-6.1426	-14.307914	0.000273	2.727040	0.923946	-0.022237
1156	5.7750e-01	-6.1827	-14.388735	0.000198	1.982348	0.671638	-0.016164
1157	5.7800e-01	-6.2324	-14.481530	0.000228	2.276030	0.771140	-0.018559
1158	5.7850e-01	-6.2677	-14.568338	0.000213	2.129189	0.721389	-0.017362
1159	5.7900e-01	-6.3062	-14.643172	0.000184	1.835508	0.621887	-0.014967
1160	5.7950e-01	-6.3560	-14.748796	0.000259	2.590688	0.877749	-0.021125
1161	5.8000e-01	-6.3929	-14.816361	0.000166	1.657201	0.561475	-0.013513
1162	5.8050e-01	-6.4266	-14.896754	0.000197	1.971860	0.668084	-0.016079
1163	5.8100e-01	-6.4394	-15.034449	0.000338	3.377334	1.144272	-0.027539
1164	5.8150e-01	-6.5308	-15.057969	0.000058	0.576874	0.195450	-0.004704
1165	5.8200e-01	-6.5340	-15.167868	0.000270	2.695574	0.913285	-0.021980
1166	5.8250e-01	-6.5838	-15.233723	0.000162	1.615247	0.547260	-0.013171
1167	5.8300e-01	-6.6287	-15.327800	0.000231	2.307496	0.781801	-0.018816
1168	5.8350e-01	-6.6816	-15.407766	0.000196	1.961371	0.664531	-0.015993
1169	5.8400e-01	-6.6945	-15.492436	0.000208	2.076746	0.703621	-0.016934
1170	5.8450e-01	-6.7442	-15.575823	0.000205	2.045280	0.692960	-0.016677
1171	5.8500e-01	-6.8084	-15.639539	0.000156	1.562804	0.529492	-0.012743
1172	5.8550e-01	-6.8003	-15.749866	-0.000271	-2.706063	-0.916839	-0.022065
1173	5.8600e-01	-6.8453	-15.857628	0.000264	2.643131	0.895517	-0.021552
1174	5.8650e-01	-6.8998	-15.926048	0.000168	1.678179	0.568582	-0.013684
1175	5.8700e-01	-6.9239	-16.013711	0.000215	2.150166	0.728496	-0.017533
1176	5.8750e-01	-6.9929	-16.094105	0.000197	1.971860	0.668084	-0.016079
1177	5.8800e-01	-7.0201	-16.175781	0.000200	2.003326	0.678745	-0.016335
1178	5.8850e-01	-7.0682	-16.248050	0.000177	1.772576	0.600565	-0.014454
1179	5.8900e-01	-7.1212	-16.335713	0.000215	2.150166	0.728496	-0.017533
1180	5.8950e-01	-7.1228	-16.436205	0.000246	2.464825	0.835105	-0.020098
1181	5.9000e-01	-7.1773	-16.505908	0.000171	1.709644	0.579243	-0.013941
1182	5.9050e-01	-7.2046	-16.590578	0.000208	2.076746	0.703621	-0.016934
1183	5.9100e-01	-7.2255	-16.679096	0.000217	2.171144	0.735603	-0.017704
1184	5.9150e-01	-7.3041	-16.762483	0.000205	2.045280	0.692960	-0.016677
1185	5.9200e-01	-7.3474	-16.839028	0.000188	1.877462	0.636101	-0.015309
1186	5.9250e-01	-7.3731	-16.931823	0.000228	2.276030	0.771140	-0.018559
1187	5.9300e-01	-7.3955	-17.034880	0.000253	2.527756	0.856427	-0.020612
1188	5.9350e-01	-7.4597	-17.117412	0.000202	2.024303	0.685852	-0.016506
1189	5.9400e-01	-7.5239	-17.165734	0.000119	1.185214	0.401561	-0.009664
1190	5.9450e-01	-7.5351	-17.253397	0.000215	2.150166	0.728496	-0.017533
1191	5.9500e-01	-7.6025	-17.347902	0.000232	2.317984	0.785354	-0.018901
1192	5.9550e-01	-7.6217	-17.440697	0.000228	2.276030	0.771140	-0.018559
1193	5.9600e-01	-7.6939	-17.492867	0.000128	1.279611	0.433544	-0.010434
1194	5.9650e-01	-7.6971	-17.560432	0.000166	1.657201	0.561475	-0.013513
1195	5.9700e-01	-7.7484	-17.658358	0.000240	2.401893	0.813783	-0.019585
1196	5.9750e-01	-7.7805	-17.759705	0.000249	2.485802	0.842213	-0.020269
1197	5.9800e-01	-7.8238	-17.831119	0.000175	1.751599	0.593458	-0.014283
1198	5.9850e-01	-7.8271	-17.917071	0.000211	2.108212	0.714282	-0.017191
1199	5.9900e-01	-7.8800	-18.008583	0.000224	2.244564	0.760479	-0.018302
1200	5.9950e-01	-7.9666	-18.069306	0.000149	1.489383	0.504617	-0.012145
1201	6.0000e-01	-7.9875	-18.171508	0.000251	2.506779	0.849320	-0.020440
1202	6.0050e-01	-8.0276	-18.236935	0.000160	1.604758	0.543707	-0.013085
1203	6.0100e-01	-8.0356	-18.347262	0.000271	2.706063	0.916839	-0.022065
1204	6.0150e-01	-8.0901	-18.407558	0.000148	1.478895	0.501063	-0.012059
1205	6.0200e-01	-8.1543	-18.471701	0.000157	1.573292	0.533046	-0.012829
1206	6.0250e-01	-8.1896	-18.582884	0.000273	2.727040	0.923946	-0.022237
1207	6.0300e-01	-8.2137	-18.654725	0.000176	1.762088	0.597011	-0.014368
1208	6.0350e-01	-8.2474	-18.743243	0.000217	2.171144	0.735603	-0.017704
1209	6.0400e-01	-8.3115	-18.818505	0.000185	1.845996	0.625441	-0.015052
1210	6.0450e-01	-8.3115	-18.922846	0.000256	2.559222	0.867088	-0.020868
1211	6.0500e-01	-8.3885	-18.981431	0.000144	1.436940	0.486849	-0.011717
1212	6.0550e-01	-8.4158	-19.072087	0.000222	2.223587	0.753372	-0.018131
1213	6.0600e-01	-8.4800	-19.142645	0.000173	1.730622	0.586350	-0.014112
1214	6.0650e-01	-8.4736	-19.231591	-0.000218	-2.181632	-0.739157	-0.017789
1215	6.0700e-01	-8.5361	-19.299156	0.000166	1.657201	0.561475	-0.013513
1216	6.0750e-01	-8.5730	-19.389813	0.000222	2.223587	0.753372	-0.018131
1217	6.0800e-01	-8.6324	-19.463792	0.000181	1.814531	0.614780	-0.014796
1218	6.0850e-01	-8.6901	-19.530074	0.000163	1.625736	0.550814	-0.013256
1219	6.0900e-01	-8.7062	-19.616882	0.000213	2.129189	0.721389	-0.017362
1220	6.0950e-01	-8.7270	-19.722933	0.000260	2.601177	0.881303	-0.021210
1221	6.1000e-01	-8.7623	-19.805892	0.000203	2.034792	0.689406	-0.016592
1222	6.1050e-01	-8.8040	-19.855924	0.000123	1.227168	0.415776	-0.010006
1223	6.1100e-01	-8.8393	-19.951712	0.000235	2.349450	0.796015	-0.019158
1224	6.1150e-01	-8.9019	-20.029540	0.000191	1.908928	0.646762	-0.015566
1225	6.1200e-01	-8.9308	-20.106085	0.000188	1.877462	0.636101	-0.015309
1226	6.1250e-01	-8.9805	-20.194176	0.000216	2.160655	0.732050	-0.017618
1227	6.1300e-01	-9.0366	-20.252333	0.000143	1.426452	0.483295	-0.011631
1228	6.1350e-01	-9.0719	-20.334009	0.000200	2.003326	0.678745	-0.016335
1229	6.1400e-01	-9.1040	-20.419534	0.000210	2.097723	0.710728	-0.017105
1230	6.1450e-01	-9.1233	-20.486244	0.000164	1.636224	0.554368	-0.013342
1231	6.1500e-01	-9.1971	-20.579466	0.000229	2.286518	0.774693	-0.018644
1232	6.1550e-01	-9.2131	-20.674827	0.000234	2.338961	0.792462	-0.019072
1233	6.1600e-01	-9.2404	-20.747095	0.000177	1.772576	0.600565	-0.014454
1234	6.1650e-01	-9.3013	-20.821930	0.000184	1.835508	0.621887	-0.014967
1235	6.1700e-01	-9.3816	-20.892060	0.000172	1.720133	0.582797	-0.014026
1236	6.1750e-01	-9.3848	-20.970316	0.000192	1.919417	0.650316	-0.015651
1237	6.1800e-01	-9.4136	-21.048999	0.000193	1.929905	0.653870	-0.015737
1238	6.1850e-01	-9.4842	-21.114853	0.000162	1.615247	0.547260	-0.013171
1239	6.1900e-01	-9.5179	-21.210641	0.000235	2.349450	0.796015	-0.019158
1240	6.1950e-01	-9.5660	-21.278206	0.000166	1.657201	0.561475	-0.013513
1241	6.2000e-01	-9.5789	-21.379553	0.000249	2.485802	0.842213	-0.020269
1242	6.2050e-01	-9.6110	-21.451822	0.000177	1.772576	0.600565	-0.014454
1243	6.2100e-01	-9.6414	-21.546755	0.000233	2.328473	0.788908	-0.018987
1244	6.2150e-01	-9.7088	-21.589090	0.000104	1.038373	0.351810	-0.008467
1245	6.2200e-01	-9.7457	-21.653233	0.000157	1.573292	0.533046	-0.012829
1246	6.2250e-01	-9.7537	-21.799909	0.000360	3.597595	1.218898	-0.029335
1247	6.2300e-01	-9.8211	-21.851652	0.000127	1.269123	0.429990	-0.010349
1248	6.2350e-01	-9.8452	-21.925203	0.000180	1.804042	0.611226	-0.014710
1249	6.2400e-01	-9.8724	-22.002176	0.000189	1.887951	0.639655	-0.015395
1250	6.2450e-01	-9.9238	-22.061188	0.000145	1.447429	0.490402	-0.011802
1251	6.2500e-01	-9.9687	-22.162535	0.000249	2.485802	0.842213	-0.020269
1252	6.2550e-01	-10.0409	-22.218982	0.000138	1.384497	0.469080	-0.011289
1253	6.2600e-01	-10.0601	-22.311349	0.000227	2.265541	0.767586	-0.018473
1254	6.2650e-01	-10.1067	-22.375492	0.000157	1.573292	0.533046	-0.012829
1255	6.2700e-01	-10.1564	-22.468715	0.000229	2.286518	0.774693	-0.018644
1256	6.2750e-01	-10.1740	-22.532431	0.000156	1.562804	0.529492	-0.012743
1257	6.2800e-01	-10.2334	-22.605983	0.000180	1.804042	0.611226	-0.014710
1258	6.2850e-01	-10.2575	-22.712461	0.000261	2.611665	0.884856	-0.021296
1259	6.2900e-01	-10.3120	-22.753086	0.000100	0.996419	0.337596	-0.008125
1260	6.2950e-01	-10.3409	-22.845025	0.000226	2.255052	0.764032	-0.018388
1261	6.3000e-01	-10.3842	-22.930550	0.000210	2.097723	0.710728	-0.017105
1262	6.3050e-01	-10.4211	-23.011371	0.000198	1.982348	0.671638	-0.016164
1263	6.3100e-01	-10.4580	-23.086206	0.000184	1.835508	0.621887	-0.014967
1264	6.3150e-01	-10.5125	-23.145646	0.000146	1.457918	0.493956	-0.011888
1265	6.3200e-01	-10.5831	-23.218770	0.000179	1.793553	0.607672	-0.014625
1266	6.3250e-01	-10.5751	-23.310709	-0.000226	-2.255052	-0.764032	-0.018388
1267	6.3300e-01	-10.6280	-23.359031	0.000119	1.185214	0.401561	-0.009664
1268	6.3350e-01	-10.6858	-23.454391	0.000234	2.338961	0.792462	-0.019072
1269	6.3400e-01	-10.7002	-23.527515	0.000179	1.793553	0.607672	-0.014625
1270	6.3450e-01	-10.7403	-23.607481	0.000196	1.961371	0.664531	-0.015993
1271	6.3500e-01	-10.7820	-23.685736	0.000192	1.919417	0.650316	-0.015651
1272	6.3550e-01	-10.8029	-23.776821	0.000223	2.234075	0.756925	-0.018217
1273	6.3600e-01	-10.8510	-23.844813	0.000167	1.667690	0.565029	-0.013598
1274	6.3650e-01	-10.8783	-23.922641	0.000191	1.908928	0.646762	-0.015566
1275	6.3700e-01	-10.9200	-24.004745	0.000201	2.013814	0.682299	-0.016421
1276	6.3750e-01	-10.9810	-24.092408	0.000215	2.150166	0.728496	-0.017533
1277	6.3800e-01	-11.0355	-24.144578	0.000128	1.279611	0.433544	-0.010434
1278	6.3850e-01	-11.0708	-24.232241	0.000215	2.150166	0.728496	-0.017533
1279	6.3900e-01	-11.1157	-24.277142	0.000110	1.101305	0.373132	-0.008980
1280	6.3950e-01	-11.1574	-24.361384	0.000207	2.066257	0.700067	-0.016848
1281	6.4000e-01	-11.1574	-24.446482	0.000209	2.087235	0.707174	-0.017019
1282	6.4050e-01	-11.2056	-24.530296	0.000206	2.055769	0.696513	-0.016763
1283	6.4100e-01	-11.2537	-24.606841	0.000188	1.877462	0.636101	-0.015309
1284	6.4150e-01	-11.3034	-24.664143	0.000141	1.405475	0.476188	-0.011460
1285	6.4200e-01	-11.3499	-24.731280	0.000165	1.646713	0.557921	-0.013427
1286	6.4250e-01	-11.4173	-24.820654	0.000219	2.192121	0.742711	-0.017875
1287	6.4300e-01	-11.4382	-24.890357	0.000171	1.709644	0.579243	-0.013941
1288	6.4350e-01	-11.4606	-24.972033	0.000200	2.003326	0.678745	-0.016335
1289	6.4400e-01	-11.4847	-25.047723	0.000186	1.856485	0.628994	-0.015138
1290	6.4450e-01	-11.5328	-25.138379	0.000222	2.223587	0.753372	-0.018131
1291	6.4500e-01	-11.5810	-25.201668	0.000155	1.552315	0.525939	-0.012658
1292	6.4550e-01	-11.6355	-25.268377	0.000164	1.636224	0.554368	-0.013342
1293	6.4600e-01	-11.6644	-25.342357	0.000181	1.814531	0.614780	-0.014796
1294	6.4650e-01	-11.6933	-25.424888	0.000202	2.024303	0.685852	-0.016506
1295	6.4700e-01	-11.7382	-25.512124	0.000214	2.139678	0.724942	-0.017447
1296	6.4750e-01	-11.7783	-25.573274	0.000150	1.499872	0.508170	-0.012230
1297	6.4800e-01	-11.8441	-25.624589	0.000126	1.258634	0.426437	-0.010263
1298	6.4850e-01	-11.8809	-25.707976	0.000205	2.045280	0.692960	-0.016677
1299	6.4900e-01	-11.8681	-25.778962	-0.000174	-1.741110	-0.589904	-0.014197
1300	6.4950e-01	-11.9066	-25.884586	0.000259	2.590688	0.877749	-0.021125
1301	6.5000e-01	-11.9965	-25.909815	0.000062	0.618828	0.209665	-0.005046
1302	6.5050e-01	-12.0317	-25.996623	0.000213	2.129189	0.721389	-0.017362
1303	6.5100e-01	-12.0510	-26.094550	0.000240	2.401893	0.813783	-0.019585
1304	6.5150e-01	-12.0959	-26.165963	0.000175	1.751599	0.593458	-0.014283
1305	6.5200e-01	-12.1344	-26.236521	0.000173	1.730622	0.586350	-0.014112
1306	6.5250e-01	-12.2066	-26.297244	0.000149	1.489383	0.504617	-0.012145
1307	6.5300e-01	-12.2499	-26.383197	0.000211	2.108212	0.714282	-0.017191
1308	6.5350e-01	-12.2515	-26.462735	0.000195	1.950883	0.660977	-0.015908
1309	6.5400e-01	-12.2948	-26.558951	0.000236	2.359939	0.799569	-0.019243
1310	6.5450e-01	-12.3430	-26.594443	0.000087	0.870555	0.294952	-0.007099
1311	6.5500e-01	-12.3702	-26.687238	0.000228	2.276030	0.771140	-0.018559
1312	6.5550e-01	-12.4328	-26.738981	0.000127	1.269123	0.429990	-0.010349
1313	6.5600e-01	-12.4456	-26.824078	0.000209	2.087235	0.707174	-0.017019
1314	6.5650e-01	-12.5098	-26.882235	0.000143	1.426452	0.483295	-0.011631
1315	6.5700e-01	-12.5210	-26.992990	0.000272	2.716552	0.920393	-0.022151
1316	6.5750e-01	-12.5996	-27.034042	0.000101	1.006907	0.341149	-0.008210
1317	6.5800e-01	-12.6494	-27.099897	0.000162	1.615247	0.547260	-0.013171
1318	6.5850e-01	-12.6622	-27.179007	0.000194	1.940394	0.657423	-0.015822
1319	6.5900e-01	-12.7071	-27.275223	0.000236	2.359939	0.799569	-0.019243
1320	6.5950e-01	-12.7408	-27.341077	0.000162	1.615247	0.547260	-0.013171
1321	6.6000e-01	-12.7745	-27.417194	0.000187	1.866974	0.632548	-0.015223
1322	6.6050e-01	-12.8419	-27.486470	0.000170	1.699156	0.575690	-0.013855
1323	6.6100e-01	-12.8724	-27.545910	0.000146	1.457918	0.493956	-0.011888
1324	6.6150e-01	-12.8627	-27.637849	-0.000226	-2.255052	-0.764032	-0.018388
1325	6.6200e-01	-12.9413	-27.699427	0.000151	1.510361	0.511724	-0.012316
1326	6.6250e-01	-12.9718	-27.769985	0.000173	1.730622	0.586350	-0.014112
1327	6.6300e-01	-13.0296	-27.858931	0.000218	2.181632	0.739157	-0.017789
1328	6.6350e-01	-13.0504	-27.903404	0.000109	1.090816	0.369578	-0.008895
1329	6.6400e-01	-13.1034	-27.990212	0.000213	2.129189	0.721389	-0.017362
1330	6.6450e-01	-13.1355	-28.054356	0.000157	1.573292	0.533046	-0.012829
1331	6.6500e-01	-13.1900	-28.118500	0.000157	1.573292	0.533046	-0.012829
1332	6.6550e-01	-13.2237	-28.186065	0.000166	1.657201	0.561475	-0.013513
1333	6.6600e-01	-13.2863	-28.245077	0.000145	1.447429	0.490402	-0.011802
1334	6.6650e-01	-13.2814	-28.340010	-0.000233	-2.328473	-0.788908	-0.018987
1335	6.6700e-01	-13.3408	-28.414844	0.000184	1.835508	0.621887	-0.014967
1336	6.6750e-01	-13.3921	-28.480699	0.000162	1.615247	0.547260	-0.013171
1337	6.6800e-01	-13.4435	-28.552967	0.000177	1.772576	0.600565	-0.014454
1338	6.6850e-01	-13.4595	-28.606848	0.000132	1.321566	0.447759	-0.010776
1339	6.6900e-01	-13.5044	-28.712044	0.000258	2.580200	0.874195	-0.021039
1340	6.6950e-01	-13.5638	-28.763359	0.000126	1.258634	0.426437	-0.010263
1341	6.7000e-01	-13.5750	-28.841614	0.000192	1.919417	0.650316	-0.015651
1342	6.7050e-01	-13.6167	-28.916876	0.000185	1.845996	0.625441	-0.015052
1343	6.7100e-01	-13.6504	-28.976744	0.000147	1.468406	0.497510	-0.011974
1344	6.7150e-01	-13.6793	-29.065262	0.000217	2.171144	0.735603	-0.017704
1345	6.7200e-01	-13.7435	-29.119998	0.000134	1.342543	0.454866	-0.010947
1346	6.7250e-01	-13.7772	-29.206806	0.000213	2.129189	0.721389	-0.017362
1347	6.7300e-01	-13.8365	-29.272661	0.000162	1.615247	0.547260	-0.013171
1348	6.7350e-01	-13.8654	-29.354765	0.000201	2.013814	0.682299	-0.016421
1349	6.7400e-01	-13.9087	-29.434303	0.000195	1.950883	0.660977	-0.015908
1350	6.7450e-01	-13.9504	-29.446276	0.000029	0.293681	0.099502	-0.002395
1351	6.7500e-01	-13.9937	-29.549762	0.000254	2.538245	0.859981	-0.020697
1352	6.7550e-01	-14.0178	-29.623313	0.000180	1.804042	0.611226	-0.014710
1353	6.7600e-01	-14.0659	-29.701996	0.000193	1.929905	0.653870	-0.015737
1354	6.7650e-01	-14.1108	-29.750746	0.000120	1.195702	0.405115	-0.009750
1355	6.7700e-01	-14.1189	-29.853803	0.000253	2.527756	0.856427	-0.020612
1356	6.7750e-01	-14.1798	-29.917092	0.000155	1.552315	0.525939	-0.012658
1357	6.7800e-01	-14.2071	-29.984657	0.000166	1.657201	0.561475	-0.013513
1358	6.7850e-01	-14.2504	-30.043669	0.000145	1.447429	0.490402	-0.011802
1359	6.7900e-01	-14.2889	-30.122780	0.000194	1.940394	0.657423	-0.015822
1360	6.7950e-01	-14.3338	-30.204884	0.000201	2.013814	0.682299	-0.016421
1361	6.8000e-01	-14.3691	-30.261330	0.000138	1.384497	0.469080	-0.011289
1362	6.8050e-01	-14.4012	-30.330178	0.000169	1.688667	0.572136	-0.013770
1363	6.8100e-01	-14.4413	-30.366098	0.000088	0.881044	0.298506	-0.007184
1364	6.8150e-01	-14.4910	-30.490110	0.000304	3.041699	1.030555	-0.024802
1365	6.8200e-01	-14.5472	-30.540569	0.000124	1.237657	0.419329	-0.010092
1366	6.8250e-01	-14.6017	-30.611983	0.000175	1.751599	0.593458	-0.014283
1367	6.8300e-01	-14.6354	-30.668429	0.000138	1.384497	0.469080	-0.011289
1368	6.8350e-01	-14.6547	-30.761652	0.000229	2.286518	0.774693	-0.018644
1369	6.8400e-01	-14.6948	-30.827506	0.000162	1.615247	0.547260	-0.013171
1370	6.8450e-01	-14.7140	-30.899347	0.000176	1.762088	0.597011	-0.014368
1371	6.8500e-01	-14.7541	-30.959642	0.000148	1.478895	0.501063	-0.012059
1372	6.8550e-01	-14.8343	-31.037042	0.000190	1.898440	0.643209	-0.015480
1373	6.8600e-01	-14.8311	-31.100331	-0.000155	-1.552315	-0.525939	-0.012658
1374	6.8650e-01	-14.8841	-31.170462	0.000172	1.720133	0.582797	-0.014026
1375	6.8700e-01	-14.9434	-31.243158	0.000178	1.783065	0.604119	-0.014539
1376	6.8750e-01	-14.9771	-31.314571	0.000175	1.751599	0.593458	-0.014283
1377	6.8800e-01	-15.0236	-31.391971	0.000190	1.898440	0.643209	-0.015480
1378	6.8850e-01	-15.0541	-31.440721	0.000120	1.195702	0.405115	-0.009750
1379	6.8900e-01	-15.1135	-31.512134	0.000175	1.751599	0.593458	-0.014283
1380	6.8950e-01	-15.1696	-31.563877	0.000127	1.269123	0.429990	-0.010349
1381	6.9000e-01	-15.1841	-31.649829	0.000211	2.108212	0.714282	-0.017191
1382	6.9050e-01	-15.2242	-31.725519	0.000186	1.856485	0.628994	-0.015138
1383	6.9100e-01	-15.2611	-31.788380	0.000154	1.541827	0.522385	-0.012572
1384	6.9150e-01	-15.3092	-31.878181	0.000220	2.202609	0.746264	-0.017960
1385	6.9200e-01	-15.3284	-31.929069	0.000125	1.248145	0.422883	-0.010177
1386	6.9250e-01	-15.3878	-31.987653	0.000144	1.436940	0.486849	-0.011717
1387	6.9300e-01	-15.3830	-32.078738	-0.000223	-2.234075	-0.756925	-0.018217
1388	6.9350e-01	-15.4584	-32.145020	0.000163	1.625736	0.550814	-0.013256
1389	6.9400e-01	-15.4969	-32.216005	0.000174	1.741110	0.589904	-0.014197
1390	6.9450e-01	-15.5242	-32.281004	0.000159	1.594270	0.540153	-0.013000
1391	6.9500e-01	-15.5691	-32.360115	0.000194	1.940394	0.657423	-0.015822
1392	6.9550e-01	-15.6365	-32.413996	0.000132	1.321566	0.447759	-0.010776
1393	6.9600e-01	-15.6541	-32.487120	0.000179	1.793553	0.607672	-0.014625
1394	6.9650e-01	-15.7086	-32.557678	0.000173	1.730622	0.586350	-0.014112
1395	6.9700e-01	-15.7520	-32.626098	0.000168	1.678179	0.568582	-0.013684
1396	6.9750e-01	-15.7808	-32.695373	0.000170	1.699156	0.575690	-0.013855
1397	6.9800e-01	-15.8322	-32.777477	0.000201	2.013814	0.682299	-0.016421
1398	6.9850e-01	-15.8434	-32.838628	0.000150	1.499872	0.508170	-0.012230
1399	6.9900e-01	-15.8979	-32.909186	0.000173	1.730622	0.586350	-0.014112
1400	6.9950e-01	-15.9525	-32.976323	0.000165	1.646713	0.557921	-0.013427
1401	7.0000e-01	-16.0006	-33.029349	0.000130	1.300588	0.440651	-0.010605
1402	7.0050e-01	-16.0070	-33.107176	0.000191	1.908928	0.646762	-0.015566
1403	7.0100e-01	-16.0648	-33.185004	0.000191	1.908928	0.646762	-0.015566
1404	7.0150e-01	-16.1209	-33.229905	0.000110	1.101305	0.373132	-0.008980
1405	7.0200e-01	-16.1001	-33.319706	-0.000220	-2.202609	-0.746264	-0.017960
1406	7.0250e-01	-16.1835	-33.361186	0.000102	1.017396	0.344703	-0.008296
1407	7.0300e-01	-16.2284	-33.471513	0.000271	2.706063	0.916839	-0.022065
1408	7.0350e-01	-16.2637	-33.508289	0.000090	0.902021	0.305613	-0.007355
1409	7.0400e-01	-16.2685	-33.595524	0.000214	2.139678	0.724942	-0.017447
1410	7.0450e-01	-16.3423	-33.657958	0.000153	1.531338	0.518831	-0.012487
1411	7.0500e-01	-16.3680	-33.731082	0.000179	1.793553	0.607672	-0.014625
1412	7.0550e-01	-16.4161	-33.795653	0.000158	1.583781	0.536600	-0.012914
1413	7.0600e-01	-16.4354	-33.871770	0.000187	1.866974	0.632548	-0.015223
1414	7.0650e-01	-16.4851	-33.912395	0.000100	0.996419	0.337596	-0.008125
1415	7.0700e-01	-16.5236	-34.008610	0.000236	2.359939	0.799569	-0.019243
1416	7.0750e-01	-16.5926	-34.060353	0.000127	1.269123	0.429990	-0.010349
1417	7.0800e-01	-16.6391	-34.129201	0.000169	1.688667	0.572136	-0.013770
1418	7.0850e-01	-16.6680	-34.189924	0.000149	1.489383	0.504617	-0.012145
1419	7.0900e-01	-16.7097	-34.281008	0.000223	2.234075	0.756925	-0.018217
1420	7.0950e-01	-16.7739	-34.328047	0.000115	1.153748	0.390900	-0.009408
1421	7.1000e-01	-16.7883	-34.385776	0.000142	1.415963	0.479741	-0.011546
1422	7.1050e-01	-16.8460	-34.450775	0.000159	1.594270	0.540153	-0.013000
1423	7.1100e-01	-16.8316	-34.568800	-0.000289	-2.894858	-0.980804	-0.023605
1424	7.1150e-01	-16.9086	-34.594029	0.000062	0.618828	0.209665	-0.005046
1425	7.1200e-01	-16.9343	-34.681693	0.000215	2.150166	0.728496	-0.017533
1426	7.1250e-01	-16.9712	-34.753961	0.000177	1.772576	0.600565	-0.014454
1427	7.1300e-01	-17.0257	-34.814684	0.000149	1.489383	0.504617	-0.012145
1428	7.1350e-01	-17.0642	-34.906196	0.000224	2.244564	0.760479	-0.018302
1429	7.1400e-01	-17.0915	-34.953235	0.000115	1.153748	0.390900	-0.009408
1430	7.1450e-01	-17.1444	-35.018234	0.000159	1.594270	0.540153	-0.013000
1431	7.1500e-01	-17.1797	-35.095634	0.000190	1.898440	0.643209	-0.015480
1432	7.1550e-01	-17.2375	-35.150370	0.000134	1.342543	0.454866	-0.010947
1433	7.1600e-01	-17.2439	-35.226915	0.000188	1.877462	0.636101	-0.015309
1434	7.1650e-01	-17.3033	-35.274381	0.000116	1.164236	0.394454	-0.009493
1435	7.1700e-01	-17.3466	-35.376584	0.000251	2.506779	0.849320	-0.020440
1436	7.1750e-01	-17.3867	-35.424478	0.000117	1.174725	0.398008	-0.009579
1437	7.1800e-01	-17.4252	-35.489477	0.000159	1.594270	0.540153	-0.013000
1438	7.1850e-01	-17.4541	-35.551482	0.000152	1.520849	0.515278	-0.012401
1439	7.1900e-01	-17.4717	-35.642567	0.000223	2.234075	0.756925	-0.018217
1440	7.1950e-01	-17.5214	-35.710987	0.000168	1.678179	0.568582	-0.013684
1441	7.2000e-01	-17.5744	-35.791808	0.000198	1.982348	0.671638	-0.016164
1442	7.2050e-01	-17.6257	-35.845261	0.000131	1.311077	0.444205	-0.010691
1443	7.2100e-01	-17.6610	-35.906839	0.000151	1.510361	0.511724	-0.012316
1444	7.2150e-01	-17.6995	-35.984239	0.000190	1.898440	0.643209	-0.015480
1445	7.2200e-01	-17.7573	-36.053515	0.000170	1.699156	0.575690	-0.013855
1446	7.2250e-01	-17.7942	-36.118086	0.000158	1.583781	0.536600	-0.012914
1447	7.2300e-01	-17.8118	-36.171967	0.000132	1.321566	0.447759	-0.010776
1448	7.2350e-01	-17.8663	-36.268182	0.000236	2.359939	0.799569	-0.019243
1449	7.2400e-01	-17.8984	-36.320353	0.000128	1.279611	0.433544	-0.010434
1450	7.2450e-01	-17.9610	-36.399036	0.000193	1.929905	0.653870	-0.015737
1451	7.2500e-01	-17.9786	-36.467456	0.000168	1.678179	0.568582	-0.013684
1452	7.2550e-01	-18.0139	-36.548277	0.000198	1.982348	0.671638	-0.016164
1453	7.2600e-01	-18.0492	-36.600020	0.000127	1.269123	0.429990	-0.010349
1454	7.2650e-01	-18.1070	-36.670150	0.000172	1.720133	0.582797	-0.014026
1455	7.2700e-01	-18.1054	-36.752254	-0.000201	-2.013814	-0.682299	-0.016421
1456	7.2750e-01	-18.1936	-36.797583	0.000111	1.111793	0.376686	-0.009066
1457	7.2800e-01	-18.2514	-36.864292	0.000164	1.636224	0.554368	-0.013342
1458	7.2850e-01	-18.2642	-36.913469	0.000121	1.206191	0.408669	-0.009835
1459	7.2900e-01	-18.2850	-37.040901	0.000313	3.125608	1.058985	-0.025486
1460	7.2950e-01	-18.3316	-37.077677	0.000090	0.902021	0.305613	-0.007355
1461	7.3000e-01	-18.4038	-37.151229	0.000180	1.804042	0.611226	-0.014710
1462	7.3050e-01	-18.4278	-37.219649	0.000168	1.678179	0.568582	-0.013684
1463	7.3100e-01	-18.4647	-37.288069	0.000168	1.678179	0.568582	-0.013684
1464	7.3150e-01	-18.4824	-37.361193	0.000179	1.793553	0.607672	-0.014625
1465	7.3200e-01	-18.5449	-37.439448	0.000192	1.919417	0.650316	-0.015651
1466	7.3250e-01	-18.5562	-37.510006	0.000173	1.730622	0.586350	-0.014112
1467	7.3300e-01	-18.6251	-37.554052	0.000108	1.080327	0.366025	-0.008809
1468	7.3350e-01	-18.6652	-37.622044	0.000167	1.667690	0.565029	-0.013598
1469	7.3400e-01	-18.7086	-37.687043	0.000159	1.594270	0.540153	-0.013000
1470	7.3450e-01	-18.7551	-37.757174	0.000172	1.720133	0.582797	-0.014026
1471	7.3500e-01	-18.7824	-37.835429	0.000192	1.919417	0.650316	-0.015651
1472	7.3550e-01	-18.8289	-37.911119	0.000186	1.856485	0.628994	-0.015138
1473	7.3600e-01	-18.8674	-38.001775	0.000222	2.223587	0.753372	-0.018131
1474	7.3650e-01	-18.8979	-38.051807	0.000123	1.227168	0.415776	-0.010006
1475	7.3700e-01	-18.9620	-38.106543	0.000134	1.342543	0.454866	-0.010947
1476	7.3750e-01	-18.9765	-38.213450	0.000262	2.622154	0.888410	-0.021381
1477	7.3800e-01	-19.0471	-38.259633	0.000113	1.132771	0.383793	-0.009237
1478	7.3850e-01	-19.0695	-38.349435	0.000220	2.202609	0.746264	-0.017960
1479	7.3900e-01	-19.1064	-38.400750	0.000126	1.258634	0.426437	-0.010263
1480	7.3950e-01	-19.1561	-38.470453	0.000171	1.709644	0.579243	-0.013941
1481	7.4000e-01	-19.1754	-38.553840	0.000205	2.045280	0.692960	-0.016677
1482	7.4050e-01	-19.2075	-38.617128	0.000155	1.552315	0.525939	-0.012658
1483	7.4100e-01	-19.2636	-38.680417	0.000155	1.552315	0.525939	-0.012658
1484	7.4150e-01	-19.3134	-38.747126	0.000164	1.636224	0.554368	-0.013342
1485	7.4200e-01	-19.3150	-38.839066	0.000226	2.255052	0.764032	-0.018388
1486	7.4250e-01	-19.3823	-38.864295	0.000062	0.618828	0.209665	-0.005046
1487	7.4300e-01	-19.4385	-38.942979	0.000193	1.929905	0.653870	-0.015737
1488	7.4350e-01	-19.4449	-39.037484	0.000232	2.317984	0.785354	-0.018901
1489	7.4400e-01	-19.5219	-39.114029	0.000188	1.877462	0.636101	-0.015309
1490	7.4450e-01	-19.5187	-39.180311	-0.000163	-1.625736	-0.550814	-0.013256
1491	7.4500e-01	-19.5877	-39.233336	0.000130	1.300588	0.440651	-0.010605
1492	7.4550e-01	-19.6037	-39.321855	0.000217	2.171144	0.735603	-0.017704
1493	7.4600e-01	-19.6567	-39.384715	0.000154	1.541827	0.522385	-0.012572
1494	7.4650e-01	-19.7000	-39.439451	0.000134	1.342543	0.454866	-0.010947
1495	7.4700e-01	-19.7240	-39.506161	0.000164	1.636224	0.554368	-0.013342
1496	7.4750e-01	-19.7561	-39.607081	0.000248	2.475313	0.838659	-0.020184
1497	7.4800e-01	-19.8235	-39.659251	0.000128	1.279611	0.433544	-0.010434
1498	7.4850e-01	-19.8829	-39.731092	0.000176	1.762088	0.597011	-0.014368
1499	7.4900e-01	-19.9053	-39.792242	0.000150	1.499872	0.508170	-0.012230
1500	7.4950e-01	-19.8893	-39.886320	-0.000231	-2.307496	-0.781801	-0.018816
1501	7.5000e-01	-19.9727	-39.966713	0.000197	1.971860	0.668084	-0.016079
1502	7.5050e-01	-19.9214	-39.959444	0.000018	0.178306	0.060412	0.001454
1503	7.5100e-01	-19.8780	-39.926517	0.000081	0.807623	0.273630	0.006585
1504	7.5150e-01	-19.8267	-39.895728	0.000076	0.755180	0.255862	0.006158
1505	7.5200e-01	-19.7834	-39.835005	0.000149	1.489383	0.504617	0.012145
1506	7.5250e-01	-19.7545	-39.791815	0.000106	1.059350	0.358918	0.008638
1507	7.5300e-01	-19.7289	-39.740072	0.000127	1.269123	0.429990	0.010349
1508	7.5350e-01	-19.6775	-39.680204	0.000147	1.468406	0.497510	0.011974
1509	7.5400e-01	-19.6101	-39.639580	0.000100	0.996419	0.337596	0.008125
1510	7.5450e-01	-19.5925	-39.589976	0.000122	1.216679	0.412222	0.009921
1511	7.5500e-01	-19.5363	-39.520273	0.000171	1.709644	0.579243	0.013941
1512	7.5550e-01	-19.5155	-39.505733	0.000036	0.356613	0.120824	0.002908
1513	7.5600e-01	-19.4754	-39.430044	0.000186	1.856485	0.628994	0.015138
1514	7.5650e-01	-19.4273	-39.373597	0.000138	1.384497	0.469080	0.011289
1515	7.5700e-01	-19.3984	-39.309881	0.000156	1.562804	0.529492	0.012743
1516	7.5750e-01	-19.3422	-39.285079	0.000061	0.608340	0.206111	0.004960
1517	7.5800e-01	-19.3118	-39.232481	0.000129	1.290100	0.437098	0.010520
1518	7.5850e-01	-19.3005	-39.124292	0.000265	2.653620	0.899071	0.021638
1519	7.5900e-01	-19.2283	-39.116167	0.000020	0.199284	0.067519	0.001625
1520	7.5950e-01	-19.1834	-39.050312	0.000162	1.615247	0.547260	0.013171
1521	7.6000e-01	-19.1626	-39.002418	0.000117	1.174725	0.398008	0.009579
1522	7.6050e-01	-19.1112	-38.951531	0.000125	1.248145	0.422883	0.010177
1523	7.6100e-01	-19.0840	-38.877552	0.000181	1.814531	0.614780	0.014796
1524	7.6150e-01	-19.0374	-38.854032	0.000058	0.576874	0.195450	0.004704
1525	7.6200e-01	-19.0021	-38.782619	0.000175	1.751599	0.593458	0.014283
1526	7.6250e-01	-18.9781	-38.713771	0.000169	1.688667	0.572136	0.013770
1527	7.6300e-01	-18.8930	-38.671864	0.000103	1.027884	0.348257	0.008381
1528	7.6350e-01	-18.8433	-38.623970	0.000117	1.174725	0.398008	0.009579
1529	7.6400e-01	-18.8401	-38.576931	0.000115	1.153748	0.390900	0.009408
1530	7.6450e-01	-18.7856	-38.490551	0.000212	2.118700	0.717835	0.017276
1531	7.6500e-01	-18.7583	-38.436670	0.000132	1.321566	0.447759	0.010776
1532	7.6550e-01	-18.7198	-38.379796	0.000139	1.394986	0.472634	0.011375
1533	7.6600e-01	-18.6893	-38.321211	0.000144	1.436940	0.486849	0.011717
1534	7.6650e-01	-18.6508	-38.265620	0.000136	1.363520	0.461973	0.011118
1535	7.6700e-01	-18.5722	-38.210884	0.000134	1.342543	0.454866	0.010947
1536	7.6750e-01	-18.5369	-38.162562	0.000119	1.185214	0.401561	0.009664
1537	7.6800e-01	-18.5112	-38.100557	0.000152	1.520849	0.515278	0.012401
1538	7.6850e-01	-18.4615	-38.043683	0.000139	1.394986	0.472634	0.011375
1539	7.6900e-01	-18.4166	-37.993650	0.000123	1.227168	0.415776	0.010006
1540	7.6950e-01	-18.4086	-37.909408	0.000207	2.066257	0.700067	0.016848
1541	7.7000e-01	-18.3637	-37.853389	0.000137	1.374009	0.465527	0.011204
1542	7.7050e-01	-18.3171	-37.807633	0.000112	1.122282	0.380239	0.009151
1543	7.7100e-01	-18.2738	-37.723819	0.000206	2.055769	0.696513	0.016763
1544	7.7150e-01	-18.2273	-37.680201	0.000107	1.069839	0.362471	0.008724
1545	7.7200e-01	-18.1904	-37.634445	0.000112	1.122282	0.380239	0.009151
1546	7.7250e-01	-18.1776	-37.555762	0.000193	1.929905	0.653870	0.015737
1547	7.7300e-01	-18.1150	-37.523690	0.000079	0.786646	0.266523	0.006414
1548	7.7350e-01	-18.0733	-37.452704	0.000174	1.741110	0.589904	0.014197
1549	7.7400e-01	-18.0556	-37.389416	0.000155	1.552315	0.525939	0.012658
1550	7.7450e-01	-17.9931	-37.332969	0.000138	1.384497	0.469080	0.011289
1551	7.7500e-01	-17.9642	-37.244451	0.000217	2.171144	0.735603	0.017704
1552	7.7550e-01	-17.9129	-37.210241	0.000084	0.839089	0.284291	0.006842
1553	7.7600e-01	-17.8471	-37.133696	0.000188	1.877462	0.636101	0.015309
1554	7.7650e-01	-17.8535	-37.081526	-0.000128	-1.279611	-0.433544	0.010434
1555	7.7700e-01	-17.7781	-37.029355	0.000128	1.279611	0.433544	0.010434
1556	7.7750e-01	-17.7556	-36.970343	0.000145	1.447429	0.490402	0.011802
1557	7.7800e-01	-17.7268	-36.904061	0.000163	1.625736	0.550814	0.013256
1558	7.7850e-01	-17.6867	-36.844194	0.000147	1.468406	0.497510	0.011974
1559	7.7900e-01	-17.6289	-36.773208	0.000174	1.741110	0.589904	0.014197
1560	7.7950e-01	-17.5808	-36.720182	0.000130	1.300588	0.440651	0.010605
1561	7.8000e-01	-17.5311	-36.675709	0.000109	1.090816	0.369578	0.008895
1562	7.8050e-01	-17.5038	-36.605151	0.000173	1.730622	0.586350	0.014112
1563	7.8100e-01	-17.4717	-36.546566	0.000144	1.436940	0.486849	0.011717
1564	7.8150e-01	-17.4444	-36.481995	0.000158	1.583781	0.536600	0.012914
1565	7.8200e-01	-17.3915	-36.414430	0.000166	1.657201	0.561475	0.013513
1566	7.8250e-01	-17.3690	-36.349004	0.000160	1.604758	0.543707	0.013085
1567	7.8300e-01	-17.3209	-36.296406	0.000129	1.290100	0.437098	0.010520
1568	7.8350e-01	-17.2936	-36.234400	0.000152	1.520849	0.515278	0.012401
1569	7.8400e-01	-17.2439	-36.173677	0.000149	1.489383	0.504617	0.012145
1570	7.8450e-01	-17.2070	-36.100981	0.000178	1.783065	0.604119	0.014539
1571	7.8500e-01	-17.1861	-36.059929	0.000101	1.006907	0.341149	0.008210
1572	7.8550e-01	-17.1412	-35.987660	0.000177	1.772576	0.600565	0.014454
1573	7.8600e-01	-17.0771	-35.944898	0.000105	1.048862	0.355364	0.008553
1574	7.8650e-01	-17.0241	-35.855524	0.000219	2.192121	0.742711	0.017875
1575	7.8700e-01	-16.9968	-35.808485	0.000115	1.153748	0.390900	0.009408
1576	7.8750e-01	-16.9407	-35.747762	0.000149	1.489383	0.504617	0.012145
1577	7.8800e-01	-16.9198	-35.688323	0.000146	1.457918	0.493956	0.011888
1578	7.8850e-01	-16.8717	-35.626745	0.000151	1.510361	0.511724	0.012316
1579	7.8900e-01	-16.8075	-35.565166	0.000151	1.510361	0.511724	0.012316
1580	7.8950e-01	-16.8027	-35.493325	0.000176	1.762088	0.597011	0.014368
1581	7.9000e-01	-16.7578	-35.436451	0.000139	1.394986	0.472634	0.011375
1582	7.9050e-01	-16.7193	-35.361189	0.000185	1.845996	0.625441	0.015052
1583	7.9100e-01	-16.6407	-35.337670	0.000058	0.576874	0.195450	0.004704
1584	7.9150e-01	-16.6118	-35.235040	0.000252	2.517268	0.852873	0.020526
1585	7.9200e-01	-16.5958	-35.169613	0.000160	1.604758	0.543707	0.013085
1586	7.9250e-01	-16.5509	-35.120864	0.000120	1.195702	0.405115	0.009750
1587	7.9300e-01	-16.5076	-35.055437	0.000160	1.604758	0.543707	0.013085
1588	7.9350e-01	-16.4691	-35.013102	0.000104	1.038373	0.351810	0.008467
1589	7.9400e-01	-16.4386	-34.937840	0.000185	1.845996	0.625441	0.015052
1590	7.9450e-01	-16.4161	-34.845473	0.000227	2.265541	0.767586	0.018473
1591	7.9500e-01	-16.3471	-34.810835	0.000085	0.849578	0.287845	0.006928
1592	7.9550e-01	-16.3263	-34.744981	0.000162	1.615247	0.547260	0.013171
1593	7.9600e-01	-16.2669	-34.696232	0.000120	1.195702	0.405115	0.009750
1594	7.9650e-01	-16.2300	-34.622253	0.000181	1.814531	0.614780	0.014796
1595	7.9700e-01	-16.1819	-34.564951	0.000141	1.405475	0.476188	0.011460
1596	7.9750e-01	-16.1514	-34.486268	0.000193	1.929905	0.653870	0.015737
1597	7.9800e-01	-16.1434	-34.416993	0.000170	1.699156	0.575690	0.013855
1598	7.9850e-01	-16.1113	-34.335744	0.000199	1.992837	0.675191	0.016250
1599	7.9900e-01	-16.0423	-34.311797	0.000059	0.587363	0.199004	0.004789
1600	7.9950e-01	-16.0151	-34.228410	0.000205	2.045280	0.692960	0.016677
1601	8.0000e-01	-15.9942	-34.168542	0.000147	1.468406	0.497510	0.011974
1602	8.0050e-01	-15.9220	-34.108247	0.000148	1.478895	0.501063	0.012059
1603	8.0100e-01	-15.9124	-34.020156	0.000216	2.160655	0.732050	0.017618
1604	8.0150e-01	-15.8466	-33.970979	0.000121	1.206191	0.408669	0.009835
1605	8.0200e-01	-15.7889	-33.913250	0.000142	1.415963	0.479741	0.011546
1606	8.0250e-01	-15.7664	-33.867067	0.000113	1.132771	0.383793	0.009237
1607	8.0300e-01	-15.7327	-33.806344	0.000149	1.489383	0.504617	0.012145
1608	8.0350e-01	-15.6750	-33.721674	0.000208	2.076746	0.703621	0.016934
1609	8.0400e-01	-15.6300	-33.659668	0.000152	1.520849	0.515278	0.012401
1610	8.0450e-01	-15.5851	-33.603649	0.000137	1.374009	0.465527	0.011204
1611	8.0500e-01	-15.5803	-33.543782	0.000147	1.468406	0.497510	0.011974
1612	8.0550e-01	-15.5226	-33.471941	0.000176	1.762088	0.597011	0.014368
1613	8.0600e-01	-15.4905	-33.403948	0.000167	1.667690	0.565029	0.013598
1614	8.0650e-01	-15.4135	-33.353916	0.000123	1.227168	0.415776	0.010006
1615	8.0700e-01	-15.4183	-33.267963	-0.000211	-2.108212	-0.714282	0.017191
1616	8.0750e-01	-15.3637	-33.194840	0.000179	1.793553	0.607672	0.014625
1617	8.0800e-01	-15.2996	-33.150367	0.000109	1.090816	0.369578	0.008895
1618	8.0850e-01	-15.2899	-33.085368	0.000159	1.594270	0.540153	0.013000
1619	8.0900e-01	-15.2354	-33.007112	0.000192	1.919417	0.650316	0.015651
1620	8.0950e-01	-15.1857	-32.965632	0.000102	1.017396	0.344703	0.008296
1621	8.1000e-01	-15.1424	-32.898495	0.000165	1.646713	0.557921	0.013427
1622	8.1050e-01	-15.0894	-32.833924	0.000158	1.583781	0.536600	0.012914
1623	8.1100e-01	-15.0814	-32.762510	0.000175	1.751599	0.593458	0.014283
1624	8.1150e-01	-15.0365	-32.706064	0.000138	1.384497	0.469080	0.011289
1625	8.1200e-01	-14.9980	-32.643631	0.000153	1.531338	0.518831	0.012487
1626	8.1250e-01	-14.9386	-32.552546	0.000223	2.234075	0.756925	0.018217
1627	8.1300e-01	-14.9194	-32.511494	0.000101	1.006907	0.341149	0.008210
1628	8.1350e-01	-14.8664	-32.431528	0.000196	1.961371	0.664531	0.015993
1629	8.1400e-01	-14.8183	-32.358405	0.000179	1.793553	0.607672	0.014625
1630	8.1450e-01	-14.7638	-32.317780	0.000100	0.996419	0.337596	0.008125
1631	8.1500e-01	-14.7445	-32.252781	0.000159	1.594270	0.540153	0.013000
1632	8.1550e-01	-14.7253	-32.165118	0.000215	2.150166	0.728496	0.017533
1633	8.1600e-01	-14.6787	-32.086435	0.000193	1.929905	0.653870	0.015737
1634	8.1650e-01	-14.6258	-32.031699	0.000134	1.342543	0.454866	0.010947
1635	8.1700e-01	-14.6097	-31.970548	0.000150	1.499872	0.508170	0.012230
1636	8.1750e-01	-14.5664	-31.914102	0.000138	1.384497	0.469080	0.011289
1637	8.1800e-01	-14.5247	-31.839695	0.000183	1.825019	0.618333	0.014881
1638	8.1850e-01	-14.4782	-31.765716	0.000181	1.814531	0.614780	0.014796
1639	8.1900e-01	-14.4461	-31.705421	0.000148	1.478895	0.501063	0.012059
1640	8.1950e-01	-14.4044	-31.632297	0.000179	1.793553	0.607672	0.014625
1641	8.2000e-01	-14.3450	-31.581837	0.000124	1.237657	0.419329	0.010092
1642	8.2050e-01	-14.3210	-31.503154	0.000193	1.929905	0.653870	0.015737
1643	8.2100e-01	-14.2488	-31.436444	0.000164	1.636224	0.554368	0.013342
1644	8.2150e-01	-14.2408	-31.386412	0.000123	1.227168	0.415776	0.010006
1645	8.2200e-01	-14.2311	-31.308584	0.000191	1.908928	0.646762	0.015566
1646	8.2250e-01	-14.1541	-31.243158	0.000160	1.604758	0.543707	0.013085
1647	8.2300e-01	-14.1076	-31.193981	0.000121	1.206191	0.408669	0.009835
1648	8.2350e-01	-14.0418	-31.113160	0.000198	1.982348	0.671638	0.016164
1649	8.2400e-01	-14.0274	-31.049871	0.000155	1.552315	0.525939	0.012658
1650	8.2450e-01	-14.0130	-30.963919	0.000211	2.108212	0.714282	0.017191
1651	8.2500e-01	-13.9713	-30.928853	0.000086	0.860067	0.291398	0.007013
1652	8.2550e-01	-13.9119	-30.824085	0.000257	2.569711	0.870642	0.020954
1653	8.2600e-01	-13.8814	-30.789020	0.000086	0.860067	0.291398	0.007013
1654	8.2650e-01	-13.8221	-30.709481	0.000195	1.950883	0.660977	0.015908
1655	8.2700e-01	-13.8221	-30.639351	-0.000172	-1.720133	-0.582797	0.014026
1656	8.2750e-01	-13.7659	-30.584615	0.000134	1.342543	0.454866	0.010947
1657	8.2800e-01	-13.7322	-30.514484	0.000172	1.720133	0.582797	0.014026
1658	8.2850e-01	-13.6809	-30.441788	0.000178	1.783065	0.604119	0.014539
1659	8.2900e-01	-13.6488	-30.383631	0.000143	1.426452	0.483295	0.011631
1660	8.2950e-01	-13.5943	-30.295540	0.000216	2.160655	0.732050	0.017618
1661	8.3000e-01	-13.5445	-30.248074	0.000116	1.164236	0.394454	0.009493
1662	8.3050e-01	-13.5301	-30.175378	0.000178	1.783065	0.604119	0.014539
1663	8.3100e-01	-13.4788	-30.120214	0.000135	1.353031	0.458419	0.011033
1664	8.3150e-01	-13.4322	-30.028274	0.000226	2.255052	0.764032	0.018388
1665	8.3200e-01	-13.3937	-29.983374	0.000110	1.101305	0.373132	0.008980
1666	8.3250e-01	-13.3809	-29.901270	0.000201	2.013814	0.682299	0.016421
1667	8.3300e-01	-13.3312	-29.818310	0.000203	2.034792	0.689406	0.016592
1668	8.3350e-01	-13.2526	-29.790515	0.000068	0.681760	0.230987	0.005559
1669	8.3400e-01	-13.2478	-29.692161	0.000241	2.412382	0.817337	0.019671
1670	8.3450e-01	-13.1964	-29.623313	0.000169	1.688667	0.572136	0.013770
1671	8.3500e-01	-13.1387	-29.566439	0.000139	1.394986	0.472634	0.011375
1672	8.3550e-01	-13.1515	-29.469796	-0.000237	-2.370427	-0.803122	0.019329
1673	8.3600e-01	-13.0665	-29.420619	0.000121	1.206191	0.408669	0.009835
1674	8.3650e-01	-13.0424	-29.358186	0.000153	1.531338	0.518831	0.012487
1675	8.3700e-01	-12.9927	-29.292759	0.000160	1.604758	0.543707	0.013085
1676	8.3750e-01	-12.9847	-29.214504	0.000192	1.919417	0.650316	0.015651
1677	8.3800e-01	-12.8948	-29.158057	0.000138	1.384497	0.469080	0.011289
1678	8.3850e-01	-12.8772	-29.078519	0.000195	1.950883	0.660977	0.015908
1679	8.3900e-01	-12.8627	-28.978882	0.000244	2.443848	0.827998	0.019927
1680	8.3950e-01	-12.8098	-28.938258	0.000100	0.996419	0.337596	0.008125
1681	8.4000e-01	-12.7312	-28.907896	0.000074	0.744692	0.252308	0.006072
1682	8.4050e-01	-12.6927	-28.835628	0.000177	1.772576	0.600565	0.014454
1683	8.4100e-01	-12.6831	-28.738557	0.000238	2.380916	0.806676	0.019414
1684	8.4150e-01	-12.6494	-28.690663	0.000117	1.174725	0.398008	0.009579
1685	8.4200e-01	-12.5531	-28.613262	0.000190	1.898440	0.643209	0.015480
1686	8.4250e-01	-12.5724	-28.542704	-0.000173	-1.730622	-0.586350	0.014112
1687	8.4300e-01	-12.5018	-28.469580	0.000179	1.793553	0.607672	0.014625
1688	8.4350e-01	-12.4906	-28.381489	0.000216	2.160655	0.732050	0.017618
1689	8.4400e-01	-12.4312	-28.313497	0.000167	1.667690	0.565029	0.013598
1690	8.4450e-01	-12.3911	-28.269024	0.000109	1.090816	0.369578	0.008895
1691	8.4500e-01	-12.3654	-28.164256	0.000257	2.569711	0.870642	0.020954
1692	8.4550e-01	-12.3045	-28.123204	0.000101	1.006907	0.341149	0.008210
1693	8.4600e-01	-12.2804	-28.035541	0.000215	2.150166	0.728496	0.017533
1694	8.4650e-01	-12.1938	-27.998765	0.000090	0.902021	0.305613	0.007355
1695	8.4700e-01	-12.2066	-27.920509	-0.000192	-1.919417	-0.650316	0.015651
1696	8.4750e-01	-12.1777	-27.849524	0.000174	1.741110	0.589904	0.014197
1697	8.4800e-01	-12.1023	-27.777255	0.000177	1.772576	0.600565	0.014454
1698	8.4850e-01	-12.0783	-27.697717	0.000195	1.950883	0.660977	0.015908
1699	8.4900e-01	-12.0366	-27.643408	0.000133	1.332054	0.451312	0.010862
1700	8.4950e-01	-12.0205	-27.549758	0.000230	2.297007	0.778247	0.018730
1701	8.5000e-01	-11.9483	-27.500581	0.000121	1.206191	0.408669	0.009835
1702	8.5050e-01	-11.9307	-27.420188	0.000197	1.971860	0.668084	0.016079
1703	8.5100e-01	-11.8617	-27.352623	0.000166	1.657201	0.561475	0.013513
1704	8.5150e-01	-11.8360	-27.285486	0.000165	1.646713	0.557921	0.013427
1705	8.5200e-01	-11.8392	-27.197395	-0.000216	-2.160655	-0.732050	0.017618
1706	8.5250e-01	-11.7574	-27.150784	0.000114	1.143259	0.387347	0.009322
1707	8.5300e-01	-11.7061	-27.055851	0.000233	2.328473	0.788908	0.018987
1708	8.5350e-01	-11.6804	-26.981017	0.000184	1.835508	0.621887	0.014967
1709	8.5400e-01	-11.6676	-26.913452	0.000166	1.657201	0.561475	0.013513
1710	8.5450e-01	-11.5826	-26.850591	0.000154	1.541827	0.522385	0.012572
1711	8.5500e-01	-11.5729	-26.788158	0.000153	1.531338	0.518831	0.012487
1712	8.5550e-01	-11.5312	-26.712468	0.000186	1.856485	0.628994	0.015138
1713	8.5600e-01	-11.4558	-26.637206	0.000185	1.845996	0.625441	0.015052
1714	8.5650e-01	-11.4446	-26.557240	0.000196	1.961371	0.664531	0.015993
1715	8.5700e-01	-11.4077	-26.481550	0.000186	1.856485	0.628994	0.015138
1716	8.5750e-01	-11.3403	-26.427670	0.000132	1.321566	0.447759	0.010776
1717	8.5800e-01	-11.3163	-26.360105	0.000166	1.657201	0.561475	0.013513
1718	8.5850e-01	-11.2842	-26.293395	0.000164	1.636224	0.554368	0.013342
1719	8.5900e-01	-11.2633	-26.192476	0.000248	2.475313	0.838659	0.020184
1720	8.5950e-01	-11.2072	-26.149713	0.000105	1.048862	0.355364	0.008553
1721	8.6000e-01	-11.1863	-26.055636	0.000231	2.307496	0.781801	0.018816
1722	8.6050e-01	-11.1382	-25.986788	0.000169	1.688667	0.572136	0.013770
1723	8.6100e-01	-11.0484	-25.942743	0.000108	1.080327	0.366025	0.008809
1724	8.6150e-01	-11.0612	-25.837974	-0.000257	-2.569711	-0.870642	0.020954
1725	8.6200e-01	-10.9954	-25.777679	0.000148	1.478895	0.501063	0.012059
1726	8.6250e-01	-10.9473	-25.729785	0.000117	1.174725	0.398008	0.009579
1727	8.6300e-01	-10.9200	-25.628866	0.000248	2.475313	0.838659	0.020184
1728	8.6350e-01	-10.8687	-25.547189	0.000200	2.003326	0.678745	0.016335
1729	8.6400e-01	-10.8173	-25.504854	0.000104	1.038373	0.351810	0.008467
1730	8.6450e-01	-10.8206	-25.406073	-0.000242	-2.422870	-0.820891	0.019756
1731	8.6500e-01	-10.8013	-25.349626	0.000138	1.384497	0.469080	0.011289
1732	8.6550e-01	-10.7179	-25.270516	0.000194	1.940394	0.657423	0.015822
1733	8.6600e-01	-10.6890	-25.201668	0.000169	1.688667	0.572136	0.013770
1734	8.6650e-01	-10.6505	-25.112294	0.000219	2.192121	0.742711	0.017875
1735	8.6700e-01	-10.5879	-25.063117	0.000121	1.206191	0.408669	0.009835
1736	8.6750e-01	-10.5783	-24.978448	0.000208	2.076746	0.703621	0.016934
1737	8.6800e-01	-10.5366	-24.905751	0.000178	1.783065	0.604119	0.014539
1738	8.6850e-01	-10.4564	-24.830489	0.000185	1.845996	0.625441	0.015052
1739	8.6900e-01	-10.4291	-24.774043	0.000138	1.384497	0.469080	0.011289
1740	8.6950e-01	-10.4099	-24.693221	0.000198	1.982348	0.671638	0.016164
1741	8.7000e-01	-10.3682	-24.599999	0.000229	2.286518	0.774693	0.018644
1742	8.7050e-01	-10.3088	-24.541415	0.000144	1.436940	0.486849	0.011717
1743	8.7100e-01	-10.2912	-24.481975	0.000146	1.457918	0.493956	0.011888
1744	8.7150e-01	-10.2366	-24.410561	0.000175	1.751599	0.593458	0.014283
1745	8.7200e-01	-10.1901	-24.336582	0.000181	1.814531	0.614780	0.014796
1746	8.7250e-01	-10.1676	-24.256616	0.000196	1.961371	0.664531	0.015993
1747	8.7300e-01	-10.1163	-24.186913	0.000171	1.709644	0.579243	0.013941
1748	8.7350e-01	-10.1002	-24.092408	0.000232	2.317984	0.785354	0.018901
1749	8.7400e-01	-10.0425	-24.029119	0.000155	1.552315	0.525939	0.012658
1750	8.7450e-01	-10.0008	-23.935042	0.000231	2.307496	0.781801	0.018816
1751	8.7500e-01	-9.9446	-23.867477	0.000166	1.657201	0.561475	0.013513
1752	8.7550e-01	-9.9110	-23.803761	0.000156	1.562804	0.529492	0.012743
1753	8.7600e-01	-9.8660	-23.752874	0.000125	1.248145	0.422883	0.010177
1754	8.7650e-01	-9.8307	-23.673335	0.000195	1.950883	0.660977	0.015908
1755	8.7700e-01	-9.8003	-23.581396	0.000226	2.255052	0.764032	0.018388
1756	8.7750e-01	-9.7345	-23.504851	0.000188	1.877462	0.636101	0.015309
1757	8.7800e-01	-9.7249	-23.438997	0.000162	1.615247	0.547260	0.013171
1758	8.7850e-01	-9.6639	-23.368866	0.000172	1.720133	0.582797	0.014026
1759	8.7900e-01	-9.6350	-23.301301	0.000166	1.657201	0.561475	0.013513
1760	8.7950e-01	-9.6366	-23.195678	-0.000259	-2.590688	-0.877749	0.021125
1761	8.8000e-01	-9.5676	-23.128113	0.000166	1.657201	0.561475	0.013513
1762	8.8050e-01	-9.5115	-23.055417	0.000178	1.783065	0.604119	0.014539
1763	8.8100e-01	-9.4746	-22.998970	0.000138	1.384497	0.469080	0.011289
1764	8.8150e-01	-9.4329	-22.918149	0.000198	1.982348	0.671638	0.016164
1765	8.8200e-01	-9.3928	-22.830058	0.000216	2.160655	0.732050	0.017618
1766	8.8250e-01	-9.3270	-22.780881	0.000121	1.206191	0.408669	0.009835
1767	8.8300e-01	-9.3126	-22.684666	0.000236	2.359939	0.799569	0.019243
1768	8.8350e-01	-9.2548	-22.607265	0.000190	1.898440	0.643209	0.015480
1769	8.8400e-01	-9.2420	-22.530720	0.000188	1.877462	0.636101	0.015309
1770	8.8450e-01	-9.1939	-22.463583	0.000165	1.646713	0.557921	0.013427
1771	8.8500e-01	-9.1505	-22.372071	0.000224	2.244564	0.760479	0.018302
1772	8.8550e-01	-9.1249	-22.325460	0.000114	1.143259	0.387347	0.009322
1773	8.8600e-01	-9.0751	-22.253192	0.000177	1.772576	0.600565	0.014454
1774	8.8650e-01	-9.0463	-22.156121	0.000238	2.380916	0.806676	0.019414
1775	8.8700e-01	-9.0046	-22.080859	0.000185	1.845996	0.625441	0.015052
1776	8.8750e-01	-8.9725	-22.014149	0.000164	1.636224	0.554368	0.013342
1777	8.8800e-01	-8.9083	-21.941025	0.000179	1.793553	0.607672	0.014625
1778	8.8850e-01	-8.8538	-21.859349	0.000200	2.003326	0.678745	0.016335
1779	8.8900e-01	-8.8377	-21.795205	0.000157	1.573292	0.533046	0.012829
1780	8.8950e-01	-8.7896	-21.710963	0.000207	2.066257	0.700067	0.016848
1781	8.9000e-01	-8.7752	-21.612181	0.000242	2.422870	0.820891	0.019756
1782	8.9050e-01	-8.7415	-21.551886	0.000148	1.478895	0.501063	0.012059
1783	8.9100e-01	-8.6805	-21.472348	0.000195	1.950883	0.660977	0.015908
1784	8.9150e-01	-8.6452	-21.396231	0.000187	1.866974	0.632548	0.015223
1785	8.9200e-01	-8.5746	-21.327383	0.000169	1.688667	0.572136	0.013770
1786	8.9250e-01	-8.5297	-21.267515	0.000147	1.468406	0.497510	0.011974
1787	8.9300e-01	-8.5313	-21.187977	-0.000195	-1.950883	-0.660977	0.015908
1788	8.9350e-01	-8.4800	-21.094327	0.000230	2.297007	0.778247	0.018730
1789	8.9400e-01	-8.4335	-21.019493	0.000184	1.835508	0.621887	0.014967
1790	8.9450e-01	-8.3982	-20.940810	0.000193	1.929905	0.653870	0.015737
1791	8.9500e-01	-8.3532	-20.856140	0.000208	2.076746	0.703621	0.016934
1792	8.9550e-01	-8.3276	-20.801831	0.000133	1.332054	0.451312	0.010862
1793	8.9600e-01	-8.3115	-20.697491	0.000256	2.559222	0.867088	0.020868
1794	8.9650e-01	-8.2297	-20.626933	0.000173	1.730622	0.586350	0.014112
1795	8.9700e-01	-8.2185	-20.527724	0.000243	2.433359	0.824444	0.019842
1796	8.9750e-01	-8.1864	-20.472560	0.000135	1.353031	0.458419	0.011033
1797	8.9800e-01	-8.1062	-20.394305	0.000192	1.919417	0.650316	0.015651
1798	8.9850e-01	-8.0901	-20.296806	0.000239	2.391404	0.810230	0.019500
1799	8.9900e-01	-8.0516	-20.240360	0.000138	1.384497	0.469080	0.011289
1800	8.9950e-01	-7.9987	-20.144999	0.000234	2.338961	0.792462	0.019072
1801	9.0000e-01	-7.9345	-20.100098	0.000110	1.101305	0.373132	0.008980
1802	9.0050e-01	-7.9169	-20.005593	0.000232	2.317984	0.785354	0.018901
1803	9.0100e-01	-7.8784	-19.925200	0.000197	1.971860	0.668084	0.016079
1804	9.0150e-01	-7.8383	-19.851221	0.000181	1.814531	0.614780	0.014796
1805	9.0200e-01	-7.7789	-19.779379	0.000176	1.762088	0.597011	0.014368
1806	9.0250e-01	-7.7420	-19.701124	0.000192	1.919417	0.650316	0.015651
1807	9.0300e-01	-7.7212	-19.622869	0.000192	1.919417	0.650316	0.015651
1808	9.0350e-01	-7.7115	-19.518100	0.000257	2.569711	0.870642	0.020954
1809	9.0400e-01	-7.6426	-19.432148	0.000211	2.108212	0.714282	0.017191
1810	9.0450e-01	-7.5864	-19.367149	0.000159	1.594270	0.540153	0.013000
1811	9.0500e-01	-7.5415	-19.299156	0.000167	1.667690	0.565029	0.013598
1812	9.0550e-01	-7.5094	-19.219190	0.000196	1.961371	0.664531	0.015993
1813	9.0600e-01	-7.4773	-19.162744	0.000138	1.384497	0.469080	0.011289
1814	9.0650e-01	-7.4260	-19.067811	0.000233	2.328473	0.788908	0.018987
1815	9.0700e-01	-7.3939	-18.986562	0.000199	1.992837	0.675191	0.016250
1816	9.0750e-01	-7.3634	-18.913438	0.000179	1.793553	0.607672	0.014625
1817	9.0800e-01	-7.3201	-18.805677	0.000264	2.643131	0.895517	0.021552
1818	9.0850e-01	-7.2463	-18.743243	0.000153	1.531338	0.518831	0.012487
1819	9.0900e-01	-7.2030	-18.680382	0.000154	1.541827	0.522385	0.012572
1820	9.0950e-01	-7.1741	-18.589726	0.000222	2.223587	0.753372	0.018131
1821	9.1000e-01	-7.1725	-18.499925	0.000220	2.202609	0.746264	0.017960
1822	9.1050e-01	-7.1019	-18.416965	0.000203	2.034792	0.689406	0.016592
1823	9.1100e-01	-7.0843	-18.315191	0.000250	2.496291	0.845766	0.020355
1824	9.1150e-01	-7.0249	-18.252330	0.000154	1.541827	0.522385	0.012572
1825	9.1200e-01	-6.9945	-18.185192	0.000165	1.646713	0.557921	0.013427
1826	9.1250e-01	-6.9495	-18.134733	0.000124	1.237657	0.419329	0.010092
1827	9.1300e-01	-6.9158	-18.026543	0.000265	2.653620	0.899071	0.021638
1828	9.1350e-01	-6.8693	-17.957268	0.000170	1.699156	0.575690	0.013855
1829	9.1400e-01	-6.8372	-17.865329	0.000226	2.255052	0.764032	0.018388
1830	9.1450e-01	-6.8003	-17.757567	0.000264	2.643131	0.895517	0.021552
1831	9.1500e-01	-6.7426	-17.719081	0.000094	0.943975	0.319828	0.007697
1832	9.1550e-01	-6.7041	-17.623720	0.000234	2.338961	0.792462	0.019072
1833	9.1600e-01	-6.6752	-17.536485	0.000214	2.139678	0.724942	0.017447
1834	9.1650e-01	-6.6367	-17.462933	0.000180	1.804042	0.611226	0.014710
1835	9.1700e-01	-6.5838	-17.389809	0.000179	1.793553	0.607672	0.014625
1836	9.1750e-01	-6.5581	-17.296587	0.000229	2.286518	0.774693	0.018644
1837	9.1800e-01	-6.4987	-17.219187	0.000190	1.898440	0.643209	0.015480
1838	9.1850e-01	-6.4939	-17.134517	0.000208	2.076746	0.703621	0.016934
1839	9.1900e-01	-6.4362	-17.043433	0.000223	2.234075	0.756925	0.018217
1840	9.1950e-01	-6.4217	-16.939520	0.000255	2.548734	0.863534	0.020783
1841	9.2000e-01	-6.3447	-16.902744	0.000090	0.902021	0.305613	0.007355
1842	9.2050e-01	-6.3351	-16.812515	0.000221	2.213098	0.749818	0.018046
1843	9.2100e-01	-6.2758	-16.744951	0.000166	1.657201	0.561475	0.013513
1844	9.2150e-01	-6.2164	-16.662419	0.000202	2.024303	0.685852	0.016506
1845	9.2200e-01	-6.1843	-16.576466	0.000211	2.108212	0.714282	0.017191
1846	9.2250e-01	-6.1811	-16.479823	0.000237	2.370427	0.803122	0.019329
1847	9.2300e-01	-6.1089	-16.412686	0.000165	1.646713	0.557921	0.013427
1848	9.2350e-01	-6.0608	-16.347259	0.000160	1.604758	0.543707	0.013085
1849	9.2400e-01	-6.0592	-16.224103	0.000302	3.020721	1.023448	0.024631
1850	9.2450e-01	-5.9950	-16.154400	0.000171	1.709644	0.579243	0.013941
1851	9.2500e-01	-5.9437	-16.093677	0.000149	1.489383	0.504617	0.012145
1852	9.2550e-01	-5.9148	-16.001738	0.000226	2.255052	0.764032	0.018388
1853	9.2600e-01	-5.8603	-15.916213	0.000210	2.097723	0.710728	0.017105
1854	9.2650e-01	-5.8298	-15.848220	0.000167	1.667690	0.565029	0.013598
1855	9.2700e-01	-5.8025	-15.737893	0.000271	2.706063	0.916839	0.022065
1856	9.2750e-01	-5.7640	-15.667335	0.000173	1.730622	0.586350	0.014112
1857	9.2800e-01	-5.7319	-15.581810	0.000210	2.097723	0.710728	0.017105
1858	9.2850e-01	-5.6966	-15.492436	0.000219	2.192121	0.742711	0.017875
1859	9.2900e-01	-5.6453	-15.426582	0.000162	1.615247	0.547260	0.013171
1860	9.2950e-01	-5.6116	-15.352603	0.000181	1.814531	0.614780	0.014796
1861	9.3000e-01	-5.5875	-15.235433	0.000287	2.873881	0.973697	0.023434
1862	9.3050e-01	-5.5218	-15.150336	0.000209	2.087235	0.707174	0.017019
1863	9.3100e-01	-5.4769	-15.081488	0.000169	1.688667	0.572136	0.013770
1864	9.3150e-01	-5.4464	-14.988266	0.000229	2.286518	0.774693	0.018644
1865	9.3200e-01	-5.3870	-14.921556	0.000164	1.636224	0.554368	0.013342
1866	9.3250e-01	-5.3758	-14.828334	0.000229	2.286518	0.774693	0.018644
1867	9.3300e-01	-5.3244	-14.732118	0.000236	2.359939	0.799569	0.019243
1868	9.3350e-01	-5.2683	-14.658994	0.000179	1.793553	0.607672	0.014625
1869	9.3400e-01	-5.2603	-14.582449	0.000188	1.877462	0.636101	0.015309
1870	9.3450e-01	-5.2057	-14.504194	0.000192	1.919417	0.650316	0.015651
1871	9.3500e-01	-5.1833	-14.390446	0.000279	2.789972	0.945268	0.022750
1872	9.3550e-01	-5.1223	-14.311763	0.000193	1.929905	0.653870	0.015737
1873	9.3600e-01	-5.0774	-14.238639	0.000179	1.793553	0.607672	0.014625
1874	9.3650e-01	-5.0132	-14.172357	0.000163	1.625736	0.550814	0.013256
1875	9.3700e-01	-4.9683	-14.101371	0.000174	1.741110	0.589904	0.014197
1876	9.3750e-01	-4.9635	-13.958544	0.000350	3.503198	1.186916	0.028565
1877	9.3800e-01	-4.9106	-13.883710	0.000184	1.835508	0.621887	0.014967
1878	9.3850e-01	-4.8721	-13.828974	0.000134	1.342543	0.454866	0.010947
1879	9.3900e-01	-4.8672	-13.718219	0.000272	2.716552	0.920393	0.022151
1880	9.3950e-01	-4.7886	-13.654075	0.000157	1.573292	0.533046	0.012829
1881	9.4000e-01	-4.7758	-13.549307	0.000257	2.569711	0.870642	0.020954
1882	9.4050e-01	-4.6988	-13.472762	0.000188	1.877462	0.636101	0.015309
1883	9.4100e-01	-4.6635	-13.398355	0.000183	1.825019	0.618333	0.014881
1884	9.4150e-01	-4.6587	-13.285890	0.000276	2.758506	0.934607	0.022493
1885	9.4200e-01	-4.5833	-13.214049	0.000176	1.762088	0.597011	0.014368
1886	9.4250e-01	-4.5592	-13.143490	0.000173	1.730622	0.586350	0.014112
1887	9.4300e-01	-4.5191	-13.031453	0.000275	2.748017	0.931054	0.022408
1888	9.4350e-01	-4.4694	-12.965171	0.000163	1.625736	0.550814	0.013256
1889	9.4400e-01	-4.4341	-12.870238	0.000233	2.328473	0.788908	0.018987
1890	9.4450e-01	-4.3796	-12.785568	0.000208	2.076746	0.703621	0.016934
1891	9.4500e-01	-4.3747	-12.696622	0.000218	2.181632	0.739157	0.017789
1892	9.4550e-01	-4.3234	-12.594847	0.000250	2.496291	0.845766	0.020355
1893	9.4600e-01	-4.2865	-12.524717	0.000172	1.720133	0.582797	0.014026
1894	9.4650e-01	-4.2560	-12.440047	0.000208	2.076746	0.703621	0.016934
1895	9.4700e-01	-4.2207	-12.349818	0.000221	2.213098	0.749818	0.018046
1896	9.4750e-01	-4.1694	-12.259161	0.000222	2.223587	0.753372	0.018131
1897	9.4800e-01	-4.1036	-12.205281	0.000132	1.321566	0.447759	0.010776
1898	9.4850e-01	-4.0796	-12.111203	0.000231	2.307496	0.781801	0.018816
1899	9.4900e-01	-4.0346	-11.997027	0.000280	2.800461	0.948822	0.022835
1900	9.4950e-01	-3.9945	-11.908081	0.000218	2.181632	0.739157	0.017789
1901	9.5000e-01	-3.9737	-11.826405	0.000200	2.003326	0.678745	0.016335
1902	9.5050e-01	-3.9207	-11.751998	0.000183	1.825019	0.618333	0.014881
1903	9.5100e-01	-3.8790	-11.652361	0.000244	2.443848	0.827998	0.019927
1904	9.5150e-01	-3.8534	-11.528777	0.000303	3.031210	1.027002	0.024717
1905	9.5200e-01	-3.7972	-11.475324	0.000131	1.311077	0.444205	0.010691
1906	9.5250e-01	-3.7699	-11.385523	0.000220	2.202609	0.746264	0.017960
1907	9.5300e-01	-3.7154	-11.282893	0.000252	2.517268	0.852873	0.020526
1908	9.5350e-01	-3.6512	-11.211052	0.000176	1.762088	0.597011	0.014368
1909	9.5400e-01	-3.6304	-11.138356	0.000178	1.783065	0.604119	0.014539
1910	9.5450e-01	-3.6095	-11.021614	0.000286	2.863392	0.970144	0.023348
1911	9.5500e-01	-3.5550	-10.937799	0.000206	2.055769	0.696513	0.016763
1912	9.5550e-01	-3.5036	-10.840301	0.000239	2.391404	0.810230	0.019500
1913	9.5600e-01	-3.4924	-10.729546	0.000272	2.716552	0.920393	0.022151
1914	9.5650e-01	-3.4138	-10.685928	0.000107	1.069839	0.362471	0.008724
1915	9.5700e-01	-3.3962	-10.592706	0.000229	2.286518	0.774693	0.018644
1916	9.5750e-01	-3.3721	-10.467411	0.000307	3.073165	1.041216	0.025059
1917	9.5800e-01	-3.3143	-10.388301	0.000194	1.940394	0.657423	0.015822
1918	9.5850e-01	-3.2630	-10.316460	0.000176	1.762088	0.597011	0.014368
1919	9.5900e-01	-3.2422	-10.219816	0.000237	2.370427	0.803122	0.019329
1920	9.5950e-01	-3.2101	-10.121035	0.000242	2.422870	0.820891	0.019756
1921	9.6000e-01	-3.1619	-10.013273	0.000264	2.643131	0.895517	0.021552
1922	9.6050e-01	-3.1154	-9.948702	0.000158	1.583781	0.536600	0.012914
1923	9.6100e-01	-3.0609	-9.879854	0.000169	1.688667	0.572136	0.013770
1924	9.6150e-01	-3.0224	-9.782356	0.000239	2.391404	0.810230	0.019500
1925	9.6200e-01	-2.9839	-9.674167	0.000265	2.653620	0.899071	0.021638
1926	9.6250e-01	-2.9309	-9.583082	0.000223	2.234075	0.756925	0.018217
1927	9.6300e-01	-2.9213	-9.496274	0.000213	2.129189	0.721389	0.017362
1928	9.6350e-01	-2.8876	-9.403480	0.000228	2.276030	0.771140	0.018559
1929	9.6400e-01	-2.8299	-9.306409	0.000238	2.380916	0.806676	0.019414
1930	9.6450e-01	-2.8106	-9.224732	0.000200	2.003326	0.678745	0.016335
1931	9.6500e-01	-2.7577	-9.123385	0.000249	2.485802	0.842213	0.020269
1932	9.6550e-01	-2.7272	-9.048551	0.000184	1.835508	0.621887	0.014967
1933	9.6600e-01	-2.6438	-8.952763	0.000235	2.349450	0.796015	0.019158
1934	9.6650e-01	-2.6358	-8.848422	0.000256	2.559222	0.867088	0.020868
1935	9.6700e-01	-2.5956	-8.741516	0.000262	2.622154	0.888410	0.021381
1936	9.6750e-01	-2.5796	-8.651715	0.000220	2.202609	0.746264	0.017960
1937	9.6800e-01	-2.5379	-8.586716	0.000159	1.594270	0.540153	0.013000
1938	9.6850e-01	-2.4737	-8.496059	0.000222	2.223587	0.753372	0.018131
1939	9.6900e-01	-2.4432	-8.396850	0.000243	2.433359	0.824444	0.019842
1940	9.6950e-01	-2.3759	-8.305338	0.000224	2.244564	0.760479	0.018302
1941	9.7000e-01	-2.3614	-8.183893	0.000298	2.978767	1.009234	0.024289
1942	9.7050e-01	-2.3181	-8.079124	0.000257	2.569711	0.870642	0.020954
1943	9.7100e-01	-2.2572	-8.009421	0.000171	1.709644	0.579243	0.013941
1944	9.7150e-01	-2.2170	-7.914916	0.000232	2.317984	0.785354	0.018901
1945	9.7200e-01	-2.2331	-7.805017	-0.000270	-2.695574	-0.913285	0.021980
1946	9.7250e-01	-2.1352	-7.727616	0.000190	1.898440	0.643209	0.015480
1947	9.7300e-01	-2.1320	-7.631828	0.000235	2.349450	0.796015	0.019158
1948	9.7350e-01	-2.0919	-7.548869	0.000203	2.034792	0.689406	0.016592
1949	9.7400e-01	-2.0342	-7.448377	0.000246	2.464825	0.835105	0.020098
1950	9.7450e-01	-1.9860	-7.352589	0.000235	2.349450	0.796015	0.019158
1951	9.7500e-01	-1.9620	-7.260222	0.000227	2.265541	0.767586	0.018473
1952	9.7550e-01	-1.9219	-7.172131	0.000216	2.160655	0.732050	0.017618
1953	9.7600e-01	-1.8834	-7.074633	0.000239	2.391404	0.810230	0.019500
1954	9.7650e-01	-1.8304	-6.962595	0.000275	2.748017	0.931054	0.022408
1955	9.7700e-01	-1.7919	-6.874932	0.000215	2.150166	0.728496	0.017533
1956	9.7750e-01	-1.7614	-6.766315	0.000266	2.664109	0.902624	0.021723
1957	9.7800e-01	-1.7021	-6.685066	0.000199	1.992837	0.675191	0.016250
1958	9.7850e-01	-1.6636	-6.583719	0.000249	2.485802	0.842213	0.020269
1959	9.7900e-01	-1.6572	-6.465694	0.000289	2.894858	0.980804	0.023605
1960	9.7950e-01	-1.5802	-6.400695	0.000159	1.594270	0.540153	0.013000
1961	9.8000e-01	-1.5673	-6.275829	0.000306	3.062676	1.037663	0.024973
1962	9.8050e-01	-1.5240	-6.179613	0.000236	2.359939	0.799569	0.019243
1963	9.8100e-01	-1.4839	-6.091522	0.000216	2.160655	0.732050	0.017618
1964	9.8150e-01	-1.4214	-5.994879	0.000237	2.370427	0.803122	0.019329
1965	9.8200e-01	-1.3812	-5.905933	0.000218	2.181632	0.739157	0.017789
1966	9.8250e-01	-1.3508	-5.808862	0.000238	2.380916	0.806676	0.019414
1967	9.8300e-01	-1.3091	-5.714784	0.000231	2.307496	0.781801	0.018816
1968	9.8350e-01	-1.2657	-5.625838	0.000218	2.181632	0.739157	0.017789
1969	9.8400e-01	-1.2337	-5.528767	0.000238	2.380916	0.806676	0.019414
1970	9.8450e-01	-1.2048	-5.426137	0.000252	2.517268	0.852873	0.020526
1971	9.8500e-01	-1.1615	-5.328211	0.000240	2.401893	0.813783	0.019585
1972	9.8550e-01	-1.1278	-5.216601	0.000274	2.737529	0.927500	0.022322
1973	9.8600e-01	-1.0989	-5.111833	0.000257	2.569711	0.870642	0.020954
1974	9.8650e-01	-1.0267	-5.014334	0.000239	2.391404	0.810230	0.019500
1975	9.8700e-01	-0.9898	-4.939072	0.000185	1.845996	0.625441	0.015052
1976	9.8750e-01	-0.9497	-4.844994	0.000231	2.307496	0.781801	0.018816
1977	9.8800e-01	-0.9032	-4.730391	0.000281	2.810949	0.952375	0.022921
1978	9.8850e-01	-0.8823	-4.633320	0.000238	2.380916	0.806676	0.019414
1979	9.8900e-01	-0.8358	-4.540098	0.000229	2.286518	0.774693	0.018644
1980	9.8950e-01	-0.8037	-4.429343	0.000272	2.716552	0.920393	0.022151
1981	9.9000e-01	-0.7508	-4.344245	0.000209	2.087235	0.707174	0.017019
1982	9.9050e-01	-0.7155	-4.245036	0.000243	2.433359	0.824444	0.019842
1983	9.9100e-01	-0.6770	-4.132998	0.000275	2.748017	0.931054	0.022408
1984	9.9150e-01	-0.6529	-4.042769	0.000221	2.213098	0.749818	0.018046
1985	9.9200e-01	-0.5695	-3.960238	0.000202	2.024303	0.685852	0.016506
1986	9.9250e-01	-0.5727	-3.830240	-0.000319	-3.188539	-1.080306	0.026000
1987	9.9300e-01	-0.5342	-3.722906	0.000263	2.632643	0.891963	0.021467
1988	9.9350e-01	-0.4877	-3.611723	0.000273	2.727040	0.923946	0.022237
1989	9.9400e-01	-0.4604	-3.534323	0.000190	1.898440	0.643209	0.015480
1990	9.9450e-01	-0.3610	-3.429555	0.000257	2.569711	0.870642	0.020954
1991	9.9500e-01	-0.3513	-3.342319	0.000214	2.139678	0.724942	0.017447
1992	9.9550e-01	-0.3176	-3.201203	0.000346	3.461243	1.172701	0.028223
1993	9.9600e-01	-0.2727	-3.118244	0.000203	2.034792	0.689406	0.016592
1994	9.9650e-01	-0.2310	-3.045120	0.000179	1.793553	0.607672	0.014625
1995	9.9700e-01	-0.2198	-2.922391	0.000301	3.010233	1.019894	0.024546
1996	9.9750e-01	-0.1572	-2.834300	0.000216	2.160655	0.732050	0.017618
1997	9.9800e-01	-0.1219	-2.717986	0.000285	2.852904	0.966590	0.023263
1998	9.9850e-01	-0.0834	-2.611935	0.000260	2.601177	0.881303	0.021210
1999	9.9900e-01	-0.0305	-2.533252	0.000193	1.929905	0.653870	0.015737
2000	9.9950e-01	0.0209	-2.435326	0.000240	2.401893	0.813783	0.019585
2001	1.0000e+00	0.0289	-2.283519	0.000240	2.401893	0.813783	0.030361

Center data before PMax,+/-Pr and +/-Vc Calc.

PMax (uC/cm2):	4.00e+01
Pr (uC/cm2):	3.33e-01
-Pr (uC/cm2):	-2.28e+00
PLoss (uC/cm2):	-1.35e+00
Vc:	4.74e-01
-Vc:	-1.62e-01
C (Max-Eff) (nF):	1.99e-01
K (Eff):	6.75e+02
Vert. (+/-Pr) Shift (uC/cm2):	-9.75e-01
Horiz. Shift (+/-Vc):	1.56e-01
Offset (uC/cm2):	9.37e-01

A (Loop Area - uC/cm2·Volts):	1.53e-02



Hysteresis Version: 5.48.1 - Radiant Technologies, Inc., 1999 - 9/12/24

