»»»»»»»»»»»»»»»»»»»»»»»»»»»»»»»»»»»» Hysteresis ««««««««««««««««««««««««««««««««««««
»»»  Executed Version:	5.48.1
»»»  Vision Version:	5.48.4 (R)
»»»  Vision Compiled:	9/18/24
»»»  Driver Version:	5.47.0
»»»  Windows Version:	Windows 8 or 8.1
»»»  Processor Information:	x86 (AMD or Intel) - 32 Processors
»»»  Tester Name:	PMF21124-494 (100V)
»»»  Tester S/N:	PMF21124-494
»»»  Internal Amp Type:	100V RevK 270k
»»»  Internal Amp S/N:	iAB2-596/K     
»»»  Execution Count:	1
»»»»»»»»»»»»»»»»»»»»»»»»»»»»»»»»»»»»»»»»»»««««««««««««««««««««««««««««««««««««««««««

Stored:	6/9/2025 - 15:27:24
Configured:	06/09/25 02:47:45 PM
Executed:	06/09/25 03:26:51 PM

»»»»»»»»»»»»»»»»»»»»»»»»»»»»»»»»»»» Sample Info ««««««««««««««««««««««««««««««««««««
Sample Name:	
Lot Name:	
Wafer Name:	
Die Row/Column:	0/0
Capacitor Number:	0
Sample Area (cm2):	1.00e-04
Sample Thickness (microns):	3.00e-01

Amplifier:	Internal

»»»»»»»»»»»»»»»»»»»»»»»»»»»»»»»»»»» Tester Info «««««««««««««««««««««««««««««««««««
Tester Name:	PMF21124-494 (100V)
Tester Serial Number:	PMF21124-494
Return Signal Amp. Level:	0.19 [Index: 3]

»»»»»»»»»»»»»»»»»»»»»»»»»»»»»»»» Hysteresis Info ««««««««««««««««««««««««««««««««««
Task Name:	Hyst-927
Volts:	20.00
Field:	666.67 (kV/cm)
DCBias:	0.00
DCField:	0.00 (kV/cm)
Hysteresis Period (ms):	2.00e+02
Preset:	Enabled
Preset Delay (ms):	1.00e+03
Profile:	Standard Bipolar

»»»»»»»»»»»»»»»»»»»»»»»»»»»»»»»»»»»»»» Data «««««««««««««««««««««««««««««««««««««««
Points:	2009

Valid Data

Point	Time (ms)	Drive Voltage	Measured Polarization (uC/cm2)	Capacitance (uF)	Normalized Capacitance (uF/cm2)	Dielectric Constant	Instantaneous Current (mA)
   1	0.0000e+00	-0.0032	-3.009685	0.000253	2.533205	0.858273	0.000101
   2	9.9500e-02	0.0160	-2.908756	0.000253	2.533205	0.858273	0.000101
   3	1.9900e-01	0.0610	-2.763419	0.000365	3.647815	1.235913	0.000146
   4	2.9850e-01	0.1123	-2.622120	0.000355	3.546487	1.201582	0.000142
   5	3.9800e-01	0.1540	-2.472746	0.000375	3.749143	1.270244	0.000150
   6	4.9750e-01	0.1861	-2.363743	0.000274	2.735861	0.926935	0.000110
   7	5.9700e-01	0.2230	-2.206295	0.000395	3.951800	1.338906	0.000158
   8	6.9650e-01	0.2679	-2.077106	0.000324	3.242502	1.098589	0.000130
   9	7.9600e-01	0.3000	-1.923695	0.000385	3.850471	1.304575	0.000154
  10	8.9550e-01	0.3449	-1.810655	0.000284	2.837189	0.961266	0.000114
  11	9.9500e-01	0.3866	-1.677430	0.000334	3.343830	1.132920	0.000134
  12	1.0945e+00	0.4187	-1.519982	0.000395	3.951800	1.338906	0.000158
  13	1.1940e+00	0.4652	-1.370608	0.000375	3.749143	1.270244	0.000150
  14	1.2935e+00	0.4957	-1.245456	0.000314	3.141174	1.064259	0.000126
  15	1.3930e+00	0.5454	-1.063785	0.000456	4.559769	1.544891	0.000183
  16	1.4925e+00	0.5888	-0.954783	0.000274	2.735861	0.926935	0.000110
  17	1.5920e+00	0.6240	-0.797334	0.000395	3.951800	1.338906	0.000158
  18	1.6915e+00	0.6674	-0.651997	0.000365	3.647815	1.235913	0.000146
  19	1.7910e+00	0.7027	-0.522809	0.000324	3.242502	1.098589	0.000130
  20	1.8905e+00	0.7460	-0.365361	0.000395	3.951800	1.338906	0.000158
  21	1.9900e+00	0.7829	-0.228098	0.000345	3.445159	1.167251	0.000138
  22	2.0895e+00	0.8150	-0.098910	0.000324	3.242502	1.098589	0.000130
  23	2.1890e+00	0.8695	0.106984	0.000517	5.167738	1.750877	0.000207
  24	2.2885e+00	0.9064	0.215987	0.000274	2.735861	0.926935	0.000110
  25	2.3880e+00	0.9417	0.361324	0.000365	3.647815	1.235913	0.000146
  26	2.4875e+00	0.9834	0.506661	0.000365	3.647815	1.235913	0.000146
  27	2.5870e+00	1.0171	0.623737	0.000294	2.938518	0.995597	0.000118
  28	2.6865e+00	1.0588	0.801371	0.000446	4.458441	1.510561	0.000179
  29	2.7860e+00	1.1037	0.954783	0.000385	3.850471	1.304575	0.000154
  30	2.8855e+00	1.1406	1.096082	0.000355	3.546487	1.201582	0.000142
  31	2.9850e+00	1.1855	1.265642	0.000426	4.255784	1.441899	0.000170
  32	3.0845e+00	1.2192	1.386756	0.000304	3.039846	1.029928	0.000122
  33	3.1840e+00	1.2561	1.528056	0.000355	3.546487	1.201582	0.000142
  34	3.2835e+00	1.3091	1.701653	0.000436	4.357112	1.476230	0.000174
  35	3.3830e+00	1.3411	1.814693	0.000284	2.837189	0.961266	0.000114
  36	3.4825e+00	1.3828	1.976178	0.000405	4.053128	1.373237	0.000162
  37	3.5820e+00	1.4149	2.157849	0.000456	4.559769	1.544891	0.000183
  38	3.6815e+00	1.4550	2.238592	0.000203	2.026564	0.686618	0.000081
  39	3.7810e+00	1.5048	2.460634	0.000557	5.573051	1.888201	0.000223
  40	3.8805e+00	1.5385	2.622120	0.000405	4.053128	1.373237	0.000162
  41	3.9800e+00	1.5818	2.682677	0.000152	1.519923	0.514964	0.000061
  42	4.0795e+00	1.6235	2.900682	0.000547	5.471722	1.853870	0.000219
  43	4.1790e+00	1.6588	3.017759	0.000294	2.938518	0.995597	0.000118
  44	4.2785e+00	1.7037	3.219616	0.000507	5.066410	1.716546	0.000203
  45	4.3780e+00	1.7390	3.324581	0.000263	2.634533	0.892604	0.000105
  46	4.4775e+00	1.7839	3.490104	0.000415	4.154456	1.407568	0.000166
  47	4.5770e+00	1.8240	3.627366	0.000345	3.445159	1.167251	0.000138
  48	4.6765e+00	1.8577	3.744443	0.000294	2.938518	0.995597	0.000118
  49	4.7760e+00	1.9026	3.966486	0.000557	5.573051	1.888201	0.000223
  50	4.8755e+00	1.9491	4.075489	0.000274	2.735861	0.926935	0.000110
  51	4.9750e+00	1.9828	4.216788	0.000355	3.546487	1.201582	0.000142
  52	5.0745e+00	2.0213	4.341939	0.000314	3.141174	1.064259	0.000126
  53	5.1740e+00	2.0614	4.543796	0.000507	5.066410	1.716546	0.000203
  54	5.2735e+00	2.0983	4.636650	0.000233	2.330548	0.789611	0.000093
  55	5.3730e+00	2.1368	4.810247	0.000436	4.357112	1.476230	0.000174
  56	5.4725e+00	2.1802	4.995955	0.000466	4.661097	1.579222	0.000187
  57	5.5720e+00	2.2203	5.113032	0.000294	2.938518	0.995597	0.000118
  58	5.6715e+00	2.2668	5.314889	0.000507	5.066410	1.716546	0.000203
  59	5.7710e+00	2.3069	5.448115	0.000334	3.343830	1.132920	0.000134
  60	5.8705e+00	2.3358	5.605563	0.000395	3.951800	1.338906	0.000158
  61	5.9700e+00	2.3791	5.771086	0.000415	4.154456	1.407568	0.000166
  62	6.0695e+00	2.4256	5.896237	0.000314	3.141174	1.064259	0.000126
  63	6.1690e+00	2.4609	6.053685	0.000395	3.951800	1.338906	0.000158
  64	6.2685e+00	2.5026	6.219208	0.000415	4.154456	1.407568	0.000166
  65	6.3680e+00	2.5395	6.352433	0.000334	3.343830	1.132920	0.000134
  66	6.4675e+00	2.5812	6.481621	0.000324	3.242502	1.098589	0.000130
  67	6.5670e+00	2.6149	6.667330	0.000466	4.661097	1.579222	0.000187
  68	6.6665e+00	2.6534	6.792481	0.000314	3.141174	1.064259	0.000126
  69	6.7660e+00	2.7031	6.962041	0.000426	4.255784	1.441899	0.000170
  70	6.8655e+00	2.7352	7.099303	0.000345	3.445159	1.167251	0.000138
  71	6.9650e+00	2.7753	7.244640	0.000365	3.647815	1.235913	0.000146
  72	7.0645e+00	2.8138	7.381903	0.000345	3.445159	1.167251	0.000138
  73	7.1640e+00	2.8587	7.543388	0.000405	4.053128	1.373237	0.000162
  74	7.2635e+00	2.9005	7.704874	0.000405	4.053128	1.373237	0.000162
  75	7.3630e+00	2.9374	7.838099	0.000334	3.343830	1.132920	0.000134
  76	7.4625e+00	2.9694	7.975362	0.000345	3.445159	1.167251	0.000138
  77	7.5620e+00	3.0079	8.148958	0.000436	4.357112	1.476230	0.000174
  78	7.6615e+00	3.0480	8.298333	0.000375	3.749143	1.270244	0.000150
  79	7.7610e+00	3.0881	8.475966	0.000446	4.458441	1.510561	0.000179
  80	7.8605e+00	3.1379	8.593043	0.000294	2.938518	0.995597	0.000118
  81	7.9600e+00	3.1764	8.754529	0.000405	4.053128	1.373237	0.000162
  82	8.0595e+00	3.2149	8.940237	0.000466	4.661097	1.579222	0.000187
  83	8.1590e+00	3.2518	9.045203	0.000263	2.634533	0.892604	0.000105
  84	8.2585e+00	3.2967	9.202651	0.000395	3.951800	1.338906	0.000158
  85	8.3580e+00	3.3464	9.352025	0.000375	3.749143	1.270244	0.000150
  86	8.4575e+00	3.3849	9.521585	0.000426	4.255784	1.441899	0.000170
  87	8.5570e+00	3.4138	9.634624	0.000284	2.837189	0.961266	0.000114
  88	8.6565e+00	3.4571	9.775924	0.000355	3.546487	1.201582	0.000142
  89	8.7560e+00	3.4988	9.921261	0.000365	3.647815	1.235913	0.000146
  90	8.8555e+00	3.5309	10.098895	0.000446	4.458441	1.510561	0.000179
  91	8.9550e+00	3.5790	10.215972	0.000294	2.938518	0.995597	0.000118
  92	9.0545e+00	3.6143	10.365346	0.000375	3.749143	1.270244	0.000150
  93	9.1540e+00	3.6528	10.494534	0.000324	3.242502	1.098589	0.000130
  94	9.2535e+00	3.6913	10.643908	0.000375	3.749143	1.270244	0.000150
  95	9.3530e+00	3.7266	10.821542	0.000446	4.458441	1.510561	0.000179
  96	9.4525e+00	3.7716	10.930545	0.000274	2.735861	0.926935	0.000110
  97	9.5520e+00	3.8181	11.108179	0.000446	4.458441	1.510561	0.000179
  98	9.6515e+00	3.8486	11.229293	0.000304	3.039846	1.029928	0.000122
  99	9.7510e+00	3.8887	11.366556	0.000345	3.445159	1.167251	0.000138
 100	9.8505e+00	3.9304	11.540153	0.000436	4.357112	1.476230	0.000174
 101	9.9500e+00	3.9737	11.685489	0.000365	3.647815	1.235913	0.000146
 102	1.0050e+01	4.0058	11.818715	0.000334	3.343830	1.132920	0.000134
 103	1.0149e+01	4.0507	11.972126	0.000385	3.850471	1.304575	0.000154
 104	1.0248e+01	4.0956	12.105352	0.000334	3.343830	1.132920	0.000134
 105	1.0348e+01	4.1309	12.238577	0.000334	3.343830	1.132920	0.000134
 106	1.0447e+01	4.1742	12.387951	0.000375	3.749143	1.270244	0.000150
 107	1.0547e+01	4.2063	12.517139	0.000324	3.242502	1.098589	0.000130
 108	1.0646e+01	4.2560	12.706885	0.000476	4.762425	1.613553	0.000191
 109	1.0746e+01	4.3009	12.811850	0.000263	2.634533	0.892604	0.000105
 110	1.0845e+01	4.3314	12.953150	0.000355	3.546487	1.201582	0.000142
 111	1.0945e+01	4.3747	13.094450	0.000355	3.546487	1.201582	0.000142
 112	1.1044e+01	4.4181	13.255935	0.000405	4.053128	1.373237	0.000162
 113	1.1144e+01	4.4453	13.389161	0.000334	3.343830	1.132920	0.000134
 114	1.1243e+01	4.4822	13.522386	0.000334	3.343830	1.132920	0.000134
 115	1.1343e+01	4.5304	13.671760	0.000375	3.749143	1.270244	0.000150
 116	1.1443e+01	4.5673	13.817097	0.000365	3.647815	1.235913	0.000146
 117	1.1542e+01	4.6122	13.962434	0.000365	3.647815	1.235913	0.000146
 118	1.1642e+01	4.6507	14.079511	0.000294	2.938518	0.995597	0.000118
 119	1.1741e+01	4.6924	14.236959	0.000395	3.951800	1.338906	0.000158
 120	1.1841e+01	4.7277	14.349999	0.000284	2.837189	0.961266	0.000114
 121	1.1940e+01	4.7726	14.495336	0.000365	3.647815	1.235913	0.000146
 122	1.2040e+01	4.8175	14.652784	0.000395	3.951800	1.338906	0.000158
 123	1.2139e+01	4.8448	14.790047	0.000345	3.445159	1.167251	0.000138
 124	1.2239e+01	4.8945	14.915198	0.000314	3.141174	1.064259	0.000126
 125	1.2338e+01	4.9282	15.056498	0.000355	3.546487	1.201582	0.000142
 126	1.2438e+01	4.9699	15.209909	0.000385	3.850471	1.304575	0.000154
 127	1.2537e+01	5.0132	15.335060	0.000314	3.141174	1.064259	0.000126
 128	1.2636e+01	5.0549	15.476360	0.000355	3.546487	1.201582	0.000142
 129	1.2736e+01	5.0854	15.573251	0.000243	2.431877	0.823942	0.000097
 130	1.2835e+01	5.1287	15.758959	0.000466	4.661097	1.579222	0.000187
 131	1.2935e+01	5.1704	15.859888	0.000253	2.533205	0.858273	0.000101
 132	1.3034e+01	5.2105	15.993113	0.000334	3.343830	1.132920	0.000134
 133	1.3134e+01	5.2490	16.170747	0.000446	4.458441	1.510561	0.000179
 134	1.3233e+01	5.2876	16.283787	0.000284	2.837189	0.961266	0.000114
 135	1.3333e+01	5.3244	16.412975	0.000324	3.242502	1.098589	0.000130
 136	1.3432e+01	5.3822	16.526015	0.000284	2.837189	0.961266	0.000114
 137	1.3532e+01	5.4015	16.691538	0.000415	4.154456	1.407568	0.000166
 138	1.3632e+01	5.4496	16.840912	0.000375	3.749143	1.270244	0.000150
 139	1.3731e+01	5.4897	16.974137	0.000334	3.343830	1.132920	0.000134
 140	1.3831e+01	5.5218	17.075066	0.000253	2.533205	0.858273	0.000101
 141	1.3930e+01	5.5683	17.252700	0.000446	4.458441	1.510561	0.000179
 142	1.4030e+01	5.6068	17.373814	0.000304	3.039846	1.029928	0.000122
 143	1.4129e+01	5.6517	17.523188	0.000375	3.749143	1.270244	0.000150
 144	1.4229e+01	5.6886	17.616042	0.000233	2.330548	0.789611	0.000093
 145	1.4328e+01	5.7191	17.749267	0.000334	3.343830	1.132920	0.000134
 146	1.4428e+01	5.7752	17.918827	0.000426	4.255784	1.441899	0.000170
 147	1.4527e+01	5.8089	18.007644	0.000223	2.229220	0.755280	0.000089
 148	1.4627e+01	5.8474	18.177204	0.000426	4.255784	1.441899	0.000170
 149	1.4726e+01	5.8891	18.298318	0.000304	3.039846	1.029928	0.000122
 150	1.4825e+01	5.9292	18.419432	0.000304	3.039846	1.029928	0.000122
 151	1.4925e+01	5.9726	18.544583	0.000314	3.141174	1.064259	0.000126
 152	1.5024e+01	6.0046	18.677808	0.000334	3.343830	1.132920	0.000134
 153	1.5124e+01	6.0528	18.806997	0.000324	3.242502	1.098589	0.000130
 154	1.5223e+01	6.0816	18.956371	0.000375	3.749143	1.270244	0.000150
 155	1.5323e+01	6.1298	19.073448	0.000294	2.938518	0.995597	0.000118
 156	1.5422e+01	6.1683	19.230896	0.000395	3.951800	1.338906	0.000158
 157	1.5522e+01	6.2020	19.323750	0.000233	2.330548	0.789611	0.000093
 158	1.5621e+01	6.2437	19.497347	0.000436	4.357112	1.476230	0.000174
 159	1.5721e+01	6.2886	19.626535	0.000324	3.242502	1.098589	0.000130
 160	1.5820e+01	6.3255	19.731501	0.000263	2.634533	0.892604	0.000105
 161	1.5920e+01	6.3576	19.892986	0.000405	4.053128	1.373237	0.000162
 162	1.6020e+01	6.4073	19.981803	0.000223	2.229220	0.755280	0.000089
 163	1.6119e+01	6.4426	20.135214	0.000385	3.850471	1.304575	0.000154
 164	1.6218e+01	6.4779	20.248254	0.000284	2.837189	0.961266	0.000114
 165	1.6318e+01	6.5196	20.401665	0.000385	3.850471	1.304575	0.000154
 166	1.6418e+01	6.5613	20.534891	0.000334	3.343830	1.132920	0.000134
 167	1.6517e+01	6.6062	20.639856	0.000263	2.634533	0.892604	0.000105
 168	1.6616e+01	6.6463	20.785193	0.000365	3.647815	1.235913	0.000146
 169	1.6716e+01	6.6784	20.898233	0.000284	2.837189	0.961266	0.000114
 170	1.6816e+01	6.7201	21.047607	0.000375	3.749143	1.270244	0.000150
 171	1.6915e+01	6.7586	21.160647	0.000284	2.837189	0.961266	0.000114
 172	1.7015e+01	6.8084	21.301947	0.000355	3.546487	1.201582	0.000142
 173	1.7114e+01	6.8372	21.382689	0.000203	2.026564	0.686618	0.000081
 174	1.7213e+01	6.8854	21.556286	0.000436	4.357112	1.476230	0.000174
 175	1.7313e+01	6.9287	21.665289	0.000274	2.735861	0.926935	0.000110
 176	1.7413e+01	6.9608	21.818700	0.000385	3.850471	1.304575	0.000154
 177	1.7512e+01	7.0009	21.935777	0.000294	2.938518	0.995597	0.000118
 178	1.7611e+01	7.0314	22.077077	0.000355	3.546487	1.201582	0.000142
 179	1.7711e+01	7.0843	22.178005	0.000253	2.533205	0.858273	0.000101
 180	1.7811e+01	7.1180	22.295082	0.000294	2.938518	0.995597	0.000118
 181	1.7910e+01	7.1645	22.464642	0.000426	4.255784	1.441899	0.000170
 182	1.8009e+01	7.2094	22.581719	0.000294	2.938518	0.995597	0.000118
 183	1.8109e+01	7.2399	22.686684	0.000263	2.634533	0.892604	0.000105
 184	1.8209e+01	7.2752	22.815873	0.000324	3.242502	1.098589	0.000130
 185	1.8308e+01	7.3217	22.981395	0.000415	4.154456	1.407568	0.000166
 186	1.8407e+01	7.3586	23.086361	0.000263	2.634533	0.892604	0.000105
 187	1.8507e+01	7.4035	23.227660	0.000355	3.546487	1.201582	0.000142
 188	1.8607e+01	7.4324	23.348775	0.000304	3.039846	1.029928	0.000122
 189	1.8706e+01	7.4821	23.498149	0.000375	3.749143	1.270244	0.000150
 190	1.8805e+01	7.5206	23.591003	0.000233	2.330548	0.789611	0.000093
 191	1.8905e+01	7.5656	23.760562	0.000426	4.255784	1.441899	0.000170
 192	1.9005e+01	7.5944	23.857454	0.000243	2.431877	0.823942	0.000097
 193	1.9104e+01	7.6394	23.990679	0.000334	3.343830	1.132920	0.000134
 194	1.9203e+01	7.6795	24.087570	0.000243	2.431877	0.823942	0.000097
 195	1.9303e+01	7.7212	24.261167	0.000436	4.357112	1.476230	0.000174
 196	1.9402e+01	7.7581	24.362096	0.000253	2.533205	0.858273	0.000101
 197	1.9502e+01	7.8030	24.503395	0.000355	3.546487	1.201582	0.000142
 198	1.9602e+01	7.8399	24.644695	0.000355	3.546487	1.201582	0.000142
 199	1.9701e+01	7.8784	24.769846	0.000314	3.141174	1.064259	0.000126
 200	1.9800e+01	7.9185	24.907109	0.000345	3.445159	1.167251	0.000138
 201	1.9900e+01	7.9602	25.044372	0.000345	3.445159	1.167251	0.000138
 202	2.0000e+01	7.9939	25.149337	0.000263	2.634533	0.892604	0.000105
 203	2.0099e+01	8.0308	25.318897	0.000426	4.255784	1.441899	0.000170
 204	2.0198e+01	8.0709	25.419825	0.000253	2.533205	0.858273	0.000101
 205	2.0298e+01	8.1222	25.492494	0.000182	1.823907	0.617957	0.000073
 206	2.0398e+01	8.1559	25.645905	0.000385	3.850471	1.304575	0.000154
 207	2.0497e+01	8.1976	25.795279	0.000375	3.749143	1.270244	0.000150
 208	2.0596e+01	8.2377	25.924467	0.000324	3.242502	1.098589	0.000130
 209	2.0696e+01	8.2859	26.061730	0.000345	3.445159	1.167251	0.000138
 210	2.0796e+01	8.3099	26.150547	0.000223	2.229220	0.755280	0.000089
 211	2.0895e+01	8.3564	26.303958	0.000385	3.850471	1.304575	0.000154
 212	2.0994e+01	8.3982	26.433146	0.000324	3.242502	1.098589	0.000130
 213	2.1094e+01	8.4383	26.554260	0.000304	3.039846	1.029928	0.000122
 214	2.1194e+01	8.4816	26.671337	0.000294	2.938518	0.995597	0.000118
 215	2.1293e+01	8.5153	26.824748	0.000385	3.850471	1.304575	0.000154
 216	2.1392e+01	8.5522	26.913565	0.000223	2.229220	0.755280	0.000089
 217	2.1492e+01	8.5939	27.046791	0.000334	3.343830	1.132920	0.000134
 218	2.1591e+01	8.6308	27.188091	0.000355	3.546487	1.201582	0.000142
 219	2.1691e+01	8.6741	27.337465	0.000375	3.749143	1.270244	0.000150
 220	2.1791e+01	8.7142	27.430319	0.000233	2.330548	0.789611	0.000093
 221	2.1890e+01	8.7415	27.547396	0.000294	2.938518	0.995597	0.000118
 222	2.1989e+01	8.7928	27.692733	0.000365	3.647815	1.235913	0.000146
 223	2.2089e+01	8.8233	27.793661	0.000253	2.533205	0.858273	0.000101
 224	2.2189e+01	8.8746	27.963221	0.000426	4.255784	1.441899	0.000170
 225	2.2288e+01	8.9147	28.092409	0.000324	3.242502	1.098589	0.000130
 226	2.2387e+01	8.9468	28.165077	0.000182	1.823907	0.617957	0.000073
 227	2.2487e+01	8.9965	28.326563	0.000405	4.053128	1.373237	0.000162
 228	2.2587e+01	9.0382	28.463826	0.000345	3.445159	1.167251	0.000138
 229	2.2686e+01	9.0719	28.580902	0.000294	2.938518	0.995597	0.000118
 230	2.2785e+01	9.1104	28.697979	0.000294	2.938518	0.995597	0.000118
 231	2.2885e+01	9.1473	28.875613	0.000446	4.458441	1.510561	0.000179
 232	2.2985e+01	9.1906	28.984616	0.000274	2.735861	0.926935	0.000110
 233	2.3084e+01	9.2292	29.065359	0.000203	2.026564	0.686618	0.000081
 234	2.3183e+01	9.2805	29.238956	0.000436	4.357112	1.476230	0.000174
 235	2.3283e+01	9.3126	29.372181	0.000334	3.343830	1.132920	0.000134
 236	2.3383e+01	9.3559	29.469072	0.000243	2.431877	0.823942	0.000097
 237	2.3482e+01	9.3976	29.610372	0.000355	3.546487	1.201582	0.000142
 238	2.3581e+01	9.4345	29.751672	0.000355	3.546487	1.201582	0.000142
 239	2.3681e+01	9.4762	29.876823	0.000314	3.141174	1.064259	0.000126
 240	2.3780e+01	9.5163	29.993900	0.000294	2.938518	0.995597	0.000118
 241	2.3880e+01	9.5532	30.115014	0.000304	3.039846	1.029928	0.000122
 242	2.3980e+01	9.5917	30.232091	0.000294	2.938518	0.995597	0.000118
 243	2.4079e+01	9.6350	30.357242	0.000314	3.141174	1.064259	0.000126
 244	2.4178e+01	9.6719	30.450096	0.000233	2.330548	0.789611	0.000093
 245	2.4278e+01	9.7136	30.623693	0.000436	4.357112	1.476230	0.000174
 246	2.4378e+01	9.7489	30.724622	0.000253	2.533205	0.858273	0.000101
 247	2.4477e+01	9.7922	30.878033	0.000385	3.850471	1.304575	0.000154
 248	2.4576e+01	9.8372	30.995110	0.000294	2.938518	0.995597	0.000118
 249	2.4676e+01	9.8644	31.059704	0.000162	1.621251	0.549295	0.000065
 250	2.4776e+01	9.8997	31.201004	0.000355	3.546487	1.201582	0.000142
 251	2.4875e+01	9.9446	31.370563	0.000426	4.255784	1.441899	0.000170
 252	2.4974e+01	9.9912	31.447269	0.000193	1.925236	0.652288	0.000077
 253	2.5074e+01	10.0297	31.604717	0.000395	3.951800	1.338906	0.000158
 254	2.5174e+01	10.0634	31.733905	0.000324	3.242502	1.098589	0.000130
 255	2.5273e+01	10.1067	31.850982	0.000294	2.938518	0.995597	0.000118
 256	2.5372e+01	10.1452	31.951911	0.000253	2.533205	0.858273	0.000101
 257	2.5472e+01	10.1821	32.109359	0.000395	3.951800	1.338906	0.000158
 258	2.5572e+01	10.2238	32.194139	0.000213	2.127892	0.720949	0.000085
 259	2.5671e+01	10.2591	32.347550	0.000385	3.850471	1.304575	0.000154
 260	2.5770e+01	10.3056	32.468664	0.000304	3.039846	1.029928	0.000122
 261	2.5870e+01	10.3441	32.597853	0.000324	3.242502	1.098589	0.000130
 262	2.5970e+01	10.3842	32.698781	0.000253	2.533205	0.858273	0.000101
 263	2.6069e+01	10.4243	32.852192	0.000385	3.850471	1.304575	0.000154
 264	2.6169e+01	10.4612	32.904675	0.000132	1.317267	0.446302	0.000053
 265	2.6268e+01	10.5029	33.037900	0.000334	3.343830	1.132920	0.000134
 266	2.6367e+01	10.5607	33.167089	0.000324	3.242502	1.098589	0.000130
 267	2.6467e+01	10.5863	33.320500	0.000385	3.850471	1.304575	0.000154
 268	2.6567e+01	10.6280	33.445651	0.000314	3.141174	1.064259	0.000126
 269	2.6666e+01	10.6649	33.526394	0.000203	2.026564	0.686618	0.000081
 270	2.6765e+01	10.7018	33.691916	0.000415	4.154456	1.407568	0.000166
 271	2.6865e+01	10.7484	33.796882	0.000263	2.634533	0.892604	0.000105
 272	2.6965e+01	10.7901	33.893773	0.000243	2.431877	0.823942	0.000097
 273	2.7064e+01	10.8286	34.006813	0.000284	2.837189	0.961266	0.000114
 274	2.7163e+01	10.8671	34.127927	0.000304	3.039846	1.029928	0.000122
 275	2.7263e+01	10.9088	34.261152	0.000334	3.343830	1.132920	0.000134
 276	2.7363e+01	10.9457	34.374192	0.000284	2.837189	0.961266	0.000114
 277	2.7462e+01	10.9858	34.454935	0.000203	2.026564	0.686618	0.000081
 278	2.7561e+01	11.0307	34.604309	0.000375	3.749143	1.270244	0.000150
 279	2.7661e+01	11.0628	34.713312	0.000274	2.735861	0.926935	0.000110
 280	2.7761e+01	11.1061	34.858649	0.000365	3.647815	1.235913	0.000146
 281	2.7860e+01	11.1398	34.971688	0.000284	2.837189	0.961266	0.000114
 282	2.7959e+01	11.1879	35.032245	0.000152	1.519923	0.514964	0.000061
 283	2.8059e+01	11.2232	35.169508	0.000345	3.445159	1.167251	0.000138
 284	2.8159e+01	11.2649	35.286585	0.000294	2.938518	0.995597	0.000118
 285	2.8258e+01	11.3018	35.439996	0.000385	3.850471	1.304575	0.000154
 286	2.8358e+01	11.3483	35.520739	0.000203	2.026564	0.686618	0.000081
 287	2.8457e+01	11.3901	35.625704	0.000263	2.634533	0.892604	0.000105
 288	2.8556e+01	11.4270	35.779115	0.000385	3.850471	1.304575	0.000154
 289	2.8656e+01	11.4606	35.892155	0.000284	2.837189	0.961266	0.000114
 290	2.8756e+01	11.5023	35.997121	0.000263	2.634533	0.892604	0.000105
 291	2.8855e+01	11.5489	36.126309	0.000324	3.242502	1.098589	0.000130
 292	2.8954e+01	11.5777	36.215126	0.000223	2.229220	0.755280	0.000089
 293	2.9054e+01	11.6323	36.332203	0.000294	2.938518	0.995597	0.000118
 294	2.9154e+01	11.6724	36.477540	0.000365	3.647815	1.235913	0.000146
 295	2.9253e+01	11.7077	36.574431	0.000243	2.431877	0.823942	0.000097
 296	2.9352e+01	11.7430	36.655174	0.000203	2.026564	0.686618	0.000081
 297	2.9452e+01	11.7943	36.844919	0.000476	4.762425	1.613553	0.000191
 298	2.9552e+01	11.8184	36.933736	0.000223	2.229220	0.755280	0.000089
 299	2.9651e+01	11.8665	37.030628	0.000243	2.431877	0.823942	0.000097
 300	2.9750e+01	11.9098	37.123482	0.000233	2.330548	0.789611	0.000093
 301	2.9850e+01	11.9419	37.224410	0.000253	2.533205	0.858273	0.000101
 302	2.9950e+01	11.9804	37.365710	0.000355	3.546487	1.201582	0.000142
 303	3.0049e+01	12.0237	37.486824	0.000304	3.039846	1.029928	0.000122
 304	3.0148e+01	12.0574	37.583715	0.000243	2.431877	0.823942	0.000097
 305	3.0248e+01	12.0975	37.696755	0.000284	2.837189	0.961266	0.000114
 306	3.0348e+01	12.1440	37.781535	0.000213	2.127892	0.720949	0.000085
 307	3.0447e+01	12.1841	37.910723	0.000324	3.242502	1.098589	0.000130
 308	3.0547e+01	12.2275	38.027800	0.000294	2.938518	0.995597	0.000118
 309	3.0646e+01	12.2547	38.156988	0.000324	3.242502	1.098589	0.000130
 310	3.0745e+01	12.2932	38.249843	0.000233	2.330548	0.789611	0.000093
 311	3.0845e+01	12.3462	38.366919	0.000294	2.938518	0.995597	0.000118
 312	3.0945e+01	12.3927	38.483996	0.000294	2.938518	0.995597	0.000118
 313	3.1044e+01	12.4184	38.592999	0.000274	2.735861	0.926935	0.000110
 314	3.1143e+01	12.4681	38.718150	0.000314	3.141174	1.064259	0.000126
 315	3.1243e+01	12.4986	38.823116	0.000263	2.634533	0.892604	0.000105
 316	3.1343e+01	12.5435	38.924044	0.000253	2.533205	0.858273	0.000101
 317	3.1442e+01	12.5852	39.045158	0.000304	3.039846	1.029928	0.000122
 318	3.1541e+01	12.6125	39.182421	0.000345	3.445159	1.167251	0.000138
 319	3.1641e+01	12.6638	39.242978	0.000152	1.519923	0.514964	0.000061
 320	3.1741e+01	12.6975	39.392352	0.000375	3.749143	1.270244	0.000150
 321	3.1840e+01	12.7392	39.465020	0.000182	1.823907	0.617957	0.000073
 322	3.1939e+01	12.7761	39.574023	0.000274	2.735861	0.926935	0.000110
 323	3.2039e+01	12.8146	39.695137	0.000304	3.039846	1.029928	0.000122
 324	3.2139e+01	12.8627	39.808177	0.000284	2.837189	0.961266	0.000114
 325	3.2238e+01	12.9012	39.953514	0.000365	3.647815	1.235913	0.000146
 326	3.2337e+01	12.9413	39.989848	0.000091	0.911954	0.308978	0.000037
 327	3.2437e+01	12.9750	40.110962	0.000304	3.039846	1.029928	0.000122
 328	3.2536e+01	13.0135	40.232076	0.000304	3.039846	1.029928	0.000122
 329	3.2636e+01	13.0536	40.333005	0.000253	2.533205	0.858273	0.000101
 330	3.2736e+01	13.1002	40.421822	0.000223	2.229220	0.755280	0.000089
 331	3.2835e+01	13.1371	40.575233	0.000385	3.850471	1.304575	0.000154
 332	3.2934e+01	13.1772	40.692310	0.000294	2.938518	0.995597	0.000118
 333	3.3034e+01	13.2076	40.817461	0.000314	3.141174	1.064259	0.000126
 334	3.3133e+01	13.2494	40.873981	0.000142	1.418595	0.480633	0.000057
 335	3.3233e+01	13.3023	40.987021	0.000284	2.837189	0.961266	0.000114
 336	3.3333e+01	13.3328	41.100060	0.000284	2.837189	0.961266	0.000114
 337	3.3432e+01	13.3745	41.192915	0.000233	2.330548	0.789611	0.000093
 338	3.3532e+01	13.4178	41.346326	0.000385	3.850471	1.304575	0.000154
 339	3.3631e+01	13.4595	41.467440	0.000304	3.039846	1.029928	0.000122
 340	3.3730e+01	13.5012	41.532034	0.000162	1.621251	0.549295	0.000065
 341	3.3830e+01	13.5365	41.636999	0.000263	2.634533	0.892604	0.000105
 342	3.3929e+01	13.5750	41.709668	0.000182	1.823907	0.617957	0.000073
 343	3.4029e+01	13.6087	41.887302	0.000446	4.458441	1.510561	0.000179
 344	3.4129e+01	13.6504	41.992267	0.000263	2.634533	0.892604	0.000105
 345	3.4228e+01	13.6857	42.077047	0.000213	2.127892	0.720949	0.000085
 346	3.4328e+01	13.7322	42.161827	0.000213	2.127892	0.720949	0.000085
 347	3.4427e+01	13.7739	42.307164	0.000365	3.647815	1.235913	0.000146
 348	3.4526e+01	13.8157	42.420204	0.000284	2.837189	0.961266	0.000114
 349	3.4626e+01	13.8509	42.509021	0.000223	2.229220	0.755280	0.000089
 350	3.4725e+01	13.8975	42.593801	0.000213	2.127892	0.720949	0.000085
 351	3.4825e+01	13.9360	42.718952	0.000314	3.141174	1.064259	0.000126
 352	3.4925e+01	13.9713	42.819880	0.000253	2.533205	0.858273	0.000101
 353	3.5024e+01	14.0146	42.949069	0.000324	3.242502	1.098589	0.000130
 354	3.5123e+01	14.0547	43.049997	0.000253	2.533205	0.858273	0.000101
 355	3.5223e+01	14.0820	43.159000	0.000274	2.735861	0.926935	0.000110
 356	3.5322e+01	14.1525	43.268002	0.000274	2.735861	0.926935	0.000110
 357	3.5422e+01	14.1750	43.401228	0.000334	3.343830	1.132920	0.000134
 358	3.5522e+01	14.2023	43.473896	0.000182	1.823907	0.617957	0.000073
 359	3.5621e+01	14.2504	43.611159	0.000345	3.445159	1.167251	0.000138
 360	3.5721e+01	14.2857	43.695939	0.000213	2.127892	0.720949	0.000085
 361	3.5820e+01	14.3370	43.776681	0.000203	2.026564	0.686618	0.000081
 362	3.5919e+01	14.3675	43.909907	0.000334	3.343830	1.132920	0.000134
 363	3.6019e+01	14.4108	44.006798	0.000243	2.431877	0.823942	0.000097
 364	3.6118e+01	14.4541	44.160209	0.000385	3.850471	1.304575	0.000154
 365	3.6218e+01	14.4894	44.244989	0.000213	2.127892	0.720949	0.000085
 366	3.6318e+01	14.5231	44.382252	0.000345	3.445159	1.167251	0.000138
 367	3.6417e+01	14.5777	44.467032	0.000213	2.127892	0.720949	0.000085
 368	3.6517e+01	14.6097	44.580071	0.000284	2.837189	0.961266	0.000114
 369	3.6616e+01	14.6499	44.697148	0.000294	2.938518	0.995597	0.000118
 370	3.6715e+01	14.6884	44.794040	0.000243	2.431877	0.823942	0.000097
 371	3.6815e+01	14.7301	44.907079	0.000284	2.837189	0.961266	0.000114
 372	3.6914e+01	14.7702	45.024156	0.000294	2.938518	0.995597	0.000118
 373	3.7014e+01	14.8135	45.121048	0.000243	2.431877	0.823942	0.000097
 374	3.7114e+01	14.8552	45.217939	0.000243	2.431877	0.823942	0.000097
 375	3.7213e+01	14.8825	45.339053	0.000304	3.039846	1.029928	0.000122
 376	3.7313e+01	14.9354	45.460167	0.000304	3.039846	1.029928	0.000122
 377	3.7412e+01	14.9691	45.548984	0.000223	2.229220	0.755280	0.000089
 378	3.7511e+01	15.0140	45.670098	0.000304	3.039846	1.029928	0.000122
 379	3.7611e+01	15.0525	45.779101	0.000274	2.735861	0.926935	0.000110
 380	3.7711e+01	15.0878	45.900215	0.000304	3.039846	1.029928	0.000122
 381	3.7810e+01	15.1247	45.993069	0.000233	2.330548	0.789611	0.000093
 382	3.7910e+01	15.1776	46.106109	0.000284	2.837189	0.961266	0.000114
 383	3.8009e+01	15.2049	46.211074	0.000263	2.634533	0.892604	0.000105
 384	3.8108e+01	15.2402	46.307965	0.000243	2.431877	0.823942	0.000097
 385	3.8208e+01	15.2932	46.429080	0.000304	3.039846	1.029928	0.000122
 386	3.8307e+01	15.3365	46.530008	0.000253	2.533205	0.858273	0.000101
 387	3.8407e+01	15.3718	46.606714	0.000193	1.925236	0.652288	0.000077
 388	3.8507e+01	15.4038	46.760125	0.000385	3.850471	1.304575	0.000154
 389	3.8606e+01	15.4439	46.857016	0.000243	2.431877	0.823942	0.000097
 390	3.8706e+01	15.4873	46.953907	0.000243	2.431877	0.823942	0.000097
 391	3.8805e+01	15.5338	47.079058	0.000314	3.141174	1.064259	0.000126
 392	3.8904e+01	15.5578	47.147690	0.000172	1.722579	0.583626	0.000069
 393	3.9004e+01	15.6076	47.305138	0.000395	3.951800	1.338906	0.000158
 394	3.9103e+01	15.6461	47.381844	0.000193	1.925236	0.652288	0.000077
 395	3.9203e+01	15.6862	47.498921	0.000294	2.938518	0.995597	0.000118
 396	3.9303e+01	15.7199	47.615997	0.000294	2.938518	0.995597	0.000118
 397	3.9402e+01	15.7632	47.725000	0.000274	2.735861	0.926935	0.000110
 398	3.9502e+01	15.8097	47.834003	0.000274	2.735861	0.926935	0.000110
 399	3.9601e+01	15.8418	47.922820	0.000223	2.229220	0.755280	0.000089
 400	3.9700e+01	15.8819	48.039897	0.000294	2.938518	0.995597	0.000118
 401	3.9800e+01	15.9252	48.152937	0.000284	2.837189	0.961266	0.000114
 402	3.9900e+01	15.9669	48.270013	0.000294	2.938518	0.995597	0.000118
 403	3.9999e+01	16.0054	48.366905	0.000243	2.431877	0.823942	0.000097
 404	4.0099e+01	16.0439	48.483982	0.000294	2.938518	0.995597	0.000118
 405	4.0198e+01	16.0937	48.556650	0.000182	1.823907	0.617957	0.000073
 406	4.0297e+01	16.1241	48.681801	0.000314	3.141174	1.064259	0.000126
 407	4.0397e+01	16.1642	48.798878	0.000294	2.938518	0.995597	0.000118
 408	4.0496e+01	16.2092	48.895769	0.000243	2.431877	0.823942	0.000097
 409	4.0596e+01	16.2477	49.004772	0.000274	2.735861	0.926935	0.000110
 410	4.0696e+01	16.2846	49.150109	0.000365	3.647815	1.235913	0.000146
 411	4.0795e+01	16.3183	49.230852	0.000203	2.026564	0.686618	0.000081
 412	4.0895e+01	16.3616	49.339854	0.000274	2.735861	0.926935	0.000110
 413	4.0994e+01	16.3953	49.432709	0.000233	2.330548	0.789611	0.000093
 414	4.1093e+01	16.4338	49.553823	0.000304	3.039846	1.029928	0.000122
 415	4.1193e+01	16.4835	49.646677	0.000233	2.330548	0.789611	0.000093
 416	4.1292e+01	16.5220	49.759717	0.000284	2.837189	0.961266	0.000114
 417	4.1392e+01	16.5637	49.824311	0.000162	1.621251	0.549295	0.000065
 418	4.1492e+01	16.6070	49.977722	0.000385	3.850471	1.304575	0.000154
 419	4.1591e+01	16.6343	50.078650	0.000253	2.533205	0.858273	0.000101
 420	4.1691e+01	16.6904	50.183616	0.000263	2.634533	0.892604	0.000105
 421	4.1790e+01	16.7161	50.288581	0.000263	2.634533	0.892604	0.000105
 422	4.1889e+01	16.7610	50.381435	0.000233	2.330548	0.789611	0.000093
 423	4.1989e+01	16.7979	50.462178	0.000203	2.026564	0.686618	0.000081
 424	4.2089e+01	16.8396	50.591367	0.000324	3.242502	1.098589	0.000130
 425	4.2188e+01	16.8829	50.688258	0.000243	2.431877	0.823942	0.000097
 426	4.2288e+01	16.9214	50.789186	0.000253	2.533205	0.858273	0.000101
 427	4.2387e+01	16.9696	50.910300	0.000304	3.039846	1.029928	0.000122
 428	4.2486e+01	17.0049	51.015266	0.000263	2.634533	0.892604	0.000105
 429	4.2586e+01	17.0386	51.140417	0.000314	3.141174	1.064259	0.000126
 430	4.2685e+01	17.0803	51.188863	0.000122	1.215938	0.411971	0.000049
 431	4.2785e+01	17.1300	51.318051	0.000324	3.242502	1.098589	0.000130
 432	4.2885e+01	17.1717	51.423016	0.000263	2.634533	0.892604	0.000105
 433	4.2984e+01	17.1942	51.499722	0.000193	1.925236	0.652288	0.000077
 434	4.3084e+01	17.2407	51.628910	0.000324	3.242502	1.098589	0.000130
 435	4.3183e+01	17.2808	51.737913	0.000274	2.735861	0.926935	0.000110
 436	4.3282e+01	17.3161	51.818656	0.000203	2.026564	0.686618	0.000081
 437	4.3382e+01	17.3594	51.959956	0.000355	3.546487	1.201582	0.000142
 438	4.3481e+01	17.3947	52.012438	0.000132	1.317267	0.446302	0.000053
 439	4.3581e+01	17.4444	52.137589	0.000314	3.141174	1.064259	0.000126
 440	4.3681e+01	17.4733	52.230444	0.000233	2.330548	0.789611	0.000093
 441	4.3780e+01	17.5118	52.331372	0.000253	2.533205	0.858273	0.000101
 442	4.3880e+01	17.5583	52.456523	0.000314	3.141174	1.064259	0.000126
 443	4.3979e+01	17.6000	52.561489	0.000263	2.634533	0.892604	0.000105
 444	4.4078e+01	17.6385	52.658380	0.000243	2.431877	0.823942	0.000097
 445	4.4178e+01	17.6851	52.710863	0.000132	1.317267	0.446302	0.000053
 446	4.4278e+01	17.7236	52.860237	0.000375	3.749143	1.270244	0.000150
 447	4.4377e+01	17.7589	52.936942	0.000193	1.925236	0.652288	0.000077
 448	4.4477e+01	17.8006	53.041908	0.000263	2.634533	0.892604	0.000105
 449	4.4576e+01	17.8310	53.163022	0.000304	3.039846	1.029928	0.000122
 450	4.4675e+01	17.8695	53.255876	0.000233	2.330548	0.789611	0.000093
 451	4.4775e+01	17.9097	53.340656	0.000213	2.127892	0.720949	0.000085
 452	4.4874e+01	17.9546	53.461770	0.000304	3.039846	1.029928	0.000122
 453	4.4974e+01	18.0027	53.550587	0.000223	2.229220	0.755280	0.000089
 454	4.5074e+01	18.0380	53.639404	0.000223	2.229220	0.755280	0.000089
 455	4.5173e+01	18.0797	53.728221	0.000223	2.229220	0.755280	0.000089
 456	4.5273e+01	18.1102	53.813001	0.000213	2.127892	0.720949	0.000085
 457	4.5372e+01	18.1583	53.958338	0.000365	3.647815	1.235913	0.000146
 458	4.5471e+01	18.1920	54.031006	0.000182	1.823907	0.617957	0.000073
 459	4.5571e+01	18.2369	54.144046	0.000284	2.837189	0.961266	0.000114
 460	4.5670e+01	18.2802	54.208640	0.000162	1.621251	0.549295	0.000065
 461	4.5770e+01	18.3203	54.345903	0.000345	3.445159	1.167251	0.000138
 462	4.5870e+01	18.3540	54.426645	0.000203	2.026564	0.686618	0.000081
 463	4.5969e+01	18.3925	54.535648	0.000274	2.735861	0.926935	0.000110
 464	4.6069e+01	18.4310	54.620428	0.000213	2.127892	0.720949	0.000085
 465	4.6168e+01	18.4695	54.737505	0.000294	2.938518	0.995597	0.000118
 466	4.6267e+01	18.5193	54.834396	0.000243	2.431877	0.823942	0.000097
 467	4.6367e+01	18.5546	54.943399	0.000274	2.735861	0.926935	0.000110
 468	4.6467e+01	18.5995	55.036253	0.000233	2.330548	0.789611	0.000093
 469	4.6566e+01	18.6348	55.112959	0.000193	1.925236	0.652288	0.000077
 470	4.6666e+01	18.6829	55.238110	0.000314	3.141174	1.064259	0.000126
 471	4.6765e+01	18.7262	55.306741	0.000172	1.722579	0.583626	0.000069
 472	4.6864e+01	18.7583	55.395558	0.000223	2.229220	0.755280	0.000089
 473	4.6964e+01	18.7968	55.512635	0.000294	2.938518	0.995597	0.000118
 474	4.7063e+01	18.8321	55.589341	0.000193	1.925236	0.652288	0.000077
 475	4.7163e+01	18.8754	55.678158	0.000223	2.229220	0.755280	0.000089
 476	4.7263e+01	18.9123	55.762937	0.000213	2.127892	0.720949	0.000085
 477	4.7362e+01	18.9524	55.884051	0.000304	3.039846	1.029928	0.000122
 478	4.7462e+01	19.0005	56.001128	0.000294	2.938518	0.995597	0.000118
 479	4.7561e+01	19.0278	56.069760	0.000172	1.722579	0.583626	0.000069
 480	4.7660e+01	19.0775	56.146465	0.000193	1.925236	0.652288	0.000077
 481	4.7760e+01	19.1112	56.275654	0.000324	3.242502	1.098589	0.000130
 482	4.7859e+01	19.1497	56.392731	0.000294	2.938518	0.995597	0.000118
 483	4.7959e+01	19.1930	56.473473	0.000203	2.026564	0.686618	0.000081
 484	4.8059e+01	19.2428	56.534030	0.000152	1.519923	0.514964	0.000061
 485	4.8158e+01	19.2716	56.651107	0.000294	2.938518	0.995597	0.000118
 486	4.8258e+01	19.3198	56.772221	0.000304	3.039846	1.029928	0.000122
 487	4.8357e+01	19.3615	56.857001	0.000213	2.127892	0.720949	0.000085
 488	4.8456e+01	19.3855	56.953892	0.000243	2.431877	0.823942	0.000097
 489	4.8556e+01	19.4401	57.034635	0.000203	2.026564	0.686618	0.000081
 490	4.8656e+01	19.4754	57.107304	0.000182	1.823907	0.617957	0.000073
 491	4.8755e+01	19.5155	57.216306	0.000274	2.735861	0.926935	0.000110
 492	4.8855e+01	19.5428	57.288975	0.000182	1.823907	0.617957	0.000073
 493	4.8954e+01	19.5925	57.410089	0.000304	3.039846	1.029928	0.000122
 494	4.9053e+01	19.6230	57.498906	0.000223	2.229220	0.755280	0.000089
 495	4.9153e+01	19.6695	57.611946	0.000284	2.837189	0.961266	0.000114
 496	4.9252e+01	19.7112	57.676540	0.000162	1.621251	0.549295	0.000065
 497	4.9352e+01	19.7465	57.769394	0.000233	2.330548	0.789611	0.000093
 498	4.9452e+01	19.7930	57.890508	0.000304	3.039846	1.029928	0.000122
 499	4.9551e+01	19.8283	57.991436	0.000253	2.533205	0.858273	0.000101
 500	4.9651e+01	19.8732	58.068142	0.000193	1.925236	0.652288	0.000077
 501	4.9750e+01	19.9182	58.148885	0.000203	2.026564	0.686618	0.000081
 502	4.9849e+01	19.9502	58.261924	0.000284	2.837189	0.961266	0.000114
 503	4.9949e+01	19.9903	58.358816	0.000243	2.431877	0.823942	0.000097
 504	5.0048e+01	19.9518	58.290184	0.000172	1.722579	0.583626	-0.000069
 505	5.0148e+01	19.9117	58.221553	0.000172	1.722579	0.583626	-0.000069
 506	5.0248e+01	19.8700	58.165033	0.000142	1.418595	0.480633	-0.000057
 507	5.0347e+01	19.8283	58.064105	0.000253	2.533205	0.858273	-0.000101
 508	5.0447e+01	19.7818	57.987399	0.000193	1.925236	0.652288	-0.000077
 509	5.0546e+01	19.7545	57.898582	0.000223	2.229220	0.755280	-0.000089
 510	5.0645e+01	19.7112	57.809765	0.000223	2.229220	0.755280	-0.000089
 511	5.0745e+01	19.6711	57.708837	0.000253	2.533205	0.858273	-0.000101
 512	5.0844e+01	19.6342	57.628094	0.000203	2.026564	0.686618	-0.000081
 513	5.0944e+01	19.5909	57.571574	0.000142	1.418595	0.480633	-0.000057
 514	5.1044e+01	19.5492	57.490831	0.000203	2.026564	0.686618	-0.000081
 515	5.1143e+01	19.5043	57.438349	0.000132	1.317267	0.446302	-0.000053
 516	5.1242e+01	19.4706	57.317235	0.000304	3.039846	1.029928	-0.000122
 517	5.1342e+01	19.4289	57.288975	0.000071	0.709297	0.240316	-0.000028
 518	5.1441e+01	19.3968	57.179972	0.000274	2.735861	0.926935	-0.000110
 519	5.1541e+01	19.3454	57.091155	0.000223	2.229220	0.755280	-0.000089
 520	5.1641e+01	19.3166	56.966004	0.000314	3.141174	1.064259	-0.000126
 521	5.1740e+01	19.2781	56.933707	0.000081	0.810626	0.274647	-0.000032
 522	5.1840e+01	19.2364	56.816630	0.000294	2.938518	0.995597	-0.000118
 523	5.1939e+01	19.1866	56.768184	0.000122	1.215938	0.411971	-0.000049
 524	5.2038e+01	19.1481	56.691479	0.000193	1.925236	0.652288	-0.000077
 525	5.2138e+01	19.1176	56.590550	0.000253	2.533205	0.858273	-0.000101
 526	5.2237e+01	19.0791	56.538067	0.000132	1.317267	0.446302	-0.000053
 527	5.2337e+01	19.0342	56.457325	0.000203	2.026564	0.686618	-0.000081
 528	5.2437e+01	18.9861	56.356396	0.000253	2.533205	0.858273	-0.000101
 529	5.2536e+01	18.9524	56.247394	0.000274	2.735861	0.926935	-0.000110
 530	5.2636e+01	18.9107	56.198948	0.000122	1.215938	0.411971	-0.000049
 531	5.2735e+01	18.8754	56.102057	0.000243	2.431877	0.823942	-0.000097
 532	5.2834e+01	18.8353	55.993054	0.000274	2.735861	0.926935	-0.000110
 533	5.2934e+01	18.7968	55.948646	0.000111	1.114610	0.377640	-0.000045
 534	5.3033e+01	18.7455	55.880014	0.000172	1.722579	0.583626	-0.000069
 535	5.3133e+01	18.7214	55.758900	0.000304	3.039846	1.029928	-0.000122
 536	5.3233e+01	18.6797	55.674120	0.000213	2.127892	0.720949	-0.000085
 537	5.3332e+01	18.6396	55.593378	0.000203	2.026564	0.686618	-0.000081
 538	5.3431e+01	18.6059	55.524746	0.000172	1.722579	0.583626	-0.000069
 539	5.3531e+01	18.5562	55.415744	0.000274	2.735861	0.926935	-0.000110
 540	5.3630e+01	18.5225	55.355187	0.000152	1.519923	0.514964	-0.000061
 541	5.3730e+01	18.4695	55.258295	0.000243	2.431877	0.823942	-0.000097
 542	5.3830e+01	18.4519	55.177553	0.000203	2.026564	0.686618	-0.000081
 543	5.3929e+01	18.4022	55.100847	0.000193	1.925236	0.652288	-0.000077
 544	5.4029e+01	18.3604	55.007993	0.000233	2.330548	0.789611	-0.000093
 545	5.4128e+01	18.3123	54.923213	0.000213	2.127892	0.720949	-0.000085
 546	5.4227e+01	18.2786	54.826322	0.000243	2.431877	0.823942	-0.000097
 547	5.4327e+01	18.2369	54.741542	0.000213	2.127892	0.720949	-0.000085
 548	5.4426e+01	18.1984	54.697134	0.000111	1.114610	0.377640	-0.000045
 549	5.4526e+01	18.1519	54.588131	0.000274	2.735861	0.926935	-0.000110
 550	5.4626e+01	18.1150	54.495277	0.000233	2.330548	0.789611	-0.000093
 551	5.4725e+01	18.0749	54.402423	0.000233	2.330548	0.789611	-0.000093
 552	5.4825e+01	18.0412	54.321680	0.000203	2.026564	0.686618	-0.000081
 553	5.4924e+01	17.9915	54.204603	0.000294	2.938518	0.995597	-0.000118
 554	5.5023e+01	17.9546	54.123860	0.000203	2.026564	0.686618	-0.000081
 555	5.5123e+01	17.9225	54.063303	0.000152	1.519923	0.514964	-0.000061
 556	5.5222e+01	17.8712	53.982561	0.000203	2.026564	0.686618	-0.000081
 557	5.5322e+01	17.8375	53.885669	0.000243	2.431877	0.823942	-0.000097
 558	5.5422e+01	17.7942	53.804927	0.000203	2.026564	0.686618	-0.000081
 559	5.5521e+01	17.7605	53.716110	0.000223	2.229220	0.755280	-0.000089
 560	5.5620e+01	17.7139	53.643441	0.000182	1.823907	0.617957	-0.000073
 561	5.5720e+01	17.6802	53.554624	0.000223	2.229220	0.755280	-0.000089
 562	5.5819e+01	17.6401	53.461770	0.000233	2.330548	0.789611	-0.000093
 563	5.5919e+01	17.5920	53.372953	0.000223	2.229220	0.755280	-0.000089
 564	5.6019e+01	17.5680	53.308359	0.000162	1.621251	0.549295	-0.000065
 565	5.6118e+01	17.5166	53.207430	0.000253	2.533205	0.858273	-0.000101
 566	5.6218e+01	17.4813	53.130725	0.000193	1.925236	0.652288	-0.000077
 567	5.6317e+01	17.4396	53.041908	0.000223	2.229220	0.755280	-0.000089
 568	5.6416e+01	17.3931	52.973277	0.000172	1.722579	0.583626	-0.000069
 569	5.6516e+01	17.3578	52.848125	0.000314	3.141174	1.064259	-0.000126
 570	5.6615e+01	17.3129	52.791605	0.000142	1.418595	0.480633	-0.000057
 571	5.6715e+01	17.2728	52.690677	0.000253	2.533205	0.858273	-0.000101
 572	5.6815e+01	17.2519	52.605897	0.000213	2.127892	0.720949	-0.000085
 573	5.6914e+01	17.1974	52.513043	0.000233	2.330548	0.789611	-0.000093
 574	5.7014e+01	17.1557	52.408078	0.000263	2.634533	0.892604	-0.000105
 575	5.7113e+01	17.1204	52.359632	0.000122	1.215938	0.411971	-0.000049
 576	5.7212e+01	17.0738	52.291001	0.000172	1.722579	0.583626	-0.000069
 577	5.7312e+01	17.0418	52.173924	0.000294	2.938518	0.995597	-0.000118
 578	5.7411e+01	17.0097	52.089144	0.000213	2.127892	0.720949	-0.000085
 579	5.7511e+01	16.9567	52.008401	0.000203	2.026564	0.686618	-0.000081
 580	5.7611e+01	16.9182	51.931696	0.000193	1.925236	0.652288	-0.000077
 581	5.7710e+01	16.8829	51.834804	0.000243	2.431877	0.823942	-0.000097
 582	5.7809e+01	16.8380	51.705616	0.000324	3.242502	1.098589	-0.000130
 583	5.7909e+01	16.8043	51.641022	0.000162	1.621251	0.549295	-0.000065
 584	5.8008e+01	16.7642	51.560279	0.000203	2.026564	0.686618	-0.000081
 585	5.8108e+01	16.7113	51.471462	0.000223	2.229220	0.755280	-0.000089
 586	5.8208e+01	16.6760	51.382645	0.000223	2.229220	0.755280	-0.000089
 587	5.8307e+01	16.6455	51.293828	0.000223	2.229220	0.755280	-0.000089
 588	5.8407e+01	16.6038	51.221160	0.000182	1.823907	0.617957	-0.000073
 589	5.8506e+01	16.5525	51.120231	0.000253	2.533205	0.858273	-0.000101
 590	5.8605e+01	16.5236	51.059674	0.000152	1.519923	0.514964	-0.000061
 591	5.8705e+01	16.4851	50.906263	0.000385	3.850471	1.304575	-0.000154
 592	5.8804e+01	16.4482	50.829558	0.000193	1.925236	0.652288	-0.000077
 593	5.8904e+01	16.4113	50.712481	0.000294	2.938518	0.995597	-0.000118
 594	5.9004e+01	16.3664	50.672109	0.000101	1.013282	0.343309	-0.000041
 595	5.9103e+01	16.3215	50.587329	0.000213	2.127892	0.720949	-0.000085
 596	5.9203e+01	16.2878	50.474290	0.000284	2.837189	0.961266	-0.000114
 597	5.9302e+01	16.2477	50.377398	0.000243	2.431877	0.823942	-0.000097
 598	5.9401e+01	16.2076	50.300693	0.000193	1.925236	0.652288	-0.000077
 599	5.9501e+01	16.1659	50.244173	0.000142	1.418595	0.480633	-0.000057
 600	5.9600e+01	16.1290	50.143244	0.000253	2.533205	0.858273	-0.000101
 601	5.9700e+01	16.0840	50.062502	0.000203	2.026564	0.686618	-0.000081
 602	5.9800e+01	16.0391	49.949462	0.000284	2.837189	0.961266	-0.000114
 603	5.9899e+01	15.9958	49.848534	0.000253	2.533205	0.858273	-0.000101
 604	5.9998e+01	15.9653	49.727419	0.000304	3.039846	1.029928	-0.000122
 605	6.0098e+01	15.9284	49.683011	0.000111	1.114610	0.377640	-0.000045
 606	6.0197e+01	15.8851	49.586120	0.000243	2.431877	0.823942	-0.000097
 607	6.0297e+01	15.8450	49.469043	0.000294	2.938518	0.995597	-0.000118
 608	6.0397e+01	15.8097	49.356003	0.000284	2.837189	0.961266	-0.000114
 609	6.0496e+01	15.7696	49.267186	0.000223	2.229220	0.755280	-0.000089
 610	6.0596e+01	15.7247	49.202592	0.000162	1.621251	0.549295	-0.000065
 611	6.0695e+01	15.6830	49.077441	0.000314	3.141174	1.064259	-0.000126
 612	6.0794e+01	15.6541	49.024958	0.000132	1.317267	0.446302	-0.000053
 613	6.0894e+01	15.6108	48.907881	0.000294	2.938518	0.995597	-0.000118
 614	6.0993e+01	15.5611	48.810990	0.000243	2.431877	0.823942	-0.000097
 615	6.1093e+01	15.5258	48.697950	0.000284	2.837189	0.961266	-0.000114
 616	6.1193e+01	15.4857	48.649504	0.000122	1.215938	0.411971	-0.000049
 617	6.1292e+01	15.4536	48.564724	0.000213	2.127892	0.720949	-0.000085
 618	6.1392e+01	15.4151	48.411313	0.000385	3.850471	1.304575	-0.000154
 619	6.1491e+01	15.3750	48.354793	0.000142	1.418595	0.480633	-0.000057
 620	6.1590e+01	15.3252	48.217531	0.000345	3.445159	1.167251	-0.000138
 621	6.1690e+01	15.2980	48.156974	0.000152	1.519923	0.514964	-0.000061
 622	6.1789e+01	15.2530	48.068157	0.000223	2.229220	0.755280	-0.000089
 623	6.1889e+01	15.1985	47.959154	0.000274	2.735861	0.926935	-0.000110
 624	6.1989e+01	15.1696	47.874374	0.000213	2.127892	0.720949	-0.000085
 625	6.2088e+01	15.1263	47.737112	0.000345	3.445159	1.167251	-0.000138
 626	6.2188e+01	15.0894	47.664443	0.000182	1.823907	0.617957	-0.000073
 627	6.2287e+01	15.0445	47.559478	0.000263	2.634533	0.892604	-0.000105
 628	6.2386e+01	15.0044	47.450475	0.000274	2.735861	0.926935	-0.000110
 629	6.2486e+01	14.9627	47.414141	0.000091	0.911954	0.308978	-0.000037
 630	6.2586e+01	14.9338	47.297064	0.000294	2.938518	0.995597	-0.000118
 631	6.2685e+01	14.8857	47.212284	0.000213	2.127892	0.720949	-0.000085
 632	6.2785e+01	14.8488	47.095207	0.000294	2.938518	0.995597	-0.000118
 633	6.2884e+01	14.8055	46.982167	0.000284	2.837189	0.961266	-0.000114
 634	6.2983e+01	14.7670	46.909499	0.000182	1.823907	0.617957	-0.000073
 635	6.3083e+01	14.7253	46.804533	0.000263	2.634533	0.892604	-0.000105
 636	6.3182e+01	14.6916	46.679382	0.000314	3.141174	1.064259	-0.000126
 637	6.3282e+01	14.6499	46.626899	0.000132	1.317267	0.446302	-0.000053
 638	6.3382e+01	14.6162	46.489637	0.000345	3.445159	1.167251	-0.000138
 639	6.3481e+01	14.5696	46.421005	0.000172	1.722579	0.583626	-0.000069
 640	6.3581e+01	14.5311	46.320077	0.000253	2.533205	0.858273	-0.000101
 641	6.3680e+01	14.4975	46.194926	0.000314	3.141174	1.064259	-0.000126
 642	6.3779e+01	14.4509	46.077849	0.000294	2.938518	0.995597	-0.000118
 643	6.3879e+01	14.4124	45.984995	0.000233	2.330548	0.789611	-0.000093
 644	6.3978e+01	14.3691	45.880029	0.000263	2.634533	0.892604	-0.000105
 645	6.4078e+01	14.3274	45.795249	0.000213	2.127892	0.720949	-0.000085
 646	6.4177e+01	14.2905	45.718544	0.000193	1.925236	0.652288	-0.000077
 647	6.4277e+01	14.2504	45.557058	0.000405	4.053128	1.373237	-0.000162
 648	6.4376e+01	14.2039	45.520724	0.000091	0.911954	0.308978	-0.000037
 649	6.4476e+01	14.1702	45.391536	0.000324	3.242502	1.098589	-0.000130
 650	6.4576e+01	14.1317	45.282533	0.000274	2.735861	0.926935	-0.000110
 651	6.4675e+01	14.0964	45.205827	0.000193	1.925236	0.652288	-0.000077
 652	6.4775e+01	14.0483	45.076639	0.000324	3.242502	1.098589	-0.000130
 653	6.4874e+01	14.0210	44.955525	0.000304	3.039846	1.029928	-0.000122
 654	6.4974e+01	13.9697	44.878819	0.000193	1.925236	0.652288	-0.000077
 655	6.5073e+01	13.9328	44.757705	0.000304	3.039846	1.029928	-0.000122
 656	6.5172e+01	13.8911	44.668888	0.000223	2.229220	0.755280	-0.000089
 657	6.5272e+01	13.8493	44.580071	0.000223	2.229220	0.755280	-0.000089
 658	6.5371e+01	13.8140	44.491254	0.000223	2.229220	0.755280	-0.000089
 659	6.5471e+01	13.7788	44.394363	0.000243	2.431877	0.823942	-0.000097
 660	6.5570e+01	13.7258	44.273249	0.000304	3.039846	1.029928	-0.000122
 661	6.5670e+01	13.6921	44.180395	0.000233	2.330548	0.789611	-0.000093
 662	6.5769e+01	13.6472	44.075429	0.000263	2.634533	0.892604	-0.000105
 663	6.5869e+01	13.6151	43.958352	0.000294	2.938518	0.995597	-0.000118
 664	6.5969e+01	13.5750	43.849350	0.000274	2.735861	0.926935	-0.000110
 665	6.6068e+01	13.5285	43.756496	0.000233	2.330548	0.789611	-0.000093
 666	6.6168e+01	13.4820	43.659604	0.000243	2.431877	0.823942	-0.000097
 667	6.6267e+01	13.4563	43.562713	0.000243	2.431877	0.823942	-0.000097
 668	6.6367e+01	13.4114	43.469859	0.000233	2.330548	0.789611	-0.000093
 669	6.6466e+01	13.3745	43.344708	0.000314	3.141174	1.064259	-0.000126
 670	6.6566e+01	13.3392	43.247817	0.000243	2.431877	0.823942	-0.000097
 671	6.6665e+01	13.3071	43.167074	0.000203	2.026564	0.686618	-0.000081
 672	6.6764e+01	13.2590	43.033848	0.000334	3.343830	1.132920	-0.000134
 673	6.6864e+01	13.2109	42.936957	0.000243	2.431877	0.823942	-0.000097
 674	6.6963e+01	13.1804	42.848140	0.000223	2.229220	0.755280	-0.000089
 675	6.7063e+01	13.1419	42.714915	0.000334	3.343830	1.132920	-0.000134
 676	6.7162e+01	13.0986	42.613986	0.000253	2.533205	0.858273	-0.000101
 677	6.7262e+01	13.0520	42.521132	0.000233	2.330548	0.789611	-0.000093
 678	6.7362e+01	13.0119	42.440389	0.000203	2.026564	0.686618	-0.000081
 679	6.7461e+01	12.9831	42.335424	0.000263	2.634533	0.892604	-0.000105
 680	6.7561e+01	12.9317	42.250644	0.000213	2.127892	0.720949	-0.000085
 681	6.7660e+01	12.9028	42.141641	0.000274	2.735861	0.926935	-0.000110
 682	6.7760e+01	12.8643	42.028602	0.000284	2.837189	0.961266	-0.000114
 683	6.7859e+01	12.8178	41.955933	0.000182	1.823907	0.617957	-0.000073
 684	6.7959e+01	12.7793	41.806559	0.000375	3.749143	1.270244	-0.000150
 685	6.8058e+01	12.7424	41.713705	0.000233	2.330548	0.789611	-0.000093
 686	6.8157e+01	12.7087	41.665259	0.000122	1.215938	0.411971	-0.000049
 687	6.8257e+01	12.6702	41.519922	0.000365	3.647815	1.235913	-0.000146
 688	6.8356e+01	12.6141	41.431106	0.000223	2.229220	0.755280	-0.000089
 689	6.8456e+01	12.5804	41.289806	0.000355	3.546487	1.201582	-0.000142
 690	6.8555e+01	12.5435	41.200989	0.000223	2.229220	0.755280	-0.000089
 691	6.8655e+01	12.5130	41.116209	0.000213	2.127892	0.720949	-0.000085
 692	6.8754e+01	12.4585	41.023355	0.000233	2.330548	0.789611	-0.000093
 693	6.8854e+01	12.4119	40.922426	0.000253	2.533205	0.858273	-0.000101
 694	6.8954e+01	12.3863	40.805349	0.000294	2.938518	0.995597	-0.000118
 695	6.9053e+01	12.3398	40.740755	0.000162	1.621251	0.549295	-0.000065
 696	6.9153e+01	12.2997	40.595418	0.000365	3.647815	1.235913	-0.000146
 697	6.9252e+01	12.2644	40.494490	0.000253	2.533205	0.858273	-0.000101
 698	6.9352e+01	12.2243	40.409710	0.000213	2.127892	0.720949	-0.000085
 699	6.9451e+01	12.1809	40.288596	0.000304	3.039846	1.029928	-0.000122
 700	6.9550e+01	12.1456	40.224002	0.000162	1.621251	0.549295	-0.000065
 701	6.9650e+01	12.0991	40.106925	0.000294	2.938518	0.995597	-0.000118
 702	6.9749e+01	12.0702	39.973700	0.000334	3.343830	1.132920	-0.000134
 703	6.9849e+01	12.0189	39.868734	0.000263	2.634533	0.892604	-0.000105
 704	6.9948e+01	11.9772	39.820288	0.000122	1.215938	0.411971	-0.000049
 705	7.0048e+01	11.9355	39.666877	0.000385	3.850471	1.304575	-0.000154
 706	7.0147e+01	11.9002	39.614394	0.000132	1.317267	0.446302	-0.000053
 707	7.0247e+01	11.8649	39.473095	0.000355	3.546487	1.201582	-0.000142
 708	7.0347e+01	11.8136	39.364092	0.000274	2.735861	0.926935	-0.000110
 709	7.0446e+01	11.7783	39.279312	0.000213	2.127892	0.720949	-0.000085
 710	7.0546e+01	11.7414	39.170309	0.000274	2.735861	0.926935	-0.000110
 711	7.0645e+01	11.7125	39.037084	0.000334	3.343830	1.132920	-0.000134
 712	7.0745e+01	11.6628	38.964416	0.000182	1.823907	0.617957	-0.000073
 713	7.0844e+01	11.6243	38.843302	0.000304	3.039846	1.029928	-0.000122
 714	7.0944e+01	11.5906	38.726225	0.000294	2.938518	0.995597	-0.000118
 715	7.1043e+01	11.5537	38.633370	0.000233	2.330548	0.789611	-0.000093
 716	7.1142e+01	11.5007	38.532442	0.000253	2.533205	0.858273	-0.000101
 717	7.1242e+01	11.4638	38.471885	0.000152	1.519923	0.514964	-0.000061
 718	7.1341e+01	11.4237	38.318474	0.000385	3.850471	1.304575	-0.000154
 719	7.1441e+01	11.3820	38.213508	0.000263	2.634533	0.892604	-0.000105
 720	7.1540e+01	11.3435	38.108543	0.000263	2.634533	0.892604	-0.000105
 721	7.1640e+01	11.3050	38.019726	0.000223	2.229220	0.755280	-0.000089
 722	7.1740e+01	11.2681	37.943020	0.000193	1.925236	0.652288	-0.000077
 723	7.1839e+01	11.2280	37.797683	0.000365	3.647815	1.235913	-0.000146
 724	7.1939e+01	11.1783	37.708866	0.000223	2.229220	0.755280	-0.000089
 725	7.2038e+01	11.1462	37.616012	0.000233	2.330548	0.789611	-0.000093
 726	7.2138e+01	11.1061	37.498935	0.000294	2.938518	0.995597	-0.000118
 727	7.2237e+01	11.0596	37.398007	0.000253	2.533205	0.858273	-0.000101
 728	7.2337e+01	11.0291	37.313227	0.000213	2.127892	0.720949	-0.000085
 729	7.2436e+01	10.9826	37.212299	0.000253	2.533205	0.858273	-0.000101
 730	7.2535e+01	10.9409	37.075036	0.000345	3.445159	1.167251	-0.000138
 731	7.2635e+01	10.9056	36.994293	0.000203	2.026564	0.686618	-0.000081
 732	7.2734e+01	10.8671	36.873179	0.000304	3.039846	1.029928	-0.000122
 733	7.2834e+01	10.8270	36.788399	0.000213	2.127892	0.720949	-0.000085
 734	7.2933e+01	10.7949	36.687471	0.000253	2.533205	0.858273	-0.000101
 735	7.3033e+01	10.7419	36.590580	0.000243	2.431877	0.823942	-0.000097
 736	7.3132e+01	10.7099	36.465429	0.000314	3.141174	1.064259	-0.000126
 737	7.3232e+01	10.6714	36.372574	0.000233	2.330548	0.789611	-0.000093
 738	7.3332e+01	10.6296	36.287795	0.000213	2.127892	0.720949	-0.000085
 739	7.3431e+01	10.5847	36.166681	0.000304	3.039846	1.029928	-0.000122
 740	7.3531e+01	10.5430	36.041529	0.000314	3.141174	1.064259	-0.000126
 741	7.3630e+01	10.5109	35.956749	0.000213	2.127892	0.720949	-0.000085
 742	7.3730e+01	10.4740	35.859858	0.000243	2.431877	0.823942	-0.000097
 743	7.3829e+01	10.4323	35.775078	0.000213	2.127892	0.720949	-0.000085
 744	7.3928e+01	10.3890	35.666076	0.000274	2.735861	0.926935	-0.000110
 745	7.4028e+01	10.3457	35.553036	0.000284	2.837189	0.961266	-0.000114
 746	7.4127e+01	10.3120	35.391550	0.000405	4.053128	1.373237	-0.000162
 747	7.4227e+01	10.2735	35.302733	0.000223	2.229220	0.755280	-0.000089
 748	7.4326e+01	10.2254	35.250251	0.000132	1.317267	0.446302	-0.000053
 749	7.4426e+01	10.1869	35.117025	0.000334	3.343830	1.132920	-0.000134
 750	7.4525e+01	10.1516	35.060505	0.000142	1.418595	0.480633	-0.000057
 751	7.4625e+01	10.1131	34.890946	0.000426	4.255784	1.441899	-0.000170
 752	7.4725e+01	10.0682	34.818277	0.000182	1.823907	0.617957	-0.000073
 753	7.4824e+01	10.0265	34.681015	0.000345	3.445159	1.167251	-0.000138
 754	7.4924e+01	9.9912	34.559900	0.000304	3.039846	1.029928	-0.000122
 755	7.5023e+01	9.9591	34.479158	0.000203	2.026564	0.686618	-0.000081
 756	7.5123e+01	9.9093	34.402452	0.000193	1.925236	0.652288	-0.000077
 757	7.5222e+01	9.8708	34.261152	0.000355	3.546487	1.201582	-0.000142
 758	7.5322e+01	9.8227	34.111778	0.000375	3.749143	1.270244	-0.000150
 759	7.5421e+01	9.7842	34.026999	0.000213	2.127892	0.720949	-0.000085
 760	7.5520e+01	9.7473	33.938182	0.000223	2.229220	0.755280	-0.000089
 761	7.5620e+01	9.7040	33.849365	0.000223	2.229220	0.755280	-0.000089
 762	7.5719e+01	9.6767	33.724213	0.000314	3.141174	1.064259	-0.000126
 763	7.5819e+01	9.6334	33.607136	0.000294	2.938518	0.995597	-0.000118
 764	7.5918e+01	9.5981	33.494097	0.000284	2.837189	0.961266	-0.000114
 765	7.6018e+01	9.5580	33.377020	0.000294	2.938518	0.995597	-0.000118
 766	7.6118e+01	9.5147	33.280128	0.000243	2.431877	0.823942	-0.000097
 767	7.6217e+01	9.4746	33.223609	0.000142	1.418595	0.480633	-0.000057
 768	7.6317e+01	9.4313	33.054049	0.000426	4.255784	1.441899	-0.000170
 769	7.6416e+01	9.3992	32.941009	0.000284	2.837189	0.961266	-0.000114
 770	7.6516e+01	9.3495	32.848155	0.000233	2.330548	0.789611	-0.000093
 771	7.6615e+01	9.3174	32.735115	0.000284	2.837189	0.961266	-0.000114
 772	7.6715e+01	9.2725	32.630150	0.000263	2.634533	0.892604	-0.000105
 773	7.6814e+01	9.2356	32.529221	0.000253	2.533205	0.858273	-0.000101
 774	7.6913e+01	9.1955	32.339476	0.000476	4.762425	1.613553	-0.000191
 775	7.7013e+01	9.1538	32.282956	0.000142	1.418595	0.480633	-0.000057
 776	7.7112e+01	9.1088	32.153768	0.000324	3.242502	1.098589	-0.000130
 777	7.7212e+01	9.0735	32.044765	0.000274	2.735861	0.926935	-0.000110
 778	7.7311e+01	9.0318	31.943837	0.000253	2.533205	0.858273	-0.000101
 779	7.7411e+01	8.9917	31.826760	0.000294	2.938518	0.995597	-0.000118
 780	7.7510e+01	8.9484	31.681423	0.000365	3.647815	1.235913	-0.000146
 781	7.7610e+01	8.9131	31.592606	0.000223	2.229220	0.755280	-0.000089
 782	7.7710e+01	8.8746	31.471492	0.000304	3.039846	1.029928	-0.000122
 783	7.7809e+01	8.8265	31.390749	0.000203	2.026564	0.686618	-0.000081
 784	7.7909e+01	8.7864	31.281746	0.000274	2.735861	0.926935	-0.000110
 785	7.8008e+01	8.7511	31.152558	0.000324	3.242502	1.098589	-0.000130
 786	7.8108e+01	8.7062	31.031444	0.000304	3.039846	1.029928	-0.000122
 787	7.8207e+01	8.6645	30.898218	0.000334	3.343830	1.132920	-0.000134
 788	7.8306e+01	8.6404	30.793253	0.000263	2.634533	0.892604	-0.000105
 789	7.8406e+01	8.5971	30.655990	0.000345	3.445159	1.167251	-0.000138
 790	7.8505e+01	8.5602	30.575248	0.000203	2.026564	0.686618	-0.000081
 791	7.8605e+01	8.5185	30.442022	0.000334	3.343830	1.132920	-0.000134
 792	7.8704e+01	8.4752	30.341094	0.000253	2.533205	0.858273	-0.000101
 793	7.8804e+01	8.4399	30.171534	0.000426	4.255784	1.441899	-0.000170
 794	7.8903e+01	8.3982	30.062531	0.000274	2.735861	0.926935	-0.000110
 795	7.9003e+01	8.3581	29.945454	0.000294	2.938518	0.995597	-0.000118
 796	7.9103e+01	8.3179	29.876823	0.000172	1.722579	0.583626	-0.000069
 797	7.9202e+01	8.2746	29.735523	0.000355	3.546487	1.201582	-0.000142
 798	7.9302e+01	8.2281	29.602298	0.000334	3.343830	1.132920	-0.000134
 799	7.9401e+01	8.2008	29.521555	0.000203	2.026564	0.686618	-0.000081
 800	7.9501e+01	8.1543	29.368144	0.000385	3.850471	1.304575	-0.000154
 801	7.9600e+01	8.1046	29.247030	0.000304	3.039846	1.029928	-0.000122
 802	7.9700e+01	8.0805	29.142064	0.000263	2.634533	0.892604	-0.000105
 803	7.9799e+01	8.0468	29.041136	0.000253	2.533205	0.858273	-0.000101
 804	7.9898e+01	7.9971	28.915985	0.000314	3.141174	1.064259	-0.000126
 805	7.9998e+01	7.9506	28.811019	0.000263	2.634533	0.892604	-0.000105
 806	8.0097e+01	7.9121	28.661645	0.000375	3.749143	1.270244	-0.000150
 807	8.0197e+01	7.8832	28.564754	0.000243	2.431877	0.823942	-0.000097
 808	8.0296e+01	7.8367	28.427491	0.000345	3.445159	1.167251	-0.000138
 809	8.0396e+01	7.7950	28.306377	0.000304	3.039846	1.029928	-0.000122
 810	8.0496e+01	7.7629	28.185263	0.000304	3.039846	1.029928	-0.000122
 811	8.0595e+01	7.7180	28.039926	0.000365	3.647815	1.235913	-0.000146
 812	8.0695e+01	7.6843	27.906701	0.000334	3.343830	1.132920	-0.000134
 813	8.0794e+01	7.6329	27.829995	0.000193	1.925236	0.652288	-0.000077
 814	8.0894e+01	7.5993	27.700807	0.000324	3.242502	1.098589	-0.000130
 815	8.0993e+01	7.5511	27.595841	0.000263	2.634533	0.892604	-0.000105
 816	8.1093e+01	7.5110	27.490876	0.000263	2.634533	0.892604	-0.000105
 817	8.1192e+01	7.4709	27.349576	0.000355	3.546487	1.201582	-0.000142
 818	8.1291e+01	7.4452	27.196165	0.000385	3.850471	1.304575	-0.000154
 819	8.1391e+01	7.4035	27.115422	0.000203	2.026564	0.686618	-0.000081
 820	8.1490e+01	7.3666	27.018531	0.000243	2.431877	0.823942	-0.000097
 821	8.1590e+01	7.3185	26.836860	0.000456	4.559769	1.544891	-0.000183
 822	8.1689e+01	7.2832	26.744006	0.000233	2.330548	0.789611	-0.000093
 823	8.1789e+01	7.2383	26.618854	0.000314	3.141174	1.064259	-0.000126
 824	8.1888e+01	7.1950	26.449295	0.000426	4.255784	1.441899	-0.000170
 825	8.1988e+01	7.1533	26.352404	0.000243	2.431877	0.823942	-0.000097
 826	8.2088e+01	7.1212	26.247438	0.000263	2.634533	0.892604	-0.000105
 827	8.2187e+01	7.0859	26.114213	0.000334	3.343830	1.132920	-0.000134
 828	8.2287e+01	7.0394	26.037507	0.000193	1.925236	0.652288	-0.000077
 829	8.2386e+01	7.0009	25.839687	0.000497	4.965082	1.682215	-0.000199
 830	8.2486e+01	6.9592	25.775093	0.000162	1.621251	0.549295	-0.000065
 831	8.2585e+01	6.9207	25.653979	0.000304	3.039846	1.029928	-0.000122
 832	8.2684e+01	6.8757	25.480382	0.000436	4.357112	1.476230	-0.000174
 833	8.2784e+01	6.8372	25.359268	0.000304	3.039846	1.029928	-0.000122
 834	8.2883e+01	6.8019	25.246228	0.000284	2.837189	0.961266	-0.000114
 835	8.2983e+01	6.7602	25.149337	0.000243	2.431877	0.823942	-0.000097
 836	8.3082e+01	6.7185	25.004000	0.000365	3.647815	1.235913	-0.000146
 837	8.3182e+01	6.6848	24.838478	0.000415	4.154456	1.407568	-0.000166
 838	8.3281e+01	6.6511	24.781958	0.000142	1.418595	0.480633	-0.000057
 839	8.3381e+01	6.5966	24.596249	0.000466	4.661097	1.579222	-0.000187
 840	8.3481e+01	6.5613	24.527618	0.000172	1.722579	0.583626	-0.000069
 841	8.3580e+01	6.5228	24.414578	0.000284	2.837189	0.961266	-0.000114
 842	8.3680e+01	6.4811	24.281353	0.000334	3.343830	1.132920	-0.000134
 843	8.3779e+01	6.4394	24.136016	0.000365	3.647815	1.235913	-0.000146
 844	8.3879e+01	6.4121	24.031050	0.000263	2.634533	0.892604	-0.000105
 845	8.3978e+01	6.3656	23.865528	0.000415	4.154456	1.407568	-0.000166
 846	8.4078e+01	6.3303	23.728265	0.000345	3.445159	1.167251	-0.000138
 847	8.4177e+01	6.2790	23.603114	0.000314	3.141174	1.064259	-0.000126
 848	8.4276e+01	6.2533	23.510260	0.000233	2.330548	0.789611	-0.000093
 849	8.4376e+01	6.2020	23.340700	0.000426	4.255784	1.441899	-0.000170
 850	8.4475e+01	6.1635	23.263995	0.000193	1.925236	0.652288	-0.000077
 851	8.4575e+01	6.1234	23.114621	0.000375	3.749143	1.270244	-0.000150
 852	8.4674e+01	6.0833	22.981395	0.000334	3.343830	1.132920	-0.000134
 853	8.4774e+01	6.0447	22.864318	0.000294	2.938518	0.995597	-0.000118
 854	8.4874e+01	6.0143	22.706870	0.000395	3.951800	1.338906	-0.000158
 855	8.4973e+01	5.9629	22.618053	0.000223	2.229220	0.755280	-0.000089
 856	8.5073e+01	5.9276	22.549422	0.000172	1.722579	0.583626	-0.000069
 857	8.5172e+01	5.8827	22.331416	0.000547	5.471722	1.853870	-0.000219
 858	8.5272e+01	5.8522	22.258748	0.000182	1.823907	0.617957	-0.000073
 859	8.5371e+01	5.8089	22.113411	0.000365	3.647815	1.235913	-0.000146
 860	8.5471e+01	5.7704	21.996334	0.000294	2.938518	0.995597	-0.000118
 861	8.5570e+01	5.7223	21.842923	0.000385	3.850471	1.304575	-0.000154
 862	8.5669e+01	5.6790	21.733920	0.000274	2.735861	0.926935	-0.000110
 863	8.5769e+01	5.6485	21.628955	0.000263	2.634533	0.892604	-0.000105
 864	8.5868e+01	5.6036	21.495729	0.000334	3.343830	1.132920	-0.000134
 865	8.5968e+01	5.5635	21.346355	0.000375	3.749143	1.270244	-0.000150
 866	8.6067e+01	5.5170	21.257538	0.000223	2.229220	0.755280	-0.000089
 867	8.6167e+01	5.4913	21.096053	0.000405	4.053128	1.373237	-0.000162
 868	8.6266e+01	5.4496	20.974939	0.000304	3.039846	1.029928	-0.000122
 869	8.6366e+01	5.4079	20.861899	0.000284	2.837189	0.961266	-0.000114
 870	8.6466e+01	5.3710	20.744822	0.000294	2.938518	0.995597	-0.000118
 871	8.6565e+01	5.3309	20.595448	0.000375	3.749143	1.270244	-0.000150
 872	8.6665e+01	5.2940	20.454148	0.000355	3.546487	1.201582	-0.000142
 873	8.6764e+01	5.2603	20.361294	0.000233	2.330548	0.789611	-0.000093
 874	8.6864e+01	5.2089	20.248254	0.000284	2.837189	0.961266	-0.000114
 875	8.6963e+01	5.1720	20.119066	0.000324	3.242502	1.098589	-0.000130
 876	8.7063e+01	5.1287	19.933358	0.000466	4.661097	1.579222	-0.000187
 877	8.7162e+01	5.0822	19.816281	0.000294	2.938518	0.995597	-0.000118
 878	8.7261e+01	5.0501	19.727464	0.000223	2.229220	0.755280	-0.000089
 879	8.7361e+01	5.0100	19.582127	0.000365	3.647815	1.235913	-0.000146
 880	8.7460e+01	4.9731	19.469087	0.000284	2.837189	0.961266	-0.000114
 881	8.7560e+01	4.9330	19.307602	0.000405	4.053128	1.373237	-0.000162
 882	8.7659e+01	4.8961	19.226859	0.000203	2.026564	0.686618	-0.000081
 883	8.7759e+01	4.8464	19.057299	0.000426	4.255784	1.441899	-0.000170
 884	8.7859e+01	4.8095	18.964445	0.000233	2.330548	0.789611	-0.000093
 885	8.7958e+01	4.7598	18.815071	0.000375	3.749143	1.270244	-0.000150
 886	8.8058e+01	4.7261	18.681846	0.000334	3.343830	1.132920	-0.000134
 887	8.8157e+01	4.6924	18.572843	0.000274	2.735861	0.926935	-0.000110
 888	8.8257e+01	4.6603	18.375023	0.000497	4.965082	1.682215	-0.000199
 889	8.8356e+01	4.6122	18.326578	0.000122	1.215938	0.411971	-0.000049
 890	8.8456e+01	4.5689	18.157018	0.000426	4.255784	1.441899	-0.000170
 891	8.8555e+01	4.5304	18.035904	0.000304	3.039846	1.029928	-0.000122
 892	8.8654e+01	4.4967	17.902678	0.000334	3.343830	1.132920	-0.000134
 893	8.8754e+01	4.4469	17.789639	0.000284	2.837189	0.961266	-0.000114
 894	8.8853e+01	4.4132	17.660450	0.000324	3.242502	1.098589	-0.000130
 895	8.8953e+01	4.3763	17.523188	0.000345	3.445159	1.167251	-0.000138
 896	8.9052e+01	4.3298	17.402074	0.000304	3.039846	1.029928	-0.000122
 897	8.9152e+01	4.2897	17.232514	0.000426	4.255784	1.441899	-0.000170
 898	8.9251e+01	4.2464	17.131586	0.000253	2.533205	0.858273	-0.000101
 899	8.9351e+01	4.2143	16.978174	0.000385	3.850471	1.304575	-0.000154
 900	8.9451e+01	4.1726	16.861097	0.000294	2.938518	0.995597	-0.000118
 901	8.9550e+01	4.1245	16.719798	0.000355	3.546487	1.201582	-0.000142
 902	8.9650e+01	4.0940	16.590609	0.000324	3.242502	1.098589	-0.000130
 903	8.9749e+01	4.0555	16.485644	0.000263	2.634533	0.892604	-0.000105
 904	8.9849e+01	4.0058	16.316084	0.000426	4.255784	1.441899	-0.000170
 905	8.9948e+01	3.9753	16.207081	0.000274	2.735861	0.926935	-0.000110
 906	9.0047e+01	3.9336	16.081930	0.000314	3.141174	1.064259	-0.000126
 907	9.0147e+01	3.8935	15.952742	0.000324	3.242502	1.098589	-0.000130
 908	9.0246e+01	3.8534	15.803368	0.000375	3.749143	1.270244	-0.000150
 909	9.0346e+01	3.8133	15.702439	0.000253	2.533205	0.858273	-0.000101
 910	9.0445e+01	3.7683	15.553065	0.000375	3.749143	1.270244	-0.000150
 911	9.0545e+01	3.7218	15.407729	0.000365	3.647815	1.235913	-0.000146
 912	9.0644e+01	3.6833	15.266429	0.000355	3.546487	1.201582	-0.000142
 913	9.0744e+01	3.6577	15.121092	0.000365	3.647815	1.235913	-0.000146
 914	9.0844e+01	3.6111	14.999978	0.000304	3.039846	1.029928	-0.000122
 915	9.0943e+01	3.5694	14.907124	0.000233	2.330548	0.789611	-0.000093
 916	9.1043e+01	3.5373	14.733527	0.000436	4.357112	1.476230	-0.000174
 917	9.1142e+01	3.4956	14.588190	0.000365	3.647815	1.235913	-0.000146
 918	9.1242e+01	3.4555	14.471113	0.000294	2.938518	0.995597	-0.000118
 919	9.1341e+01	3.4202	14.382296	0.000223	2.229220	0.755280	-0.000089
 920	9.1441e+01	3.3785	14.204662	0.000446	4.458441	1.510561	-0.000179
 921	9.1540e+01	3.3416	14.091622	0.000284	2.837189	0.961266	-0.000114
 922	9.1639e+01	3.2935	13.950323	0.000355	3.546487	1.201582	-0.000142
 923	9.1739e+01	3.2486	13.833246	0.000294	2.938518	0.995597	-0.000118
 924	9.1838e+01	3.2197	13.675797	0.000395	3.951800	1.338906	-0.000158
 925	9.1938e+01	3.1764	13.534498	0.000355	3.546487	1.201582	-0.000142
 926	9.2037e+01	3.1379	13.401272	0.000334	3.343830	1.132920	-0.000134
 927	9.2137e+01	3.0978	13.264009	0.000345	3.445159	1.167251	-0.000138
 928	9.2237e+01	3.0545	13.138858	0.000314	3.141174	1.064259	-0.000126
 929	9.2336e+01	3.0127	12.993521	0.000365	3.647815	1.235913	-0.000146
 930	9.2436e+01	2.9630	12.832036	0.000405	4.053128	1.373237	-0.000162
 931	9.2535e+01	2.9374	12.690736	0.000355	3.546487	1.201582	-0.000142
 932	9.2635e+01	2.8988	12.557511	0.000334	3.343830	1.132920	-0.000134
 933	9.2734e+01	2.8555	12.408137	0.000375	3.749143	1.270244	-0.000150
 934	9.2834e+01	2.8154	12.311245	0.000243	2.431877	0.823942	-0.000097
 935	9.2933e+01	2.7705	12.169946	0.000355	3.546487	1.201582	-0.000142
 936	9.3032e+01	2.7384	12.028646	0.000355	3.546487	1.201582	-0.000142
 937	9.3132e+01	2.6999	11.867161	0.000405	4.053128	1.373237	-0.000162
 938	9.3231e+01	2.6566	11.733935	0.000334	3.343830	1.132920	-0.000134
 939	9.3331e+01	2.6181	11.633007	0.000253	2.533205	0.858273	-0.000101
 940	9.3430e+01	2.5860	11.455373	0.000446	4.458441	1.510561	-0.000179
 941	9.3530e+01	2.5315	11.314073	0.000355	3.546487	1.201582	-0.000142
 942	9.3629e+01	2.5026	11.160662	0.000385	3.850471	1.304575	-0.000154
 943	9.3729e+01	2.4497	11.003213	0.000395	3.951800	1.338906	-0.000158
 944	9.3829e+01	2.4208	10.894211	0.000274	2.735861	0.926935	-0.000110
 945	9.3928e+01	2.3823	10.732725	0.000405	4.053128	1.373237	-0.000162
 946	9.4028e+01	2.3422	10.603537	0.000324	3.242502	1.098589	-0.000130
 947	9.4127e+01	2.2957	10.438014	0.000415	4.154456	1.407568	-0.000166
 948	9.4227e+01	2.2620	10.304789	0.000334	3.343830	1.132920	-0.000134
 949	9.4326e+01	2.2122	10.163489	0.000355	3.546487	1.201582	-0.000142
 950	9.4425e+01	2.1721	10.002004	0.000405	4.053128	1.373237	-0.000162
 951	9.4525e+01	2.1384	9.880890	0.000304	3.039846	1.029928	-0.000122
 952	9.4624e+01	2.0951	9.747664	0.000334	3.343830	1.132920	-0.000134
 953	9.4724e+01	2.0711	9.565993	0.000456	4.559769	1.544891	-0.000183
 954	9.4823e+01	2.0133	9.424693	0.000355	3.546487	1.201582	-0.000142
 955	9.4923e+01	1.9716	9.307616	0.000294	2.938518	0.995597	-0.000118
 956	9.5022e+01	1.9363	9.117871	0.000476	4.762425	1.613553	-0.000191
 957	9.5122e+01	1.9058	8.988683	0.000324	3.242502	1.098589	-0.000130
 958	9.5222e+01	1.8609	8.863532	0.000314	3.141174	1.064259	-0.000126
 959	9.5321e+01	1.8272	8.718195	0.000365	3.647815	1.235913	-0.000146
 960	9.5421e+01	1.7759	8.568821	0.000375	3.749143	1.270244	-0.000150
 961	9.5520e+01	1.7390	8.419447	0.000375	3.749143	1.270244	-0.000150
 962	9.5620e+01	1.6989	8.257961	0.000405	4.053128	1.373237	-0.000162
 963	9.5719e+01	1.6620	8.092439	0.000415	4.154456	1.407568	-0.000166
 964	9.5819e+01	1.6203	7.963250	0.000324	3.242502	1.098589	-0.000130
 965	9.5918e+01	1.5673	7.834062	0.000324	3.242502	1.098589	-0.000130
 966	9.6017e+01	1.5336	7.664502	0.000426	4.255784	1.441899	-0.000170
 967	9.6117e+01	1.5016	7.511091	0.000385	3.850471	1.304575	-0.000154
 968	9.6216e+01	1.4518	7.349606	0.000405	4.053128	1.373237	-0.000162
 969	9.6316e+01	1.4181	7.236566	0.000284	2.837189	0.961266	-0.000114
 970	9.6415e+01	1.3764	7.058932	0.000446	4.458441	1.510561	-0.000179
 971	9.6515e+01	1.3379	6.925706	0.000334	3.343830	1.132920	-0.000134
 972	9.6615e+01	1.3074	6.756147	0.000426	4.255784	1.441899	-0.000170
 973	9.6714e+01	1.2689	6.635033	0.000304	3.039846	1.029928	-0.000122
 974	9.6814e+01	1.2240	6.489696	0.000365	3.647815	1.235913	-0.000146
 975	9.6913e+01	1.1823	6.336285	0.000385	3.850471	1.304575	-0.000154
 976	9.7013e+01	1.1422	6.186911	0.000375	3.749143	1.270244	-0.000150
 977	9.7112e+01	1.1069	6.041574	0.000365	3.647815	1.235913	-0.000146
 978	9.7212e+01	1.0684	5.835680	0.000517	5.167738	1.750877	-0.000207
 979	9.7311e+01	1.0235	5.702454	0.000334	3.343830	1.132920	-0.000134
 980	9.7410e+01	0.9834	5.581340	0.000304	3.039846	1.029928	-0.000122
 981	9.7510e+01	0.9385	5.431966	0.000375	3.749143	1.270244	-0.000150
 982	9.7609e+01	0.9048	5.262406	0.000426	4.255784	1.441899	-0.000170
 983	9.7709e+01	0.8631	5.108995	0.000385	3.850471	1.304575	-0.000154
 984	9.7808e+01	0.8262	4.983844	0.000314	3.141174	1.064259	-0.000126
 985	9.7908e+01	0.7845	4.806210	0.000446	4.458441	1.510561	-0.000179
 986	9.8007e+01	0.7428	4.632613	0.000436	4.357112	1.476230	-0.000174
 987	9.8107e+01	0.6978	4.479202	0.000385	3.850471	1.304575	-0.000154
 988	9.8207e+01	0.6642	4.325791	0.000385	3.850471	1.304575	-0.000154
 989	9.8306e+01	0.6273	4.192565	0.000334	3.343830	1.132920	-0.000134
 990	9.8406e+01	0.5888	4.087600	0.000263	2.634533	0.892604	-0.000105
 991	9.8505e+01	0.5422	3.922077	0.000415	4.154456	1.407568	-0.000166
 992	9.8605e+01	0.5053	3.752518	0.000426	4.255784	1.441899	-0.000170
 993	9.8704e+01	0.4540	3.570847	0.000456	4.559769	1.544891	-0.000183
 994	9.8803e+01	0.4251	3.482030	0.000223	2.229220	0.755280	-0.000089
 995	9.8903e+01	0.3770	3.288247	0.000486	4.863753	1.647884	-0.000195
 996	9.9002e+01	0.3449	3.138873	0.000375	3.749143	1.270244	-0.000150
 997	9.9102e+01	0.3080	2.985462	0.000385	3.850471	1.304575	-0.000154
 998	9.9201e+01	0.2615	2.836088	0.000375	3.749143	1.270244	-0.000150
 999	9.9301e+01	0.2294	2.674602	0.000405	4.053128	1.373237	-0.000162
1000	9.9400e+01	0.1813	2.529266	0.000365	3.647815	1.235913	-0.000146
1001	9.9500e+01	0.1412	2.371817	0.000395	3.951800	1.338906	-0.000158
1002	9.9600e+01	0.1059	2.202258	0.000426	4.255784	1.441899	-0.000170
1003	9.9699e+01	0.0674	2.040772	0.000405	4.053128	1.373237	-0.000162
1004	9.9799e+01	0.0289	1.939844	0.000253	2.533205	0.858273	-0.000101
1005	9.9898e+01	-0.0080	1.782395	0.000395	3.951800	1.338906	-0.000158
1006	9.9998e+01	-0.0449	1.637059	0.000365	3.647815	1.235913	-0.000146
1007	1.0010e+02	-0.0850	1.491722	0.000365	3.647815	1.235913	-0.000146
1008	1.0020e+02	-0.1219	1.330236	0.000405	4.053128	1.373237	-0.000162
1009	1.0030e+02	-0.1700	1.184899	0.000365	3.647815	1.235913	-0.000146
1010	1.0040e+02	-0.2102	1.023414	0.000405	4.053128	1.373237	-0.000162
1011	1.0050e+02	-0.2519	0.874040	0.000375	3.749143	1.270244	-0.000150
1012	1.0059e+02	-0.2823	0.700443	0.000436	4.357112	1.476230	-0.000174
1013	1.0069e+02	-0.3241	0.583366	0.000294	2.938518	0.995597	-0.000118
1014	1.0079e+02	-0.3626	0.417844	0.000415	4.154456	1.407568	-0.000166
1015	1.0089e+02	-0.4027	0.272507	0.000365	3.647815	1.235913	-0.000146
1016	1.0099e+02	-0.4396	0.143318	0.000324	3.242502	1.098589	-0.000130
1017	1.0109e+02	-0.4877	-0.030279	0.000436	4.357112	1.476230	-0.000174
1018	1.0119e+02	-0.5230	-0.199838	0.000426	4.255784	1.441899	-0.000170
1019	1.0129e+02	-0.5663	-0.320952	0.000304	3.039846	1.029928	-0.000122
1020	1.0139e+02	-0.5952	-0.490512	0.000426	4.255784	1.441899	-0.000170
1021	1.0149e+02	-0.6417	-0.619700	0.000324	3.242502	1.098589	-0.000130
1022	1.0159e+02	-0.6738	-0.773111	0.000385	3.850471	1.304575	-0.000154
1023	1.0169e+02	-0.7219	-0.954783	0.000456	4.559769	1.544891	-0.000183
1024	1.0179e+02	-0.7556	-1.092045	0.000345	3.445159	1.167251	-0.000138
1025	1.0189e+02	-0.8069	-1.257568	0.000415	4.154456	1.407568	-0.000166
1026	1.0199e+02	-0.8422	-1.398868	0.000355	3.546487	1.201582	-0.000142
1027	1.0209e+02	-0.8855	-1.540167	0.000355	3.546487	1.201582	-0.000142
1028	1.0219e+02	-0.9208	-1.673393	0.000334	3.343830	1.132920	-0.000134
1029	1.0229e+02	-0.9609	-1.834878	0.000405	4.053128	1.373237	-0.000162
1030	1.0239e+02	-1.0042	-1.992326	0.000395	3.951800	1.338906	-0.000158
1031	1.0248e+02	-1.0428	-2.210332	0.000547	5.471722	1.853870	-0.000219
1032	1.0258e+02	-1.0796	-2.291075	0.000203	2.026564	0.686618	-0.000081
1033	1.0268e+02	-1.1230	-2.416226	0.000314	3.141174	1.064259	-0.000126
1034	1.0278e+02	-1.1599	-2.553488	0.000345	3.445159	1.167251	-0.000138
1035	1.0288e+02	-1.2112	-2.710937	0.000395	3.951800	1.338906	-0.000158
1036	1.0298e+02	-1.2465	-2.880496	0.000426	4.255784	1.441899	-0.000170
1037	1.0308e+02	-1.2786	-3.017759	0.000345	3.445159	1.167251	-0.000138
1038	1.0318e+02	-1.3155	-3.138873	0.000304	3.039846	1.029928	-0.000122
1039	1.0328e+02	-1.3556	-3.304396	0.000415	4.154456	1.407568	-0.000166
1040	1.0338e+02	-1.4037	-3.469918	0.000415	4.154456	1.407568	-0.000166
1041	1.0348e+02	-1.4438	-3.615255	0.000365	3.647815	1.235913	-0.000146
1042	1.0358e+02	-1.4871	-3.788852	0.000436	4.357112	1.476230	-0.000174
1043	1.0368e+02	-1.5144	-3.914003	0.000314	3.141174	1.064259	-0.000126
1044	1.0378e+02	-1.5657	-4.010894	0.000243	2.431877	0.823942	-0.000097
1045	1.0388e+02	-1.6010	-4.208714	0.000497	4.965082	1.682215	-0.000199
1046	1.0398e+02	-1.6379	-4.337902	0.000324	3.242502	1.098589	-0.000130
1047	1.0408e+02	-1.6860	-4.479202	0.000355	3.546487	1.201582	-0.000142
1048	1.0418e+02	-1.7165	-4.672985	0.000486	4.863753	1.647884	-0.000195
1049	1.0428e+02	-1.7598	-4.794099	0.000304	3.039846	1.029928	-0.000122
1050	1.0438e+02	-1.7951	-4.943473	0.000375	3.749143	1.270244	-0.000150
1051	1.0447e+02	-1.8352	-5.064587	0.000304	3.039846	1.029928	-0.000122
1052	1.0457e+02	-1.8866	-5.222035	0.000395	3.951800	1.338906	-0.000158
1053	1.0467e+02	-1.9187	-5.343149	0.000304	3.039846	1.029928	-0.000122
1054	1.0477e+02	-1.9588	-5.524820	0.000456	4.559769	1.544891	-0.000183
1055	1.0487e+02	-2.0021	-5.658046	0.000334	3.343830	1.132920	-0.000134
1056	1.0497e+02	-2.0422	-5.767048	0.000274	2.735861	0.926935	-0.000110
1057	1.0507e+02	-2.0775	-5.948720	0.000456	4.559769	1.544891	-0.000183
1058	1.0517e+02	-2.1224	-6.098094	0.000375	3.749143	1.270244	-0.000150
1059	1.0527e+02	-2.1657	-6.207096	0.000274	2.735861	0.926935	-0.000110
1060	1.0537e+02	-2.1898	-6.344359	0.000345	3.445159	1.167251	-0.000138
1061	1.0547e+02	-2.2363	-6.461436	0.000294	2.938518	0.995597	-0.000118
1062	1.0557e+02	-2.2812	-6.618884	0.000395	3.951800	1.338906	-0.000158
1063	1.0567e+02	-2.3245	-6.756147	0.000345	3.445159	1.167251	-0.000138
1064	1.0577e+02	-2.3598	-6.925706	0.000426	4.255784	1.441899	-0.000170
1065	1.0587e+02	-2.3967	-7.018560	0.000233	2.330548	0.789611	-0.000093
1066	1.0597e+02	-2.4400	-7.220417	0.000507	5.066410	1.716546	-0.000203
1067	1.0607e+02	-2.4801	-7.317309	0.000243	2.431877	0.823942	-0.000097
1068	1.0617e+02	-2.5154	-7.450534	0.000334	3.343830	1.132920	-0.000134
1069	1.0627e+02	-2.5716	-7.612019	0.000405	4.053128	1.373237	-0.000162
1070	1.0637e+02	-2.6005	-7.716985	0.000263	2.634533	0.892604	-0.000105
1071	1.0647e+02	-2.6390	-7.858285	0.000355	3.546487	1.201582	-0.000142
1072	1.0656e+02	-2.6807	-8.064179	0.000517	5.167738	1.750877	-0.000207
1073	1.0666e+02	-2.7095	-8.152996	0.000223	2.229220	0.755280	-0.000089
1074	1.0676e+02	-2.7561	-8.318518	0.000415	4.154456	1.407568	-0.000166
1075	1.0686e+02	-2.8058	-8.455781	0.000345	3.445159	1.167251	-0.000138
1076	1.0696e+02	-2.8411	-8.584969	0.000324	3.242502	1.098589	-0.000130
1077	1.0706e+02	-2.8732	-8.710120	0.000314	3.141174	1.064259	-0.000126
1078	1.0716e+02	-2.9133	-8.859494	0.000375	3.749143	1.270244	-0.000150
1079	1.0726e+02	-2.9518	-9.004831	0.000365	3.647815	1.235913	-0.000146
1080	1.0736e+02	-2.9935	-9.150168	0.000365	3.647815	1.235913	-0.000146
1081	1.0746e+02	-3.0384	-9.271282	0.000304	3.039846	1.029928	-0.000122
1082	1.0756e+02	-3.0753	-9.388359	0.000294	2.938518	0.995597	-0.000118
1083	1.0766e+02	-3.1122	-9.533696	0.000365	3.647815	1.235913	-0.000146
1084	1.0776e+02	-3.1619	-9.674996	0.000355	3.546487	1.201582	-0.000142
1085	1.0786e+02	-3.1924	-9.796110	0.000304	3.039846	1.029928	-0.000122
1086	1.0796e+02	-3.2309	-9.969707	0.000436	4.357112	1.476230	-0.000174
1087	1.0806e+02	-3.2694	-10.135229	0.000415	4.154456	1.407568	-0.000166
1088	1.0816e+02	-3.3159	-10.236158	0.000253	2.533205	0.858273	-0.000101
1089	1.0826e+02	-3.3528	-10.361309	0.000314	3.141174	1.064259	-0.000126
1090	1.0836e+02	-3.3930	-10.498571	0.000345	3.445159	1.167251	-0.000138
1091	1.0845e+02	-3.4282	-10.672168	0.000436	4.357112	1.476230	-0.000174
1092	1.0855e+02	-3.4748	-10.789245	0.000294	2.938518	0.995597	-0.000118
1093	1.0865e+02	-3.5197	-10.902285	0.000284	2.837189	0.961266	-0.000114
1094	1.0875e+02	-3.5582	-11.035511	0.000334	3.343830	1.132920	-0.000134
1095	1.0885e+02	-3.5935	-11.184885	0.000375	3.749143	1.270244	-0.000150
1096	1.0895e+02	-3.6352	-11.346370	0.000405	4.053128	1.373237	-0.000162
1097	1.0905e+02	-3.6785	-11.415001	0.000172	1.722579	0.583626	-0.000069
1098	1.0915e+02	-3.7122	-11.604747	0.000476	4.762425	1.613553	-0.000191
1099	1.0925e+02	-3.7555	-11.717786	0.000284	2.837189	0.961266	-0.000114
1100	1.0935e+02	-3.7876	-11.867161	0.000375	3.749143	1.270244	-0.000150
1101	1.0945e+02	-3.8309	-12.000386	0.000334	3.343830	1.132920	-0.000134
1102	1.0955e+02	-3.8678	-12.145723	0.000365	3.647815	1.235913	-0.000146
1103	1.0965e+02	-3.9095	-12.226466	0.000203	2.026564	0.686618	-0.000081
1104	1.0975e+02	-3.9592	-12.424285	0.000497	4.965082	1.682215	-0.000199
1105	1.0985e+02	-3.9961	-12.529251	0.000263	2.634533	0.892604	-0.000105
1106	1.0995e+02	-4.0298	-12.670551	0.000355	3.546487	1.201582	-0.000142
1107	1.1005e+02	-4.0796	-12.807813	0.000345	3.445159	1.167251	-0.000138
1108	1.1015e+02	-4.1116	-12.916816	0.000274	2.735861	0.926935	-0.000110
1109	1.1025e+02	-4.1518	-13.046004	0.000324	3.242502	1.098589	-0.000130
1110	1.1035e+02	-4.1806	-13.223638	0.000446	4.458441	1.510561	-0.000179
1111	1.1044e+02	-4.2288	-13.348789	0.000314	3.141174	1.064259	-0.000126
1112	1.1054e+02	-4.2641	-13.473941	0.000314	3.141174	1.064259	-0.000126
1113	1.1064e+02	-4.3154	-13.611203	0.000345	3.445159	1.167251	-0.000138
1114	1.1074e+02	-4.3523	-13.752503	0.000355	3.546487	1.201582	-0.000142
1115	1.1084e+02	-4.3844	-13.885728	0.000334	3.343830	1.132920	-0.000134
1116	1.1094e+02	-4.4261	-14.014917	0.000324	3.242502	1.098589	-0.000130
1117	1.1104e+02	-4.4726	-14.160254	0.000365	3.647815	1.235913	-0.000146
1118	1.1114e+02	-4.5031	-14.285405	0.000314	3.141174	1.064259	-0.000126
1119	1.1124e+02	-4.5496	-14.442853	0.000395	3.951800	1.338906	-0.000158
1120	1.1134e+02	-4.5897	-14.539744	0.000243	2.431877	0.823942	-0.000097
1121	1.1144e+02	-4.6298	-14.689118	0.000375	3.749143	1.270244	-0.000150
1122	1.1154e+02	-4.6683	-14.810232	0.000304	3.039846	1.029928	-0.000122
1123	1.1164e+02	-4.7084	-14.971718	0.000405	4.053128	1.373237	-0.000162
1124	1.1174e+02	-4.7469	-15.100906	0.000324	3.242502	1.098589	-0.000130
1125	1.1184e+02	-4.7902	-15.250280	0.000375	3.749143	1.270244	-0.000150
1126	1.1194e+02	-4.8319	-15.343134	0.000233	2.330548	0.789611	-0.000093
1127	1.1204e+02	-4.8721	-15.504620	0.000405	4.053128	1.373237	-0.000162
1128	1.1214e+02	-4.9170	-15.621697	0.000294	2.938518	0.995597	-0.000118
1129	1.1224e+02	-4.9491	-15.738774	0.000294	2.938518	0.995597	-0.000118
1130	1.1234e+02	-4.9924	-15.876036	0.000345	3.445159	1.167251	-0.000138
1131	1.1244e+02	-5.0309	-16.021373	0.000365	3.647815	1.235913	-0.000146
1132	1.1253e+02	-5.0694	-16.142487	0.000304	3.039846	1.029928	-0.000122
1133	1.1263e+02	-5.0966	-16.279750	0.000345	3.445159	1.167251	-0.000138
1134	1.1273e+02	-5.1416	-16.421050	0.000355	3.546487	1.201582	-0.000142
1135	1.1283e+02	-5.1849	-16.558312	0.000345	3.445159	1.167251	-0.000138
1136	1.1293e+02	-5.2282	-16.671352	0.000284	2.837189	0.961266	-0.000114
1137	1.1303e+02	-5.2683	-16.848986	0.000446	4.458441	1.510561	-0.000179
1138	1.1313e+02	-5.3052	-16.941840	0.000233	2.330548	0.789611	-0.000093
1139	1.1323e+02	-5.3533	-17.083140	0.000355	3.546487	1.201582	-0.000142
1140	1.1333e+02	-5.3966	-17.196180	0.000284	2.837189	0.961266	-0.000114
1141	1.1343e+02	-5.4255	-17.345554	0.000375	3.749143	1.270244	-0.000150
1142	1.1353e+02	-5.4640	-17.511076	0.000415	4.154456	1.407568	-0.000166
1143	1.1363e+02	-5.5121	-17.636227	0.000314	3.141174	1.064259	-0.000126
1144	1.1373e+02	-5.5506	-17.737156	0.000253	2.533205	0.858273	-0.000101
1145	1.1383e+02	-5.5924	-17.882493	0.000365	3.647815	1.235913	-0.000146
1146	1.1393e+02	-5.6196	-17.995533	0.000284	2.837189	0.961266	-0.000114
1147	1.1403e+02	-5.6790	-18.177204	0.000456	4.559769	1.544891	-0.000183
1148	1.1413e+02	-5.7095	-18.274095	0.000243	2.431877	0.823942	-0.000097
1149	1.1423e+02	-5.7464	-18.387135	0.000284	2.837189	0.961266	-0.000114
1150	1.1433e+02	-5.7752	-18.568806	0.000456	4.559769	1.544891	-0.000183
1151	1.1442e+02	-5.8298	-18.649549	0.000203	2.026564	0.686618	-0.000081
1152	1.1452e+02	-5.8747	-18.819108	0.000426	4.255784	1.441899	-0.000170
1153	1.1462e+02	-5.9020	-18.920037	0.000253	2.533205	0.858273	-0.000101
1154	1.1472e+02	-5.9373	-19.069411	0.000375	3.749143	1.270244	-0.000150
1155	1.1482e+02	-5.9822	-19.190525	0.000304	3.039846	1.029928	-0.000122
1156	1.1492e+02	-6.0335	-19.331824	0.000355	3.546487	1.201582	-0.000142
1157	1.1502e+02	-6.0608	-19.440827	0.000274	2.735861	0.926935	-0.000110
1158	1.1512e+02	-6.1057	-19.590201	0.000375	3.749143	1.270244	-0.000150
1159	1.1522e+02	-6.1474	-19.715352	0.000314	3.141174	1.064259	-0.000126
1160	1.1532e+02	-6.1795	-19.852615	0.000345	3.445159	1.167251	-0.000138
1161	1.1542e+02	-6.2244	-19.977766	0.000314	3.141174	1.064259	-0.000126
1162	1.1552e+02	-6.2597	-20.098880	0.000304	3.039846	1.029928	-0.000122
1163	1.1562e+02	-6.2982	-20.215957	0.000294	2.938518	0.995597	-0.000118
1164	1.1572e+02	-6.3431	-20.377443	0.000405	4.053128	1.373237	-0.000162
1165	1.1582e+02	-6.3881	-20.502594	0.000314	3.141174	1.064259	-0.000126
1166	1.1592e+02	-6.4282	-20.619671	0.000294	2.938518	0.995597	-0.000118
1167	1.1602e+02	-6.4635	-20.736748	0.000294	2.938518	0.995597	-0.000118
1168	1.1612e+02	-6.5052	-20.874010	0.000345	3.445159	1.167251	-0.000138
1169	1.1622e+02	-6.5340	-20.995124	0.000304	3.039846	1.029928	-0.000122
1170	1.1632e+02	-6.5741	-21.116238	0.000304	3.039846	1.029928	-0.000122
1171	1.1642e+02	-6.6078	-21.269650	0.000385	3.850471	1.304575	-0.000154
1172	1.1651e+02	-6.6624	-21.410949	0.000355	3.546487	1.201582	-0.000142
1173	1.1661e+02	-6.7009	-21.528026	0.000294	2.938518	0.995597	-0.000118
1174	1.1671e+02	-6.7346	-21.632992	0.000263	2.634533	0.892604	-0.000105
1175	1.1681e+02	-6.7827	-21.778329	0.000365	3.647815	1.235913	-0.000146
1176	1.1691e+02	-6.8100	-21.919628	0.000355	3.546487	1.201582	-0.000142
1177	1.1701e+02	-6.8469	-22.008445	0.000223	2.229220	0.755280	-0.000089
1178	1.1711e+02	-6.8982	-22.113411	0.000263	2.634533	0.892604	-0.000105
1179	1.1721e+02	-6.9303	-22.266822	0.000385	3.850471	1.304575	-0.000154
1180	1.1731e+02	-6.9784	-22.428308	0.000405	4.053128	1.373237	-0.000162
1181	1.1741e+02	-7.0217	-22.533273	0.000263	2.634533	0.892604	-0.000105
1182	1.1751e+02	-7.0570	-22.654387	0.000304	3.039846	1.029928	-0.000122
1183	1.1761e+02	-7.0939	-22.767427	0.000284	2.837189	0.961266	-0.000114
1184	1.1771e+02	-7.1308	-22.900652	0.000334	3.343830	1.132920	-0.000134
1185	1.1781e+02	-7.1741	-23.045989	0.000365	3.647815	1.235913	-0.000146
1186	1.1791e+02	-7.2142	-23.167103	0.000304	3.039846	1.029928	-0.000122
1187	1.1801e+02	-7.2624	-23.219586	0.000132	1.317267	0.446302	-0.000053
1188	1.1811e+02	-7.2961	-23.389146	0.000426	4.255784	1.441899	-0.000170
1189	1.1821e+02	-7.3362	-23.526409	0.000345	3.445159	1.167251	-0.000138
1190	1.1831e+02	-7.3763	-23.631374	0.000263	2.634533	0.892604	-0.000105
1191	1.1841e+02	-7.4212	-23.768637	0.000345	3.445159	1.167251	-0.000138
1192	1.1850e+02	-7.4581	-23.889751	0.000304	3.039846	1.029928	-0.000122
1193	1.1860e+02	-7.4966	-24.010865	0.000304	3.039846	1.029928	-0.000122
1194	1.1870e+02	-7.5383	-24.168313	0.000395	3.951800	1.338906	-0.000158
1195	1.1880e+02	-7.5736	-24.269241	0.000253	2.533205	0.858273	-0.000101
1196	1.1890e+02	-7.6201	-24.354021	0.000213	2.127892	0.720949	-0.000085
1197	1.1900e+02	-7.6570	-24.491284	0.000345	3.445159	1.167251	-0.000138
1198	1.1910e+02	-7.6971	-24.596249	0.000263	2.634533	0.892604	-0.000105
1199	1.1920e+02	-7.7356	-24.745624	0.000375	3.749143	1.270244	-0.000150
1200	1.1930e+02	-7.7741	-24.802143	0.000142	1.418595	0.480633	-0.000057
1201	1.1940e+02	-7.8174	-24.963629	0.000405	4.053128	1.373237	-0.000162
1202	1.1950e+02	-7.8607	-25.121077	0.000395	3.951800	1.338906	-0.000158
1203	1.1960e+02	-7.8944	-25.213931	0.000233	2.330548	0.789611	-0.000093
1204	1.1970e+02	-7.9329	-25.359268	0.000365	3.647815	1.235913	-0.000146
1205	1.1980e+02	-7.9746	-25.476345	0.000294	2.938518	0.995597	-0.000118
1206	1.1990e+02	-8.0115	-25.589385	0.000284	2.837189	0.961266	-0.000114
1207	1.2000e+02	-8.0581	-25.734722	0.000365	3.647815	1.235913	-0.000146
1208	1.2010e+02	-8.0869	-25.835650	0.000253	2.533205	0.858273	-0.000101
1209	1.2020e+02	-8.1383	-25.952727	0.000294	2.938518	0.995597	-0.000118
1210	1.2030e+02	-8.1671	-26.069804	0.000294	2.938518	0.995597	-0.000118
1211	1.2039e+02	-8.2153	-26.162658	0.000233	2.330548	0.789611	-0.000093
1212	1.2049e+02	-8.2458	-26.291846	0.000324	3.242502	1.098589	-0.000130
1213	1.2059e+02	-8.2907	-26.421035	0.000324	3.242502	1.098589	-0.000130
1214	1.2069e+02	-8.3356	-26.501778	0.000203	2.026564	0.686618	-0.000081
1215	1.2079e+02	-8.3693	-26.667300	0.000415	4.154456	1.407568	-0.000166
1216	1.2089e+02	-8.4190	-26.808600	0.000355	3.546487	1.201582	-0.000142
1217	1.2099e+02	-8.4559	-26.897417	0.000223	2.229220	0.755280	-0.000089
1218	1.2109e+02	-8.4864	-27.066977	0.000426	4.255784	1.441899	-0.000170
1219	1.2119e+02	-8.5233	-27.123496	0.000142	1.418595	0.480633	-0.000057
1220	1.2129e+02	-8.5714	-27.264796	0.000355	3.546487	1.201582	-0.000142
1221	1.2139e+02	-8.6051	-27.385910	0.000304	3.039846	1.029928	-0.000122
1222	1.2149e+02	-8.6548	-27.490876	0.000263	2.634533	0.892604	-0.000105
1223	1.2159e+02	-8.6933	-27.603916	0.000284	2.837189	0.961266	-0.000114
1224	1.2169e+02	-8.7318	-27.729067	0.000314	3.141174	1.064259	-0.000126
1225	1.2179e+02	-8.7752	-27.858255	0.000324	3.242502	1.098589	-0.000130
1226	1.2189e+02	-8.8008	-27.955146	0.000243	2.431877	0.823942	-0.000097
1227	1.2199e+02	-8.8506	-28.060112	0.000263	2.634533	0.892604	-0.000105
1228	1.2209e+02	-8.8955	-28.197375	0.000345	3.445159	1.167251	-0.000138
1229	1.2219e+02	-8.9404	-28.282154	0.000213	2.127892	0.720949	-0.000085
1230	1.2229e+02	-8.9773	-28.427491	0.000365	3.647815	1.235913	-0.000146
1231	1.2239e+02	-9.0142	-28.508234	0.000203	2.026564	0.686618	-0.000081
1232	1.2248e+02	-9.0415	-28.641459	0.000334	3.343830	1.132920	-0.000134
1233	1.2258e+02	-9.0864	-28.798908	0.000395	3.951800	1.338906	-0.000158
1234	1.2268e+02	-9.1329	-28.859465	0.000152	1.519923	0.514964	-0.000061
1235	1.2278e+02	-9.1714	-29.000765	0.000355	3.546487	1.201582	-0.000142
1236	1.2288e+02	-9.2035	-29.113804	0.000284	2.837189	0.961266	-0.000114
1237	1.2298e+02	-9.2452	-29.226844	0.000284	2.837189	0.961266	-0.000114
1238	1.2308e+02	-9.2853	-29.335847	0.000274	2.735861	0.926935	-0.000110
1239	1.2318e+02	-9.3270	-29.444850	0.000274	2.735861	0.926935	-0.000110
1240	1.2328e+02	-9.3639	-29.574038	0.000324	3.242502	1.098589	-0.000130
1241	1.2338e+02	-9.3992	-29.707263	0.000334	3.343830	1.132920	-0.000134
1242	1.2348e+02	-9.4457	-29.755709	0.000122	1.215938	0.411971	-0.000049
1243	1.2358e+02	-9.4874	-29.901046	0.000365	3.647815	1.235913	-0.000146
1244	1.2368e+02	-9.5243	-30.001974	0.000253	2.533205	0.858273	-0.000101
1245	1.2378e+02	-9.5692	-30.135200	0.000334	3.343830	1.132920	-0.000134
1246	1.2388e+02	-9.6142	-30.260351	0.000314	3.141174	1.064259	-0.000126
1247	1.2398e+02	-9.6398	-30.349168	0.000223	2.229220	0.755280	-0.000089
1248	1.2408e+02	-9.6880	-30.522765	0.000436	4.357112	1.476230	-0.000174
1249	1.2418e+02	-9.7313	-30.611582	0.000223	2.229220	0.755280	-0.000089
1250	1.2428e+02	-9.7634	-30.712510	0.000253	2.533205	0.858273	-0.000101
1251	1.2438e+02	-9.8067	-30.833624	0.000304	3.039846	1.029928	-0.000122
1252	1.2447e+02	-9.8532	-30.914367	0.000203	2.026564	0.686618	-0.000081
1253	1.2457e+02	-9.8965	-31.039518	0.000314	3.141174	1.064259	-0.000126
1254	1.2467e+02	-9.9206	-31.196966	0.000395	3.951800	1.338906	-0.000158
1255	1.2477e+02	-9.9671	-31.269635	0.000182	1.823907	0.617957	-0.000073
1256	1.2487e+02	-9.9960	-31.406897	0.000345	3.445159	1.167251	-0.000138
1257	1.2497e+02	-10.0473	-31.552234	0.000365	3.647815	1.235913	-0.000146
1258	1.2507e+02	-10.0874	-31.572420	0.000051	0.506641	0.171655	-0.000020
1259	1.2517e+02	-10.1275	-31.746017	0.000436	4.357112	1.476230	-0.000174
1260	1.2527e+02	-10.1692	-31.859057	0.000284	2.837189	0.961266	-0.000114
1261	1.2537e+02	-10.2093	-31.943837	0.000213	2.127892	0.720949	-0.000085
1262	1.2547e+02	-10.2591	-32.068988	0.000314	3.141174	1.064259	-0.000126
1263	1.2557e+02	-10.2799	-32.173953	0.000263	2.634533	0.892604	-0.000105
1264	1.2567e+02	-10.3264	-32.303142	0.000324	3.242502	1.098589	-0.000130
1265	1.2577e+02	-10.3617	-32.408107	0.000263	2.634533	0.892604	-0.000105
1266	1.2587e+02	-10.4002	-32.541333	0.000334	3.343830	1.132920	-0.000134
1267	1.2597e+02	-10.4452	-32.654372	0.000284	2.837189	0.961266	-0.000114
1268	1.2607e+02	-10.4821	-32.763375	0.000274	2.735861	0.926935	-0.000110
1269	1.2617e+02	-10.5286	-32.872378	0.000274	2.735861	0.926935	-0.000110
1270	1.2627e+02	-10.5687	-32.961195	0.000223	2.229220	0.755280	-0.000089
1271	1.2636e+02	-10.6008	-33.094420	0.000334	3.343830	1.132920	-0.000134
1272	1.2646e+02	-10.6473	-33.203423	0.000274	2.735861	0.926935	-0.000110
1273	1.2656e+02	-10.6826	-33.300314	0.000243	2.431877	0.823942	-0.000097
1274	1.2666e+02	-10.7131	-33.453725	0.000385	3.850471	1.304575	-0.000154
1275	1.2676e+02	-10.7692	-33.510245	0.000142	1.418595	0.480633	-0.000057
1276	1.2686e+02	-10.8077	-33.639434	0.000324	3.242502	1.098589	-0.000130
1277	1.2696e+02	-10.8366	-33.724213	0.000213	2.127892	0.720949	-0.000085
1278	1.2706e+02	-10.8799	-33.885699	0.000405	4.053128	1.373237	-0.000162
1279	1.2716e+02	-10.9248	-33.994701	0.000274	2.735861	0.926935	-0.000110
1280	1.2726e+02	-10.9681	-34.136001	0.000355	3.546487	1.201582	-0.000142
1281	1.2736e+02	-11.0066	-34.232892	0.000243	2.431877	0.823942	-0.000097
1282	1.2746e+02	-11.0355	-34.329784	0.000243	2.431877	0.823942	-0.000097
1283	1.2756e+02	-11.0852	-34.454935	0.000314	3.141174	1.064259	-0.000126
1284	1.2766e+02	-11.1205	-34.567975	0.000284	2.837189	0.961266	-0.000114
1285	1.2776e+02	-11.1590	-34.685052	0.000294	2.938518	0.995597	-0.000118
1286	1.2786e+02	-11.2008	-34.785980	0.000253	2.533205	0.858273	-0.000101
1287	1.2796e+02	-11.2473	-34.903057	0.000294	2.938518	0.995597	-0.000118
1288	1.2806e+02	-11.2826	-34.971688	0.000172	1.722579	0.583626	-0.000069
1289	1.2816e+02	-11.3211	-35.141248	0.000426	4.255784	1.441899	-0.000170
1290	1.2826e+02	-11.3580	-35.234102	0.000233	2.330548	0.789611	-0.000093
1291	1.2835e+02	-11.3981	-35.359253	0.000314	3.141174	1.064259	-0.000126
1292	1.2845e+02	-11.4430	-35.488442	0.000324	3.242502	1.098589	-0.000130
1293	1.2855e+02	-11.4831	-35.581296	0.000233	2.330548	0.789611	-0.000093
1294	1.2865e+02	-11.5168	-35.698373	0.000294	2.938518	0.995597	-0.000118
1295	1.2875e+02	-11.5665	-35.847747	0.000375	3.749143	1.270244	-0.000150
1296	1.2885e+02	-11.5986	-35.932527	0.000213	2.127892	0.720949	-0.000085
1297	1.2895e+02	-11.6387	-36.057678	0.000314	3.141174	1.064259	-0.000126
1298	1.2905e+02	-11.6804	-36.146495	0.000223	2.229220	0.755280	-0.000089
1299	1.2915e+02	-11.7125	-36.307980	0.000405	4.053128	1.373237	-0.000162
1300	1.2925e+02	-11.7606	-36.368537	0.000152	1.519923	0.514964	-0.000061
1301	1.2935e+02	-11.7943	-36.473503	0.000263	2.634533	0.892604	-0.000105
1302	1.2945e+02	-11.8376	-36.622877	0.000375	3.749143	1.270244	-0.000150
1303	1.2955e+02	-11.8761	-36.723805	0.000253	2.533205	0.858273	-0.000101
1304	1.2965e+02	-11.9243	-36.824734	0.000253	2.533205	0.858273	-0.000101
1305	1.2975e+02	-11.9515	-36.953922	0.000324	3.242502	1.098589	-0.000130
1306	1.2985e+02	-11.9997	-37.002368	0.000122	1.215938	0.411971	-0.000049
1307	1.2995e+02	-12.0334	-37.143667	0.000355	3.546487	1.201582	-0.000142
1308	1.3005e+02	-12.0751	-37.321301	0.000446	4.458441	1.510561	-0.000179
1309	1.3015e+02	-12.1232	-37.345524	0.000061	0.607969	0.205986	-0.000024
1310	1.3025e+02	-12.1489	-37.531232	0.000466	4.661097	1.579222	-0.000187
1311	1.3034e+02	-12.2018	-37.680606	0.000375	3.749143	1.270244	-0.000150
1312	1.3044e+02	-12.2435	-37.773461	0.000233	2.330548	0.789611	-0.000093
1313	1.3054e+02	-12.2820	-37.834018	0.000152	1.519923	0.514964	-0.000061
1314	1.3064e+02	-12.3221	-37.987429	0.000385	3.850471	1.304575	-0.000154
1315	1.3074e+02	-12.3622	-38.084320	0.000243	2.431877	0.823942	-0.000097
1316	1.3084e+02	-12.3959	-38.193323	0.000274	2.735861	0.926935	-0.000110
1317	1.3094e+02	-12.4376	-38.310400	0.000294	2.938518	0.995597	-0.000118
1318	1.3104e+02	-12.4761	-38.415365	0.000263	2.634533	0.892604	-0.000105
1319	1.3114e+02	-12.5210	-38.528405	0.000284	2.837189	0.961266	-0.000114
1320	1.3124e+02	-12.5579	-38.677779	0.000375	3.749143	1.270244	-0.000150
1321	1.3134e+02	-12.5964	-38.774670	0.000243	2.431877	0.823942	-0.000097
1322	1.3144e+02	-12.6398	-38.883673	0.000274	2.735861	0.926935	-0.000110
1323	1.3154e+02	-12.6831	-38.996713	0.000284	2.837189	0.961266	-0.000114
1324	1.3164e+02	-12.7119	-39.097641	0.000253	2.533205	0.858273	-0.000101
1325	1.3174e+02	-12.7504	-39.230867	0.000334	3.343830	1.132920	-0.000134
1326	1.3184e+02	-12.7986	-39.347943	0.000294	2.938518	0.995597	-0.000118
1327	1.3194e+02	-12.8274	-39.432723	0.000213	2.127892	0.720949	-0.000085
1328	1.3204e+02	-12.8836	-39.582097	0.000375	3.749143	1.270244	-0.000150
1329	1.3214e+02	-12.9125	-39.666877	0.000213	2.127892	0.720949	-0.000085
1330	1.3224e+02	-12.9574	-39.767806	0.000253	2.533205	0.858273	-0.000101
1331	1.3234e+02	-12.9895	-39.876808	0.000274	2.735861	0.926935	-0.000110
1332	1.3243e+02	-13.0344	-39.981774	0.000263	2.634533	0.892604	-0.000105
1333	1.3253e+02	-13.0809	-40.094814	0.000284	2.837189	0.961266	-0.000114
1334	1.3263e+02	-13.1130	-40.211891	0.000294	2.938518	0.995597	-0.000118
1335	1.3273e+02	-13.1499	-40.341079	0.000324	3.242502	1.098589	-0.000130
1336	1.3283e+02	-13.1964	-40.425859	0.000213	2.127892	0.720949	-0.000085
1337	1.3293e+02	-13.2349	-40.546973	0.000304	3.039846	1.029928	-0.000122
1338	1.3303e+02	-13.2702	-40.655975	0.000274	2.735861	0.926935	-0.000110
1339	1.3313e+02	-13.3151	-40.793238	0.000345	3.445159	1.167251	-0.000138
1340	1.3323e+02	-13.3456	-40.890129	0.000243	2.431877	0.823942	-0.000097
1341	1.3333e+02	-13.3921	-41.003169	0.000284	2.837189	0.961266	-0.000114
1342	1.3343e+02	-13.4242	-41.108135	0.000263	2.634533	0.892604	-0.000105
1343	1.3353e+02	-13.4707	-41.209063	0.000253	2.533205	0.858273	-0.000101
1344	1.3363e+02	-13.5125	-41.318066	0.000274	2.735861	0.926935	-0.000110
1345	1.3373e+02	-13.5558	-41.423031	0.000263	2.634533	0.892604	-0.000105
1346	1.3383e+02	-13.5911	-41.515885	0.000233	2.330548	0.789611	-0.000093
1347	1.3393e+02	-13.6328	-41.669297	0.000385	3.850471	1.304575	-0.000154
1348	1.3403e+02	-13.6729	-41.741965	0.000182	1.823907	0.617957	-0.000073
1349	1.3413e+02	-13.7114	-41.915562	0.000436	4.357112	1.476230	-0.000174
1350	1.3423e+02	-13.7515	-41.992267	0.000193	1.925236	0.652288	-0.000077
1351	1.3432e+02	-13.7964	-42.129530	0.000345	3.445159	1.167251	-0.000138
1352	1.3442e+02	-13.8317	-42.182013	0.000132	1.317267	0.446302	-0.000053
1353	1.3452e+02	-13.8702	-42.339461	0.000395	3.951800	1.338906	-0.000158
1354	1.3462e+02	-13.9087	-42.420204	0.000203	2.026564	0.686618	-0.000081
1355	1.3472e+02	-13.9504	-42.509021	0.000223	2.229220	0.755280	-0.000089
1356	1.3482e+02	-13.9889	-42.630135	0.000304	3.039846	1.029928	-0.000122
1357	1.3492e+02	-14.0322	-42.755286	0.000314	3.141174	1.064259	-0.000126
1358	1.3502e+02	-14.0739	-42.815843	0.000152	1.519923	0.514964	-0.000061
1359	1.3512e+02	-14.1140	-42.969254	0.000385	3.850471	1.304575	-0.000154
1360	1.3522e+02	-14.1509	-43.058071	0.000223	2.229220	0.755280	-0.000089
1361	1.3532e+02	-14.1975	-43.167074	0.000274	2.735861	0.926935	-0.000110
1362	1.3542e+02	-14.2295	-43.272039	0.000263	2.634533	0.892604	-0.000105
1363	1.3552e+02	-14.2761	-43.393153	0.000304	3.039846	1.029928	-0.000122
1364	1.3562e+02	-14.3114	-43.490045	0.000243	2.431877	0.823942	-0.000097
1365	1.3572e+02	-14.3531	-43.558676	0.000172	1.722579	0.583626	-0.000069
1366	1.3582e+02	-14.3868	-43.683827	0.000314	3.141174	1.064259	-0.000126
1367	1.3592e+02	-14.4269	-43.800904	0.000294	2.938518	0.995597	-0.000118
1368	1.3602e+02	-14.4654	-43.926055	0.000314	3.141174	1.064259	-0.000126
1369	1.3612e+02	-14.5103	-43.994687	0.000172	1.722579	0.583626	-0.000069
1370	1.3622e+02	-14.5552	-44.103689	0.000274	2.735861	0.926935	-0.000110
1371	1.3631e+02	-14.5857	-44.204618	0.000253	2.533205	0.858273	-0.000101
1372	1.3641e+02	-14.6258	-44.325732	0.000304	3.039846	1.029928	-0.000122
1373	1.3651e+02	-14.6707	-44.430697	0.000263	2.634533	0.892604	-0.000105
1374	1.3661e+02	-14.7076	-44.531626	0.000253	2.533205	0.858273	-0.000101
1375	1.3671e+02	-14.7525	-44.624480	0.000233	2.330548	0.789611	-0.000093
1376	1.3681e+02	-14.7894	-44.753668	0.000324	3.242502	1.098589	-0.000130
1377	1.3691e+02	-14.8311	-44.874782	0.000304	3.039846	1.029928	-0.000122
1378	1.3701e+02	-14.8680	-44.991859	0.000294	2.938518	0.995597	-0.000118
1379	1.3711e+02	-14.9033	-45.024156	0.000081	0.810626	0.274647	-0.000032
1380	1.3721e+02	-14.9402	-45.125085	0.000253	2.533205	0.858273	-0.000101
1381	1.3731e+02	-14.9900	-45.302719	0.000446	4.458441	1.510561	-0.000179
1382	1.3741e+02	-15.0236	-45.355201	0.000132	1.317267	0.446302	-0.000053
1383	1.3751e+02	-15.0605	-45.452093	0.000243	2.431877	0.823942	-0.000097
1384	1.3761e+02	-15.1087	-45.593392	0.000355	3.546487	1.201582	-0.000142
1385	1.3771e+02	-15.1407	-45.698358	0.000263	2.634533	0.892604	-0.000105
1386	1.3781e+02	-15.1873	-45.734692	0.000091	0.911954	0.308978	-0.000037
1387	1.3791e+02	-15.2226	-45.920400	0.000466	4.661097	1.579222	-0.000187
1388	1.3801e+02	-15.2707	-45.968846	0.000122	1.215938	0.411971	-0.000049
1389	1.3811e+02	-15.3076	-46.061700	0.000233	2.330548	0.789611	-0.000093
1390	1.3821e+02	-15.3429	-46.178777	0.000294	2.938518	0.995597	-0.000118
1391	1.3831e+02	-15.3958	-46.247408	0.000172	1.722579	0.583626	-0.000069
1392	1.3840e+02	-15.4199	-46.376597	0.000324	3.242502	1.098589	-0.000130
1393	1.3850e+02	-15.4616	-46.493674	0.000294	2.938518	0.995597	-0.000118
1394	1.3860e+02	-15.4969	-46.614788	0.000304	3.039846	1.029928	-0.000122
1395	1.3870e+02	-15.5466	-46.667271	0.000132	1.317267	0.446302	-0.000053
1396	1.3880e+02	-15.5867	-46.780310	0.000284	2.837189	0.961266	-0.000114
1397	1.3890e+02	-15.6268	-46.885276	0.000263	2.634533	0.892604	-0.000105
1398	1.3900e+02	-15.6621	-46.998316	0.000284	2.837189	0.961266	-0.000114
1399	1.3910e+02	-15.7038	-47.062910	0.000162	1.621251	0.549295	-0.000065
1400	1.3920e+02	-15.7423	-47.200172	0.000345	3.445159	1.167251	-0.000138
1401	1.3930e+02	-15.7760	-47.317249	0.000294	2.938518	0.995597	-0.000118
1402	1.3940e+02	-15.8290	-47.393955	0.000193	1.925236	0.652288	-0.000077
1403	1.3950e+02	-15.8578	-47.551403	0.000395	3.951800	1.338906	-0.000158
1404	1.3960e+02	-15.9060	-47.607923	0.000142	1.418595	0.480633	-0.000057
1405	1.3970e+02	-15.9445	-47.696740	0.000223	2.229220	0.755280	-0.000089
1406	1.3980e+02	-15.9814	-47.805743	0.000274	2.735861	0.926935	-0.000110
1407	1.3990e+02	-16.0279	-47.894560	0.000223	2.229220	0.755280	-0.000089
1408	1.4000e+02	-16.0712	-47.975303	0.000203	2.026564	0.686618	-0.000081
1409	1.4010e+02	-16.1001	-48.120639	0.000365	3.647815	1.235913	-0.000146
1410	1.4020e+02	-16.1434	-48.189271	0.000172	1.722579	0.583626	-0.000069
1411	1.4029e+02	-16.1803	-48.278088	0.000223	2.229220	0.755280	-0.000089
1412	1.4039e+02	-16.2284	-48.403239	0.000314	3.141174	1.064259	-0.000126
1413	1.4049e+02	-16.2509	-48.492056	0.000223	2.229220	0.755280	-0.000089
1414	1.4059e+02	-16.3054	-48.580873	0.000223	2.229220	0.755280	-0.000089
1415	1.4069e+02	-16.3519	-48.726210	0.000365	3.647815	1.235913	-0.000146
1416	1.4079e+02	-16.3776	-48.778693	0.000132	1.317267	0.446302	-0.000053
1417	1.4089e+02	-16.4145	-48.899807	0.000304	3.039846	1.029928	-0.000122
1418	1.4099e+02	-16.4578	-49.012846	0.000284	2.837189	0.961266	-0.000114
1419	1.4109e+02	-16.5027	-49.089552	0.000193	1.925236	0.652288	-0.000077
1420	1.4119e+02	-16.5428	-49.198555	0.000274	2.735861	0.926935	-0.000110
1421	1.4129e+02	-16.5830	-49.299483	0.000253	2.533205	0.858273	-0.000101
1422	1.4139e+02	-16.6231	-49.384263	0.000213	2.127892	0.720949	-0.000085
1423	1.4149e+02	-16.6648	-49.485191	0.000253	2.533205	0.858273	-0.000101
1424	1.4159e+02	-16.6920	-49.638602	0.000385	3.850471	1.304575	-0.000154
1425	1.4169e+02	-16.7338	-49.687048	0.000122	1.215938	0.411971	-0.000049
1426	1.4179e+02	-16.7851	-49.800088	0.000284	2.837189	0.961266	-0.000114
1427	1.4189e+02	-16.8140	-49.909091	0.000274	2.735861	0.926935	-0.000110
1428	1.4199e+02	-16.8621	-49.997908	0.000223	2.229220	0.755280	-0.000089
1429	1.4209e+02	-16.9006	-50.066539	0.000172	1.722579	0.583626	-0.000069
1430	1.4219e+02	-16.9359	-50.175542	0.000274	2.735861	0.926935	-0.000110
1431	1.4228e+02	-16.9744	-50.296656	0.000304	3.039846	1.029928	-0.000122
1432	1.4238e+02	-17.0225	-50.417770	0.000304	3.039846	1.029928	-0.000122
1433	1.4248e+02	-17.0578	-50.490438	0.000182	1.823907	0.617957	-0.000073
1434	1.4258e+02	-17.1011	-50.615589	0.000314	3.141174	1.064259	-0.000126
1435	1.4268e+02	-17.1396	-50.716518	0.000253	2.533205	0.858273	-0.000101
1436	1.4278e+02	-17.1797	-50.789186	0.000182	1.823907	0.617957	-0.000073
1437	1.4288e+02	-17.2295	-50.898189	0.000274	2.735861	0.926935	-0.000110
1438	1.4298e+02	-17.2535	-51.035451	0.000345	3.445159	1.167251	-0.000138
1439	1.4308e+02	-17.2984	-51.108120	0.000182	1.823907	0.617957	-0.000073
1440	1.4318e+02	-17.3369	-51.209048	0.000253	2.533205	0.858273	-0.000101
1441	1.4328e+02	-17.3899	-51.326125	0.000294	2.938518	0.995597	-0.000118
1442	1.4338e+02	-17.4172	-51.439165	0.000284	2.837189	0.961266	-0.000114
1443	1.4348e+02	-17.4637	-51.515871	0.000193	1.925236	0.652288	-0.000077
1444	1.4358e+02	-17.5038	-51.608725	0.000233	2.330548	0.789611	-0.000093
1445	1.4368e+02	-17.5359	-51.750024	0.000355	3.546487	1.201582	-0.000142
1446	1.4378e+02	-17.5776	-51.863064	0.000284	2.837189	0.961266	-0.000114
1447	1.4388e+02	-17.6113	-51.927658	0.000162	1.621251	0.549295	-0.000065
1448	1.4398e+02	-17.6562	-52.056847	0.000324	3.242502	1.098589	-0.000130
1449	1.4408e+02	-17.7091	-52.125478	0.000172	1.722579	0.583626	-0.000069
1450	1.4418e+02	-17.7236	-52.214295	0.000223	2.229220	0.755280	-0.000089
1451	1.4428e+02	-17.7797	-52.347521	0.000334	3.343830	1.132920	-0.000134
1452	1.4437e+02	-17.8182	-52.448449	0.000253	2.533205	0.858273	-0.000101
1453	1.4447e+02	-17.8583	-52.577637	0.000324	3.242502	1.098589	-0.000130
1454	1.4457e+02	-17.8936	-52.658380	0.000203	2.026564	0.686618	-0.000081
1455	1.4467e+02	-17.9289	-52.767383	0.000274	2.735861	0.926935	-0.000110
1456	1.4477e+02	-17.9802	-52.884460	0.000294	2.938518	0.995597	-0.000118
1457	1.4487e+02	-18.0252	-52.969239	0.000213	2.127892	0.720949	-0.000085
1458	1.4497e+02	-18.0524	-53.070168	0.000253	2.533205	0.858273	-0.000101
1459	1.4507e+02	-18.1038	-53.167059	0.000243	2.431877	0.823942	-0.000097
1460	1.4517e+02	-18.1391	-53.316433	0.000375	3.749143	1.270244	-0.000150
1461	1.4527e+02	-18.1663	-53.389102	0.000182	1.823907	0.617957	-0.000073
1462	1.4537e+02	-18.2129	-53.457733	0.000172	1.722579	0.583626	-0.000069
1463	1.4547e+02	-18.2546	-53.590958	0.000334	3.343830	1.132920	-0.000134
1464	1.4557e+02	-18.2915	-53.687850	0.000243	2.431877	0.823942	-0.000097
1465	1.4567e+02	-18.3348	-53.792815	0.000263	2.634533	0.892604	-0.000105
1466	1.4577e+02	-18.3653	-53.901818	0.000274	2.735861	0.926935	-0.000110
1467	1.4587e+02	-18.4166	-54.067340	0.000415	4.154456	1.407568	-0.000166
1468	1.4597e+02	-18.4535	-54.127897	0.000152	1.519923	0.514964	-0.000061
1469	1.4607e+02	-18.4968	-54.240937	0.000284	2.837189	0.961266	-0.000114
1470	1.4617e+02	-18.5433	-54.333791	0.000233	2.330548	0.789611	-0.000093
1471	1.4626e+02	-18.5786	-54.434720	0.000253	2.533205	0.858273	-0.000101
1472	1.4636e+02	-18.6139	-54.507388	0.000182	1.823907	0.617957	-0.000073
1473	1.4646e+02	-18.6556	-54.600242	0.000233	2.330548	0.789611	-0.000093
1474	1.4656e+02	-18.6925	-54.761728	0.000405	4.053128	1.373237	-0.000162
1475	1.4666e+02	-18.7374	-54.862656	0.000253	2.533205	0.858273	-0.000101
1476	1.4676e+02	-18.7743	-54.975696	0.000284	2.837189	0.961266	-0.000114
1477	1.4686e+02	-18.8080	-55.080661	0.000263	2.634533	0.892604	-0.000105
1478	1.4696e+02	-18.8465	-55.201776	0.000304	3.039846	1.029928	-0.000122
1479	1.4706e+02	-18.8930	-55.294630	0.000233	2.330548	0.789611	-0.000093
1480	1.4716e+02	-18.9251	-55.363261	0.000172	1.722579	0.583626	-0.000069
1481	1.4726e+02	-18.9749	-55.524746	0.000405	4.053128	1.373237	-0.000162
1482	1.4736e+02	-19.0070	-55.613563	0.000223	2.229220	0.755280	-0.000089
1483	1.4746e+02	-19.0551	-55.758900	0.000365	3.647815	1.235913	-0.000146
1484	1.4756e+02	-19.0952	-55.847717	0.000223	2.229220	0.755280	-0.000089
1485	1.4766e+02	-19.1241	-55.972868	0.000314	3.141174	1.064259	-0.000126
1486	1.4776e+02	-19.1738	-56.053611	0.000203	2.026564	0.686618	-0.000081
1487	1.4786e+02	-19.2107	-56.138391	0.000213	2.127892	0.720949	-0.000085
1488	1.4796e+02	-19.2524	-56.263542	0.000314	3.141174	1.064259	-0.000126
1489	1.4806e+02	-19.2893	-56.332174	0.000172	1.722579	0.583626	-0.000069
1490	1.4816e+02	-19.3326	-56.513845	0.000456	4.559769	1.544891	-0.000183
1491	1.4825e+02	-19.3663	-56.610736	0.000243	2.431877	0.823942	-0.000097
1492	1.4835e+02	-19.4192	-56.691479	0.000203	2.026564	0.686618	-0.000081
1493	1.4845e+02	-19.4561	-56.828741	0.000345	3.445159	1.167251	-0.000138
1494	1.4855e+02	-19.4914	-56.941781	0.000284	2.837189	0.961266	-0.000114
1495	1.4865e+02	-19.5251	-57.062895	0.000304	3.039846	1.029928	-0.000122
1496	1.4875e+02	-19.5716	-57.131526	0.000172	1.722579	0.583626	-0.000069
1497	1.4885e+02	-19.6101	-57.224381	0.000233	2.330548	0.789611	-0.000093
1498	1.4895e+02	-19.6470	-57.349532	0.000314	3.141174	1.064259	-0.000126
1499	1.4905e+02	-19.6855	-57.442386	0.000233	2.330548	0.789611	-0.000093
1500	1.4915e+02	-19.7208	-57.551389	0.000274	2.735861	0.926935	-0.000110
1501	1.4925e+02	-19.7738	-57.688651	0.000345	3.445159	1.167251	-0.000138
1502	1.4935e+02	-19.8059	-57.809765	0.000304	3.039846	1.029928	-0.000122
1503	1.4945e+02	-19.8412	-57.886471	0.000193	1.925236	0.652288	-0.000077
1504	1.4955e+02	-19.9005	-58.015659	0.000324	3.242502	1.098589	-0.000130
1505	1.4965e+02	-19.9278	-58.136773	0.000304	3.039846	1.029928	-0.000122
1506	1.4975e+02	-19.9679	-58.265962	0.000324	3.242502	1.098589	-0.000130
1507	1.4985e+02	-20.0144	-58.358816	0.000233	2.330548	0.789611	-0.000093
1508	1.4995e+02	-19.9759	-58.306333	0.000132	1.317267	0.446302	0.000053
1509	1.5005e+02	-19.9198	-58.241739	0.000162	1.621251	0.549295	0.000065
1510	1.5015e+02	-19.8829	-58.201367	0.000101	1.013282	0.343309	0.000041
1511	1.5025e+02	-19.8540	-58.140810	0.000152	1.519923	0.514964	0.000061
1512	1.5034e+02	-19.7914	-58.072179	0.000172	1.722579	0.583626	0.000069
1513	1.5044e+02	-19.7706	-57.999511	0.000182	1.823907	0.617957	0.000073
1514	1.5054e+02	-19.7273	-57.947028	0.000132	1.317267	0.446302	0.000053
1515	1.5064e+02	-19.6936	-57.934916	0.000030	0.303985	0.102993	0.000012
1516	1.5074e+02	-19.6422	-57.854174	0.000203	2.026564	0.686618	0.000081
1517	1.5084e+02	-19.6166	-57.749208	0.000263	2.634533	0.892604	0.000105
1518	1.5094e+02	-19.5700	-57.720948	0.000071	0.709297	0.240316	0.000028
1519	1.5104e+02	-19.5267	-57.603871	0.000294	2.938518	0.995597	0.000118
1520	1.5114e+02	-19.4786	-57.571574	0.000081	0.810626	0.274647	0.000032
1521	1.5124e+02	-19.4465	-57.567537	0.000010	0.101328	0.034331	0.000004
1522	1.5134e+02	-19.4064	-57.442386	0.000314	3.141174	1.064259	0.000126
1523	1.5144e+02	-19.3663	-57.353569	0.000223	2.229220	0.755280	0.000089
1524	1.5154e+02	-19.3342	-57.341457	0.000030	0.303985	0.102993	0.000012
1525	1.5164e+02	-19.2893	-57.252640	0.000223	2.229220	0.755280	0.000089
1526	1.5174e+02	-19.2476	-57.196121	0.000142	1.418595	0.480633	0.000057
1527	1.5184e+02	-19.2155	-57.111341	0.000213	2.127892	0.720949	0.000085
1528	1.5194e+02	-19.1658	-57.022524	0.000223	2.229220	0.755280	0.000089
1529	1.5204e+02	-19.1289	-56.961967	0.000152	1.519923	0.514964	0.000061
1530	1.5214e+02	-19.0984	-56.877187	0.000213	2.127892	0.720949	0.000085
1531	1.5224e+02	-19.0471	-56.820667	0.000142	1.418595	0.480633	0.000057
1532	1.5233e+02	-19.0198	-56.735887	0.000213	2.127892	0.720949	0.000085
1533	1.5243e+02	-18.9765	-56.643033	0.000233	2.330548	0.789611	0.000093
1534	1.5253e+02	-18.9348	-56.590550	0.000132	1.317267	0.446302	0.000053
1535	1.5263e+02	-18.8930	-56.505770	0.000213	2.127892	0.720949	0.000085
1536	1.5273e+02	-18.8433	-56.433102	0.000182	1.823907	0.617957	0.000073
1537	1.5283e+02	-18.8064	-56.380619	0.000132	1.317267	0.446302	0.000053
1538	1.5293e+02	-18.7727	-56.320062	0.000152	1.519923	0.514964	0.000061
1539	1.5303e+02	-18.7358	-56.227208	0.000233	2.330548	0.789611	0.000093
1540	1.5313e+02	-18.6957	-56.122242	0.000263	2.634533	0.892604	0.000105
1541	1.5323e+02	-18.6556	-56.021314	0.000253	2.533205	0.858273	0.000101
1542	1.5333e+02	-18.6171	-55.976906	0.000111	1.114610	0.377640	0.000045
1543	1.5343e+02	-18.5770	-55.892126	0.000213	2.127892	0.720949	0.000085
1544	1.5353e+02	-18.5385	-55.843680	0.000122	1.215938	0.411971	0.000049
1545	1.5363e+02	-18.4968	-55.734677	0.000274	2.735861	0.926935	0.000110
1546	1.5373e+02	-18.4631	-55.682195	0.000132	1.317267	0.446302	0.000053
1547	1.5383e+02	-18.4198	-55.613563	0.000172	1.722579	0.583626	0.000069
1548	1.5393e+02	-18.3781	-55.524746	0.000223	2.229220	0.755280	0.000089
1549	1.5403e+02	-18.3332	-55.439967	0.000213	2.127892	0.720949	0.000085
1550	1.5413e+02	-18.2899	-55.355187	0.000213	2.127892	0.720949	0.000085
1551	1.5422e+02	-18.2481	-55.254258	0.000253	2.533205	0.858273	0.000101
1552	1.5432e+02	-18.2225	-55.189664	0.000162	1.621251	0.549295	0.000065
1553	1.5442e+02	-18.1776	-55.100847	0.000223	2.229220	0.755280	0.000089
1554	1.5452e+02	-18.1375	-55.032216	0.000172	1.722579	0.583626	0.000069
1555	1.5462e+02	-18.0893	-54.898990	0.000334	3.343830	1.132920	0.000134
1556	1.5472e+02	-18.0588	-54.866693	0.000081	0.810626	0.274647	0.000032
1557	1.5482e+02	-18.0252	-54.802099	0.000162	1.621251	0.549295	0.000065
1558	1.5492e+02	-17.9706	-54.709245	0.000233	2.330548	0.789611	0.000093
1559	1.5502e+02	-17.9353	-54.640614	0.000172	1.722579	0.583626	0.000069
1560	1.5512e+02	-17.9064	-54.531611	0.000274	2.735861	0.926935	0.000110
1561	1.5522e+02	-17.8599	-54.462980	0.000172	1.722579	0.583626	0.000069
1562	1.5532e+02	-17.8054	-54.358014	0.000263	2.634533	0.892604	0.000105
1563	1.5542e+02	-17.7797	-54.309569	0.000122	1.215938	0.411971	0.000049
1564	1.5552e+02	-17.7348	-54.204603	0.000263	2.634533	0.892604	0.000105
1565	1.5562e+02	-17.6979	-54.067340	0.000345	3.445159	1.167251	0.000138
1566	1.5572e+02	-17.6578	-54.022932	0.000111	1.114610	0.377640	0.000045
1567	1.5582e+02	-17.6177	-53.950263	0.000182	1.823907	0.617957	0.000073
1568	1.5592e+02	-17.5792	-53.845298	0.000263	2.634533	0.892604	0.000105
1569	1.5602e+02	-17.5343	-53.804927	0.000101	1.013282	0.343309	0.000041
1570	1.5612e+02	-17.4958	-53.712072	0.000233	2.330548	0.789611	0.000093
1571	1.5622e+02	-17.4524	-53.635367	0.000193	1.925236	0.652288	0.000077
1572	1.5631e+02	-17.4172	-53.514253	0.000304	3.039846	1.029928	0.000122
1573	1.5641e+02	-17.3674	-53.417362	0.000243	2.431877	0.823942	0.000097
1574	1.5651e+02	-17.3353	-53.336619	0.000203	2.026564	0.686618	0.000081
1575	1.5661e+02	-17.3033	-53.239728	0.000243	2.431877	0.823942	0.000097
1576	1.5671e+02	-17.2519	-53.183208	0.000142	1.418595	0.480633	0.000057
1577	1.5681e+02	-17.2182	-53.082279	0.000253	2.533205	0.858273	0.000101
1578	1.5691e+02	-17.1797	-53.033834	0.000122	1.215938	0.411971	0.000049
1579	1.5701e+02	-17.1412	-52.916757	0.000294	2.938518	0.995597	0.000118
1580	1.5711e+02	-17.1011	-52.840051	0.000193	1.925236	0.652288	0.000077
1581	1.5721e+02	-17.0594	-52.727011	0.000284	2.837189	0.961266	0.000114
1582	1.5731e+02	-17.0097	-52.678566	0.000122	1.215938	0.411971	0.000049
1583	1.5741e+02	-16.9808	-52.557452	0.000304	3.039846	1.029928	0.000122
1584	1.5751e+02	-16.9487	-52.468635	0.000223	2.229220	0.755280	0.000089
1585	1.5761e+02	-16.8990	-52.408078	0.000152	1.519923	0.514964	0.000061
1586	1.5771e+02	-16.8621	-52.311186	0.000243	2.431877	0.823942	0.000097
1587	1.5781e+02	-16.8172	-52.230444	0.000203	2.026564	0.686618	0.000081
1588	1.5791e+02	-16.7739	-52.149701	0.000203	2.026564	0.686618	0.000081
1589	1.5801e+02	-16.7321	-52.032624	0.000294	2.938518	0.995597	0.000118
1590	1.5811e+02	-16.6985	-51.968030	0.000162	1.621251	0.549295	0.000065
1591	1.5821e+02	-16.6632	-51.895361	0.000182	1.823907	0.617957	0.000073
1592	1.5830e+02	-16.6134	-51.762136	0.000334	3.343830	1.132920	0.000134
1593	1.5840e+02	-16.5862	-51.681393	0.000203	2.026564	0.686618	0.000081
1594	1.5850e+02	-16.5428	-51.649096	0.000081	0.810626	0.274647	0.000032
1595	1.5860e+02	-16.5027	-51.527982	0.000304	3.039846	1.029928	0.000122
1596	1.5870e+02	-16.4610	-51.447239	0.000203	2.026564	0.686618	0.000081
1597	1.5880e+02	-16.4273	-51.330162	0.000294	2.938518	0.995597	0.000118
1598	1.5890e+02	-16.3776	-51.253457	0.000193	1.925236	0.652288	0.000077
1599	1.5900e+02	-16.3439	-51.172714	0.000203	2.026564	0.686618	0.000081
1600	1.5910e+02	-16.2958	-51.059674	0.000284	2.837189	0.961266	0.000114
1601	1.5920e+02	-16.2701	-50.958746	0.000253	2.533205	0.858273	0.000101
1602	1.5930e+02	-16.2364	-50.910300	0.000122	1.215938	0.411971	0.000049
1603	1.5940e+02	-16.1739	-50.797260	0.000284	2.837189	0.961266	0.000114
1604	1.5950e+02	-16.1530	-50.748815	0.000122	1.215938	0.411971	0.000049
1605	1.5960e+02	-16.1017	-50.607515	0.000355	3.546487	1.201582	0.000142
1606	1.5970e+02	-16.0616	-50.518698	0.000223	2.229220	0.755280	0.000089
1607	1.5980e+02	-16.0295	-50.494475	0.000061	0.607969	0.205986	0.000024
1608	1.5990e+02	-15.9862	-50.345101	0.000375	3.749143	1.270244	0.000150
1609	1.6000e+02	-15.9477	-50.252247	0.000233	2.330548	0.789611	0.000093
1610	1.6010e+02	-15.9012	-50.203801	0.000122	1.215938	0.411971	0.000049
1611	1.6019e+02	-15.8562	-50.123059	0.000203	2.026564	0.686618	0.000081
1612	1.6029e+02	-15.8177	-50.010019	0.000284	2.837189	0.961266	0.000114
1613	1.6039e+02	-15.7824	-49.913128	0.000243	2.431877	0.823942	0.000097
1614	1.6049e+02	-15.7359	-49.836422	0.000193	1.925236	0.652288	0.000077
1615	1.6059e+02	-15.7006	-49.755679	0.000203	2.026564	0.686618	0.000081
1616	1.6069e+02	-15.6701	-49.654751	0.000253	2.533205	0.858273	0.000101
1617	1.6079e+02	-15.6316	-49.598231	0.000142	1.418595	0.480633	0.000057
1618	1.6089e+02	-15.5851	-49.489228	0.000274	2.735861	0.926935	0.000110
1619	1.6099e+02	-15.5450	-49.392337	0.000243	2.431877	0.823942	0.000097
1620	1.6109e+02	-15.5001	-49.319669	0.000182	1.823907	0.617957	0.000073
1621	1.6119e+02	-15.4648	-49.275260	0.000111	1.114610	0.377640	0.000045
1622	1.6129e+02	-15.4215	-49.154146	0.000304	3.039846	1.029928	0.000122
1623	1.6139e+02	-15.3814	-49.069366	0.000213	2.127892	0.720949	0.000085
1624	1.6149e+02	-15.3381	-48.956327	0.000284	2.837189	0.961266	0.000114
1625	1.6159e+02	-15.2996	-48.887695	0.000172	1.722579	0.583626	0.000069
1626	1.6169e+02	-15.2707	-48.766581	0.000304	3.039846	1.029928	0.000122
1627	1.6179e+02	-15.2338	-48.714098	0.000132	1.317267	0.446302	0.000053
1628	1.6189e+02	-15.1937	-48.597021	0.000294	2.938518	0.995597	0.000118
1629	1.6199e+02	-15.1456	-48.528390	0.000172	1.722579	0.583626	0.000069
1630	1.6209e+02	-15.1006	-48.435536	0.000233	2.330548	0.789611	0.000093
1631	1.6219e+02	-15.0557	-48.350756	0.000213	2.127892	0.720949	0.000085
1632	1.6228e+02	-15.0236	-48.233679	0.000294	2.938518	0.995597	0.000118
1633	1.6238e+02	-14.9900	-48.165048	0.000172	1.722579	0.583626	0.000069
1634	1.6248e+02	-14.9450	-48.116602	0.000122	1.215938	0.411971	0.000049
1635	1.6258e+02	-14.8985	-47.979340	0.000345	3.445159	1.167251	0.000138
1636	1.6268e+02	-14.8664	-47.882448	0.000243	2.431877	0.823942	0.000097
1637	1.6278e+02	-14.8311	-47.805743	0.000193	1.925236	0.652288	0.000077
1638	1.6288e+02	-14.7766	-47.749223	0.000142	1.418595	0.480633	0.000057
1639	1.6298e+02	-14.7493	-47.611960	0.000345	3.445159	1.167251	0.000138
1640	1.6308e+02	-14.7060	-47.551403	0.000152	1.519923	0.514964	0.000061
1641	1.6318e+02	-14.6659	-47.410104	0.000355	3.546487	1.201582	0.000142
1642	1.6328e+02	-14.6274	-47.369732	0.000101	1.013282	0.343309	0.000041
1643	1.6338e+02	-14.5809	-47.288989	0.000203	2.026564	0.686618	0.000081
1644	1.6348e+02	-14.5552	-47.139615	0.000375	3.749143	1.270244	0.000150
1645	1.6358e+02	-14.5087	-47.115393	0.000061	0.607969	0.205986	0.000024
1646	1.6368e+02	-14.4734	-47.002353	0.000284	2.837189	0.961266	0.000114
1647	1.6378e+02	-14.4317	-46.901424	0.000253	2.533205	0.858273	0.000101
1648	1.6388e+02	-14.3852	-46.824719	0.000193	1.925236	0.652288	0.000077
1649	1.6398e+02	-14.3515	-46.739939	0.000213	2.127892	0.720949	0.000085
1650	1.6408e+02	-14.3130	-46.663233	0.000193	1.925236	0.652288	0.000077
1651	1.6418e+02	-14.2713	-46.586528	0.000193	1.925236	0.652288	0.000077
1652	1.6427e+02	-14.2376	-46.501748	0.000213	2.127892	0.720949	0.000085
1653	1.6437e+02	-14.1878	-46.396782	0.000263	2.634533	0.892604	0.000105
1654	1.6447e+02	-14.1493	-46.291817	0.000263	2.634533	0.892604	0.000105
1655	1.6457e+02	-14.1108	-46.162629	0.000324	3.242502	1.098589	0.000130
1656	1.6467e+02	-14.0755	-46.093997	0.000172	1.722579	0.583626	0.000069
1657	1.6477e+02	-14.0322	-46.017292	0.000193	1.925236	0.652288	0.000077
1658	1.6487e+02	-13.9937	-45.924438	0.000233	2.330548	0.789611	0.000093
1659	1.6497e+02	-13.9408	-45.875992	0.000122	1.215938	0.411971	0.000049
1660	1.6507e+02	-13.9055	-45.746804	0.000324	3.242502	1.098589	0.000130
1661	1.6517e+02	-13.8750	-45.629727	0.000294	2.938518	0.995597	0.000118
1662	1.6527e+02	-13.8285	-45.601467	0.000071	0.709297	0.240316	0.000028
1663	1.6537e+02	-13.7868	-45.480353	0.000304	3.039846	1.029928	0.000122
1664	1.6547e+02	-13.7499	-45.383461	0.000243	2.431877	0.823942	0.000097
1665	1.6557e+02	-13.7194	-45.290607	0.000233	2.330548	0.789611	0.000093
1666	1.6567e+02	-13.6697	-45.221976	0.000172	1.722579	0.583626	0.000069
1667	1.6577e+02	-13.6392	-45.088750	0.000334	3.343830	1.132920	0.000134
1668	1.6587e+02	-13.5911	-45.012045	0.000193	1.925236	0.652288	0.000077
1669	1.6597e+02	-13.5526	-44.927265	0.000213	2.127892	0.720949	0.000085
1670	1.6607e+02	-13.5125	-44.810188	0.000294	2.938518	0.995597	0.000118
1671	1.6616e+02	-13.4772	-44.769817	0.000101	1.013282	0.343309	0.000041
1672	1.6626e+02	-13.4403	-44.628517	0.000355	3.546487	1.201582	0.000142
1673	1.6636e+02	-13.3937	-44.559886	0.000172	1.722579	0.583626	0.000069
1674	1.6646e+02	-13.3536	-44.471069	0.000223	2.229220	0.755280	0.000089
1675	1.6656e+02	-13.3119	-44.362066	0.000274	2.735861	0.926935	0.000110
1676	1.6666e+02	-13.2718	-44.313620	0.000122	1.215938	0.411971	0.000049
1677	1.6676e+02	-13.2349	-44.176358	0.000345	3.445159	1.167251	0.000138
1678	1.6686e+02	-13.1948	-44.119838	0.000142	1.418595	0.480633	0.000057
1679	1.6696e+02	-13.1451	-43.982575	0.000345	3.445159	1.167251	0.000138
1680	1.6706e+02	-13.1178	-43.905870	0.000193	1.925236	0.652288	0.000077
1681	1.6716e+02	-13.0729	-43.837238	0.000172	1.722579	0.583626	0.000069
1682	1.6726e+02	-13.0328	-43.720161	0.000294	2.938518	0.995597	0.000118
1683	1.6736e+02	-12.9991	-43.643456	0.000193	1.925236	0.652288	0.000077
1684	1.6746e+02	-12.9510	-43.566750	0.000193	1.925236	0.652288	0.000077
1685	1.6756e+02	-12.9109	-43.481970	0.000213	2.127892	0.720949	0.000085
1686	1.6766e+02	-12.8708	-43.364894	0.000294	2.938518	0.995597	0.000118
1687	1.6776e+02	-12.8451	-43.280114	0.000213	2.127892	0.720949	0.000085
1688	1.6786e+02	-12.7986	-43.187260	0.000233	2.330548	0.789611	0.000093
1689	1.6796e+02	-12.7585	-43.066145	0.000304	3.039846	1.029928	0.000122
1690	1.6806e+02	-12.7119	-42.977328	0.000223	2.229220	0.755280	0.000089
1691	1.6816e+02	-12.6750	-42.912734	0.000162	1.621251	0.549295	0.000065
1692	1.6825e+02	-12.6430	-42.783546	0.000324	3.242502	1.098589	0.000130
1693	1.6835e+02	-12.5980	-42.678580	0.000263	2.634533	0.892604	0.000105
1694	1.6845e+02	-12.5547	-42.593801	0.000213	2.127892	0.720949	0.000085
1695	1.6855e+02	-12.5178	-42.541318	0.000132	1.317267	0.446302	0.000053
1696	1.6865e+02	-12.4793	-42.432315	0.000274	2.735861	0.926935	0.000110
1697	1.6875e+02	-12.4408	-42.282941	0.000375	3.749143	1.270244	0.000150
1698	1.6885e+02	-12.4007	-42.218347	0.000162	1.621251	0.549295	0.000065
1699	1.6895e+02	-12.3670	-42.109344	0.000274	2.735861	0.926935	0.000110
1700	1.6905e+02	-12.3237	-42.012453	0.000243	2.431877	0.823942	0.000097
1701	1.6915e+02	-12.2804	-41.939785	0.000182	1.823907	0.617957	0.000073
1702	1.6925e+02	-12.2387	-41.830782	0.000274	2.735861	0.926935	0.000110
1703	1.6935e+02	-12.2002	-41.721779	0.000274	2.735861	0.926935	0.000110
1704	1.6945e+02	-12.1697	-41.616814	0.000263	2.634533	0.892604	0.000105
1705	1.6955e+02	-12.1200	-41.527997	0.000223	2.229220	0.755280	0.000089
1706	1.6965e+02	-12.0783	-41.410920	0.000294	2.938518	0.995597	0.000118
1707	1.6975e+02	-12.0398	-41.326140	0.000213	2.127892	0.720949	0.000085
1708	1.6985e+02	-12.0013	-41.213100	0.000284	2.837189	0.961266	0.000114
1709	1.6995e+02	-11.9692	-41.112172	0.000253	2.533205	0.858273	0.000101
1710	1.7005e+02	-11.9114	-41.075838	0.000091	0.911954	0.308978	0.000037
1711	1.7015e+02	-11.8826	-40.918389	0.000395	3.951800	1.338906	0.000158
1712	1.7024e+02	-11.8408	-40.821498	0.000243	2.431877	0.823942	0.000097
1713	1.7034e+02	-11.7943	-40.732681	0.000223	2.229220	0.755280	0.000089
1714	1.7044e+02	-11.7687	-40.631753	0.000253	2.533205	0.858273	0.000101
1715	1.7054e+02	-11.7269	-40.502564	0.000324	3.242502	1.098589	0.000130
1716	1.7064e+02	-11.6756	-40.409710	0.000233	2.330548	0.789611	0.000093
1717	1.7074e+02	-11.6435	-40.304745	0.000263	2.634533	0.892604	0.000105
1718	1.7084e+02	-11.5986	-40.248225	0.000142	1.418595	0.480633	0.000057
1719	1.7094e+02	-11.5713	-40.094814	0.000385	3.850471	1.304575	0.000154
1720	1.7104e+02	-11.5200	-40.014071	0.000203	2.026564	0.686618	0.000081
1721	1.7114e+02	-11.4767	-39.921217	0.000233	2.330548	0.789611	0.000093
1722	1.7124e+02	-11.4430	-39.808177	0.000284	2.837189	0.961266	0.000114
1723	1.7134e+02	-11.3997	-39.695137	0.000284	2.837189	0.961266	0.000114
1724	1.7144e+02	-11.3596	-39.598246	0.000243	2.431877	0.823942	0.000097
1725	1.7154e+02	-11.3243	-39.537689	0.000152	1.519923	0.514964	0.000061
1726	1.7164e+02	-11.2826	-39.420612	0.000294	2.938518	0.995597	0.000118
1727	1.7174e+02	-11.2441	-39.307572	0.000284	2.837189	0.961266	0.000114
1728	1.7184e+02	-11.1975	-39.178384	0.000324	3.242502	1.098589	0.000130
1729	1.7194e+02	-11.1687	-39.081493	0.000243	2.431877	0.823942	0.000097
1730	1.7204e+02	-11.1318	-38.972490	0.000274	2.735861	0.926935	0.000110
1731	1.7213e+02	-11.0869	-38.879636	0.000233	2.330548	0.789611	0.000093
1732	1.7223e+02	-11.0339	-38.798893	0.000203	2.026564	0.686618	0.000081
1733	1.7233e+02	-10.9938	-38.702002	0.000243	2.431877	0.823942	0.000097
1734	1.7243e+02	-10.9713	-38.633370	0.000172	1.722579	0.583626	0.000069
1735	1.7253e+02	-10.9184	-38.459774	0.000436	4.357112	1.476230	0.000174
1736	1.7263e+02	-10.8783	-38.362882	0.000243	2.431877	0.823942	0.000097
1737	1.7273e+02	-10.8446	-38.274065	0.000223	2.229220	0.755280	0.000089
1738	1.7283e+02	-10.8045	-38.140840	0.000334	3.343830	1.132920	0.000134
1739	1.7293e+02	-10.7692	-38.056060	0.000213	2.127892	0.720949	0.000085
1740	1.7303e+02	-10.7243	-37.951095	0.000263	2.634533	0.892604	0.000105
1741	1.7313e+02	-10.6810	-37.817869	0.000334	3.343830	1.132920	0.000134
1742	1.7323e+02	-10.6409	-37.737126	0.000203	2.026564	0.686618	0.000081
1743	1.7333e+02	-10.6008	-37.656384	0.000203	2.026564	0.686618	0.000081
1744	1.7343e+02	-10.5607	-37.543344	0.000284	2.837189	0.961266	0.000114
1745	1.7353e+02	-10.5270	-37.430304	0.000284	2.837189	0.961266	0.000114
1746	1.7363e+02	-10.4805	-37.329376	0.000253	2.533205	0.858273	0.000101
1747	1.7373e+02	-10.4403	-37.196150	0.000334	3.343830	1.132920	0.000134
1748	1.7383e+02	-10.4083	-37.107333	0.000223	2.229220	0.755280	0.000089
1749	1.7393e+02	-10.3666	-37.006405	0.000253	2.533205	0.858273	0.000101
1750	1.7403e+02	-10.3297	-36.917588	0.000223	2.229220	0.755280	0.000089
1751	1.7413e+02	-10.2879	-36.780325	0.000345	3.445159	1.167251	0.000138
1752	1.7422e+02	-10.2575	-36.675360	0.000263	2.634533	0.892604	0.000105
1753	1.7432e+02	-10.2045	-36.570394	0.000263	2.634533	0.892604	0.000105
1754	1.7442e+02	-10.1692	-36.425057	0.000365	3.647815	1.235913	0.000146
1755	1.7452e+02	-10.1243	-36.360463	0.000162	1.621251	0.549295	0.000065
1756	1.7462e+02	-10.0954	-36.227238	0.000334	3.343830	1.132920	0.000134
1757	1.7472e+02	-10.0457	-36.134383	0.000233	2.330548	0.789611	0.000093
1758	1.7482e+02	-10.0072	-36.001158	0.000334	3.343830	1.132920	0.000134
1759	1.7492e+02	-9.9623	-35.932527	0.000172	1.722579	0.583626	0.000069
1760	1.7502e+02	-9.9222	-35.831598	0.000253	2.533205	0.858273	0.000101
1761	1.7512e+02	-9.8981	-35.694336	0.000345	3.445159	1.167251	0.000138
1762	1.7522e+02	-9.8388	-35.625704	0.000172	1.722579	0.583626	0.000069
1763	1.7532e+02	-9.8019	-35.524776	0.000253	2.533205	0.858273	0.000101
1764	1.7542e+02	-9.7634	-35.371365	0.000385	3.850471	1.304575	0.000154
1765	1.7552e+02	-9.7329	-35.290622	0.000203	2.026564	0.686618	0.000081
1766	1.7562e+02	-9.6896	-35.145285	0.000365	3.647815	1.235913	0.000146
1767	1.7572e+02	-9.6495	-35.084728	0.000152	1.519923	0.514964	0.000061
1768	1.7582e+02	-9.6061	-34.951503	0.000334	3.343830	1.132920	0.000134
1769	1.7592e+02	-9.5660	-34.850574	0.000253	2.533205	0.858273	0.000101
1770	1.7602e+02	-9.5275	-34.721386	0.000324	3.242502	1.098589	0.000130
1771	1.7612e+02	-9.4938	-34.624495	0.000243	2.431877	0.823942	0.000097
1772	1.7621e+02	-9.4489	-34.511455	0.000284	2.837189	0.961266	0.000114
1773	1.7631e+02	-9.4088	-34.454935	0.000142	1.418595	0.480633	0.000057
1774	1.7641e+02	-9.3671	-34.285375	0.000426	4.255784	1.441899	0.000170
1775	1.7651e+02	-9.3286	-34.196558	0.000223	2.229220	0.755280	0.000089
1776	1.7661e+02	-9.2933	-34.079481	0.000294	2.938518	0.995597	0.000118
1777	1.7671e+02	-9.2436	-34.002776	0.000193	1.925236	0.652288	0.000077
1778	1.7681e+02	-9.2051	-33.901847	0.000253	2.533205	0.858273	0.000101
1779	1.7691e+02	-9.1698	-33.780733	0.000304	3.039846	1.029928	0.000122
1780	1.7701e+02	-9.1345	-33.667693	0.000284	2.837189	0.961266	0.000114
1781	1.7711e+02	-9.0928	-33.574839	0.000233	2.330548	0.789611	0.000093
1782	1.7721e+02	-9.0447	-33.437577	0.000345	3.445159	1.167251	0.000138
1783	1.7731e+02	-9.0110	-33.316463	0.000304	3.039846	1.029928	0.000122
1784	1.7741e+02	-8.9677	-33.215534	0.000253	2.533205	0.858273	0.000101
1785	1.7751e+02	-8.9260	-33.146903	0.000172	1.722579	0.583626	0.000069
1786	1.7761e+02	-8.8874	-33.054049	0.000233	2.330548	0.789611	0.000093
1787	1.7771e+02	-8.8441	-32.932935	0.000304	3.039846	1.029928	0.000122
1788	1.7781e+02	-8.8072	-32.767412	0.000415	4.154456	1.407568	0.000166
1789	1.7791e+02	-8.7687	-32.682632	0.000213	2.127892	0.720949	0.000085
1790	1.7801e+02	-8.7238	-32.622075	0.000152	1.519923	0.514964	0.000061
1791	1.7810e+02	-8.6885	-32.492887	0.000324	3.242502	1.098589	0.000130
1792	1.7820e+02	-8.6484	-32.379847	0.000284	2.837189	0.961266	0.000114
1793	1.7830e+02	-8.6067	-32.254696	0.000314	3.141174	1.064259	0.000126
1794	1.7840e+02	-8.5746	-32.182028	0.000182	1.823907	0.617957	0.000073
1795	1.7850e+02	-8.5345	-32.032654	0.000375	3.749143	1.270244	0.000150
1796	1.7860e+02	-8.4864	-31.976134	0.000142	1.418595	0.480633	0.000057
1797	1.7870e+02	-8.4527	-31.838871	0.000345	3.445159	1.167251	0.000138
1798	1.7880e+02	-8.4126	-31.721794	0.000294	2.938518	0.995597	0.000118
1799	1.7890e+02	-8.3757	-31.616829	0.000263	2.634533	0.892604	0.000105
1800	1.7900e+02	-8.3404	-31.536086	0.000203	2.026564	0.686618	0.000081
1801	1.7910e+02	-8.2891	-31.439195	0.000243	2.431877	0.823942	0.000097
1802	1.7920e+02	-8.2490	-31.293858	0.000365	3.647815	1.235913	0.000146
1803	1.7930e+02	-8.2281	-31.213115	0.000203	2.026564	0.686618	0.000081
1804	1.7940e+02	-8.1671	-31.075852	0.000345	3.445159	1.167251	0.000138
1805	1.7950e+02	-8.1319	-30.946664	0.000324	3.242502	1.098589	0.000130
1806	1.7960e+02	-8.0950	-30.878033	0.000172	1.722579	0.583626	0.000069
1807	1.7970e+02	-8.0468	-30.756919	0.000304	3.039846	1.029928	0.000122
1808	1.7980e+02	-8.0228	-30.680213	0.000193	1.925236	0.652288	0.000077
1809	1.7990e+02	-7.9650	-30.571210	0.000274	2.735861	0.926935	0.000110
1810	1.8000e+02	-7.9281	-30.405688	0.000415	4.154456	1.407568	0.000166
1811	1.8009e+02	-7.8944	-30.296685	0.000274	2.735861	0.926935	0.000110
1812	1.8019e+02	-7.8607	-30.228054	0.000172	1.722579	0.583626	0.000069
1813	1.8029e+02	-7.8303	-30.151348	0.000193	1.925236	0.652288	0.000077
1814	1.8039e+02	-7.7693	-29.977751	0.000436	4.357112	1.476230	0.000174
1815	1.8049e+02	-7.7372	-29.884897	0.000233	2.330548	0.789611	0.000093
1816	1.8059e+02	-7.6875	-29.792043	0.000233	2.330548	0.789611	0.000093
1817	1.8069e+02	-7.6570	-29.679003	0.000284	2.837189	0.961266	0.000114
1818	1.8079e+02	-7.6201	-29.570001	0.000274	2.735861	0.926935	0.000110
1819	1.8089e+02	-7.5816	-29.469072	0.000253	2.533205	0.858273	0.000101
1820	1.8099e+02	-7.5399	-29.323735	0.000365	3.647815	1.235913	0.000146
1821	1.8109e+02	-7.4982	-29.230881	0.000233	2.330548	0.789611	0.000093
1822	1.8119e+02	-7.4517	-29.150139	0.000203	2.026564	0.686618	0.000081
1823	1.8129e+02	-7.4148	-29.008839	0.000355	3.546487	1.201582	0.000142
1824	1.8139e+02	-7.3795	-28.911948	0.000243	2.431877	0.823942	0.000097
1825	1.8149e+02	-7.3313	-28.806982	0.000263	2.634533	0.892604	0.000105
1826	1.8159e+02	-7.2928	-28.689905	0.000294	2.938518	0.995597	0.000118
1827	1.8169e+02	-7.2608	-28.572828	0.000294	2.938518	0.995597	0.000118
1828	1.8179e+02	-7.2110	-28.496123	0.000193	1.925236	0.652288	0.000077
1829	1.8189e+02	-7.1805	-28.375009	0.000304	3.039846	1.029928	0.000122
1830	1.8199e+02	-7.1340	-28.245820	0.000324	3.242502	1.098589	0.000130
1831	1.8209e+02	-7.0955	-28.124706	0.000304	3.039846	1.029928	0.000122
1832	1.8218e+02	-7.0554	-28.031852	0.000233	2.330548	0.789611	0.000093
1833	1.8228e+02	-7.0137	-27.914775	0.000294	2.938518	0.995597	0.000118
1834	1.8238e+02	-6.9752	-27.813847	0.000253	2.533205	0.858273	0.000101
1835	1.8248e+02	-6.9335	-27.676584	0.000345	3.445159	1.167251	0.000138
1836	1.8258e+02	-6.9062	-27.591804	0.000213	2.127892	0.720949	0.000085
1837	1.8268e+02	-6.8645	-27.466653	0.000314	3.141174	1.064259	0.000126
1838	1.8278e+02	-6.8212	-27.349576	0.000294	2.938518	0.995597	0.000118
1839	1.8288e+02	-6.7859	-27.216351	0.000334	3.343830	1.132920	0.000134
1840	1.8298e+02	-6.7330	-27.119459	0.000243	2.431877	0.823942	0.000097
1841	1.8308e+02	-6.6929	-27.018531	0.000253	2.533205	0.858273	0.000101
1842	1.8318e+02	-6.6704	-26.913565	0.000263	2.634533	0.892604	0.000105
1843	1.8328e+02	-6.6175	-26.820711	0.000233	2.330548	0.789611	0.000093
1844	1.8338e+02	-6.5758	-26.703634	0.000294	2.938518	0.995597	0.000118
1845	1.8348e+02	-6.5405	-26.554260	0.000375	3.749143	1.270244	0.000150
1846	1.8358e+02	-6.4939	-26.461406	0.000233	2.330548	0.789611	0.000093
1847	1.8368e+02	-6.4570	-26.324144	0.000345	3.445159	1.167251	0.000138
1848	1.8378e+02	-6.4282	-26.243401	0.000203	2.026564	0.686618	0.000081
1849	1.8388e+02	-6.3832	-26.114213	0.000324	3.242502	1.098589	0.000130
1850	1.8398e+02	-6.3431	-26.005210	0.000274	2.735861	0.926935	0.000110
1851	1.8407e+02	-6.3094	-25.863910	0.000355	3.546487	1.201582	0.000142
1852	1.8417e+02	-6.2613	-25.779130	0.000213	2.127892	0.720949	0.000085
1853	1.8427e+02	-6.2228	-25.662053	0.000294	2.938518	0.995597	0.000118
1854	1.8437e+02	-6.1875	-25.508642	0.000385	3.850471	1.304575	0.000154
1855	1.8447e+02	-6.1426	-25.460197	0.000122	1.215938	0.411971	0.000049
1856	1.8457e+02	-6.1089	-25.298711	0.000405	4.053128	1.373237	0.000162
1857	1.8467e+02	-6.0736	-25.205857	0.000233	2.330548	0.789611	0.000093
1858	1.8477e+02	-6.0255	-25.024186	0.000456	4.559769	1.544891	0.000183
1859	1.8487e+02	-5.9918	-24.935369	0.000223	2.229220	0.755280	0.000089
1860	1.8497e+02	-5.9421	-24.822329	0.000284	2.837189	0.961266	0.000114
1861	1.8507e+02	-5.9100	-24.749661	0.000182	1.823907	0.617957	0.000073
1862	1.8517e+02	-5.8587	-24.616435	0.000334	3.343830	1.132920	0.000134
1863	1.8527e+02	-5.8234	-24.499358	0.000294	2.938518	0.995597	0.000118
1864	1.8537e+02	-5.7817	-24.341910	0.000395	3.951800	1.338906	0.000158
1865	1.8547e+02	-5.7528	-24.220796	0.000304	3.039846	1.029928	0.000122
1866	1.8557e+02	-5.7079	-24.152165	0.000172	1.722579	0.583626	0.000069
1867	1.8567e+02	-5.6710	-24.027013	0.000314	3.141174	1.064259	0.000126
1868	1.8577e+02	-5.6228	-23.849379	0.000446	4.458441	1.510561	0.000179
1869	1.8587e+02	-5.5875	-23.764600	0.000213	2.127892	0.720949	0.000085
1870	1.8597e+02	-5.5394	-23.651560	0.000284	2.837189	0.961266	0.000114
1871	1.8606e+02	-5.5089	-23.506223	0.000365	3.647815	1.235913	0.000146
1872	1.8616e+02	-5.4608	-23.405294	0.000253	2.533205	0.858273	0.000101
1873	1.8626e+02	-5.4287	-23.272069	0.000334	3.343830	1.132920	0.000134
1874	1.8636e+02	-5.3886	-23.167103	0.000263	2.634533	0.892604	0.000105
1875	1.8646e+02	-5.3501	-23.025804	0.000355	3.546487	1.201582	0.000142
1876	1.8656e+02	-5.3052	-22.892578	0.000334	3.343830	1.132920	0.000134
1877	1.8666e+02	-5.2715	-22.807798	0.000213	2.127892	0.720949	0.000085
1878	1.8676e+02	-5.2282	-22.682647	0.000314	3.141174	1.064259	0.000126
1879	1.8686e+02	-5.1865	-22.529236	0.000385	3.850471	1.304575	0.000154
1880	1.8696e+02	-5.1400	-22.448493	0.000203	2.026564	0.686618	0.000081
1881	1.8706e+02	-5.1095	-22.299119	0.000375	3.749143	1.270244	0.000150
1882	1.8716e+02	-5.0678	-22.202228	0.000243	2.431877	0.823942	0.000097
1883	1.8726e+02	-5.0261	-22.056891	0.000365	3.647815	1.235913	0.000146
1884	1.8736e+02	-4.9795	-21.895406	0.000405	4.053128	1.373237	0.000162
1885	1.8746e+02	-4.9426	-21.802552	0.000233	2.330548	0.789611	0.000093
1886	1.8756e+02	-4.9106	-21.665289	0.000345	3.445159	1.167251	0.000138
1887	1.8766e+02	-4.8737	-21.560323	0.000263	2.634533	0.892604	0.000105
1888	1.8776e+02	-4.8287	-21.423061	0.000345	3.445159	1.167251	0.000138
1889	1.8786e+02	-4.7854	-21.277724	0.000365	3.647815	1.235913	0.000146
1890	1.8796e+02	-4.7437	-21.164684	0.000284	2.837189	0.961266	0.000114
1891	1.8806e+02	-4.7100	-21.071830	0.000233	2.330548	0.789611	0.000093
1892	1.8815e+02	-4.6699	-20.922456	0.000375	3.749143	1.270244	0.000150
1893	1.8825e+02	-4.6314	-20.793268	0.000324	3.242502	1.098589	0.000130
1894	1.8835e+02	-4.5945	-20.680228	0.000284	2.837189	0.961266	0.000114
1895	1.8845e+02	-4.5576	-20.547002	0.000334	3.343830	1.132920	0.000134
1896	1.8855e+02	-4.5031	-20.446074	0.000253	2.533205	0.858273	0.000101
1897	1.8865e+02	-4.4678	-20.276514	0.000426	4.255784	1.441899	0.000170
1898	1.8875e+02	-4.4309	-20.143289	0.000334	3.343830	1.132920	0.000134
1899	1.8885e+02	-4.3908	-20.034286	0.000274	2.735861	0.926935	0.000110
1900	1.8895e+02	-4.3507	-19.909135	0.000314	3.141174	1.064259	0.000126
1901	1.8905e+02	-4.3154	-19.763798	0.000365	3.647815	1.235913	0.000146
1902	1.8915e+02	-4.2705	-19.618461	0.000365	3.647815	1.235913	0.000146
1903	1.8925e+02	-4.2368	-19.545793	0.000182	1.823907	0.617957	0.000073
1904	1.8935e+02	-4.1951	-19.388344	0.000395	3.951800	1.338906	0.000158
1905	1.8945e+02	-4.1534	-19.243007	0.000365	3.647815	1.235913	0.000146
1906	1.8955e+02	-4.1149	-19.117856	0.000314	3.141174	1.064259	0.000126
1907	1.8965e+02	-4.0683	-18.944259	0.000436	4.357112	1.476230	0.000174
1908	1.8975e+02	-4.0314	-18.859480	0.000213	2.127892	0.720949	0.000085
1909	1.8985e+02	-3.9881	-18.706068	0.000385	3.850471	1.304575	0.000154
1910	1.8995e+02	-3.9512	-18.572843	0.000334	3.343830	1.132920	0.000134
1911	1.9004e+02	-3.9095	-18.467877	0.000263	2.634533	0.892604	0.000105
1912	1.9014e+02	-3.8662	-18.322541	0.000365	3.647815	1.235913	0.000146
1913	1.9024e+02	-3.8309	-18.205464	0.000294	2.938518	0.995597	0.000118
1914	1.9034e+02	-3.7796	-18.048015	0.000395	3.951800	1.338906	0.000158
1915	1.9044e+02	-3.7555	-17.910753	0.000345	3.445159	1.167251	0.000138
1916	1.9054e+02	-3.7074	-17.797713	0.000284	2.837189	0.961266	0.000114
1917	1.9064e+02	-3.6705	-17.660450	0.000345	3.445159	1.167251	0.000138
1918	1.9074e+02	-3.6256	-17.555485	0.000263	2.634533	0.892604	0.000105
1919	1.9084e+02	-3.5919	-17.430334	0.000314	3.141174	1.064259	0.000126
1920	1.9094e+02	-3.5454	-17.264811	0.000415	4.154456	1.407568	0.000166
1921	1.9104e+02	-3.5101	-17.123511	0.000355	3.546487	1.201582	0.000142
1922	1.9114e+02	-3.4732	-16.990286	0.000334	3.343830	1.132920	0.000134
1923	1.9124e+02	-3.4234	-16.840912	0.000375	3.749143	1.270244	0.000150
1924	1.9134e+02	-3.3865	-16.707686	0.000334	3.343830	1.132920	0.000134
1925	1.9144e+02	-3.3448	-16.594646	0.000284	2.837189	0.961266	0.000114
1926	1.9154e+02	-3.3192	-16.497755	0.000243	2.431877	0.823942	0.000097
1927	1.9164e+02	-3.2791	-16.344344	0.000385	3.850471	1.304575	0.000154
1928	1.9174e+02	-3.2357	-16.219193	0.000314	3.141174	1.064259	0.000126
1929	1.9184e+02	-3.1860	-16.081930	0.000345	3.445159	1.167251	0.000138
1930	1.9194e+02	-3.1475	-15.936593	0.000365	3.647815	1.235913	0.000146
1931	1.9203e+02	-3.1170	-15.847776	0.000223	2.229220	0.755280	0.000089
1932	1.9213e+02	-3.0753	-15.674180	0.000436	4.357112	1.476230	0.000174
1933	1.9223e+02	-3.0352	-15.500583	0.000436	4.357112	1.476230	0.000174
1934	1.9233e+02	-2.9919	-15.423877	0.000193	1.925236	0.652288	0.000077
1935	1.9243e+02	-2.9502	-15.250280	0.000436	4.357112	1.476230	0.000174
1936	1.9253e+02	-2.9165	-15.165500	0.000213	2.127892	0.720949	0.000085
1937	1.9263e+02	-2.8732	-14.995941	0.000426	4.255784	1.441899	0.000170
1938	1.9273e+02	-2.8283	-14.818307	0.000446	4.458441	1.510561	0.000179
1939	1.9283e+02	-2.8010	-14.725453	0.000233	2.330548	0.789611	0.000093
1940	1.9293e+02	-2.7561	-14.588190	0.000345	3.445159	1.167251	0.000138
1941	1.9303e+02	-2.7192	-14.459002	0.000324	3.242502	1.098589	0.000130
1942	1.9313e+02	-2.6727	-14.309628	0.000375	3.749143	1.270244	0.000150
1943	1.9323e+02	-2.6293	-14.156216	0.000385	3.850471	1.304575	0.000154
1944	1.9333e+02	-2.5924	-14.043177	0.000284	2.837189	0.961266	0.000114
1945	1.9343e+02	-2.5620	-13.905914	0.000345	3.445159	1.167251	0.000138
1946	1.9353e+02	-2.5058	-13.764614	0.000355	3.546487	1.201582	0.000142
1947	1.9363e+02	-2.4705	-13.643500	0.000304	3.039846	1.029928	0.000122
1948	1.9373e+02	-2.4368	-13.534498	0.000274	2.735861	0.926935	0.000110
1949	1.9383e+02	-2.3999	-13.344752	0.000476	4.762425	1.613553	0.000191
1950	1.9393e+02	-2.3598	-13.227675	0.000294	2.938518	0.995597	0.000118
1951	1.9403e+02	-2.3117	-13.037930	0.000476	4.762425	1.613553	0.000191
1952	1.9412e+02	-2.2732	-12.965261	0.000182	1.823907	0.617957	0.000073
1953	1.9422e+02	-2.2395	-12.811850	0.000385	3.850471	1.304575	0.000154
1954	1.9432e+02	-2.2010	-12.650365	0.000405	4.053128	1.373237	0.000162
1955	1.9442e+02	-2.1481	-12.573659	0.000193	1.925236	0.652288	0.000077
1956	1.9452e+02	-2.1160	-12.391988	0.000456	4.559769	1.544891	0.000183
1957	1.9462e+02	-2.0775	-12.266837	0.000314	3.141174	1.064259	0.000126
1958	1.9472e+02	-2.0358	-12.113426	0.000385	3.850471	1.304575	0.000154
1959	1.9482e+02	-1.9909	-11.984237	0.000324	3.242502	1.098589	0.000130
1960	1.9492e+02	-1.9588	-11.834863	0.000375	3.749143	1.270244	0.000150
1961	1.9502e+02	-1.9187	-11.697601	0.000345	3.445159	1.167251	0.000138
1962	1.9512e+02	-1.8753	-11.564375	0.000334	3.343830	1.132920	0.000134
1963	1.9522e+02	-1.8320	-11.455373	0.000274	2.735861	0.926935	0.000110
1964	1.9532e+02	-1.7983	-11.310036	0.000365	3.647815	1.235913	0.000146
1965	1.9542e+02	-1.7663	-11.156625	0.000385	3.850471	1.304575	0.000154
1966	1.9552e+02	-1.7229	-11.035511	0.000304	3.039846	1.029928	0.000122
1967	1.9562e+02	-1.6780	-10.886137	0.000375	3.749143	1.270244	0.000150
1968	1.9572e+02	-1.6363	-10.769060	0.000294	2.938518	0.995597	0.000118
1969	1.9582e+02	-1.5898	-10.603537	0.000415	4.154456	1.407568	0.000166
1970	1.9592e+02	-1.5641	-10.458200	0.000365	3.647815	1.235913	0.000146
1971	1.9601e+02	-1.5192	-10.296715	0.000405	4.053128	1.373237	0.000162
1972	1.9611e+02	-1.4775	-10.187712	0.000274	2.735861	0.926935	0.000110
1973	1.9621e+02	-1.4406	-10.038338	0.000375	3.749143	1.270244	0.000150
1974	1.9631e+02	-1.4037	-9.893001	0.000365	3.647815	1.235913	0.000146
1975	1.9641e+02	-1.3572	-9.739590	0.000385	3.850471	1.304575	0.000154
1976	1.9651e+02	-1.3299	-9.610402	0.000324	3.242502	1.098589	0.000130
1977	1.9661e+02	-1.2802	-9.469102	0.000355	3.546487	1.201582	0.000142
1978	1.9671e+02	-1.2385	-9.347988	0.000304	3.039846	1.029928	0.000122
1979	1.9681e+02	-1.1871	-9.194577	0.000385	3.850471	1.304575	0.000154
1980	1.9691e+02	-1.1583	-9.037128	0.000395	3.951800	1.338906	0.000158
1981	1.9701e+02	-1.1214	-8.907940	0.000324	3.242502	1.098589	0.000130
1982	1.9711e+02	-1.0813	-8.774715	0.000334	3.343830	1.132920	0.000134
1983	1.9721e+02	-1.0411	-8.665712	0.000274	2.735861	0.926935	0.000110
1984	1.9731e+02	-1.0026	-8.492115	0.000436	4.357112	1.476230	0.000174
1985	1.9741e+02	-0.9674	-8.354852	0.000345	3.445159	1.167251	0.000138
1986	1.9751e+02	-0.9208	-8.197404	0.000395	3.951800	1.338906	0.000158
1987	1.9761e+02	-0.8823	-8.064179	0.000334	3.343830	1.132920	0.000134
1988	1.9771e+02	-0.8502	-7.926916	0.000345	3.445159	1.167251	0.000138
1989	1.9781e+02	-0.7957	-7.761393	0.000415	4.154456	1.407568	0.000166
1990	1.9791e+02	-0.7668	-7.636242	0.000314	3.141174	1.064259	0.000126
1991	1.9800e+02	-0.7267	-7.458608	0.000446	4.458441	1.510561	0.000179
1992	1.9810e+02	-0.6850	-7.345568	0.000284	2.837189	0.961266	0.000114
1993	1.9820e+02	-0.6401	-7.184083	0.000405	4.053128	1.373237	0.000162
1994	1.9830e+02	-0.6080	-7.067006	0.000294	2.938518	0.995597	0.000118
1995	1.9840e+02	-0.5615	-6.937818	0.000324	3.242502	1.098589	0.000130
1996	1.9850e+02	-0.5150	-6.760184	0.000446	4.458441	1.510561	0.000179
1997	1.9860e+02	-0.4877	-6.659255	0.000253	2.533205	0.858273	0.000101
1998	1.9870e+02	-0.4428	-6.469510	0.000476	4.762425	1.613553	0.000191
1999	1.9880e+02	-0.4043	-6.316099	0.000385	3.850471	1.304575	0.000154
2000	1.9890e+02	-0.3690	-6.190948	0.000314	3.141174	1.064259	0.000126
2001	1.9900e+02	-0.3208	-6.049648	0.000355	3.546487	1.201582	0.000142
2002	1.9910e+02	-0.2839	-5.908348	0.000355	3.546487	1.201582	0.000142
2003	1.9920e+02	-0.2487	-5.750900	0.000395	3.951800	1.338906	0.000158
2004	1.9930e+02	-0.1989	-5.601526	0.000375	3.749143	1.270244	0.000150
2005	1.9940e+02	-0.1733	-5.456189	0.000365	3.647815	1.235913	0.000146
2006	1.9950e+02	-0.1219	-5.294704	0.000405	4.053128	1.373237	0.000162
2007	1.9960e+02	-0.0834	-5.153404	0.000355	3.546487	1.201582	0.000142
2008	1.9970e+02	-0.0433	-5.016141	0.000345	3.445159	1.167251	0.000138
2009	1.9980e+02	-0.0096	-4.834470	0.000345	3.445159	1.167251	0.000183

Center data before PMax,+/-Pr and +/-Vc Calc.

PMax (uC/cm2):	5.84e+01
Pr (uC/cm2):	1.82e+00
-Pr (uC/cm2):	-4.83e+00
PLoss (uC/cm2):	-1.82e+00
Vc:	8.41e-01
-Vc:	-4.79e-01
C (Max-Eff) (nF):	2.92e-01
K (Eff):	9.89e+02
Vert. (+/-Pr) Shift (uC/cm2):	-1.51e+00
Horiz. Shift (+/-Vc):	1.81e-01
Offset (uC/cm2):	2.97e+00

A (Loop Area - uC/cm2·Volts):	1.06e-02



Hysteresis Version: 5.48.1 - Radiant Technologies, Inc., 1999 - 9/12/24

