»»»»»»»»»»»»»»»»»»»»»»»»»»»»»»»»»»»» Hysteresis ««««««««««««««««««««««««««««««««««««
»»»  Executed Version:	5.48.1
»»»  Vision Version:	5.48.4 (R)
»»»  Vision Compiled:	9/18/24
»»»  Driver Version:	5.47.0
»»»  Windows Version:	Windows 8 or 8.1
»»»  Processor Information:	x86 (AMD or Intel) - 32 Processors
»»»  Tester Name:	PMF21124-494 (100V)
»»»  Tester S/N:	PMF21124-494
»»»  Internal Amp Type:	100V RevK 270k
»»»  Internal Amp S/N:	iAB2-596/K     
»»»  Execution Count:	1
»»»»»»»»»»»»»»»»»»»»»»»»»»»»»»»»»»»»»»»»»»««««««««««««««««««««««««««««««««««««««««««

Stored:	6/9/2025 - 12:53:44
Configured:	06/09/25 11:17:29 AM
Executed:	06/09/25 12:53:18 PM

»»»»»»»»»»»»»»»»»»»»»»»»»»»»»»»»»»» Sample Info ««««««««««««««««««««««««««««««««««««
Sample Name:	
Lot Name:	
Wafer Name:	
Die Row/Column:	0/0
Capacitor Number:	0
Sample Area (cm2):	1.00e-04
Sample Thickness (microns):	3.00e-01

Amplifier:	Internal

»»»»»»»»»»»»»»»»»»»»»»»»»»»»»»»»»»» Tester Info «««««««««««««««««««««««««««««««««««
Tester Name:	PMF21124-494 (100V)
Tester Serial Number:	PMF21124-494
Return Signal Amp. Level:	1.79 [Index: 2]

»»»»»»»»»»»»»»»»»»»»»»»»»»»»»»»» Hysteresis Info ««««««««««««««««««««««««««««««««««
Task Name:	Hyst-785
Volts:	20.00
Field:	666.67 (kV/cm)
DCBias:	0.00
DCField:	0.00 (kV/cm)
Hysteresis Period (ms):	1.00e+00
Preset:	Enabled
Preset Delay (ms):	1.00e+03
Profile:	Standard Bipolar

»»»»»»»»»»»»»»»»»»»»»»»»»»»»»»»»»»»»»» Data «««««««««««««««««««««««««««««««««««««««
Points:	2001

Valid Data

Point	Time (ms)	Drive Voltage	Measured Polarization (uC/cm2)	Capacitance (uF)	Normalized Capacitance (uF/cm2)	Dielectric Constant	Instantaneous Current (mA)
   1	0.0000e+00	0.0273	-0.870645	-0.000021	-0.209329	-0.070923	0.001711
   2	5.0000e-04	0.0193	-0.862093	-0.000021	-0.209329	-0.070923	0.001711
   3	1.0000e-03	0.1075	-0.851830	0.000025	0.251195	0.085107	0.002053
   4	1.5000e-03	0.1829	-0.818047	0.000083	0.826849	0.280144	0.006756
   5	2.0000e-03	0.2037	-0.780844	0.000091	0.910581	0.308513	0.007441
   6	2.5000e-03	0.2198	-0.726963	0.000132	1.318772	0.446812	0.010776
   7	3.0000e-03	0.3128	-0.678214	0.000119	1.193175	0.404259	0.009750
   8	3.5000e-03	0.3690	-0.608083	0.000172	1.716497	0.581565	0.014026
   9	4.0000e-03	0.3658	-0.541374	-0.000163	-1.632766	-0.553196	0.013342
  10	4.5000e-03	0.4187	-0.458842	0.000202	2.020024	0.684403	0.016506
  11	5.0000e-03	0.4588	-0.381014	0.000190	1.904894	0.645395	0.015566
  12	5.5000e-03	0.4620	-0.291213	0.000220	2.197954	0.744687	0.017960
  13	6.0000e-03	0.5262	-0.202694	0.000217	2.166555	0.734049	0.017704
  14	6.5000e-03	0.5454	-0.110327	0.000226	2.260753	0.765964	0.018473
  15	7.0000e-03	0.6112	-0.017105	0.000228	2.281686	0.773056	0.018644
  16	7.5000e-03	0.6321	0.079966	0.000238	2.375884	0.804971	0.019414
  17	8.0000e-03	0.6706	0.181313	0.000248	2.480548	0.840432	0.020269
  18	8.5000e-03	0.7139	0.278812	0.000239	2.386350	0.808517	0.019500
  19	9.0000e-03	0.7331	0.379304	0.000246	2.459615	0.833340	0.020098
  20	9.5000e-03	0.8182	0.479796	0.000246	2.459615	0.833340	0.020098
  21	1.0000e-02	0.8518	0.573873	0.000230	2.302619	0.780148	0.018816
  22	1.0500e-02	0.8711	0.691470	0.000288	2.878273	0.975185	0.023519
  23	1.1000e-02	0.9337	0.799659	0.000265	2.648011	0.897171	0.021638
  24	1.1500e-02	0.9545	0.906993	0.000263	2.627078	0.890078	0.021467
  25	1.2000e-02	0.9978	1.008768	0.000249	2.491015	0.843979	0.020355
  26	1.2500e-02	1.0379	1.115674	0.000262	2.616612	0.886532	0.021381
  27	1.3000e-02	1.0764	1.223008	0.000263	2.627078	0.890078	0.021467
  28	1.3500e-02	1.1294	1.335046	0.000274	2.742209	0.929086	0.022408
  29	1.4000e-02	1.1599	1.437249	0.000250	2.501481	0.847525	0.020440
  30	1.4500e-02	1.2048	1.544155	0.000262	2.616612	0.886532	0.021381
  31	1.5000e-02	1.2337	1.654910	0.000271	2.710810	0.918447	0.022151
  32	1.5500e-02	1.2882	1.758823	0.000254	2.543347	0.861709	0.020783
  33	1.6000e-02	1.3123	1.874709	0.000284	2.836407	0.961001	0.023177
  34	1.6500e-02	1.3556	1.974774	0.000245	2.449149	0.829794	0.020013
  35	1.7000e-02	1.4053	2.086811	0.000274	2.742209	0.929086	0.022408
  36	1.7500e-02	1.4278	2.197566	0.000271	2.710810	0.918447	0.022151
  37	1.8000e-02	1.4951	2.303190	0.000259	2.585213	0.875894	0.021125
  38	1.8500e-02	1.4919	2.416083	-0.000276	-2.763142	-0.936178	0.022579
  39	1.9000e-02	1.5786	2.524272	0.000265	2.648011	0.897171	0.021638
  40	1.9500e-02	1.6026	2.635027	0.000271	2.710810	0.918447	0.022151
  41	2.0000e-02	1.6283	2.746637	0.000273	2.731743	0.925540	0.022322
  42	2.0500e-02	1.6844	2.856537	0.000269	2.689877	0.911355	0.021980
  43	2.1000e-02	1.7133	2.966864	0.000270	2.700344	0.914901	0.022065
  44	2.1500e-02	1.7951	3.072915	0.000260	2.595679	0.879440	0.021210
  45	2.2000e-02	1.7903	3.183243	-0.000270	-2.700344	-0.914901	0.022065
  46	2.2500e-02	1.8593	3.289721	0.000261	2.606146	0.882986	0.021296
  47	2.3000e-02	1.8577	3.400049	-0.000270	-2.700344	-0.914901	0.022065
  48	2.3500e-02	1.9251	3.512086	0.000274	2.742209	0.929086	0.022408
  49	2.4000e-02	1.9507	3.622841	0.000271	2.710810	0.918447	0.022151
  50	2.4500e-02	2.0021	3.733596	0.000271	2.710810	0.918447	0.022151
  51	2.5000e-02	2.0438	3.839647	0.000260	2.595679	0.879440	0.021210
  52	2.5500e-02	2.0823	3.951685	0.000274	2.742209	0.929086	0.022408
  53	2.6000e-02	2.1112	4.063723	0.000274	2.742209	0.929086	0.022408
  54	2.6500e-02	2.1625	4.169346	0.000259	2.585213	0.875894	0.021125
  55	2.7000e-02	2.1930	4.280957	0.000273	2.731743	0.925540	0.022322
  56	2.7500e-02	2.2507	4.386152	0.000257	2.574746	0.872348	0.021039
  57	2.8000e-02	2.2732	4.493059	0.000262	2.616612	0.886532	0.021381
  58	2.8500e-02	2.3197	4.604669	0.000273	2.731743	0.925540	0.022322
  59	2.9000e-02	2.3630	4.715852	0.000272	2.721276	0.921993	0.022237
  60	2.9500e-02	2.4015	4.817626	0.000249	2.491015	0.843979	0.020355
  61	3.0000e-02	2.4288	4.929237	0.000273	2.731743	0.925540	0.022322
  62	3.0500e-02	2.5010	5.039136	0.000269	2.689877	0.911355	0.021980
  63	3.1000e-02	2.5459	5.145187	0.000260	2.595679	0.879440	0.021210
  64	3.1500e-02	2.5443	5.254659	-0.000268	-2.679411	-0.907809	0.021894
  65	3.2000e-02	2.6309	5.367125	0.000275	2.752676	0.932632	0.022493
  66	3.2500e-02	2.6502	5.472321	0.000257	2.574746	0.872348	0.021039
  67	3.3000e-02	2.6983	5.583503	0.000272	2.721276	0.921993	0.022237
  68	3.3500e-02	2.7112	5.691692	0.000265	2.648011	0.897171	0.021638
  69	3.4000e-02	2.7721	5.798171	0.000261	2.606146	0.882986	0.021296
  70	3.4500e-02	2.7753	5.915768	0.000288	2.878273	0.975185	0.023519
  71	3.5000e-02	2.8491	6.023530	0.000264	2.637545	0.893624	0.021552
  72	3.5500e-02	2.9085	6.125732	0.000250	2.501481	0.847525	0.020440
  73	3.6000e-02	2.9245	6.241191	0.000283	2.825941	0.957455	0.023092
  74	3.6500e-02	2.9470	6.351091	0.000269	2.689877	0.911355	0.021980
  75	3.7000e-02	3.0192	6.455004	0.000254	2.543347	0.861709	0.020783
  76	3.7500e-02	3.0464	6.565758	0.000271	2.710810	0.918447	0.022151
  77	3.8000e-02	3.0657	6.667961	0.000250	2.501481	0.847525	0.020440
  78	3.8500e-02	3.1090	6.777861	0.000269	2.689877	0.911355	0.021980
  79	3.9000e-02	3.1266	6.890754	0.000276	2.763142	0.936178	0.022579
  80	3.9500e-02	3.1956	6.997660	0.000262	2.616612	0.886532	0.021381
  81	4.0000e-02	3.2341	7.103711	0.000260	2.595679	0.879440	0.021210
  82	4.0500e-02	3.2582	7.217032	0.000277	2.773609	0.939724	0.022664
  83	4.1000e-02	3.3176	7.329925	0.000276	2.763142	0.936178	0.022579
  84	4.1500e-02	3.3673	7.426141	0.000235	2.354951	0.797879	0.019243
  85	4.2000e-02	3.3801	7.535185	0.000267	2.668944	0.904263	0.021809
  86	4.2500e-02	3.4587	7.643802	0.000266	2.658478	0.900717	0.021723
  87	4.3000e-02	3.4892	7.750280	0.000261	2.606146	0.882986	0.021296
  88	4.3500e-02	3.5341	7.856759	0.000261	2.606146	0.882986	0.021296
  89	4.4000e-02	3.5758	7.961100	0.000255	2.553813	0.865255	0.020868
  90	4.4500e-02	3.6256	8.074420	0.000277	2.773609	0.939724	0.022664
  91	4.5000e-02	3.6208	8.179189	-0.000256	-2.564280	-0.868802	0.020954
  92	4.5500e-02	3.6705	8.280963	0.000249	2.491015	0.843979	0.020355
  93	4.6000e-02	3.7379	8.393857	0.000276	2.763142	0.936178	0.022579
  94	4.6500e-02	3.7523	8.497769	0.000254	2.543347	0.861709	0.020783
  95	4.7000e-02	3.7940	8.614084	0.000285	2.846874	0.964547	0.023263
  96	4.7500e-02	3.8373	8.712865	0.000242	2.417749	0.819156	0.019756
  97	4.8000e-02	3.8710	8.821054	0.000265	2.648011	0.897171	0.021638
  98	4.8500e-02	3.9207	8.922829	0.000249	2.491015	0.843979	0.020355
  99	4.9000e-02	3.9801	9.030163	0.000263	2.627078	0.890078	0.021467
 100	4.9500e-02	3.9769	9.143484	-0.000277	-2.773609	-0.939724	0.022664
 101	5.0000e-02	4.0411	9.247397	0.000254	2.543347	0.861709	0.020783
 102	5.0500e-02	4.0812	9.348744	0.000248	2.480548	0.840432	0.020269
 103	5.1000e-02	4.1325	9.465485	0.000286	2.857340	0.968093	0.023348
 104	5.1500e-02	4.1598	9.565122	0.000244	2.438682	0.826248	0.019927
 105	5.2000e-02	4.1983	9.674594	0.000268	2.679411	0.907809	0.021894
 106	5.2500e-02	4.2560	9.779790	0.000257	2.574746	0.872348	0.021039
 107	5.3000e-02	4.2721	9.880710	0.000247	2.470082	0.836886	0.020184
 108	5.3500e-02	4.3138	9.987616	0.000262	2.616612	0.886532	0.021381
 109	5.4000e-02	4.3731	10.093667	0.000260	2.595679	0.879440	0.021210
 110	5.4500e-02	4.4213	10.196297	0.000251	2.511948	0.851071	0.020526
 111	5.5000e-02	4.4132	10.312611	-0.000285	-2.846874	-0.964547	0.023263
 112	5.5500e-02	4.4582	10.410537	0.000240	2.396817	0.812063	0.019585
 113	5.6000e-02	4.5656	10.515733	0.000257	2.574746	0.872348	0.021039
 114	5.6500e-02	4.5785	10.621784	0.000260	2.595679	0.879440	0.021210
 115	5.7000e-02	4.6523	10.724414	0.000251	2.511948	0.851071	0.020526
 116	5.7500e-02	4.6763	10.837735	0.000277	2.773609	0.939724	0.022664
 117	5.8000e-02	4.6779	10.939937	0.000250	2.501481	0.847525	0.020440
 118	5.8500e-02	4.7405	11.046416	0.000261	2.606146	0.882986	0.021296
 119	5.9000e-02	4.7662	11.154178	0.000264	2.637545	0.893624	0.021552
 120	5.9500e-02	4.7758	11.257235	0.000252	2.522414	0.854617	0.020612
 121	6.0000e-02	4.8191	11.364569	0.000263	2.627078	0.890078	0.021467
 122	6.0500e-02	4.8737	11.466772	0.000250	2.501481	0.847525	0.020440
 123	6.1000e-02	4.9106	11.573678	0.000262	2.616612	0.886532	0.021381
 124	6.1500e-02	4.9667	11.675025	0.000248	2.480548	0.840432	0.020269
 125	6.2000e-02	4.9972	11.777228	0.000250	2.501481	0.847525	0.020440
 126	6.2500e-02	5.0501	11.883279	0.000260	2.595679	0.879440	0.021210
 127	6.3000e-02	5.0726	11.988902	0.000259	2.585213	0.875894	0.021125
 128	6.3500e-02	5.1207	12.096664	0.000264	2.637545	0.893624	0.021552
 129	6.4000e-02	5.1688	12.195873	0.000243	2.428216	0.822702	0.019842
 130	6.4500e-02	5.2170	12.301924	0.000260	2.595679	0.879440	0.021210
 131	6.5000e-02	5.2474	12.401133	0.000243	2.428216	0.822702	0.019842
 132	6.5500e-02	5.2619	12.510605	0.000268	2.679411	0.907809	0.021894
 133	6.6000e-02	5.3148	12.613235	0.000251	2.511948	0.851071	0.020526
 134	6.6500e-02	5.3565	12.719286	0.000260	2.595679	0.879440	0.021210
 135	6.7000e-02	5.3854	12.829186	0.000269	2.689877	0.911355	0.021980
 136	6.7500e-02	5.4383	12.925829	0.000237	2.365417	0.801425	0.019329
 137	6.8000e-02	5.4945	13.022472	0.000237	2.365417	0.801425	0.019329
 138	6.8500e-02	5.5282	13.132800	0.000270	2.700344	0.914901	0.022065
 139	6.9000e-02	5.5539	13.237996	0.000257	2.574746	0.872348	0.021039
 140	6.9500e-02	5.6116	13.341909	0.000254	2.543347	0.861709	0.020783
 141	7.0000e-02	5.6405	13.440262	0.000241	2.407283	0.815610	0.019671
 142	7.0500e-02	5.6918	13.549734	0.000268	2.679411	0.907809	0.021894
 143	7.1000e-02	5.7271	13.648944	0.000243	2.428216	0.822702	0.019842
 144	7.1500e-02	5.7528	13.751146	0.000250	2.501481	0.847525	0.020440
 145	7.2000e-02	5.7881	13.855914	0.000256	2.564280	0.868802	0.020954
 146	7.2500e-02	5.8346	13.955123	0.000243	2.428216	0.822702	0.019842
 147	7.3000e-02	5.8827	14.062885	0.000264	2.637545	0.893624	0.021552
 148	7.3500e-02	5.9292	14.166370	0.000253	2.532880	0.858163	0.020697
 149	7.4000e-02	5.9934	14.263441	0.000238	2.375884	0.804971	0.019414
 150	7.4500e-02	6.0287	14.366071	0.000251	2.511948	0.851071	0.020526
 151	7.5000e-02	6.0335	14.468701	0.000251	2.511948	0.851071	0.020526
 152	7.5500e-02	6.0849	14.571759	0.000252	2.522414	0.854617	0.020612
 153	7.6000e-02	6.1346	14.678665	0.000262	2.616612	0.886532	0.021381
 154	7.6500e-02	6.1699	14.774026	0.000233	2.334018	0.790787	0.019072
 155	7.7000e-02	6.1955	14.878366	0.000255	2.553813	0.865255	0.020868
 156	7.7500e-02	6.2340	14.983990	0.000259	2.585213	0.875894	0.021125
 157	7.8000e-02	6.2693	15.081916	0.000240	2.396817	0.812063	0.019585
 158	7.8500e-02	6.3239	15.184118	0.000250	2.501481	0.847525	0.020440
 159	7.9000e-02	6.3640	15.288459	0.000255	2.553813	0.865255	0.020868
 160	7.9500e-02	6.4250	15.388523	0.000245	2.449149	0.829794	0.020013
 161	8.0000e-02	6.4330	15.493291	0.000256	2.564280	0.868802	0.020954
 162	8.0500e-02	6.4763	15.589507	0.000235	2.354951	0.797879	0.019243
 163	8.1000e-02	6.5020	15.704538	0.000282	2.815475	0.953909	0.023006
 164	8.1500e-02	6.5774	15.802464	0.000240	2.396817	0.812063	0.019585
 165	8.2000e-02	6.6110	15.902529	0.000245	2.449149	0.829794	0.020013
 166	8.2500e-02	6.6463	16.003448	0.000247	2.470082	0.836886	0.020184
 167	8.3000e-02	6.6720	16.101374	0.000240	2.396817	0.812063	0.019585
 168	8.3500e-02	6.7474	16.202722	0.000248	2.480548	0.840432	0.020269
 169	8.4000e-02	6.7923	16.305352	0.000251	2.511948	0.851071	0.020526
 170	8.4500e-02	6.8100	16.404561	0.000243	2.428216	0.822702	0.019842
 171	8.5000e-02	6.8260	16.504197	0.000244	2.438682	0.826248	0.019927
 172	8.5500e-02	6.8677	16.599986	0.000234	2.344484	0.794333	0.019158
 173	8.6000e-02	6.9287	16.705181	0.000257	2.574746	0.872348	0.021039
 174	8.6500e-02	6.9624	16.803535	0.000241	2.407283	0.815610	0.019671
 175	8.7000e-02	6.9816	16.910869	0.000263	2.627078	0.890078	0.021467
 176	8.7500e-02	7.0281	17.007512	0.000237	2.365417	0.801425	0.019329
 177	8.8000e-02	7.1068	17.109715	0.000250	2.501481	0.847525	0.020440
 178	8.8500e-02	7.1501	17.206358	0.000237	2.365417	0.801425	0.019329
 179	8.9000e-02	7.1485	17.307705	-0.000248	-2.480548	-0.840432	0.020269
 180	8.9500e-02	7.2094	17.405204	0.000239	2.386350	0.808517	0.019500
 181	9.0000e-02	7.2383	17.500992	0.000234	2.344484	0.794333	0.019158
 182	9.0500e-02	7.2993	17.602767	0.000249	2.491015	0.843979	0.020355
 183	9.1000e-02	7.3217	17.701121	0.000241	2.407283	0.815610	0.019671
 184	9.1500e-02	7.3570	17.799474	0.000241	2.407283	0.815610	0.019671
 185	9.2000e-02	7.4083	17.900394	0.000247	2.470082	0.836886	0.020184
 186	9.2500e-02	7.4372	18.008156	0.000264	2.637545	0.893624	0.021552
 187	9.3000e-02	7.4789	18.103944	0.000234	2.344484	0.794333	0.019158
 188	9.3500e-02	7.5239	18.208284	0.000255	2.553813	0.865255	0.020868
 189	9.4000e-02	7.5656	18.303645	0.000233	2.334018	0.790787	0.019072
 190	9.4500e-02	7.5993	18.404992	0.000248	2.480548	0.840432	0.020269
 191	9.5000e-02	7.6554	18.504629	0.000244	2.438682	0.826248	0.019927
 192	9.5500e-02	7.6763	18.602982	0.000241	2.407283	0.815610	0.019671
 193	9.6000e-02	7.7324	18.706040	0.000252	2.522414	0.854617	0.020612
 194	9.6500e-02	7.7661	18.803966	0.000240	2.396817	0.812063	0.019585
 195	9.7000e-02	7.7998	18.900610	0.000237	2.365417	0.801425	0.019329
 196	9.7500e-02	7.8720	18.997680	0.000238	2.375884	0.804971	0.019414
 197	9.8000e-02	7.8880	19.100311	0.000251	2.511948	0.851071	0.020526
 198	9.8500e-02	7.9169	19.196954	0.000237	2.365417	0.801425	0.019329
 199	9.9000e-02	7.9410	19.303860	0.000262	2.616612	0.886532	0.021381
 200	9.9500e-02	7.9987	19.398365	0.000231	2.313085	0.783694	0.018901
 201	1.0000e-01	8.0532	19.495009	0.000237	2.365417	0.801425	0.019329
 202	1.0050e-01	8.0741	19.587803	0.000227	2.271219	0.769510	0.018559
 203	1.0100e-01	8.1351	19.694282	0.000261	2.606146	0.882986	0.021296
 204	1.0150e-01	8.1671	19.795629	0.000248	2.480548	0.840432	0.020269
 205	1.0200e-01	8.1992	19.889707	0.000230	2.302619	0.780148	0.018816
 206	1.0250e-01	8.2554	19.984212	0.000231	2.313085	0.783694	0.018901
 207	1.0300e-01	8.3067	20.080000	0.000234	2.344484	0.794333	0.019158
 208	1.0350e-01	8.3051	20.177499	-0.000239	-2.386350	-0.808517	0.019500
 209	1.0400e-01	8.3532	20.281412	0.000254	2.543347	0.861709	0.020783
 210	1.0450e-01	8.3950	20.381476	0.000245	2.449149	0.829794	0.020013
 211	1.0500e-01	8.4431	20.473843	0.000226	2.260753	0.765964	0.018473
 212	1.0550e-01	8.4655	20.575190	0.000248	2.480548	0.840432	0.020269
 213	1.0600e-01	8.5249	20.664564	0.000219	2.187488	0.741141	0.017875
 214	1.0650e-01	8.5762	20.765483	0.000247	2.470082	0.836886	0.020184
 215	1.0700e-01	8.6115	20.860844	0.000233	2.334018	0.790787	0.019072
 216	1.0750e-01	8.6228	20.964757	0.000254	2.543347	0.861709	0.020783
 217	1.0800e-01	8.6580	21.060972	0.000235	2.354951	0.797879	0.019243
 218	1.0850e-01	8.7126	21.158471	0.000239	2.386350	0.808517	0.019500
 219	1.0900e-01	8.7671	21.246134	0.000215	2.145622	0.726956	0.017533
 220	1.0950e-01	8.7912	21.343205	0.000238	2.375884	0.804971	0.019414
 221	1.1000e-01	8.8506	21.445408	0.000250	2.501481	0.847525	0.020440
 222	1.1050e-01	8.8891	21.540340	0.000232	2.323551	0.787241	0.018987
 223	1.1100e-01	8.9227	21.636556	0.000235	2.354951	0.797879	0.019243
 224	1.1150e-01	8.9805	21.736193	0.000244	2.438682	0.826248	0.019927
 225	1.1200e-01	9.0014	21.830698	0.000231	2.313085	0.783694	0.018901
 226	1.1250e-01	9.0254	21.926486	0.000234	2.344484	0.794333	0.019158
 227	1.1300e-01	9.1008	22.019281	0.000227	2.271219	0.769510	0.018559
 228	1.1350e-01	9.1024	22.121483	0.000250	2.501481	0.847525	0.020440
 229	1.1400e-01	9.1634	22.215133	0.000229	2.292152	0.776602	0.018730
 230	1.1450e-01	9.2099	22.309211	0.000230	2.302619	0.780148	0.018816
 231	1.1500e-01	9.2548	22.407564	0.000241	2.407283	0.815610	0.019671
 232	1.1550e-01	9.2677	22.502497	0.000232	2.323551	0.787241	0.018987
 233	1.1600e-01	9.2981	22.599141	0.000237	2.365417	0.801425	0.019329
 234	1.1650e-01	9.3495	22.697494	0.000241	2.407283	0.815610	0.019671
 235	1.1700e-01	9.3575	22.792427	0.000232	2.323551	0.787241	0.018987
 236	1.1750e-01	9.4570	22.886077	0.000229	2.292152	0.776602	0.018730
 237	1.1800e-01	9.4874	22.981865	0.000234	2.344484	0.794333	0.019158
 238	1.1850e-01	9.5404	23.079364	0.000239	2.386350	0.808517	0.019500
 239	1.1900e-01	9.5692	23.171303	0.000225	2.250286	0.762418	0.018388
 240	1.1950e-01	9.5917	23.267946	0.000237	2.365417	0.801425	0.019329
 241	1.2000e-01	9.6559	23.366728	0.000242	2.417749	0.819156	0.019756
 242	1.2050e-01	9.7024	23.462944	0.000235	2.354951	0.797879	0.019243
 243	1.2100e-01	9.7297	23.552745	0.000220	2.197954	0.744687	0.017960
 244	1.2150e-01	9.7585	23.649388	0.000237	2.365417	0.801425	0.019329
 245	1.2200e-01	9.8051	23.746459	0.000238	2.375884	0.804971	0.019414
 246	1.2250e-01	9.8211	23.837971	0.000224	2.239820	0.758872	0.018302
 247	1.2300e-01	9.8660	23.936325	0.000241	2.407283	0.815610	0.019671
 248	1.2350e-01	9.9398	24.024416	0.000216	2.156088	0.730502	0.017618
 249	1.2400e-01	9.9495	24.118065	0.000229	2.292152	0.776602	0.018730
 250	1.2450e-01	10.0200	24.217275	0.000243	2.428216	0.822702	0.019842
 251	1.2500e-01	10.0505	24.310069	0.000227	2.271219	0.769510	0.018559
 252	1.2550e-01	10.0826	24.404147	0.000230	2.302619	0.780148	0.018816
 253	1.2600e-01	10.1420	24.497797	0.000229	2.292152	0.776602	0.018730
 254	1.2650e-01	10.1500	24.592302	0.000231	2.313085	0.783694	0.018901
 255	1.2700e-01	10.1885	24.687662	0.000233	2.334018	0.790787	0.019072
 256	1.2750e-01	10.2527	24.777036	0.000219	2.187488	0.741141	0.017875
 257	1.2800e-01	10.2960	24.870258	0.000228	2.281686	0.773056	0.018644
 258	1.2850e-01	10.3457	24.966046	0.000234	2.344484	0.794333	0.019158
 259	1.2900e-01	10.3730	25.055420	0.000219	2.187488	0.741141	0.017875
 260	1.2950e-01	10.4163	25.152063	0.000237	2.365417	0.801425	0.019329
 261	1.3000e-01	10.4452	25.244003	0.000225	2.250286	0.762418	0.018388
 262	1.3050e-01	10.4724	25.338508	0.000231	2.313085	0.783694	0.018901
 263	1.3100e-01	10.5061	25.436862	0.000241	2.407283	0.815610	0.019671
 264	1.3150e-01	10.5719	25.525380	0.000217	2.166555	0.734049	0.017704
 265	1.3200e-01	10.5831	25.617747	0.000226	2.260753	0.765964	0.018473
 266	1.3250e-01	10.7034	25.711397	0.000229	2.292152	0.776602	0.018730
 267	1.3300e-01	10.6698	25.807613	-0.000235	-2.354951	-0.797879	0.019243
 268	1.3350e-01	10.7275	25.900408	0.000227	2.271219	0.769510	0.018559
 269	1.3400e-01	10.7708	25.991919	0.000224	2.239820	0.758872	0.018302
 270	1.3450e-01	10.7724	26.080010	0.000216	2.156088	0.730502	0.017618
 271	1.3500e-01	10.8462	26.171094	0.000223	2.229353	0.755325	0.018217
 272	1.3550e-01	10.8959	26.263889	0.000227	2.271219	0.769510	0.018559
 273	1.3600e-01	10.9473	26.355829	0.000225	2.250286	0.762418	0.018388
 274	1.3650e-01	10.9954	26.443064	0.000214	2.135155	0.723410	0.017447
 275	1.3700e-01	10.9842	26.545267	-0.000250	-2.501481	-0.847525	0.020440
 276	1.3750e-01	11.0163	26.632930	0.000215	2.145622	0.726956	0.017533
 277	1.3800e-01	11.0869	26.724442	0.000224	2.239820	0.758872	0.018302
 278	1.3850e-01	11.1125	26.816809	0.000226	2.260753	0.765964	0.018473
 279	1.3900e-01	11.1574	26.909603	0.000227	2.271219	0.769510	0.018559
 280	1.3950e-01	11.1735	26.998122	0.000217	2.166555	0.734049	0.017704
 281	1.4000e-01	11.2409	27.093910	0.000234	2.344484	0.794333	0.019158
 282	1.4050e-01	11.2569	27.187987	0.000230	2.302619	0.780148	0.018816
 283	1.4100e-01	11.3259	27.283775	0.000234	2.344484	0.794333	0.019158
 284	1.4150e-01	11.3435	27.373149	0.000219	2.187488	0.741141	0.017875
 285	1.4200e-01	11.4045	27.458247	0.000208	2.082823	0.705680	0.017019
 286	1.4250e-01	11.4526	27.549758	0.000224	2.239820	0.758872	0.018302
 287	1.4300e-01	11.4943	27.642981	0.000228	2.281686	0.773056	0.018644
 288	1.4350e-01	11.5120	27.737913	0.000232	2.323551	0.787241	0.018987
 289	1.4400e-01	11.5601	27.828142	0.000221	2.208421	0.748233	0.018046
 290	1.4450e-01	11.6082	27.917516	0.000219	2.187488	0.741141	0.017875
 291	1.4500e-01	11.6483	28.006034	0.000217	2.166555	0.734049	0.017704
 292	1.4550e-01	11.6949	28.096263	0.000221	2.208421	0.748233	0.018046
 293	1.4600e-01	11.7205	28.183499	0.000214	2.135155	0.723410	0.017447
 294	1.4650e-01	11.7590	28.277577	0.000230	2.302619	0.780148	0.018816
 295	1.4700e-01	11.7911	28.373792	0.000235	2.354951	0.797879	0.019243
 296	1.4750e-01	11.8601	28.459317	0.000209	2.093290	0.709226	0.017105
 297	1.4800e-01	11.9018	28.550401	0.000223	2.229353	0.755325	0.018217
 298	1.4850e-01	11.9307	28.641913	0.000224	2.239820	0.758872	0.018302
 299	1.4900e-01	11.9612	28.730432	0.000217	2.166555	0.734049	0.017704
 300	1.4950e-01	11.9965	28.818523	0.000216	2.156088	0.730502	0.017618
 301	1.5000e-01	12.0510	28.905330	0.000212	2.124689	0.719864	0.017362
 302	1.5050e-01	12.1296	28.994704	0.000219	2.187488	0.741141	0.017875
 303	1.5100e-01	12.1248	29.089209	-0.000231	-2.313085	-0.783694	0.018901
 304	1.5150e-01	12.1553	29.181149	0.000225	2.250286	0.762418	0.018388
 305	1.5200e-01	12.2002	29.270095	0.000218	2.177021	0.737595	0.017789
 306	1.5250e-01	12.2451	29.359896	0.000220	2.197954	0.744687	0.017960
 307	1.5300e-01	12.2820	29.444994	0.000208	2.082823	0.705680	0.017019
 308	1.5350e-01	12.3349	29.536505	0.000224	2.239820	0.758872	0.018302
 309	1.5400e-01	12.3574	29.628017	0.000224	2.239820	0.758872	0.018302
 310	1.5450e-01	12.4007	29.713542	0.000209	2.093290	0.709226	0.017105
 311	1.5500e-01	12.4505	29.808903	0.000233	2.334018	0.790787	0.019072
 312	1.5550e-01	12.4713	29.896138	0.000214	2.135155	0.723410	0.017447
 313	1.5600e-01	12.5066	29.987222	0.000223	2.229353	0.755325	0.018217
 314	1.5650e-01	12.5804	30.065905	0.000193	1.925826	0.652488	0.015737
 315	1.5700e-01	12.6012	30.157417	0.000224	2.239820	0.758872	0.018302
 316	1.5750e-01	12.6622	30.246791	0.000219	2.187488	0.741141	0.017875
 317	1.5800e-01	12.6927	30.341296	0.000231	2.313085	0.783694	0.018901
 318	1.5850e-01	12.7328	30.429387	0.000216	2.156088	0.730502	0.017618
 319	1.5900e-01	12.7841	30.515340	0.000210	2.103756	0.712772	0.017191
 320	1.5950e-01	12.8066	30.605569	0.000221	2.208421	0.748233	0.018046
 321	1.6000e-01	12.8403	30.692376	0.000212	2.124689	0.719864	0.017362
 322	1.6050e-01	12.8772	30.779612	0.000214	2.135155	0.723410	0.017447
 323	1.6100e-01	12.9269	30.865992	0.000211	2.114222	0.716318	0.017276
 324	1.6150e-01	12.9061	30.960925	-0.000232	-2.323551	-0.787241	0.018987
 325	1.6200e-01	13.0087	31.051154	0.000221	2.208421	0.748233	0.018046
 326	1.6250e-01	13.0071	31.132830	-0.000200	-1.999092	-0.677311	0.016335
 327	1.6300e-01	13.0937	31.217073	0.000206	2.061890	0.698587	0.016848
 328	1.6350e-01	13.1322	31.307729	0.000222	2.218887	0.751779	0.018131
 329	1.6400e-01	13.1483	31.397531	0.000220	2.197954	0.744687	0.017960
 330	1.6450e-01	13.2205	31.478352	0.000198	1.978159	0.670218	0.016164
 331	1.6500e-01	13.2510	31.563449	0.000208	2.082823	0.705680	0.017019
 332	1.6550e-01	13.2782	31.653250	0.000220	2.197954	0.744687	0.017960
 333	1.6600e-01	13.3119	31.734499	0.000199	1.988625	0.673764	0.016250
 334	1.6650e-01	13.3536	31.829432	0.000232	2.323551	0.787241	0.018987
 335	1.6700e-01	13.4082	31.912391	0.000203	2.030491	0.687949	0.016592
 336	1.6750e-01	13.4322	32.006469	0.000230	2.302619	0.780148	0.018816
 337	1.6800e-01	13.4659	32.089856	0.000204	2.040957	0.691495	0.016677
 338	1.6850e-01	13.5381	32.172815	0.000203	2.030491	0.687949	0.016592
 339	1.6900e-01	13.5590	32.260906	0.000216	2.156088	0.730502	0.017618
 340	1.6950e-01	13.6071	32.348142	0.000214	2.135155	0.723410	0.017447
 341	1.7000e-01	13.6424	32.440936	0.000227	2.271219	0.769510	0.018559
 342	1.7050e-01	13.6873	32.525606	0.000207	2.072357	0.702133	0.016934
 343	1.7100e-01	13.7306	32.609421	0.000205	2.051424	0.695041	0.016763
 344	1.7150e-01	13.7611	32.700932	0.000224	2.239820	0.758872	0.018302
 345	1.7200e-01	13.7964	32.786457	0.000209	2.093290	0.709226	0.017105
 346	1.7250e-01	13.8461	32.869844	0.000204	2.040957	0.691495	0.016677
 347	1.7300e-01	13.8750	32.957080	0.000214	2.135155	0.723410	0.017447
 348	1.7350e-01	13.9215	33.040039	0.000203	2.030491	0.687949	0.016592
 349	1.7400e-01	13.9632	33.125564	0.000209	2.093290	0.709226	0.017105
 350	1.7450e-01	13.9889	33.216221	0.000222	2.218887	0.751779	0.018131
 351	1.7500e-01	14.0483	33.303884	0.000215	2.145622	0.726956	0.017533
 352	1.7550e-01	14.0675	33.386843	0.000203	2.030491	0.687949	0.016592
 353	1.7600e-01	14.1269	33.470230	0.000204	2.040957	0.691495	0.016677
 354	1.7650e-01	14.1493	33.563880	0.000229	2.292152	0.776602	0.018730
 355	1.7700e-01	14.2039	33.645984	0.000201	2.009558	0.680857	0.016421
 356	1.7750e-01	14.2520	33.739207	0.000228	2.281686	0.773056	0.018644
 357	1.7800e-01	14.2873	33.822166	0.000203	2.030491	0.687949	0.016592
 358	1.7850e-01	14.3258	33.902132	0.000196	1.957226	0.663126	0.015993
 359	1.7900e-01	14.3467	33.992788	0.000222	2.218887	0.751779	0.018131
 360	1.7950e-01	14.3900	34.075320	0.000202	2.020024	0.684403	0.016506
 361	1.8000e-01	14.4381	34.158279	0.000203	2.030491	0.687949	0.016592
 362	1.8050e-01	14.4878	34.245515	0.000214	2.135155	0.723410	0.017447
 363	1.8100e-01	14.5135	34.326764	0.000199	1.988625	0.673764	0.016250
 364	1.8150e-01	14.5696	34.409295	0.000202	2.020024	0.684403	0.016506
 365	1.8200e-01	14.5857	34.500380	0.000223	2.229353	0.755325	0.018217
 366	1.8250e-01	14.6178	34.583766	0.000204	2.040957	0.691495	0.016677
 367	1.8300e-01	14.6659	34.666726	0.000203	2.030491	0.687949	0.016592
 368	1.8350e-01	14.7493	34.746264	0.000195	1.946759	0.659580	0.015908
 369	1.8400e-01	14.7862	34.835638	0.000219	2.187488	0.741141	0.017875
 370	1.8450e-01	14.7814	34.922446	-0.000212	-2.124689	-0.719864	0.017362
 371	1.8500e-01	14.8584	35.007543	0.000208	2.082823	0.705680	0.017019
 372	1.8550e-01	14.9001	35.090930	0.000204	2.040957	0.691495	0.016677
 373	1.8600e-01	14.8985	35.182442	-0.000224	-2.239820	-0.758872	0.018302
 374	1.8650e-01	14.9691	35.264118	0.000200	1.999092	0.677311	0.016335
 375	1.8700e-01	14.9948	35.353492	0.000219	2.187488	0.741141	0.017875
 376	1.8750e-01	15.0204	35.430037	0.000187	1.873494	0.634757	0.015309
 377	1.8800e-01	15.0894	35.516845	0.000212	2.124689	0.719864	0.017362
 378	1.8850e-01	15.1279	35.598521	0.000200	1.999092	0.677311	0.016335
 379	1.8900e-01	15.1712	35.678060	0.000195	1.946759	0.659580	0.015908
 380	1.8950e-01	15.2097	35.762302	0.000206	2.061890	0.698587	0.016848
 381	1.9000e-01	15.2354	35.849110	0.000212	2.124689	0.719864	0.017362
 382	1.9050e-01	15.2819	35.931641	0.000202	2.020024	0.684403	0.016506
 383	1.9100e-01	15.3076	36.018877	0.000214	2.135155	0.723410	0.017447
 384	1.9150e-01	15.3573	36.103119	0.000206	2.061890	0.698587	0.016848
 385	1.9200e-01	15.4231	36.186506	0.000204	2.040957	0.691495	0.016677
 386	1.9250e-01	15.4616	36.267755	0.000199	1.988625	0.673764	0.016250
 387	1.9300e-01	15.4937	36.344300	0.000187	1.873494	0.634757	0.015309
 388	1.9350e-01	15.5370	36.427687	0.000204	2.040957	0.691495	0.016677
 389	1.9400e-01	15.5546	36.515350	0.000215	2.145622	0.726956	0.017533
 390	1.9450e-01	15.5915	36.601303	0.000210	2.103756	0.712772	0.017191
 391	1.9500e-01	15.6252	36.682979	0.000200	1.999092	0.677311	0.016335
 392	1.9550e-01	15.6701	36.763800	0.000198	1.978159	0.670218	0.016164
 393	1.9600e-01	15.7247	36.840773	0.000188	1.883961	0.638303	0.015395
 394	1.9650e-01	15.7455	36.926725	0.000210	2.103756	0.712772	0.017191
 395	1.9700e-01	15.8290	37.005836	0.000194	1.936293	0.656034	0.015822
 396	1.9750e-01	15.8161	37.091789	-0.000210	-2.103756	-0.712772	0.017191
 397	1.9800e-01	15.8659	37.177314	0.000209	2.093290	0.709226	0.017105
 398	1.9850e-01	15.9236	37.258990	0.000200	1.999092	0.677311	0.016335
 399	1.9900e-01	15.9685	37.340667	0.000200	1.999092	0.677311	0.016335
 400	1.9950e-01	16.0086	37.425764	0.000208	2.082823	0.705680	0.017019
 401	2.0000e-01	16.0343	37.502737	0.000188	1.883961	0.638303	0.015395
 402	2.0050e-01	16.0664	37.591683	0.000218	2.177021	0.737595	0.017789
 403	2.0100e-01	16.1546	37.669510	0.000190	1.904894	0.645395	0.015566
 404	2.0150e-01	16.1562	37.747338	0.000190	1.904894	0.645395	0.015566
 405	2.0200e-01	16.2108	37.838850	0.000224	2.239820	0.758872	0.018302
 406	2.0250e-01	16.2364	37.913257	0.000182	1.821162	0.617026	0.014881
 407	2.0300e-01	16.2798	37.993650	0.000197	1.967692	0.666672	0.016079
 408	2.0350e-01	16.3279	38.073189	0.000195	1.946759	0.659580	0.015908
 409	2.0400e-01	16.3728	38.160424	0.000214	2.135155	0.723410	0.017447
 410	2.0450e-01	16.3904	38.240390	0.000196	1.957226	0.663126	0.015993
 411	2.0500e-01	16.4434	38.319073	0.000193	1.925826	0.652488	0.015737
 412	2.0550e-01	16.4803	38.401605	0.000202	2.020024	0.684403	0.016506
 413	2.0600e-01	16.5252	38.485419	0.000205	2.051424	0.695041	0.016763
 414	2.0650e-01	16.5557	38.575221	0.000220	2.197954	0.744687	0.017960
 415	2.0700e-01	16.6118	38.647489	0.000177	1.768830	0.599296	0.014454
 416	2.0750e-01	16.6215	38.730449	0.000203	2.030491	0.687949	0.016592
 417	2.0800e-01	16.6840	38.817257	0.000212	2.124689	0.719864	0.017362
 418	2.0850e-01	16.7001	38.891663	0.000182	1.821162	0.617026	0.014881
 419	2.0900e-01	16.7610	38.972912	0.000199	1.988625	0.673764	0.016250
 420	2.0950e-01	16.7947	39.052878	0.000196	1.957226	0.663126	0.015993
 421	2.1000e-01	16.8493	39.133699	0.000198	1.978159	0.670218	0.016164
 422	2.1050e-01	16.9086	39.209389	0.000185	1.852561	0.627665	0.015138
 423	2.1100e-01	16.9102	39.294486	0.000208	2.082823	0.705680	0.017019
 424	2.1150e-01	16.9808	39.375308	0.000198	1.978159	0.670218	0.016164
 425	2.1200e-01	16.9808	39.456984	-0.000200	-1.999092	-0.677311	0.016335
 426	2.1250e-01	17.0466	39.534812	0.000190	1.904894	0.645395	0.015566
 427	2.1300e-01	17.0787	39.613495	0.000193	1.925826	0.652488	0.015737
 428	2.1350e-01	17.1300	39.698165	0.000207	2.072357	0.702133	0.016934
 429	2.1400e-01	17.1509	39.780696	0.000202	2.020024	0.684403	0.016506
 430	2.1450e-01	17.2006	39.859807	0.000194	1.936293	0.656034	0.015822
 431	2.1500e-01	17.2230	39.940628	0.000198	1.978159	0.670218	0.016164
 432	2.1550e-01	17.2888	40.015463	0.000183	1.831628	0.620573	0.014967
 433	2.1600e-01	17.3418	40.094146	0.000193	1.925826	0.652488	0.015737
 434	2.1650e-01	17.3514	40.178816	0.000207	2.072357	0.702133	0.016934
 435	2.1700e-01	17.4172	40.262202	0.000204	2.040957	0.691495	0.016677
 436	2.1750e-01	17.4557	40.334899	0.000178	1.779296	0.602842	0.014539
 437	2.1800e-01	17.4685	40.419569	0.000207	2.072357	0.702133	0.016934
 438	2.1850e-01	17.5262	40.502528	0.000203	2.030491	0.687949	0.016592
 439	2.1900e-01	17.5583	40.582921	0.000197	1.967692	0.666672	0.016079
 440	2.1950e-01	17.5888	40.651341	0.000167	1.674632	0.567381	0.013684
 441	2.2000e-01	17.6257	40.736439	0.000208	2.082823	0.705680	0.017019
 442	2.2050e-01	17.6915	40.815122	0.000193	1.925826	0.652488	0.015737
 443	2.2100e-01	17.7188	40.892950	0.000190	1.904894	0.645395	0.015566
 444	2.2150e-01	17.7380	40.975054	0.000201	2.009558	0.680857	0.016421
 445	2.2200e-01	17.8038	41.048605	0.000180	1.800229	0.609934	0.014710
 446	2.2250e-01	17.8567	41.129854	0.000199	1.988625	0.673764	0.016250
 447	2.2300e-01	17.8920	41.208965	0.000194	1.936293	0.656034	0.015822
 448	2.2350e-01	17.9048	41.291924	0.000203	2.030491	0.687949	0.016592
 449	2.2400e-01	17.9610	41.368469	0.000187	1.873494	0.634757	0.015309
 450	2.2450e-01	18.0091	41.445442	0.000188	1.883961	0.638303	0.015395
 451	2.2500e-01	18.0220	41.529256	0.000205	2.051424	0.695041	0.016763
 452	2.2550e-01	18.1118	41.602808	0.000180	1.800229	0.609934	0.014710
 453	2.2600e-01	18.1054	41.684912	-0.000201	-2.009558	-0.680857	0.016421
 454	2.2650e-01	18.1551	41.760174	0.000184	1.842095	0.624119	0.015052
 455	2.2700e-01	18.1968	41.840140	0.000196	1.957226	0.663126	0.015993
 456	2.2750e-01	18.2449	41.919678	0.000195	1.946759	0.659580	0.015908
 457	2.2800e-01	18.2802	41.995368	0.000185	1.852561	0.627665	0.015138
 458	2.2850e-01	18.3059	42.074906	0.000195	1.946759	0.659580	0.015908
 459	2.2900e-01	18.3685	42.151451	0.000187	1.873494	0.634757	0.015309
 460	2.2950e-01	18.3925	42.229279	0.000190	1.904894	0.645395	0.015566
 461	2.3000e-01	18.4599	42.309245	0.000196	1.957226	0.663126	0.015993
 462	2.3050e-01	18.4920	42.386645	0.000189	1.894427	0.641849	0.015480
 463	2.3100e-01	18.5193	42.458486	0.000176	1.758363	0.595750	0.014368
 464	2.3150e-01	18.5546	42.544011	0.000209	2.093290	0.709226	0.017105
 465	2.3200e-01	18.5754	42.627398	0.000204	2.040957	0.691495	0.016677
 466	2.3250e-01	18.6267	42.701805	0.000182	1.821162	0.617026	0.014881
 467	2.3300e-01	18.6749	42.775784	0.000181	1.810696	0.613480	0.014796
 468	2.3350e-01	18.7150	42.854039	0.000192	1.915360	0.648942	0.015651
 469	2.3400e-01	18.7631	42.933578	0.000195	1.946759	0.659580	0.015908
 470	2.3450e-01	18.7952	43.007557	0.000181	1.810696	0.613480	0.014796
 471	2.3500e-01	18.8401	43.091371	0.000205	2.051424	0.695041	0.016763
 472	2.3550e-01	18.9059	43.165778	0.000182	1.821162	0.617026	0.014881
 473	2.3600e-01	18.9171	43.238474	0.000178	1.779296	0.602842	0.014539
 474	2.3650e-01	18.9556	43.319723	0.000199	1.988625	0.673764	0.016250
 475	2.3700e-01	19.0021	43.391992	0.000177	1.768830	0.599296	0.014454
 476	2.3750e-01	19.0455	43.469392	0.000189	1.894427	0.641849	0.015480
 477	2.3800e-01	19.0984	43.544654	0.000184	1.842095	0.624119	0.015052
 478	2.3850e-01	19.1273	43.628041	0.000204	2.040957	0.691495	0.016677
 479	2.3900e-01	19.1802	43.702020	0.000181	1.810696	0.613480	0.014796
 480	2.3950e-01	19.1866	43.785835	0.000205	2.051424	0.695041	0.016763
 481	2.4000e-01	19.2364	43.860669	0.000183	1.831628	0.620573	0.014967
 482	2.4050e-01	19.2700	43.936359	0.000185	1.852561	0.627665	0.015138
 483	2.4100e-01	19.3118	44.008628	0.000177	1.768830	0.599296	0.014454
 484	2.4150e-01	19.3679	44.086883	0.000192	1.915360	0.648942	0.015651
 485	2.4200e-01	19.4016	44.158724	0.000176	1.758363	0.595750	0.014368
 486	2.4250e-01	19.4096	44.243821	0.000208	2.082823	0.705680	0.017019
 487	2.4300e-01	19.4706	44.319939	0.000186	1.863028	0.631211	0.015223
 488	2.4350e-01	19.5235	44.395201	0.000184	1.842095	0.624119	0.015052
 489	2.4400e-01	19.5380	44.469180	0.000181	1.810696	0.613480	0.014796
 490	2.4450e-01	19.5989	44.553422	0.000206	2.061890	0.698587	0.016848
 491	2.4500e-01	19.6294	44.628257	0.000183	1.831628	0.620573	0.014967
 492	2.4550e-01	19.6759	44.702663	0.000182	1.821162	0.617026	0.014881
 493	2.4600e-01	19.7000	44.775360	0.000178	1.779296	0.602842	0.014539
 494	2.4650e-01	19.7497	44.852332	0.000188	1.883961	0.638303	0.015395
 495	2.4700e-01	19.7946	44.929305	0.000188	1.883961	0.638303	0.015395
 496	2.4750e-01	19.8636	44.999008	0.000171	1.706031	0.578019	0.013941
 497	2.4800e-01	19.8780	45.082395	0.000204	2.040957	0.691495	0.016677
 498	2.4850e-01	19.9117	45.151670	0.000170	1.695565	0.574473	0.013855
 499	2.4900e-01	19.9454	45.231636	0.000196	1.957226	0.663126	0.015993
 500	2.4950e-01	19.9952	45.301339	0.000171	1.706031	0.578019	0.013941
 501	2.5000e-01	20.0401	45.379167	0.000190	1.904894	0.645395	0.015566
 502	2.5050e-01	19.9807	45.444593	-0.000160	-1.601367	-0.542558	0.013085
 503	2.5100e-01	19.9406	45.481369	-0.000090	-0.900115	-0.304967	0.007355
 504	2.5150e-01	19.8941	45.503605	-0.000054	-0.544255	-0.184399	0.004447
 505	2.5200e-01	19.8588	45.502750	0.000002	0.020933	0.007092	-0.000171
 506	2.5250e-01	19.8283	45.486073	0.000041	0.408191	0.138299	-0.003335
 507	2.5300e-01	19.7770	45.462553	0.000058	0.575655	0.195037	-0.004704
 508	2.5350e-01	19.7433	45.433903	0.000070	0.701252	0.237591	-0.005730
 509	2.5400e-01	19.6679	45.394561	0.000096	0.962913	0.326244	-0.007868
 510	2.5450e-01	19.6278	45.350088	0.000109	1.088511	0.368797	-0.008895
 511	2.5500e-01	19.6182	45.292359	0.000141	1.412970	0.478727	-0.011546
 512	2.5550e-01	19.5476	45.243609	0.000119	1.193175	0.404259	-0.009750
 513	2.5600e-01	19.5588	45.192294	-0.000126	-1.255974	-0.425535	-0.010263
 514	2.5650e-01	19.4914	45.133710	0.000143	1.433903	0.485820	-0.011717
 515	2.5700e-01	19.4593	45.074270	0.000145	1.454836	0.492912	-0.011888
 516	2.5750e-01	19.4160	45.016540	0.000141	1.412970	0.478727	-0.011546
 517	2.5800e-01	19.4257	44.951969	-0.000158	-1.580434	-0.535465	-0.012914
 518	2.5850e-01	19.3422	44.895522	0.000138	1.381571	0.468089	-0.011289
 519	2.5900e-01	19.2877	44.832661	0.000154	1.538568	0.521281	-0.012572
 520	2.5950e-01	19.2668	44.774504	0.000142	1.423437	0.482273	-0.011631
 521	2.6000e-01	19.2283	44.714637	0.000147	1.465303	0.496458	-0.011974
 522	2.6050e-01	19.1995	44.647500	0.000164	1.643232	0.556742	-0.013427
 523	2.6100e-01	19.1465	44.582928	0.000158	1.580434	0.535465	-0.012914
 524	2.6150e-01	19.1176	44.520495	0.000153	1.528101	0.517735	-0.012487
 525	2.6200e-01	19.0471	44.455924	0.000158	1.580434	0.535465	-0.012914
 526	2.6250e-01	19.0102	44.392635	0.000155	1.549034	0.524827	-0.012658
 527	2.6300e-01	18.9684	44.329346	0.000155	1.549034	0.524827	-0.012658
 528	2.6350e-01	18.9428	44.260926	0.000167	1.674632	0.567381	-0.013684
 529	2.6400e-01	18.9027	44.192934	0.000166	1.664165	0.563834	-0.013598
 530	2.6450e-01	18.8481	44.127935	0.000159	1.590900	0.539012	-0.013000
 531	2.6500e-01	18.8417	44.059515	0.000167	1.674632	0.567381	-0.013684
 532	2.6550e-01	18.7888	44.003068	0.000138	1.381571	0.468089	-0.011289
 533	2.6600e-01	18.7647	43.925668	0.000189	1.894427	0.641849	-0.015480
 534	2.6650e-01	18.7005	43.865373	0.000148	1.475769	0.500004	-0.012059
 535	2.6700e-01	18.6636	43.803367	0.000152	1.517635	0.514189	-0.012401
 536	2.6750e-01	18.5850	43.728105	0.000184	1.842095	0.624119	-0.015052
 537	2.6800e-01	18.6059	43.661823	-0.000162	-1.622299	-0.549650	-0.013256
 538	2.6850e-01	18.5610	43.600673	0.000150	1.496702	0.507096	-0.012230
 539	2.6900e-01	18.5048	43.527121	0.000180	1.800229	0.609934	-0.014710
 540	2.6950e-01	18.4535	43.462978	0.000157	1.569967	0.531919	-0.012829
 541	2.7000e-01	18.4150	43.397551	0.000160	1.601367	0.542558	-0.013085
 542	2.7050e-01	18.3765	43.329559	0.000166	1.664165	0.563834	-0.013598
 543	2.7100e-01	18.3444	43.257718	0.000176	1.758363	0.595750	-0.014368
 544	2.7150e-01	18.3171	43.191008	0.000163	1.632766	0.553196	-0.013342
 545	2.7200e-01	18.2337	43.127719	0.000155	1.549034	0.524827	-0.012658
 546	2.7250e-01	18.2016	43.056306	0.000175	1.747897	0.592203	-0.014283
 547	2.7300e-01	18.2145	42.987031	-0.000170	-1.695565	-0.574473	-0.013855
 548	2.7350e-01	18.1342	42.915617	0.000175	1.747897	0.592203	-0.014283
 549	2.7400e-01	18.0749	42.854039	0.000151	1.507169	0.510643	-0.012316
 550	2.7450e-01	18.0556	42.783481	0.000173	1.726964	0.585111	-0.014112
 551	2.7500e-01	18.0187	42.713778	0.000171	1.706031	0.578019	-0.013941
 552	2.7550e-01	17.9706	42.645358	0.000167	1.674632	0.567381	-0.013684
 553	2.7600e-01	17.9209	42.580787	0.000158	1.580434	0.535465	-0.012914
 554	2.7650e-01	17.8952	42.509801	0.000174	1.737430	0.588657	-0.014197
 555	2.7700e-01	17.8423	42.435822	0.000181	1.810696	0.613480	-0.014796
 556	2.7750e-01	17.8134	42.369540	0.000162	1.622299	0.549650	-0.013256
 557	2.7800e-01	17.7733	42.299409	0.000172	1.716497	0.581565	-0.014026
 558	2.7850e-01	17.7380	42.233555	0.000161	1.611833	0.546104	-0.013171
 559	2.7900e-01	17.6819	42.157438	0.000186	1.863028	0.631211	-0.015223
 560	2.7950e-01	17.6498	42.097570	0.000147	1.465303	0.496458	-0.011974
 561	2.8000e-01	17.6209	42.023591	0.000181	1.810696	0.613480	-0.014796
 562	2.8050e-01	17.5776	41.948757	0.000183	1.831628	0.620573	-0.014967
 563	2.8100e-01	17.5375	41.879909	0.000169	1.685098	0.570927	-0.013770
 564	2.8150e-01	17.4877	41.817048	0.000154	1.538568	0.521281	-0.012572
 565	2.8200e-01	17.4444	41.744352	0.000178	1.779296	0.602842	-0.014539
 566	2.8250e-01	17.4075	41.672083	0.000177	1.768830	0.599296	-0.014454
 567	2.8300e-01	17.3690	41.598104	0.000181	1.810696	0.613480	-0.014796
 568	2.8350e-01	17.3273	41.530539	0.000165	1.653699	0.560288	-0.013513
 569	2.8400e-01	17.2936	41.463402	0.000164	1.643232	0.556742	-0.013427
 570	2.8450e-01	17.2439	41.394554	0.000169	1.685098	0.570927	-0.013770
 571	2.8500e-01	17.1974	41.318437	0.000186	1.863028	0.631211	-0.015223
 572	2.8550e-01	17.1749	41.251300	0.000164	1.643232	0.556742	-0.013427
 573	2.8600e-01	17.1348	41.180314	0.000174	1.737430	0.588657	-0.014197
 574	2.8650e-01	17.0867	41.104624	0.000185	1.852561	0.627665	-0.015138
 575	2.8700e-01	17.0594	41.037059	0.000165	1.653699	0.560288	-0.013513
 576	2.8750e-01	17.0161	40.956238	0.000198	1.978159	0.670218	-0.016164
 577	2.8800e-01	16.9856	40.894233	0.000152	1.517635	0.514189	-0.012401
 578	2.8850e-01	16.9375	40.818971	0.000184	1.842095	0.624119	-0.015052
 579	2.8900e-01	16.8910	40.758248	0.000149	1.486236	0.503550	-0.012145
 580	2.8950e-01	16.8428	40.679137	0.000194	1.936293	0.656034	-0.015822
 581	2.9000e-01	16.8124	40.609434	0.000171	1.706031	0.578019	-0.013941
 582	2.9050e-01	16.7723	40.539731	0.000171	1.706031	0.578019	-0.013941
 583	2.9100e-01	16.7321	40.463186	0.000187	1.873494	0.634757	-0.015309
 584	2.9150e-01	16.7145	40.388352	0.000183	1.831628	0.620573	-0.014967
 585	2.9200e-01	16.6616	40.316939	0.000175	1.747897	0.592203	-0.014283
 586	2.9250e-01	16.5926	40.252367	0.000158	1.580434	0.535465	-0.012914
 587	2.9300e-01	16.5974	40.175395	-0.000188	-1.883961	-0.638303	-0.015395
 588	2.9350e-01	16.5332	40.104409	0.000174	1.737430	0.588657	-0.014197
 589	2.9400e-01	16.4915	40.033851	0.000173	1.726964	0.585111	-0.014112
 590	2.9450e-01	16.4658	39.964148	0.000171	1.706031	0.578019	-0.013941
 591	2.9500e-01	16.4306	39.887603	0.000187	1.873494	0.634757	-0.015309
 592	2.9550e-01	16.3760	39.812768	0.000183	1.831628	0.620573	-0.014967
 593	2.9600e-01	16.3600	39.749052	0.000156	1.559501	0.528373	-0.012743
 594	2.9650e-01	16.2814	39.674645	0.000182	1.821162	0.617026	-0.014881
 595	2.9700e-01	16.2396	39.598100	0.000187	1.873494	0.634757	-0.015309
 596	2.9750e-01	16.2188	39.525404	0.000178	1.779296	0.602842	-0.014539
 597	2.9800e-01	16.1675	39.457839	0.000165	1.653699	0.560288	-0.013513
 598	2.9850e-01	16.1626	39.373170	0.000207	2.072357	0.702133	-0.016934
 599	2.9900e-01	16.1081	39.308170	0.000159	1.590900	0.539012	-0.013000
 600	2.9950e-01	16.0600	39.235902	0.000177	1.768830	0.599296	-0.014454
 601	3.0000e-01	16.0231	39.156791	0.000194	1.936293	0.656034	-0.015822
 602	3.0050e-01	16.0022	39.088799	0.000166	1.664165	0.563834	-0.013598
 603	3.0100e-01	15.9188	39.012681	0.000186	1.863028	0.631211	-0.015223
 604	3.0150e-01	15.9236	38.938702	-0.000181	-1.810696	-0.613480	-0.014796
 605	3.0200e-01	15.8498	38.863013	0.000185	1.852561	0.627665	-0.015138
 606	3.0250e-01	15.8113	38.790316	0.000178	1.779296	0.602842	-0.014539
 607	3.0300e-01	15.7840	38.720186	0.000172	1.716497	0.581565	-0.014026
 608	3.0350e-01	15.7455	38.647062	0.000179	1.789763	0.606388	-0.014625
 609	3.0400e-01	15.6990	38.573083	0.000181	1.810696	0.613480	-0.014796
 610	3.0450e-01	15.6477	38.501242	0.000176	1.758363	0.595750	-0.014368
 611	3.0500e-01	15.5980	38.421703	0.000195	1.946759	0.659580	-0.015908
 612	3.0550e-01	15.5771	38.351145	0.000173	1.726964	0.585111	-0.014112
 613	3.0600e-01	15.5466	38.272034	0.000194	1.936293	0.656034	-0.015822
 614	3.0650e-01	15.4825	38.204042	0.000166	1.664165	0.563834	-0.013598
 615	3.0700e-01	15.4728	38.130490	0.000180	1.800229	0.609934	-0.014710
 616	3.0750e-01	15.4006	38.054373	0.000186	1.863028	0.631211	-0.015223
 617	3.0800e-01	15.3862	37.979966	0.000182	1.821162	0.617026	-0.014881
 618	3.0850e-01	15.3541	37.907270	0.000178	1.779296	0.602842	-0.014539
 619	3.0900e-01	15.3076	37.832863	0.000182	1.821162	0.617026	-0.014881
 620	3.0950e-01	15.2354	37.751187	0.000200	1.999092	0.677311	-0.016335
 621	3.1000e-01	15.2001	37.674642	0.000187	1.873494	0.634757	-0.015309
 622	3.1050e-01	15.1969	37.601090	0.000180	1.800229	0.609934	-0.014710
 623	3.1100e-01	15.1215	37.525828	0.000184	1.842095	0.624119	-0.015052
 624	3.1150e-01	15.0942	37.453132	0.000178	1.779296	0.602842	-0.014539
 625	3.1200e-01	15.0605	37.377870	0.000184	1.842095	0.624119	-0.015052
 626	3.1250e-01	15.0156	37.294483	0.000204	2.040957	0.691495	-0.016677
 627	3.1300e-01	14.9547	37.223925	0.000173	1.726964	0.585111	-0.014112
 628	3.1350e-01	14.9274	37.147380	0.000187	1.873494	0.634757	-0.015309
 629	3.1400e-01	14.8905	37.073401	0.000181	1.810696	0.613480	-0.014796
 630	3.1450e-01	14.8536	36.998994	0.000182	1.821162	0.617026	-0.014881
 631	3.1500e-01	14.8151	36.926298	0.000178	1.779296	0.602842	-0.014539
 632	3.1550e-01	14.7686	36.848042	0.000192	1.915360	0.648942	-0.015651
 633	3.1600e-01	14.7285	36.771070	0.000188	1.883961	0.638303	-0.015395
 634	3.1650e-01	14.7108	36.689821	0.000199	1.988625	0.673764	-0.016250
 635	3.1700e-01	14.6611	36.621829	0.000166	1.664165	0.563834	-0.013598
 636	3.1750e-01	14.6306	36.538869	0.000203	2.030491	0.687949	-0.016592
 637	3.1800e-01	14.5745	36.467028	0.000176	1.758363	0.595750	-0.014368
 638	3.1850e-01	14.5392	36.391338	0.000185	1.852561	0.627665	-0.015138
 639	3.1900e-01	14.4894	36.312228	0.000194	1.936293	0.656034	-0.015822
 640	3.1950e-01	14.4509	36.232690	0.000195	1.946759	0.659580	-0.015908
 641	3.2000e-01	14.4365	36.155717	0.000188	1.883961	0.638303	-0.015395
 642	3.2050e-01	14.3643	36.083876	0.000176	1.758363	0.595750	-0.014368
 643	3.2100e-01	14.3450	36.008614	0.000184	1.842095	0.624119	-0.015052
 644	3.2150e-01	14.3082	35.931641	0.000188	1.883961	0.638303	-0.015395
 645	3.2200e-01	14.2568	35.850820	0.000198	1.978159	0.670218	-0.016164
 646	3.2250e-01	14.2103	35.774275	0.000187	1.873494	0.634757	-0.015309
 647	3.2300e-01	14.1638	35.700724	0.000180	1.800229	0.609934	-0.014710
 648	3.2350e-01	14.1413	35.622896	0.000190	1.904894	0.645395	-0.015566
 649	3.2400e-01	14.0852	35.548917	0.000181	1.810696	0.613480	-0.014796
 650	3.2450e-01	14.0675	35.463392	0.000209	2.093290	0.709226	-0.017105
 651	3.2500e-01	13.9889	35.389840	0.000180	1.800229	0.609934	-0.014710
 652	3.2550e-01	13.9825	35.308591	0.000199	1.988625	0.673764	-0.016250
 653	3.2600e-01	13.9809	35.230336	0.000192	1.915360	0.648942	-0.015651
 654	3.2650e-01	13.8943	35.156784	0.000180	1.800229	0.609934	-0.014710
 655	3.2700e-01	13.8670	35.081522	0.000184	1.842095	0.624119	-0.015052
 656	3.2750e-01	13.8381	35.009681	0.000176	1.758363	0.595750	-0.014368
 657	3.2800e-01	13.7852	34.927577	0.000201	2.009558	0.680857	-0.016421
 658	3.2850e-01	13.7370	34.845901	0.000200	1.999092	0.677311	-0.016335
 659	3.2900e-01	13.7098	34.767218	0.000193	1.925826	0.652488	-0.015737
 660	3.2950e-01	13.6633	34.692383	0.000183	1.831628	0.620573	-0.014967
 661	3.3000e-01	13.6456	34.608996	0.000204	2.040957	0.691495	-0.016677
 662	3.3050e-01	13.5718	34.538438	0.000173	1.726964	0.585111	-0.014112
 663	3.3100e-01	13.5510	34.453341	0.000208	2.082823	0.705680	-0.017019
 664	3.3150e-01	13.4852	34.379362	0.000181	1.810696	0.613480	-0.014796
 665	3.3200e-01	13.4467	34.292554	0.000212	2.124689	0.719864	-0.017362
 666	3.3250e-01	13.4274	34.221568	0.000174	1.737430	0.588657	-0.014197
 667	3.3300e-01	13.3681	34.139036	0.000202	2.020024	0.684403	-0.016506
 668	3.3350e-01	13.3232	34.068050	0.000174	1.737430	0.588657	-0.014197
 669	3.3400e-01	13.2991	33.981242	0.000212	2.124689	0.719864	-0.017362
 670	3.3450e-01	13.2686	33.905553	0.000185	1.852561	0.627665	-0.015138
 671	3.3500e-01	13.2109	33.823876	0.000200	1.999092	0.677311	-0.016335
 672	3.3550e-01	13.1804	33.748187	0.000185	1.852561	0.627665	-0.015138
 673	3.3600e-01	13.1387	33.667793	0.000197	1.967692	0.666672	-0.016079
 674	3.3650e-01	13.0889	33.590821	0.000188	1.883961	0.638303	-0.015395
 675	3.3700e-01	13.0617	33.511282	0.000195	1.946759	0.659580	-0.015908
 676	3.3750e-01	13.0119	33.431316	0.000196	1.957226	0.663126	-0.015993
 677	3.3800e-01	12.9606	33.350068	0.000199	1.988625	0.673764	-0.016250
 678	3.3850e-01	12.9510	33.271384	0.000193	1.925826	0.652488	-0.015737
 679	3.3900e-01	12.9221	33.185004	0.000211	2.114222	0.716318	-0.017276
 680	3.3950e-01	12.8451	33.110170	0.000183	1.831628	0.620573	-0.014967
 681	3.4000e-01	12.8435	33.030631	0.000195	1.946759	0.659580	-0.015908
 682	3.4050e-01	12.7777	32.946817	0.000205	2.051424	0.695041	-0.016763
 683	3.4100e-01	12.7135	32.872410	0.000182	1.821162	0.617026	-0.014881
 684	3.4150e-01	12.6895	32.789451	0.000203	2.030491	0.687949	-0.016592
 685	3.4200e-01	12.6574	32.711195	0.000192	1.915360	0.648942	-0.015651
 686	3.4250e-01	12.6189	32.632940	0.000192	1.915360	0.648942	-0.015651
 687	3.4300e-01	12.5932	32.550836	0.000201	2.009558	0.680857	-0.016421
 688	3.4350e-01	12.5162	32.472580	0.000192	1.915360	0.648942	-0.015651
 689	3.4400e-01	12.5050	32.390049	0.000202	2.020024	0.684403	-0.016506
 690	3.4450e-01	12.4408	32.316925	0.000179	1.789763	0.606388	-0.014625
 691	3.4500e-01	12.4055	32.232683	0.000206	2.061890	0.698587	-0.016848
 692	3.4550e-01	12.3863	32.152717	0.000196	1.957226	0.663126	-0.015993
 693	3.4600e-01	12.3430	32.072751	0.000196	1.957226	0.663126	-0.015993
 694	3.4650e-01	12.2997	31.984232	0.000217	2.166555	0.734049	-0.017704
 695	3.4700e-01	12.2692	31.900845	0.000204	2.040957	0.691495	-0.016677
 696	3.4750e-01	12.2291	31.823445	0.000189	1.894427	0.641849	-0.015480
 697	3.4800e-01	12.1617	31.745618	0.000190	1.904894	0.645395	-0.015566
 698	3.4850e-01	12.1344	31.662231	0.000204	2.040957	0.691495	-0.016677
 699	3.4900e-01	12.0975	31.581837	0.000197	1.967692	0.666672	-0.016079
 700	3.4950e-01	12.0895	31.494601	0.000214	2.135155	0.723410	-0.017447
 701	3.5000e-01	12.0173	31.414208	0.000197	1.967692	0.666672	-0.016079
 702	3.5050e-01	11.9981	31.334670	0.000195	1.946759	0.659580	-0.015908
 703	3.5100e-01	11.9451	31.250855	0.000205	2.051424	0.695041	-0.016763
 704	3.5150e-01	11.8954	31.165758	0.000208	2.082823	0.705680	-0.017019
 705	3.5200e-01	11.8441	31.087930	0.000190	1.904894	0.645395	-0.015566
 706	3.5250e-01	11.8248	31.002832	0.000208	2.082823	0.705680	-0.017019
 707	3.5300e-01	11.8039	30.914314	0.000217	2.166555	0.734049	-0.017704
 708	3.5350e-01	11.7382	30.839907	0.000182	1.821162	0.617026	-0.014881
 709	3.5400e-01	11.7189	30.757376	0.000202	2.020024	0.684403	-0.016506
 710	3.5450e-01	11.6564	30.677837	0.000195	1.946759	0.659580	-0.015908
 711	3.5500e-01	11.6114	30.586325	0.000224	2.239820	0.758872	-0.018302
 712	3.5550e-01	11.5954	30.504649	0.000200	1.999092	0.677311	-0.016335
 713	3.5600e-01	11.5328	30.422973	0.000200	1.999092	0.677311	-0.016335
 714	3.5650e-01	11.4574	30.343862	0.000194	1.936293	0.656034	-0.015822
 715	3.5700e-01	11.4398	30.262613	0.000199	1.988625	0.673764	-0.016250
 716	3.5750e-01	11.4029	30.177088	0.000209	2.093290	0.709226	-0.017105
 717	3.5800e-01	11.3772	30.091563	0.000209	2.093290	0.709226	-0.017105
 718	3.5850e-01	11.3275	30.016301	0.000184	1.842095	0.624119	-0.015052
 719	3.5900e-01	11.3227	29.927782	0.000217	2.166555	0.734049	-0.017704
 720	3.5950e-01	11.2617	29.841830	0.000210	2.103756	0.712772	-0.017191
 721	3.6000e-01	11.2120	29.763147	0.000193	1.925826	0.652488	-0.015737
 722	3.6050e-01	11.1318	29.679760	0.000204	2.040957	0.691495	-0.016677
 723	3.6100e-01	11.1286	29.596801	0.000203	2.030491	0.687949	-0.016592
 724	3.6150e-01	11.1254	29.504006	0.000227	2.271219	0.769510	-0.018559
 725	3.6200e-01	11.0291	29.429599	0.000182	1.821162	0.617026	-0.014881
 726	3.6250e-01	11.0195	29.339798	0.000220	2.197954	0.744687	-0.017960
 727	3.6300e-01	10.9874	29.255128	0.000207	2.072357	0.702133	-0.016934
 728	3.6350e-01	10.9425	29.170030	0.000208	2.082823	0.705680	-0.017019
 729	3.6400e-01	10.8927	29.087926	0.000201	2.009558	0.680857	-0.016421
 730	3.6450e-01	10.8430	29.004967	0.000203	2.030491	0.687949	-0.016592
 731	3.6500e-01	10.8157	28.923291	0.000200	1.999092	0.677311	-0.016335
 732	3.6550e-01	10.7820	28.836910	0.000211	2.114222	0.716318	-0.017276
 733	3.6600e-01	10.7099	28.756089	0.000198	1.978159	0.670218	-0.016164
 734	3.6650e-01	10.6922	28.666716	0.000219	2.187488	0.741141	-0.017875
 735	3.6700e-01	10.6553	28.585467	0.000199	1.988625	0.673764	-0.016250
 736	3.6750e-01	10.6313	28.495238	0.000221	2.208421	0.748233	-0.018046
 737	3.6800e-01	10.5863	28.405864	0.000219	2.187488	0.741141	-0.017875
 738	3.6850e-01	10.5302	28.326753	0.000194	1.936293	0.656034	-0.015822
 739	3.6900e-01	10.5109	28.238235	0.000217	2.166555	0.734049	-0.017704
 740	3.6950e-01	10.4596	28.155703	0.000202	2.020024	0.684403	-0.016506
 741	3.7000e-01	10.4034	28.066757	0.000218	2.177021	0.737595	-0.017789
 742	3.7050e-01	10.3762	27.982087	0.000207	2.072357	0.702133	-0.016934
 743	3.7100e-01	10.3313	27.897418	0.000207	2.072357	0.702133	-0.016934
 744	3.7150e-01	10.3104	27.810610	0.000212	2.124689	0.719864	-0.017362
 745	3.7200e-01	10.2462	27.726368	0.000206	2.061890	0.698587	-0.016848
 746	3.7250e-01	10.1869	27.641698	0.000207	2.072357	0.702133	-0.016934
 747	3.7300e-01	10.1740	27.554035	0.000215	2.145622	0.726956	-0.017533
 748	3.7350e-01	10.1452	27.462523	0.000224	2.239820	0.758872	-0.018302
 749	3.7400e-01	10.1019	27.377853	0.000207	2.072357	0.702133	-0.016934
 750	3.7450e-01	10.0232	27.292328	0.000209	2.093290	0.709226	-0.017105
 751	3.7500e-01	10.0104	27.205948	0.000211	2.114222	0.716318	-0.017276
 752	3.7550e-01	9.9783	27.122988	0.000203	2.030491	0.687949	-0.016592
 753	3.7600e-01	9.9318	27.034897	0.000216	2.156088	0.730502	-0.017618
 754	3.7650e-01	9.8821	26.947234	0.000215	2.145622	0.726956	-0.017533
 755	3.7700e-01	9.8885	26.861709	-0.000209	-2.093290	-0.709226	-0.017105
 756	3.7750e-01	9.8323	26.771053	0.000222	2.218887	0.751779	-0.018131
 757	3.7800e-01	9.7553	26.691942	0.000194	1.936293	0.656034	-0.015822
 758	3.7850e-01	9.7473	26.603424	0.000217	2.166555	0.734049	-0.017704
 759	3.7900e-01	9.7152	26.512767	0.000222	2.218887	0.751779	-0.018131
 760	3.7950e-01	9.6414	26.427242	0.000209	2.093290	0.709226	-0.017105
 761	3.8000e-01	9.6078	26.344283	0.000203	2.030491	0.687949	-0.016592
 762	3.8050e-01	9.5676	26.250633	0.000229	2.292152	0.776602	-0.018730
 763	3.8100e-01	9.5436	26.174943	0.000185	1.852561	0.627665	-0.015138
 764	3.8150e-01	9.4666	26.080438	0.000231	2.313085	0.783694	-0.018901
 765	3.8200e-01	9.4586	25.991919	0.000217	2.166555	0.734049	-0.017704
 766	3.8250e-01	9.4120	25.905539	0.000211	2.114222	0.716318	-0.017276
 767	3.8300e-01	9.3671	25.816593	0.000218	2.177021	0.737595	-0.017789
 768	3.8350e-01	9.3447	25.733634	0.000203	2.030491	0.687949	-0.016592
 769	3.8400e-01	9.2757	25.644260	0.000219	2.187488	0.741141	-0.017875
 770	3.8450e-01	9.2805	25.555314	-0.000218	-2.177021	-0.737595	-0.017789
 771	3.8500e-01	9.1923	25.461664	0.000229	2.292152	0.776602	-0.018730
 772	3.8550e-01	9.1457	25.380415	0.000199	1.988625	0.673764	-0.016250
 773	3.8600e-01	9.1217	25.286765	0.000229	2.292152	0.776602	-0.018730
 774	3.8650e-01	9.0832	25.196536	0.000221	2.208421	0.748233	-0.018046
 775	3.8700e-01	9.0607	25.105452	0.000223	2.229353	0.755325	-0.018217
 776	3.8750e-01	8.9933	25.020782	0.000207	2.072357	0.702133	-0.016934
 777	3.8800e-01	8.9709	24.931409	0.000219	2.187488	0.741141	-0.017875
 778	3.8850e-01	8.9147	24.835193	0.000235	2.354951	0.797879	-0.019243
 779	3.8900e-01	8.9227	24.753517	-0.000200	-1.999092	-0.677311	-0.016335
 780	3.8950e-01	8.8762	24.663715	0.000220	2.197954	0.744687	-0.017960
 781	3.9000e-01	8.8121	24.576052	0.000215	2.145622	0.726956	-0.017533
 782	3.9050e-01	8.7623	24.484113	0.000225	2.250286	0.762418	-0.018388
 783	3.9100e-01	8.7254	24.400726	0.000204	2.040957	0.691495	-0.016677
 784	3.9150e-01	8.6998	24.309642	0.000223	2.229353	0.755325	-0.018217
 785	3.9200e-01	8.6372	24.225399	0.000206	2.061890	0.698587	-0.016848
 786	3.9250e-01	8.5955	24.128328	0.000238	2.375884	0.804971	-0.019414
 787	3.9300e-01	8.5618	24.037672	0.000222	2.218887	0.751779	-0.018131
 788	3.9350e-01	8.5457	23.945305	0.000226	2.260753	0.765964	-0.018473
 789	3.9400e-01	8.4736	23.860635	0.000207	2.072357	0.702133	-0.016934
 790	3.9450e-01	8.4527	23.769979	0.000222	2.218887	0.751779	-0.018131
 791	3.9500e-01	8.4110	23.682743	0.000214	2.135155	0.723410	-0.017447
 792	3.9550e-01	8.3757	23.583534	0.000243	2.428216	0.822702	-0.019842
 793	3.9600e-01	8.3035	23.494588	0.000218	2.177021	0.737595	-0.017789
 794	3.9650e-01	8.2810	23.406497	0.000216	2.156088	0.730502	-0.017618
 795	3.9700e-01	8.2682	23.320972	0.000209	2.093290	0.709226	-0.017105
 796	3.9750e-01	8.2153	23.229888	0.000223	2.229353	0.755325	-0.018217
 797	3.9800e-01	8.1944	23.131534	0.000241	2.407283	0.815610	-0.019671
 798	3.9850e-01	8.1303	23.044726	0.000212	2.124689	0.719864	-0.017362
 799	3.9900e-01	8.0789	22.951931	0.000227	2.271219	0.769510	-0.018559
 800	3.9950e-01	8.0741	22.866406	0.000209	2.093290	0.709226	-0.017105
 801	4.0000e-01	7.9891	22.771046	0.000233	2.334018	0.790787	-0.019072
 802	4.0050e-01	7.9666	22.673120	0.000240	2.396817	0.812063	-0.019585
 803	4.0100e-01	7.9474	22.586739	0.000211	2.114222	0.716318	-0.017276
 804	4.0150e-01	7.8928	22.494372	0.000226	2.260753	0.765964	-0.018473
 805	4.0200e-01	7.8607	22.403716	0.000222	2.218887	0.751779	-0.018131
 806	4.0250e-01	7.8190	22.309211	0.000231	2.313085	0.783694	-0.018901
 807	4.0300e-01	7.7500	22.217271	0.000225	2.250286	0.762418	-0.018388
 808	4.0350e-01	7.7468	22.122338	0.000232	2.323551	0.787241	-0.018987
 809	4.0400e-01	7.7051	22.033392	0.000218	2.177021	0.737595	-0.017789
 810	4.0450e-01	7.6634	21.944019	0.000219	2.187488	0.741141	-0.017875
 811	4.0500e-01	7.6522	21.850796	0.000228	2.281686	0.773056	-0.018644
 812	4.0550e-01	7.5976	21.757146	0.000229	2.292152	0.776602	-0.018730
 813	4.0600e-01	7.5319	21.667345	0.000220	2.197954	0.744687	-0.017960
 814	4.0650e-01	7.5094	21.573695	0.000229	2.292152	0.776602	-0.018730
 815	4.0700e-01	7.4565	21.479190	0.000231	2.313085	0.783694	-0.018901
 816	4.0750e-01	7.4517	21.377415	0.000249	2.491015	0.843979	-0.020355
 817	4.0800e-01	7.3698	21.290607	0.000212	2.124689	0.719864	-0.017362
 818	4.0850e-01	7.3426	21.207220	0.000204	2.040957	0.691495	-0.016677
 819	4.0900e-01	7.2784	21.109294	0.000240	2.396817	0.812063	-0.019585
 820	4.0950e-01	7.2608	21.013506	0.000234	2.344484	0.794333	-0.019158
 821	4.1000e-01	7.2190	20.919856	0.000229	2.292152	0.776602	-0.018730
 822	4.1050e-01	7.2062	20.821502	0.000241	2.407283	0.815610	-0.019671
 823	4.1100e-01	7.1019	20.734267	0.000214	2.135155	0.723410	-0.017447
 824	4.1150e-01	7.0715	20.638051	0.000235	2.354951	0.797879	-0.019243
 825	4.1200e-01	7.0362	20.543118	0.000232	2.323551	0.787241	-0.018987
 826	4.1250e-01	7.0281	20.449041	0.000230	2.302619	0.780148	-0.018816
 827	4.1300e-01	6.9720	20.353253	0.000234	2.344484	0.794333	-0.019158
 828	4.1350e-01	6.9158	20.261741	0.000224	2.239820	0.758872	-0.018302
 829	4.1400e-01	6.9062	20.169801	0.000225	2.250286	0.762418	-0.018388
 830	4.1450e-01	6.8549	20.074441	0.000233	2.334018	0.790787	-0.019072
 831	4.1500e-01	6.8453	19.976515	0.000240	2.396817	0.812063	-0.019585
 832	4.1550e-01	6.7907	19.882865	0.000229	2.292152	0.776602	-0.018730
 833	4.1600e-01	6.7282	19.788787	0.000230	2.302619	0.780148	-0.018816
 834	4.1650e-01	6.6848	19.692572	0.000235	2.354951	0.797879	-0.019243
 835	4.1700e-01	6.6752	19.595501	0.000238	2.375884	0.804971	-0.019414
 836	4.1750e-01	6.6319	19.506555	0.000218	2.177021	0.737595	-0.017789
 837	4.1800e-01	6.5982	19.412477	0.000230	2.302619	0.780148	-0.018816
 838	4.1850e-01	6.5421	19.317117	0.000233	2.334018	0.790787	-0.019072
 839	4.1900e-01	6.5052	19.224749	0.000226	2.260753	0.765964	-0.018473
 840	4.1950e-01	6.4939	19.116133	0.000266	2.658478	0.900717	-0.021723
 841	4.2000e-01	6.3752	19.026759	0.000219	2.187488	0.741141	-0.017875
 842	4.2050e-01	6.4105	18.933109	-0.000229	-2.292152	-0.776602	-0.018730
 843	4.2100e-01	6.3688	18.840742	0.000226	2.260753	0.765964	-0.018473
 844	4.2150e-01	6.3111	18.746237	0.000231	2.313085	0.783694	-0.018901
 845	4.2200e-01	6.2645	18.645745	0.000246	2.459615	0.833340	-0.020098
 846	4.2250e-01	6.2020	18.554233	0.000224	2.239820	0.758872	-0.018302
 847	4.2300e-01	6.1699	18.458017	0.000235	2.354951	0.797879	-0.019243
 848	4.2350e-01	6.1314	18.359664	0.000241	2.407283	0.815610	-0.019671
 849	4.2400e-01	6.1041	18.260882	0.000242	2.417749	0.819156	-0.019756
 850	4.2450e-01	6.0608	18.167660	0.000228	2.281686	0.773056	-0.018644
 851	4.2500e-01	6.0223	18.071872	0.000234	2.344484	0.794333	-0.019158
 852	4.2550e-01	5.9870	17.967531	0.000255	2.553813	0.865255	-0.020868
 853	4.2600e-01	5.9341	17.876875	0.000222	2.218887	0.751779	-0.018131
 854	4.2650e-01	5.8940	17.778948	0.000240	2.396817	0.812063	-0.019585
 855	4.2700e-01	5.8651	17.676746	0.000250	2.501481	0.847525	-0.020440
 856	4.2750e-01	5.7849	17.587372	0.000219	2.187488	0.741141	-0.017875
 857	4.2800e-01	5.7592	17.487736	0.000244	2.438682	0.826248	-0.019927
 858	4.2850e-01	5.7303	17.384250	0.000253	2.532880	0.858163	-0.020697
 859	4.2900e-01	5.6950	17.291883	0.000226	2.260753	0.765964	-0.018473
 860	4.2950e-01	5.6485	17.191819	0.000245	2.449149	0.829794	-0.020013
 861	4.3000e-01	5.6036	17.093465	0.000241	2.407283	0.815610	-0.019671
 862	4.3050e-01	5.5715	16.994684	0.000242	2.417749	0.819156	-0.019756
 863	4.3100e-01	5.5346	16.900178	0.000231	2.313085	0.783694	-0.018901
 864	4.3150e-01	5.4736	16.803108	0.000238	2.375884	0.804971	-0.019414
 865	4.3200e-01	5.4528	16.700050	0.000252	2.522414	0.854617	-0.020612
 866	4.3250e-01	5.4095	16.598703	0.000248	2.480548	0.840432	-0.020269
 867	4.3300e-01	5.3726	16.503342	0.000233	2.334018	0.790787	-0.019072
 868	4.3350e-01	5.3148	16.409692	0.000229	2.292152	0.776602	-0.018730
 869	4.3400e-01	5.2988	16.310056	0.000244	2.438682	0.826248	-0.019927
 870	4.3450e-01	5.2587	16.201011	0.000267	2.668944	0.904263	-0.021809
 871	4.3500e-01	5.2089	16.108216	0.000227	2.271219	0.769510	-0.018559
 872	4.3550e-01	5.2089	16.000027	0.000265	2.648011	0.897171	-0.021638
 873	4.3600e-01	5.1368	15.905950	0.000230	2.302619	0.780148	-0.018816
 874	4.3650e-01	5.1031	15.806741	0.000243	2.428216	0.822702	-0.019842
 875	4.3700e-01	5.0245	15.710953	0.000234	2.344484	0.794333	-0.019158
 876	4.3750e-01	4.9844	15.601481	0.000268	2.679411	0.907809	-0.021894
 877	4.3800e-01	4.9635	15.504837	0.000237	2.365417	0.801425	-0.019329
 878	4.3850e-01	4.9330	15.405628	0.000243	2.428216	0.822702	-0.019842
 879	4.3900e-01	4.8801	15.299149	0.000261	2.606146	0.882986	-0.021296
 880	4.3950e-01	4.8769	15.199085	0.000245	2.449149	0.829794	-0.020013
 881	4.4000e-01	4.8111	15.099448	0.000244	2.438682	0.826248	-0.019927
 882	4.4050e-01	4.7662	15.001950	0.000239	2.386350	0.808517	-0.019500
 883	4.4100e-01	4.7501	14.897609	0.000255	2.553813	0.865255	-0.020868
 884	4.4150e-01	4.7164	14.799256	0.000241	2.407283	0.815610	-0.019671
 885	4.4200e-01	4.6298	14.698764	0.000246	2.459615	0.833340	-0.020098
 886	4.4250e-01	4.6266	14.595278	0.000253	2.532880	0.858163	-0.020697
 887	4.4300e-01	4.5849	14.492648	0.000251	2.511948	0.851071	-0.020526
 888	4.4350e-01	4.5464	14.393867	0.000242	2.417749	0.819156	-0.019756
 889	4.4400e-01	4.5047	14.290809	0.000252	2.522414	0.854617	-0.020612
 890	4.4450e-01	4.4517	14.184330	0.000261	2.606146	0.882986	-0.021296
 891	4.4500e-01	4.4229	14.087687	0.000237	2.365417	0.801425	-0.019329
 892	4.4550e-01	4.3731	13.982919	0.000256	2.564280	0.868802	-0.020954
 893	4.4600e-01	4.3298	13.884565	0.000241	2.407283	0.815610	-0.019671
 894	4.4650e-01	4.2785	13.780652	0.000254	2.543347	0.861709	-0.020783
 895	4.4700e-01	4.2817	13.675884	-0.000256	-2.564280	-0.868802	-0.020954
 896	4.4750e-01	4.2063	13.572826	0.000252	2.522414	0.854617	-0.020612
 897	4.4800e-01	4.1694	13.468913	0.000254	2.543347	0.861709	-0.020783
 898	4.4850e-01	4.1485	13.369704	0.000243	2.428216	0.822702	-0.019842
 899	4.4900e-01	4.1004	13.267074	0.000251	2.511948	0.851071	-0.020526
 900	4.4950e-01	4.0715	13.164016	0.000252	2.522414	0.854617	-0.020612
 901	4.5000e-01	3.9994	13.054972	0.000267	2.668944	0.904263	-0.021809
 902	4.5050e-01	3.9881	12.946355	0.000266	2.658478	0.900717	-0.021723
 903	4.5100e-01	3.9352	12.846291	0.000245	2.449149	0.829794	-0.020013
 904	4.5150e-01	3.8855	12.742806	0.000253	2.532880	0.858163	-0.020697
 905	4.5200e-01	3.8646	12.637182	0.000259	2.585213	0.875894	-0.021125
 906	4.5250e-01	3.8133	12.533697	0.000253	2.532880	0.858163	-0.020697
 907	4.5300e-01	3.7748	12.435343	0.000241	2.407283	0.815610	-0.019671
 908	4.5350e-01	3.7379	12.329292	0.000260	2.595679	0.879440	-0.021210
 909	4.5400e-01	3.7202	12.216826	0.000275	2.752676	0.932632	-0.022493
 910	4.5450e-01	3.6496	12.115479	0.000248	2.480548	0.840432	-0.020269
 911	4.5500e-01	3.6175	12.013704	0.000249	2.491015	0.843979	-0.020355
 912	4.5550e-01	3.5887	11.906798	0.000262	2.616612	0.886532	-0.021381
 913	4.5600e-01	3.5486	11.803313	0.000253	2.532880	0.858163	-0.020697
 914	4.5650e-01	3.4860	11.698117	0.000257	2.574746	0.872348	-0.021039
 915	4.5700e-01	3.4315	11.592494	0.000259	2.585213	0.875894	-0.021125
 916	4.5750e-01	3.4347	11.484732	-0.000264	-2.637545	-0.893624	-0.021552
 917	4.5800e-01	3.3881	11.383812	0.000247	2.470082	0.836886	-0.020184
 918	4.5850e-01	3.3176	11.273057	0.000271	2.710810	0.918447	-0.022151
 919	4.5900e-01	3.2951	11.166579	0.000261	2.606146	0.882986	-0.021296
 920	4.5950e-01	3.2598	11.063949	0.000251	2.511948	0.851071	-0.020526
 921	4.6000e-01	3.2341	10.951911	0.000274	2.742209	0.929086	-0.022408
 922	4.6050e-01	3.1668	10.847998	0.000254	2.543347	0.861709	-0.020783
 923	4.6100e-01	3.1202	10.745796	0.000250	2.501481	0.847525	-0.020440
 924	4.6150e-01	3.0898	10.634613	0.000272	2.721276	0.921993	-0.022237
 925	4.6200e-01	3.0496	10.528562	0.000260	2.595679	0.879440	-0.021210
 926	4.6250e-01	3.0224	10.424221	0.000255	2.553813	0.865255	-0.020868
 927	4.6300e-01	2.9710	10.305769	0.000290	2.899206	0.982278	-0.023690
 928	4.6350e-01	2.9085	10.204850	0.000247	2.470082	0.836886	-0.020184
 929	4.6400e-01	2.8940	10.096233	0.000266	2.658478	0.900717	-0.021723
 930	4.6450e-01	2.8620	9.983767	0.000275	2.752676	0.932632	-0.022493
 931	4.6500e-01	2.8106	9.878144	0.000259	2.585213	0.875894	-0.021125
 932	4.6550e-01	2.7513	9.768244	0.000269	2.689877	0.911355	-0.021980
 933	4.6600e-01	2.7497	9.662193	0.000260	2.595679	0.879440	-0.021210
 934	4.6650e-01	2.6951	9.549728	0.000275	2.752676	0.932632	-0.022493
 935	4.6700e-01	2.6534	9.447098	0.000251	2.511948	0.851071	-0.020526
 936	4.6750e-01	2.6149	9.333349	0.000278	2.784075	0.943270	-0.022750
 937	4.6800e-01	2.5539	9.225588	0.000264	2.637545	0.893624	-0.021552
 938	4.6850e-01	2.5411	9.118681	0.000262	2.616612	0.886532	-0.021381
 939	4.6900e-01	2.4978	9.007071	0.000273	2.731743	0.925540	-0.022322
 940	4.6950e-01	2.4577	8.898027	0.000267	2.668944	0.904263	-0.021809
 941	4.7000e-01	2.4080	8.788555	0.000268	2.679411	0.907809	-0.021894
 942	4.7050e-01	2.3566	8.680365	0.000265	2.648011	0.897171	-0.021638
 943	4.7100e-01	2.3470	8.569183	0.000272	2.721276	0.921993	-0.022237
 944	4.7150e-01	2.2908	8.458000	0.000272	2.721276	0.921993	-0.022237
 945	4.7200e-01	2.2668	8.346390	0.000273	2.731743	0.925540	-0.022322
 946	4.7250e-01	2.2026	8.239056	0.000263	2.627078	0.890078	-0.021467
 947	4.7300e-01	2.1769	8.128301	0.000271	2.710810	0.918447	-0.022151
 948	4.7350e-01	2.1192	8.012842	0.000283	2.825941	0.957455	-0.023092
 949	4.7400e-01	2.0711	7.901232	0.000273	2.731743	0.925540	-0.022322
 950	4.7450e-01	2.0358	7.793043	0.000265	2.648011	0.897171	-0.021638
 951	4.7500e-01	2.0133	7.681433	0.000273	2.731743	0.925540	-0.022322
 952	4.7550e-01	1.9604	7.571105	0.000270	2.700344	0.914901	-0.022065
 953	4.7600e-01	1.9267	7.457785	0.000277	2.773609	0.939724	-0.022664
 954	4.7650e-01	1.8705	7.343181	0.000281	2.805008	0.950362	-0.022921
 955	4.7700e-01	1.8609	7.228578	0.000281	2.805008	0.950362	-0.022921
 956	4.7750e-01	1.8080	7.119961	0.000266	2.658478	0.900717	-0.021723
 957	4.7800e-01	1.7647	7.006640	0.000277	2.773609	0.939724	-0.022664
 958	4.7850e-01	1.7502	6.893319	0.000277	2.773609	0.939724	-0.022664
 959	4.7900e-01	1.7149	6.779143	0.000279	2.794542	0.946816	-0.022835
 960	4.7950e-01	1.6716	6.664968	0.000279	2.794542	0.946816	-0.022835
 961	4.8000e-01	1.6427	6.547798	0.000287	2.867807	0.971639	-0.023434
 962	4.8050e-01	1.5914	6.440464	0.000263	2.627078	0.890078	-0.021467
 963	4.8100e-01	1.5192	6.323723	0.000286	2.857340	0.968093	-0.023348
 964	4.8150e-01	1.4823	6.207408	0.000285	2.846874	0.964547	-0.023263
 965	4.8200e-01	1.4310	6.104778	0.000251	2.511948	0.851071	-0.020526
 966	4.8250e-01	1.4101	5.983333	0.000297	2.972471	1.007101	-0.024289
 967	4.8300e-01	1.3828	5.864881	0.000290	2.899206	0.982278	-0.023690
 968	4.8350e-01	1.3572	5.754126	0.000271	2.710810	0.918447	-0.022151
 969	4.8400e-01	1.2978	5.640377	0.000278	2.784075	0.943270	-0.022750
 970	4.8450e-01	1.2481	5.524919	0.000283	2.825941	0.957455	-0.023092
 971	4.8500e-01	1.2016	5.412881	0.000274	2.742209	0.929086	-0.022408
 972	4.8550e-01	1.1887	5.298277	0.000281	2.805008	0.950362	-0.022921
 973	4.8600e-01	1.1486	5.185384	0.000276	2.763142	0.936178	-0.022579
 974	4.8650e-01	1.0957	5.066504	0.000291	2.909673	0.985824	-0.023776
 975	4.8700e-01	1.0283	4.953611	0.000276	2.763142	0.936178	-0.022579
 976	4.8750e-01	1.0123	4.838580	0.000282	2.815475	0.953909	-0.023006
 977	4.8800e-01	0.9481	4.723549	0.000282	2.815475	0.953909	-0.023006
 978	4.8850e-01	0.9208	4.607235	0.000285	2.846874	0.964547	-0.023263
 979	4.8900e-01	0.8936	4.488783	0.000290	2.899206	0.982278	-0.023690
 980	4.8950e-01	0.8454	4.371613	0.000287	2.867807	0.971639	-0.023434
 981	4.9000e-01	0.8246	4.250595	0.000296	2.962005	1.003554	-0.024204
 982	4.9050e-01	0.7636	4.142406	0.000265	2.648011	0.897171	-0.021638
 983	4.9100e-01	0.7171	4.026520	0.000284	2.836407	0.961001	-0.023177
 984	4.9150e-01	0.6850	3.912344	0.000279	2.794542	0.946816	-0.022835
 985	4.9200e-01	0.6529	3.802444	0.000269	2.689877	0.911355	-0.021980
 986	4.9250e-01	0.6289	3.688268	0.000279	2.794542	0.946816	-0.022835
 987	4.9300e-01	0.5599	3.568961	0.000292	2.920139	0.989370	-0.023861
 988	4.9350e-01	0.5214	3.452219	0.000286	2.857340	0.968093	-0.023348
 989	4.9400e-01	0.4957	3.333339	0.000291	2.909673	0.985824	-0.023776
 990	4.9450e-01	0.4396	3.217025	0.000285	2.846874	0.964547	-0.023263
 991	4.9500e-01	0.3898	3.094296	0.000300	3.003871	1.017739	-0.024546
 992	4.9550e-01	0.3626	2.974561	0.000293	2.930605	0.992916	-0.023947
 993	4.9600e-01	0.3305	2.852688	0.000298	2.982938	1.010647	-0.024375
 994	4.9650e-01	0.2775	2.726539	0.000309	3.087602	1.046108	-0.025230
 995	4.9700e-01	0.2310	2.611080	0.000283	2.825941	0.957455	-0.023092
 996	4.9750e-01	0.2310	2.491345	0.000293	2.930605	0.992916	-0.023947
 997	4.9800e-01	0.1332	2.373320	0.000289	2.888740	0.978731	-0.023605
 998	4.9850e-01	0.1444	2.255296	-0.000289	-2.888740	-0.978731	-0.023605
 999	4.9900e-01	0.0850	2.135561	0.000293	2.930605	0.992916	-0.023947
1000	4.9950e-01	0.0481	2.022240	0.000277	2.773609	0.939724	-0.022664
1001	5.0000e-01	0.0594	1.891814	-0.000319	-3.192267	-1.081569	-0.026085
1002	5.0050e-01	0.0128	1.782342	0.000268	2.679411	0.907809	-0.021894
1003	5.0100e-01	-0.0642	1.662179	0.000294	2.941072	0.996462	-0.024033
1004	5.0150e-01	-0.0979	1.545438	0.000286	2.857340	0.968093	-0.023348
1005	5.0200e-01	-0.1348	1.432117	0.000277	2.773609	0.939724	-0.022664
1006	5.0250e-01	-0.1572	1.311954	0.000294	2.941072	0.996462	-0.024033
1007	5.0300e-01	-0.2230	1.196496	0.000283	2.825941	0.957455	-0.023092
1008	5.0350e-01	-0.2823	1.076333	0.000294	2.941072	0.996462	-0.024033
1009	5.0400e-01	-0.3225	0.960874	0.000283	2.825941	0.957455	-0.023092
1010	5.0450e-01	-0.3465	0.840711	0.000294	2.941072	0.996462	-0.024033
1011	5.0500e-01	-0.3593	0.723970	0.000286	2.857340	0.968093	-0.023348
1012	5.0550e-01	-0.4107	0.603807	0.000294	2.941072	0.996462	-0.024033
1013	5.0600e-01	-0.4444	0.483217	0.000295	2.951538	1.000008	-0.024118
1014	5.0650e-01	-0.5005	0.363054	0.000294	2.941072	0.996462	-0.024033
1015	5.0700e-01	-0.5599	0.250588	0.000275	2.752676	0.932632	-0.022493
1016	5.0750e-01	-0.5438	0.130853	-0.000293	-2.930605	-0.992916	-0.023947
1017	5.0800e-01	-0.6208	0.017960	0.000276	2.763142	0.936178	-0.022579
1018	5.0850e-01	-0.6577	-0.106051	0.000304	3.035270	1.028377	-0.024802
1019	5.0900e-01	-0.6786	-0.227069	0.000296	2.962005	1.003554	-0.024204
1020	5.0950e-01	-0.7347	-0.351936	0.000306	3.056203	1.035470	-0.024973
1021	5.1000e-01	-0.7973	-0.464401	0.000275	2.752676	0.932632	-0.022493
1022	5.1050e-01	-0.8117	-0.584564	0.000294	2.941072	0.996462	-0.024033
1023	5.1100e-01	-0.8711	-0.706437	0.000298	2.982938	1.010647	-0.024375
1024	5.1150e-01	-0.9096	-0.830448	0.000304	3.035270	1.028377	-0.024802
1025	5.1200e-01	-0.9561	-0.944624	0.000279	2.794542	0.946816	-0.022835
1026	5.1250e-01	-1.0107	-1.066070	0.000297	2.972471	1.007101	-0.024289
1027	5.1300e-01	-1.0379	-1.191364	0.000307	3.066669	1.039016	-0.025059
1028	5.1350e-01	-1.0604	-1.312382	0.000296	2.962005	1.003554	-0.024204
1029	5.1400e-01	-1.0973	-1.429551	0.000287	2.867807	0.971639	-0.023434
1030	5.1450e-01	-1.1599	-1.547148	0.000288	2.878273	0.975185	-0.023519
1031	5.1500e-01	-1.2096	-1.666883	0.000293	2.930605	0.992916	-0.023947
1032	5.1550e-01	-1.2160	-1.790895	0.000304	3.035270	1.028377	-0.024802
1033	5.1600e-01	-1.2657	-1.906353	0.000283	2.825941	0.957455	-0.023092
1034	5.1650e-01	-1.3010	-2.025233	0.000291	2.909673	0.985824	-0.023776
1035	5.1700e-01	-1.3331	-2.148389	0.000301	3.014337	1.021285	-0.024631
1036	5.1750e-01	-1.3796	-2.267697	0.000292	2.920139	0.989370	-0.023861
1037	5.1800e-01	-1.4230	-2.384866	0.000287	2.867807	0.971639	-0.023434
1038	5.1850e-01	-1.4695	-2.502891	0.000289	2.888740	0.978731	-0.023605
1039	5.1900e-01	-1.5288	-2.625192	0.000299	2.993404	1.014193	-0.024460
1040	5.1950e-01	-1.5240	-2.748348	-0.000301	-3.014337	-1.021285	-0.024631
1041	5.2000e-01	-1.6042	-2.862524	0.000279	2.794542	0.946816	-0.022835
1042	5.2050e-01	-1.6123	-2.985252	0.000300	3.003871	1.017739	-0.024546
1043	5.2100e-01	-1.6748	-3.099856	0.000281	2.805008	0.950362	-0.022921
1044	5.2150e-01	-1.6925	-3.222156	0.000299	2.993404	1.014193	-0.024460
1045	5.2200e-01	-1.7438	-3.333339	0.000272	2.721276	0.921993	-0.022237
1046	5.2250e-01	-1.7791	-3.455640	0.000299	2.993404	1.014193	-0.024460
1047	5.2300e-01	-1.8240	-3.568533	0.000276	2.763142	0.936178	-0.022579
1048	5.2350e-01	-1.8529	-3.692972	0.000305	3.045736	1.031923	-0.024888
1049	5.2400e-01	-1.9155	-3.805865	0.000276	2.763142	0.936178	-0.022579
1050	5.2450e-01	-1.9459	-3.927311	0.000297	2.972471	1.007101	-0.024289
1051	5.2500e-01	-1.9812	-4.044907	0.000288	2.878273	0.975185	-0.023519
1052	5.2550e-01	-1.9876	-4.162504	0.000288	2.878273	0.975185	-0.023519
1053	5.2600e-01	-2.0486	-4.283950	0.000297	2.972471	1.007101	-0.024289
1054	5.2650e-01	-2.0839	-4.401975	0.000289	2.888740	0.978731	-0.023605
1055	5.2700e-01	-2.1384	-4.515295	0.000277	2.773609	0.939724	-0.022664
1056	5.2750e-01	-2.1513	-4.638451	0.000301	3.014337	1.021285	-0.024631
1057	5.2800e-01	-2.2491	-4.751344	0.000276	2.763142	0.936178	-0.022579
1058	5.2850e-01	-2.2828	-4.866376	0.000282	2.815475	0.953909	-0.023006
1059	5.2900e-01	-2.2941	-4.984400	0.000289	2.888740	0.978731	-0.023605
1060	5.2950e-01	-2.3759	-5.100714	0.000285	2.846874	0.964547	-0.023263
1061	5.3000e-01	-2.3807	-5.219594	0.000291	2.909673	0.985824	-0.023776
1062	5.3050e-01	-2.4416	-5.339757	0.000294	2.941072	0.996462	-0.024033
1063	5.3100e-01	-2.4737	-5.450512	0.000271	2.710810	0.918447	-0.022151
1064	5.3150e-01	-2.5427	-5.565115	0.000281	2.805008	0.950362	-0.022921
1065	5.3200e-01	-2.5379	-5.681002	-0.000284	-2.836407	-0.961001	-0.023177
1066	5.3250e-01	-2.5555	-5.799026	0.000289	2.888740	0.978731	-0.023605
1067	5.3300e-01	-2.6005	-5.915768	0.000286	2.857340	0.968093	-0.023348
1068	5.3350e-01	-2.6678	-6.030372	0.000281	2.805008	0.950362	-0.022921
1069	5.3400e-01	-2.7224	-6.140699	0.000270	2.700344	0.914901	-0.022065
1070	5.3450e-01	-2.7384	-6.258724	0.000289	2.888740	0.978731	-0.023605
1071	5.3500e-01	-2.8042	-6.377176	0.000290	2.899206	0.982278	-0.023690
1072	5.3550e-01	-2.8283	-6.488358	0.000272	2.721276	0.921993	-0.022237
1073	5.3600e-01	-2.8924	-6.602534	0.000279	2.794542	0.946816	-0.022835
1074	5.3650e-01	-2.9117	-6.718848	0.000285	2.846874	0.964547	-0.023263
1075	5.3700e-01	-2.9438	-6.828320	0.000268	2.679411	0.907809	-0.021894
1076	5.3750e-01	-2.9919	-6.947200	0.000291	2.909673	0.985824	-0.023776
1077	5.3800e-01	-3.0224	-7.053679	0.000261	2.606146	0.882986	-0.021296
1078	5.3850e-01	-3.0641	-7.171703	0.000289	2.888740	0.978731	-0.023605
1079	5.3900e-01	-3.1010	-7.289300	0.000288	2.878273	0.975185	-0.023519
1080	5.3950e-01	-3.1331	-7.401338	0.000274	2.742209	0.929086	-0.022408
1081	5.4000e-01	-3.2020	-7.509955	0.000266	2.658478	0.900717	-0.021723
1082	5.4050e-01	-3.2245	-7.628407	0.000290	2.899206	0.982278	-0.023690
1083	5.4100e-01	-3.2823	-7.741728	0.000277	2.773609	0.939724	-0.022664
1084	5.4150e-01	-3.3063	-7.852911	0.000272	2.721276	0.921993	-0.022237
1085	5.4200e-01	-3.3432	-7.966231	0.000277	2.773609	0.939724	-0.022664
1086	5.4250e-01	-3.4218	-8.076986	0.000271	2.710810	0.918447	-0.022151
1087	5.4300e-01	-3.4603	-8.187314	0.000270	2.700344	0.914901	-0.022065
1088	5.4350e-01	-3.4780	-8.301489	0.000279	2.794542	0.946816	-0.022835
1089	5.4400e-01	-3.4988	-8.411389	0.000269	2.689877	0.911355	-0.021980
1090	5.4450e-01	-3.5421	-8.520434	0.000267	2.668944	0.904263	-0.021809
1091	5.4500e-01	-3.5582	-8.634182	0.000278	2.784075	0.943270	-0.022750
1092	5.4550e-01	-3.6368	-8.746220	0.000274	2.742209	0.929086	-0.022408
1093	5.4600e-01	-3.6673	-8.855264	0.000267	2.668944	0.904263	-0.021809
1094	5.4650e-01	-3.6962	-8.960032	0.000256	2.564280	0.868802	-0.020954
1095	5.4700e-01	-3.7603	-9.070360	0.000270	2.700344	0.914901	-0.022065
1096	5.4750e-01	-3.7908	-9.178121	0.000264	2.637545	0.893624	-0.021552
1097	5.4800e-01	-3.8325	-9.285028	0.000262	2.616612	0.886532	-0.021381
1098	5.4850e-01	-3.8822	-9.402625	0.000288	2.878273	0.975185	-0.023519
1099	5.4900e-01	-3.8790	-9.514662	-0.000274	-2.742209	-0.929086	-0.022408
1100	5.4950e-01	-3.9272	-9.623279	0.000266	2.658478	0.900717	-0.021723
1101	5.5000e-01	-4.0202	-9.728475	0.000257	2.574746	0.872348	-0.021039
1102	5.5050e-01	-4.0330	-9.841796	0.000277	2.773609	0.939724	-0.022664
1103	5.5100e-01	-4.0715	-9.948702	0.000262	2.616612	0.886532	-0.021381
1104	5.5150e-01	-4.0619	-10.055608	-0.000262	-2.616612	-0.886532	-0.021381
1105	5.5200e-01	-4.1293	-10.165936	0.000270	2.700344	0.914901	-0.022065
1106	5.5250e-01	-4.1726	-10.272842	0.000262	2.616612	0.886532	-0.021381
1107	5.5300e-01	-4.2432	-10.376755	0.000254	2.543347	0.861709	-0.020783
1108	5.5350e-01	-4.2592	-10.486655	0.000269	2.689877	0.911355	-0.021980
1109	5.5400e-01	-4.3138	-10.596554	0.000269	2.689877	0.911355	-0.021980
1110	5.5450e-01	-4.2881	-10.706026	-0.000268	-2.679411	-0.907809	-0.021894
1111	5.5500e-01	-4.3651	-10.815498	0.000268	2.679411	0.907809	-0.021894
1112	5.5550e-01	-4.3924	-10.915563	0.000245	2.449149	0.829794	-0.020013
1113	5.5600e-01	-4.4582	-11.026745	0.000272	2.721276	0.921993	-0.022237
1114	5.5650e-01	-4.4790	-11.138783	0.000274	2.742209	0.929086	-0.022408
1115	5.5700e-01	-4.5544	-11.243551	0.000256	2.564280	0.868802	-0.020954
1116	5.5750e-01	-4.5737	-11.342333	0.000242	2.417749	0.819156	-0.019756
1117	5.5800e-01	-4.6025	-11.456081	0.000278	2.784075	0.943270	-0.022750
1118	5.5850e-01	-4.6539	-11.565126	0.000267	2.668944	0.904263	-0.021809
1119	5.5900e-01	-4.6908	-11.662196	0.000238	2.375884	0.804971	-0.019414
1120	5.5950e-01	-4.7357	-11.769530	0.000263	2.627078	0.890078	-0.021467
1121	5.6000e-01	-4.7902	-11.876864	0.000263	2.627078	0.890078	-0.021467
1122	5.6050e-01	-4.7918	-11.984626	0.000264	2.637545	0.893624	-0.021552
1123	5.6100e-01	-4.8480	-12.092388	0.000264	2.637545	0.893624	-0.021552
1124	5.6150e-01	-4.8817	-12.195018	0.000251	2.511948	0.851071	-0.020526
1125	5.6200e-01	-4.9122	-12.298503	0.000253	2.532880	0.858163	-0.020697
1126	5.6250e-01	-4.9795	-12.398567	0.000245	2.449149	0.829794	-0.020013
1127	5.6300e-01	-5.0245	-12.500770	0.000250	2.501481	0.847525	-0.020440
1128	5.6350e-01	-5.0517	-12.611952	0.000272	2.721276	0.921993	-0.022237
1129	5.6400e-01	-5.0950	-12.715010	0.000252	2.522414	0.854617	-0.020612
1130	5.6450e-01	-5.1656	-12.817212	0.000250	2.501481	0.847525	-0.020440
1131	5.6500e-01	-5.1785	-12.922836	0.000259	2.585213	0.875894	-0.021125
1132	5.6550e-01	-5.2041	-13.025038	0.000250	2.501481	0.847525	-0.020440
1133	5.6600e-01	-5.2667	-13.129806	0.000256	2.564280	0.868802	-0.020954
1134	5.6650e-01	-5.2843	-13.237568	0.000264	2.637545	0.893624	-0.021552
1135	5.6700e-01	-5.3421	-13.334639	0.000238	2.375884	0.804971	-0.019414
1136	5.6750e-01	-5.3613	-13.440690	0.000260	2.595679	0.879440	-0.021210
1137	5.6800e-01	-5.4367	-13.538616	0.000240	2.396817	0.812063	-0.019585
1138	5.6850e-01	-5.4833	-13.643812	0.000257	2.574746	0.872348	-0.021039
1139	5.6900e-01	-5.5202	-13.748153	0.000255	2.553813	0.865255	-0.020868
1140	5.6950e-01	-5.5587	-13.851638	0.000253	2.532880	0.858163	-0.020697
1141	5.7000e-01	-5.6068	-13.947854	0.000235	2.354951	0.797879	-0.019243
1142	5.7050e-01	-5.6260	-14.053049	0.000257	2.574746	0.872348	-0.021039
1143	5.7100e-01	-5.6790	-14.153969	0.000247	2.470082	0.836886	-0.020184
1144	5.7150e-01	-5.6982	-14.257882	0.000254	2.543347	0.861709	-0.020783
1145	5.7200e-01	-5.7801	-14.355380	0.000239	2.386350	0.808517	-0.019500
1146	5.7250e-01	-5.7688	-14.465280	-0.000269	-2.689877	-0.911355	-0.021980
1147	5.7300e-01	-5.8458	-14.560641	0.000233	2.334018	0.790787	-0.019072
1148	5.7350e-01	-5.8667	-14.660705	0.000245	2.449149	0.829794	-0.020013
1149	5.7400e-01	-5.8827	-14.765045	0.000255	2.553813	0.865255	-0.020868
1150	5.7450e-01	-5.9373	-14.862972	0.000240	2.396817	0.812063	-0.019585
1151	5.7500e-01	-5.9469	-14.968167	0.000257	2.574746	0.872348	-0.021039
1152	5.7550e-01	-6.0399	-15.063956	0.000234	2.344484	0.794333	-0.019158
1153	5.7600e-01	-6.1009	-15.168724	0.000256	2.564280	0.868802	-0.020954
1154	5.7650e-01	-6.1057	-15.262374	0.000229	2.292152	0.776602	-0.018730
1155	5.7700e-01	-6.1586	-15.365859	0.000253	2.532880	0.858163	-0.020697
1156	5.7750e-01	-6.1859	-15.469344	0.000253	2.532880	0.858163	-0.020697
1157	5.7800e-01	-6.2084	-15.567698	0.000241	2.407283	0.815610	-0.019671
1158	5.7850e-01	-6.2677	-15.665624	0.000240	2.396817	0.812063	-0.019585
1159	5.7900e-01	-6.2998	-15.772531	0.000262	2.616612	0.886532	-0.021381
1160	5.7950e-01	-6.3351	-15.870029	0.000239	2.386350	0.808517	-0.019500
1161	5.8000e-01	-6.3929	-15.965817	0.000234	2.344484	0.794333	-0.019158
1162	5.8050e-01	-6.4121	-16.067164	0.000248	2.480548	0.840432	-0.020269
1163	5.8100e-01	-6.4522	-16.174498	0.000263	2.627078	0.890078	-0.021467
1164	5.8150e-01	-6.5052	-16.268148	0.000229	2.292152	0.776602	-0.018730
1165	5.8200e-01	-6.5356	-16.360088	0.000225	2.250286	0.762418	-0.018388
1166	5.8250e-01	-6.5549	-16.461435	0.000248	2.480548	0.840432	-0.020269
1167	5.8300e-01	-6.6335	-16.563210	0.000249	2.491015	0.843979	-0.020355
1168	5.8350e-01	-6.6303	-16.660708	-0.000239	-2.386350	-0.808517	-0.019500
1169	5.8400e-01	-6.6736	-16.758635	0.000240	2.396817	0.812063	-0.019585
1170	5.8450e-01	-6.7298	-16.851429	0.000227	2.271219	0.769510	-0.018559
1171	5.8500e-01	-6.7650	-16.951921	0.000246	2.459615	0.833340	-0.020098
1172	5.8550e-01	-6.8421	-17.047709	0.000234	2.344484	0.794333	-0.019158
1173	5.8600e-01	-6.8517	-17.146491	0.000242	2.417749	0.819156	-0.019756
1174	5.8650e-01	-6.9142	-17.243989	0.000239	2.386350	0.808517	-0.019500
1175	5.8700e-01	-6.9560	-17.341060	0.000238	2.375884	0.804971	-0.019414
1176	5.8750e-01	-6.9608	-17.438131	0.000238	2.375884	0.804971	-0.019414
1177	5.8800e-01	-7.0121	-17.531353	0.000228	2.281686	0.773056	-0.018644
1178	5.8850e-01	-7.0747	-17.631845	0.000246	2.459615	0.833340	-0.020098
1179	5.8900e-01	-7.0939	-17.725923	0.000230	2.302619	0.780148	-0.018816
1180	5.8950e-01	-7.1517	-17.820428	0.000231	2.313085	0.783694	-0.018901
1181	5.9000e-01	-7.1709	-17.922203	0.000249	2.491015	0.843979	-0.020355
1182	5.9050e-01	-7.2271	-18.015853	0.000229	2.292152	0.776602	-0.018730
1183	5.9100e-01	-7.2575	-18.111641	0.000234	2.344484	0.794333	-0.019158
1184	5.9150e-01	-7.3025	-18.205718	0.000230	2.302619	0.780148	-0.018816
1185	5.9200e-01	-7.3410	-18.303217	0.000239	2.386350	0.808517	-0.019500
1186	5.9250e-01	-7.4116	-18.394301	0.000223	2.229353	0.755325	-0.018217
1187	5.9300e-01	-7.4035	-18.499497	-0.000257	-2.574746	-0.872348	-0.021039
1188	5.9350e-01	-7.4468	-18.588015	0.000217	2.166555	0.734049	-0.017704
1189	5.9400e-01	-7.4998	-18.684659	0.000237	2.365417	0.801425	-0.019329
1190	5.9450e-01	-7.5367	-18.784723	0.000245	2.449149	0.829794	-0.020013
1191	5.9500e-01	-7.5704	-18.885215	0.000246	2.459615	0.833340	-0.020098
1192	5.9550e-01	-7.5960	-18.980575	0.000233	2.334018	0.790787	-0.019072
1193	5.9600e-01	-7.6875	-19.071232	0.000222	2.218887	0.751779	-0.018131
1194	5.9650e-01	-7.6746	-19.172579	-0.000248	-2.480548	-0.840432	-0.020269
1195	5.9700e-01	-7.7308	-19.262808	0.000221	2.208421	0.748233	-0.018046
1196	5.9750e-01	-7.7677	-19.353892	0.000223	2.229353	0.755325	-0.018217
1197	5.9800e-01	-7.8110	-19.452674	0.000242	2.417749	0.819156	-0.019756
1198	5.9850e-01	-7.8319	-19.547607	0.000232	2.323551	0.787241	-0.018987
1199	5.9900e-01	-7.8944	-19.641256	0.000229	2.292152	0.776602	-0.018730
1200	5.9950e-01	-7.9426	-19.737045	0.000234	2.344484	0.794333	-0.019158
1201	6.0000e-01	-7.9474	-19.835826	0.000242	2.417749	0.819156	-0.019756
1202	6.0050e-01	-8.0180	-19.923062	0.000214	2.135155	0.723410	-0.017447
1203	6.0100e-01	-8.0709	-20.024836	0.000249	2.491015	0.843979	-0.020355
1204	6.0150e-01	-8.0950	-20.116776	0.000225	2.250286	0.762418	-0.018388
1205	6.0200e-01	-8.1174	-20.208715	0.000225	2.250286	0.762418	-0.018388
1206	6.0250e-01	-8.1575	-20.300655	0.000225	2.250286	0.762418	-0.018388
1207	6.0300e-01	-8.2105	-20.399008	0.000241	2.407283	0.815610	-0.019671
1208	6.0350e-01	-8.2666	-20.483251	0.000206	2.061890	0.698587	-0.016848
1209	6.0400e-01	-8.2923	-20.582032	0.000242	2.417749	0.819156	-0.019756
1210	6.0450e-01	-8.3468	-20.674399	0.000226	2.260753	0.765964	-0.018473
1211	6.0500e-01	-8.3757	-20.765483	0.000223	2.229353	0.755325	-0.018217
1212	6.0550e-01	-8.4078	-20.855712	0.000221	2.208421	0.748233	-0.018046
1213	6.0600e-01	-8.4575	-20.951500	0.000234	2.344484	0.794333	-0.019158
1214	6.0650e-01	-8.5072	-21.046861	0.000233	2.334018	0.790787	-0.019072
1215	6.0700e-01	-8.5377	-21.135379	0.000217	2.166555	0.734049	-0.017704
1216	6.0750e-01	-8.5891	-21.232023	0.000237	2.365417	0.801425	-0.019329
1217	6.0800e-01	-8.6179	-21.324817	0.000227	2.271219	0.769510	-0.018559
1218	6.0850e-01	-8.6388	-21.418467	0.000229	2.292152	0.776602	-0.018730
1219	6.0900e-01	-8.6982	-21.510407	0.000225	2.250286	0.762418	-0.018388
1220	6.0950e-01	-8.7511	-21.603201	0.000227	2.271219	0.769510	-0.018559
1221	6.1000e-01	-8.7591	-21.697279	0.000230	2.302619	0.780148	-0.018816
1222	6.1050e-01	-8.8088	-21.791784	0.000231	2.313085	0.783694	-0.018901
1223	6.1100e-01	-8.8730	-21.877737	0.000210	2.103756	0.712772	-0.017191
1224	6.1150e-01	-8.8971	-21.972669	0.000232	2.323551	0.787241	-0.018987
1225	6.1200e-01	-8.9051	-22.064181	0.000224	2.239820	0.758872	-0.018302
1226	6.1250e-01	-8.9869	-22.159969	0.000234	2.344484	0.794333	-0.019158
1227	6.1300e-01	-9.0366	-22.250626	0.000222	2.218887	0.751779	-0.018131
1228	6.1350e-01	-9.0447	-22.343848	0.000228	2.281686	0.773056	-0.018644
1229	6.1400e-01	-9.0992	-22.431084	0.000214	2.135155	0.723410	-0.017447
1230	6.1450e-01	-9.1153	-22.519602	0.000217	2.166555	0.734049	-0.017704
1231	6.1500e-01	-9.1762	-22.616246	0.000237	2.365417	0.801425	-0.019329
1232	6.1550e-01	-9.2436	-22.704336	0.000216	2.156088	0.730502	-0.017618
1233	6.1600e-01	-9.2677	-22.796703	0.000226	2.260753	0.765964	-0.018473
1234	6.1650e-01	-9.3110	-22.889070	0.000226	2.260753	0.765964	-0.018473
1235	6.1700e-01	-9.3190	-22.981010	0.000225	2.250286	0.762418	-0.018388
1236	6.1750e-01	-9.3832	-23.069101	0.000216	2.156088	0.730502	-0.017618
1237	6.1800e-01	-9.4425	-23.159330	0.000221	2.208421	0.748233	-0.018046
1238	6.1850e-01	-9.4409	-23.254690	-0.000233	-2.334018	-0.790787	-0.019072
1239	6.1900e-01	-9.5131	-23.341926	0.000214	2.135155	0.723410	-0.017447
1240	6.1950e-01	-9.5564	-23.431299	0.000219	2.187488	0.741141	-0.017875
1241	6.2000e-01	-9.5949	-23.523239	0.000225	2.250286	0.762418	-0.018388
1242	6.2050e-01	-9.5997	-23.612185	0.000218	2.177021	0.737595	-0.017789
1243	6.2100e-01	-9.6527	-23.705407	0.000228	2.281686	0.773056	-0.018644
1244	6.2150e-01	-9.7024	-23.795636	0.000221	2.208421	0.748233	-0.018046
1245	6.2200e-01	-9.7746	-23.879023	0.000204	2.040957	0.691495	-0.016677
1246	6.2250e-01	-9.7874	-23.967969	0.000218	2.177021	0.737595	-0.017789
1247	6.2300e-01	-9.7970	-24.060336	0.000226	2.260753	0.765964	-0.018473
1248	6.2350e-01	-9.8708	-24.147144	0.000212	2.124689	0.719864	-0.017362
1249	6.2400e-01	-9.8901	-24.240794	0.000229	2.292152	0.776602	-0.018730
1250	6.2450e-01	-9.9446	-24.327174	0.000211	2.114222	0.716318	-0.017276
1251	6.2500e-01	-9.9896	-24.417831	0.000222	2.218887	0.751779	-0.018131
1252	6.2550e-01	-10.0088	-24.508487	0.000222	2.218887	0.751779	-0.018131
1253	6.2600e-01	-10.0297	-24.596151	0.000215	2.145622	0.726956	-0.017533
1254	6.2650e-01	-10.1083	-24.682531	0.000211	2.114222	0.716318	-0.017276
1255	6.2700e-01	-10.1339	-24.772332	0.000220	2.197954	0.744687	-0.017960
1256	6.2750e-01	-10.1853	-24.861706	0.000219	2.187488	0.741141	-0.017875
1257	6.2800e-01	-10.2206	-24.953218	0.000224	2.239820	0.758872	-0.018302
1258	6.2850e-01	-10.2687	-25.040881	0.000215	2.145622	0.726956	-0.017533
1259	6.2900e-01	-10.2992	-25.129399	0.000217	2.166555	0.734049	-0.017704
1260	6.2950e-01	-10.3072	-25.222622	0.000228	2.281686	0.773056	-0.018644
1261	6.3000e-01	-10.3922	-25.310712	0.000216	2.156088	0.730502	-0.017618
1262	6.3050e-01	-10.4259	-25.395810	0.000208	2.082823	0.705680	-0.017019
1263	6.3100e-01	-10.5029	-25.480052	0.000206	2.061890	0.698587	-0.016848
1264	6.3150e-01	-10.4869	-25.576695	-0.000237	-2.365417	-0.801425	-0.019329
1265	6.3200e-01	-10.5334	-25.658799	0.000201	2.009558	0.680857	-0.016421
1266	6.3250e-01	-10.5783	-25.753732	0.000232	2.323551	0.787241	-0.018987
1267	6.3300e-01	-10.6232	-25.837119	0.000204	2.040957	0.691495	-0.016677
1268	6.3350e-01	-10.6393	-25.924782	0.000215	2.145622	0.726956	-0.017533
1269	6.3400e-01	-10.6890	-26.013728	0.000218	2.177021	0.737595	-0.017789
1270	6.3450e-01	-10.7435	-26.099253	0.000209	2.093290	0.709226	-0.017105
1271	6.3500e-01	-10.7692	-26.187772	0.000217	2.166555	0.734049	-0.017704
1272	6.3550e-01	-10.7981	-26.274152	0.000211	2.114222	0.716318	-0.017276
1273	6.3600e-01	-10.8607	-26.366092	0.000225	2.250286	0.762418	-0.018388
1274	6.3650e-01	-10.9088	-26.446913	0.000198	1.978159	0.670218	-0.016164
1275	6.3700e-01	-10.9296	-26.531583	0.000207	2.072357	0.702133	-0.016934
1276	6.3750e-01	-10.9938	-26.626943	0.000233	2.334018	0.790787	-0.019072
1277	6.3800e-01	-11.0115	-26.711613	0.000207	2.072357	0.702133	-0.016934
1278	6.3850e-01	-11.0756	-26.797565	0.000210	2.103756	0.712772	-0.017191
1279	6.3900e-01	-11.1173	-26.880952	0.000204	2.040957	0.691495	-0.016677
1280	6.3950e-01	-11.1478	-26.971181	0.000221	2.208421	0.748233	-0.018046
1281	6.4000e-01	-11.1735	-27.057562	0.000211	2.114222	0.716318	-0.017276
1282	6.4050e-01	-11.2200	-27.143514	0.000210	2.103756	0.712772	-0.017191
1283	6.4100e-01	-11.2521	-27.232033	0.000217	2.166555	0.734049	-0.017704
1284	6.4150e-01	-11.2649	-27.313282	0.000199	1.988625	0.673764	-0.016250
1285	6.4200e-01	-11.3307	-27.401800	0.000217	2.166555	0.734049	-0.017704
1286	6.4250e-01	-11.3884	-27.489891	0.000216	2.156088	0.730502	-0.017618
1287	6.4300e-01	-11.4398	-27.570712	0.000198	1.978159	0.670218	-0.016164
1288	6.4350e-01	-11.4606	-27.657948	0.000214	2.135155	0.723410	-0.017447
1289	6.4400e-01	-11.4783	-27.748604	0.000222	2.218887	0.751779	-0.018131
1290	6.4450e-01	-11.5537	-27.831563	0.000203	2.030491	0.687949	-0.016592
1291	6.4500e-01	-11.5745	-27.922220	0.000222	2.218887	0.751779	-0.018131
1292	6.4550e-01	-11.6018	-28.008173	0.000210	2.103756	0.712772	-0.017191
1293	6.4600e-01	-11.6323	-28.089849	0.000200	1.999092	0.677311	-0.016335
1294	6.4650e-01	-11.7093	-28.177512	0.000215	2.145622	0.726956	-0.017533
1295	6.4700e-01	-11.7414	-28.268169	0.000222	2.218887	0.751779	-0.018131
1296	6.4750e-01	-11.7959	-28.347279	0.000194	1.936293	0.656034	-0.015822
1297	6.4800e-01	-11.8344	-28.436653	0.000219	2.187488	0.741141	-0.017875
1298	6.4850e-01	-11.8633	-28.524316	0.000215	2.145622	0.726956	-0.017533
1299	6.4900e-01	-11.8890	-28.609414	0.000208	2.082823	0.705680	-0.017019
1300	6.4950e-01	-11.9451	-28.690663	0.000199	1.988625	0.673764	-0.016250
1301	6.5000e-01	-11.9612	-28.772339	0.000200	1.999092	0.677311	-0.016335
1302	6.5050e-01	-11.9900	-28.858292	0.000210	2.103756	0.712772	-0.017191
1303	6.5100e-01	-12.0622	-28.943817	0.000209	2.093290	0.709226	-0.017105
1304	6.5150e-01	-12.1136	-29.027631	0.000205	2.051424	0.695041	-0.016763
1305	6.5200e-01	-12.1232	-29.111446	0.000205	2.051424	0.695041	-0.016763
1306	6.5250e-01	-12.1809	-29.200820	0.000219	2.187488	0.741141	-0.017875
1307	6.5300e-01	-12.2050	-29.283351	0.000202	2.020024	0.684403	-0.016506
1308	6.5350e-01	-12.2579	-29.364600	0.000199	1.988625	0.673764	-0.016250
1309	6.5400e-01	-12.2708	-29.459105	0.000231	2.313085	0.783694	-0.018901
1310	6.5450e-01	-12.3478	-29.542064	0.000203	2.030491	0.687949	-0.016592
1311	6.5500e-01	-12.3879	-29.619465	0.000189	1.894427	0.641849	-0.015480
1312	6.5550e-01	-12.4264	-29.704562	0.000208	2.082823	0.705680	-0.017019
1313	6.5600e-01	-12.4825	-29.787094	0.000202	2.020024	0.684403	-0.016506
1314	6.5650e-01	-12.5082	-29.870908	0.000205	2.051424	0.695041	-0.016763
1315	6.5700e-01	-12.5756	-29.955150	0.000206	2.061890	0.698587	-0.016848
1316	6.5750e-01	-12.5547	-30.039393	-0.000206	-2.061890	-0.698587	-0.016848
1317	6.5800e-01	-12.6125	-30.125345	0.000210	2.103756	0.712772	-0.017191
1318	6.5850e-01	-12.6381	-30.205739	0.000197	1.967692	0.666672	-0.016079
1319	6.5900e-01	-12.7151	-30.287415	0.000200	1.999092	0.677311	-0.016335
1320	6.5950e-01	-12.7151	-30.369092	0.000200	1.999092	0.677311	-0.016335
1321	6.6000e-01	-12.7729	-30.456755	0.000215	2.145622	0.726956	-0.017533
1322	6.6050e-01	-12.8659	-30.538859	0.000201	2.009558	0.680857	-0.016421
1323	6.6100e-01	-12.8724	-30.626522	0.000215	2.145622	0.726956	-0.017533
1324	6.6150e-01	-12.8788	-30.718034	0.000224	2.239820	0.758872	-0.018302
1325	6.6200e-01	-12.9446	-30.798428	0.000197	1.967692	0.666672	-0.016079
1326	6.6250e-01	-12.9911	-30.879249	0.000198	1.978159	0.670218	-0.016164
1327	6.6300e-01	-13.0601	-30.957077	0.000190	1.904894	0.645395	-0.015566
1328	6.6350e-01	-13.0472	-31.044740	-0.000215	-2.145622	-0.726956	-0.017533
1329	6.6400e-01	-13.1130	-31.125561	0.000198	1.978159	0.670218	-0.016164
1330	6.6450e-01	-13.1355	-31.207665	0.000201	2.009558	0.680857	-0.016421
1331	6.6500e-01	-13.1306	-31.291479	-0.000205	-2.051424	-0.695041	-0.016763
1332	6.6550e-01	-13.2141	-31.368452	0.000188	1.883961	0.638303	-0.015395
1333	6.6600e-01	-13.2622	-31.450128	0.000200	1.999092	0.677311	-0.016335
1334	6.6650e-01	-13.2814	-31.534371	0.000206	2.061890	0.698587	-0.016848
1335	6.6700e-01	-13.3071	-31.620323	0.000210	2.103756	0.712772	-0.017191
1336	6.6750e-01	-13.3809	-31.702000	0.000200	1.999092	0.677311	-0.016335
1337	6.6800e-01	-13.3873	-31.781110	0.000194	1.936293	0.656034	-0.015822
1338	6.6850e-01	-13.4371	-31.866208	0.000208	2.082823	0.705680	-0.017019
1339	6.6900e-01	-13.4852	-31.950022	0.000205	2.051424	0.695041	-0.016763
1340	6.6950e-01	-13.5461	-32.033409	0.000204	2.040957	0.691495	-0.016677
1341	6.7000e-01	-13.5718	-32.115513	0.000201	2.009558	0.680857	-0.016421
1342	6.7050e-01	-13.6328	-32.196335	0.000198	1.978159	0.670218	-0.016164
1343	6.7100e-01	-13.6296	-32.280577	-0.000206	-2.061890	-0.698587	-0.016848
1344	6.7150e-01	-13.6889	-32.364819	0.000206	2.061890	0.698587	-0.016848
1345	6.7200e-01	-13.7386	-32.444357	0.000195	1.946759	0.659580	-0.015908
1346	6.7250e-01	-13.7996	-32.526034	0.000200	1.999092	0.677311	-0.016335
1347	6.7300e-01	-13.8140	-32.608565	0.000202	2.020024	0.684403	-0.016506
1348	6.7350e-01	-13.8670	-32.689814	0.000199	1.988625	0.673764	-0.016250
1349	6.7400e-01	-13.8878	-32.769780	0.000196	1.957226	0.663126	-0.015993
1350	6.7450e-01	-13.9392	-32.849746	0.000196	1.957226	0.663126	-0.015993
1351	6.7500e-01	-13.9568	-32.934416	0.000207	2.072357	0.702133	-0.016934
1352	6.7550e-01	-14.0162	-33.014382	0.000196	1.957226	0.663126	-0.015993
1353	6.7600e-01	-14.0643	-33.097769	0.000204	2.040957	0.691495	-0.016677
1354	6.7650e-01	-14.1060	-33.181156	0.000204	2.040957	0.691495	-0.016677
1355	6.7700e-01	-14.1381	-33.258556	0.000189	1.894427	0.641849	-0.015480
1356	6.7750e-01	-14.2247	-33.342798	0.000206	2.061890	0.698587	-0.016848
1357	6.7800e-01	-14.2472	-33.422764	0.000196	1.957226	0.663126	-0.015993
1358	6.7850e-01	-14.2985	-33.504013	0.000199	1.988625	0.673764	-0.016250
1359	6.7900e-01	-14.2777	-33.589110	-0.000208	-2.082823	-0.705680	-0.017019
1360	6.7950e-01	-14.3402	-33.669076	0.000196	1.957226	0.663126	-0.015993
1361	6.8000e-01	-14.3884	-33.749042	0.000196	1.957226	0.663126	-0.015993
1362	6.8050e-01	-14.3852	-33.830291	-0.000199	-1.988625	-0.673764	-0.016250
1363	6.8100e-01	-14.4493	-33.912822	0.000202	2.020024	0.684403	-0.016506
1364	6.8150e-01	-14.4814	-33.994926	0.000201	2.009558	0.680857	-0.016421
1365	6.8200e-01	-14.5295	-34.078313	0.000204	2.040957	0.691495	-0.016677
1366	6.8250e-01	-14.6242	-34.152293	0.000181	1.810696	0.613480	-0.014796
1367	6.8300e-01	-14.6386	-34.234397	0.000201	2.009558	0.680857	-0.016421
1368	6.8350e-01	-14.6499	-34.311797	0.000189	1.894427	0.641849	-0.015480
1369	6.8400e-01	-14.6868	-34.398177	0.000211	2.114222	0.716318	-0.017276
1370	6.8450e-01	-14.7253	-34.481136	0.000203	2.030491	0.687949	-0.016592
1371	6.8500e-01	-14.7894	-34.559819	0.000193	1.925826	0.652488	-0.015737
1372	6.8550e-01	-14.8295	-34.635081	0.000184	1.842095	0.624119	-0.015052
1373	6.8600e-01	-14.8456	-34.715047	0.000196	1.957226	0.663126	-0.015993
1374	6.8650e-01	-14.8873	-34.799717	0.000207	2.072357	0.702133	-0.016934
1375	6.8700e-01	-14.9081	-34.886098	0.000211	2.114222	0.716318	-0.017276
1376	6.8750e-01	-14.9819	-34.962642	0.000187	1.873494	0.634757	-0.015309
1377	6.8800e-01	-15.0236	-35.041753	0.000194	1.936293	0.656034	-0.015822
1378	6.8850e-01	-15.0862	-35.122574	0.000198	1.978159	0.670218	-0.016164
1379	6.8900e-01	-15.0990	-35.207672	0.000208	2.082823	0.705680	-0.017019
1380	6.8950e-01	-15.1071	-35.285072	0.000189	1.894427	0.641849	-0.015480
1381	6.9000e-01	-15.1857	-35.365465	0.000197	1.967692	0.666672	-0.016079
1382	6.9050e-01	-15.2498	-35.445004	0.000195	1.946759	0.659580	-0.015908
1383	6.9100e-01	-15.2466	-35.524542	-0.000195	-1.946759	-0.659580	-0.015908
1384	6.9150e-01	-15.3044	-35.601942	0.000189	1.894427	0.641849	-0.015480
1385	6.9200e-01	-15.3300	-35.690888	0.000218	2.177021	0.737595	-0.017789
1386	6.9250e-01	-15.3798	-35.768716	0.000190	1.904894	0.645395	-0.015566
1387	6.9300e-01	-15.4375	-35.845689	0.000188	1.883961	0.638303	-0.015395
1388	6.9350e-01	-15.4632	-35.922234	0.000187	1.873494	0.634757	-0.015309
1389	6.9400e-01	-15.4921	-36.004765	0.000202	2.020024	0.684403	-0.016506
1390	6.9450e-01	-15.5498	-36.082593	0.000190	1.904894	0.645395	-0.015566
1391	6.9500e-01	-15.5835	-36.170256	0.000215	2.145622	0.726956	-0.017533
1392	6.9550e-01	-15.5915	-36.253216	0.000203	2.030491	0.687949	-0.016592
1393	6.9600e-01	-15.6669	-36.334037	0.000198	1.978159	0.670218	-0.016164
1394	6.9650e-01	-15.6798	-36.412720	0.000193	1.925826	0.652488	-0.015737
1395	6.9700e-01	-15.7311	-36.486699	0.000181	1.810696	0.613480	-0.014796
1396	6.9750e-01	-15.7696	-36.573079	0.000211	2.114222	0.716318	-0.017276
1397	6.9800e-01	-15.8514	-36.650479	0.000189	1.894427	0.641849	-0.015480
1398	6.9850e-01	-15.8723	-36.730873	0.000197	1.967692	0.666672	-0.016079
1399	6.9900e-01	-15.9092	-36.814260	0.000204	2.040957	0.691495	-0.016677
1400	6.9950e-01	-15.9413	-36.894226	0.000196	1.957226	0.663126	-0.015993
1401	7.0000e-01	-15.9798	-36.974619	0.000197	1.967692	0.666672	-0.016079
1402	7.0050e-01	-16.0359	-37.054158	0.000195	1.946759	0.659580	-0.015908
1403	7.0100e-01	-16.0680	-37.136689	0.000202	2.020024	0.684403	-0.016506
1404	7.0150e-01	-16.1225	-37.211096	0.000182	1.821162	0.617026	-0.014881
1405	7.0200e-01	-16.1113	-37.300042	-0.000218	-2.177021	-0.737595	-0.017789
1406	7.0250e-01	-16.2044	-37.375304	0.000184	1.842095	0.624119	-0.015052
1407	7.0300e-01	-16.2011	-37.457408	-0.000201	-2.009558	-0.680857	-0.016421
1408	7.0350e-01	-16.2701	-37.541223	0.000205	2.051424	0.695041	-0.016763
1409	7.0400e-01	-16.2942	-37.618195	0.000188	1.883961	0.638303	-0.015395
1410	7.0450e-01	-16.3327	-37.699872	0.000200	1.999092	0.677311	-0.016335
1411	7.0500e-01	-16.3616	-37.781976	0.000201	2.009558	0.680857	-0.016421
1412	7.0550e-01	-16.4033	-37.866218	0.000206	2.061890	0.698587	-0.016848
1413	7.0600e-01	-16.4947	-37.938487	0.000177	1.768830	0.599296	-0.014454
1414	7.0650e-01	-16.4771	-38.024439	-0.000210	-2.103756	-0.712772	-0.017191
1415	7.0700e-01	-16.5685	-38.100129	0.000185	1.852561	0.627665	-0.015138
1416	7.0750e-01	-16.5573	-38.184799	-0.000207	-2.072357	-0.702133	-0.016934
1417	7.0800e-01	-16.6311	-38.266475	0.000200	1.999092	0.677311	-0.016335
1418	7.0850e-01	-16.6632	-38.339172	0.000178	1.779296	0.602842	-0.014539
1419	7.0900e-01	-16.7145	-38.420848	0.000200	1.999092	0.677311	-0.016335
1420	7.0950e-01	-16.7225	-38.505518	0.000207	2.072357	0.702133	-0.016934
1421	7.1000e-01	-16.8011	-38.585056	0.000195	1.946759	0.659580	-0.015908
1422	7.1050e-01	-16.8204	-38.668871	0.000205	2.051424	0.695041	-0.016763
1423	7.1100e-01	-16.8605	-38.751830	0.000203	2.030491	0.687949	-0.016592
1424	7.1150e-01	-16.9102	-38.827092	0.000184	1.842095	0.624119	-0.015052
1425	7.1200e-01	-16.9391	-38.910051	0.000203	2.030491	0.687949	-0.016592
1426	7.1250e-01	-16.9808	-38.988307	0.000192	1.915360	0.648942	-0.015651
1427	7.1300e-01	-17.0193	-39.072549	0.000206	2.061890	0.698587	-0.016848
1428	7.1350e-01	-17.0578	-39.150377	0.000190	1.904894	0.645395	-0.015566
1429	7.1400e-01	-17.0771	-39.236757	0.000211	2.114222	0.716318	-0.017276
1430	7.1450e-01	-17.1188	-39.315440	0.000193	1.925826	0.652488	-0.015737
1431	7.1500e-01	-17.1813	-39.405241	0.000220	2.197954	0.744687	-0.017960
1432	7.1550e-01	-17.2327	-39.480076	0.000183	1.831628	0.620573	-0.014967
1433	7.1600e-01	-17.2856	-39.564318	0.000206	2.061890	0.698587	-0.016848
1434	7.1650e-01	-17.2936	-39.642146	0.000190	1.904894	0.645395	-0.015566
1435	7.1700e-01	-17.3578	-39.728526	0.000211	2.114222	0.716318	-0.017276
1436	7.1750e-01	-17.3851	-39.806782	0.000192	1.915360	0.648942	-0.015651
1437	7.1800e-01	-17.4091	-39.888458	0.000200	1.999092	0.677311	-0.016335
1438	7.1850e-01	-17.4781	-39.969707	0.000199	1.988625	0.673764	-0.016250
1439	7.1900e-01	-17.4958	-40.053094	0.000204	2.040957	0.691495	-0.016677
1440	7.1950e-01	-17.5311	-40.133915	0.000198	1.978159	0.670218	-0.016164
1441	7.2000e-01	-17.5968	-40.216019	0.000201	2.009558	0.680857	-0.016421
1442	7.2050e-01	-17.6241	-40.299834	0.000205	2.051424	0.695041	-0.016763
1443	7.2100e-01	-17.6786	-40.379799	0.000196	1.957226	0.663126	-0.015993
1444	7.2150e-01	-17.7155	-40.464469	0.000207	2.072357	0.702133	-0.016934
1445	7.2200e-01	-17.7348	-40.546146	0.000200	1.999092	0.677311	-0.016335
1446	7.2250e-01	-17.7909	-40.627394	0.000199	1.988625	0.673764	-0.016250
1447	7.2300e-01	-17.8423	-40.710781	0.000204	2.040957	0.691495	-0.016677
1448	7.2350e-01	-17.8599	-40.795024	0.000206	2.061890	0.698587	-0.016848
1449	7.2400e-01	-17.9113	-40.874562	0.000195	1.946759	0.659580	-0.015908
1450	7.2450e-01	-17.9193	-40.956666	0.000201	2.009558	0.680857	-0.016421
1451	7.2500e-01	-17.9449	-41.044757	0.000216	2.156088	0.730502	-0.017618
1452	7.2550e-01	-18.0203	-41.123440	0.000193	1.925826	0.652488	-0.015737
1453	7.2600e-01	-18.0492	-41.208537	0.000208	2.082823	0.705680	-0.017019
1454	7.2650e-01	-18.0813	-41.294918	0.000211	2.114222	0.716318	-0.017276
1455	7.2700e-01	-18.1551	-41.369324	0.000182	1.821162	0.617026	-0.014881
1456	7.2750e-01	-18.1920	-41.455705	0.000211	2.114222	0.716318	-0.017276
1457	7.2800e-01	-18.2193	-41.545506	0.000220	2.197954	0.744687	-0.017960
1458	7.2850e-01	-18.2690	-41.615636	0.000172	1.716497	0.581565	-0.014026
1459	7.2900e-01	-18.3107	-41.707148	0.000224	2.239820	0.758872	-0.018302
1460	7.2950e-01	-18.3412	-41.790963	0.000205	2.051424	0.695041	-0.016763
1461	7.3000e-01	-18.3957	-41.873067	0.000201	2.009558	0.680857	-0.016421
1462	7.3050e-01	-18.3989	-41.961158	0.000216	2.156088	0.730502	-0.017618
1463	7.3100e-01	-18.4759	-42.042407	0.000199	1.988625	0.673764	-0.016250
1464	7.3150e-01	-18.4984	-42.125793	0.000204	2.040957	0.691495	-0.016677
1465	7.3200e-01	-18.5369	-42.217733	0.000225	2.250286	0.762418	-0.018388
1466	7.3250e-01	-18.5658	-42.301120	0.000204	2.040957	0.691495	-0.016677
1467	7.3300e-01	-18.6187	-42.380658	0.000195	1.946759	0.659580	-0.015908
1468	7.3350e-01	-18.6893	-42.470887	0.000221	2.208421	0.748233	-0.018046
1469	7.3400e-01	-18.7005	-42.550853	0.000196	1.957226	0.663126	-0.015993
1470	7.3450e-01	-18.7663	-42.636806	0.000210	2.103756	0.712772	-0.017191
1471	7.3500e-01	-18.7824	-42.716772	0.000196	1.957226	0.663126	-0.015993
1472	7.3550e-01	-18.8369	-42.805290	0.000217	2.166555	0.734049	-0.017704
1473	7.3600e-01	-18.8610	-42.893808	0.000217	2.166555	0.734049	-0.017704
1474	7.3650e-01	-18.9011	-42.983182	0.000219	2.187488	0.741141	-0.017875
1475	7.3700e-01	-18.9251	-43.064003	0.000198	1.978159	0.670218	-0.016164
1476	7.3750e-01	-18.9572	-43.154660	0.000222	2.218887	0.751779	-0.018131
1477	7.3800e-01	-19.0406	-43.234198	0.000195	1.946759	0.659580	-0.015908
1478	7.3850e-01	-19.0727	-43.323999	0.000220	2.197954	0.744687	-0.017960
1479	7.3900e-01	-19.1209	-43.410807	0.000212	2.124689	0.719864	-0.017362
1480	7.3950e-01	-19.1353	-43.499753	0.000218	2.177021	0.737595	-0.017789
1481	7.4000e-01	-19.1722	-43.583996	0.000206	2.061890	0.698587	-0.016848
1482	7.4050e-01	-19.2299	-43.670376	0.000211	2.114222	0.716318	-0.017276
1483	7.4100e-01	-19.2492	-43.751625	0.000199	1.988625	0.673764	-0.016250
1484	7.4150e-01	-19.2893	-43.843137	0.000224	2.239820	0.758872	-0.018302
1485	7.4200e-01	-19.2957	-43.937214	0.000230	2.302619	0.780148	-0.018816
1486	7.4250e-01	-19.4080	-44.016752	0.000195	1.946759	0.659580	-0.015908
1487	7.4300e-01	-19.4417	-44.104416	0.000215	2.145622	0.726956	-0.017533
1488	7.4350e-01	-19.4545	-44.192506	0.000216	2.156088	0.730502	-0.017618
1489	7.4400e-01	-19.4946	-44.278031	0.000209	2.093290	0.709226	-0.017105
1490	7.4450e-01	-19.5428	-44.363556	0.000209	2.093290	0.709226	-0.017105
1491	7.4500e-01	-19.5829	-44.452075	0.000217	2.166555	0.734049	-0.017704
1492	7.4550e-01	-19.6021	-44.541449	0.000219	2.187488	0.741141	-0.017875
1493	7.4600e-01	-19.6695	-44.627401	0.000210	2.103756	0.712772	-0.017191
1494	7.4650e-01	-19.7128	-44.712499	0.000208	2.082823	0.705680	-0.017019
1495	7.4700e-01	-19.7433	-44.803583	0.000223	2.229353	0.755325	-0.018217
1496	7.4750e-01	-19.8075	-44.887825	0.000206	2.061890	0.698587	-0.016848
1497	7.4800e-01	-19.7850	-44.977199	-0.000219	-2.187488	-0.741141	-0.017875
1498	7.4850e-01	-19.8636	-45.068711	0.000224	2.239820	0.758872	-0.018302
1499	7.4900e-01	-19.9101	-45.152098	0.000204	2.040957	0.691495	-0.016677
1500	7.4950e-01	-19.9422	-45.244892	0.000227	2.271219	0.769510	-0.018559
1501	7.5000e-01	-19.9791	-45.329562	0.000207	2.072357	0.702133	-0.016934
1502	7.5050e-01	-19.8941	-45.413804	-0.000206	-2.061890	-0.698587	-0.016848
1503	7.5100e-01	-19.8604	-45.461698	-0.000117	-1.172242	-0.397166	-0.009579
1504	7.5150e-01	-19.8524	-45.489921	-0.000069	-0.690786	-0.234044	-0.005645
1505	7.5200e-01	-19.8091	-45.500612	-0.000026	-0.261661	-0.088653	-0.002138
1506	7.5250e-01	-19.7641	-45.503605	-0.000007	-0.073265	-0.024823	-0.000599
1507	7.5300e-01	-19.7048	-45.489921	0.000033	0.334926	0.113476	0.002737
1508	7.5350e-01	-19.6984	-45.473244	0.000041	0.408191	0.138299	0.003335
1509	7.5400e-01	-19.6390	-45.449297	0.000059	0.586121	0.198583	0.004789
1510	7.5450e-01	-19.5909	-45.420646	0.000070	0.701252	0.237591	0.005730
1511	7.5500e-01	-19.5684	-45.385581	0.000086	0.858249	0.290783	0.007013
1512	7.5550e-01	-19.5139	-45.350943	0.000085	0.847782	0.287236	0.006928
1513	7.5600e-01	-19.4706	-45.306470	0.000109	1.088511	0.368797	0.008895
1514	7.5650e-01	-19.4353	-45.272260	0.000084	0.837316	0.283690	0.006842
1515	7.5700e-01	-19.3872	-45.229925	0.000104	1.036178	0.351067	0.008467
1516	7.5750e-01	-19.3487	-45.180748	0.000120	1.203642	0.407805	0.009835
1517	7.5800e-01	-19.3422	-45.132854	0.000117	1.172242	0.397166	0.009579
1518	7.5850e-01	-19.3134	-45.078546	0.000133	1.329239	0.450358	0.010862
1519	7.5900e-01	-19.2155	-45.033645	0.000110	1.098977	0.372344	0.008980
1520	7.5950e-01	-19.1626	-44.988745	0.000110	1.098977	0.372344	0.008980
1521	7.6000e-01	-19.1577	-44.937857	0.000125	1.245507	0.421989	0.010177
1522	7.6050e-01	-19.1257	-44.882266	0.000136	1.360638	0.460997	0.011118
1523	7.6100e-01	-19.0840	-44.831806	0.000124	1.235041	0.418443	0.010092
1524	7.6150e-01	-19.0262	-44.778781	0.000130	1.297840	0.439720	0.010605
1525	7.6200e-01	-19.0037	-44.721051	0.000141	1.412970	0.478727	0.011546
1526	7.6250e-01	-18.9668	-44.662467	0.000143	1.433903	0.485820	0.011717
1527	7.6300e-01	-18.8914	-44.612862	0.000121	1.214108	0.411351	0.009921
1528	7.6350e-01	-18.8818	-44.554705	0.000142	1.423437	0.482273	0.011631
1529	7.6400e-01	-18.8385	-44.498686	0.000137	1.371105	0.464543	0.011204
1530	7.6450e-01	-18.7663	-44.439674	0.000144	1.444370	0.489366	0.011802
1531	7.6500e-01	-18.7358	-44.379806	0.000147	1.465303	0.496458	0.011974
1532	7.6550e-01	-18.7054	-44.325925	0.000132	1.318772	0.446812	0.010776
1533	7.6600e-01	-18.6765	-44.267768	0.000142	1.423437	0.482273	0.011631
1534	7.6650e-01	-18.6524	-44.205763	0.000152	1.517635	0.514189	0.012401
1535	7.6700e-01	-18.5834	-44.145040	0.000149	1.486236	0.503550	0.012145
1536	7.6750e-01	-18.5658	-44.087311	0.000141	1.412970	0.478727	0.011546
1537	7.6800e-01	-18.5369	-44.031292	0.000137	1.371105	0.464543	0.011204
1538	7.6850e-01	-18.4679	-43.970141	0.000150	1.496702	0.507096	0.012230
1539	7.6900e-01	-18.4439	-43.902576	0.000165	1.653699	0.560288	0.013513
1540	7.6950e-01	-18.3845	-43.845702	0.000139	1.392038	0.471635	0.011375
1541	7.7000e-01	-18.3781	-43.781131	0.000158	1.580434	0.535465	0.012914
1542	7.7050e-01	-18.3268	-43.717415	0.000156	1.559501	0.528373	0.012743
1543	7.7100e-01	-18.2674	-43.657975	0.000145	1.454836	0.492912	0.011888
1544	7.7150e-01	-18.2305	-43.598963	0.000144	1.444370	0.489366	0.011802
1545	7.7200e-01	-18.1936	-43.535246	0.000156	1.559501	0.528373	0.012743
1546	7.7250e-01	-18.1663	-43.470247	0.000159	1.590900	0.539012	0.013000
1547	7.7300e-01	-18.0990	-43.407386	0.000154	1.538568	0.521281	0.012572
1548	7.7350e-01	-18.0797	-43.347946	0.000145	1.454836	0.492912	0.011888
1549	7.7400e-01	-18.0252	-43.283375	0.000158	1.580434	0.535465	0.012914
1550	7.7450e-01	-17.9979	-43.221369	0.000152	1.517635	0.514189	0.012401
1551	7.7500e-01	-17.9610	-43.159791	0.000151	1.507169	0.510643	0.012316
1552	7.7550e-01	-17.8984	-43.100351	0.000145	1.454836	0.492912	0.011888
1553	7.7600e-01	-17.9097	-43.031504	-0.000169	-1.685098	-0.570927	0.013770
1554	7.7650e-01	-17.8310	-42.969926	0.000151	1.507169	0.510643	0.012316
1555	7.7700e-01	-17.7813	-42.909631	0.000148	1.475769	0.500004	0.012059
1556	7.7750e-01	-17.7829	-42.842921	-0.000163	-1.632766	-0.553196	0.013342
1557	7.7800e-01	-17.7204	-42.777494	0.000160	1.601367	0.542558	0.013085
1558	7.7850e-01	-17.6802	-42.710357	0.000164	1.643232	0.556742	0.013427
1559	7.7900e-01	-17.6289	-42.645358	0.000159	1.590900	0.539012	0.013000
1560	7.7950e-01	-17.5824	-42.579076	0.000162	1.622299	0.549650	0.013256
1561	7.8000e-01	-17.5599	-42.511511	0.000165	1.653699	0.560288	0.013513
1562	7.8050e-01	-17.5198	-42.454210	0.000140	1.402504	0.475181	0.011460
1563	7.8100e-01	-17.4717	-42.388355	0.000161	1.611833	0.546104	0.013171
1564	7.8150e-01	-17.4508	-42.323784	0.000158	1.580434	0.535465	0.012914
1565	7.8200e-01	-17.4091	-42.257502	0.000162	1.622299	0.549650	0.013256
1566	7.8250e-01	-17.3434	-42.190365	0.000164	1.643232	0.556742	0.013427
1567	7.8300e-01	-17.3450	-42.127504	-0.000154	-1.538568	-0.521281	0.012572
1568	7.8350e-01	-17.2984	-42.058229	0.000170	1.695565	0.574473	0.013855
1569	7.8400e-01	-17.2246	-41.994512	0.000156	1.559501	0.528373	0.012743
1570	7.8450e-01	-17.1797	-41.929513	0.000159	1.590900	0.539012	0.013000
1571	7.8500e-01	-17.1525	-41.860666	0.000169	1.685098	0.570927	0.013770
1572	7.8550e-01	-17.1204	-41.798232	0.000153	1.528101	0.517735	0.012487
1573	7.8600e-01	-17.0482	-41.731095	0.000164	1.643232	0.556742	0.013427
1574	7.8650e-01	-17.0434	-41.663103	0.000166	1.664165	0.563834	0.013598
1575	7.8700e-01	-16.9808	-41.601525	0.000151	1.507169	0.510643	0.012316
1576	7.8750e-01	-16.9535	-41.527118	0.000182	1.821162	0.617026	0.014881
1577	7.8800e-01	-16.9231	-41.465112	0.000152	1.517635	0.514189	0.012401
1578	7.8850e-01	-16.8958	-41.392416	0.000178	1.779296	0.602842	0.014539
1579	7.8900e-01	-16.8589	-41.325707	0.000163	1.632766	0.553196	0.013342
1580	7.8950e-01	-16.7899	-41.260280	0.000160	1.601367	0.542558	0.013085
1581	7.9000e-01	-16.7787	-41.195708	0.000158	1.580434	0.535465	0.012914
1582	7.9050e-01	-16.7049	-41.131137	0.000158	1.580434	0.535465	0.012914
1583	7.9100e-01	-16.6872	-41.061006	0.000172	1.716497	0.581565	0.014026
1584	7.9150e-01	-16.6359	-40.989165	0.000176	1.758363	0.595750	0.014368
1585	7.9200e-01	-16.5990	-40.924166	0.000159	1.590900	0.539012	0.013000
1586	7.9250e-01	-16.5621	-40.854463	0.000171	1.706031	0.578019	0.013941
1587	7.9300e-01	-16.5252	-40.789892	0.000158	1.580434	0.535465	0.012914
1588	7.9350e-01	-16.4658	-40.721044	0.000169	1.685098	0.570927	0.013770
1589	7.9400e-01	-16.4354	-40.652197	0.000169	1.685098	0.570927	0.013770
1590	7.9450e-01	-16.3888	-40.582066	0.000172	1.716497	0.581565	0.014026
1591	7.9500e-01	-16.3824	-40.514501	0.000165	1.653699	0.560288	0.013513
1592	7.9550e-01	-16.3247	-40.451213	0.000155	1.549034	0.524827	0.012658
1593	7.9600e-01	-16.2701	-40.383648	0.000165	1.653699	0.560288	0.013513
1594	7.9650e-01	-16.2396	-40.309669	0.000181	1.810696	0.613480	0.014796
1595	7.9700e-01	-16.1819	-40.246808	0.000154	1.538568	0.521281	0.012572
1596	7.9750e-01	-16.1386	-40.178388	0.000167	1.674632	0.567381	0.013684
1597	7.9800e-01	-16.1241	-40.109113	0.000170	1.695565	0.574473	0.013855
1598	7.9850e-01	-16.0937	-40.041548	0.000165	1.653699	0.560288	0.013513
1599	7.9900e-01	-16.0359	-39.967569	0.000181	1.810696	0.613480	0.014796
1600	7.9950e-01	-16.0006	-39.899576	0.000166	1.664165	0.563834	0.013598
1601	8.0000e-01	-15.9541	-39.833722	0.000161	1.611833	0.546104	0.013171
1602	8.0050e-01	-15.8996	-39.763591	0.000172	1.716497	0.581565	0.014026
1603	8.0100e-01	-15.8979	-39.696454	0.000164	1.643232	0.556742	0.013427
1604	8.0150e-01	-15.8402	-39.621192	0.000184	1.842095	0.624119	0.015052
1605	8.0200e-01	-15.7905	-39.554483	0.000163	1.632766	0.553196	0.013342
1606	8.0250e-01	-15.7455	-39.484352	0.000172	1.716497	0.581565	0.014026
1607	8.0300e-01	-15.6846	-39.416360	0.000166	1.664165	0.563834	0.013598
1608	8.0350e-01	-15.6718	-39.346229	0.000172	1.716497	0.581565	0.014026
1609	8.0400e-01	-15.6413	-39.274388	0.000176	1.758363	0.595750	0.014368
1610	8.0450e-01	-15.5819	-39.204685	0.000171	1.706031	0.578019	0.013941
1611	8.0500e-01	-15.5306	-39.138831	0.000161	1.611833	0.546104	0.013171
1612	8.0550e-01	-15.5370	-39.068273	-0.000173	-1.726964	-0.585111	0.014112
1613	8.0600e-01	-15.4953	-39.003274	0.000159	1.590900	0.539012	0.013000
1614	8.0650e-01	-15.4472	-38.926729	0.000187	1.873494	0.634757	0.015309
1615	8.0700e-01	-15.3894	-38.860874	0.000161	1.611833	0.546104	0.013171
1616	8.0750e-01	-15.3381	-38.789033	0.000176	1.758363	0.595750	0.014368
1617	8.0800e-01	-15.3284	-38.716765	0.000177	1.768830	0.599296	0.014454
1618	8.0850e-01	-15.2739	-38.648345	0.000167	1.674632	0.567381	0.013684
1619	8.0900e-01	-15.2306	-38.581635	0.000163	1.632766	0.553196	0.013342
1620	8.0950e-01	-15.1744	-38.510222	0.000175	1.747897	0.592203	0.014283
1621	8.1000e-01	-15.1584	-38.440091	0.000172	1.716497	0.581565	0.014026
1622	8.1050e-01	-15.1135	-38.369105	0.000174	1.737430	0.588657	0.014197
1623	8.1100e-01	-15.0766	-38.299830	0.000170	1.695565	0.574473	0.013855
1624	8.1150e-01	-15.0477	-38.229272	0.000173	1.726964	0.585111	0.014112
1625	8.1200e-01	-15.0108	-38.156576	0.000178	1.779296	0.602842	0.014539
1626	8.1250e-01	-14.9691	-38.086017	0.000173	1.726964	0.585111	0.014112
1627	8.1300e-01	-14.9065	-38.017170	0.000169	1.685098	0.570927	0.013770
1628	8.1350e-01	-14.8793	-37.946184	0.000174	1.737430	0.588657	0.014197
1629	8.1400e-01	-14.8504	-37.876481	0.000171	1.706031	0.578019	0.013941
1630	8.1450e-01	-14.7622	-37.805068	0.000175	1.747897	0.592203	0.014283
1631	8.1500e-01	-14.7541	-37.731088	0.000181	1.810696	0.613480	0.014796
1632	8.1550e-01	-14.6916	-37.657109	0.000181	1.810696	0.613480	0.014796
1633	8.1600e-01	-14.6418	-37.582275	0.000183	1.831628	0.620573	0.014967
1634	8.1650e-01	-14.6258	-37.510861	0.000175	1.747897	0.592203	0.014283
1635	8.1700e-01	-14.5648	-37.441159	0.000171	1.706031	0.578019	0.013941
1636	8.1750e-01	-14.5520	-37.366324	0.000183	1.831628	0.620573	0.014967
1637	8.1800e-01	-14.5087	-37.301753	0.000158	1.580434	0.535465	0.012914
1638	8.1850e-01	-14.4830	-37.226491	0.000184	1.842095	0.624119	0.015052
1639	8.1900e-01	-14.4397	-37.153367	0.000179	1.789763	0.606388	0.014625
1640	8.1950e-01	-14.3483	-37.084519	0.000169	1.685098	0.570927	0.013770
1641	8.2000e-01	-14.3290	-37.011395	0.000179	1.789763	0.606388	0.014625
1642	8.2050e-01	-14.2937	-36.937844	0.000180	1.800229	0.609934	0.014710
1643	8.2100e-01	-14.2937	-36.865147	-0.000178	-1.779296	-0.602842	0.014539
1644	8.2150e-01	-14.2488	-36.789458	0.000185	1.852561	0.627665	0.015138
1645	8.2200e-01	-14.2023	-36.721893	0.000165	1.653699	0.560288	0.013513
1646	8.2250e-01	-14.1445	-36.647914	0.000181	1.810696	0.613480	0.014796
1647	8.2300e-01	-14.0996	-36.573507	0.000182	1.821162	0.617026	0.014881
1648	8.2350e-01	-14.0932	-36.499528	0.000181	1.810696	0.613480	0.014796
1649	8.2400e-01	-14.0306	-36.433246	0.000162	1.622299	0.549650	0.013256
1650	8.2450e-01	-13.9632	-36.355846	0.000189	1.894427	0.641849	0.015480
1651	8.2500e-01	-13.9279	-36.284005	0.000176	1.758363	0.595750	0.014368
1652	8.2550e-01	-13.9263	-36.213019	0.000174	1.737430	0.588657	0.014197
1653	8.2600e-01	-13.8718	-36.137757	0.000184	1.842095	0.624119	0.015052
1654	8.2650e-01	-13.8718	-36.064633	-0.000179	-1.789763	-0.606388	0.014625
1655	8.2700e-01	-13.7884	-35.993647	0.000174	1.737430	0.588657	0.014197
1656	8.2750e-01	-13.7611	-35.920095	0.000180	1.800229	0.609934	0.014710
1657	8.2800e-01	-13.7050	-35.849965	0.000172	1.716497	0.581565	0.014026
1658	8.2850e-01	-13.6921	-35.771282	0.000193	1.925826	0.652488	0.015737
1659	8.2900e-01	-13.6488	-35.692599	0.000193	1.925826	0.652488	0.015737
1660	8.2950e-01	-13.5943	-35.628883	0.000156	1.559501	0.528373	0.012743
1661	8.3000e-01	-13.5750	-35.551910	0.000188	1.883961	0.638303	0.015395
1662	8.3050e-01	-13.5189	-35.485201	0.000163	1.632766	0.553196	0.013342
1663	8.3100e-01	-13.4723	-35.406945	0.000192	1.915360	0.648942	0.015651
1664	8.3150e-01	-13.4451	-35.329973	0.000188	1.883961	0.638303	0.015395
1665	8.3200e-01	-13.3633	-35.258132	0.000176	1.758363	0.595750	0.014368
1666	8.3250e-01	-13.3376	-35.183297	0.000183	1.831628	0.620573	0.014967
1667	8.3300e-01	-13.3232	-35.106325	0.000188	1.883961	0.638303	0.015395
1668	8.3350e-01	-13.2478	-35.034911	0.000175	1.747897	0.592203	0.014283
1669	8.3400e-01	-13.2445	-34.960504	0.000182	1.821162	0.617026	0.014881
1670	8.3450e-01	-13.1932	-34.889519	0.000174	1.737430	0.588657	0.014197
1671	8.3500e-01	-13.1531	-34.812546	0.000188	1.883961	0.638303	0.015395
1672	8.3550e-01	-13.0873	-34.735146	0.000189	1.894427	0.641849	0.015480
1673	8.3600e-01	-13.0536	-34.664160	0.000174	1.737430	0.588657	0.014197
1674	8.3650e-01	-13.0488	-34.587615	0.000187	1.873494	0.634757	0.015309
1675	8.3700e-01	-12.9526	-34.512781	0.000183	1.831628	0.620573	0.014967
1676	8.3750e-01	-12.9381	-34.432815	0.000196	1.957226	0.663126	0.015993
1677	8.3800e-01	-12.9333	-34.359263	0.000180	1.800229	0.609934	0.014710
1678	8.3850e-01	-12.9269	-34.283574	0.000185	1.852561	0.627665	0.015138
1679	8.3900e-01	-12.8916	-34.204463	0.000194	1.936293	0.656034	0.015822
1680	8.3950e-01	-12.7601	-34.136043	0.000167	1.674632	0.567381	0.013684
1681	8.4000e-01	-12.7649	-34.053939	-0.000201	-2.009558	-0.680857	0.016421
1682	8.4050e-01	-12.6863	-33.987657	0.000162	1.622299	0.549650	0.013256
1683	8.4100e-01	-12.6574	-33.914533	0.000179	1.789763	0.606388	0.014625
1684	8.4150e-01	-12.6301	-33.832001	0.000202	2.020024	0.684403	0.016506
1685	8.4200e-01	-12.5900	-33.755456	0.000187	1.873494	0.634757	0.015309
1686	8.4250e-01	-12.5483	-33.681905	0.000180	1.800229	0.609934	0.014710
1687	8.4300e-01	-12.5291	-33.609636	0.000177	1.768830	0.599296	0.014454
1688	8.4350e-01	-12.4633	-33.536512	0.000179	1.789763	0.606388	0.014625
1689	8.4400e-01	-12.4216	-33.457401	0.000194	1.936293	0.656034	0.015822
1690	8.4450e-01	-12.3654	-33.381284	0.000186	1.863028	0.631211	0.015223
1691	8.4500e-01	-12.3558	-33.305167	0.000186	1.863028	0.631211	0.015223
1692	8.4550e-01	-12.3109	-33.231615	0.000180	1.800229	0.609934	0.014710
1693	8.4600e-01	-12.2724	-33.155070	0.000187	1.873494	0.634757	0.015309
1694	8.4650e-01	-12.2291	-33.071256	0.000205	2.051424	0.695041	0.016763
1695	8.4700e-01	-12.1841	-32.996849	0.000182	1.821162	0.617026	0.014881
1696	8.4750e-01	-12.1553	-32.916028	0.000198	1.978159	0.670218	0.016164
1697	8.4800e-01	-12.1232	-32.842049	0.000181	1.810696	0.613480	0.014796
1698	8.4850e-01	-12.0686	-32.763793	0.000192	1.915360	0.648942	0.015651
1699	8.4900e-01	-12.0414	-32.686393	0.000189	1.894427	0.641849	0.015480
1700	8.4950e-01	-11.9820	-32.612414	0.000181	1.810696	0.613480	0.014796
1701	8.5000e-01	-11.9339	-32.536724	0.000185	1.852561	0.627665	0.015138
1702	8.5050e-01	-11.9339	-32.458469	-0.000192	-1.915360	-0.648942	0.015651
1703	8.5100e-01	-11.8858	-32.385345	0.000179	1.789763	0.606388	0.014625
1704	8.5150e-01	-11.8248	-32.301103	0.000206	2.061890	0.698587	0.016848
1705	8.5200e-01	-11.7895	-32.224558	0.000187	1.873494	0.634757	0.015309
1706	8.5250e-01	-11.7719	-32.151434	0.000179	1.789763	0.606388	0.014625
1707	8.5300e-01	-11.7061	-32.074034	0.000189	1.894427	0.641849	0.015480
1708	8.5350e-01	-11.6900	-31.990219	0.000205	2.051424	0.695041	0.016763
1709	8.5400e-01	-11.6179	-31.919661	0.000173	1.726964	0.585111	0.014112
1710	8.5450e-01	-11.5457	-31.842261	0.000189	1.894427	0.641849	0.015480
1711	8.5500e-01	-11.5248	-31.764433	0.000190	1.904894	0.645395	0.015566
1712	8.5550e-01	-11.5200	-31.685750	0.000193	1.925826	0.652488	0.015737
1713	8.5600e-01	-11.4526	-31.611343	0.000182	1.821162	0.617026	0.014881
1714	8.5650e-01	-11.4446	-31.533088	0.000192	1.915360	0.648942	0.015651
1715	8.5700e-01	-11.3981	-31.453122	0.000196	1.957226	0.663126	0.015993
1716	8.5750e-01	-11.3772	-31.373156	0.000196	1.957226	0.663126	0.015993
1717	8.5800e-01	-11.3179	-31.292762	0.000197	1.967692	0.666672	0.016079
1718	8.5850e-01	-11.2601	-31.215790	0.000188	1.883961	0.638303	0.015395
1719	8.5900e-01	-11.2585	-31.137107	0.000193	1.925826	0.652488	0.015737
1720	8.5950e-01	-11.1671	-31.057568	0.000195	1.946759	0.659580	0.015908
1721	8.6000e-01	-11.1318	-30.974182	0.000204	2.040957	0.691495	0.016677
1722	8.6050e-01	-11.1077	-30.892505	0.000200	1.999092	0.677311	0.016335
1723	8.6100e-01	-11.0901	-30.825368	0.000164	1.643232	0.556742	0.013427
1724	8.6150e-01	-11.0820	-30.738132	0.000214	2.135155	0.723410	0.017447
1725	8.6200e-01	-10.9938	-30.669712	0.000167	1.674632	0.567381	0.013684
1726	8.6250e-01	-10.9874	-30.583332	0.000211	2.114222	0.716318	0.017276
1727	8.6300e-01	-10.8959	-30.511063	0.000177	1.768830	0.599296	0.014454
1728	8.6350e-01	-10.8735	-30.429387	0.000200	1.999092	0.677311	0.016335
1729	8.6400e-01	-10.8350	-30.349849	0.000195	1.946759	0.659580	0.015908
1730	8.6450e-01	-10.7788	-30.272021	0.000190	1.904894	0.645395	0.015566
1731	8.6500e-01	-10.7708	-30.188634	0.000204	2.040957	0.691495	0.016677
1732	8.6550e-01	-10.7147	-30.109951	0.000193	1.925826	0.652488	0.015737
1733	8.6600e-01	-10.6601	-30.029557	0.000197	1.967692	0.666672	0.016079
1734	8.6650e-01	-10.6377	-29.945315	0.000206	2.061890	0.698587	0.016848
1735	8.6700e-01	-10.5799	-29.867487	0.000190	1.904894	0.645395	0.015566
1736	8.6750e-01	-10.5446	-29.790515	0.000188	1.883961	0.638303	0.015395
1737	8.6800e-01	-10.5125	-29.709266	0.000199	1.988625	0.673764	0.016250
1738	8.6850e-01	-10.4403	-29.632721	0.000187	1.873494	0.634757	0.015309
1739	8.6900e-01	-10.4339	-29.550617	0.000201	2.009558	0.680857	0.016421
1740	8.6950e-01	-10.3649	-29.473644	0.000188	1.883961	0.638303	0.015395
1741	8.7000e-01	-10.3649	-29.386409	-0.000214	-2.135155	-0.723410	0.017447
1742	8.7050e-01	-10.3264	-29.310292	0.000186	1.863028	0.631211	0.015223
1743	8.7100e-01	-10.2703	-29.231609	0.000193	1.925826	0.652488	0.015737
1744	8.7150e-01	-10.2286	-29.149504	0.000201	2.009558	0.680857	0.016421
1745	8.7200e-01	-10.2142	-29.069539	0.000196	1.957226	0.663126	0.015993
1746	8.7250e-01	-10.1692	-28.984013	0.000209	2.093290	0.709226	0.017105
1747	8.7300e-01	-10.1211	-28.906186	0.000190	1.904894	0.645395	0.015566
1748	8.7350e-01	-10.0617	-28.824937	0.000199	1.988625	0.673764	0.016250
1749	8.7400e-01	-10.0377	-28.745399	0.000195	1.946759	0.659580	0.015908
1750	8.7450e-01	-9.9896	-28.666716	0.000193	1.925826	0.652488	0.015737
1751	8.7500e-01	-9.9671	-28.580763	0.000210	2.103756	0.712772	0.017191
1752	8.7550e-01	-9.9013	-28.504218	0.000187	1.873494	0.634757	0.015309
1753	8.7600e-01	-9.8676	-28.419548	0.000207	2.072357	0.702133	0.016934
1754	8.7650e-01	-9.8516	-28.335306	0.000206	2.061890	0.698587	0.016848
1755	8.7700e-01	-9.7682	-28.260472	0.000183	1.831628	0.620573	0.014967
1756	8.7750e-01	-9.7714	-28.174946	-0.000209	-2.093290	-0.709226	0.017105
1757	8.7800e-01	-9.6912	-28.096263	0.000193	1.925826	0.652488	0.015737
1758	8.7850e-01	-9.6671	-28.008600	0.000215	2.145622	0.726956	0.017533
1759	8.7900e-01	-9.6286	-27.928634	0.000196	1.957226	0.663126	0.015993
1760	8.7950e-01	-9.5837	-27.845675	0.000203	2.030491	0.687949	0.016592
1761	8.8000e-01	-9.5452	-27.762288	0.000204	2.040957	0.691495	0.016677
1762	8.8050e-01	-9.5388	-27.683177	0.000194	1.936293	0.656034	0.015822
1763	8.8100e-01	-9.4746	-27.602784	0.000197	1.967692	0.666672	0.016079
1764	8.8150e-01	-9.4457	-27.515548	0.000214	2.135155	0.723410	0.017447
1765	8.8200e-01	-9.3623	-27.434727	0.000198	1.978159	0.670218	0.016164
1766	8.8250e-01	-9.3431	-27.356044	0.000193	1.925826	0.652488	0.015737
1767	8.8300e-01	-9.3158	-27.269664	0.000211	2.114222	0.716318	0.017276
1768	8.8350e-01	-9.2644	-27.186277	0.000204	2.040957	0.691495	0.016677
1769	8.8400e-01	-9.2163	-27.107166	0.000194	1.936293	0.656034	0.015822
1770	8.8450e-01	-9.1971	-27.023779	0.000204	2.040957	0.691495	0.016677
1771	8.8500e-01	-9.1570	-26.940820	0.000203	2.030491	0.687949	0.016592
1772	8.8550e-01	-9.1201	-26.854867	0.000210	2.103756	0.712772	0.017191
1773	8.8600e-01	-9.0767	-26.773618	0.000199	1.988625	0.673764	0.016250
1774	8.8650e-01	-9.0062	-26.687238	0.000211	2.114222	0.716318	0.017276
1775	8.8700e-01	-9.0110	-26.605989	-0.000199	-1.988625	-0.673764	0.016250
1776	8.8750e-01	-8.9243	-26.518326	0.000215	2.145622	0.726956	0.017533
1777	8.8800e-01	-8.9115	-26.437933	0.000197	1.967692	0.666672	0.016079
1778	8.8850e-01	-8.8522	-26.352835	0.000208	2.082823	0.705680	0.017019
1779	8.8900e-01	-8.8393	-26.265600	0.000214	2.135155	0.723410	0.017447
1780	8.8950e-01	-8.8024	-26.183923	0.000200	1.999092	0.677311	0.016335
1781	8.9000e-01	-8.7334	-26.098398	0.000209	2.093290	0.709226	0.017105
1782	8.9050e-01	-8.7318	-26.013728	0.000207	2.072357	0.702133	0.016934
1783	8.9100e-01	-8.6821	-25.931624	0.000201	2.009558	0.680857	0.016421
1784	8.9150e-01	-8.6532	-25.846527	0.000208	2.082823	0.705680	0.017019
1785	8.9200e-01	-8.6083	-25.763568	0.000203	2.030491	0.687949	0.016592
1786	8.9250e-01	-8.5329	-25.681463	0.000201	2.009558	0.680857	0.016421
1787	8.9300e-01	-8.4880	-25.597221	0.000206	2.061890	0.698587	0.016848
1788	8.9350e-01	-8.4832	-25.512124	0.000208	2.082823	0.705680	0.017019
1789	8.9400e-01	-8.4447	-25.424033	0.000216	2.156088	0.730502	0.017618
1790	8.9450e-01	-8.3837	-25.340646	0.000204	2.040957	0.691495	0.016677
1791	8.9500e-01	-8.3597	-25.249134	0.000224	2.239820	0.758872	0.018302
1792	8.9550e-01	-8.3196	-25.172162	0.000188	1.883961	0.638303	0.015395
1793	8.9600e-01	-8.2538	-25.090485	0.000200	1.999092	0.677311	0.016335
1794	8.9650e-01	-8.1880	-25.000256	0.000221	2.208421	0.748233	0.018046
1795	8.9700e-01	-8.2169	-24.912593	-0.000215	-2.145622	-0.726956	0.017533
1796	8.9750e-01	-8.1415	-24.826213	0.000211	2.114222	0.716318	0.017276
1797	8.9800e-01	-8.0853	-24.738550	0.000215	2.145622	0.726956	0.017533
1798	8.9850e-01	-8.0516	-24.654308	0.000206	2.061890	0.698587	0.016848
1799	8.9900e-01	-8.0356	-24.567500	0.000212	2.124689	0.719864	0.017362
1800	8.9950e-01	-8.0228	-24.478126	0.000219	2.187488	0.741141	0.017875
1801	9.0000e-01	-7.9586	-24.396877	0.000199	1.988625	0.673764	0.016250
1802	9.0050e-01	-7.9217	-24.307076	0.000220	2.197954	0.744687	0.017960
1803	9.0100e-01	-7.8704	-24.224117	0.000203	2.030491	0.687949	0.016592
1804	9.0150e-01	-7.8222	-24.135598	0.000217	2.166555	0.734049	0.017704
1805	9.0200e-01	-7.8174	-24.052639	0.000203	2.030491	0.687949	0.016592
1806	9.0250e-01	-7.7276	-23.966686	0.000210	2.103756	0.712772	0.017191
1807	9.0300e-01	-7.7148	-23.879878	0.000212	2.124689	0.719864	0.017362
1808	9.0350e-01	-7.6506	-23.794781	0.000208	2.082823	0.705680	0.017019
1809	9.0400e-01	-7.6153	-23.701131	0.000229	2.292152	0.776602	0.018730
1810	9.0450e-01	-7.5816	-23.614751	0.000211	2.114222	0.716318	0.017276
1811	9.0500e-01	-7.5784	-23.531364	0.000204	2.040957	0.691495	0.016677
1812	9.0550e-01	-7.5030	-23.443700	0.000215	2.145622	0.726956	0.017533
1813	9.0600e-01	-7.4741	-23.353899	0.000220	2.197954	0.744687	0.017960
1814	9.0650e-01	-7.4324	-23.266664	0.000214	2.135155	0.723410	0.017447
1815	9.0700e-01	-7.3971	-23.179428	0.000214	2.135155	0.723410	0.017447
1816	9.0750e-01	-7.3586	-23.095613	0.000205	2.051424	0.695041	0.016763
1817	9.0800e-01	-7.2961	-23.008806	0.000212	2.124689	0.719864	0.017362
1818	9.0850e-01	-7.2752	-22.923280	0.000209	2.093290	0.709226	0.017105
1819	9.0900e-01	-7.2126	-22.834334	0.000218	2.177021	0.737595	0.017789
1820	9.0950e-01	-7.2142	-22.740684	-0.000229	-2.292152	-0.776602	0.018730
1821	9.1000e-01	-7.1517	-22.650028	0.000222	2.218887	0.751779	0.018131
1822	9.1050e-01	-7.1212	-22.565358	0.000207	2.072357	0.702133	0.016934
1823	9.1100e-01	-7.0682	-22.478123	0.000214	2.135155	0.723410	0.017447
1824	9.1150e-01	-6.9912	-22.396019	0.000201	2.009558	0.680857	0.016421
1825	9.1200e-01	-6.9832	-22.301086	0.000232	2.323551	0.787241	0.018987
1826	9.1250e-01	-6.9816	-22.213850	0.000214	2.135155	0.723410	0.017447
1827	9.1300e-01	-6.8838	-22.124904	0.000218	2.177021	0.737595	0.017789
1828	9.1350e-01	-6.8854	-22.034248	-0.000222	-2.218887	-0.751779	0.018131
1829	9.1400e-01	-6.8308	-21.941453	0.000227	2.271219	0.769510	0.018559
1830	9.1450e-01	-6.7538	-21.858066	0.000204	2.040957	0.691495	0.016677
1831	9.1500e-01	-6.7618	-21.766982	-0.000223	-2.229353	-0.755325	0.018217
1832	9.1550e-01	-6.7089	-21.685305	0.000200	1.999092	0.677311	0.016335
1833	9.1600e-01	-6.6704	-21.593366	0.000225	2.250286	0.762418	0.018388
1834	9.1650e-01	-6.6175	-21.498861	0.000231	2.313085	0.783694	0.018901
1835	9.1700e-01	-6.5549	-21.411625	0.000214	2.135155	0.723410	0.017447
1836	9.1750e-01	-6.5324	-21.318403	0.000228	2.281686	0.773056	0.018644
1837	9.1800e-01	-6.4923	-21.230740	0.000215	2.145622	0.726956	0.017533
1838	9.1850e-01	-6.4763	-21.134952	0.000234	2.344484	0.794333	0.019158
1839	9.1900e-01	-6.4458	-21.046861	0.000216	2.156088	0.730502	0.017618
1840	9.1950e-01	-6.4538	-20.951500	-0.000233	-2.334018	-0.790787	0.019072
1841	9.2000e-01	-6.3592	-20.862554	0.000218	2.177021	0.737595	0.017789
1842	9.2050e-01	-6.2934	-20.775319	0.000214	2.135155	0.723410	0.017447
1843	9.2100e-01	-6.2501	-20.691504	0.000205	2.051424	0.695041	0.016763
1844	9.2150e-01	-6.2453	-20.597427	0.000230	2.302619	0.780148	0.018816
1845	9.2200e-01	-6.2068	-20.506770	0.000222	2.218887	0.751779	0.018131
1846	9.2250e-01	-6.1651	-20.419107	0.000215	2.145622	0.726956	0.017533
1847	9.2300e-01	-6.1298	-20.327167	0.000225	2.250286	0.762418	0.018388
1848	9.2350e-01	-6.0720	-20.240360	0.000212	2.124689	0.719864	0.017362
1849	9.2400e-01	-6.0335	-20.149703	0.000222	2.218887	0.751779	0.018131
1850	9.2450e-01	-5.9902	-20.056908	0.000227	2.271219	0.769510	0.018559
1851	9.2500e-01	-5.9645	-19.964969	0.000225	2.250286	0.762418	0.018388
1852	9.2550e-01	-5.9164	-19.874312	0.000222	2.218887	0.751779	0.018131
1853	9.2600e-01	-5.8875	-19.780662	0.000229	2.292152	0.776602	0.018730
1854	9.2650e-01	-5.8426	-19.692999	0.000215	2.145622	0.726956	0.017533
1855	9.2700e-01	-5.7784	-19.599777	0.000228	2.281686	0.773056	0.018644
1856	9.2750e-01	-5.7448	-19.503989	0.000234	2.344484	0.794333	0.019158
1857	9.2800e-01	-5.7047	-19.411622	0.000226	2.260753	0.765964	0.018473
1858	9.2850e-01	-5.6694	-19.320110	0.000224	2.239820	0.758872	0.018302
1859	9.2900e-01	-5.6357	-19.229881	0.000221	2.208421	0.748233	0.018046
1860	9.2950e-01	-5.5908	-19.133238	0.000237	2.365417	0.801425	0.019329
1861	9.3000e-01	-5.5442	-19.045147	0.000216	2.156088	0.730502	0.017618
1862	9.3050e-01	-5.5298	-18.949359	0.000234	2.344484	0.794333	0.019158
1863	9.3100e-01	-5.4801	-18.863406	0.000210	2.103756	0.712772	0.017191
1864	9.3150e-01	-5.4367	-18.767618	0.000234	2.344484	0.794333	0.019158
1865	9.3200e-01	-5.3838	-18.677389	0.000221	2.208421	0.748233	0.018046
1866	9.3250e-01	-5.3485	-18.582029	0.000233	2.334018	0.790787	0.019072
1867	9.3300e-01	-5.3052	-18.487096	0.000232	2.323551	0.787241	0.018987
1868	9.3350e-01	-5.2651	-18.395584	0.000224	2.239820	0.758872	0.018302
1869	9.3400e-01	-5.2426	-18.295947	0.000244	2.438682	0.826248	0.019927
1870	9.3450e-01	-5.2122	-18.202725	0.000228	2.281686	0.773056	0.018644
1871	9.3500e-01	-5.1416	-18.108648	0.000230	2.302619	0.780148	0.018816
1872	9.3550e-01	-5.1079	-18.013715	0.000232	2.323551	0.787241	0.018987
1873	9.3600e-01	-5.0501	-17.916644	0.000238	2.375884	0.804971	0.019414
1874	9.3650e-01	-4.9908	-17.825987	0.000222	2.218887	0.751779	0.018131
1875	9.3700e-01	-4.9827	-17.728489	0.000239	2.386350	0.808517	0.019500
1876	9.3750e-01	-4.9555	-17.634839	0.000229	2.292152	0.776602	0.018730
1877	9.3800e-01	-4.9057	-17.539906	0.000232	2.323551	0.787241	0.018987
1878	9.3850e-01	-4.8721	-17.447111	0.000227	2.271219	0.769510	0.018559
1879	9.3900e-01	-4.8207	-17.350896	0.000235	2.354951	0.797879	0.019243
1880	9.3950e-01	-4.7918	-17.256390	0.000231	2.313085	0.783694	0.018901
1881	9.4000e-01	-4.7453	-17.158037	0.000241	2.407283	0.815610	0.019671
1882	9.4050e-01	-4.7148	-17.064387	0.000229	2.292152	0.776602	0.018730
1883	9.4100e-01	-4.6956	-16.964322	0.000245	2.449149	0.829794	0.020013
1884	9.4150e-01	-4.6282	-16.872810	0.000224	2.239820	0.758872	0.018302
1885	9.4200e-01	-4.6058	-16.772746	0.000245	2.449149	0.829794	0.020013
1886	9.4250e-01	-4.5239	-16.677813	0.000232	2.323551	0.787241	0.018987
1887	9.4300e-01	-4.5304	-16.578177	-0.000244	-2.438682	-0.826248	0.019927
1888	9.4350e-01	-4.4983	-16.482816	0.000233	2.334018	0.790787	0.019072
1889	9.4400e-01	-4.4517	-16.385318	0.000239	2.386350	0.808517	0.019500
1890	9.4450e-01	-4.4004	-16.292523	0.000227	2.271219	0.769510	0.018559
1891	9.4500e-01	-4.3427	-16.194597	0.000240	2.396817	0.812063	0.019585
1892	9.4550e-01	-4.3314	-16.096671	0.000240	2.396817	0.812063	0.019585
1893	9.4600e-01	-4.2753	-16.006442	0.000221	2.208421	0.748233	0.018046
1894	9.4650e-01	-4.1999	-15.908943	0.000239	2.386350	0.808517	0.019500
1895	9.4700e-01	-4.1822	-15.811872	0.000238	2.375884	0.804971	0.019414
1896	9.4750e-01	-4.1389	-15.719933	0.000225	2.250286	0.762418	0.018388
1897	9.4800e-01	-4.1165	-15.615165	0.000256	2.564280	0.868802	0.020954
1898	9.4850e-01	-4.0780	-15.518521	0.000237	2.365417	0.801425	0.019329
1899	9.4900e-01	-4.0507	-15.418029	0.000246	2.459615	0.833340	0.020098
1900	9.4950e-01	-4.0026	-15.320531	0.000239	2.386350	0.808517	0.019500
1901	9.5000e-01	-3.9721	-15.222605	0.000240	2.396817	0.812063	0.019585
1902	9.5050e-01	-3.9047	-15.125106	0.000239	2.386350	0.808517	0.019500
1903	9.5100e-01	-3.8582	-15.026325	0.000242	2.417749	0.819156	0.019756
1904	9.5150e-01	-3.8133	-14.925405	0.000247	2.470082	0.836886	0.020184
1905	9.5200e-01	-3.7780	-14.826624	0.000242	2.417749	0.819156	0.019756
1906	9.5250e-01	-3.7523	-14.729553	0.000238	2.375884	0.804971	0.019414
1907	9.5300e-01	-3.7122	-14.625640	0.000254	2.543347	0.861709	0.020783
1908	9.5350e-01	-3.6657	-14.531990	0.000229	2.292152	0.776602	0.018730
1909	9.5400e-01	-3.6272	-14.432781	0.000243	2.428216	0.822702	0.019842
1910	9.5450e-01	-3.5823	-14.331006	0.000249	2.491015	0.843979	0.020355
1911	9.5500e-01	-3.5582	-14.229659	0.000248	2.480548	0.840432	0.020269
1912	9.5550e-01	-3.5277	-14.130022	0.000244	2.438682	0.826248	0.019927
1913	9.5600e-01	-3.4892	-14.028675	0.000248	2.480548	0.840432	0.020269
1914	9.5650e-01	-3.4363	-13.927328	0.000248	2.480548	0.840432	0.020269
1915	9.5700e-01	-3.3994	-13.822559	0.000256	2.564280	0.868802	0.020954
1916	9.5750e-01	-3.3593	-13.726771	0.000234	2.344484	0.794333	0.019158
1917	9.5800e-01	-3.3384	-13.622003	0.000256	2.564280	0.868802	0.020954
1918	9.5850e-01	-3.2550	-13.526215	0.000234	2.344484	0.794333	0.019158
1919	9.5900e-01	-3.2389	-13.424440	0.000249	2.491015	0.843979	0.020355
1920	9.5950e-01	-3.1796	-13.325231	0.000243	2.428216	0.822702	0.019842
1921	9.6000e-01	-3.1700	-13.218752	0.000261	2.606146	0.882986	0.021296
1922	9.6050e-01	-3.1106	-13.118688	0.000245	2.449149	0.829794	0.020013
1923	9.6100e-01	-3.0400	-13.020334	0.000241	2.407283	0.815610	0.019671
1924	9.6150e-01	-3.0432	-12.913428	-0.000262	-2.616612	-0.886532	0.021381
1925	9.6200e-01	-2.9967	-12.819350	0.000230	2.302619	0.780148	0.018816
1926	9.6250e-01	-2.9422	-12.717576	0.000249	2.491015	0.843979	0.020355
1927	9.6300e-01	-2.9117	-12.614518	0.000252	2.522414	0.854617	0.020612
1928	9.6350e-01	-2.8700	-12.513171	0.000248	2.480548	0.840432	0.020269
1929	9.6400e-01	-2.8347	-12.406264	0.000262	2.616612	0.886532	0.021381
1930	9.6450e-01	-2.7994	-12.301924	0.000255	2.553813	0.865255	0.020868
1931	9.6500e-01	-2.7657	-12.200149	0.000249	2.491015	0.843979	0.020355
1932	9.6550e-01	-2.7112	-12.095809	0.000255	2.553813	0.865255	0.020868
1933	9.6600e-01	-2.6694	-11.995317	0.000246	2.459615	0.833340	0.020098
1934	9.6650e-01	-2.6342	-11.889266	0.000260	2.595679	0.879440	0.021210
1935	9.6700e-01	-2.5700	-11.787491	0.000249	2.491015	0.843979	0.020355
1936	9.6750e-01	-2.5347	-11.678874	0.000266	2.658478	0.900717	0.021723
1937	9.6800e-01	-2.5154	-11.575816	0.000252	2.522414	0.854617	0.020612
1938	9.6850e-01	-2.4641	-11.474897	0.000247	2.470082	0.836886	0.020184
1939	9.6900e-01	-2.4192	-11.365425	0.000268	2.679411	0.907809	0.021894
1940	9.6950e-01	-2.3919	-11.258518	0.000262	2.616612	0.886532	0.021381
1941	9.7000e-01	-2.3614	-11.155461	0.000252	2.522414	0.854617	0.020612
1942	9.7050e-01	-2.2989	-11.051975	0.000253	2.532880	0.858163	0.020697
1943	9.7100e-01	-2.2668	-10.943358	0.000266	2.658478	0.900717	0.021723
1944	9.7150e-01	-2.2539	-10.837307	0.000260	2.595679	0.879440	0.021210
1945	9.7200e-01	-2.1545	-10.732539	0.000256	2.564280	0.868802	0.020954
1946	9.7250e-01	-2.1545	-10.621784	-0.000271	-2.710810	-0.918447	0.022151
1947	9.7300e-01	-2.0983	-10.520009	0.000249	2.491015	0.843979	0.020355
1948	9.7350e-01	-2.0566	-10.413531	0.000261	2.606146	0.882986	0.021296
1949	9.7400e-01	-2.0294	-10.305769	0.000264	2.637545	0.893624	0.021552
1950	9.7450e-01	-1.9764	-10.203567	0.000250	2.501481	0.847525	0.020440
1951	9.7500e-01	-1.9572	-10.094522	0.000267	2.668944	0.904263	0.021809
1952	9.7550e-01	-1.9267	-9.990182	0.000255	2.553813	0.865255	0.020868
1953	9.7600e-01	-1.8529	-9.878144	0.000274	2.742209	0.929086	0.022408
1954	9.7650e-01	-1.8240	-9.778080	0.000245	2.449149	0.829794	0.020013
1955	9.7700e-01	-1.8176	-9.661765	0.000285	2.846874	0.964547	0.023263
1956	9.7750e-01	-1.7358	-9.557425	0.000255	2.553813	0.865255	0.020868
1957	9.7800e-01	-1.7165	-9.452657	0.000256	2.564280	0.868802	0.020954
1958	9.7850e-01	-1.6764	-9.342757	0.000269	2.689877	0.911355	0.021980
1959	9.7900e-01	-1.6395	-9.227298	0.000283	2.825941	0.957455	0.023092
1960	9.7950e-01	-1.6074	-9.120392	0.000262	2.616612	0.886532	0.021381
1961	9.8000e-01	-1.5577	-9.015624	0.000256	2.564280	0.868802	0.020954
1962	9.8050e-01	-1.5112	-8.908717	0.000262	2.616612	0.886532	0.021381
1963	9.8100e-01	-1.4919	-8.799245	0.000268	2.679411	0.907809	0.021894
1964	9.8150e-01	-1.4085	-8.688490	0.000271	2.710810	0.918447	0.022151
1965	9.8200e-01	-1.3941	-8.583295	0.000257	2.574746	0.872348	0.021039
1966	9.8250e-01	-1.3764	-8.466125	0.000287	2.867807	0.971639	0.023434
1967	9.8300e-01	-1.3315	-8.354943	0.000272	2.721276	0.921993	0.022237
1968	9.8350e-01	-1.2625	-8.255734	0.000243	2.428216	0.822702	0.019842
1969	9.8400e-01	-1.2417	-8.137281	0.000290	2.899206	0.982278	0.023690
1970	9.8450e-01	-1.1855	-8.033796	0.000253	2.532880	0.858163	0.020697
1971	9.8500e-01	-1.1599	-7.919620	0.000279	2.794542	0.946816	0.022835
1972	9.8550e-01	-1.1085	-7.812286	0.000263	2.627078	0.890078	0.021467
1973	9.8600e-01	-1.0668	-7.695544	0.000286	2.857340	0.968093	0.023348
1974	9.8650e-01	-1.0203	-7.586500	0.000267	2.668944	0.904263	0.021809
1975	9.8700e-01	-0.9770	-7.472324	0.000279	2.794542	0.946816	0.022835
1976	9.8750e-01	-0.9561	-7.359431	0.000276	2.763142	0.936178	0.022579
1977	9.8800e-01	-0.8920	-7.252952	0.000261	2.606146	0.882986	0.021296
1978	9.8850e-01	-0.8727	-7.132790	0.000294	2.941072	0.996462	0.024033
1979	9.8900e-01	-0.8166	-7.025028	0.000264	2.637545	0.893624	0.021552
1980	9.8950e-01	-0.7556	-6.912135	0.000276	2.763142	0.936178	0.022579
1981	9.9000e-01	-0.7588	-6.798387	-0.000278	-2.784075	-0.943270	0.022750
1982	9.9050e-01	-0.7027	-6.685066	0.000277	2.773609	0.939724	0.022664
1983	9.9100e-01	-0.6642	-6.568752	0.000285	2.846874	0.964547	0.023263
1984	9.9150e-01	-0.6385	-6.452010	0.000286	2.857340	0.968093	0.023348
1985	9.9200e-01	-0.6208	-6.341255	0.000271	2.710810	0.918447	0.022151
1986	9.9250e-01	-0.5278	-6.227507	0.000278	2.784075	0.943270	0.022750
1987	9.9300e-01	-0.4861	-6.117607	0.000269	2.689877	0.911355	0.021980
1988	9.9350e-01	-0.4620	-6.001721	0.000284	2.836407	0.961001	0.023177
1989	9.9400e-01	-0.4251	-5.891393	0.000270	2.700344	0.914901	0.022065
1990	9.9450e-01	-0.4043	-5.776362	0.000282	2.815475	0.953909	0.023006
1991	9.9500e-01	-0.3577	-5.659193	0.000287	2.867807	0.971639	0.023434
1992	9.9550e-01	-0.3000	-5.551859	0.000263	2.627078	0.890078	0.021467
1993	9.9600e-01	-0.2599	-5.429986	0.000298	2.982938	1.010647	0.024375
1994	9.9650e-01	-0.2422	-5.314527	0.000283	2.825941	0.957455	0.023092
1995	9.9700e-01	-0.1845	-5.203772	0.000271	2.710810	0.918447	0.022151
1996	9.9750e-01	-0.1412	-5.086175	0.000288	2.878273	0.975185	0.023519
1997	9.9800e-01	-0.0914	-4.964729	0.000297	2.972471	1.007101	0.024289
1998	9.9850e-01	-0.0818	-4.852692	0.000274	2.742209	0.929086	0.022408
1999	9.9900e-01	-0.0353	-4.740226	0.000275	2.752676	0.932632	0.022493
2000	9.9950e-01	0.0128	-4.624767	0.000283	2.825941	0.957455	0.023092
2001	1.0000e+00	0.0674	-4.504605	0.000283	2.825941	0.957455	0.024033

Center data before PMax,+/-Pr and +/-Vc Calc.

PMax (uC/cm2):	4.54e+01
Pr (uC/cm2):	1.76e+00
-Pr (uC/cm2):	-4.50e+00
PLoss (uC/cm2):	-3.63e+00
Vc:	6.15e-01
-Vc:	-6.26e-01
C (Max-Eff) (nF):	2.26e-01
K (Eff):	7.67e+02
Vert. (+/-Pr) Shift (uC/cm2):	-1.37e+00
Horiz. Shift (+/-Vc):	-5.65e-03
Offset (uC/cm2):	8.70e-01

A (Loop Area - uC/cm2·Volts):	3.11e-01



Hysteresis Version: 5.48.1 - Radiant Technologies, Inc., 1999 - 9/12/24

