»»»»»»»»»»»»»»»»»»»»»»»»»»»»»»»»»»»» Hysteresis ««««««««««««««««««««««««««««««««««««
»»»  Executed Version:	5.48.1
»»»  Vision Version:	5.48.4 (R)
»»»  Vision Compiled:	9/18/24
»»»  Driver Version:	5.47.0
»»»  Windows Version:	Windows 8 or 8.1
»»»  Processor Information:	x86 (AMD or Intel) - 32 Processors
»»»  Tester Name:	PMF21124-494 (100V)
»»»  Tester S/N:	PMF21124-494
»»»  Internal Amp Type:	100V RevK 270k
»»»  Internal Amp S/N:	iAB2-596/K     
»»»  Execution Count:	1
»»»»»»»»»»»»»»»»»»»»»»»»»»»»»»»»»»»»»»»»»»««««««««««««««««««««««««««««««««««««««««««

Stored:	6/9/2025 - 12:58:59
Configured:	06/09/25 11:17:29 AM
Executed:	06/09/25 12:57:48 PM

»»»»»»»»»»»»»»»»»»»»»»»»»»»»»»»»»»» Sample Info ««««««««««««««««««««««««««««««««««««
Sample Name:	
Lot Name:	
Wafer Name:	
Die Row/Column:	0/0
Capacitor Number:	0
Sample Area (cm2):	1.00e-04
Sample Thickness (microns):	3.00e-01

Amplifier:	Internal

»»»»»»»»»»»»»»»»»»»»»»»»»»»»»»»»»»» Tester Info «««««««««««««««««««««««««««««««««««
Tester Name:	PMF21124-494 (100V)
Tester Serial Number:	PMF21124-494
Return Signal Amp. Level:	1.79 [Index: 2]

»»»»»»»»»»»»»»»»»»»»»»»»»»»»»»»» Hysteresis Info ««««««««««««««««««««««««««««««««««
Task Name:	Hyst-785
Volts:	20.00
Field:	666.67 (kV/cm)
DCBias:	0.00
DCField:	0.00 (kV/cm)
Hysteresis Period (ms):	1.00e+00
Preset:	Enabled
Preset Delay (ms):	1.00e+03
Profile:	Standard Bipolar

»»»»»»»»»»»»»»»»»»»»»»»»»»»»»»»»»»»»»» Data «««««««««««««««««««««««««««««««««««««««
Points:	2001

Valid Data

Point	Time (ms)	Drive Voltage	Measured Polarization (uC/cm2)	Capacitance (uF)	Normalized Capacitance (uF/cm2)	Dielectric Constant	Instantaneous Current (mA)
   1	0.0000e+00	0.0529	-0.817833	-0.000073	-0.732473	-0.248168	0.005987
   2	5.0000e-04	0.0241	-0.787900	-0.000073	-0.732473	-0.248168	0.005987
   3	1.0000e-03	0.1283	-0.767374	0.000050	0.502267	0.170173	0.004105
   4	1.5000e-03	0.1556	-0.715631	0.000127	1.266131	0.428977	0.010349
   5	2.0000e-03	0.2005	-0.615567	0.000245	2.448551	0.829592	0.020013
   6	2.5000e-03	0.2326	-0.531324	0.000206	2.061387	0.698417	0.016848
   7	3.0000e-03	0.2615	-0.426129	0.000257	2.574118	0.872135	0.021039
   8	3.5000e-03	0.2984	-0.316657	0.000268	2.678757	0.907587	0.021894
   9	4.0000e-03	0.3561	-0.211888	0.000256	2.563654	0.868590	0.020954
  10	4.5000e-03	0.4107	-0.098140	0.000278	2.783396	0.943040	0.022750
  11	5.0000e-03	0.4588	0.009622	0.000264	2.636902	0.893406	0.021552
  12	5.5000e-03	0.4909	0.129784	0.000294	2.940354	0.996219	0.024033
  13	6.0000e-03	0.4909	0.260210	-0.000319	-3.191488	-1.081305	0.026085
  14	6.5000e-03	0.5807	0.359847	0.000244	2.438088	0.826046	0.019927
  15	7.0000e-03	0.5904	0.483858	0.000303	3.034530	1.028126	0.024802
  16	7.5000e-03	0.6545	0.595896	0.000274	2.741540	0.928859	0.022408
  17	8.0000e-03	0.6818	0.698098	0.000250	2.500871	0.847318	0.020440
  18	8.5000e-03	0.7396	0.820399	0.000299	2.992674	1.013945	0.024460
  19	9.0000e-03	0.7652	0.938851	0.000290	2.898499	0.982038	0.023690
  20	9.5000e-03	0.8117	1.056448	0.000288	2.877571	0.974947	0.023519
  21	1.0000e-02	0.8567	1.174900	0.000290	2.898499	0.982038	0.023690
  22	1.0500e-02	0.8807	1.286511	0.000273	2.731077	0.925314	0.022322
  23	1.1000e-02	0.9417	1.408811	0.000299	2.992674	1.013945	0.024460
  24	1.1500e-02	0.9561	1.528547	0.000293	2.929891	0.992674	0.023947
  25	1.2000e-02	0.9994	1.636736	0.000265	2.647365	0.896952	0.021638
  26	1.2500e-02	1.0460	1.754333	0.000288	2.877571	0.974947	0.023519
  27	1.3000e-02	1.0668	1.876206	0.000298	2.982210	1.010400	0.024375
  28	1.3500e-02	1.1198	2.001072	0.000306	3.055457	1.035217	0.024973
  29	1.4000e-02	1.1470	2.103703	0.000251	2.511335	0.850863	0.020526
  30	1.4500e-02	1.2000	2.216168	0.000275	2.752004	0.932404	0.022493
  31	1.5000e-02	1.2401	2.335903	0.000293	2.929891	0.992674	0.023947
  32	1.5500e-02	1.2850	2.460342	0.000304	3.044993	1.031672	0.024888
  33	1.6000e-02	1.3155	2.578794	0.000290	2.898499	0.982038	0.023690
  34	1.6500e-02	1.3492	2.694681	0.000284	2.835716	0.960766	0.023177
  35	1.7000e-02	1.3957	2.810995	0.000285	2.846179	0.964312	0.023263
  36	1.7500e-02	1.4230	2.924743	0.000278	2.783396	0.943040	0.022750
  37	1.8000e-02	1.4775	3.044051	0.000292	2.919427	0.989129	0.023861
  38	1.8500e-02	1.5144	3.166351	0.000299	2.992674	1.013945	0.024460
  39	1.9000e-02	1.5577	3.268981	0.000251	2.511335	0.850863	0.020526
  40	1.9500e-02	1.5802	3.394703	0.000308	3.076385	1.042307	0.025144
  41	2.0000e-02	1.6395	3.509734	0.000281	2.814788	0.953676	0.023006
  42	2.0500e-02	1.6780	3.625621	0.000284	2.835716	0.960766	0.023177
  43	2.1000e-02	1.7069	3.734665	0.000267	2.668293	0.904042	0.021809
  44	2.1500e-02	1.7454	3.853973	0.000292	2.919427	0.989129	0.023861
  45	2.2000e-02	1.7903	3.970714	0.000286	2.856643	0.967857	0.023348
  46	2.2500e-02	1.8561	4.086173	0.000283	2.825252	0.957221	0.023092
  47	2.3000e-02	1.8946	4.198211	0.000274	2.741540	0.928859	0.022408
  48	2.3500e-02	1.9620	4.311959	0.000278	2.783396	0.943040	0.022750
  49	2.4000e-02	1.9572	4.433833	-0.000298	-2.982210	-1.010400	0.024375
  50	2.4500e-02	1.9684	4.552712	0.000291	2.908963	0.985583	0.023776
  51	2.5000e-02	2.0470	4.655770	0.000252	2.521799	0.854409	0.020612
  52	2.5500e-02	2.0695	4.762249	0.000261	2.605510	0.882771	0.021296
  53	2.6000e-02	2.1015	4.875570	0.000277	2.772932	0.939495	0.022664
  54	2.6500e-02	2.1673	4.994877	0.000292	2.919427	0.989129	0.023861
  55	2.7000e-02	2.2251	5.109908	0.000281	2.814788	0.953676	0.023006
  56	2.7500e-02	2.2331	5.228788	0.000291	2.908963	0.985583	0.023776
  57	2.8000e-02	2.2652	5.342109	0.000277	2.772932	0.939495	0.022664
  58	2.8500e-02	2.3117	5.463554	0.000297	2.971746	1.006855	0.024289
  59	2.9000e-02	2.3646	5.571316	0.000264	2.636902	0.893406	0.021552
  60	2.9500e-02	2.4144	5.691906	0.000295	2.950818	0.999764	0.024118
  61	3.0000e-02	2.4208	5.801378	0.000268	2.678757	0.907587	0.021894
  62	3.0500e-02	2.4914	5.920686	0.000292	2.919427	0.989129	0.023861
  63	3.1000e-02	2.5315	6.027164	0.000261	2.605510	0.882771	0.021296
  64	3.1500e-02	2.5363	6.146472	0.000292	2.919427	0.989129	0.023861
  65	3.2000e-02	2.6165	6.249530	0.000252	2.521799	0.854409	0.020612
  66	3.2500e-02	2.6486	6.363706	0.000279	2.793860	0.946585	0.022835
  67	3.3000e-02	2.6534	6.469329	0.000258	2.584582	0.875680	0.021125
  68	3.3500e-02	2.7112	6.594196	0.000306	3.055457	1.035217	0.024973
  69	3.4000e-02	2.7513	6.699391	0.000257	2.574118	0.872135	0.021039
  70	3.4500e-02	2.7657	6.823830	0.000304	3.044993	1.031672	0.024888
  71	3.5000e-02	2.8395	6.923467	0.000244	2.438088	0.826046	0.019927
  72	3.5500e-02	2.8876	7.049189	0.000308	3.076385	1.042307	0.025144
  73	3.6000e-02	2.9293	7.158233	0.000267	2.668293	0.904042	0.021809
  74	3.6500e-02	2.9614	7.272409	0.000279	2.793860	0.946585	0.022835
  75	3.7000e-02	3.0256	7.369480	0.000238	2.375304	0.804775	0.019414
  76	3.7500e-02	3.0625	7.482373	0.000276	2.762468	0.935950	0.022579
  77	3.8000e-02	3.0737	7.598260	0.000284	2.835716	0.960766	0.023177
  78	3.8500e-02	3.1443	7.708159	0.000269	2.689221	0.911133	0.021980
  79	3.9000e-02	3.1635	7.830888	0.000300	3.003138	1.017491	0.024546
  80	3.9500e-02	3.1956	7.942070	0.000272	2.720613	0.921769	0.022237
  81	4.0000e-02	3.2309	8.049832	0.000264	2.636902	0.893406	0.021552
  82	4.0500e-02	3.2694	8.164863	0.000281	2.814788	0.953676	0.023006
  83	4.1000e-02	3.3304	8.258941	0.000230	2.302057	0.779958	0.018816
  84	4.1500e-02	3.3464	8.376538	0.000288	2.877571	0.974947	0.023519
  85	4.2000e-02	3.4090	8.489431	0.000276	2.762468	0.935950	0.022579
  86	4.2500e-02	3.4892	8.585646	0.000235	2.354376	0.797684	0.019243
  87	4.3000e-02	3.4828	8.700250	-0.000280	-2.804324	-0.950131	0.022921
  88	4.3500e-02	3.5341	8.812288	0.000274	2.741540	0.928859	0.022408
  89	4.4000e-02	3.5566	8.915773	0.000253	2.532263	0.857954	0.020697
  90	4.4500e-02	3.5967	9.030804	0.000281	2.814788	0.953676	0.023006
  91	4.5000e-02	3.6272	9.136428	0.000258	2.584582	0.875680	0.021125
  92	4.5500e-02	3.7010	9.244617	0.000265	2.647365	0.896952	0.021638
  93	4.6000e-02	3.7250	9.357938	0.000277	2.772932	0.939495	0.022664
  94	4.6500e-02	3.7699	9.465272	0.000263	2.626438	0.889861	0.021467
  95	4.7000e-02	3.8117	9.568757	0.000253	2.532263	0.857954	0.020697
  96	4.7500e-02	3.8566	9.677801	0.000267	2.668293	0.904042	0.021809
  97	4.8000e-02	3.8806	9.793260	0.000283	2.825252	0.957221	0.023092
  98	4.8500e-02	3.9560	9.904443	0.000272	2.720613	0.921769	0.022237
  99	4.9000e-02	3.9304	10.017336	-0.000276	-2.762468	-0.935950	0.022579
 100	4.9500e-02	3.9945	10.118683	0.000248	2.479943	0.840227	0.020269
 101	5.0000e-02	4.0443	10.226872	0.000265	2.647365	0.896952	0.021638
 102	5.0500e-02	4.0956	10.336344	0.000268	2.678757	0.907587	0.021894
 103	5.1000e-02	4.1052	10.441968	0.000258	2.584582	0.875680	0.021125
 104	5.1500e-02	4.1838	10.545881	0.000254	2.542726	0.861499	0.020783
 105	5.2000e-02	4.2207	10.655780	0.000269	2.689221	0.911133	0.021980
 106	5.2500e-02	4.2689	10.762259	0.000261	2.605510	0.882771	0.021296
 107	5.3000e-02	4.3026	10.871304	0.000267	2.668293	0.904042	0.021809
 108	5.3500e-02	4.3154	10.978637	0.000263	2.626438	0.889861	0.021467
 109	5.4000e-02	4.3844	11.087682	0.000267	2.668293	0.904042	0.021809
 110	5.4500e-02	4.3876	11.194588	0.000262	2.615974	0.886316	0.021381
 111	5.5000e-02	4.4341	11.300639	0.000260	2.595046	0.879225	0.021210
 112	5.5500e-02	4.4726	11.414388	0.000278	2.783396	0.943040	0.022750
 113	5.6000e-02	4.5207	11.510176	0.000234	2.343912	0.794139	0.019158
 114	5.6500e-02	4.5769	11.613661	0.000253	2.532263	0.857954	0.020697
 115	5.7000e-02	4.5977	11.732541	0.000291	2.908963	0.985583	0.023776
 116	5.7500e-02	4.6202	11.836454	0.000254	2.542726	0.861499	0.020783
 117	5.8000e-02	4.6763	11.949774	0.000277	2.772932	0.939495	0.022664
 118	5.8500e-02	4.7229	12.046845	0.000238	2.375304	0.804775	0.019414
 119	5.9000e-02	4.7421	12.147337	0.000246	2.459015	0.833137	0.020098
 120	5.9500e-02	4.8271	12.255954	0.000266	2.657829	0.900497	0.021723
 121	6.0000e-02	4.8592	12.369275	0.000277	2.772932	0.939495	0.022664
 122	6.0500e-02	4.8881	12.481313	0.000274	2.741540	0.928859	0.022408
 123	6.1000e-02	4.9073	12.581377	0.000245	2.448551	0.829592	0.020013
 124	6.1500e-02	4.9763	12.683579	0.000250	2.500871	0.847318	0.020440
 125	6.2000e-02	4.9972	12.784071	0.000246	2.459015	0.833137	0.020098
 126	6.2500e-02	5.0261	12.887557	0.000253	2.532263	0.857954	0.020697
 127	6.3000e-02	5.0774	13.005154	0.000288	2.877571	0.974947	0.023519
 128	6.3500e-02	5.1464	13.090251	0.000208	2.082315	0.705507	0.017019
 129	6.4000e-02	5.1608	13.201434	0.000272	2.720613	0.921769	0.022237
 130	6.4500e-02	5.1977	13.312616	0.000272	2.720613	0.921769	0.022237
 131	6.5000e-02	5.2266	13.425937	0.000277	2.772932	0.939495	0.022664
 132	6.5500e-02	5.2972	13.515311	0.000219	2.186954	0.740960	0.017875
 133	6.6000e-02	5.3501	13.617941	0.000251	2.511335	0.850863	0.020526
 134	6.6500e-02	5.3822	13.733400	0.000283	2.825252	0.957221	0.023092
 135	6.7000e-02	5.4191	13.842444	0.000267	2.668293	0.904042	0.021809
 136	6.7500e-02	5.4608	13.942508	0.000245	2.448551	0.829592	0.020013
 137	6.8000e-02	5.4961	14.045566	0.000252	2.521799	0.854409	0.020612
 138	6.8500e-02	5.5202	14.150334	0.000256	2.563654	0.868590	0.020954
 139	6.9000e-02	5.5282	14.260661	0.000270	2.699685	0.914678	0.022065
 140	6.9500e-02	5.6132	14.351746	0.000223	2.228810	0.755141	0.018217
 141	7.0000e-02	5.6613	14.446678	0.000232	2.322985	0.787049	0.018987
 142	7.0500e-02	5.6726	14.555723	0.000267	2.668293	0.904042	0.021809
 143	7.1000e-02	5.7079	14.665195	0.000268	2.678757	0.907587	0.021894
 144	7.1500e-02	5.7624	14.770391	0.000257	2.574118	0.872135	0.021039
 145	7.2000e-02	5.8137	14.871738	0.000248	2.479943	0.840227	0.020269
 146	7.2500e-02	5.8218	14.975651	0.000254	2.542726	0.861499	0.020783
 147	7.3000e-02	5.9084	15.074860	0.000243	2.427624	0.822501	0.019842
 148	7.3500e-02	5.9084	15.182622	-0.000264	-2.636902	-0.893406	0.021552
 149	7.4000e-02	6.0062	15.282258	0.000244	2.438088	0.826046	0.019927
 150	7.4500e-02	6.0014	15.387026	-0.000256	-2.563654	-0.868590	0.020954
 151	7.5000e-02	6.0399	15.497781	0.000271	2.710149	0.918223	0.022151
 152	7.5500e-02	6.0768	15.597846	0.000245	2.448551	0.829592	0.020013
 153	7.6000e-02	6.1378	15.694061	0.000235	2.354376	0.797684	0.019243
 154	7.6500e-02	6.1554	15.794981	0.000247	2.469479	0.836682	0.020184
 155	7.7000e-02	6.1988	15.906591	0.000273	2.731077	0.925314	0.022322
 156	7.7500e-02	6.2453	16.004517	0.000240	2.396232	0.811865	0.019585
 157	7.8000e-02	6.2886	16.110141	0.000258	2.584582	0.875680	0.021125
 158	7.8500e-02	6.3207	16.193528	0.000204	2.040460	0.691326	0.016677
 159	7.9000e-02	6.3704	16.305993	0.000275	2.752004	0.932404	0.022493
 160	7.9500e-02	6.3945	16.417603	0.000273	2.731077	0.925314	0.022322
 161	8.0000e-02	6.4843	16.501846	0.000206	2.061387	0.698417	0.016848
 162	8.0500e-02	6.4699	16.624574	-0.000300	-3.003138	-1.017491	0.024546
 163	8.1000e-02	6.4795	16.739605	0.000281	2.814788	0.953676	0.023006
 164	8.1500e-02	6.5405	16.819999	0.000197	1.967212	0.666510	0.016079
 165	8.2000e-02	6.6046	16.917497	0.000239	2.385768	0.808320	0.019500
 166	8.2500e-02	6.6640	17.021410	0.000254	2.542726	0.861499	0.020783
 167	8.3000e-02	6.6688	17.124468	0.000252	2.521799	0.854409	0.020612
 168	8.3500e-02	6.7089	17.219401	0.000232	2.322985	0.787049	0.018987
 169	8.4000e-02	6.7715	17.307064	0.000215	2.145098	0.726779	0.017533
 170	8.4500e-02	6.7971	17.419529	0.000275	2.752004	0.932404	0.022493
 171	8.5000e-02	6.8404	17.514890	0.000233	2.333449	0.790594	0.019072
 172	8.5500e-02	6.8854	17.618375	0.000253	2.532263	0.857954	0.020697
 173	8.6000e-02	6.9351	17.705183	0.000212	2.124171	0.719689	0.017362
 174	8.6500e-02	6.9463	17.813372	0.000265	2.647365	0.896952	0.021638
 175	8.7000e-02	6.9848	17.922844	0.000268	2.678757	0.907587	0.021894
 176	8.7500e-02	7.0346	18.028040	0.000257	2.574118	0.872135	0.021039
 177	8.8000e-02	7.1116	18.112710	0.000207	2.071851	0.701962	0.016934
 178	8.8500e-02	7.1148	18.224748	0.000274	2.741540	0.928859	0.022408
 179	8.9000e-02	7.1613	18.326523	0.000249	2.490407	0.843773	0.020355
 180	8.9500e-02	7.2078	18.418890	0.000226	2.260201	0.765777	0.018473
 181	9.0000e-02	7.2608	18.503132	0.000206	2.061387	0.698417	0.016848
 182	9.0500e-02	7.2720	18.616025	0.000276	2.762468	0.935950	0.022579
 183	9.1000e-02	7.3201	18.716089	0.000245	2.448551	0.829592	0.020013
 184	9.1500e-02	7.3650	18.813588	0.000239	2.385768	0.808320	0.019500
 185	9.2000e-02	7.3955	18.927764	0.000279	2.793860	0.946585	0.022835
 186	9.2500e-02	7.4501	19.020131	0.000226	2.260201	0.765777	0.018473
 187	9.3000e-02	7.4837	19.125327	0.000257	2.574118	0.872135	0.021039
 188	9.3500e-02	7.5142	19.217266	0.000225	2.249737	0.762232	0.018388
 189	9.4000e-02	7.5495	19.317758	0.000246	2.459015	0.833137	0.020098
 190	9.4500e-02	7.5960	19.414401	0.000236	2.364840	0.801230	0.019329
 191	9.5000e-02	7.6361	19.520025	0.000258	2.584582	0.875680	0.021125
 192	9.5500e-02	7.6923	19.609826	0.000220	2.197418	0.744505	0.017960
 193	9.6000e-02	7.7196	19.715877	0.000260	2.595046	0.879225	0.021210
 194	9.6500e-02	7.7581	19.823211	0.000263	2.626438	0.889861	0.021467
 195	9.7000e-02	7.8126	19.908308	0.000208	2.082315	0.705507	0.017019
 196	9.7500e-02	7.8591	20.016070	0.000264	2.636902	0.893406	0.021552
 197	9.8000e-02	7.8848	20.112286	0.000235	2.354376	0.797684	0.019243
 198	9.8500e-02	7.9185	20.216626	0.000255	2.553190	0.865044	0.020868
 199	9.9000e-02	7.9586	20.299586	0.000203	2.029996	0.687781	0.016592
 200	9.9500e-02	7.9987	20.413334	0.000278	2.783396	0.943040	0.022750
 201	1.0000e-01	8.0565	20.503563	0.000221	2.207882	0.748051	0.018046
 202	1.0050e-01	8.0950	20.610469	0.000262	2.615974	0.886316	0.021381
 203	1.0100e-01	8.1142	20.699843	0.000219	2.186954	0.740960	0.017875
 204	1.0150e-01	8.1463	20.811881	0.000274	2.741540	0.928859	0.022408
 205	1.0200e-01	8.2089	20.897833	0.000210	2.103243	0.712598	0.017191
 206	1.0250e-01	8.2313	21.006450	0.000266	2.657829	0.900497	0.021723
 207	1.0300e-01	8.2730	21.093686	0.000213	2.134635	0.723234	0.017447
 208	1.0350e-01	8.3163	21.192040	0.000241	2.406696	0.815411	0.019671
 209	1.0400e-01	8.3629	21.292531	0.000246	2.459015	0.833137	0.020098
 210	1.0450e-01	8.4030	21.381905	0.000219	2.186954	0.740960	0.017875
 211	1.0500e-01	8.4463	21.482825	0.000247	2.469479	0.836682	0.020184
 212	1.0550e-01	8.5233	21.579896	0.000238	2.375304	0.804775	0.019414
 213	1.0600e-01	8.5008	21.689795	-0.000269	-2.689221	-0.911133	0.021980
 214	1.0650e-01	8.5602	21.782162	0.000226	2.260201	0.765777	0.018473
 215	1.0700e-01	8.6211	21.860845	0.000193	1.925357	0.652329	0.015737
 216	1.0750e-01	8.6292	21.972028	0.000272	2.720613	0.921769	0.022237
 217	1.0800e-01	8.6580	22.065250	0.000228	2.281129	0.772867	0.018644
 218	1.0850e-01	8.7206	22.163604	0.000241	2.406696	0.815411	0.019671
 219	1.0900e-01	8.7816	22.258965	0.000233	2.333449	0.790594	0.019072
 220	1.0950e-01	8.7944	22.359884	0.000247	2.469479	0.836682	0.020184
 221	1.1000e-01	8.8185	22.457810	0.000240	2.396232	0.811865	0.019585
 222	1.1050e-01	8.8826	22.543763	0.000210	2.103243	0.712598	0.017191
 223	1.1100e-01	8.9035	22.643827	0.000245	2.448551	0.829592	0.020013
 224	1.1150e-01	8.9773	22.737477	0.000229	2.291593	0.776413	0.018730
 225	1.1200e-01	8.9949	22.847805	0.000270	2.699685	0.914678	0.022065
 226	1.1250e-01	9.0575	22.932474	0.000207	2.071851	0.701962	0.016934
 227	1.1300e-01	9.0896	23.024414	0.000225	2.249737	0.762232	0.018388
 228	1.1350e-01	9.1185	23.124051	0.000244	2.438088	0.826046	0.019927
 229	1.1400e-01	9.1682	23.222832	0.000242	2.417160	0.818956	0.019756
 230	1.1450e-01	9.2003	23.313916	0.000223	2.228810	0.755141	0.018217
 231	1.1500e-01	9.2677	23.418257	0.000255	2.553190	0.865044	0.020868
 232	1.1550e-01	9.2965	23.507630	0.000219	2.186954	0.740960	0.017875
 233	1.1600e-01	9.2789	23.622234	-0.000280	-2.804324	-0.950131	0.022921
 234	1.1650e-01	9.3382	23.703483	0.000199	1.988140	0.673600	0.016250
 235	1.1700e-01	9.3992	23.799698	0.000235	2.354376	0.797684	0.019243
 236	1.1750e-01	9.4489	23.889072	0.000219	2.186954	0.740960	0.017875
 237	1.1800e-01	9.4971	23.985288	0.000235	2.354376	0.797684	0.019243
 238	1.1850e-01	9.5275	24.085780	0.000246	2.459015	0.833137	0.020098
 239	1.1900e-01	9.5676	24.177719	0.000225	2.249737	0.762232	0.018388
 240	1.1950e-01	9.5997	24.285053	0.000263	2.626438	0.889861	0.021467
 241	1.2000e-01	9.6607	24.366302	0.000199	1.988140	0.673600	0.016250
 242	1.2050e-01	9.6960	24.473208	0.000262	2.615974	0.886316	0.021381
 243	1.2100e-01	9.7281	24.566858	0.000229	2.291593	0.776413	0.018730
 244	1.2150e-01	9.7361	24.660936	0.000230	2.302057	0.779958	0.018816
 245	1.2200e-01	9.8115	24.748171	0.000213	2.134635	0.723234	0.017447
 246	1.2250e-01	9.8484	24.839256	0.000223	2.228810	0.755141	0.018217
 247	1.2300e-01	9.8933	24.940603	0.000248	2.479943	0.840227	0.020269
 248	1.2350e-01	9.9350	25.024845	0.000206	2.061387	0.698417	0.016848
 249	1.2400e-01	9.9559	25.129613	0.000256	2.563654	0.868590	0.020954
 250	1.2450e-01	10.0152	25.224546	0.000232	2.322985	0.787049	0.018987
 251	1.2500e-01	10.0650	25.313920	0.000219	2.186954	0.740960	0.017875
 252	1.2550e-01	10.0666	25.403721	0.000220	2.197418	0.744505	0.017960
 253	1.2600e-01	10.1131	25.494805	0.000223	2.228810	0.755141	0.018217
 254	1.2650e-01	10.1452	25.598290	0.000253	2.532263	0.857954	0.020697
 255	1.2700e-01	10.2109	25.690657	0.000226	2.260201	0.765777	0.018473
 256	1.2750e-01	10.2543	25.781314	0.000222	2.218346	0.751596	0.018131
 257	1.2800e-01	10.2928	25.870260	0.000218	2.176490	0.737415	0.017789
 258	1.2850e-01	10.2976	25.969469	0.000243	2.427624	0.822501	0.019842
 259	1.2900e-01	10.3714	26.060981	0.000224	2.239274	0.758686	0.018302
 260	1.2950e-01	10.3890	26.163183	0.000250	2.500871	0.847318	0.020440
 261	1.3000e-01	10.4420	26.250419	0.000213	2.134635	0.723234	0.017447
 262	1.3050e-01	10.4532	26.350483	0.000245	2.448551	0.829592	0.020013
 263	1.3100e-01	10.5687	26.430877	0.000197	1.967212	0.666510	0.016079
 264	1.3150e-01	10.5575	26.535217	-0.000255	-2.553190	-0.865044	0.020868
 265	1.3200e-01	10.5944	26.626729	0.000224	2.239274	0.758686	0.018302
 266	1.3250e-01	10.6313	26.721234	0.000231	2.312521	0.783503	0.018901
 267	1.3300e-01	10.6617	26.819588	0.000241	2.406696	0.815411	0.019671
 268	1.3350e-01	10.7275	26.914949	0.000233	2.333449	0.790594	0.019072
 269	1.3400e-01	10.7468	26.999191	0.000206	2.061387	0.698417	0.016848
 270	1.3450e-01	10.8045	27.090275	0.000223	2.228810	0.755141	0.018217
 271	1.3500e-01	10.8542	27.192477	0.000250	2.500871	0.847318	0.020440
 272	1.3550e-01	10.8895	27.275864	0.000204	2.040460	0.691326	0.016677
 273	1.3600e-01	10.9088	27.367804	0.000225	2.249737	0.762232	0.018388
 274	1.3650e-01	10.9762	27.467013	0.000243	2.427624	0.822501	0.019842
 275	1.3700e-01	11.0339	27.552538	0.000209	2.092779	0.709053	0.017105
 276	1.3750e-01	11.0435	27.654313	0.000249	2.490407	0.843773	0.020355
 277	1.3800e-01	11.0596	27.739838	0.000209	2.092779	0.709053	0.017105
 278	1.3850e-01	11.1061	27.828356	0.000217	2.166026	0.733870	0.017704
 279	1.3900e-01	11.1574	27.922434	0.000230	2.302057	0.779958	0.018816
 280	1.3950e-01	11.2264	28.007531	0.000208	2.082315	0.705507	0.017019
 281	1.4000e-01	11.2649	28.104174	0.000236	2.364840	0.801230	0.019329
 282	1.4050e-01	11.2842	28.200818	0.000236	2.364840	0.801230	0.019329
 283	1.4100e-01	11.3387	28.293185	0.000226	2.260201	0.765777	0.018473
 284	1.4150e-01	11.3516	28.391539	0.000241	2.406696	0.815411	0.019671
 285	1.4200e-01	11.3981	28.478774	0.000213	2.134635	0.723234	0.017447
 286	1.4250e-01	11.4542	28.558740	0.000196	1.956748	0.662964	0.015993
 287	1.4300e-01	11.4783	28.664791	0.000260	2.595046	0.879225	0.021210
 288	1.4350e-01	11.5200	28.744330	0.000195	1.946284	0.659419	0.015908
 289	1.4400e-01	11.5681	28.842256	0.000240	2.396232	0.811865	0.019585
 290	1.4450e-01	11.6130	28.925215	0.000203	2.029996	0.687781	0.016592
 291	1.4500e-01	11.6483	29.014589	0.000219	2.186954	0.740960	0.017875
 292	1.4550e-01	11.7029	29.103962	0.000219	2.186954	0.740960	0.017875
 293	1.4600e-01	11.7398	29.201461	0.000239	2.385768	0.808320	0.019500
 294	1.4650e-01	11.7799	29.297677	0.000235	2.354376	0.797684	0.019243
 295	1.4700e-01	11.8168	29.371656	0.000181	1.810254	0.613331	0.014796
 296	1.4750e-01	11.8392	29.472575	0.000247	2.469479	0.836682	0.020184
 297	1.4800e-01	11.8826	29.554252	0.000200	1.998604	0.677145	0.016335
 298	1.4850e-01	11.9130	29.641915	0.000215	2.145098	0.726779	0.017533
 299	1.4900e-01	11.9644	29.729578	0.000215	2.145098	0.726779	0.017533
 300	1.4950e-01	11.9884	29.832636	0.000252	2.521799	0.854409	0.020612
 301	1.5000e-01	12.0430	29.919444	0.000212	2.124171	0.719689	0.017362
 302	1.5050e-01	12.0831	30.016942	0.000239	2.385768	0.808320	0.019500
 303	1.5100e-01	12.1232	30.094770	0.000190	1.904429	0.645238	0.015566
 304	1.5150e-01	12.1456	30.202532	0.000264	2.636902	0.893406	0.021552
 305	1.5200e-01	12.2098	30.273945	0.000175	1.747470	0.592059	0.014283
 306	1.5250e-01	12.2339	30.365457	0.000224	2.239274	0.758686	0.018302
 307	1.5300e-01	12.3141	30.465094	0.000244	2.438088	0.826046	0.019927
 308	1.5350e-01	12.3269	30.551046	0.000210	2.103243	0.712598	0.017191
 309	1.5400e-01	12.3526	30.639565	0.000217	2.166026	0.733870	0.017704
 310	1.5450e-01	12.4007	30.722952	0.000204	2.040460	0.691326	0.016677
 311	1.5500e-01	12.4376	30.820450	0.000239	2.385768	0.808320	0.019500
 312	1.5550e-01	12.5018	30.910252	0.000220	2.197418	0.744505	0.017960
 313	1.5600e-01	12.5467	30.995777	0.000209	2.092779	0.709053	0.017105
 314	1.5650e-01	12.5868	31.077025	0.000199	1.988140	0.673600	0.016250
 315	1.5700e-01	12.6125	31.174524	0.000239	2.385768	0.808320	0.019500
 316	1.5750e-01	12.6141	31.263042	0.000217	2.166026	0.733870	0.017704
 317	1.5800e-01	12.6686	31.358403	0.000233	2.333449	0.790594	0.019072
 318	1.5850e-01	12.7168	31.443073	0.000207	2.071851	0.701962	0.016934
 319	1.5900e-01	12.7793	31.531163	0.000216	2.155562	0.730324	0.017618
 320	1.5950e-01	12.8034	31.627379	0.000235	2.354376	0.797684	0.019243
 321	1.6000e-01	12.8499	31.711621	0.000206	2.061387	0.698417	0.016848
 322	1.6050e-01	12.8659	31.801850	0.000221	2.207882	0.748051	0.018046
 323	1.6100e-01	12.9189	31.898494	0.000236	2.364840	0.801230	0.019329
 324	1.6150e-01	12.9317	31.987440	0.000218	2.176490	0.737415	0.017789
 325	1.6200e-01	13.0023	32.073392	0.000210	2.103243	0.712598	0.017191
 326	1.6250e-01	13.0440	32.148654	0.000184	1.841646	0.623966	0.015052
 327	1.6300e-01	13.0697	32.236318	0.000215	2.145098	0.726779	0.017533
 328	1.6350e-01	13.1306	32.327829	0.000224	2.239274	0.758686	0.018302
 329	1.6400e-01	13.1595	32.416775	0.000218	2.176490	0.737415	0.017789
 330	1.6450e-01	13.1868	32.505721	0.000218	2.176490	0.737415	0.017789
 331	1.6500e-01	13.2750	32.579701	0.000181	1.810254	0.613331	0.014796
 332	1.6550e-01	13.2798	32.672068	0.000226	2.260201	0.765777	0.018473
 333	1.6600e-01	13.3167	32.762297	0.000221	2.207882	0.748051	0.018046
 334	1.6650e-01	13.3536	32.852953	0.000222	2.218346	0.751596	0.018131
 335	1.6700e-01	13.4082	32.938478	0.000209	2.092779	0.709053	0.017105
 336	1.6750e-01	13.4499	33.015451	0.000188	1.883501	0.638147	0.015395
 337	1.6800e-01	13.4948	33.106107	0.000222	2.218346	0.751596	0.018131
 338	1.6850e-01	13.5044	33.189494	0.000204	2.040460	0.691326	0.016677
 339	1.6900e-01	13.5606	33.282289	0.000227	2.270665	0.769322	0.018559
 340	1.6950e-01	13.6135	33.367386	0.000208	2.082315	0.705507	0.017019
 341	1.7000e-01	13.6183	33.460609	0.000228	2.281129	0.772867	0.018644
 342	1.7050e-01	13.6665	33.532877	0.000177	1.768398	0.599150	0.014454
 343	1.7100e-01	13.7242	33.628665	0.000234	2.343912	0.794139	0.019158
 344	1.7150e-01	13.7707	33.716756	0.000216	2.155562	0.730324	0.017618
 345	1.7200e-01	13.8157	33.792018	0.000184	1.841646	0.623966	0.015052
 346	1.7250e-01	13.8509	33.880964	0.000218	2.176490	0.737415	0.017789
 347	1.7300e-01	13.8911	33.974614	0.000229	2.291593	0.776413	0.018730
 348	1.7350e-01	13.9167	34.062277	0.000215	2.145098	0.726779	0.017533
 349	1.7400e-01	13.9648	34.143526	0.000199	1.988140	0.673600	0.016250
 350	1.7450e-01	14.0098	34.230334	0.000212	2.124171	0.719689	0.017362
 351	1.7500e-01	14.0820	34.309017	0.000193	1.925357	0.652329	0.015737
 352	1.7550e-01	14.0547	34.412075	-0.000252	-2.521799	-0.854409	0.020612
 353	1.7600e-01	14.1012	34.505297	0.000228	2.281129	0.772867	0.018644
 354	1.7650e-01	14.1718	34.577138	0.000176	1.757934	0.595604	0.014368
 355	1.7700e-01	14.2247	34.663519	0.000211	2.113707	0.716143	0.017276
 356	1.7750e-01	14.2456	34.764866	0.000248	2.479943	0.840227	0.020269
 357	1.7800e-01	14.2905	34.841411	0.000187	1.873037	0.634602	0.015309
 358	1.7850e-01	14.3130	34.926080	0.000207	2.071851	0.701962	0.016934
 359	1.7900e-01	14.3531	35.012461	0.000211	2.113707	0.716143	0.017276
 360	1.7950e-01	14.4092	35.092854	0.000197	1.967212	0.666510	0.016079
 361	1.8000e-01	14.4365	35.183083	0.000221	2.207882	0.748051	0.018046
 362	1.8050e-01	14.4702	35.286996	0.000254	2.542726	0.861499	0.020783
 363	1.8100e-01	14.5360	35.351995	0.000159	1.590512	0.538880	0.013000
 364	1.8150e-01	14.5696	35.432389	0.000197	1.967212	0.666510	0.016079
 365	1.8200e-01	14.5905	35.512782	0.000197	1.967212	0.666510	0.016079
 366	1.8250e-01	14.6386	35.623110	0.000270	2.699685	0.914678	0.022065
 367	1.8300e-01	14.6851	35.692385	0.000170	1.695151	0.574333	0.013855
 368	1.8350e-01	14.7477	35.768075	0.000185	1.852109	0.627512	0.015138
 369	1.8400e-01	14.7525	35.856593	0.000217	2.166026	0.733870	0.017704
 370	1.8450e-01	14.8039	35.947677	0.000223	2.228810	0.755141	0.018217
 371	1.8500e-01	14.8568	36.028498	0.000198	1.977676	0.670055	0.016164
 372	1.8550e-01	14.8809	36.116162	0.000215	2.145098	0.726779	0.017533
 373	1.8600e-01	14.9146	36.200404	0.000206	2.061387	0.698417	0.016848
 374	1.8650e-01	14.9322	36.289777	0.000219	2.186954	0.740960	0.017875
 375	1.8700e-01	14.9755	36.364612	0.000183	1.831182	0.620421	0.014967
 376	1.8750e-01	15.0477	36.442012	0.000189	1.893965	0.641693	0.015480
 377	1.8800e-01	15.0702	36.530958	0.000218	2.176490	0.737415	0.017789
 378	1.8850e-01	15.1167	36.616056	0.000208	2.082315	0.705507	0.017019
 379	1.8900e-01	15.1584	36.698160	0.000201	2.009068	0.680691	0.016421
 380	1.8950e-01	15.2129	36.786250	0.000216	2.155562	0.730324	0.017618
 381	1.9000e-01	15.2274	36.867072	0.000198	1.977676	0.670055	0.016164
 382	1.9050e-01	15.2932	36.951741	0.000207	2.071851	0.701962	0.016934
 383	1.9100e-01	15.3140	37.050523	0.000242	2.417160	0.818956	0.019756
 384	1.9150e-01	15.3621	37.128778	0.000191	1.914893	0.648783	0.015651
 385	1.9200e-01	15.3974	37.222001	0.000228	2.281129	0.772867	0.018644
 386	1.9250e-01	15.4327	37.299401	0.000189	1.893965	0.641693	0.015480
 387	1.9300e-01	15.4857	37.376801	0.000189	1.893965	0.641693	0.015480
 388	1.9350e-01	15.5033	37.464037	0.000213	2.134635	0.723234	0.017447
 389	1.9400e-01	15.5611	37.542292	0.000191	1.914893	0.648783	0.015651
 390	1.9450e-01	15.5980	37.632948	0.000222	2.218346	0.751596	0.018131
 391	1.9500e-01	15.6284	37.718474	0.000209	2.092779	0.709053	0.017105
 392	1.9550e-01	15.6830	37.802716	0.000206	2.061387	0.698417	0.016848
 393	1.9600e-01	15.7343	37.877550	0.000183	1.831182	0.620421	0.014967
 394	1.9650e-01	15.7857	37.961365	0.000205	2.050923	0.694872	0.016763
 395	1.9700e-01	15.7937	38.047317	0.000210	2.103243	0.712598	0.017191
 396	1.9750e-01	15.8338	38.134125	0.000212	2.124171	0.719689	0.017362
 397	1.9800e-01	15.8771	38.217085	0.000203	2.029996	0.687781	0.016592
 398	1.9850e-01	15.9092	38.300044	0.000203	2.029996	0.687781	0.016592
 399	1.9900e-01	15.9846	38.382148	0.000201	2.009068	0.680691	0.016421
 400	1.9950e-01	16.0167	38.470239	0.000216	2.155562	0.730324	0.017618
 401	2.0000e-01	16.0471	38.537804	0.000165	1.653295	0.560152	0.013513
 402	2.0050e-01	16.0840	38.634875	0.000238	2.375304	0.804775	0.019414
 403	2.0100e-01	16.1274	38.705860	0.000174	1.737007	0.588514	0.014197
 404	2.0150e-01	16.1434	38.792241	0.000211	2.113707	0.716143	0.017276
 405	2.0200e-01	16.1835	38.881614	0.000219	2.186954	0.740960	0.017875
 406	2.0250e-01	16.2541	38.953883	0.000177	1.768398	0.599150	0.014454
 407	2.0300e-01	16.3006	39.036842	0.000203	2.029996	0.687781	0.016592
 408	2.0350e-01	16.3439	39.118946	0.000201	2.009068	0.680691	0.016421
 409	2.0400e-01	16.3584	39.197629	0.000193	1.925357	0.652329	0.015737
 410	2.0450e-01	16.4161	39.273319	0.000185	1.852109	0.627512	0.015138
 411	2.0500e-01	16.4257	39.355423	0.000201	2.009068	0.680691	0.016421
 412	2.0550e-01	16.4658	39.449501	0.000230	2.302057	0.779958	0.018816
 413	2.0600e-01	16.5380	39.524763	0.000184	1.841646	0.623966	0.015052
 414	2.0650e-01	16.5621	39.610715	0.000210	2.103243	0.712598	0.017191
 415	2.0700e-01	16.5862	39.691537	0.000198	1.977676	0.670055	0.016164
 416	2.0750e-01	16.6487	39.779627	0.000216	2.155562	0.730324	0.017618
 417	2.0800e-01	16.6920	39.846337	0.000163	1.632368	0.553061	0.013342
 418	2.0850e-01	16.7225	39.944263	0.000240	2.396232	0.811865	0.019585
 419	2.0900e-01	16.7755	40.012683	0.000167	1.674223	0.567242	0.013684
 420	2.0950e-01	16.7787	40.092221	0.000195	1.946284	0.659419	0.015908
 421	2.1000e-01	16.8316	40.184588	0.000226	2.260201	0.765777	0.018473
 422	2.1050e-01	16.8910	40.249588	0.000159	1.590512	0.538880	0.013000
 423	2.1100e-01	16.9038	40.347514	0.000240	2.396232	0.811865	0.019585
 424	2.1150e-01	16.9664	40.413368	0.000161	1.611440	0.545971	0.013171
 425	2.1200e-01	17.0225	40.506590	0.000228	2.281129	0.772867	0.018644
 426	2.1250e-01	17.0514	40.587839	0.000199	1.988140	0.673600	0.016250
 427	2.1300e-01	17.1043	40.657542	0.000171	1.705615	0.577878	0.013941
 428	2.1350e-01	17.1204	40.745633	0.000216	2.155562	0.730324	0.017618
 429	2.1400e-01	17.1364	40.834151	0.000217	2.166026	0.733870	0.017704
 430	2.1450e-01	17.2070	40.905992	0.000176	1.757934	0.595604	0.014368
 431	2.1500e-01	17.2407	40.994938	0.000218	2.176490	0.737415	0.017789
 432	2.1550e-01	17.2952	41.066779	0.000176	1.757934	0.595604	0.014368
 433	2.1600e-01	17.3257	41.149311	0.000202	2.019532	0.684236	0.016506
 434	2.1650e-01	17.3610	41.237830	0.000217	2.166026	0.733870	0.017704
 435	2.1700e-01	17.4332	41.308388	0.000173	1.726543	0.584968	0.014112
 436	2.1750e-01	17.4412	41.390919	0.000202	2.019532	0.684236	0.016506
 437	2.1800e-01	17.4669	41.468320	0.000189	1.893965	0.641693	0.015480
 438	2.1850e-01	17.5150	41.561970	0.000229	2.291593	0.776413	0.018730
 439	2.1900e-01	17.5696	41.626113	0.000157	1.569584	0.531790	0.012829
 440	2.1950e-01	17.6113	41.706934	0.000198	1.977676	0.670055	0.016164
 441	2.2000e-01	17.6514	41.788611	0.000200	1.998604	0.677145	0.016335
 442	2.2050e-01	17.6738	41.869004	0.000197	1.967212	0.666510	0.016079
 443	2.2100e-01	17.7155	41.946832	0.000190	1.904429	0.645238	0.015566
 444	2.2150e-01	17.7749	42.025515	0.000193	1.925357	0.652329	0.015737
 445	2.2200e-01	17.7877	42.116599	0.000223	2.228810	0.755141	0.018217
 446	2.2250e-01	17.8294	42.187158	0.000173	1.726543	0.584968	0.014112
 447	2.2300e-01	17.8808	42.260282	0.000179	1.789326	0.606240	0.014625
 448	2.2350e-01	17.9145	42.345379	0.000208	2.082315	0.705507	0.017019
 449	2.2400e-01	17.9546	42.429194	0.000205	2.050923	0.694872	0.016763
 450	2.2450e-01	17.9706	42.505311	0.000186	1.862573	0.631057	0.015223
 451	2.2500e-01	18.0364	42.577152	0.000176	1.757934	0.595604	0.014368
 452	2.2550e-01	18.0909	42.650703	0.000180	1.799790	0.609785	0.014710
 453	2.2600e-01	18.1455	42.738367	0.000215	2.145098	0.726779	0.017533
 454	2.2650e-01	18.1727	42.822181	0.000205	2.050923	0.694872	0.016763
 455	2.2700e-01	18.2161	42.900864	0.000193	1.925357	0.652329	0.015737
 456	2.2750e-01	18.2642	42.973133	0.000177	1.768398	0.599150	0.014454
 457	2.2800e-01	18.2658	43.068493	0.000233	2.333449	0.790594	0.019072
 458	2.2850e-01	18.3187	43.126223	0.000141	1.412626	0.478611	0.011546
 459	2.2900e-01	18.3588	43.219445	0.000228	2.281129	0.772867	0.018644
 460	2.2950e-01	18.4278	43.292569	0.000179	1.789326	0.606240	0.014625
 461	2.3000e-01	18.4487	43.377239	0.000207	2.071851	0.701962	0.016934
 462	2.3050e-01	18.4808	43.445231	0.000166	1.663759	0.563697	0.013598
 463	2.3100e-01	18.5225	43.522631	0.000189	1.893965	0.641693	0.015480
 464	2.3150e-01	18.5546	43.603025	0.000197	1.967212	0.666510	0.016079
 465	2.3200e-01	18.5963	43.686412	0.000204	2.040460	0.691326	0.016677
 466	2.3250e-01	18.6444	43.758681	0.000177	1.768398	0.599150	0.014454
 467	2.3300e-01	18.6989	43.839502	0.000198	1.977676	0.670055	0.016164
 468	2.3350e-01	18.7390	43.919468	0.000196	1.956748	0.662964	0.015993
 469	2.3400e-01	18.7824	43.990881	0.000175	1.747470	0.592059	0.014283
 470	2.3450e-01	18.8016	44.076406	0.000209	2.092779	0.709053	0.017105
 471	2.3500e-01	18.8337	44.153806	0.000189	1.893965	0.641693	0.015480
 472	2.3550e-01	18.9171	44.229924	0.000186	1.862573	0.631057	0.015223
 473	2.3600e-01	18.9267	44.299627	0.000171	1.705615	0.577878	0.013941
 474	2.3650e-01	18.9540	44.378310	0.000193	1.925357	0.652329	0.015737
 475	2.3700e-01	19.0021	44.472815	0.000231	2.312521	0.783503	0.018901
 476	2.3750e-01	19.0390	44.542518	0.000171	1.705615	0.577878	0.013941
 477	2.3800e-01	19.0663	44.621201	0.000193	1.925357	0.652329	0.015737
 478	2.3850e-01	19.1064	44.696035	0.000183	1.831182	0.620421	0.014967
 479	2.3900e-01	19.1818	44.778994	0.000203	2.029996	0.687781	0.016592
 480	2.3950e-01	19.2123	44.855967	0.000188	1.883501	0.638147	0.015395
 481	2.4000e-01	19.2524	44.919683	0.000156	1.559120	0.528244	0.012743
 482	2.4050e-01	19.2893	44.995373	0.000185	1.852109	0.627512	0.015138
 483	2.4100e-01	19.3535	45.076194	0.000198	1.977676	0.670055	0.016164
 484	2.4150e-01	19.3470	45.151456	-0.000184	-1.841646	-0.623966	0.015052
 485	2.4200e-01	19.4000	45.240402	0.000218	2.176490	0.737415	0.017789
 486	2.4250e-01	19.3984	45.339611	-0.000243	-2.427624	-0.822501	0.019842
 487	2.4300e-01	19.5075	45.389216	0.000121	1.213812	0.411251	0.009921
 488	2.4350e-01	19.5299	45.463195	0.000181	1.810254	0.613331	0.014796
 489	2.4400e-01	19.5299	45.542733	-0.000195	-1.946284	-0.659419	0.015908
 490	2.4450e-01	19.6406	45.604739	0.000152	1.517265	0.514063	0.012401
 491	2.4500e-01	19.6422	45.691119	0.000211	2.113707	0.716143	0.017276
 492	2.4550e-01	19.6743	45.778355	0.000213	2.134635	0.723234	0.017447
 493	2.4600e-01	19.7208	45.848485	0.000172	1.716079	0.581423	0.014026
 494	2.4650e-01	19.7529	45.937431	0.000218	2.176490	0.737415	0.017789
 495	2.4700e-01	19.8203	46.004568	0.000164	1.642832	0.556606	0.013427
 496	2.4750e-01	19.8139	46.079403	-0.000183	-1.831182	-0.620421	0.014967
 497	2.4800e-01	19.8845	46.155520	0.000186	1.862573	0.631057	0.015223
 498	2.4850e-01	19.9149	46.230782	0.000184	1.841646	0.623966	0.015052
 499	2.4900e-01	19.9470	46.309038	0.000191	1.914893	0.648783	0.015651
 500	2.4950e-01	19.9871	46.384727	0.000185	1.852109	0.627512	0.015138
 501	2.5000e-01	20.0288	46.463410	0.000193	1.925357	0.652329	0.015737
 502	2.5050e-01	19.9855	46.504035	-0.000099	-0.994070	-0.336800	0.008125
 503	2.5100e-01	19.9502	46.500186	0.000009	0.094175	0.031907	-0.000770
 504	2.5150e-01	19.9021	46.467687	0.000080	0.795256	0.269440	-0.006500
 505	2.5200e-01	19.8267	46.415944	0.000127	1.266131	0.428977	-0.010349
 506	2.5250e-01	19.8187	46.359925	0.000137	1.370770	0.464430	-0.011204
 507	2.5300e-01	19.7994	46.307755	0.000128	1.276595	0.432522	-0.010434
 508	2.5350e-01	19.7289	46.234631	0.000179	1.789326	0.606240	-0.014625
 509	2.5400e-01	19.7032	46.178612	0.000137	1.370770	0.464430	-0.011204
 510	2.5450e-01	19.6775	46.095225	0.000204	2.040460	0.691326	-0.016677
 511	2.5500e-01	19.6214	46.034075	0.000150	1.496337	0.506973	-0.012230
 512	2.5550e-01	19.5700	45.961378	0.000178	1.778862	0.602695	-0.014539
 513	2.5600e-01	19.5235	45.902366	0.000144	1.444018	0.489246	-0.011802
 514	2.5650e-01	19.4994	45.832235	0.000172	1.716079	0.581423	-0.014026
 515	2.5700e-01	19.4626	45.750131	0.000201	2.009068	0.680691	-0.016421
 516	2.5750e-01	19.4080	45.678718	0.000175	1.747470	0.592059	-0.014283
 517	2.5800e-01	19.3968	45.607305	0.000175	1.747470	0.592059	-0.014283
 518	2.5850e-01	19.3390	45.539740	0.000165	1.653295	0.560152	-0.013513
 519	2.5900e-01	19.2893	45.489708	0.000122	1.224276	0.414796	-0.010006
 520	2.5950e-01	19.2668	45.402472	0.000213	2.134635	0.723234	-0.017447
 521	2.6000e-01	19.2267	45.335763	0.000163	1.632368	0.553061	-0.013342
 522	2.6050e-01	19.1754	45.270764	0.000159	1.590512	0.538880	-0.013000
 523	2.6100e-01	19.1321	45.192080	0.000193	1.925357	0.652329	-0.015737
 524	2.6150e-01	19.0775	45.127509	0.000158	1.580048	0.535335	-0.012914
 525	2.6200e-01	19.0583	45.055240	0.000177	1.768398	0.599150	-0.014454
 526	2.6250e-01	18.9909	44.997083	0.000142	1.423090	0.482156	-0.011631
 527	2.6300e-01	18.9588	44.923532	0.000180	1.799790	0.609785	-0.014710
 528	2.6350e-01	18.9251	44.858960	0.000158	1.580048	0.535335	-0.012914
 529	2.6400e-01	18.9203	44.778994	0.000196	1.956748	0.662964	-0.015993
 530	2.6450e-01	18.8786	44.699029	0.000196	1.956748	0.662964	-0.015993
 531	2.6500e-01	18.8369	44.633174	0.000161	1.611440	0.545971	-0.013171
 532	2.6550e-01	18.7759	44.565182	0.000166	1.663759	0.563697	-0.013598
 533	2.6600e-01	18.7423	44.495051	0.000172	1.716079	0.581423	-0.014026
 534	2.6650e-01	18.6877	44.426631	0.000167	1.674223	0.567242	-0.013684
 535	2.6700e-01	18.6508	44.349659	0.000188	1.883501	0.638147	-0.015395
 536	2.6750e-01	18.6139	44.273969	0.000185	1.852109	0.627512	-0.015138
 537	2.6800e-01	18.5898	44.208115	0.000161	1.611440	0.545971	-0.013171
 538	2.6850e-01	18.5481	44.133280	0.000183	1.831182	0.620421	-0.014967
 539	2.6900e-01	18.5000	44.068281	0.000159	1.590512	0.538880	-0.013000
 540	2.6950e-01	18.4679	43.994302	0.000181	1.810254	0.613331	-0.014796
 541	2.7000e-01	18.4374	43.937856	0.000138	1.381234	0.467975	-0.011289
 542	2.7050e-01	18.3813	43.843778	0.000230	2.302057	0.779958	-0.018816
 543	2.7100e-01	18.3252	43.778351	0.000160	1.600976	0.542425	-0.013085
 544	2.7150e-01	18.3268	43.696247	-0.000201	-2.009068	-0.680691	-0.016421
 545	2.7200e-01	18.2433	43.633814	0.000153	1.527729	0.517608	-0.012487
 546	2.7250e-01	18.2369	43.555986	0.000190	1.904429	0.645238	-0.015566
 547	2.7300e-01	18.1776	43.485856	0.000172	1.716079	0.581423	-0.014026
 548	2.7350e-01	18.1310	43.414870	0.000174	1.737007	0.588514	-0.014197
 549	2.7400e-01	18.0877	43.336187	0.000193	1.925357	0.652329	-0.015737
 550	2.7450e-01	18.0556	43.267767	0.000167	1.674223	0.567242	-0.013684
 551	2.7500e-01	18.0155	43.196353	0.000175	1.747470	0.592059	-0.014283
 552	2.7550e-01	17.9626	43.127506	0.000168	1.684687	0.570787	-0.013770
 553	2.7600e-01	17.9177	43.048823	0.000193	1.925357	0.652329	-0.015737
 554	2.7650e-01	17.9048	42.970567	0.000191	1.914893	0.648783	-0.015651
 555	2.7700e-01	17.8904	42.889746	0.000198	1.977676	0.670055	-0.016164
 556	2.7750e-01	17.8150	42.823892	0.000161	1.611440	0.545971	-0.013171
 557	2.7800e-01	17.7749	42.754616	0.000170	1.695151	0.574333	-0.013855
 558	2.7850e-01	17.7540	42.665243	0.000219	2.186954	0.740960	-0.017875
 559	2.7900e-01	17.7075	42.595967	0.000170	1.695151	0.574333	-0.013855
 560	2.7950e-01	17.6466	42.531396	0.000158	1.580048	0.535335	-0.012914
 561	2.8000e-01	17.6225	42.453568	0.000190	1.904429	0.645238	-0.015566
 562	2.8050e-01	17.5856	42.380017	0.000180	1.799790	0.609785	-0.014710
 563	2.8100e-01	17.5054	42.311169	0.000168	1.684687	0.570787	-0.013770
 564	2.8150e-01	17.4861	42.229493	0.000200	1.998604	0.677145	-0.016335
 565	2.8200e-01	17.4460	42.164921	0.000158	1.580048	0.535335	-0.012914
 566	2.8250e-01	17.4316	42.082817	0.000201	2.009068	0.680691	-0.016421
 567	2.8300e-01	17.3995	42.004989	0.000190	1.904429	0.645238	-0.015566
 568	2.8350e-01	17.3289	41.936997	0.000166	1.663759	0.563697	-0.013598
 569	2.8400e-01	17.3049	41.862590	0.000182	1.820718	0.616876	-0.014881
 570	2.8450e-01	17.2407	41.792032	0.000173	1.726543	0.584968	-0.014112
 571	2.8500e-01	17.2054	41.709073	0.000203	2.029996	0.687781	-0.016592
 572	2.8550e-01	17.1781	41.639797	0.000170	1.695151	0.574333	-0.013855
 573	2.8600e-01	17.1364	41.552562	0.000213	2.134635	0.723234	-0.017447
 574	2.8650e-01	17.0915	41.488418	0.000157	1.569584	0.531790	-0.012829
 575	2.8700e-01	17.0642	41.407597	0.000198	1.977676	0.670055	-0.016164
 576	2.8750e-01	17.0033	41.329341	0.000191	1.914893	0.648783	-0.015651
 577	2.8800e-01	16.9776	41.258356	0.000174	1.737007	0.588514	-0.014197
 578	2.8850e-01	16.9311	41.182238	0.000186	1.862573	0.631057	-0.015223
 579	2.8900e-01	16.9022	41.102700	0.000195	1.946284	0.659419	-0.015908
 580	2.8950e-01	16.8685	41.027438	0.000184	1.841646	0.623966	-0.015052
 581	2.9000e-01	16.8188	40.965005	0.000153	1.527729	0.517608	-0.012487
 582	2.9050e-01	16.7899	40.886749	0.000191	1.914893	0.648783	-0.015651
 583	2.9100e-01	16.7321	40.809349	0.000189	1.893965	0.641693	-0.015480
 584	2.9150e-01	16.7241	40.740501	0.000168	1.684687	0.570787	-0.013770
 585	2.9200e-01	16.6680	40.649417	0.000223	2.228810	0.755141	-0.018217
 586	2.9250e-01	16.6134	40.585701	0.000156	1.559120	0.528244	-0.012743
 587	2.9300e-01	16.5605	40.516853	0.000168	1.684687	0.570787	-0.013770
 588	2.9350e-01	16.5428	40.429190	0.000215	2.145098	0.726779	-0.017533
 589	2.9400e-01	16.4931	40.356921	0.000177	1.768398	0.599150	-0.014454
 590	2.9450e-01	16.4707	40.273535	0.000204	2.040460	0.691326	-0.016677
 591	2.9500e-01	16.4306	40.193141	0.000197	1.967212	0.666510	-0.016079
 592	2.9550e-01	16.3824	40.121300	0.000176	1.757934	0.595604	-0.014368
 593	2.9600e-01	16.3391	40.049459	0.000176	1.757934	0.595604	-0.014368
 594	2.9650e-01	16.2894	39.972059	0.000189	1.893965	0.641693	-0.015480
 595	2.9700e-01	16.2300	39.900645	0.000175	1.747470	0.592059	-0.014283
 596	2.9750e-01	16.2011	39.826239	0.000182	1.820718	0.616876	-0.014881
 597	2.9800e-01	16.2011	39.747983	0.000191	1.914893	0.648783	-0.015651
 598	2.9850e-01	16.1338	39.654761	0.000228	2.281129	0.772867	-0.018644
 599	2.9900e-01	16.0664	39.588479	0.000162	1.621904	0.549516	-0.013256
 600	2.9950e-01	16.0552	39.508513	0.000196	1.956748	0.662964	-0.015993
 601	3.0000e-01	16.0375	39.420850	0.000215	2.145098	0.726779	-0.017533
 602	3.0050e-01	15.9846	39.362693	0.000142	1.423090	0.482156	-0.011631
 603	3.0100e-01	15.9573	39.275457	0.000213	2.134635	0.723234	-0.017447
 604	3.0150e-01	15.9124	39.197202	0.000191	1.914893	0.648783	-0.015651
 605	3.0200e-01	15.8755	39.116808	0.000197	1.967212	0.666510	-0.016079
 606	3.0250e-01	15.8177	39.050526	0.000162	1.621904	0.549516	-0.013256
 607	3.0300e-01	15.7905	38.962435	0.000216	2.155562	0.730324	-0.017618
 608	3.0350e-01	15.7215	38.879904	0.000202	2.019532	0.684236	-0.016506
 609	3.0400e-01	15.6942	38.809773	0.000172	1.716079	0.581423	-0.014026
 610	3.0450e-01	15.6397	38.731090	0.000193	1.925357	0.652329	-0.015737
 611	3.0500e-01	15.6108	38.659677	0.000175	1.747470	0.592059	-0.014283
 612	3.0550e-01	15.5659	38.575007	0.000207	2.071851	0.701962	-0.016934
 613	3.0600e-01	15.5562	38.495469	0.000195	1.946284	0.659419	-0.015908
 614	3.0650e-01	15.4905	38.419351	0.000186	1.862573	0.631057	-0.015223
 615	3.0700e-01	15.4664	38.351787	0.000165	1.653295	0.560152	-0.013513
 616	3.0750e-01	15.4199	38.272248	0.000195	1.946284	0.659419	-0.015908
 617	3.0800e-01	15.4022	38.190144	0.000201	2.009068	0.680691	-0.016421
 618	3.0850e-01	15.3365	38.110606	0.000195	1.946284	0.659419	-0.015908
 619	3.0900e-01	15.2915	38.030640	0.000196	1.956748	0.662964	-0.015993
 620	3.0950e-01	15.2354	37.962648	0.000166	1.663759	0.563697	-0.013598
 621	3.1000e-01	15.2049	37.870708	0.000225	2.249737	0.762232	-0.018388
 622	3.1050e-01	15.1825	37.792025	0.000193	1.925357	0.652329	-0.015737
 623	3.1100e-01	15.1584	37.711204	0.000198	1.977676	0.670055	-0.016164
 624	3.1150e-01	15.1071	37.643639	0.000165	1.653295	0.560152	-0.013513
 625	3.1200e-01	15.0782	37.560680	0.000203	2.029996	0.687781	-0.016592
 626	3.1250e-01	15.0172	37.481569	0.000194	1.935821	0.655874	-0.015822
 627	3.1300e-01	14.9819	37.402458	0.000194	1.935821	0.655874	-0.015822
 628	3.1350e-01	14.9306	37.325914	0.000187	1.873037	0.634602	-0.015309
 629	3.1400e-01	14.9178	37.239106	0.000212	2.124171	0.719689	-0.017362
 630	3.1450e-01	14.8648	37.186508	0.000129	1.287059	0.436067	-0.010520
 631	3.1500e-01	14.8119	37.083878	0.000251	2.511335	0.850863	-0.020526
 632	3.1550e-01	14.7766	37.012037	0.000176	1.757934	0.595604	-0.014368
 633	3.1600e-01	14.7333	36.926939	0.000208	2.082315	0.705507	-0.017019
 634	3.1650e-01	14.6803	36.852105	0.000183	1.831182	0.620421	-0.014967
 635	3.1700e-01	14.6418	36.770001	0.000201	2.009068	0.680691	-0.016421
 636	3.1750e-01	14.6178	36.691318	0.000193	1.925357	0.652329	-0.015737
 637	3.1800e-01	14.5937	36.599806	0.000224	2.239274	0.758686	-0.018302
 638	3.1850e-01	14.5680	36.526254	0.000180	1.799790	0.609785	-0.014710
 639	3.1900e-01	14.5119	36.443295	0.000203	2.029996	0.687781	-0.016592
 640	3.1950e-01	14.4590	36.372737	0.000173	1.726543	0.584968	-0.014112
 641	3.2000e-01	14.4012	36.291488	0.000199	1.988140	0.673600	-0.016250
 642	3.2050e-01	14.3691	36.205535	0.000210	2.103243	0.712598	-0.017191
 643	3.2100e-01	14.3210	36.125142	0.000197	1.967212	0.666510	-0.016079
 644	3.2150e-01	14.2921	36.043465	0.000200	1.998604	0.677145	-0.016335
 645	3.2200e-01	14.2697	35.964782	0.000193	1.925357	0.652329	-0.015737
 646	3.2250e-01	14.2119	35.883533	0.000199	1.988140	0.673600	-0.016250
 647	3.2300e-01	14.1766	35.798864	0.000207	2.071851	0.701962	-0.016934
 648	3.2350e-01	14.1189	35.720608	0.000191	1.914893	0.648783	-0.015651
 649	3.2400e-01	14.0916	35.647057	0.000180	1.799790	0.609785	-0.014710
 650	3.2450e-01	14.0402	35.566663	0.000197	1.967212	0.666510	-0.016079
 651	3.2500e-01	14.0033	35.484559	0.000201	2.009068	0.680691	-0.016421
 652	3.2550e-01	13.9777	35.398606	0.000210	2.103243	0.712598	-0.017191
 653	3.2600e-01	13.9376	35.319068	0.000195	1.946284	0.659419	-0.015908
 654	3.2650e-01	13.8686	35.242523	0.000187	1.873037	0.634602	-0.015309
 655	3.2700e-01	13.8493	35.157426	0.000208	2.082315	0.705507	-0.017019
 656	3.2750e-01	13.8173	35.068907	0.000217	2.166026	0.733870	-0.017704
 657	3.2800e-01	13.7900	34.988941	0.000196	1.956748	0.662964	-0.015993
 658	3.2850e-01	13.7258	34.910258	0.000193	1.925357	0.652329	-0.015737
 659	3.2900e-01	13.6937	34.825161	0.000208	2.082315	0.705507	-0.017019
 660	3.2950e-01	13.6633	34.746478	0.000193	1.925357	0.652329	-0.015737
 661	3.3000e-01	13.6328	34.659242	0.000213	2.134635	0.723234	-0.017447
 662	3.3050e-01	13.5879	34.585263	0.000181	1.810254	0.613331	-0.014796
 663	3.3100e-01	13.5445	34.492896	0.000226	2.260201	0.765777	-0.018473
 664	3.3150e-01	13.5012	34.411647	0.000199	1.988140	0.673600	-0.016250
 665	3.3200e-01	13.4531	34.345365	0.000162	1.621904	0.549516	-0.013256
 666	3.3250e-01	13.4034	34.262834	0.000202	2.019532	0.684236	-0.016506
 667	3.3300e-01	13.3889	34.167046	0.000234	2.343912	0.794139	-0.019158
 668	3.3350e-01	13.3344	34.097343	0.000171	1.705615	0.577878	-0.013941
 669	3.3400e-01	13.2734	34.014811	0.000202	2.019532	0.684236	-0.016506
 670	3.3450e-01	13.2365	33.925865	0.000218	2.176490	0.737415	-0.017789
 671	3.3500e-01	13.2109	33.838629	0.000213	2.134635	0.723234	-0.017447
 672	3.3550e-01	13.1483	33.768071	0.000173	1.726543	0.584968	-0.014112
 673	3.3600e-01	13.1371	33.674849	0.000228	2.281129	0.772867	-0.018644
 674	3.3650e-01	13.1050	33.587186	0.000215	2.145098	0.726779	-0.017533
 675	3.3700e-01	13.0921	33.505509	0.000200	1.998604	0.677145	-0.016335
 676	3.3750e-01	12.9991	33.429820	0.000185	1.852109	0.627512	-0.015138
 677	3.3800e-01	12.9430	33.346005	0.000205	2.050923	0.694872	-0.016763
 678	3.3850e-01	12.9349	33.257487	0.000217	2.166026	0.733870	-0.017704
 679	3.3900e-01	12.9173	33.159133	0.000241	2.406696	0.815411	-0.019671
 680	3.3950e-01	12.8371	33.090285	0.000168	1.684687	0.570787	-0.013770
 681	3.4000e-01	12.8258	33.001767	0.000217	2.166026	0.733870	-0.017704
 682	3.4050e-01	12.7889	32.930781	0.000174	1.737007	0.588514	-0.014197
 683	3.4100e-01	12.7296	32.848249	0.000202	2.019532	0.684236	-0.016506
 684	3.4150e-01	12.6799	32.760586	0.000215	2.145098	0.726779	-0.017533
 685	3.4200e-01	12.6430	32.677627	0.000203	2.029996	0.687781	-0.016592
 686	3.4250e-01	12.6253	32.591674	0.000210	2.103243	0.712598	-0.017191
 687	3.4300e-01	12.5772	32.514274	0.000189	1.893965	0.641693	-0.015480
 688	3.4350e-01	12.5194	32.439012	0.000184	1.841646	0.623966	-0.015052
 689	3.4400e-01	12.4793	32.350921	0.000216	2.155562	0.730324	-0.017618
 690	3.4450e-01	12.4553	32.261120	0.000220	2.197418	0.744505	-0.017960
 691	3.4500e-01	12.4055	32.173029	0.000216	2.155562	0.730324	-0.017618
 692	3.4550e-01	12.3702	32.094346	0.000193	1.925357	0.652329	-0.015737
 693	3.4600e-01	12.3398	32.003262	0.000223	2.228810	0.755141	-0.018217
 694	3.4650e-01	12.2724	31.928427	0.000183	1.831182	0.620421	-0.014967
 695	3.4700e-01	12.2547	31.832212	0.000235	2.354376	0.797684	-0.019243
 696	3.4750e-01	12.2323	31.757805	0.000182	1.820718	0.616876	-0.014881
 697	3.4800e-01	12.1809	31.660734	0.000238	2.375304	0.804775	-0.019414
 698	3.4850e-01	12.1264	31.591459	0.000170	1.695151	0.574333	-0.013855
 699	3.4900e-01	12.0975	31.497381	0.000230	2.302057	0.779958	-0.018816
 700	3.4950e-01	12.0558	31.403303	0.000230	2.302057	0.779958	-0.018816
 701	3.5000e-01	12.0077	31.324193	0.000194	1.935821	0.655874	-0.015822
 702	3.5050e-01	11.9387	31.242089	0.000201	2.009068	0.680691	-0.016421
 703	3.5100e-01	11.9483	31.151005	-0.000223	-2.228810	-0.755141	-0.018217
 704	3.5150e-01	11.8697	31.071039	0.000196	1.956748	0.662964	-0.015993
 705	3.5200e-01	11.8649	30.980382	0.000222	2.218346	0.751596	-0.018131
 706	3.5250e-01	11.7831	30.902982	0.000189	1.893965	0.641693	-0.015480
 707	3.5300e-01	11.7943	30.811042	-0.000225	-2.249737	-0.762232	-0.018388
 708	3.5350e-01	11.7414	30.736636	0.000182	1.820718	0.616876	-0.014881
 709	3.5400e-01	11.7045	30.640848	0.000234	2.343912	0.794139	-0.019158
 710	3.5450e-01	11.6772	30.545915	0.000232	2.322985	0.787049	-0.018987
 711	3.5500e-01	11.6211	30.457824	0.000216	2.155562	0.730324	-0.017618
 712	3.5550e-01	11.5954	30.372727	0.000208	2.082315	0.705507	-0.017019
 713	3.5600e-01	11.5200	30.291478	0.000199	1.988140	0.673600	-0.016250
 714	3.5650e-01	11.4975	30.205953	0.000209	2.092779	0.709053	-0.017105
 715	3.5700e-01	11.4462	30.120000	0.000210	2.103243	0.712598	-0.017191
 716	3.5750e-01	11.4125	30.036185	0.000205	2.050923	0.694872	-0.016763
 717	3.5800e-01	11.3804	29.940825	0.000233	2.333449	0.790594	-0.019072
 718	3.5850e-01	11.3163	29.864280	0.000187	1.873037	0.634602	-0.015309
 719	3.5900e-01	11.3082	29.765926	0.000241	2.406696	0.815411	-0.019671
 720	3.5950e-01	11.2553	29.679974	0.000210	2.103243	0.712598	-0.017191
 721	3.6000e-01	11.2248	29.598297	0.000200	1.998604	0.677145	-0.016335
 722	3.6050e-01	11.2120	29.506785	0.000224	2.239274	0.758686	-0.018302
 723	3.6100e-01	11.1430	29.423826	0.000203	2.029996	0.687781	-0.016592
 724	3.6150e-01	11.1061	29.343433	0.000197	1.967212	0.666510	-0.016079
 725	3.6200e-01	11.0307	29.260473	0.000203	2.029996	0.687781	-0.016592
 726	3.6250e-01	10.9986	29.165540	0.000232	2.322985	0.787049	-0.018987
 727	3.6300e-01	10.9665	29.075311	0.000221	2.207882	0.748051	-0.018046
 728	3.6350e-01	10.9264	28.985083	0.000221	2.207882	0.748051	-0.018046
 729	3.6400e-01	10.9264	28.889294	0.000234	2.343912	0.794139	-0.019158
 730	3.6450e-01	10.8350	28.816171	0.000179	1.789326	0.606240	-0.014625
 731	3.6500e-01	10.8109	28.718244	0.000240	2.396232	0.811865	-0.019585
 732	3.6550e-01	10.7772	28.638706	0.000195	1.946284	0.659419	-0.015908
 733	3.6600e-01	10.7323	28.542063	0.000236	2.364840	0.801230	-0.019329
 734	3.6650e-01	10.7147	28.457393	0.000207	2.071851	0.701962	-0.016934
 735	3.6700e-01	10.6698	28.370585	0.000212	2.124171	0.719689	-0.017362
 736	3.6750e-01	10.6056	28.288053	0.000202	2.019532	0.684236	-0.016506
 737	3.6800e-01	10.5960	28.197824	0.000221	2.207882	0.748051	-0.018046
 738	3.6850e-01	10.5109	28.104602	0.000228	2.281129	0.772867	-0.018644
 739	3.6900e-01	10.5190	28.014373	-0.000221	-2.207882	-0.748051	-0.018046
 740	3.6950e-01	10.4740	27.921578	0.000227	2.270665	0.769322	-0.018559
 741	3.7000e-01	10.4034	27.837336	0.000206	2.061387	0.698417	-0.016848
 742	3.7050e-01	10.3922	27.735989	0.000248	2.479943	0.840227	-0.020269
 743	3.7100e-01	10.3409	27.659017	0.000188	1.883501	0.638147	-0.015395
 744	3.7150e-01	10.3072	27.570926	0.000216	2.155562	0.730324	-0.017618
 745	3.7200e-01	10.2334	27.476848	0.000230	2.302057	0.779958	-0.018816
 746	3.7250e-01	10.2174	27.393034	0.000205	2.050923	0.694872	-0.016763
 747	3.7300e-01	10.1837	27.308364	0.000207	2.071851	0.701962	-0.016934
 748	3.7350e-01	10.1339	27.215142	0.000228	2.281129	0.772867	-0.018644
 749	3.7400e-01	10.1147	27.127906	0.000213	2.134635	0.723234	-0.017447
 750	3.7450e-01	10.0345	27.042381	0.000209	2.092779	0.709053	-0.017105
 751	3.7500e-01	10.0232	26.948303	0.000230	2.302057	0.779958	-0.018816
 752	3.7550e-01	9.9639	26.854653	0.000229	2.291593	0.776413	-0.018730
 753	3.7600e-01	9.9366	26.772549	0.000201	2.009068	0.680691	-0.016421
 754	3.7650e-01	9.9061	26.670347	0.000250	2.500871	0.847318	-0.020440
 755	3.7700e-01	9.8436	26.584394	0.000210	2.103243	0.712598	-0.017191
 756	3.7750e-01	9.8356	26.504001	0.000197	1.967212	0.666510	-0.016079
 757	3.7800e-01	9.7858	26.403936	0.000245	2.448551	0.829592	-0.020013
 758	3.7850e-01	9.7425	26.313280	0.000222	2.218346	0.751596	-0.018131
 759	3.7900e-01	9.6880	26.221768	0.000224	2.239274	0.758686	-0.018302
 760	3.7950e-01	9.6463	26.130256	0.000224	2.239274	0.758686	-0.018302
 761	3.8000e-01	9.5981	26.044731	0.000209	2.092779	0.709053	-0.017105
 762	3.8050e-01	9.5965	25.948943	0.000234	2.343912	0.794139	-0.019158
 763	3.8100e-01	9.5420	25.862990	0.000210	2.103243	0.712598	-0.017191
 764	3.8150e-01	9.5147	25.762498	0.000246	2.459015	0.833137	-0.020098
 765	3.8200e-01	9.4586	25.675263	0.000213	2.134635	0.723234	-0.017447
 766	3.8250e-01	9.4136	25.589738	0.000209	2.092779	0.709053	-0.017105
 767	3.8300e-01	9.3623	25.498226	0.000224	2.239274	0.758686	-0.018302
 768	3.8350e-01	9.3382	25.403293	0.000232	2.322985	0.787049	-0.018987
 769	3.8400e-01	9.2997	25.306650	0.000236	2.364840	0.801230	-0.019329
 770	3.8450e-01	9.2596	25.219414	0.000213	2.134635	0.723234	-0.017447
 771	3.8500e-01	9.2227	25.127047	0.000226	2.260201	0.765777	-0.018473
 772	3.8550e-01	9.1666	25.038529	0.000217	2.166026	0.733870	-0.017704
 773	3.8600e-01	9.1377	24.942741	0.000234	2.343912	0.794139	-0.019158
 774	3.8650e-01	9.0896	24.853367	0.000219	2.186954	0.740960	-0.017875
 775	3.8700e-01	9.0495	24.774684	0.000193	1.925357	0.652329	-0.015737
 776	3.8750e-01	9.0094	24.679324	0.000233	2.333449	0.790594	-0.019072
 777	3.8800e-01	8.9869	24.589950	0.000219	2.186954	0.740960	-0.017875
 778	3.8850e-01	8.9500	24.491169	0.000242	2.417160	0.818956	-0.019756
 779	3.8900e-01	8.8730	24.398374	0.000227	2.270665	0.769322	-0.018559
 780	3.8950e-01	8.8361	24.307290	0.000223	2.228810	0.755141	-0.018217
 781	3.9000e-01	8.8153	24.208936	0.000241	2.406696	0.815411	-0.019671
 782	3.9050e-01	8.7848	24.120417	0.000217	2.166026	0.733870	-0.017704
 783	3.9100e-01	8.7367	24.017787	0.000251	2.511335	0.850863	-0.020526
 784	3.9150e-01	8.7110	23.935683	0.000201	2.009068	0.680691	-0.016421
 785	3.9200e-01	8.6500	23.830915	0.000256	2.563654	0.868590	-0.020954
 786	3.9250e-01	8.6163	23.753515	0.000189	1.893965	0.641693	-0.015480
 787	3.9300e-01	8.5650	23.649174	0.000255	2.553190	0.865044	-0.020868
 788	3.9350e-01	8.5297	23.541840	0.000263	2.626438	0.889861	-0.021467
 789	3.9400e-01	8.4928	23.465296	0.000187	1.873037	0.634602	-0.015309
 790	3.9450e-01	8.4511	23.366086	0.000243	2.427624	0.822501	-0.019842
 791	3.9500e-01	8.4078	23.280561	0.000209	2.092779	0.709053	-0.017105
 792	3.9550e-01	8.3966	23.188194	0.000226	2.260201	0.765777	-0.018473
 793	3.9600e-01	8.3484	23.097538	0.000222	2.218346	0.751596	-0.018131
 794	3.9650e-01	8.3179	23.002177	0.000233	2.333449	0.790594	-0.019072
 795	3.9700e-01	8.2570	22.912804	0.000219	2.186954	0.740960	-0.017875
 796	3.9750e-01	8.2137	22.811456	0.000248	2.479943	0.840227	-0.020269
 797	3.9800e-01	8.1704	22.719945	0.000224	2.239274	0.758686	-0.018302
 798	3.9850e-01	8.1463	22.616032	0.000254	2.542726	0.861499	-0.020783
 799	3.9900e-01	8.0693	22.524092	0.000225	2.249737	0.762232	-0.018388
 800	3.9950e-01	8.0500	22.435146	0.000218	2.176490	0.737415	-0.017789
 801	4.0000e-01	8.0244	22.345773	0.000219	2.186954	0.740960	-0.017875
 802	4.0050e-01	7.9939	22.244425	0.000248	2.479943	0.840227	-0.020269
 803	4.0100e-01	7.9746	22.136236	0.000265	2.647365	0.896952	-0.021638
 804	4.0150e-01	7.8960	22.048145	0.000216	2.155562	0.730324	-0.017618
 805	4.0200e-01	7.8335	21.953213	0.000232	2.322985	0.787049	-0.018987
 806	4.0250e-01	7.7821	21.860845	0.000226	2.260201	0.765777	-0.018473
 807	4.0300e-01	7.7677	21.777031	0.000205	2.050923	0.694872	-0.016763
 808	4.0350e-01	7.7212	21.680815	0.000235	2.354376	0.797684	-0.019243
 809	4.0400e-01	7.6907	21.567495	0.000277	2.772932	0.939495	-0.022664
 810	4.0450e-01	7.6410	21.479404	0.000216	2.155562	0.730324	-0.017618
 811	4.0500e-01	7.6073	21.381050	0.000241	2.406696	0.815411	-0.019671
 812	4.0550e-01	7.5575	21.289110	0.000225	2.249737	0.762232	-0.018388
 813	4.0600e-01	7.4950	21.197171	0.000225	2.249737	0.762232	-0.018388
 814	4.0650e-01	7.4982	21.106514	-0.000222	-2.218346	-0.751596	-0.018131
 815	4.0700e-01	7.4693	21.009444	0.000238	2.375304	0.804775	-0.019414
 816	4.0750e-01	7.3971	20.913228	0.000235	2.354376	0.797684	-0.019243
 817	4.0800e-01	7.3714	20.812736	0.000246	2.459015	0.833137	-0.020098
 818	4.0850e-01	7.3362	20.721224	0.000224	2.239274	0.758686	-0.018302
 819	4.0900e-01	7.2928	20.637410	0.000205	2.050923	0.694872	-0.016763
 820	4.0950e-01	7.2608	20.531358	0.000260	2.595046	0.879225	-0.021210
 821	4.1000e-01	7.2046	20.424452	0.000262	2.615974	0.886316	-0.021381
 822	4.1050e-01	7.1773	20.325671	0.000242	2.417160	0.818956	-0.019756
 823	4.1100e-01	7.1292	20.233304	0.000226	2.260201	0.765777	-0.018473
 824	4.1150e-01	7.1068	20.136233	0.000238	2.375304	0.804775	-0.019414
 825	4.1200e-01	7.0474	20.047714	0.000217	2.166026	0.733870	-0.017704
 826	4.1250e-01	7.0330	19.942091	0.000258	2.584582	0.875680	-0.021125
 827	4.1300e-01	6.9640	19.855711	0.000211	2.113707	0.716143	-0.017276
 828	4.1350e-01	6.9207	19.760778	0.000232	2.322985	0.787049	-0.018987
 829	4.1400e-01	6.9030	19.639760	0.000296	2.961282	1.003310	-0.024204
 830	4.1450e-01	6.8340	19.548676	0.000223	2.228810	0.755141	-0.018217
 831	4.1500e-01	6.8003	19.462723	0.000210	2.103243	0.712598	-0.017191
 832	4.1550e-01	6.7683	19.355817	0.000262	2.615974	0.886316	-0.021381
 833	4.1600e-01	6.7474	19.254469	0.000248	2.479943	0.840227	-0.020269
 834	4.1650e-01	6.7057	19.147991	0.000261	2.605510	0.882771	-0.021296
 835	4.1700e-01	6.6528	19.048354	0.000244	2.438088	0.826046	-0.019927
 836	4.1750e-01	6.6062	18.971381	0.000188	1.883501	0.638147	-0.015395
 837	4.1800e-01	6.5806	18.867469	0.000254	2.542726	0.861499	-0.020783
 838	4.1850e-01	6.5308	18.769542	0.000240	2.396232	0.811865	-0.019585
 839	4.1900e-01	6.5004	18.672899	0.000236	2.364840	0.801230	-0.019329
 840	4.1950e-01	6.5100	18.548888	-0.000303	-3.034530	-1.028126	-0.024802
 841	4.2000e-01	6.4137	18.475336	0.000180	1.799790	0.609785	-0.014710
 842	4.2050e-01	6.3608	18.391094	0.000206	2.061387	0.698417	-0.016848
 843	4.2100e-01	6.3335	18.279911	0.000272	2.720613	0.921769	-0.022237
 844	4.2150e-01	6.2902	18.178564	0.000248	2.479943	0.840227	-0.020269
 845	4.2200e-01	6.2485	18.081066	0.000239	2.385768	0.808320	-0.019500
 846	4.2250e-01	6.2373	17.982712	0.000241	2.406696	0.815411	-0.019671
 847	4.2300e-01	6.1506	17.885213	0.000239	2.385768	0.808320	-0.019500
 848	4.2350e-01	6.1570	17.788998	-0.000235	-2.354376	-0.797684	-0.019243
 849	4.2400e-01	6.1089	17.683802	0.000257	2.574118	0.872135	-0.021039
 850	4.2450e-01	6.0544	17.585876	0.000240	2.396232	0.811865	-0.019585
 851	4.2500e-01	5.9886	17.492226	0.000229	2.291593	0.776413	-0.018730
 852	4.2550e-01	5.9902	17.376339	-0.000284	-2.835716	-0.960766	-0.023177
 853	4.2600e-01	5.9357	17.283972	0.000226	2.260201	0.765777	-0.018473
 854	4.2650e-01	5.8891	17.183053	0.000247	2.469479	0.836682	-0.020184
 855	4.2700e-01	5.8506	17.083416	0.000244	2.438088	0.826046	-0.019927
 856	4.2750e-01	5.8218	16.989766	0.000229	2.291593	0.776413	-0.018730
 857	4.2800e-01	5.7881	16.885853	0.000254	2.542726	0.861499	-0.020783
 858	4.2850e-01	5.7335	16.780657	0.000257	2.574118	0.872135	-0.021039
 859	4.2900e-01	5.6790	16.693422	0.000213	2.134635	0.723234	-0.017447
 860	4.2950e-01	5.6501	16.591647	0.000249	2.490407	0.843773	-0.020355
 861	4.3000e-01	5.6100	16.477899	0.000278	2.783396	0.943040	-0.022750
 862	4.3050e-01	5.5763	16.381255	0.000236	2.364840	0.801230	-0.019329
 863	4.3100e-01	5.5282	16.282474	0.000242	2.417160	0.818956	-0.019756
 864	4.3150e-01	5.4865	16.175140	0.000263	2.626438	0.889861	-0.021467
 865	4.3200e-01	5.4624	16.082773	0.000226	2.260201	0.765777	-0.018473
 866	4.3250e-01	5.3806	15.980570	0.000250	2.500871	0.847318	-0.020440
 867	4.3300e-01	5.3806	15.874092	0.000261	2.605510	0.882771	-0.021296
 868	4.3350e-01	5.3373	15.767185	0.000262	2.615974	0.886316	-0.021381
 869	4.3400e-01	5.2827	15.664983	0.000250	2.500871	0.847318	-0.020440
 870	4.3450e-01	5.2715	15.561925	0.000252	2.521799	0.854409	-0.020612
 871	4.3500e-01	5.2122	15.463144	0.000242	2.417160	0.818956	-0.019756
 872	4.3550e-01	5.1801	15.352389	0.000271	2.710149	0.918223	-0.022151
 873	4.3600e-01	5.1351	15.263870	0.000217	2.166026	0.733870	-0.017704
 874	4.3650e-01	5.1079	15.157819	0.000260	2.595046	0.879225	-0.021210
 875	4.3700e-01	5.0341	15.072722	0.000208	2.082315	0.705507	-0.017019
 876	4.3750e-01	5.0245	14.960684	0.000274	2.741540	0.928859	-0.022408
 877	4.3800e-01	4.9892	14.853350	0.000263	2.626438	0.889861	-0.021467
 878	4.3850e-01	4.9410	14.751575	0.000249	2.490407	0.843773	-0.020355
 879	4.3900e-01	4.8913	14.644241	0.000263	2.626438	0.889861	-0.021467
 880	4.3950e-01	4.8656	14.525789	0.000290	2.898499	0.982038	-0.023690
 881	4.4000e-01	4.8352	14.427008	0.000242	2.417160	0.818956	-0.019756
 882	4.4050e-01	4.7790	14.327799	0.000243	2.427624	0.822501	-0.019842
 883	4.4100e-01	4.7325	14.230728	0.000238	2.375304	0.804775	-0.019414
 884	4.4150e-01	4.6828	14.133657	0.000238	2.375304	0.804775	-0.019414
 885	4.4200e-01	4.6731	14.019481	0.000279	2.793860	0.946585	-0.022835
 886	4.4250e-01	4.6186	13.911719	0.000264	2.636902	0.893406	-0.021552
 887	4.4300e-01	4.5993	13.800109	0.000273	2.731077	0.925314	-0.022322
 888	4.4350e-01	4.5560	13.703466	0.000236	2.364840	0.801230	-0.019329
 889	4.4400e-01	4.4967	13.604684	0.000242	2.417160	0.818956	-0.019756
 890	4.4450e-01	4.4405	13.494357	0.000270	2.699685	0.914678	-0.022065
 891	4.4500e-01	4.4036	13.385313	0.000267	2.668293	0.904042	-0.021809
 892	4.4550e-01	4.3699	13.286959	0.000241	2.406696	0.815411	-0.019671
 893	4.4600e-01	4.3362	13.178342	0.000266	2.657829	0.900497	-0.021723
 894	4.4650e-01	4.2865	13.078705	0.000244	2.438088	0.826046	-0.019927
 895	4.4700e-01	4.2544	12.970944	0.000264	2.636902	0.893406	-0.021552
 896	4.4750e-01	4.2207	12.868314	0.000251	2.511335	0.850863	-0.020526
 897	4.4800e-01	4.1694	12.757131	0.000272	2.720613	0.921769	-0.022237
 898	4.4850e-01	4.1421	12.658777	0.000241	2.406696	0.815411	-0.019671
 899	4.4900e-01	4.0828	12.535621	0.000301	3.013602	1.021036	-0.024631
 900	4.4950e-01	4.0298	12.433846	0.000249	2.490407	0.843773	-0.020355
 901	4.5000e-01	4.0042	12.331644	0.000250	2.500871	0.847318	-0.020440
 902	4.5050e-01	3.9801	12.229014	0.000251	2.511335	0.850863	-0.020526
 903	4.5100e-01	3.9384	12.127667	0.000248	2.479943	0.840227	-0.020269
 904	4.5150e-01	3.9095	12.007504	0.000294	2.940354	0.996219	-0.024033
 905	4.5200e-01	3.8325	11.903591	0.000254	2.542726	0.861499	-0.020783
 906	4.5250e-01	3.8309	11.796685	0.000262	2.615974	0.886316	-0.021381
 907	4.5300e-01	3.7491	11.698331	0.000241	2.406696	0.815411	-0.019671
 908	4.5350e-01	3.7298	11.587148	0.000272	2.720613	0.921769	-0.022237
 909	4.5400e-01	3.7379	11.465703	-0.000297	-2.971746	-1.006855	-0.024289
 910	4.5450e-01	3.6625	11.367776	0.000240	2.396232	0.811865	-0.019585
 911	4.5500e-01	3.6015	11.256594	0.000272	2.720613	0.921769	-0.022237
 912	4.5550e-01	3.5871	11.154391	0.000250	2.500871	0.847318	-0.020440
 913	4.5600e-01	3.5149	11.048768	0.000258	2.584582	0.875680	-0.021125
 914	4.5650e-01	3.5133	10.930316	0.000290	2.898499	0.982038	-0.023690
 915	4.5700e-01	3.4507	10.826403	0.000254	2.542726	0.861499	-0.020783
 916	4.5750e-01	3.3978	10.722918	0.000253	2.532263	0.857954	-0.020697
 917	4.5800e-01	3.3625	10.607459	0.000283	2.825252	0.957221	-0.023092
 918	4.5850e-01	3.3240	10.504829	0.000251	2.511335	0.850863	-0.020526
 919	4.5900e-01	3.2999	10.382528	0.000299	2.992674	1.013945	-0.024460
 920	4.5950e-01	3.2422	10.284602	0.000240	2.396232	0.811865	-0.019585
 921	4.6000e-01	3.2438	10.164011	-0.000295	-2.950818	-0.999764	-0.024118
 922	4.6050e-01	3.1331	10.063519	0.000246	2.459015	0.833137	-0.020098
 923	4.6100e-01	3.1523	9.956185	-0.000263	-2.626438	-0.889861	-0.021467
 924	4.6150e-01	3.1106	9.845431	0.000271	2.710149	0.918223	-0.022151
 925	4.6200e-01	3.0304	9.732965	0.000275	2.752004	0.932404	-0.022493
 926	4.6250e-01	3.0015	9.626486	0.000261	2.605510	0.882771	-0.021296
 927	4.6300e-01	2.9678	9.522573	0.000254	2.542726	0.861499	-0.020783
 928	4.6350e-01	2.9181	9.406687	0.000284	2.835716	0.960766	-0.023177
 929	4.6400e-01	2.8908	9.295504	0.000272	2.720613	0.921769	-0.022237
 930	4.6450e-01	2.8443	9.191164	0.000255	2.553190	0.865044	-0.020868
 931	4.6500e-01	2.8299	9.073567	0.000288	2.877571	0.974947	-0.023519
 932	4.6550e-01	2.7705	8.959391	0.000279	2.793860	0.946585	-0.022835
 933	4.6600e-01	2.7464	8.846070	0.000277	2.772932	0.939495	-0.022664
 934	4.6650e-01	2.7031	8.738736	0.000263	2.626438	0.889861	-0.021467
 935	4.6700e-01	2.6566	8.627126	0.000273	2.731077	0.925314	-0.022322
 936	4.6750e-01	2.6181	8.515516	0.000273	2.731077	0.925314	-0.022322
 937	4.6800e-01	2.5459	8.400912	0.000280	2.804324	0.950131	-0.022921
 938	4.6850e-01	2.5267	8.284598	0.000285	2.846179	0.964312	-0.023263
 939	4.6900e-01	2.4737	8.169567	0.000281	2.814788	0.953676	-0.023006
 940	4.6950e-01	2.4352	8.056674	0.000276	2.762468	0.935950	-0.022579
 941	4.7000e-01	2.4272	7.936511	0.000294	2.940354	0.996219	-0.024033
 942	4.7050e-01	2.3662	7.830033	0.000261	2.605510	0.882771	-0.021296
 943	4.7100e-01	2.3342	7.720561	0.000268	2.678757	0.907587	-0.021894
 944	4.7150e-01	2.3037	7.606812	0.000278	2.783396	0.943040	-0.022750
 945	4.7200e-01	2.2620	7.497768	0.000267	2.668293	0.904042	-0.021809
 946	4.7250e-01	2.2058	7.381454	0.000285	2.846179	0.964312	-0.023263
 947	4.7300e-01	2.1802	7.272409	0.000267	2.668293	0.904042	-0.021809
 948	4.7350e-01	2.1336	7.157806	0.000280	2.804324	0.950131	-0.022921
 949	4.7400e-01	2.0823	7.031656	0.000309	3.086849	1.045853	-0.025230
 950	4.7450e-01	2.0374	6.932875	0.000242	2.417160	0.818956	-0.019756
 951	4.7500e-01	2.0181	6.796035	0.000335	3.348446	1.134484	-0.027368
 952	4.7550e-01	1.9684	6.684852	0.000272	2.720613	0.921769	-0.022237
 953	4.7600e-01	1.9459	6.568966	0.000284	2.835716	0.960766	-0.023177
 954	4.7650e-01	1.8625	6.462487	0.000261	2.605510	0.882771	-0.021296
 955	4.7700e-01	1.8705	6.337193	-0.000307	-3.065921	-1.038762	-0.025059
 956	4.7750e-01	1.8240	6.226010	0.000272	2.720613	0.921769	-0.022237
 957	4.7800e-01	1.7663	6.107558	0.000290	2.898499	0.982038	-0.023690
 958	4.7850e-01	1.7310	5.987823	0.000293	2.929891	0.992674	-0.023947
 959	4.7900e-01	1.7053	5.875785	0.000274	2.741540	0.928859	-0.022408
 960	4.7950e-01	1.6556	5.755622	0.000294	2.940354	0.996219	-0.024033
 961	4.8000e-01	1.6331	5.641019	0.000280	2.804324	0.950131	-0.022921
 962	4.8050e-01	1.5705	5.523422	0.000288	2.877571	0.974947	-0.023519
 963	4.8100e-01	1.5401	5.405825	0.000288	2.877571	0.974947	-0.023519
 964	4.8150e-01	1.4631	5.300629	0.000257	2.574118	0.872135	-0.021039
 965	4.8200e-01	1.4550	5.171914	0.000315	3.149632	1.067124	-0.025743
 966	4.8250e-01	1.4117	5.067573	0.000255	2.553190	0.865044	-0.020868
 967	4.8300e-01	1.3748	4.935865	0.000322	3.222880	1.091941	-0.026342
 968	4.8350e-01	1.3524	4.822972	0.000276	2.762468	0.935950	-0.022579
 969	4.8400e-01	1.2978	4.701954	0.000296	2.961282	1.003310	-0.024204
 970	4.8450e-01	1.2561	4.588205	0.000278	2.783396	0.943040	-0.022750
 971	4.8500e-01	1.2272	4.468470	0.000293	2.929891	0.992674	-0.023947
 972	4.8550e-01	1.1567	4.346169	0.000299	2.992674	1.013945	-0.024460
 973	4.8600e-01	1.1326	4.220875	0.000307	3.065921	1.038762	-0.025059
 974	4.8650e-01	1.1037	4.107127	0.000278	2.783396	0.943040	-0.022750
 975	4.8700e-01	1.0700	3.992951	0.000279	2.793860	0.946585	-0.022835
 976	4.8750e-01	1.0091	3.868512	0.000304	3.044993	1.031672	-0.024888
 977	4.8800e-01	0.9722	3.749205	0.000292	2.919427	0.989129	-0.023861
 978	4.8850e-01	0.9321	3.625193	0.000303	3.034530	1.028126	-0.024802
 979	4.8900e-01	0.8711	3.511445	0.000278	2.783396	0.943040	-0.022750
 980	4.8950e-01	0.8535	3.385295	0.000309	3.086849	1.045853	-0.025230
 981	4.9000e-01	0.8085	3.258291	0.000311	3.107777	1.052943	-0.025401
 982	4.9050e-01	0.7588	3.137700	0.000295	2.950818	0.999764	-0.024118
 983	4.9100e-01	0.7444	3.018393	0.000292	2.919427	0.989129	-0.023861
 984	4.9150e-01	0.6882	2.900796	0.000288	2.877571	0.974947	-0.023519
 985	4.9200e-01	0.6818	2.767377	0.000326	3.264735	1.106122	-0.026684
 986	4.9250e-01	0.6144	2.653201	0.000279	2.793860	0.946585	-0.022835
 987	4.9300e-01	0.5759	2.527479	0.000308	3.076385	1.042307	-0.025144
 988	4.9350e-01	0.5118	2.428698	0.000242	2.417160	0.818956	-0.019756
 989	4.9400e-01	0.4861	2.293568	0.000331	3.306591	1.120303	-0.027026
 990	4.9450e-01	0.4428	2.162715	0.000320	3.201952	1.084851	-0.026171
 991	4.9500e-01	0.4171	2.039131	0.000302	3.024066	1.024581	-0.024717
 992	4.9550e-01	0.3642	1.913409	0.000308	3.076385	1.042307	-0.025144
 993	4.9600e-01	0.3241	1.794529	0.000291	2.908963	0.985583	-0.023776
 994	4.9650e-01	0.3064	1.666242	0.000314	3.139169	1.063579	-0.025658
 995	4.9700e-01	0.2599	1.556342	0.000269	2.689221	0.911133	-0.021980
 996	4.9750e-01	0.2118	1.420357	0.000333	3.327519	1.127394	-0.027197
 997	4.9800e-01	0.1861	1.310030	0.000270	2.699685	0.914678	-0.022065
 998	4.9850e-01	0.1315	1.186019	0.000303	3.034530	1.028126	-0.024802
 999	4.9900e-01	0.1107	1.052172	0.000328	3.275199	1.109668	-0.026769
1000	4.9950e-01	0.0433	0.935430	0.000286	2.856643	0.967857	-0.023348
1001	5.0000e-01	0.0545	0.796452	-0.000340	-3.400766	-1.152211	-0.027796
1002	5.0050e-01	-0.0176	0.685270	0.000272	2.720613	0.921769	-0.022237
1003	5.0100e-01	-0.0529	0.562969	0.000299	2.992674	1.013945	-0.024460
1004	5.0150e-01	-0.0882	0.452641	0.000270	2.699685	0.914678	-0.022065
1005	5.0200e-01	-0.1492	0.336327	0.000285	2.846179	0.964312	-0.023263
1006	5.0250e-01	-0.1700	0.206757	0.000317	3.170560	1.074215	-0.025914
1007	5.0300e-01	-0.2198	0.086166	0.000295	2.950818	0.999764	-0.024118
1008	5.0350e-01	-0.2390	-0.047253	0.000326	3.264735	1.106122	-0.026684
1009	5.0400e-01	-0.2968	-0.164422	0.000287	2.867107	0.971402	-0.023434
1010	5.0450e-01	-0.3593	-0.286723	0.000299	2.992674	1.013945	-0.024460
1011	5.0500e-01	-0.3914	-0.413300	0.000310	3.097313	1.049398	-0.025315
1012	5.0550e-01	-0.4251	-0.544153	0.000320	3.201952	1.084851	-0.026171
1013	5.0600e-01	-0.4604	-0.665599	0.000297	2.971746	1.006855	-0.024289
1014	5.0650e-01	-0.4957	-0.795169	0.000317	3.170560	1.074215	-0.025914
1015	5.0700e-01	-0.5374	-0.909345	0.000279	2.793860	0.946585	-0.022835
1016	5.0750e-01	-0.5839	-1.035922	0.000310	3.097313	1.049398	-0.025315
1017	5.0800e-01	-0.6240	-1.156940	0.000296	2.961282	1.003310	-0.024204
1018	5.0850e-01	-0.6738	-1.283517	0.000310	3.097313	1.049398	-0.025315
1019	5.0900e-01	-0.6882	-1.411377	0.000313	3.128705	1.060034	-0.025572
1020	5.0950e-01	-0.7315	-1.524270	0.000276	2.762468	0.935950	-0.022579
1021	5.1000e-01	-0.7732	-1.662821	0.000339	3.390302	1.148665	-0.027710
1022	5.1050e-01	-0.8262	-1.779990	0.000287	2.867107	0.971402	-0.023434
1023	5.1100e-01	-0.8647	-1.899298	0.000292	2.919427	0.989129	-0.023861
1024	5.1150e-01	-0.9144	-2.028013	0.000315	3.149632	1.067124	-0.025743
1025	5.1200e-01	-0.9272	-2.153307	0.000307	3.065921	1.038762	-0.025059
1026	5.1250e-01	-0.9722	-2.273470	0.000294	2.940354	0.996219	-0.024033
1027	5.1300e-01	-1.0187	-2.399192	0.000308	3.076385	1.042307	-0.025144
1028	5.1350e-01	-1.0379	-2.520637	0.000297	2.971746	1.006855	-0.024289
1029	5.1400e-01	-1.0909	-2.658760	0.000338	3.379838	1.145120	-0.027625
1030	5.1450e-01	-1.1438	-2.771653	0.000276	2.762468	0.935950	-0.022579
1031	5.1500e-01	-1.1919	-2.895237	0.000302	3.024066	1.024581	-0.024717
1032	5.1550e-01	-1.2064	-3.025663	0.000319	3.191488	1.081305	-0.026085
1033	5.1600e-01	-1.2545	-3.141977	0.000285	2.846179	0.964312	-0.023263
1034	5.1650e-01	-1.2978	-3.265133	0.000301	3.013602	1.021036	-0.024631
1035	5.1700e-01	-1.3460	-3.394276	0.000316	3.160096	1.070670	-0.025829
1036	5.1750e-01	-1.3845	-3.514866	0.000295	2.950818	0.999764	-0.024118
1037	5.1800e-01	-1.4085	-3.632463	0.000288	2.877571	0.974947	-0.023519
1038	5.1850e-01	-1.4855	-3.744073	0.000273	2.731077	0.925314	-0.022322
1039	5.1900e-01	-1.5064	-3.887755	0.000352	3.515869	1.191209	-0.028736
1040	5.1950e-01	-1.5529	-4.005780	0.000289	2.888035	0.978493	-0.023605
1041	5.2000e-01	-1.5609	-4.131502	0.000308	3.076385	1.042307	-0.025144
1042	5.2050e-01	-1.6010	-4.259362	0.000313	3.128705	1.060034	-0.025572
1043	5.2100e-01	-1.6427	-4.381662	0.000299	2.992674	1.013945	-0.024460
1044	5.2150e-01	-1.7149	-4.498832	0.000287	2.867107	0.971402	-0.023434
1045	5.2200e-01	-1.7727	-4.614291	0.000283	2.825252	0.957221	-0.023092
1046	5.2250e-01	-1.7631	-4.746427	-0.000323	-3.233344	-1.095486	-0.026427
1047	5.2300e-01	-1.8272	-4.863596	0.000287	2.867107	0.971402	-0.023434
1048	5.2350e-01	-1.8304	-4.996160	0.000324	3.243807	1.099032	-0.026513
1049	5.2400e-01	-1.9010	-5.100500	0.000255	2.553190	0.865044	-0.020868
1050	5.2450e-01	-1.9427	-5.215532	0.000281	2.814788	0.953676	-0.023006
1051	5.2500e-01	-1.9844	-5.343819	0.000314	3.139169	1.063579	-0.025658
1052	5.2550e-01	-1.9989	-5.466975	0.000301	3.013602	1.021036	-0.024631
1053	5.2600e-01	-2.0310	-5.595691	0.000315	3.149632	1.067124	-0.025743
1054	5.2650e-01	-2.1015	-5.705590	0.000269	2.689221	0.911133	-0.021980
1055	5.2700e-01	-2.1577	-5.824898	0.000292	2.919427	0.989129	-0.023861
1056	5.2750e-01	-2.1802	-5.950620	0.000308	3.076385	1.042307	-0.025144
1057	5.2800e-01	-2.2299	-6.071637	0.000296	2.961282	1.003310	-0.024204
1058	5.2850e-01	-2.2556	-6.192228	0.000295	2.950818	0.999764	-0.024118
1059	5.2900e-01	-2.2780	-6.306831	0.000280	2.804324	0.950131	-0.022921
1060	5.2950e-01	-2.3406	-6.427849	0.000296	2.961282	1.003310	-0.024204
1061	5.3000e-01	-2.3678	-6.555709	0.000313	3.128705	1.060034	-0.025572
1062	5.3050e-01	-2.4208	-6.667747	0.000274	2.741540	0.928859	-0.022408
1063	5.3100e-01	-2.4625	-6.794752	0.000311	3.107777	1.052943	-0.025401
1064	5.3150e-01	-2.5235	-6.893106	0.000241	2.406696	0.815411	-0.019671
1065	5.3200e-01	-2.5588	-7.018400	0.000307	3.065921	1.038762	-0.025059
1066	5.3250e-01	-2.5924	-7.141556	0.000301	3.013602	1.021036	-0.024631
1067	5.3300e-01	-2.6133	-7.264712	0.000301	3.013602	1.021036	-0.024631
1068	5.3350e-01	-2.6694	-7.384019	0.000292	2.919427	0.989129	-0.023861
1069	5.3400e-01	-2.7063	-7.492209	0.000265	2.647365	0.896952	-0.021638
1070	5.3450e-01	-2.7561	-7.598687	0.000261	2.605510	0.882771	-0.021296
1071	5.3500e-01	-2.7898	-7.719705	0.000296	2.961282	1.003310	-0.024204
1072	5.3550e-01	-2.8074	-7.845427	0.000308	3.076385	1.042307	-0.025144
1073	5.3600e-01	-2.8539	-7.962596	0.000287	2.867107	0.971402	-0.023434
1074	5.3650e-01	-2.9149	-8.091312	0.000315	3.149632	1.067124	-0.025743
1075	5.3700e-01	-2.9662	-8.187100	0.000234	2.343912	0.794139	-0.019158
1076	5.3750e-01	-2.9791	-8.314532	0.000312	3.118241	1.056489	-0.025486
1077	5.3800e-01	-3.0192	-8.427425	0.000276	2.762468	0.935950	-0.022579
1078	5.3850e-01	-3.0480	-8.534331	0.000262	2.615974	0.886316	-0.021381
1079	5.3900e-01	-3.1010	-8.651073	0.000286	2.856643	0.967857	-0.023348
1080	5.3950e-01	-3.1635	-8.761828	0.000271	2.710149	0.918223	-0.022151
1081	5.4000e-01	-3.1860	-8.881136	0.000292	2.919427	0.989129	-0.023861
1082	5.4050e-01	-3.2470	-8.998732	0.000288	2.877571	0.974947	-0.023519
1083	5.4100e-01	-3.2951	-9.104784	0.000260	2.595046	0.879225	-0.021210
1084	5.4150e-01	-3.2999	-9.227084	0.000299	2.992674	1.013945	-0.024460
1085	5.4200e-01	-3.3256	-9.336129	0.000267	2.668293	0.904042	-0.021809
1086	5.4250e-01	-3.3689	-9.444746	0.000266	2.657829	0.900497	-0.021723
1087	5.4300e-01	-3.4315	-9.556356	0.000273	2.731077	0.925314	-0.022322
1088	5.4350e-01	-3.4539	-9.673525	0.000287	2.867107	0.971402	-0.023434
1089	5.4400e-01	-3.5261	-9.781714	0.000265	2.647365	0.896952	-0.021638
1090	5.4450e-01	-3.5309	-9.903160	0.000297	2.971746	1.006855	-0.024289
1091	5.4500e-01	-3.5823	-10.012204	0.000267	2.668293	0.904042	-0.021809
1092	5.4550e-01	-3.6256	-10.120821	0.000266	2.657829	0.900497	-0.021723
1093	5.4600e-01	-3.6464	-10.237991	0.000287	2.867107	0.971402	-0.023434
1094	5.4650e-01	-3.7218	-10.340193	0.000250	2.500871	0.847318	-0.020440
1095	5.4700e-01	-3.7539	-10.444534	0.000255	2.553190	0.865044	-0.020868
1096	5.4750e-01	-3.7844	-10.566834	0.000299	2.992674	1.013945	-0.024460
1097	5.4800e-01	-3.8293	-10.668182	0.000248	2.479943	0.840227	-0.020269
1098	5.4850e-01	-3.8566	-10.781502	0.000277	2.772932	0.939495	-0.022664
1099	5.4900e-01	-3.8999	-10.893540	0.000274	2.741540	0.928859	-0.022408
1100	5.4950e-01	-3.9496	-11.004723	0.000272	2.720613	0.921769	-0.022237
1101	5.5000e-01	-3.9785	-11.118899	0.000279	2.793860	0.946585	-0.022835
1102	5.5050e-01	-4.0106	-11.227088	0.000265	2.647365	0.896952	-0.021638
1103	5.5100e-01	-4.0491	-11.338270	0.000272	2.720613	0.921769	-0.022237
1104	5.5150e-01	-4.0892	-11.443466	0.000257	2.574118	0.872135	-0.021039
1105	5.5200e-01	-4.1437	-11.555932	0.000275	2.752004	0.932404	-0.022493
1106	5.5250e-01	-4.1502	-11.669680	0.000278	2.783396	0.943040	-0.022750
1107	5.5300e-01	-4.2207	-11.776159	0.000261	2.605510	0.882771	-0.021296
1108	5.5350e-01	-4.2737	-11.881354	0.000257	2.574118	0.872135	-0.021039
1109	5.5400e-01	-4.3074	-11.987406	0.000260	2.595046	0.879225	-0.021210
1110	5.5450e-01	-4.3394	-12.102009	0.000280	2.804324	0.950131	-0.022921
1111	5.5500e-01	-4.3844	-12.197797	0.000234	2.343912	0.794139	-0.019158
1112	5.5550e-01	-4.4213	-12.311973	0.000279	2.793860	0.946585	-0.022835
1113	5.5600e-01	-4.4550	-12.427004	0.000281	2.814788	0.953676	-0.023006
1114	5.5650e-01	-4.4902	-12.534338	0.000263	2.626438	0.889861	-0.021467
1115	5.5700e-01	-4.5047	-12.643810	0.000268	2.678757	0.907587	-0.021894
1116	5.5750e-01	-4.5801	-12.737888	0.000230	2.302057	0.779958	-0.018816
1117	5.5800e-01	-4.6282	-12.847788	0.000269	2.689221	0.911133	-0.021980
1118	5.5850e-01	-4.6426	-12.961108	0.000277	2.772932	0.939495	-0.022664
1119	5.5900e-01	-4.7052	-13.068442	0.000263	2.626438	0.889861	-0.021467
1120	5.5950e-01	-4.7421	-13.180908	0.000275	2.752004	0.932404	-0.022493
1121	5.6000e-01	-4.7694	-13.282255	0.000248	2.479943	0.840227	-0.020269
1122	5.6050e-01	-4.8143	-13.391727	0.000268	2.678757	0.907587	-0.021894
1123	5.6100e-01	-4.8640	-13.495640	0.000254	2.542726	0.861499	-0.020783
1124	5.6150e-01	-4.8881	-13.598698	0.000252	2.521799	0.854409	-0.020612
1125	5.6200e-01	-4.9346	-13.702610	0.000254	2.542726	0.861499	-0.020783
1126	5.6250e-01	-4.9795	-13.813793	0.000272	2.720613	0.921769	-0.022237
1127	5.6300e-01	-5.0132	-13.911719	0.000240	2.396232	0.811865	-0.019585
1128	5.6350e-01	-5.0758	-14.021191	0.000268	2.678757	0.907587	-0.021894
1129	5.6400e-01	-5.1063	-14.121683	0.000246	2.459015	0.833137	-0.020098
1130	5.6450e-01	-5.1416	-14.229872	0.000265	2.647365	0.896952	-0.021638
1131	5.6500e-01	-5.2089	-14.335068	0.000257	2.574118	0.872135	-0.021039
1132	5.6550e-01	-5.2234	-14.435133	0.000245	2.448551	0.829592	-0.020013
1133	5.6600e-01	-5.2731	-14.541611	0.000261	2.605510	0.882771	-0.021296
1134	5.6650e-01	-5.3148	-14.647235	0.000258	2.584582	0.875680	-0.021125
1135	5.6700e-01	-5.3309	-14.751575	0.000255	2.553190	0.865044	-0.020868
1136	5.6750e-01	-5.3517	-14.853350	0.000249	2.490407	0.843773	-0.020355
1137	5.6800e-01	-5.4143	-14.952559	0.000243	2.427624	0.822501	-0.019842
1138	5.6850e-01	-5.4592	-15.058610	0.000260	2.595046	0.879225	-0.021210
1139	5.6900e-01	-5.4977	-15.159530	0.000247	2.469479	0.836682	-0.020184
1140	5.6950e-01	-5.5330	-15.259166	0.000244	2.438088	0.826046	-0.019927
1141	5.7000e-01	-5.5891	-15.366073	0.000262	2.615974	0.886316	-0.021381
1142	5.7050e-01	-5.5972	-15.478538	0.000275	2.752004	0.932404	-0.022493
1143	5.7100e-01	-5.6421	-15.581168	0.000251	2.511335	0.850863	-0.020526
1144	5.7150e-01	-5.6726	-15.691496	0.000270	2.699685	0.914678	-0.022065
1145	5.7200e-01	-5.7271	-15.789849	0.000241	2.406696	0.815411	-0.019671
1146	5.7250e-01	-5.7608	-15.892480	0.000251	2.511335	0.850863	-0.020526
1147	5.7300e-01	-5.8571	-15.981853	0.000219	2.186954	0.740960	-0.017875
1148	5.7350e-01	-5.8474	-16.090042	-0.000265	-2.647365	-0.896952	-0.021638
1149	5.7400e-01	-5.9116	-16.190534	0.000246	2.459015	0.833137	-0.020098
1150	5.7450e-01	-5.9597	-16.291026	0.000246	2.459015	0.833137	-0.020098
1151	5.7500e-01	-5.9694	-16.399643	0.000266	2.657829	0.900497	-0.021723
1152	5.7550e-01	-6.0143	-16.491155	0.000224	2.239274	0.758686	-0.018302
1153	5.7600e-01	-6.0704	-16.595923	0.000256	2.563654	0.868590	-0.020954
1154	5.7650e-01	-6.1025	-16.688290	0.000226	2.260201	0.765777	-0.018473
1155	5.7700e-01	-6.1586	-16.792631	0.000255	2.553190	0.865044	-0.020868
1156	5.7750e-01	-6.1955	-16.895688	0.000252	2.521799	0.854409	-0.020612
1157	5.7800e-01	-6.2260	-16.995325	0.000244	2.438088	0.826046	-0.019927
1158	5.7850e-01	-6.2774	-17.094107	0.000242	2.417160	0.818956	-0.019756
1159	5.7900e-01	-6.3078	-17.192460	0.000241	2.406696	0.815411	-0.019671
1160	5.7950e-01	-6.3159	-17.309202	0.000286	2.856643	0.967857	-0.023348
1161	5.8000e-01	-6.3929	-17.410977	0.000249	2.490407	0.843773	-0.020355
1162	5.8050e-01	-6.4250	-17.492653	0.000200	1.998604	0.677145	-0.016335
1163	5.8100e-01	-6.4250	-17.610678	0.000289	2.888035	0.978493	-0.023605
1164	5.8150e-01	-6.4875	-17.696203	0.000209	2.092779	0.709053	-0.017105
1165	5.8200e-01	-6.5485	-17.794984	0.000242	2.417160	0.818956	-0.019756
1166	5.8250e-01	-6.5549	-17.901463	0.000261	2.605510	0.882771	-0.021296
1167	5.8300e-01	-6.6511	-17.978863	0.000189	1.893965	0.641693	-0.015480
1168	5.8350e-01	-6.6704	-18.089618	0.000271	2.710149	0.918223	-0.022151
1169	5.8400e-01	-6.6752	-18.197380	0.000264	2.636902	0.893406	-0.021552
1170	5.8450e-01	-6.7410	-18.297016	0.000244	2.438088	0.826046	-0.019927
1171	5.8500e-01	-6.7634	-18.385962	0.000218	2.176490	0.737415	-0.017789
1172	5.8550e-01	-6.8421	-18.483033	0.000238	2.375304	0.804775	-0.019414
1173	5.8600e-01	-6.8790	-18.580960	0.000240	2.396232	0.811865	-0.019585
1174	5.8650e-01	-6.8966	-18.680596	0.000244	2.438088	0.826046	-0.019927
1175	5.8700e-01	-6.9239	-18.778522	0.000240	2.396232	0.811865	-0.019585
1176	5.8750e-01	-6.9929	-18.873028	0.000231	2.312521	0.783503	-0.018901
1177	5.8800e-01	-7.0217	-18.976941	0.000254	2.542726	0.861499	-0.020783
1178	5.8850e-01	-7.0281	-19.078288	0.000248	2.479943	0.840227	-0.020269
1179	5.8900e-01	-7.1308	-19.181773	0.000253	2.532263	0.857954	-0.020697
1180	5.8950e-01	-7.1436	-19.271574	0.000220	2.197418	0.744505	-0.017960
1181	5.9000e-01	-7.1822	-19.357955	0.000211	2.113707	0.716143	-0.017276
1182	5.9050e-01	-7.2030	-19.469565	0.000273	2.731077	0.925314	-0.022322
1183	5.9100e-01	-7.2768	-19.555945	0.000211	2.113707	0.716143	-0.017276
1184	5.9150e-01	-7.2864	-19.667128	0.000272	2.720613	0.921769	-0.022237
1185	5.9200e-01	-7.3362	-19.758640	0.000224	2.239274	0.758686	-0.018302
1186	5.9250e-01	-7.3747	-19.848869	0.000221	2.207882	0.748051	-0.018046
1187	5.9300e-01	-7.4228	-19.952782	0.000254	2.542726	0.861499	-0.020783
1188	5.9350e-01	-7.4549	-20.043010	0.000221	2.207882	0.748051	-0.018046
1189	5.9400e-01	-7.5078	-20.143502	0.000246	2.459015	0.833137	-0.020098
1190	5.9450e-01	-7.5190	-20.243994	0.000246	2.459015	0.833137	-0.020098
1191	5.9500e-01	-7.5736	-20.346197	0.000250	2.500871	0.847318	-0.020440
1192	5.9550e-01	-7.6378	-20.433432	0.000213	2.134635	0.723234	-0.017447
1193	5.9600e-01	-7.6394	-20.537345	0.000254	2.542726	0.861499	-0.020783
1194	5.9650e-01	-7.7019	-20.620305	0.000203	2.029996	0.687781	-0.016592
1195	5.9700e-01	-7.7549	-20.721224	0.000247	2.469479	0.836682	-0.020184
1196	5.9750e-01	-7.7886	-20.820006	0.000242	2.417160	0.818956	-0.019756
1197	5.9800e-01	-7.8271	-20.916221	0.000235	2.354376	0.797684	-0.019243
1198	5.9850e-01	-7.9105	-21.012437	0.000235	2.354376	0.797684	-0.019243
1199	5.9900e-01	-7.8960	-21.112501	-0.000245	-2.448551	-0.829592	-0.020013
1200	5.9950e-01	-7.9345	-21.196743	0.000206	2.061387	0.698417	-0.016848
1201	6.0000e-01	-7.9875	-21.297663	0.000247	2.469479	0.836682	-0.020184
1202	6.0050e-01	-8.0212	-21.393879	0.000235	2.354376	0.797684	-0.019243
1203	6.0100e-01	-8.0468	-21.494371	0.000246	2.459015	0.833137	-0.020098
1204	6.0150e-01	-8.1222	-21.580323	0.000210	2.103243	0.712598	-0.017191
1205	6.0200e-01	-8.1415	-21.683809	0.000253	2.532263	0.857954	-0.020697
1206	6.0250e-01	-8.1704	-21.788149	0.000255	2.553190	0.865044	-0.020868
1207	6.0300e-01	-8.2345	-21.875385	0.000213	2.134635	0.723234	-0.017447
1208	6.0350e-01	-8.2570	-21.963903	0.000217	2.166026	0.733870	-0.017704
1209	6.0400e-01	-8.2955	-22.059691	0.000234	2.343912	0.794139	-0.019158
1210	6.0450e-01	-8.3532	-22.140512	0.000198	1.977676	0.670055	-0.016164
1211	6.0500e-01	-8.3709	-22.255544	0.000281	2.814788	0.953676	-0.023006
1212	6.0550e-01	-8.4158	-22.346628	0.000223	2.228810	0.755141	-0.018217
1213	6.0600e-01	-8.4575	-22.440705	0.000230	2.302057	0.779958	-0.018816
1214	6.0650e-01	-8.5024	-22.524520	0.000205	2.050923	0.694872	-0.016763
1215	6.0700e-01	-8.5233	-22.625012	0.000246	2.459015	0.833137	-0.020098
1216	6.0750e-01	-8.5891	-22.718662	0.000229	2.291593	0.776413	-0.018730
1217	6.0800e-01	-8.5971	-22.812739	0.000230	2.302057	0.779958	-0.018816
1218	6.0850e-01	-8.6532	-22.916225	0.000253	2.532263	0.857954	-0.020697
1219	6.0900e-01	-8.7206	-23.000467	0.000206	2.061387	0.698417	-0.016848
1220	6.0950e-01	-8.7575	-23.095400	0.000232	2.322985	0.787049	-0.018987
1221	6.1000e-01	-8.7575	-23.188194	0.000227	2.270665	0.769322	-0.018559
1222	6.1050e-01	-8.7976	-23.292535	0.000255	2.553190	0.865044	-0.020868
1223	6.1100e-01	-8.8522	-23.373356	0.000198	1.977676	0.670055	-0.016164
1224	6.1150e-01	-8.8698	-23.469572	0.000235	2.354376	0.797684	-0.019243
1225	6.1200e-01	-8.9067	-23.560656	0.000223	2.228810	0.755141	-0.018217
1226	6.1250e-01	-8.9805	-23.650457	0.000220	2.197418	0.744505	-0.017960
1227	6.1300e-01	-9.0238	-23.738976	0.000217	2.166026	0.733870	-0.017704
1228	6.1350e-01	-9.0735	-23.836474	0.000239	2.385768	0.808320	-0.019500
1229	6.1400e-01	-9.0896	-23.929269	0.000227	2.270665	0.769322	-0.018559
1230	6.1450e-01	-9.1345	-24.029333	0.000245	2.448551	0.829592	-0.020013
1231	6.1500e-01	-9.1650	-24.114003	0.000207	2.071851	0.701962	-0.016934
1232	6.1550e-01	-9.2259	-24.216205	0.000250	2.500871	0.847318	-0.020440
1233	6.1600e-01	-9.2660	-24.305579	0.000219	2.186954	0.740960	-0.017875
1234	6.1650e-01	-9.2612	-24.400940	-0.000233	-2.333449	-0.790594	-0.019072
1235	6.1700e-01	-9.3463	-24.479195	0.000191	1.914893	0.648783	-0.015651
1236	6.1750e-01	-9.4104	-24.569852	0.000222	2.218346	0.751596	-0.018131
1237	6.1800e-01	-9.4393	-24.668205	0.000241	2.406696	0.815411	-0.019671
1238	6.1850e-01	-9.4441	-24.767414	0.000243	2.427624	0.822501	-0.019842
1239	6.1900e-01	-9.5067	-24.860209	0.000227	2.270665	0.769322	-0.018559
1240	6.1950e-01	-9.5564	-24.951293	0.000223	2.228810	0.755141	-0.018217
1241	6.2000e-01	-9.5805	-25.041950	0.000222	2.218346	0.751596	-0.018131
1242	6.2050e-01	-9.6270	-25.124482	0.000202	2.019532	0.684236	-0.016506
1243	6.2100e-01	-9.6511	-25.225401	0.000247	2.469479	0.836682	-0.020184
1244	6.2150e-01	-9.6848	-25.315630	0.000221	2.207882	0.748051	-0.018046
1245	6.2200e-01	-9.7329	-25.406714	0.000223	2.228810	0.755141	-0.018217
1246	6.2250e-01	-9.7762	-25.476845	0.000172	1.716079	0.581423	-0.014026
1247	6.2300e-01	-9.8291	-25.576909	0.000245	2.448551	0.829592	-0.020013
1248	6.2350e-01	-9.8564	-25.678684	0.000249	2.490407	0.843773	-0.020355
1249	6.2400e-01	-9.9158	-25.776182	0.000239	2.385768	0.808320	-0.019500
1250	6.2450e-01	-9.9142	-25.859142	-0.000203	-2.029996	-0.687781	-0.016592
1251	6.2500e-01	-9.9559	-25.942101	0.000203	2.029996	0.687781	-0.016592
1252	6.2550e-01	-10.0184	-26.034468	0.000226	2.260201	0.765777	-0.018473
1253	6.2600e-01	-10.0810	-26.118283	0.000205	2.050923	0.694872	-0.016763
1254	6.2650e-01	-10.0874	-26.222196	0.000254	2.542726	0.861499	-0.020783
1255	6.2700e-01	-10.1468	-26.303017	0.000198	1.977676	0.670055	-0.016164
1256	6.2750e-01	-10.1692	-26.391963	0.000218	2.176490	0.737415	-0.017789
1257	6.2800e-01	-10.2302	-26.489461	0.000239	2.385768	0.808320	-0.019500
1258	6.2850e-01	-10.2478	-26.581829	0.000226	2.260201	0.765777	-0.018473
1259	6.2900e-01	-10.3248	-26.668636	0.000212	2.124171	0.719689	-0.017362
1260	6.2950e-01	-10.3345	-26.752451	0.000205	2.050923	0.694872	-0.016763
1261	6.3000e-01	-10.4018	-26.840542	0.000216	2.155562	0.730324	-0.017618
1262	6.3050e-01	-10.3938	-26.937613	-0.000238	-2.375304	-0.804775	-0.019414
1263	6.3100e-01	-10.4917	-27.029552	0.000225	2.249737	0.762232	-0.018388
1264	6.3150e-01	-10.5334	-27.117643	0.000216	2.155562	0.730324	-0.017618
1265	6.3200e-01	-10.5430	-27.210438	0.000227	2.270665	0.769322	-0.018559
1266	6.3250e-01	-10.5847	-27.303660	0.000228	2.281129	0.772867	-0.018644
1267	6.3300e-01	-10.6248	-27.379350	0.000185	1.852109	0.627512	-0.015138
1268	6.3350e-01	-10.6633	-27.475138	0.000234	2.343912	0.794139	-0.019158
1269	6.3400e-01	-10.7163	-27.562801	0.000215	2.145098	0.726779	-0.017533
1270	6.3450e-01	-10.7435	-27.647898	0.000208	2.082315	0.705507	-0.017019
1271	6.3500e-01	-10.7933	-27.739838	0.000225	2.249737	0.762232	-0.018388
1272	6.3550e-01	-10.8238	-27.837336	0.000239	2.385768	0.808320	-0.019500
1273	6.3600e-01	-10.8831	-27.922434	0.000208	2.082315	0.705507	-0.017019
1274	6.3650e-01	-10.8847	-28.008386	0.000210	2.103243	0.712598	-0.017191
1275	6.3700e-01	-10.9489	-28.096050	0.000215	2.145098	0.726779	-0.017533
1276	6.3750e-01	-10.9601	-28.182002	0.000210	2.103243	0.712598	-0.017191
1277	6.3800e-01	-11.0147	-28.269238	0.000213	2.134635	0.723234	-0.017447
1278	6.3850e-01	-11.0708	-28.366736	0.000239	2.385768	0.808320	-0.019500
1279	6.3900e-01	-11.1077	-28.448413	0.000200	1.998604	0.677145	-0.016335
1280	6.3950e-01	-11.1382	-28.532227	0.000205	2.050923	0.694872	-0.016763
1281	6.4000e-01	-11.1831	-28.627588	0.000233	2.333449	0.790594	-0.019072
1282	6.4050e-01	-11.2441	-28.712258	0.000207	2.071851	0.701962	-0.016934
1283	6.4100e-01	-11.2377	-28.811467	-0.000243	-2.427624	-0.822501	-0.019842
1284	6.4150e-01	-11.3195	-28.889294	0.000190	1.904429	0.645238	-0.015566
1285	6.4200e-01	-11.3532	-28.968405	0.000194	1.935821	0.655874	-0.015822
1286	6.4250e-01	-11.3868	-29.071035	0.000251	2.511335	0.850863	-0.020526
1287	6.4300e-01	-11.4205	-29.153139	0.000201	2.009068	0.680691	-0.016421
1288	6.4350e-01	-11.4526	-29.235243	0.000201	2.009068	0.680691	-0.016421
1289	6.4400e-01	-11.5168	-29.318203	0.000203	2.029996	0.687781	-0.016592
1290	6.4450e-01	-11.5473	-29.403728	0.000209	2.092779	0.709053	-0.017105
1291	6.4500e-01	-11.5729	-29.492246	0.000217	2.166026	0.733870	-0.017704
1292	6.4550e-01	-11.6066	-29.584186	0.000225	2.249737	0.762232	-0.018388
1293	6.4600e-01	-11.6596	-29.666290	0.000201	2.009068	0.680691	-0.016421
1294	6.4650e-01	-11.7221	-29.751387	0.000208	2.082315	0.705507	-0.017019
1295	6.4700e-01	-11.7478	-29.836912	0.000209	2.092779	0.709053	-0.017105
1296	6.4750e-01	-11.7895	-29.931845	0.000232	2.322985	0.787049	-0.018987
1297	6.4800e-01	-11.8280	-30.012238	0.000197	1.967212	0.666510	-0.016079
1298	6.4850e-01	-11.8473	-30.103750	0.000224	2.239274	0.758686	-0.018302
1299	6.4900e-01	-11.9275	-30.193552	0.000220	2.197418	0.744505	-0.017960
1300	6.4950e-01	-11.9740	-30.276939	0.000204	2.040460	0.691326	-0.016677
1301	6.5000e-01	-11.9900	-30.359470	0.000202	2.019532	0.684236	-0.016506
1302	6.5050e-01	-12.0189	-30.453975	0.000231	2.312521	0.783503	-0.018901
1303	6.5100e-01	-12.0462	-30.538218	0.000206	2.061387	0.698417	-0.016848
1304	6.5150e-01	-12.0943	-30.622887	0.000207	2.071851	0.701962	-0.016934
1305	6.5200e-01	-12.1344	-30.709268	0.000211	2.113707	0.716143	-0.017276
1306	6.5250e-01	-12.1890	-30.798214	0.000218	2.176490	0.737415	-0.017789
1307	6.5300e-01	-12.2082	-30.882884	0.000207	2.071851	0.701962	-0.016934
1308	6.5350e-01	-12.2291	-30.971402	0.000217	2.166026	0.733870	-0.017704
1309	6.5400e-01	-12.2997	-31.054361	0.000203	2.029996	0.687781	-0.016592
1310	6.5450e-01	-12.3478	-31.145018	0.000222	2.218346	0.751596	-0.018131
1311	6.5500e-01	-12.4071	-31.226267	0.000199	1.988140	0.673600	-0.016250
1312	6.5550e-01	-12.4184	-31.313075	0.000212	2.124171	0.719689	-0.017362
1313	6.5600e-01	-12.4505	-31.401593	0.000217	2.166026	0.733870	-0.017704
1314	6.5650e-01	-12.5098	-31.483697	0.000201	2.009068	0.680691	-0.016421
1315	6.5700e-01	-12.5467	-31.556393	0.000178	1.778862	0.602695	-0.014539
1316	6.5750e-01	-12.5852	-31.652609	0.000235	2.354376	0.797684	-0.019243
1317	6.5800e-01	-12.5980	-31.734285	0.000200	1.998604	0.677145	-0.016335
1318	6.5850e-01	-12.6381	-31.817672	0.000204	2.040460	0.691326	-0.016677
1319	6.5900e-01	-12.6911	-31.897638	0.000196	1.956748	0.662964	-0.015993
1320	6.5950e-01	-12.7376	-31.993426	0.000234	2.343912	0.794139	-0.019158
1321	6.6000e-01	-12.7809	-32.073392	0.000196	1.956748	0.662964	-0.015993
1322	6.6050e-01	-12.8162	-32.166615	0.000228	2.281129	0.772867	-0.018644
1323	6.6100e-01	-12.8419	-32.254705	0.000216	2.155562	0.730324	-0.017618
1324	6.6150e-01	-12.8579	-32.341086	0.000211	2.113707	0.716143	-0.017276
1325	6.6200e-01	-12.9702	-32.409933	0.000168	1.684687	0.570787	-0.013770
1326	6.6250e-01	-12.9782	-32.500162	0.000221	2.207882	0.748051	-0.018046
1327	6.6300e-01	-13.0312	-32.574997	0.000183	1.831182	0.620421	-0.014967
1328	6.6350e-01	-13.0617	-32.665226	0.000221	2.207882	0.748051	-0.018046
1329	6.6400e-01	-13.1130	-32.749040	0.000205	2.050923	0.694872	-0.016763
1330	6.6450e-01	-13.1371	-32.831144	0.000201	2.009068	0.680691	-0.016421
1331	6.6500e-01	-13.1563	-32.912393	0.000199	1.988140	0.673600	-0.016250
1332	6.6550e-01	-13.1964	-33.008609	0.000235	2.354376	0.797684	-0.019243
1333	6.6600e-01	-13.2814	-33.089858	0.000199	1.988140	0.673600	-0.016250
1334	6.6650e-01	-13.2943	-33.166402	0.000187	1.873037	0.634602	-0.015309
1335	6.6700e-01	-13.3584	-33.245941	0.000195	1.946284	0.659419	-0.015908
1336	6.6750e-01	-13.3841	-33.330183	0.000206	2.061387	0.698417	-0.016848
1337	6.6800e-01	-13.3986	-33.416563	0.000211	2.113707	0.716143	-0.017276
1338	6.6850e-01	-13.4531	-33.503799	0.000213	2.134635	0.723234	-0.017447
1339	6.6900e-01	-13.4884	-33.591890	0.000216	2.155562	0.730324	-0.017618
1340	6.6950e-01	-13.5477	-33.676132	0.000206	2.061387	0.698417	-0.016848
1341	6.7000e-01	-13.5927	-33.751394	0.000184	1.841646	0.623966	-0.015052
1342	6.7050e-01	-13.5959	-33.835636	0.000206	2.061387	0.698417	-0.016848
1343	6.7100e-01	-13.6488	-33.930569	0.000232	2.322985	0.787049	-0.018987
1344	6.7150e-01	-13.7018	-34.010962	0.000197	1.967212	0.666510	-0.016079
1345	6.7200e-01	-13.7403	-34.085797	0.000183	1.831182	0.620421	-0.014967
1346	6.7250e-01	-13.7643	-34.175171	0.000219	2.186954	0.740960	-0.017875
1347	6.7300e-01	-13.8140	-34.259840	0.000207	2.071851	0.701962	-0.016934
1348	6.7350e-01	-13.8333	-34.330826	0.000174	1.737007	0.588514	-0.014197
1349	6.7400e-01	-13.9151	-34.403950	0.000179	1.789326	0.606240	-0.014625
1350	6.7450e-01	-13.9103	-34.501449	-0.000239	-2.385768	-0.808320	-0.019500
1351	6.7500e-01	-13.9681	-34.589539	0.000216	2.155562	0.730324	-0.017618
1352	6.7550e-01	-14.0162	-34.660953	0.000175	1.747470	0.592059	-0.014283
1353	6.7600e-01	-14.0964	-34.746478	0.000209	2.092779	0.709053	-0.017105
1354	6.7650e-01	-14.1317	-34.827727	0.000199	1.988140	0.673600	-0.016250
1355	6.7700e-01	-14.1445	-34.915817	0.000216	2.155562	0.730324	-0.017618
1356	6.7750e-01	-14.2055	-34.989797	0.000181	1.810254	0.613331	-0.014796
1357	6.7800e-01	-14.2167	-35.069335	0.000195	1.946284	0.659419	-0.015908
1358	6.7850e-01	-14.2632	-35.162130	0.000227	2.270665	0.769322	-0.018559
1359	6.7900e-01	-14.3210	-35.230550	0.000167	1.674223	0.567242	-0.013684
1360	6.7950e-01	-14.3563	-35.314364	0.000205	2.050923	0.694872	-0.016763
1361	6.8000e-01	-14.3996	-35.403310	0.000218	2.176490	0.737415	-0.017789
1362	6.8050e-01	-14.4461	-35.488835	0.000209	2.092779	0.709053	-0.017105
1363	6.8100e-01	-14.4461	-35.577354	0.000217	2.166026	0.733870	-0.017704
1364	6.8150e-01	-14.4670	-35.657320	0.000196	1.956748	0.662964	-0.015993
1365	6.8200e-01	-14.5199	-35.738996	0.000200	1.998604	0.677145	-0.016335
1366	6.8250e-01	-14.5873	-35.816396	0.000189	1.893965	0.641693	-0.015480
1367	6.8300e-01	-14.6065	-35.886954	0.000173	1.726543	0.584968	-0.014112
1368	6.8350e-01	-14.6434	-35.986591	0.000244	2.438088	0.826046	-0.019927
1369	6.8400e-01	-14.6980	-36.054584	0.000166	1.663759	0.563697	-0.013598
1370	6.8450e-01	-14.7317	-36.136260	0.000200	1.998604	0.677145	-0.016335
1371	6.8500e-01	-14.7958	-36.219219	0.000203	2.029996	0.687781	-0.016592
1372	6.8550e-01	-14.8440	-36.290205	0.000174	1.737007	0.588514	-0.014197
1373	6.8600e-01	-14.8440	-36.388987	0.000242	2.417160	0.818956	-0.019756
1374	6.8650e-01	-14.9146	-36.458262	0.000170	1.695151	0.574333	-0.013855
1375	6.8700e-01	-14.9386	-36.547636	0.000219	2.186954	0.740960	-0.017875
1376	6.8750e-01	-14.9932	-36.628457	0.000198	1.977676	0.670055	-0.016164
1377	6.8800e-01	-15.0204	-36.705002	0.000187	1.873037	0.634602	-0.015309
1378	6.8850e-01	-15.0365	-36.788389	0.000204	2.040460	0.691326	-0.016677
1379	6.8900e-01	-15.1087	-36.869210	0.000198	1.977676	0.670055	-0.016164
1380	6.8950e-01	-15.1424	-36.950459	0.000199	1.988140	0.673600	-0.016250
1381	6.9000e-01	-15.1889	-37.022300	0.000176	1.757934	0.595604	-0.014368
1382	6.9050e-01	-15.2402	-37.106542	0.000206	2.061387	0.698417	-0.016848
1383	6.9100e-01	-15.2627	-37.182659	0.000186	1.862573	0.631057	-0.015223
1384	6.9150e-01	-15.2819	-37.268184	0.000209	2.092779	0.709053	-0.017105
1385	6.9200e-01	-15.3397	-37.352854	0.000207	2.071851	0.701962	-0.016934
1386	6.9250e-01	-15.3750	-37.428971	0.000186	1.862573	0.631057	-0.015223
1387	6.9300e-01	-15.4407	-37.500812	0.000176	1.757934	0.595604	-0.014368
1388	6.9350e-01	-15.4616	-37.589758	0.000218	2.176490	0.737415	-0.017789
1389	6.9400e-01	-15.5097	-37.671435	0.000200	1.998604	0.677145	-0.016335
1390	6.9450e-01	-15.5258	-37.738144	0.000163	1.632368	0.553061	-0.013342
1391	6.9500e-01	-15.5675	-37.839919	0.000249	2.490407	0.843773	-0.020355
1392	6.9550e-01	-15.6445	-37.903208	0.000155	1.548656	0.524699	-0.012658
1393	6.9600e-01	-15.6958	-37.987022	0.000205	2.050923	0.694872	-0.016763
1394	6.9650e-01	-15.6990	-38.070837	0.000205	2.050923	0.694872	-0.016763
1395	6.9700e-01	-15.7471	-38.146954	0.000186	1.862573	0.631057	-0.015223
1396	6.9750e-01	-15.7552	-38.231624	0.000207	2.071851	0.701962	-0.016934
1397	6.9800e-01	-15.8129	-38.306458	0.000183	1.831182	0.620421	-0.014967
1398	6.9850e-01	-15.8482	-38.385569	0.000194	1.935821	0.655874	-0.015822
1399	6.9900e-01	-15.8819	-38.460403	0.000183	1.831182	0.620421	-0.014967
1400	6.9950e-01	-15.9348	-38.548067	0.000215	2.145098	0.726779	-0.017533
1401	7.0000e-01	-15.9605	-38.628460	0.000197	1.967212	0.666510	-0.016079
1402	7.0050e-01	-16.0183	-38.711419	0.000203	2.029996	0.687781	-0.016592
1403	7.0100e-01	-16.0744	-38.787109	0.000185	1.852109	0.627512	-0.015138
1404	7.0150e-01	-16.1225	-38.862799	0.000185	1.852109	0.627512	-0.015138
1405	7.0200e-01	-16.1450	-38.950890	0.000216	2.155562	0.730324	-0.017618
1406	7.0250e-01	-16.1963	-39.026152	0.000184	1.841646	0.623966	-0.015052
1407	7.0300e-01	-16.2172	-39.097993	0.000176	1.757934	0.595604	-0.014368
1408	7.0350e-01	-16.2814	-39.178814	0.000198	1.977676	0.670055	-0.016164
1409	7.0400e-01	-16.2701	-39.271609	-0.000227	-2.270665	-0.769322	-0.018559
1410	7.0450e-01	-16.3600	-39.328483	0.000139	1.391698	0.471520	-0.011375
1411	7.0500e-01	-16.3921	-39.410159	0.000200	1.998604	0.677145	-0.016335
1412	7.0550e-01	-16.4530	-39.487559	0.000189	1.893965	0.641693	-0.015480
1413	7.0600e-01	-16.4562	-39.569663	0.000201	2.009068	0.680691	-0.016421
1414	7.0650e-01	-16.5156	-39.654333	0.000207	2.071851	0.701962	-0.016934
1415	7.0700e-01	-16.5589	-39.727885	0.000180	1.799790	0.609785	-0.014710
1416	7.0750e-01	-16.5589	-39.819397	0.000224	2.239274	0.758686	-0.018302
1417	7.0800e-01	-16.6279	-39.900645	0.000199	1.988140	0.673600	-0.016250
1418	7.0850e-01	-16.6600	-39.972486	0.000176	1.757934	0.595604	-0.014368
1419	7.0900e-01	-16.6985	-40.061005	0.000217	2.166026	0.733870	-0.017704
1420	7.0950e-01	-16.7658	-40.128570	0.000165	1.653295	0.560152	-0.013513
1421	7.1000e-01	-16.7851	-40.207253	0.000193	1.925357	0.652329	-0.015737
1422	7.1050e-01	-16.8332	-40.280804	0.000180	1.799790	0.609785	-0.014710
1423	7.1100e-01	-16.8685	-40.362481	0.000200	1.998604	0.677145	-0.016335
1424	7.1150e-01	-16.9022	-40.432184	0.000171	1.705615	0.577878	-0.013941
1425	7.1200e-01	-16.9391	-40.519847	0.000215	2.145098	0.726779	-0.017533
1426	7.1250e-01	-16.9872	-40.598530	0.000193	1.925357	0.652329	-0.015737
1427	7.1300e-01	-17.0161	-40.679779	0.000199	1.988140	0.673600	-0.016250
1428	7.1350e-01	-17.0546	-40.755896	0.000186	1.862573	0.631057	-0.015223
1429	7.1400e-01	-17.0979	-40.832013	0.000186	1.862573	0.631057	-0.015223
1430	7.1450e-01	-17.1140	-40.918393	0.000211	2.113707	0.716143	-0.017276
1431	7.1500e-01	-17.2070	-40.994511	0.000186	1.862573	0.631057	-0.015223
1432	7.1550e-01	-17.2054	-41.072766	-0.000191	-1.914893	-0.648783	-0.015651
1433	7.1600e-01	-17.2792	-41.145890	0.000179	1.789326	0.606240	-0.014625
1434	7.1650e-01	-17.3049	-41.230560	0.000207	2.071851	0.701962	-0.016934
1435	7.1700e-01	-17.3369	-41.304967	0.000182	1.820718	0.616876	-0.014881
1436	7.1750e-01	-17.3867	-41.382795	0.000190	1.904429	0.645238	-0.015566
1437	7.1800e-01	-17.4268	-41.457629	0.000183	1.831182	0.620421	-0.014967
1438	7.1850e-01	-17.4524	-41.534174	0.000187	1.873037	0.634602	-0.015309
1439	7.1900e-01	-17.4926	-41.611574	0.000189	1.893965	0.641693	-0.015480
1440	7.1950e-01	-17.5214	-41.691112	0.000195	1.946284	0.659419	-0.015908
1441	7.2000e-01	-17.5824	-41.771506	0.000197	1.967212	0.666510	-0.016079
1442	7.2050e-01	-17.6145	-41.845913	0.000182	1.820718	0.616876	-0.014881
1443	7.2100e-01	-17.6835	-41.925451	0.000195	1.946284	0.659419	-0.015908
1444	7.2150e-01	-17.6883	-42.010121	0.000207	2.071851	0.701962	-0.016934
1445	7.2200e-01	-17.7300	-42.084528	0.000182	1.820718	0.616876	-0.014881
1446	7.2250e-01	-17.8038	-42.166632	0.000201	2.009068	0.680691	-0.016421
1447	7.2300e-01	-17.8198	-42.250446	0.000205	2.050923	0.694872	-0.016763
1448	7.2350e-01	-17.9048	-42.316300	0.000161	1.611440	0.545971	-0.013171
1449	7.2400e-01	-17.8920	-42.399260	-0.000203	-2.029996	-0.687781	-0.016592
1450	7.2450e-01	-17.9626	-42.474094	0.000183	1.831182	0.620421	-0.014967
1451	7.2500e-01	-17.9851	-42.544225	0.000172	1.716079	0.581423	-0.014026
1452	7.2550e-01	-18.0380	-42.619059	0.000183	1.831182	0.620421	-0.014967
1453	7.2600e-01	-18.0572	-42.699025	0.000196	1.956748	0.662964	-0.015993
1454	7.2650e-01	-18.1038	-42.780702	0.000200	1.998604	0.677145	-0.016335
1455	7.2700e-01	-18.1118	-42.860240	0.000195	1.946284	0.659419	-0.015908
1456	7.2750e-01	-18.1888	-42.940633	0.000197	1.967212	0.666510	-0.016079
1457	7.2800e-01	-18.2449	-43.017606	0.000188	1.883501	0.638147	-0.015395
1458	7.2850e-01	-18.2498	-43.099710	0.000201	2.009068	0.680691	-0.016421
1459	7.2900e-01	-18.3059	-43.180531	0.000198	1.977676	0.670055	-0.016164
1460	7.2950e-01	-18.3540	-43.250234	0.000171	1.705615	0.577878	-0.013941
1461	7.3000e-01	-18.3556	-43.334904	0.000207	2.071851	0.701962	-0.016934
1462	7.3050e-01	-18.4054	-43.420857	0.000210	2.103243	0.712598	-0.017191
1463	7.3100e-01	-18.4711	-43.488421	0.000165	1.653295	0.560152	-0.013513
1464	7.3150e-01	-18.5096	-43.566677	0.000191	1.914893	0.648783	-0.015651
1465	7.3200e-01	-18.5642	-43.644505	0.000190	1.904429	0.645238	-0.015566
1466	7.3250e-01	-18.5802	-43.722760	0.000191	1.914893	0.648783	-0.015651
1467	7.3300e-01	-18.6267	-43.799733	0.000188	1.883501	0.638147	-0.015395
1468	7.3350e-01	-18.6652	-43.879271	0.000195	1.946284	0.659419	-0.015908
1469	7.3400e-01	-18.7374	-43.944270	0.000159	1.590512	0.538880	-0.013000
1470	7.3450e-01	-18.7214	-44.029367	-0.000208	-2.082315	-0.705507	-0.017019
1471	7.3500e-01	-18.7743	-44.111899	0.000202	2.019532	0.684236	-0.016506
1472	7.3550e-01	-18.8305	-44.175615	0.000156	1.559120	0.528244	-0.012743
1473	7.3600e-01	-18.8337	-44.267982	0.000226	2.260201	0.765777	-0.018473
1474	7.3650e-01	-18.8930	-44.347948	0.000196	1.956748	0.662964	-0.015993
1475	7.3700e-01	-18.9508	-44.420644	0.000178	1.778862	0.602695	-0.014539
1476	7.3750e-01	-18.9749	-44.506170	0.000209	2.092779	0.709053	-0.017105
1477	7.3800e-01	-19.0294	-44.579293	0.000179	1.789326	0.606240	-0.014625
1478	7.3850e-01	-19.0888	-44.658404	0.000194	1.935821	0.655874	-0.015822
1479	7.3900e-01	-19.0984	-44.734094	0.000185	1.852109	0.627512	-0.015138
1480	7.3950e-01	-19.1401	-44.813204	0.000194	1.935821	0.655874	-0.015822
1481	7.4000e-01	-19.2043	-44.884190	0.000174	1.737007	0.588514	-0.014197
1482	7.4050e-01	-19.2315	-44.966722	0.000202	2.019532	0.684236	-0.016506
1483	7.4100e-01	-19.2684	-45.047543	0.000198	1.977676	0.670055	-0.016164
1484	7.4150e-01	-19.2957	-45.118957	0.000175	1.747470	0.592059	-0.014283
1485	7.4200e-01	-19.3230	-45.219021	0.000245	2.448551	0.829592	-0.020013
1486	7.4250e-01	-19.3823	-45.282309	0.000155	1.548656	0.524699	-0.012658
1487	7.4300e-01	-19.4401	-45.353295	0.000174	1.737007	0.588514	-0.014197
1488	7.4350e-01	-19.4930	-45.426847	0.000180	1.799790	0.609785	-0.014710
1489	7.4400e-01	-19.4994	-45.512799	0.000210	2.103243	0.712598	-0.017191
1490	7.4450e-01	-19.5652	-45.580364	0.000165	1.653295	0.560152	-0.013513
1491	7.4500e-01	-19.5893	-45.664606	0.000206	2.061387	0.698417	-0.016848
1492	7.4550e-01	-19.6214	-45.746283	0.000200	1.998604	0.677145	-0.016335
1493	7.4600e-01	-19.6759	-45.818551	0.000177	1.768398	0.599150	-0.014454
1494	7.4650e-01	-19.7273	-45.895096	0.000187	1.873037	0.634602	-0.015309
1495	7.4700e-01	-19.7497	-45.978056	0.000203	2.029996	0.687781	-0.016592
1496	7.4750e-01	-19.7962	-46.052890	0.000183	1.831182	0.620421	-0.014967
1497	7.4800e-01	-19.8171	-46.129007	0.000186	1.862573	0.631057	-0.015223
1498	7.4850e-01	-19.8492	-46.202987	0.000181	1.810254	0.613331	-0.014796
1499	7.4900e-01	-19.8764	-46.285946	0.000203	2.029996	0.687781	-0.016592
1500	7.4950e-01	-19.9454	-46.364629	0.000193	1.925357	0.652329	-0.015737
1501	7.5000e-01	-19.9855	-46.444167	0.000195	1.946284	0.659419	-0.015908
1502	7.5050e-01	-19.9438	-46.504035	-0.000146	-1.464945	-0.496337	-0.011974
1503	7.5100e-01	-19.8748	-46.493772	0.000025	0.251133	0.085086	0.002053
1504	7.5150e-01	-19.8331	-46.461700	0.000078	0.784792	0.265895	0.006414
1505	7.5200e-01	-19.8059	-46.425779	0.000088	0.878967	0.297802	0.007184
1506	7.5250e-01	-19.7625	-46.365912	0.000146	1.464945	0.496337	0.011974
1507	7.5300e-01	-19.7289	-46.312459	0.000131	1.307987	0.443158	0.010691
1508	7.5350e-01	-19.6920	-46.251308	0.000150	1.496337	0.506973	0.012230
1509	7.5400e-01	-19.6294	-46.192724	0.000143	1.433554	0.485701	0.011717
1510	7.5450e-01	-19.5476	-46.126869	0.000161	1.611440	0.545971	0.013171
1511	7.5500e-01	-19.5476	-46.064008	-0.000154	-1.538193	-0.521154	0.012572
1512	7.5550e-01	-19.5043	-45.998582	0.000160	1.600976	0.542425	0.013085
1513	7.5600e-01	-19.4770	-45.939997	0.000143	1.433554	0.485701	0.011717
1514	7.5650e-01	-19.4160	-45.875426	0.000158	1.580048	0.535335	0.012914
1515	7.5700e-01	-19.3984	-45.809144	0.000162	1.621904	0.549516	0.013256
1516	7.5750e-01	-19.3599	-45.750987	0.000142	1.423090	0.482156	0.011631
1517	7.5800e-01	-19.3246	-45.684705	0.000162	1.621904	0.549516	0.013256
1518	7.5850e-01	-19.3037	-45.618423	0.000162	1.621904	0.549516	0.013256
1519	7.5900e-01	-19.2364	-45.554279	0.000157	1.569584	0.531790	0.012829
1520	7.5950e-01	-19.1962	-45.493984	0.000148	1.475409	0.499882	0.012059
1521	7.6000e-01	-19.1545	-45.431551	0.000153	1.527729	0.517608	0.012487
1522	7.6050e-01	-19.0856	-45.370400	0.000150	1.496337	0.506973	0.012230
1523	7.6100e-01	-19.0567	-45.299414	0.000174	1.737007	0.588514	0.014197
1524	7.6150e-01	-19.0390	-45.236126	0.000155	1.548656	0.524699	0.012658
1525	7.6200e-01	-18.9941	-45.173693	0.000153	1.527729	0.517608	0.012487
1526	7.6250e-01	-18.9444	-45.100569	0.000179	1.789326	0.606240	0.014625
1527	7.6300e-01	-18.9299	-45.035997	0.000158	1.580048	0.535335	0.012914
1528	7.6350e-01	-18.8706	-44.973564	0.000153	1.527729	0.517608	0.012487
1529	7.6400e-01	-18.8369	-44.900440	0.000179	1.789326	0.606240	0.014625
1530	7.6450e-01	-18.7968	-44.832875	0.000165	1.653295	0.560152	0.013513
1531	7.6500e-01	-18.7824	-44.758041	0.000183	1.831182	0.620421	0.014967
1532	7.6550e-01	-18.7182	-44.706298	0.000127	1.266131	0.428977	0.010349
1533	7.6600e-01	-18.6620	-44.638306	0.000166	1.663759	0.563697	0.013598
1534	7.6650e-01	-18.6620	-44.557485	-0.000198	-1.977676	-0.670055	0.016164
1535	7.6700e-01	-18.5947	-44.501466	0.000137	1.370770	0.464430	0.011204
1536	7.6750e-01	-18.5465	-44.435611	0.000161	1.611440	0.545971	0.013171
1537	7.6800e-01	-18.5241	-44.373606	0.000152	1.517265	0.514063	0.012401
1538	7.6850e-01	-18.4984	-44.299627	0.000181	1.810254	0.613331	0.014796
1539	7.6900e-01	-18.4567	-44.229924	0.000171	1.705615	0.577878	0.013941
1540	7.6950e-01	-18.3973	-44.165780	0.000157	1.569584	0.531790	0.012829
1541	7.7000e-01	-18.3460	-44.094366	0.000175	1.747470	0.592059	0.014283
1542	7.7050e-01	-18.2883	-44.026374	0.000166	1.663759	0.563697	0.013598
1543	7.7100e-01	-18.2674	-43.960947	0.000160	1.600976	0.542425	0.013085
1544	7.7150e-01	-18.2433	-43.883119	0.000190	1.904429	0.645238	0.015566
1545	7.7200e-01	-18.1808	-43.808713	0.000182	1.820718	0.616876	0.014881
1546	7.7250e-01	-18.1294	-43.739437	0.000170	1.695151	0.574333	0.013855
1547	7.7300e-01	-18.1567	-43.668024	-0.000175	-1.747470	-0.592059	0.014283
1548	7.7350e-01	-18.0781	-43.601742	0.000162	1.621904	0.549516	0.013256
1549	7.7400e-01	-18.0171	-43.537598	0.000157	1.569584	0.531790	0.012829
1550	7.7450e-01	-17.9867	-43.467040	0.000173	1.726543	0.584968	0.014112
1551	7.7500e-01	-17.9433	-43.390495	0.000187	1.873037	0.634602	0.015309
1552	7.7550e-01	-17.8824	-43.331483	0.000144	1.444018	0.489246	0.011802
1553	7.7600e-01	-17.8760	-43.258787	0.000178	1.778862	0.602695	0.014539
1554	7.7650e-01	-17.8535	-43.188656	0.000172	1.716079	0.581423	0.014026
1555	7.7700e-01	-17.7829	-43.126650	0.000152	1.517265	0.514063	0.012401
1556	7.7750e-01	-17.7556	-43.047112	0.000195	1.946284	0.659419	0.015908
1557	7.7800e-01	-17.7123	-42.978692	0.000167	1.674223	0.567242	0.013684
1558	7.7850e-01	-17.6514	-42.908561	0.000172	1.716079	0.581423	0.014026
1559	7.7900e-01	-17.6225	-42.836293	0.000177	1.768398	0.599150	0.014454
1560	7.7950e-01	-17.6081	-42.761031	0.000184	1.841646	0.623966	0.015052
1561	7.8000e-01	-17.5631	-42.689190	0.000176	1.757934	0.595604	0.014368
1562	7.8050e-01	-17.5359	-42.622908	0.000162	1.621904	0.549516	0.013256
1563	7.8100e-01	-17.4733	-42.554060	0.000168	1.684687	0.570787	0.013770
1564	7.8150e-01	-17.4220	-42.488633	0.000160	1.600976	0.542425	0.013085
1565	7.8200e-01	-17.3803	-42.412516	0.000186	1.862573	0.631057	0.015223
1566	7.8250e-01	-17.3434	-42.338965	0.000180	1.799790	0.609785	0.014710
1567	7.8300e-01	-17.3129	-42.268406	0.000173	1.726543	0.584968	0.014112
1568	7.8350e-01	-17.2680	-42.201269	0.000164	1.642832	0.556606	0.013427
1569	7.8400e-01	-17.2246	-42.131139	0.000172	1.716079	0.581423	0.014026
1570	7.8450e-01	-17.1781	-42.060581	0.000173	1.726543	0.584968	0.014112
1571	7.8500e-01	-17.1749	-41.989595	0.000174	1.737007	0.588514	0.014197
1572	7.8550e-01	-17.1204	-41.908346	0.000199	1.988140	0.673600	0.016250
1573	7.8600e-01	-17.0690	-41.829663	0.000193	1.925357	0.652329	0.015737
1574	7.8650e-01	-17.0097	-41.766374	0.000155	1.548656	0.524699	0.012658
1575	7.8700e-01	-16.9872	-41.693678	0.000178	1.778862	0.602695	0.014539
1576	7.8750e-01	-16.9535	-41.615850	0.000190	1.904429	0.645238	0.015566
1577	7.8800e-01	-16.9295	-41.541871	0.000181	1.810254	0.613331	0.014796
1578	7.8850e-01	-16.8974	-41.470458	0.000175	1.747470	0.592059	0.014283
1579	7.8900e-01	-16.8268	-41.406314	0.000157	1.569584	0.531790	0.012829
1580	7.8950e-01	-16.7883	-41.326776	0.000195	1.946284	0.659419	0.015908
1581	7.9000e-01	-16.7546	-41.260494	0.000162	1.621904	0.549516	0.013256
1582	7.9050e-01	-16.7017	-41.198488	0.000152	1.517265	0.514063	0.012401
1583	7.9100e-01	-16.6920	-41.117239	0.000199	1.988140	0.673600	0.016250
1584	7.9150e-01	-16.6182	-41.042405	0.000183	1.831182	0.620421	0.014967
1585	7.9200e-01	-16.5974	-40.966715	0.000185	1.852109	0.627512	0.015138
1586	7.9250e-01	-16.5557	-40.888460	0.000191	1.914893	0.648783	0.015651
1587	7.9300e-01	-16.5300	-40.823888	0.000158	1.580048	0.535335	0.012914
1588	7.9350e-01	-16.4642	-40.746060	0.000190	1.904429	0.645238	0.015566
1589	7.9400e-01	-16.4322	-40.678496	0.000165	1.653295	0.560152	0.013513
1590	7.9450e-01	-16.4065	-40.598957	0.000195	1.946284	0.659419	0.015908
1591	7.9500e-01	-16.3295	-40.540373	0.000143	1.433554	0.485701	0.011717
1592	7.9550e-01	-16.3199	-40.467676	0.000178	1.778862	0.602695	0.014539
1593	7.9600e-01	-16.2685	-40.384290	0.000204	2.040460	0.691326	0.016677
1594	7.9650e-01	-16.2300	-40.307317	0.000188	1.883501	0.638147	0.015395
1595	7.9700e-01	-16.1739	-40.242318	0.000159	1.590512	0.538880	0.013000
1596	7.9750e-01	-16.1514	-40.173470	0.000168	1.684687	0.570787	0.013770
1597	7.9800e-01	-16.1065	-40.094787	0.000193	1.925357	0.652329	0.015737
1598	7.9850e-01	-16.0985	-40.010545	0.000206	2.061387	0.698417	0.016848
1599	7.9900e-01	-16.0054	-39.948539	0.000152	1.517265	0.514063	0.012401
1600	7.9950e-01	-15.9878	-39.874560	0.000181	1.810254	0.613331	0.014796
1601	8.0000e-01	-15.9717	-39.798015	0.000187	1.873037	0.634602	0.015309
1602	8.0050e-01	-15.9140	-39.719760	0.000191	1.914893	0.648783	0.015651
1603	8.0100e-01	-15.8707	-39.646208	0.000180	1.799790	0.609785	0.014710
1604	8.0150e-01	-15.8017	-39.573084	0.000179	1.789326	0.606240	0.014625
1605	8.0200e-01	-15.7808	-39.501243	0.000176	1.757934	0.595604	0.014368
1606	8.0250e-01	-15.7391	-39.422133	0.000194	1.935821	0.655874	0.015822
1607	8.0300e-01	-15.7455	-39.347298	-0.000183	-1.831182	-0.620421	0.014967
1608	8.0350e-01	-15.6958	-39.267760	0.000195	1.946284	0.659419	0.015908
1609	8.0400e-01	-15.5980	-39.201906	0.000161	1.611440	0.545971	0.013171
1610	8.0450e-01	-15.6028	-39.123650	-0.000191	-1.914893	-0.648783	0.015651
1611	8.0500e-01	-15.5226	-39.051809	0.000176	1.757934	0.595604	0.014368
1612	8.0550e-01	-15.5354	-38.968422	-0.000204	-2.040460	-0.691326	0.016677
1613	8.0600e-01	-15.4504	-38.896154	0.000177	1.768398	0.599150	0.014454
1614	8.0650e-01	-15.4423	-38.820891	0.000184	1.841646	0.623966	0.015052
1615	8.0700e-01	-15.3942	-38.749478	0.000175	1.747470	0.592059	0.014283
1616	8.0750e-01	-15.3605	-38.674644	0.000183	1.831182	0.620421	0.014967
1617	8.0800e-01	-15.2932	-38.600664	0.000181	1.810254	0.613331	0.014796
1618	8.0850e-01	-15.2707	-38.523692	0.000188	1.883501	0.638147	0.015395
1619	8.0900e-01	-15.2354	-38.450140	0.000180	1.799790	0.609785	0.014710
1620	8.0950e-01	-15.1985	-38.372313	0.000190	1.904429	0.645238	0.015566
1621	8.1000e-01	-15.1632	-38.303893	0.000167	1.674223	0.567242	0.013684
1622	8.1050e-01	-15.1087	-38.220078	0.000205	2.050923	0.694872	0.016763
1623	8.1100e-01	-15.0525	-38.150375	0.000171	1.705615	0.577878	0.013941
1624	8.1150e-01	-15.0220	-38.078534	0.000176	1.757934	0.595604	0.014368
1625	8.1200e-01	-15.0012	-38.000279	0.000191	1.914893	0.648783	0.015651
1626	8.1250e-01	-14.9707	-37.931003	0.000170	1.695151	0.574333	0.013855
1627	8.1300e-01	-14.8953	-37.848472	0.000202	2.019532	0.684236	0.016506
1628	8.1350e-01	-14.8664	-37.762091	0.000211	2.113707	0.716143	0.017276
1629	8.1400e-01	-14.8199	-37.689395	0.000178	1.778862	0.602695	0.014539
1630	8.1450e-01	-14.7894	-37.618409	0.000174	1.737007	0.588514	0.014197
1631	8.1500e-01	-14.7333	-37.545285	0.000179	1.789326	0.606240	0.014625
1632	8.1550e-01	-14.6980	-37.469596	0.000185	1.852109	0.627512	0.015138
1633	8.1600e-01	-14.6450	-37.389630	0.000196	1.956748	0.662964	0.015993
1634	8.1650e-01	-14.6418	-37.307098	0.000202	2.019532	0.684236	0.016506
1635	8.1700e-01	-14.6130	-37.236540	0.000173	1.726543	0.584968	0.014112
1636	8.1750e-01	-14.5600	-37.157429	0.000194	1.935821	0.655874	0.015822
1637	8.1800e-01	-14.5199	-37.080884	0.000187	1.873037	0.634602	0.015309
1638	8.1850e-01	-14.4926	-36.999208	0.000200	1.998604	0.677145	0.016335
1639	8.1900e-01	-14.4172	-36.923946	0.000184	1.841646	0.623966	0.015052
1640	8.1950e-01	-14.4076	-36.840131	0.000205	2.050923	0.694872	0.016763
1641	8.2000e-01	-14.3467	-36.763586	0.000187	1.873037	0.634602	0.015309
1642	8.2050e-01	-14.3001	-36.690890	0.000178	1.778862	0.602695	0.014539
1643	8.2100e-01	-14.2713	-36.616483	0.000182	1.820718	0.616876	0.014881
1644	8.2150e-01	-14.2440	-36.539938	0.000187	1.873037	0.634602	0.015309
1645	8.2200e-01	-14.1670	-36.458689	0.000199	1.988140	0.673600	0.016250
1646	8.2250e-01	-14.1638	-36.383427	0.000184	1.841646	0.623966	0.015052
1647	8.2300e-01	-14.0932	-36.299185	0.000206	2.061387	0.698417	0.016848
1648	8.2350e-01	-14.0483	-36.232048	0.000164	1.642832	0.556606	0.013427
1649	8.2400e-01	-14.0723	-36.143957	-0.000216	-2.155562	-0.730324	0.017618
1650	8.2450e-01	-13.9969	-36.079813	0.000157	1.569584	0.531790	0.012829
1651	8.2500e-01	-13.9360	-35.993006	0.000212	2.124171	0.719689	0.017362
1652	8.2550e-01	-13.9135	-35.913467	0.000195	1.946284	0.659419	0.015908
1653	8.2600e-01	-13.8558	-35.843764	0.000171	1.705615	0.577878	0.013941
1654	8.2650e-01	-13.8333	-35.766364	0.000189	1.893965	0.641693	0.015480
1655	8.2700e-01	-13.7852	-35.685971	0.000197	1.967212	0.666510	0.016079
1656	8.2750e-01	-13.7836	-35.603011	0.000203	2.029996	0.687781	0.016592
1657	8.2800e-01	-13.7018	-35.531170	0.000176	1.757934	0.595604	0.014368
1658	8.2850e-01	-13.6697	-35.460184	0.000174	1.737007	0.588514	0.014197
1659	8.2900e-01	-13.6119	-35.377225	0.000203	2.029996	0.687781	0.016592
1660	8.2950e-01	-13.5750	-35.292983	0.000206	2.061387	0.698417	0.016848
1661	8.3000e-01	-13.5558	-35.210024	0.000203	2.029996	0.687781	0.016592
1662	8.3050e-01	-13.4900	-35.141176	0.000168	1.684687	0.570787	0.013770
1663	8.3100e-01	-13.4820	-35.061638	0.000195	1.946284	0.659419	0.015908
1664	8.3150e-01	-13.4322	-34.971836	0.000220	2.197418	0.744505	0.017960
1665	8.3200e-01	-13.3953	-34.894436	0.000189	1.893965	0.641693	0.015480
1666	8.3250e-01	-13.3520	-34.815753	0.000193	1.925357	0.652329	0.015737
1667	8.3300e-01	-13.2927	-34.740064	0.000185	1.852109	0.627512	0.015138
1668	8.3350e-01	-13.2542	-34.660525	0.000195	1.946284	0.659419	0.015908
1669	8.3400e-01	-13.2333	-34.582697	0.000190	1.904429	0.645238	0.015566
1670	8.3450e-01	-13.1884	-34.503159	0.000195	1.946284	0.659419	0.015908
1671	8.3500e-01	-13.1483	-34.419772	0.000204	2.040460	0.691326	0.016677
1672	8.3550e-01	-13.0954	-34.342800	0.000188	1.883501	0.638147	0.015395
1673	8.3600e-01	-13.0954	-34.265827	-0.000188	-1.883501	-0.638147	0.015395
1674	8.3650e-01	-13.0216	-34.191420	0.000182	1.820718	0.616876	0.014881
1675	8.3700e-01	-12.9750	-34.116158	0.000184	1.841646	0.623966	0.015052
1676	8.3750e-01	-12.9558	-34.025929	0.000221	2.207882	0.748051	0.018046
1677	8.3800e-01	-12.8916	-33.946819	0.000194	1.935821	0.655874	0.015822
1678	8.3850e-01	-12.8740	-33.873695	0.000179	1.789326	0.606240	0.014625
1679	8.3900e-01	-12.8788	-33.764650	-0.000267	-2.668293	-0.904042	0.021809
1680	8.3950e-01	-12.7793	-33.712052	0.000129	1.287059	0.436067	0.010520
1681	8.4000e-01	-12.7360	-33.617975	0.000230	2.302057	0.779958	0.018816
1682	8.4050e-01	-12.7119	-33.538009	0.000196	1.956748	0.662964	0.015993
1683	8.4100e-01	-12.6526	-33.464457	0.000180	1.799790	0.609785	0.014710
1684	8.4150e-01	-12.6301	-33.395610	0.000168	1.684687	0.570787	0.013770
1685	8.4200e-01	-12.6125	-33.308374	0.000213	2.134635	0.723234	0.017447
1686	8.4250e-01	-12.5756	-33.225415	0.000203	2.029996	0.687781	0.016592
1687	8.4300e-01	-12.4954	-33.147587	0.000190	1.904429	0.645238	0.015566
1688	8.4350e-01	-12.4777	-33.062917	0.000207	2.071851	0.701962	0.016934
1689	8.4400e-01	-12.4264	-32.981668	0.000199	1.988140	0.673600	0.016250
1690	8.4450e-01	-12.4055	-32.902130	0.000195	1.946284	0.659419	0.015908
1691	8.4500e-01	-12.3382	-32.828151	0.000181	1.810254	0.613331	0.014796
1692	8.4550e-01	-12.2948	-32.754172	0.000181	1.810254	0.613331	0.014796
1693	8.4600e-01	-12.2740	-32.663515	0.000222	2.218346	0.751596	0.018131
1694	8.4650e-01	-12.2130	-32.578845	0.000207	2.071851	0.701962	0.016934
1695	8.4700e-01	-12.1922	-32.502728	0.000186	1.862573	0.631057	0.015223
1696	8.4750e-01	-12.1424	-32.420196	0.000202	2.019532	0.684236	0.016506
1697	8.4800e-01	-12.1071	-32.333816	0.000211	2.113707	0.716143	0.017276
1698	8.4850e-01	-12.0719	-32.248291	0.000209	2.092779	0.709053	0.017105
1699	8.4900e-01	-12.0398	-32.170463	0.000190	1.904429	0.645238	0.015566
1700	8.4950e-01	-11.9756	-32.095629	0.000183	1.831182	0.620421	0.014967
1701	8.5000e-01	-11.9563	-32.010531	0.000208	2.082315	0.705507	0.017019
1702	8.5050e-01	-11.8938	-31.935697	0.000183	1.831182	0.620421	0.014967
1703	8.5100e-01	-11.8408	-31.855731	0.000196	1.956748	0.662964	0.015993
1704	8.5150e-01	-11.8585	-31.767640	-0.000216	-2.155562	-0.730324	0.017618
1705	8.5200e-01	-11.8136	-31.683826	0.000205	2.050923	0.694872	0.016763
1706	8.5250e-01	-11.7542	-31.606853	0.000188	1.883501	0.638147	0.015395
1707	8.5300e-01	-11.7013	-31.523894	0.000203	2.029996	0.687781	0.016592
1708	8.5350e-01	-11.6900	-31.431527	0.000226	2.260201	0.765777	0.018473
1709	8.5400e-01	-11.6243	-31.338304	0.000228	2.281129	0.772867	0.018644
1710	8.5450e-01	-11.5697	-31.275444	0.000154	1.538193	0.521154	0.012572
1711	8.5500e-01	-11.5874	-31.189491	-0.000210	-2.103243	-0.712598	0.017191
1712	8.5550e-01	-11.5104	-31.100545	0.000218	2.176490	0.737415	0.017789
1713	8.5600e-01	-11.4767	-31.014592	0.000210	2.103243	0.712598	0.017191
1714	8.5650e-01	-11.4286	-30.937192	0.000189	1.893965	0.641693	0.015480
1715	8.5700e-01	-11.3660	-30.858937	0.000191	1.914893	0.648783	0.015651
1716	8.5750e-01	-11.3291	-30.773839	0.000208	2.082315	0.705507	0.017019
1717	8.5800e-01	-11.2906	-30.690880	0.000203	2.029996	0.687781	0.016592
1718	8.5850e-01	-11.2762	-30.612197	0.000193	1.925357	0.652329	0.015737
1719	8.5900e-01	-11.2409	-30.527527	0.000207	2.071851	0.701962	0.016934
1720	8.5950e-01	-11.1863	-30.435160	0.000226	2.260201	0.765777	0.018473
1721	8.6000e-01	-11.1655	-30.353056	0.000201	2.009068	0.680691	0.016421
1722	8.6050e-01	-11.1013	-30.275656	0.000189	1.893965	0.641693	0.015480
1723	8.6100e-01	-11.0612	-30.193552	0.000201	2.009068	0.680691	0.016421
1724	8.6150e-01	-11.0419	-30.102895	0.000222	2.218346	0.751596	0.018131
1725	8.6200e-01	-10.9890	-30.024212	0.000193	1.925357	0.652329	0.015737
1726	8.6250e-01	-10.9393	-29.936549	0.000215	2.145098	0.726779	0.017533
1727	8.6300e-01	-10.9136	-29.853589	0.000203	2.029996	0.687781	0.016592
1728	8.6350e-01	-10.8526	-29.774479	0.000194	1.935821	0.655874	0.015822
1729	8.6400e-01	-10.8238	-29.688526	0.000210	2.103243	0.712598	0.017191
1730	8.6450e-01	-10.7981	-29.601718	0.000212	2.124171	0.719689	0.017362
1731	8.6500e-01	-10.7724	-29.509779	0.000225	2.249737	0.762232	0.018388
1732	8.6550e-01	-10.7259	-29.428530	0.000199	1.988140	0.673600	0.016250
1733	8.6600e-01	-10.6762	-29.335735	0.000227	2.270665	0.769322	0.018559
1734	8.6650e-01	-10.6216	-29.267743	0.000166	1.663759	0.563697	0.013598
1735	8.6700e-01	-10.5831	-29.169389	0.000241	2.406696	0.815411	0.019671
1736	8.6750e-01	-10.5302	-29.105245	0.000157	1.569584	0.531790	0.012829
1737	8.6800e-01	-10.4917	-29.020148	0.000208	2.082315	0.705507	0.017019
1738	8.6850e-01	-10.4596	-28.927781	0.000226	2.260201	0.765777	0.018473
1739	8.6900e-01	-10.4147	-28.830710	0.000238	2.375304	0.804775	0.019414
1740	8.6950e-01	-10.4051	-28.743902	0.000212	2.124171	0.719689	0.017362
1741	8.7000e-01	-10.3377	-28.672061	0.000176	1.757934	0.595604	0.014368
1742	8.7050e-01	-10.3104	-28.585681	0.000211	2.113707	0.716143	0.017276
1743	8.7100e-01	-10.2783	-28.498873	0.000212	2.124171	0.719689	0.017362
1744	8.7150e-01	-10.2334	-28.417196	0.000200	1.998604	0.677145	0.016335
1745	8.7200e-01	-10.2045	-28.333809	0.000204	2.040460	0.691326	0.016677
1746	8.7250e-01	-10.1420	-28.234600	0.000243	2.427624	0.822501	0.019842
1747	8.7300e-01	-10.1115	-28.155062	0.000195	1.946284	0.659419	0.015908
1748	8.7350e-01	-10.0666	-28.076379	0.000193	1.925357	0.652329	0.015737
1749	8.7400e-01	-10.0297	-27.986578	0.000220	2.197418	0.744505	0.017960
1750	8.7450e-01	-9.9735	-27.900197	0.000211	2.113707	0.716143	0.017276
1751	8.7500e-01	-9.9222	-27.815527	0.000207	2.071851	0.701962	0.016934
1752	8.7550e-01	-9.8949	-27.730002	0.000209	2.092779	0.709053	0.017105
1753	8.7600e-01	-9.8789	-27.640201	0.000220	2.197418	0.744505	0.017960
1754	8.7650e-01	-9.8163	-27.549117	0.000223	2.228810	0.755141	0.018217
1755	8.7700e-01	-9.8067	-27.469579	0.000195	1.946284	0.659419	0.015908
1756	8.7750e-01	-9.7569	-27.375501	0.000230	2.302057	0.779958	0.018816
1757	8.7800e-01	-9.7345	-27.291259	0.000206	2.061387	0.698417	0.016848
1758	8.7850e-01	-9.6912	-27.202740	0.000217	2.166026	0.733870	0.017704
1759	8.7900e-01	-9.5965	-27.122774	0.000196	1.956748	0.662964	0.015993
1760	8.7950e-01	-9.5901	-27.029552	0.000228	2.281129	0.772867	0.018644
1761	8.8000e-01	-9.5516	-26.941889	0.000215	2.145098	0.726779	0.017533
1762	8.8050e-01	-9.5131	-26.857647	0.000206	2.061387	0.698417	0.016848
1763	8.8100e-01	-9.4778	-26.765707	0.000225	2.249737	0.762232	0.018388
1764	8.8150e-01	-9.4457	-26.696860	0.000168	1.684687	0.570787	0.013770
1765	8.8200e-01	-9.3767	-26.605776	0.000223	2.228810	0.755141	0.018217
1766	8.8250e-01	-9.3366	-26.506994	0.000242	2.417160	0.818956	0.019756
1767	8.8300e-01	-9.3398	-26.421469	-0.000209	-2.092779	-0.709053	0.017105
1768	8.8350e-01	-9.2660	-26.336799	0.000207	2.071851	0.701962	0.016934
1769	8.8400e-01	-9.2243	-26.246143	0.000222	2.218346	0.751596	0.018131
1770	8.8450e-01	-9.1762	-26.162756	0.000204	2.040460	0.691326	0.016677
1771	8.8500e-01	-9.1393	-26.066540	0.000235	2.354376	0.797684	0.019243
1772	8.8550e-01	-9.1297	-25.974173	0.000226	2.260201	0.765777	0.018473
1773	8.8600e-01	-9.0960	-25.897628	0.000187	1.873037	0.634602	0.015309
1774	8.8650e-01	-9.0382	-25.814241	0.000204	2.040460	0.691326	0.016677
1775	8.8700e-01	-8.9693	-25.719736	0.000231	2.312521	0.783503	0.018901
1776	8.8750e-01	-8.9516	-25.629507	0.000221	2.207882	0.748051	0.018046
1777	8.8800e-01	-8.9292	-25.545692	0.000205	2.050923	0.694872	0.016763
1778	8.8850e-01	-8.8666	-25.458457	0.000213	2.134635	0.723234	0.017447
1779	8.8900e-01	-8.8313	-25.363096	0.000233	2.333449	0.790594	0.019072
1780	8.8950e-01	-8.8121	-25.273295	0.000220	2.197418	0.744505	0.017960
1781	8.9000e-01	-8.7447	-25.180928	0.000226	2.260201	0.765777	0.018473
1782	8.9050e-01	-8.7030	-25.094548	0.000211	2.113707	0.716143	0.017276
1783	8.9100e-01	-8.6741	-25.009023	0.000209	2.092779	0.709053	0.017105
1784	8.9150e-01	-8.6244	-24.923925	0.000208	2.082315	0.705507	0.017019
1785	8.9200e-01	-8.6067	-24.827710	0.000235	2.354376	0.797684	0.019243
1786	8.9250e-01	-8.5425	-24.735343	0.000226	2.260201	0.765777	0.018473
1787	8.9300e-01	-8.5169	-24.653666	0.000200	1.998604	0.677145	0.016335
1788	8.9350e-01	-8.4447	-24.560016	0.000229	2.291593	0.776413	0.018730
1789	8.9400e-01	-8.4591	-24.464656	-0.000233	-2.333449	-0.790594	0.019072
1790	8.9450e-01	-8.3821	-24.384690	0.000196	1.956748	0.662964	0.015993
1791	8.9500e-01	-8.3436	-24.291895	0.000227	2.270665	0.769322	0.018559
1792	8.9550e-01	-8.2971	-24.202521	0.000219	2.186954	0.740960	0.017875
1793	8.9600e-01	-8.2843	-24.111437	0.000223	2.228810	0.755141	0.018217
1794	8.9650e-01	-8.2040	-24.020353	0.000223	2.228810	0.755141	0.018217
1795	8.9700e-01	-8.1944	-23.926703	0.000229	2.291593	0.776413	0.018730
1796	8.9750e-01	-8.1688	-23.836047	0.000222	2.218346	0.751596	0.018131
1797	8.9800e-01	-8.1046	-23.753943	0.000201	2.009068	0.680691	0.016421
1798	8.9850e-01	-8.0516	-23.655161	0.000242	2.417160	0.818956	0.019756
1799	8.9900e-01	-8.0372	-23.561511	0.000229	2.291593	0.776413	0.018730
1800	8.9950e-01	-8.0099	-23.459736	0.000249	2.490407	0.843773	0.020355
1801	9.0000e-01	-7.9249	-23.389606	0.000172	1.716079	0.581423	0.014026
1802	9.0050e-01	-7.8944	-23.297239	0.000226	2.260201	0.765777	0.018473
1803	9.0100e-01	-7.8656	-23.203589	0.000229	2.291593	0.776413	0.018730
1804	9.0150e-01	-7.8222	-23.108228	0.000233	2.333449	0.790594	0.019072
1805	9.0200e-01	-7.8030	-23.020565	0.000215	2.145098	0.726779	0.017533
1806	9.0250e-01	-7.7260	-22.932047	0.000217	2.166026	0.733870	0.017704
1807	9.0300e-01	-7.6891	-22.842245	0.000220	2.197418	0.744505	0.017960
1808	9.0350e-01	-7.6666	-22.751161	0.000223	2.228810	0.755141	0.018217
1809	9.0400e-01	-7.5993	-22.658794	0.000226	2.260201	0.765777	0.018473
1810	9.0450e-01	-7.5880	-22.562579	0.000235	2.354376	0.797684	0.019243
1811	9.0500e-01	-7.5511	-22.476626	0.000210	2.103243	0.712598	0.017191
1812	9.0550e-01	-7.5222	-22.365016	0.000273	2.731077	0.925314	0.022322
1813	9.0600e-01	-7.4709	-22.287188	0.000190	1.904429	0.645238	0.015566
1814	9.0650e-01	-7.4388	-22.193110	0.000230	2.302057	0.779958	0.018816
1815	9.0700e-01	-7.3971	-22.093901	0.000243	2.427624	0.822501	0.019842
1816	9.0750e-01	-7.3378	-22.007521	0.000211	2.113707	0.716143	0.017276
1817	9.0800e-01	-7.3041	-21.912161	0.000233	2.333449	0.790594	0.019072
1818	9.0850e-01	-7.2656	-21.818511	0.000229	2.291593	0.776413	0.018730
1819	9.0900e-01	-7.2399	-21.734696	0.000205	2.050923	0.694872	0.016763
1820	9.0950e-01	-7.1757	-21.640618	0.000230	2.302057	0.779958	0.018816
1821	9.1000e-01	-7.1661	-21.550817	0.000220	2.197418	0.744505	0.017960
1822	9.1050e-01	-7.1084	-21.447332	0.000253	2.532263	0.857954	0.020697
1823	9.1100e-01	-7.0859	-21.361379	0.000210	2.103243	0.712598	0.017191
1824	9.1150e-01	-7.0314	-21.274144	0.000213	2.134635	0.723234	0.017447
1825	9.1200e-01	-7.0025	-21.171514	0.000251	2.511335	0.850863	0.020526
1826	9.1250e-01	-6.9447	-21.082567	0.000218	2.176490	0.737415	0.017789
1827	9.1300e-01	-6.8950	-20.992339	0.000221	2.207882	0.748051	0.018046
1828	9.1350e-01	-6.8469	-20.898689	0.000229	2.291593	0.776413	0.018730
1829	9.1400e-01	-6.8372	-20.803756	0.000232	2.322985	0.787049	0.018987
1830	9.1450e-01	-6.8003	-20.705830	0.000240	2.396232	0.811865	0.019585
1831	9.1500e-01	-6.7618	-20.608759	0.000238	2.375304	0.804775	0.019414
1832	9.1550e-01	-6.7233	-20.523234	0.000209	2.092779	0.709053	0.017105
1833	9.1600e-01	-6.6640	-20.424452	0.000242	2.417160	0.818956	0.019756
1834	9.1650e-01	-6.6159	-20.329519	0.000232	2.322985	0.787049	0.018987
1835	9.1700e-01	-6.5982	-20.238435	0.000223	2.228810	0.755141	0.018217
1836	9.1750e-01	-6.5549	-20.131529	0.000262	2.615974	0.886316	0.021381
1837	9.1800e-01	-6.5068	-20.046431	0.000208	2.082315	0.705507	0.017019
1838	9.1850e-01	-6.4506	-19.948505	0.000240	2.396232	0.811865	0.019585
1839	9.1900e-01	-6.4025	-19.853145	0.000233	2.333449	0.790594	0.019072
1840	9.1950e-01	-6.4426	-19.747094	-0.000260	-2.595046	-0.879225	0.021210
1841	9.2000e-01	-6.3592	-19.669694	0.000189	1.893965	0.641693	0.015480
1842	9.2050e-01	-6.3287	-19.573906	0.000234	2.343912	0.794139	0.019158
1843	9.2100e-01	-6.2822	-19.472558	0.000248	2.479943	0.840227	0.020269
1844	9.2150e-01	-6.2373	-19.382757	0.000220	2.197418	0.744505	0.017960
1845	9.2200e-01	-6.2180	-19.289962	0.000227	2.270665	0.769322	0.018559
1846	9.2250e-01	-6.1490	-19.192464	0.000239	2.385768	0.808320	0.019500
1847	9.2300e-01	-6.1121	-19.100524	0.000225	2.249737	0.762232	0.018388
1848	9.2350e-01	-6.0576	-19.002171	0.000241	2.406696	0.815411	0.019671
1849	9.2400e-01	-6.0079	-18.915790	0.000211	2.113707	0.716143	0.017276
1850	9.2450e-01	-5.9517	-18.812305	0.000253	2.532263	0.857954	0.020697
1851	9.2500e-01	-5.9132	-18.711385	0.000247	2.469479	0.836682	0.020184
1852	9.2550e-01	-5.9052	-18.604051	0.000263	2.626438	0.889861	0.021467
1853	9.2600e-01	-5.8362	-18.514678	0.000219	2.186954	0.740960	0.017875
1854	9.2650e-01	-5.8298	-18.423594	0.000223	2.228810	0.755141	0.018217
1855	9.2700e-01	-5.7624	-18.329516	0.000230	2.302057	0.779958	0.018816
1856	9.2750e-01	-5.7496	-18.226458	0.000252	2.521799	0.854409	0.020612
1857	9.2800e-01	-5.7159	-18.126394	0.000245	2.448551	0.829592	0.020013
1858	9.2850e-01	-5.6902	-18.027185	0.000243	2.427624	0.822501	0.019842
1859	9.2900e-01	-5.6036	-17.934818	0.000226	2.260201	0.765777	0.018473
1860	9.2950e-01	-5.5875	-17.833898	0.000247	2.469479	0.836682	0.020184
1861	9.3000e-01	-5.5843	-17.730413	0.000253	2.532263	0.857954	0.020697
1862	9.3050e-01	-5.5009	-17.628638	0.000249	2.490407	0.843773	0.020355
1863	9.3100e-01	-5.4464	-17.548672	0.000196	1.956748	0.662964	0.015993
1864	9.3150e-01	-5.4255	-17.440483	0.000265	2.647365	0.896952	0.021638
1865	9.3200e-01	-5.4159	-17.339136	0.000248	2.479943	0.840227	0.020269
1866	9.3250e-01	-5.3565	-17.240782	0.000241	2.406696	0.815411	0.019671
1867	9.3300e-01	-5.3084	-17.150553	0.000221	2.207882	0.748051	0.018046
1868	9.3350e-01	-5.2458	-17.050916	0.000244	2.438088	0.826046	0.019927
1869	9.3400e-01	-5.2378	-16.949142	0.000249	2.490407	0.843773	0.020355
1870	9.3450e-01	-5.1849	-16.842235	0.000262	2.615974	0.886316	0.021381
1871	9.3500e-01	-5.1512	-16.756710	0.000209	2.092779	0.709053	0.017105
1872	9.3550e-01	-5.1255	-16.652370	0.000255	2.553190	0.865044	0.020868
1873	9.3600e-01	-5.0790	-16.543753	0.000266	2.657829	0.900497	0.021723
1874	9.3650e-01	-5.0309	-16.454379	0.000219	2.186954	0.740960	0.017875
1875	9.3700e-01	-4.9876	-16.354315	0.000245	2.448551	0.829592	0.020013
1876	9.3750e-01	-4.9635	-16.250830	0.000253	2.532263	0.857954	0.020697
1877	9.3800e-01	-4.9009	-16.159745	0.000223	2.228810	0.755141	0.018217
1878	9.3850e-01	-4.8608	-16.050701	0.000267	2.668293	0.904042	0.021809
1879	9.3900e-01	-4.8336	-15.948926	0.000249	2.490407	0.843773	0.020355
1880	9.3950e-01	-4.7790	-15.856131	0.000227	2.270665	0.769322	0.018559
1881	9.4000e-01	-4.7566	-15.759060	0.000238	2.375304	0.804775	0.019414
1882	9.4050e-01	-4.7084	-15.660279	0.000242	2.417160	0.818956	0.019756
1883	9.4100e-01	-4.6587	-15.558504	0.000249	2.490407	0.843773	0.020355
1884	9.4150e-01	-4.6218	-15.459295	0.000243	2.427624	0.822501	0.019842
1885	9.4200e-01	-4.5945	-15.351961	0.000263	2.626438	0.889861	0.021467
1886	9.4250e-01	-4.5496	-15.248476	0.000253	2.532263	0.857954	0.020697
1887	9.4300e-01	-4.5223	-15.145846	0.000251	2.511335	0.850863	0.020526
1888	9.4350e-01	-4.4630	-15.042360	0.000253	2.532263	0.857954	0.020697
1889	9.4400e-01	-4.4437	-14.941441	0.000247	2.469479	0.836682	0.020184
1890	9.4450e-01	-4.3972	-14.840094	0.000248	2.479943	0.840227	0.020269
1891	9.4500e-01	-4.3539	-14.737036	0.000252	2.521799	0.854409	0.020612
1892	9.4550e-01	-4.2897	-14.622432	0.000280	2.804324	0.950131	0.022921
1893	9.4600e-01	-4.2913	-14.527927	-0.000231	-2.312521	-0.783503	0.018901
1894	9.4650e-01	-4.2223	-14.432139	0.000234	2.343912	0.794139	0.019158
1895	9.4700e-01	-4.1806	-14.327799	0.000255	2.553190	0.865044	0.020868
1896	9.4750e-01	-4.1566	-14.222603	0.000257	2.574118	0.872135	0.021039
1897	9.4800e-01	-4.1116	-14.117835	0.000256	2.563654	0.868590	0.020954
1898	9.4850e-01	-4.0748	-14.015205	0.000251	2.511335	0.850863	0.020526
1899	9.4900e-01	-4.0138	-13.920699	0.000231	2.312521	0.783503	0.018901
1900	9.4950e-01	-4.0074	-13.808234	0.000275	2.752004	0.932404	0.022493
1901	9.5000e-01	-3.9256	-13.710308	0.000240	2.396232	0.811865	0.019585
1902	9.5050e-01	-3.9336	-13.595277	-0.000281	-2.814788	-0.953676	0.023006
1903	9.5100e-01	-3.8518	-13.499488	0.000234	2.343912	0.794139	0.019158
1904	9.5150e-01	-3.8245	-13.387451	0.000274	2.741540	0.928859	0.022408
1905	9.5200e-01	-3.7812	-13.300215	0.000213	2.134635	0.723234	0.017447
1906	9.5250e-01	-3.7427	-13.177914	0.000299	2.992674	1.013945	0.024460
1907	9.5300e-01	-3.6865	-13.075284	0.000251	2.511335	0.850863	0.020526
1908	9.5350e-01	-3.6609	-12.970516	0.000256	2.563654	0.868590	0.020954
1909	9.5400e-01	-3.6047	-12.866603	0.000254	2.542726	0.861499	0.020783
1910	9.5450e-01	-3.5614	-12.764401	0.000250	2.500871	0.847318	0.020440
1911	9.5500e-01	-3.5534	-12.652790	0.000273	2.731077	0.925314	0.022322
1912	9.5550e-01	-3.4940	-12.555720	0.000238	2.375304	0.804775	0.019414
1913	9.5600e-01	-3.4651	-12.442826	0.000276	2.762468	0.935950	0.022579
1914	9.5650e-01	-3.4427	-12.343617	0.000243	2.427624	0.822501	0.019842
1915	9.5700e-01	-3.3801	-12.239277	0.000255	2.553190	0.865044	0.020868
1916	9.5750e-01	-3.3657	-12.131515	0.000264	2.636902	0.893406	0.021552
1917	9.5800e-01	-3.3304	-12.017767	0.000278	2.783396	0.943040	0.022750
1918	9.5850e-01	-3.2742	-11.907012	0.000271	2.710149	0.918223	0.022151
1919	9.5900e-01	-3.2502	-11.801389	0.000258	2.584582	0.875680	0.021125
1920	9.5950e-01	-3.2020	-11.695337	0.000260	2.595046	0.879225	0.021210
1921	9.6000e-01	-3.1668	-11.578596	0.000286	2.856643	0.967857	0.023348
1922	9.6050e-01	-3.0994	-11.488367	0.000221	2.207882	0.748051	0.018046
1923	9.6100e-01	-3.0898	-11.375046	0.000277	2.772932	0.939495	0.022664
1924	9.6150e-01	-3.0625	-11.268567	0.000261	2.605510	0.882771	0.021296
1925	9.6200e-01	-2.9903	-11.149260	0.000292	2.919427	0.989129	0.023861
1926	9.6250e-01	-2.9502	-11.047058	0.000250	2.500871	0.847318	0.020440
1927	9.6300e-01	-2.9229	-10.936730	0.000270	2.699685	0.914678	0.022065
1928	9.6350e-01	-2.8636	-10.836238	0.000246	2.459015	0.833137	0.020098
1929	9.6400e-01	-2.8395	-10.715648	0.000295	2.950818	0.999764	0.024118
1930	9.6450e-01	-2.7946	-10.609597	0.000260	2.595046	0.879225	0.021210
1931	9.6500e-01	-2.7529	-10.489434	0.000294	2.940354	0.996219	0.024033
1932	9.6550e-01	-2.7031	-10.388087	0.000248	2.479943	0.840227	0.020269
1933	9.6600e-01	-2.7015	-10.275194	0.000276	2.762468	0.935950	0.022579
1934	9.6650e-01	-2.6261	-10.173419	0.000249	2.490407	0.843773	0.020355
1935	9.6700e-01	-2.5716	-10.058388	0.000281	2.814788	0.953676	0.023006
1936	9.6750e-01	-2.5636	-9.946350	0.000274	2.741540	0.928859	0.022408
1937	9.6800e-01	-2.5074	-9.841154	0.000257	2.574118	0.872135	0.021039
1938	9.6850e-01	-2.4561	-9.731255	0.000269	2.689221	0.911133	0.021980
1939	9.6900e-01	-2.4449	-9.616651	0.000280	2.804324	0.950131	0.022921
1940	9.6950e-01	-2.3678	-9.511455	0.000257	2.574118	0.872135	0.021039
1941	9.7000e-01	-2.3662	-9.387444	0.000303	3.034530	1.028126	0.024802
1942	9.7050e-01	-2.3005	-9.284814	0.000251	2.511335	0.850863	0.020526
1943	9.7100e-01	-2.2636	-9.169355	0.000283	2.825252	0.957221	0.023092
1944	9.7150e-01	-2.2411	-9.050048	0.000292	2.919427	0.989129	0.023861
1945	9.7200e-01	-2.1609	-8.948273	0.000249	2.490407	0.843773	0.020355
1946	9.7250e-01	-2.1641	-8.825117	-0.000301	-3.013602	-1.021036	0.024631
1947	9.7300e-01	-2.1465	-8.708375	0.000286	2.856643	0.967857	0.023348
1948	9.7350e-01	-2.0855	-8.601896	0.000261	2.605510	0.882771	0.021296
1949	9.7400e-01	-2.0358	-8.497556	0.000255	2.553190	0.865044	0.020868
1950	9.7450e-01	-1.9812	-8.382097	0.000283	2.825252	0.957221	0.023092
1951	9.7500e-01	-1.9395	-8.261934	0.000294	2.940354	0.996219	0.024033
1952	9.7550e-01	-1.8898	-8.153317	0.000266	2.657829	0.900497	0.021723
1953	9.7600e-01	-1.8609	-8.034865	0.000290	2.898499	0.982038	0.023690
1954	9.7650e-01	-1.8272	-7.919406	0.000283	2.825252	0.957221	0.023092
1955	9.7700e-01	-1.7871	-7.807796	0.000273	2.731077	0.925314	0.022322
1956	9.7750e-01	-1.7213	-7.691482	0.000285	2.846179	0.964312	0.023263
1957	9.7800e-01	-1.6941	-7.570036	0.000297	2.971746	1.006855	0.024289
1958	9.7850e-01	-1.6508	-7.448163	0.000298	2.982210	1.010400	0.024375
1959	9.7900e-01	-1.6251	-7.335698	0.000275	2.752004	0.932404	0.022493
1960	9.7950e-01	-1.6010	-7.215107	0.000295	2.950818	0.999764	0.024118
1961	9.8000e-01	-1.5401	-7.101787	0.000277	2.772932	0.939495	0.022664
1962	9.8050e-01	-1.5064	-6.983335	0.000290	2.898499	0.982038	0.023690
1963	9.8100e-01	-1.4775	-6.872580	0.000271	2.710149	0.918223	0.022151
1964	9.8150e-01	-1.4582	-6.752845	0.000293	2.929891	0.992674	0.023947
1965	9.8200e-01	-1.3925	-6.634392	0.000290	2.898499	0.982038	0.023690
1966	9.8250e-01	-1.3524	-6.518933	0.000283	2.825252	0.957221	0.023092
1967	9.8300e-01	-1.3331	-6.399626	0.000292	2.919427	0.989129	0.023861
1968	9.8350e-01	-1.2545	-6.292292	0.000263	2.626438	0.889861	0.021467
1969	9.8400e-01	-1.2256	-6.161011	0.000321	3.212416	1.088396	0.026256
1970	9.8450e-01	-1.1952	-6.041276	0.000293	2.929891	0.992674	0.023947
1971	9.8500e-01	-1.1534	-5.922396	0.000291	2.908963	0.985583	0.023776
1972	9.8550e-01	-1.0973	-5.812069	0.000270	2.699685	0.914678	0.022065
1973	9.8600e-01	-1.0668	-5.694900	0.000287	2.867107	0.971402	0.023434
1974	9.8650e-01	-1.0411	-5.569605	0.000307	3.065921	1.038762	0.025059
1975	9.8700e-01	-0.9850	-5.460133	0.000268	2.678757	0.907587	0.021894
1976	9.8750e-01	-0.9674	-5.333984	0.000309	3.086849	1.045853	0.025230
1977	9.8800e-01	-0.9144	-5.212538	0.000297	2.971746	1.006855	0.024289
1978	9.8850e-01	-0.8759	-5.088099	0.000304	3.044993	1.031672	0.024888
1979	9.8900e-01	-0.8182	-4.965371	0.000300	3.003138	1.017491	0.024546
1980	9.8950e-01	-0.8005	-4.851623	0.000278	2.783396	0.943040	0.022750
1981	9.9000e-01	-0.7524	-4.718631	0.000325	3.254271	1.102577	0.026598
1982	9.9050e-01	-0.7075	-4.598468	0.000294	2.940354	0.996219	0.024033
1983	9.9100e-01	-0.6722	-4.477878	0.000295	2.950818	0.999764	0.024118
1984	9.9150e-01	-0.6144	-4.359853	0.000289	2.888035	0.978493	0.023605
1985	9.9200e-01	-0.5968	-4.242684	0.000287	2.867107	0.971402	0.023434
1986	9.9250e-01	-0.5663	-4.119956	0.000300	3.003138	1.017491	0.024546
1987	9.9300e-01	-0.4893	-3.999793	0.000294	2.940354	0.996219	0.024033
1988	9.9350e-01	-0.4620	-3.874926	0.000306	3.055457	1.035217	0.024973
1989	9.9400e-01	-0.4235	-3.753481	0.000297	2.971746	1.006855	0.024289
1990	9.9450e-01	-0.3770	-3.645719	0.000264	2.636902	0.893406	0.021552
1991	9.9500e-01	-0.3674	-3.513583	0.000323	3.233344	1.095486	0.026427
1992	9.9550e-01	-0.3176	-3.387434	0.000309	3.086849	1.045853	0.025230
1993	9.9600e-01	-0.2743	-3.271975	0.000283	2.825252	0.957221	0.023092
1994	9.9650e-01	-0.2358	-3.141977	0.000318	3.181024	1.077760	0.026000
1995	9.9700e-01	-0.1733	-3.023097	0.000291	2.908963	0.985583	0.023776
1996	9.9750e-01	-0.1700	-2.901224	0.000298	2.982210	1.010400	0.024375
1997	9.9800e-01	-0.1380	-2.774647	0.000310	3.097313	1.049398	0.025315
1998	9.9850e-01	-0.0706	-2.658333	0.000285	2.846179	0.964312	0.023263
1999	9.9900e-01	-0.0417	-2.516789	0.000346	3.463549	1.173482	0.028309
2000	9.9950e-01	0.0193	-2.417579	0.000243	2.427624	0.822501	0.019842
2001	1.0000e+00	0.0561	-2.278601	0.000243	2.427624	0.822501	0.027796

Center data before PMax,+/-Pr and +/-Vc Calc.

PMax (uC/cm2):	4.65e+01
Pr (uC/cm2):	7.12e-01
-Pr (uC/cm2):	-2.28e+00
PLoss (uC/cm2):	-1.46e+00
Vc:	4.55e-01
-Vc:	-2.32e-01
C (Max-Eff) (nF):	2.32e-01
K (Eff):	7.86e+02
Vert. (+/-Pr) Shift (uC/cm2):	-7.83e-01
Horiz. Shift (+/-Vc):	1.11e-01
Offset (uC/cm2):	8.20e-01

A (Loop Area - uC/cm2·Volts):	1.06e-01



Hysteresis Version: 5.48.1 - Radiant Technologies, Inc., 1999 - 9/12/24

