»»»»»»»»»»»»»»»»»»»»»»»»»»»»»»»»»»»» Hysteresis ««««««««««««««««««««««««««««««««««««
»»»  Executed Version:	5.48.1
»»»  Vision Version:	5.48.4 (R)
»»»  Vision Compiled:	9/18/24
»»»  Driver Version:	5.47.0
»»»  Windows Version:	Windows 8 or 8.1
»»»  Processor Information:	x86 (AMD or Intel) - 32 Processors
»»»  Tester Name:	PMF21124-494 (100V)
»»»  Tester S/N:	PMF21124-494
»»»  Internal Amp Type:	100V RevK 270k
»»»  Internal Amp S/N:	iAB2-596/K     
»»»  Execution Count:	1
»»»»»»»»»»»»»»»»»»»»»»»»»»»»»»»»»»»»»»»»»»««««««««««««««««««««««««««««««««««««««««««

Stored:	6/9/2025 - 15:11:12
Configured:	06/09/25 02:47:45 PM
Executed:	06/09/25 03:10:12 PM

»»»»»»»»»»»»»»»»»»»»»»»»»»»»»»»»»»» Sample Info ««««««««««««««««««««««««««««««««««««
Sample Name:	
Lot Name:	
Wafer Name:	
Die Row/Column:	0/0
Capacitor Number:	0
Sample Area (cm2):	1.00e-04
Sample Thickness (microns):	3.00e-01

Amplifier:	Internal

»»»»»»»»»»»»»»»»»»»»»»»»»»»»»»»»»»» Tester Info «««««««««««««««««««««««««««««««««««
Tester Name:	PMF21124-494 (100V)
Tester Serial Number:	PMF21124-494
Return Signal Amp. Level:	0.19 [Index: 3]

»»»»»»»»»»»»»»»»»»»»»»»»»»»»»»»» Hysteresis Info ««««««««««««««««««««««««««««««««««
Task Name:	Hyst-927
Volts:	20.00
Field:	666.67 (kV/cm)
DCBias:	0.00
DCField:	0.00 (kV/cm)
Hysteresis Period (ms):	2.00e+02
Preset:	Enabled
Preset Delay (ms):	1.00e+03
Profile:	Standard Bipolar

»»»»»»»»»»»»»»»»»»»»»»»»»»»»»»»»»»»»»» Data «««««««««««««««««««««««««««««««««««««««
Points:	2009

Valid Data

Point	Time (ms)	Drive Voltage	Measured Polarization (uC/cm2)	Capacitance (uF)	Normalized Capacitance (uF/cm2)	Dielectric Constant	Instantaneous Current (mA)
   1	0.0000e+00	-0.0048	-2.030679	0.000182	1.823981	0.617981	0.000073
   2	9.9500e-02	0.0176	-1.958011	0.000182	1.823981	0.617981	0.000073
   3	1.9900e-01	0.0610	-1.844971	0.000284	2.837303	0.961304	0.000114
   4	2.9850e-01	0.1075	-1.707708	0.000345	3.445297	1.167298	0.000138
   5	3.9800e-01	0.1396	-1.594669	0.000284	2.837303	0.961304	0.000114
   6	4.9750e-01	0.1941	-1.469517	0.000314	3.141300	1.064301	0.000126
   7	5.9700e-01	0.2246	-1.340329	0.000324	3.242632	1.098634	0.000130
   8	6.9650e-01	0.2615	-1.219215	0.000304	3.039968	1.029969	0.000122
   9	7.9600e-01	0.3080	-1.110212	0.000274	2.735971	0.926972	0.000110
  10	8.9550e-01	0.3481	-0.968913	0.000355	3.546629	1.201630	0.000142
  11	9.9500e-01	0.3802	-0.827613	0.000355	3.546629	1.201630	0.000142
  12	1.0945e+00	0.4299	-0.698424	0.000324	3.242632	1.098634	0.000130
  13	1.1940e+00	0.4604	-0.577310	0.000304	3.039968	1.029969	0.000122
  14	1.2935e+00	0.5005	-0.444085	0.000334	3.343965	1.132966	0.000134
  15	1.3930e+00	0.5358	-0.343157	0.000253	2.533306	0.858307	0.000101
  16	1.4925e+00	0.5920	-0.189745	0.000385	3.850626	1.304627	0.000154
  17	1.5920e+00	0.6208	-0.084780	0.000263	2.634639	0.892640	0.000105
  18	1.6915e+00	0.6690	0.084780	0.000426	4.255955	1.441957	0.000170
  19	1.7910e+00	0.6946	0.213968	0.000324	3.242632	1.098634	0.000130
  20	1.8905e+00	0.7444	0.335082	0.000304	3.039968	1.029969	0.000122
  21	1.9900e+00	0.7877	0.456196	0.000304	3.039968	1.029969	0.000122
  22	2.0895e+00	0.8230	0.532902	0.000193	1.925313	0.652314	0.000077
  23	2.1890e+00	0.8631	0.662090	0.000324	3.242632	1.098634	0.000130
  24	2.2885e+00	0.9000	0.827613	0.000415	4.154623	1.407624	0.000166
  25	2.3880e+00	0.9337	0.932578	0.000263	2.634639	0.892640	0.000105
  26	2.4875e+00	0.9802	1.130398	0.000497	4.965281	1.682283	0.000199
  27	2.5870e+00	1.0171	1.182881	0.000132	1.317319	0.446320	0.000053
  28	2.6865e+00	1.0620	1.388775	0.000517	5.167945	1.750947	0.000207
  29	2.7860e+00	1.0861	1.433183	0.000111	1.114655	0.377655	0.000045
  30	2.8855e+00	1.1486	1.631003	0.000497	4.965281	1.682283	0.000199
  31	2.9850e+00	1.1855	1.715783	0.000213	2.127977	0.720978	0.000085
  32	3.0845e+00	1.2160	1.873231	0.000395	3.951958	1.338960	0.000158
  33	3.1840e+00	1.2577	2.026642	0.000385	3.850626	1.304627	0.000154
  34	3.2835e+00	1.2882	2.151793	0.000314	3.141300	1.064301	0.000126
  35	3.3830e+00	1.3427	2.272907	0.000304	3.039968	1.029969	0.000122
  36	3.4825e+00	1.3780	2.389984	0.000294	2.938635	0.995637	0.000118
  37	3.5820e+00	1.4262	2.494950	0.000263	2.634639	0.892640	0.000105
  38	3.6815e+00	1.4711	2.664510	0.000426	4.255955	1.441957	0.000170
  39	3.7810e+00	1.4967	2.781587	0.000294	2.938635	0.995637	0.000118
  40	3.8805e+00	1.5336	2.894626	0.000284	2.837303	0.961304	0.000114
  41	3.9800e+00	1.5802	3.052075	0.000395	3.951958	1.338960	0.000158
  42	4.0795e+00	1.6219	3.189337	0.000345	3.445297	1.167298	0.000138
  43	4.1790e+00	1.6508	3.302377	0.000284	2.837303	0.961304	0.000114
  44	4.2785e+00	1.6973	3.459825	0.000395	3.951958	1.338960	0.000158
  45	4.3780e+00	1.7374	3.593051	0.000334	3.343965	1.132966	0.000134
  46	4.4775e+00	1.7711	3.710128	0.000294	2.938635	0.995637	0.000118
  47	4.5770e+00	1.8176	3.879687	0.000426	4.255955	1.441957	0.000170
  48	4.6765e+00	1.8529	3.984653	0.000263	2.634639	0.892640	0.000105
  49	4.7760e+00	1.8946	4.097693	0.000284	2.837303	0.961304	0.000114
  50	4.8755e+00	1.9315	4.226881	0.000324	3.242632	1.098634	0.000130
  51	4.9750e+00	1.9844	4.392404	0.000415	4.154623	1.407624	0.000166
  52	5.0745e+00	2.0133	4.537741	0.000365	3.647961	1.235963	0.000146
  53	5.1740e+00	2.0646	4.634632	0.000243	2.431974	0.823975	0.000097
  54	5.2735e+00	2.0983	4.792080	0.000395	3.951958	1.338960	0.000158
  55	5.3730e+00	2.1320	4.957603	0.000415	4.154623	1.407624	0.000166
  56	5.4725e+00	2.1753	5.042383	0.000213	2.127977	0.720978	0.000085
  57	5.5720e+00	2.2090	5.207905	0.000415	4.154623	1.407624	0.000166
  58	5.6715e+00	2.2604	5.320945	0.000284	2.837303	0.961304	0.000114
  59	5.7710e+00	2.2812	5.417836	0.000243	2.431974	0.823975	0.000097
  60	5.8705e+00	2.3261	5.555099	0.000345	3.445297	1.167298	0.000138
  61	5.9700e+00	2.3727	5.688324	0.000334	3.343965	1.132966	0.000134
  62	6.0695e+00	2.4096	5.845773	0.000395	3.951958	1.338960	0.000158
  63	6.1690e+00	2.4529	6.003221	0.000395	3.951958	1.338960	0.000158
  64	6.2685e+00	2.5026	6.108186	0.000263	2.634639	0.892640	0.000105
  65	6.3680e+00	2.5411	6.213152	0.000263	2.634639	0.892640	0.000105
  66	6.4675e+00	2.5764	6.378674	0.000415	4.154623	1.407624	0.000166
  67	6.5670e+00	2.6133	6.487677	0.000274	2.735971	0.926972	0.000110
  68	6.6665e+00	2.6598	6.669348	0.000456	4.559952	1.544953	0.000183
  69	6.7660e+00	2.6951	6.774314	0.000263	2.634639	0.892640	0.000105
  70	6.8655e+00	2.7416	6.887354	0.000284	2.837303	0.961304	0.000114
  71	6.9650e+00	2.7817	7.044802	0.000395	3.951958	1.338960	0.000158
  72	7.0645e+00	2.8122	7.178027	0.000334	3.343965	1.132966	0.000134
  73	7.1640e+00	2.8459	7.319327	0.000355	3.546629	1.201630	0.000142
  74	7.2635e+00	2.8956	7.464664	0.000365	3.647961	1.235963	0.000146
  75	7.3630e+00	2.9341	7.573667	0.000274	2.735971	0.926972	0.000110
  76	7.4625e+00	2.9726	7.723041	0.000375	3.749294	1.270295	0.000150
  77	7.5620e+00	3.0160	7.815895	0.000233	2.330642	0.789643	0.000093
  78	7.6615e+00	3.0529	8.009677	0.000486	4.863948	1.647950	0.000195
  79	7.7610e+00	3.0978	8.114643	0.000263	2.634639	0.892640	0.000105
  80	7.8605e+00	3.1347	8.276128	0.000405	4.053290	1.373292	0.000162
  81	7.9600e+00	3.1764	8.373020	0.000243	2.431974	0.823975	0.000097
  82	8.0595e+00	3.2149	8.546616	0.000436	4.357287	1.476289	0.000174
  83	8.1590e+00	3.2518	8.651582	0.000263	2.634639	0.892640	0.000105
  84	8.2585e+00	3.2983	8.813067	0.000405	4.053290	1.373292	0.000162
  85	8.3580e+00	3.3432	8.950330	0.000345	3.445297	1.167298	0.000138
  86	8.4575e+00	3.3689	9.083555	0.000334	3.343965	1.132966	0.000134
  87	8.5570e+00	3.4154	9.261189	0.000446	4.458619	1.510621	0.000179
  88	8.6565e+00	3.4523	9.370192	0.000274	2.735971	0.926972	0.000110
  89	8.7560e+00	3.5036	9.479195	0.000274	2.735971	0.926972	0.000110
  90	8.8555e+00	3.5213	9.592235	0.000284	2.837303	0.961304	0.000114
  91	8.9550e+00	3.5662	9.749683	0.000395	3.951958	1.338960	0.000158
  92	9.0545e+00	3.6127	9.866760	0.000294	2.938635	0.995637	0.000118
  93	9.1540e+00	3.6512	9.999985	0.000334	3.343965	1.132966	0.000134
  94	9.2535e+00	3.6962	10.080728	0.000203	2.026645	0.686646	0.000081
  95	9.3530e+00	3.7363	10.246251	0.000415	4.154623	1.407624	0.000166
  96	9.4525e+00	3.7699	10.367365	0.000304	3.039968	1.029969	0.000122
  97	9.5520e+00	3.8101	10.532887	0.000415	4.154623	1.407624	0.000166
  98	9.6515e+00	3.8518	10.645927	0.000284	2.837303	0.961304	0.000114
  99	9.7510e+00	3.8951	10.746855	0.000253	2.533306	0.858307	0.000101
 100	9.8505e+00	3.9240	10.908341	0.000405	4.053290	1.373292	0.000162
 101	9.9500e+00	3.9689	11.053678	0.000365	3.647961	1.235963	0.000146
 102	1.0050e+01	4.0090	11.118272	0.000162	1.621316	0.549317	0.000065
 103	1.0149e+01	4.0555	11.251497	0.000334	3.343965	1.132966	0.000134
 104	1.0248e+01	4.0908	11.429131	0.000446	4.458619	1.510621	0.000179
 105	1.0348e+01	4.1357	11.558320	0.000324	3.242632	1.098634	0.000130
 106	1.0447e+01	4.1742	11.683471	0.000314	3.141300	1.064301	0.000126
 107	1.0547e+01	4.2143	11.816696	0.000334	3.343965	1.132966	0.000134
 108	1.0646e+01	4.2528	11.921662	0.000263	2.634639	0.892640	0.000105
 109	1.0746e+01	4.2913	12.042776	0.000304	3.039968	1.029969	0.000122
 110	1.0845e+01	4.3282	12.176001	0.000334	3.343965	1.132966	0.000134
 111	1.0945e+01	4.3651	12.289041	0.000284	2.837303	0.961304	0.000114
 112	1.1044e+01	4.4213	12.389970	0.000253	2.533306	0.858307	0.000101
 113	1.1144e+01	4.4453	12.583752	0.000486	4.863948	1.647950	0.000195
 114	1.1243e+01	4.4902	12.684680	0.000253	2.533306	0.858307	0.000101
 115	1.1343e+01	4.5384	12.858277	0.000436	4.357287	1.476289	0.000174
 116	1.1443e+01	4.5673	12.939020	0.000203	2.026645	0.686646	0.000081
 117	1.1542e+01	4.6106	13.056097	0.000294	2.938635	0.995637	0.000118
 118	1.1642e+01	4.6523	13.169137	0.000284	2.837303	0.961304	0.000114
 119	1.1741e+01	4.6795	13.302362	0.000334	3.343965	1.132966	0.000134
 120	1.1841e+01	4.7325	13.419439	0.000294	2.938635	0.995637	0.000118
 121	1.1940e+01	4.7662	13.576887	0.000395	3.951958	1.338960	0.000158
 122	1.2040e+01	4.8063	13.689927	0.000284	2.837303	0.961304	0.000114
 123	1.2139e+01	4.8480	13.823153	0.000334	3.343965	1.132966	0.000134
 124	1.2239e+01	4.8897	13.916007	0.000233	2.330642	0.789643	0.000093
 125	1.2338e+01	4.9218	14.069418	0.000385	3.850626	1.304627	0.000154
 126	1.2438e+01	4.9619	14.214755	0.000365	3.647961	1.235963	0.000146
 127	1.2537e+01	5.0116	14.331832	0.000294	2.938635	0.995637	0.000118
 128	1.2636e+01	5.0630	14.404500	0.000182	1.823981	0.617981	0.000073
 129	1.2736e+01	5.0838	14.521577	0.000294	2.938635	0.995637	0.000118
 130	1.2835e+01	5.1319	14.670951	0.000375	3.749294	1.270295	0.000150
 131	1.2935e+01	5.1608	14.763805	0.000233	2.330642	0.789643	0.000093
 132	1.3034e+01	5.2105	14.949514	0.000466	4.661284	1.579286	0.000187
 133	1.3134e+01	5.2523	15.086776	0.000345	3.445297	1.167298	0.000138
 134	1.3233e+01	5.2859	15.159445	0.000182	1.823981	0.617981	0.000073
 135	1.3333e+01	5.3228	15.300744	0.000355	3.546629	1.201630	0.000142
 136	1.3432e+01	5.3742	15.421859	0.000304	3.039968	1.029969	0.000122
 137	1.3532e+01	5.3966	15.563158	0.000355	3.546629	1.201630	0.000142
 138	1.3632e+01	5.4448	15.656012	0.000233	2.330642	0.789643	0.000093
 139	1.3731e+01	5.4849	15.789238	0.000334	3.343965	1.132966	0.000134
 140	1.3831e+01	5.5282	15.890166	0.000253	2.533306	0.858307	0.000101
 141	1.3930e+01	5.5635	16.023392	0.000334	3.343965	1.132966	0.000134
 142	1.4030e+01	5.6004	16.152580	0.000324	3.242632	1.098634	0.000130
 143	1.4129e+01	5.6501	16.281768	0.000324	3.242632	1.098634	0.000130
 144	1.4229e+01	5.6902	16.398845	0.000294	2.938635	0.995637	0.000118
 145	1.4328e+01	5.7239	16.499774	0.000253	2.533306	0.858307	0.000101
 146	1.4428e+01	5.7640	16.612814	0.000284	2.837303	0.961304	0.000114
 147	1.4527e+01	5.8041	16.758150	0.000365	3.647961	1.235963	0.000146
 148	1.4627e+01	5.8442	16.851005	0.000233	2.330642	0.789643	0.000093
 149	1.4726e+01	5.8843	17.020564	0.000426	4.255955	1.441957	0.000170
 150	1.4825e+01	5.9244	17.137641	0.000294	2.938635	0.995637	0.000118
 151	1.4925e+01	5.9597	17.230495	0.000233	2.330642	0.789643	0.000093
 152	1.5024e+01	6.0111	17.355647	0.000314	3.141300	1.064301	0.000126
 153	1.5124e+01	6.0464	17.472723	0.000294	2.938635	0.995637	0.000118
 154	1.5223e+01	6.0816	17.605949	0.000334	3.343965	1.132966	0.000134
 155	1.5323e+01	6.1185	17.706877	0.000253	2.533306	0.858307	0.000101
 156	1.5422e+01	6.1619	17.775509	0.000172	1.722648	0.583649	0.000069
 157	1.5522e+01	6.2036	17.953143	0.000446	4.458619	1.510621	0.000179
 158	1.5621e+01	6.2453	18.033885	0.000203	2.026645	0.686646	0.000081
 159	1.5721e+01	6.2822	18.219594	0.000466	4.661284	1.579286	0.000187
 160	1.5820e+01	6.3207	18.276113	0.000142	1.418652	0.480652	0.000057
 161	1.5920e+01	6.3672	18.437599	0.000405	4.053290	1.373292	0.000162
 162	1.6020e+01	6.4057	18.522379	0.000213	2.127977	0.720978	0.000085
 163	1.6119e+01	6.4378	18.627344	0.000263	2.634639	0.892640	0.000105
 164	1.6218e+01	6.4763	18.748458	0.000304	3.039968	1.029969	0.000122
 165	1.6318e+01	6.5196	18.869572	0.000304	3.039968	1.029969	0.000122
 166	1.6418e+01	6.5661	18.978575	0.000274	2.735971	0.926972	0.000110
 167	1.6517e+01	6.5870	19.111801	0.000334	3.343965	1.132966	0.000134
 168	1.6616e+01	6.6287	19.188506	0.000193	1.925313	0.652314	0.000077
 169	1.6716e+01	6.6704	19.325769	0.000345	3.445297	1.167298	0.000138
 170	1.6816e+01	6.7185	19.442846	0.000294	2.938635	0.995637	0.000118
 171	1.6915e+01	6.7570	19.584145	0.000355	3.546629	1.201630	0.000142
 172	1.7015e+01	6.7987	19.685074	0.000253	2.533306	0.858307	0.000101
 173	1.7114e+01	6.8308	19.790039	0.000263	2.634639	0.892640	0.000105
 174	1.7213e+01	6.8725	19.890968	0.000253	2.533306	0.858307	0.000101
 175	1.7313e+01	6.9191	20.028230	0.000345	3.445297	1.167298	0.000138
 176	1.7413e+01	6.9704	20.157419	0.000324	3.242632	1.098634	0.000130
 177	1.7512e+01	6.9961	20.238161	0.000203	2.026645	0.686646	0.000081
 178	1.7611e+01	7.0362	20.371387	0.000334	3.343965	1.132966	0.000134
 179	1.7711e+01	7.0827	20.508650	0.000345	3.445297	1.167298	0.000138
 180	1.7811e+01	7.1164	20.609578	0.000253	2.533306	0.858307	0.000101
 181	1.7910e+01	7.1613	20.750878	0.000355	3.546629	1.201630	0.000142
 182	1.8009e+01	7.2078	20.863917	0.000284	2.837303	0.961304	0.000114
 183	1.8109e+01	7.2431	20.989069	0.000314	3.141300	1.064301	0.000126
 184	1.8209e+01	7.2720	21.094034	0.000263	2.634639	0.892640	0.000105
 185	1.8308e+01	7.3185	21.211111	0.000294	2.938635	0.995637	0.000118
 186	1.8407e+01	7.3554	21.356448	0.000365	3.647961	1.235963	0.000146
 187	1.8507e+01	7.3907	21.453339	0.000243	2.431974	0.823975	0.000097
 188	1.8607e+01	7.4276	21.570416	0.000294	2.938635	0.995637	0.000118
 189	1.8706e+01	7.4805	21.675382	0.000263	2.634639	0.892640	0.000105
 190	1.8805e+01	7.5126	21.812644	0.000345	3.445297	1.167298	0.000138
 191	1.8905e+01	7.5607	21.913573	0.000253	2.533306	0.858307	0.000101
 192	1.9005e+01	7.6009	22.042761	0.000324	3.242632	1.098634	0.000130
 193	1.9104e+01	7.6329	22.175987	0.000334	3.343965	1.132966	0.000134
 194	1.9203e+01	7.6811	22.301138	0.000314	3.141300	1.064301	0.000126
 195	1.9303e+01	7.7180	22.389955	0.000223	2.229310	0.755311	0.000089
 196	1.9402e+01	7.7565	22.523180	0.000334	3.343965	1.132966	0.000134
 197	1.9502e+01	7.7982	22.636220	0.000284	2.837303	0.961304	0.000114
 198	1.9602e+01	7.8383	22.749260	0.000284	2.837303	0.961304	0.000114
 199	1.9701e+01	7.8736	22.886522	0.000345	3.445297	1.167298	0.000138
 200	1.9800e+01	7.9217	22.975339	0.000223	2.229310	0.755311	0.000089
 201	1.9900e+01	7.9554	23.124714	0.000375	3.749294	1.270295	0.000150
 202	2.0000e+01	7.9923	23.213530	0.000223	2.229310	0.755311	0.000089
 203	2.0099e+01	8.0308	23.334645	0.000304	3.039968	1.029969	0.000122
 204	2.0198e+01	8.0725	23.451722	0.000294	2.938635	0.995637	0.000118
 205	2.0298e+01	8.1142	23.568798	0.000294	2.938635	0.995637	0.000118
 206	2.0398e+01	8.1559	23.661653	0.000233	2.330642	0.789643	0.000093
 207	2.0497e+01	8.1960	23.843324	0.000456	4.559952	1.544953	0.000183
 208	2.0596e+01	8.2281	23.924066	0.000203	2.026645	0.686646	0.000081
 209	2.0696e+01	8.2682	24.045180	0.000304	3.039968	1.029969	0.000122
 210	2.0796e+01	8.3163	24.150146	0.000263	2.634639	0.892640	0.000105
 211	2.0895e+01	8.3548	24.327780	0.000446	4.458619	1.510621	0.000179
 212	2.0994e+01	8.3950	24.404486	0.000193	1.925313	0.652314	0.000077
 213	2.1094e+01	8.4238	24.513488	0.000274	2.735971	0.926972	0.000110
 214	2.1194e+01	8.4720	24.638639	0.000314	3.141300	1.064301	0.000126
 215	2.1293e+01	8.5105	24.755716	0.000294	2.938635	0.995637	0.000118
 216	2.1392e+01	8.5602	24.872793	0.000294	2.938635	0.995637	0.000118
 217	2.1492e+01	8.5907	25.010056	0.000345	3.445297	1.167298	0.000138
 218	2.1591e+01	8.6292	25.110984	0.000253	2.533306	0.858307	0.000101
 219	2.1691e+01	8.6725	25.191727	0.000203	2.026645	0.686646	0.000081
 220	2.1791e+01	8.7062	25.320915	0.000324	3.242632	1.098634	0.000130
 221	2.1890e+01	8.7527	25.450104	0.000324	3.242632	1.098634	0.000130
 222	2.1989e+01	8.7864	25.595441	0.000365	3.647961	1.235963	0.000146
 223	2.2089e+01	8.8345	25.655998	0.000152	1.519984	0.514984	0.000061
 224	2.2189e+01	8.8698	25.769037	0.000284	2.837303	0.961304	0.000114
 225	2.2288e+01	8.9131	25.914374	0.000365	3.647961	1.235963	0.000146
 226	2.2387e+01	8.9468	25.987043	0.000182	1.823981	0.617981	0.000073
 227	2.2487e+01	8.9837	26.148528	0.000405	4.053290	1.373292	0.000162
 228	2.2587e+01	9.0334	26.293865	0.000365	3.647961	1.235963	0.000146
 229	2.2686e+01	9.0671	26.362496	0.000172	1.722648	0.583649	0.000069
 230	2.2785e+01	9.1136	26.483610	0.000304	3.039968	1.029969	0.000122
 231	2.2885e+01	9.1489	26.600687	0.000294	2.938635	0.995637	0.000118
 232	2.2985e+01	9.1890	26.737950	0.000345	3.445297	1.167298	0.000138
 233	2.3084e+01	9.2275	26.871175	0.000334	3.343965	1.132966	0.000134
 234	2.3183e+01	9.2660	26.951918	0.000203	2.026645	0.686646	0.000081
 235	2.3283e+01	9.3126	27.081107	0.000324	3.242632	1.098634	0.000130
 236	2.3383e+01	9.3479	27.194146	0.000284	2.837303	0.961304	0.000114
 237	2.3482e+01	9.3799	27.319298	0.000314	3.141300	1.064301	0.000126
 238	2.3581e+01	9.4329	27.436374	0.000294	2.938635	0.995637	0.000118
 239	2.3681e+01	9.4682	27.569600	0.000334	3.343965	1.132966	0.000134
 240	2.3780e+01	9.5115	27.658417	0.000223	2.229310	0.755311	0.000089
 241	2.3880e+01	9.5484	27.795680	0.000345	3.445297	1.167298	0.000138
 242	2.3980e+01	9.5917	27.880459	0.000213	2.127977	0.720978	0.000085
 243	2.4079e+01	9.6254	28.021759	0.000355	3.546629	1.201630	0.000142
 244	2.4178e+01	9.6767	28.126725	0.000263	2.634639	0.892640	0.000105
 245	2.4278e+01	9.7136	28.263987	0.000345	3.445297	1.167298	0.000138
 246	2.4378e+01	9.7553	28.356841	0.000233	2.330642	0.789643	0.000093
 247	2.4477e+01	9.7922	28.486030	0.000324	3.242632	1.098634	0.000130
 248	2.4576e+01	9.8307	28.619255	0.000334	3.343965	1.132966	0.000134
 249	2.4676e+01	9.8612	28.687887	0.000172	1.722648	0.583649	0.000069
 250	2.4776e+01	9.9142	28.841298	0.000385	3.850626	1.304627	0.000154
 251	2.4875e+01	9.9478	28.913966	0.000182	1.823981	0.617981	0.000073
 252	2.4974e+01	9.9831	29.035080	0.000304	3.039968	1.029969	0.000122
 253	2.5074e+01	10.0249	29.180417	0.000365	3.647961	1.235963	0.000146
 254	2.5174e+01	10.0634	29.313643	0.000334	3.343965	1.132966	0.000134
 255	2.5273e+01	10.1115	29.414571	0.000253	2.533306	0.858307	0.000101
 256	2.5372e+01	10.1516	29.547796	0.000334	3.343965	1.132966	0.000134
 257	2.5472e+01	10.1885	29.656799	0.000274	2.735971	0.926972	0.000110
 258	2.5572e+01	10.2238	29.757728	0.000253	2.533306	0.858307	0.000101
 259	2.5671e+01	10.2607	29.882879	0.000314	3.141300	1.064301	0.000126
 260	2.5770e+01	10.3008	29.995919	0.000284	2.837303	0.961304	0.000114
 261	2.5870e+01	10.3425	30.129144	0.000334	3.343965	1.132966	0.000134
 262	2.5970e+01	10.3826	30.258332	0.000324	3.242632	1.098634	0.000130
 263	2.6069e+01	10.4275	30.318889	0.000152	1.519984	0.514984	0.000061
 264	2.6169e+01	10.4708	30.431929	0.000284	2.837303	0.961304	0.000114
 265	2.6268e+01	10.5061	30.549006	0.000294	2.938635	0.995637	0.000118
 266	2.6367e+01	10.5510	30.633786	0.000213	2.127977	0.720978	0.000085
 267	2.6467e+01	10.5815	30.787197	0.000385	3.850626	1.304627	0.000154
 268	2.6567e+01	10.6200	30.896200	0.000274	2.735971	0.926972	0.000110
 269	2.6666e+01	10.6601	31.009240	0.000284	2.837303	0.961304	0.000114
 270	2.6765e+01	10.6986	31.118242	0.000274	2.735971	0.926972	0.000110
 271	2.6865e+01	10.7339	31.219171	0.000253	2.533306	0.858307	0.000101
 272	2.6965e+01	10.7917	31.299913	0.000203	2.026645	0.686646	0.000081
 273	2.7064e+01	10.8189	31.416990	0.000294	2.938635	0.995637	0.000118
 274	2.7163e+01	10.8687	31.546179	0.000324	3.242632	1.098634	0.000130
 275	2.7263e+01	10.8992	31.671330	0.000314	3.141300	1.064301	0.000126
 276	2.7363e+01	10.9473	31.743998	0.000182	1.823981	0.617981	0.000073
 277	2.7462e+01	10.9858	31.865112	0.000304	3.039968	1.029969	0.000122
 278	2.7561e+01	11.0227	31.990264	0.000314	3.141300	1.064301	0.000126
 279	2.7661e+01	11.0676	32.062932	0.000182	1.823981	0.617981	0.000073
 280	2.7761e+01	11.0981	32.212306	0.000375	3.749294	1.270295	0.000150
 281	2.7860e+01	11.1494	32.297086	0.000213	2.127977	0.720978	0.000085
 282	2.7959e+01	11.1847	32.430311	0.000334	3.343965	1.132966	0.000134
 283	2.8059e+01	11.2248	32.502980	0.000182	1.823981	0.617981	0.000073
 284	2.8159e+01	11.2729	32.624094	0.000304	3.039968	1.029969	0.000122
 285	2.8258e+01	11.3018	32.749245	0.000314	3.141300	1.064301	0.000126
 286	2.8358e+01	11.3435	32.886508	0.000345	3.445297	1.167298	0.000138
 287	2.8457e+01	11.3804	32.955139	0.000172	1.722648	0.583649	0.000069
 288	2.8556e+01	11.4109	33.043956	0.000223	2.229310	0.755311	0.000089
 289	2.8656e+01	11.4542	33.189293	0.000365	3.647961	1.235963	0.000146
 290	2.8756e+01	11.4991	33.298296	0.000274	2.735971	0.926972	0.000110
 291	2.8855e+01	11.5425	33.399224	0.000253	2.533306	0.858307	0.000101
 292	2.8954e+01	11.5826	33.512264	0.000284	2.837303	0.961304	0.000114
 293	2.9054e+01	11.6307	33.564747	0.000132	1.317319	0.446320	0.000053
 294	2.9154e+01	11.6660	33.714121	0.000375	3.749294	1.270295	0.000150
 295	2.9253e+01	11.7045	33.819086	0.000263	2.634639	0.892640	0.000105
 296	2.9352e+01	11.7430	33.952312	0.000334	3.343965	1.132966	0.000134
 297	2.9452e+01	11.7751	34.004794	0.000132	1.317319	0.446320	0.000053
 298	2.9552e+01	11.8184	34.142057	0.000345	3.445297	1.167298	0.000138
 299	2.9651e+01	11.8649	34.242985	0.000253	2.533306	0.858307	0.000101
 300	2.9750e+01	11.8954	34.360062	0.000294	2.938635	0.995637	0.000118
 301	2.9850e+01	11.9371	34.456954	0.000243	2.431974	0.823975	0.000097
 302	2.9950e+01	11.9724	34.586142	0.000324	3.242632	1.098634	0.000130
 303	3.0049e+01	12.0173	34.674959	0.000223	2.229310	0.755311	0.000089
 304	3.0148e+01	12.0558	34.783962	0.000274	2.735971	0.926972	0.000110
 305	3.0248e+01	12.0975	34.876816	0.000233	2.330642	0.789643	0.000093
 306	3.0348e+01	12.1424	34.989855	0.000284	2.837303	0.961304	0.000114
 307	3.0447e+01	12.1777	35.098858	0.000274	2.735971	0.926972	0.000110
 308	3.0547e+01	12.2178	35.187675	0.000223	2.229310	0.755311	0.000089
 309	3.0646e+01	12.2595	35.308789	0.000304	3.039968	1.029969	0.000122
 310	3.0745e+01	12.2932	35.397606	0.000223	2.229310	0.755311	0.000089
 311	3.0845e+01	12.3430	35.494497	0.000243	2.431974	0.823975	0.000097
 312	3.0945e+01	12.3895	35.639834	0.000365	3.647961	1.235963	0.000146
 313	3.1044e+01	12.4232	35.676169	0.000091	0.911990	0.308991	0.000037
 314	3.1143e+01	12.4633	35.805357	0.000324	3.242632	1.098634	0.000130
 315	3.1243e+01	12.5002	35.946657	0.000355	3.546629	1.201630	0.000142
 316	3.1343e+01	12.5355	36.023362	0.000193	1.925313	0.652314	0.000077
 317	3.1442e+01	12.5820	36.168699	0.000365	3.647961	1.235963	0.000146
 318	3.1541e+01	12.6253	36.249442	0.000203	2.026645	0.686646	0.000081
 319	3.1641e+01	12.6606	36.330185	0.000203	2.026645	0.686646	0.000081
 320	3.1741e+01	12.7087	36.431113	0.000253	2.533306	0.858307	0.000101
 321	3.1840e+01	12.7296	36.556264	0.000314	3.141300	1.064301	0.000126
 322	3.1939e+01	12.7809	36.661230	0.000263	2.634639	0.892640	0.000105
 323	3.2039e+01	12.8194	36.766195	0.000263	2.634639	0.892640	0.000105
 324	3.2139e+01	12.8547	36.867124	0.000253	2.533306	0.858307	0.000101
 325	3.2238e+01	12.8980	36.959978	0.000233	2.330642	0.789643	0.000093
 326	3.2337e+01	12.9381	37.044758	0.000213	2.127977	0.720978	0.000085
 327	3.2437e+01	12.9622	37.145686	0.000253	2.533306	0.858307	0.000101
 328	3.2536e+01	13.0216	37.274874	0.000324	3.242632	1.098634	0.000130
 329	3.2636e+01	13.0504	37.375803	0.000253	2.533306	0.858307	0.000101
 330	3.2736e+01	13.1034	37.472694	0.000243	2.431974	0.823975	0.000097
 331	3.2835e+01	13.1403	37.549399	0.000193	1.925313	0.652314	0.000077
 332	3.2934e+01	13.1691	37.642254	0.000233	2.330642	0.789643	0.000093
 333	3.3034e+01	13.2109	37.743182	0.000253	2.533306	0.858307	0.000101
 334	3.3133e+01	13.2542	37.831999	0.000223	2.229310	0.755311	0.000089
 335	3.3233e+01	13.2911	37.924853	0.000233	2.330642	0.789643	0.000093
 336	3.3333e+01	13.3344	38.070190	0.000365	3.647961	1.235963	0.000146
 337	3.3432e+01	13.3697	38.146896	0.000193	1.925313	0.652314	0.000077
 338	3.3532e+01	13.4210	38.235713	0.000223	2.229310	0.755311	0.000089
 339	3.3631e+01	13.4579	38.336641	0.000253	2.533306	0.858307	0.000101
 340	3.3730e+01	13.4884	38.437569	0.000253	2.533306	0.858307	0.000101
 341	3.3830e+01	13.5189	38.570795	0.000334	3.343965	1.132966	0.000134
 342	3.3929e+01	13.5702	38.651538	0.000203	2.026645	0.686646	0.000081
 343	3.4029e+01	13.6087	38.756503	0.000263	2.634639	0.892640	0.000105
 344	3.4129e+01	13.6440	38.881654	0.000314	3.141300	1.064301	0.000126
 345	3.4228e+01	13.7034	38.958360	0.000193	1.925313	0.652314	0.000077
 346	3.4328e+01	13.7290	39.047177	0.000223	2.229310	0.755311	0.000089
 347	3.4427e+01	13.7675	39.176365	0.000324	3.242632	1.098634	0.000130
 348	3.4526e+01	13.8140	39.277294	0.000253	2.533306	0.858307	0.000101
 349	3.4626e+01	13.8397	39.394371	0.000294	2.938635	0.995637	0.000118
 350	3.4725e+01	13.8991	39.503373	0.000274	2.735971	0.926972	0.000110
 351	3.4825e+01	13.9312	39.592190	0.000223	2.229310	0.755311	0.000089
 352	3.4925e+01	13.9648	39.672933	0.000203	2.026645	0.686646	0.000081
 353	3.5024e+01	14.0146	39.794047	0.000304	3.039968	1.029969	0.000122
 354	3.5123e+01	14.0483	39.874790	0.000203	2.026645	0.686646	0.000081
 355	3.5223e+01	14.0948	39.987829	0.000284	2.837303	0.961304	0.000114
 356	3.5322e+01	14.1317	40.104906	0.000294	2.938635	0.995637	0.000118
 357	3.5422e+01	14.1670	40.201798	0.000243	2.431974	0.823975	0.000097
 358	3.5522e+01	14.2103	40.286578	0.000213	2.127977	0.720978	0.000085
 359	3.5621e+01	14.2488	40.395580	0.000274	2.735971	0.926972	0.000110
 360	3.5721e+01	14.2857	40.532843	0.000345	3.445297	1.167298	0.000138
 361	3.5820e+01	14.3258	40.621660	0.000223	2.229310	0.755311	0.000089
 362	3.5919e+01	14.3707	40.690291	0.000172	1.722648	0.583649	0.000069
 363	3.6019e+01	14.3980	40.831591	0.000355	3.546629	1.201630	0.000142
 364	3.6118e+01	14.4461	40.908296	0.000193	1.925313	0.652314	0.000077
 365	3.6218e+01	14.4782	41.017299	0.000274	2.735971	0.926972	0.000110
 366	3.6318e+01	14.5215	41.118227	0.000253	2.533306	0.858307	0.000101
 367	3.6417e+01	14.5729	41.215119	0.000243	2.431974	0.823975	0.000097
 368	3.6517e+01	14.6194	41.336233	0.000304	3.039968	1.029969	0.000122
 369	3.6616e+01	14.6450	41.425050	0.000223	2.229310	0.755311	0.000089
 370	3.6715e+01	14.6900	41.542127	0.000294	2.938635	0.995637	0.000118
 371	3.6815e+01	14.7301	41.647092	0.000263	2.634639	0.892640	0.000105
 372	3.6914e+01	14.7654	41.752058	0.000263	2.634639	0.892640	0.000105
 373	3.7014e+01	14.8055	41.820689	0.000172	1.722648	0.583649	0.000069
 374	3.7114e+01	14.8488	41.941803	0.000304	3.039968	1.029969	0.000122
 375	3.7213e+01	14.8825	42.034657	0.000233	2.330642	0.789643	0.000093
 376	3.7313e+01	14.9290	42.151734	0.000294	2.938635	0.995637	0.000118
 377	3.7412e+01	14.9643	42.260737	0.000274	2.735971	0.926972	0.000110
 378	3.7511e+01	15.0060	42.365702	0.000263	2.634639	0.892640	0.000105
 379	3.7611e+01	15.0413	42.446445	0.000203	2.026645	0.686646	0.000081
 380	3.7711e+01	15.0862	42.563522	0.000294	2.938635	0.995637	0.000118
 381	3.7810e+01	15.1215	42.688673	0.000314	3.141300	1.064301	0.000126
 382	3.7910e+01	15.1793	42.777490	0.000223	2.229310	0.755311	0.000089
 383	3.8009e+01	15.2001	42.882456	0.000263	2.634639	0.892640	0.000105
 384	3.8108e+01	15.2450	42.991458	0.000274	2.735971	0.926972	0.000110
 385	3.8208e+01	15.2835	43.068164	0.000193	1.925313	0.652314	0.000077
 386	3.8307e+01	15.3365	43.148907	0.000203	2.026645	0.686646	0.000081
 387	3.8407e+01	15.3669	43.298281	0.000375	3.749294	1.270295	0.000150
 388	3.8507e+01	15.4054	43.391135	0.000233	2.330642	0.789643	0.000093
 389	3.8606e+01	15.4504	43.500138	0.000274	2.735971	0.926972	0.000110
 390	3.8706e+01	15.4760	43.556657	0.000142	1.418652	0.480652	0.000057
 391	3.8805e+01	15.5274	43.669697	0.000284	2.837303	0.961304	0.000114
 392	3.8904e+01	15.5739	43.819071	0.000375	3.749294	1.270295	0.000150
 393	3.9004e+01	15.6060	43.924037	0.000263	2.634639	0.892640	0.000105
 394	3.9103e+01	15.6397	44.000742	0.000193	1.925313	0.652314	0.000077
 395	3.9203e+01	15.6814	44.085522	0.000213	2.127977	0.720978	0.000085
 396	3.9303e+01	15.7231	44.182414	0.000243	2.431974	0.823975	0.000097
 397	3.9402e+01	15.7712	44.311602	0.000324	3.242632	1.098634	0.000130
 398	3.9502e+01	15.8113	44.416567	0.000263	2.634639	0.892640	0.000105
 399	3.9601e+01	15.8498	44.505384	0.000223	2.229310	0.755311	0.000089
 400	3.9700e+01	15.8851	44.602276	0.000243	2.431974	0.823975	0.000097
 401	3.9800e+01	15.9332	44.711278	0.000274	2.735971	0.926972	0.000110
 402	3.9900e+01	15.9669	44.812207	0.000253	2.533306	0.858307	0.000101
 403	3.9999e+01	16.0054	44.888912	0.000193	1.925313	0.652314	0.000077
 404	4.0099e+01	16.0471	45.001952	0.000284	2.837303	0.961304	0.000114
 405	4.0198e+01	16.0840	45.127103	0.000314	3.141300	1.064301	0.000126
 406	4.0297e+01	16.1225	45.195735	0.000172	1.722648	0.583649	0.000069
 407	4.0397e+01	16.1659	45.300700	0.000263	2.634639	0.892640	0.000105
 408	4.0496e+01	16.2011	45.433926	0.000334	3.343965	1.132966	0.000134
 409	4.0596e+01	16.2493	45.534854	0.000253	2.533306	0.858307	0.000101
 410	4.0696e+01	16.2798	45.647894	0.000284	2.837303	0.961304	0.000114
 411	4.0795e+01	16.3167	45.712488	0.000162	1.621316	0.549317	0.000065
 412	4.0895e+01	16.3616	45.837639	0.000314	3.141300	1.064301	0.000126
 413	4.0994e+01	16.4017	45.922419	0.000213	2.127977	0.720978	0.000085
 414	4.1093e+01	16.4434	46.055644	0.000334	3.343965	1.132966	0.000134
 415	4.1193e+01	16.4835	46.188870	0.000334	3.343965	1.132966	0.000134
 416	4.1292e+01	16.5236	46.233278	0.000111	1.114655	0.377655	0.000045
 417	4.1392e+01	16.5621	46.338244	0.000263	2.634639	0.892640	0.000105
 418	4.1492e+01	16.6006	46.439172	0.000253	2.533306	0.858307	0.000101
 419	4.1591e+01	16.6439	46.572398	0.000334	3.343965	1.132966	0.000134
 420	4.1691e+01	16.6856	46.689475	0.000294	2.938635	0.995637	0.000118
 421	4.1790e+01	16.7225	46.758106	0.000172	1.722648	0.583649	0.000069
 422	4.1889e+01	16.7610	46.895369	0.000345	3.445297	1.167298	0.000138
 423	4.1989e+01	16.8075	46.976111	0.000203	2.026645	0.686646	0.000081
 424	4.2089e+01	16.8460	47.060891	0.000213	2.127977	0.720978	0.000085
 425	4.2188e+01	16.8797	47.177968	0.000294	2.938635	0.995637	0.000118
 426	4.2288e+01	16.9214	47.266785	0.000223	2.229310	0.755311	0.000089
 427	4.2387e+01	16.9616	47.363676	0.000243	2.431974	0.823975	0.000097
 428	4.2486e+01	16.9968	47.444419	0.000203	2.026645	0.686646	0.000081
 429	4.2586e+01	17.0418	47.545348	0.000253	2.533306	0.858307	0.000101
 430	4.2685e+01	17.0771	47.650313	0.000263	2.634639	0.892640	0.000105
 431	4.2785e+01	17.1172	47.735093	0.000213	2.127977	0.720978	0.000085
 432	4.2885e+01	17.1621	47.864281	0.000324	3.242632	1.098634	0.000130
 433	4.2984e+01	17.2086	47.940987	0.000193	1.925313	0.652314	0.000077
 434	4.3084e+01	17.2407	48.086324	0.000365	3.647961	1.235963	0.000146
 435	4.3183e+01	17.2696	48.142844	0.000142	1.418652	0.480652	0.000057
 436	4.3282e+01	17.3161	48.219549	0.000193	1.925313	0.652314	0.000077
 437	4.3382e+01	17.3610	48.348738	0.000324	3.242632	1.098634	0.000130
 438	4.3481e+01	17.3915	48.421406	0.000182	1.823981	0.617981	0.000073
 439	4.3581e+01	17.4380	48.514260	0.000233	2.330642	0.789643	0.000093
 440	4.3681e+01	17.4781	48.615189	0.000253	2.533306	0.858307	0.000101
 441	4.3780e+01	17.5134	48.712080	0.000243	2.431974	0.823975	0.000097
 442	4.3880e+01	17.5696	48.796860	0.000213	2.127977	0.720978	0.000085
 443	4.3979e+01	17.6000	48.926048	0.000324	3.242632	1.098634	0.000130
 444	4.4078e+01	17.6353	48.986605	0.000152	1.519984	0.514984	0.000061
 445	4.4178e+01	17.6819	49.099645	0.000284	2.837303	0.961304	0.000114
 446	4.4278e+01	17.7091	49.160202	0.000152	1.519984	0.514984	0.000061
 447	4.4377e+01	17.7621	49.265167	0.000263	2.634639	0.892640	0.000105
 448	4.4477e+01	17.7942	49.345910	0.000203	2.026645	0.686646	0.000081
 449	4.4576e+01	17.8343	49.519507	0.000436	4.357287	1.476289	0.000174
 450	4.4675e+01	17.8695	49.584101	0.000162	1.621316	0.549317	0.000065
 451	4.4775e+01	17.9161	49.676955	0.000233	2.330642	0.789643	0.000093
 452	4.4874e+01	17.9530	49.761735	0.000213	2.127977	0.720978	0.000085
 453	4.4974e+01	18.0011	49.858626	0.000243	2.431974	0.823975	0.000097
 454	4.5074e+01	18.0348	49.955518	0.000243	2.431974	0.823975	0.000097
 455	4.5173e+01	18.0621	50.003963	0.000122	1.215987	0.411988	0.000049
 456	4.5273e+01	18.1166	50.153337	0.000375	3.749294	1.270295	0.000150
 457	4.5372e+01	18.1519	50.246191	0.000233	2.330642	0.789643	0.000093
 458	4.5471e+01	18.1968	50.351157	0.000263	2.634639	0.892640	0.000105
 459	4.5571e+01	18.2337	50.419788	0.000172	1.722648	0.583649	0.000069
 460	4.5670e+01	18.2818	50.484382	0.000162	1.621316	0.549317	0.000065
 461	4.5770e+01	18.3139	50.617608	0.000334	3.343965	1.132966	0.000134
 462	4.5870e+01	18.3604	50.698351	0.000203	2.026645	0.686646	0.000081
 463	4.5969e+01	18.4038	50.787168	0.000223	2.229310	0.755311	0.000089
 464	4.6069e+01	18.4342	50.843687	0.000142	1.418652	0.480652	0.000057
 465	4.6168e+01	18.4711	50.997099	0.000385	3.850626	1.304627	0.000154
 466	4.6267e+01	18.5128	51.049581	0.000132	1.317319	0.446320	0.000053
 467	4.6367e+01	18.5530	51.146473	0.000243	2.431974	0.823975	0.000097
 468	4.6467e+01	18.5866	51.223178	0.000193	1.925313	0.652314	0.000077
 469	4.6566e+01	18.6348	51.320070	0.000243	2.431974	0.823975	0.000097
 470	4.6666e+01	18.6765	51.445221	0.000314	3.141300	1.064301	0.000126
 471	4.6765e+01	18.7086	51.534038	0.000223	2.229310	0.755311	0.000089
 472	4.6864e+01	18.7599	51.590558	0.000142	1.418652	0.480652	0.000057
 473	4.6964e+01	18.7920	51.687449	0.000243	2.431974	0.823975	0.000097
 474	4.7063e+01	18.8273	51.804526	0.000294	2.938635	0.995637	0.000118
 475	4.7163e+01	18.8754	51.857009	0.000132	1.317319	0.446320	0.000053
 476	4.7263e+01	18.9171	51.990234	0.000334	3.343965	1.132966	0.000134
 477	4.7362e+01	18.9508	52.050791	0.000152	1.519984	0.514984	0.000061
 478	4.7462e+01	18.9893	52.155757	0.000263	2.634639	0.892640	0.000105
 479	4.7561e+01	19.0326	52.244574	0.000223	2.229310	0.755311	0.000089
 480	4.7660e+01	19.0759	52.349539	0.000263	2.634639	0.892640	0.000105
 481	4.7760e+01	19.1064	52.418170	0.000172	1.722648	0.583649	0.000069
 482	4.7859e+01	19.1481	52.523136	0.000263	2.634639	0.892640	0.000105
 483	4.7959e+01	19.1995	52.620027	0.000243	2.431974	0.823975	0.000097
 484	4.8059e+01	19.2348	52.720956	0.000253	2.533306	0.858307	0.000101
 485	4.8158e+01	19.2700	52.797661	0.000193	1.925313	0.652314	0.000077
 486	4.8258e+01	19.3118	52.866292	0.000172	1.722648	0.583649	0.000069
 487	4.8357e+01	19.3583	52.975295	0.000274	2.735971	0.926972	0.000110
 488	4.8456e+01	19.3888	53.060075	0.000213	2.127977	0.720978	0.000085
 489	4.8556e+01	19.4305	53.169078	0.000274	2.735971	0.926972	0.000110
 490	4.8656e+01	19.4674	53.229635	0.000152	1.519984	0.514984	0.000061
 491	4.8755e+01	19.5059	53.302303	0.000182	1.823981	0.617981	0.000073
 492	4.8855e+01	19.5476	53.383046	0.000203	2.026645	0.686646	0.000081
 493	4.8954e+01	19.5941	53.508197	0.000314	3.141300	1.064301	0.000126
 494	4.9053e+01	19.6278	53.556643	0.000122	1.215987	0.411988	0.000049
 495	4.9153e+01	19.6743	53.677757	0.000304	3.039968	1.029969	0.000122
 496	4.9252e+01	19.7112	53.750425	0.000182	1.823981	0.617981	0.000073
 497	4.9352e+01	19.7513	53.863465	0.000284	2.837303	0.961304	0.000114
 498	4.9452e+01	19.7946	53.936133	0.000182	1.823981	0.617981	0.000073
 499	4.9551e+01	19.8251	54.008802	0.000182	1.823981	0.617981	0.000073
 500	4.9651e+01	19.8668	54.125879	0.000294	2.938635	0.995637	0.000118
 501	4.9750e+01	19.9085	54.166250	0.000101	1.013323	0.343323	0.000041
 502	4.9849e+01	19.9486	54.291401	0.000314	3.141300	1.064301	0.000126
 503	4.9949e+01	19.9839	54.355996	0.000162	1.621316	0.549317	0.000065
 504	5.0048e+01	19.9454	54.263141	0.000233	2.330642	0.789643	-0.000093
 505	5.0148e+01	19.9069	54.198547	0.000162	1.621316	0.549317	-0.000065
 506	5.0248e+01	19.8780	54.113767	0.000213	2.127977	0.720978	-0.000085
 507	5.0347e+01	19.8315	54.049173	0.000162	1.621316	0.549317	-0.000065
 508	5.0447e+01	19.7850	53.976505	0.000182	1.823981	0.617981	-0.000073
 509	5.0546e+01	19.7465	53.891725	0.000213	2.127977	0.720978	-0.000085
 510	5.0645e+01	19.7176	53.806945	0.000213	2.127977	0.720978	-0.000085
 511	5.0745e+01	19.6695	53.742351	0.000162	1.621316	0.549317	-0.000065
 512	5.0844e+01	19.6294	53.673720	0.000172	1.722648	0.583649	-0.000069
 513	5.0944e+01	19.5925	53.580866	0.000233	2.330642	0.789643	-0.000093
 514	5.1044e+01	19.5556	53.500123	0.000203	2.026645	0.686646	-0.000081
 515	5.1143e+01	19.5107	53.411306	0.000223	2.229310	0.755311	-0.000089
 516	5.1242e+01	19.4754	53.334600	0.000193	1.925313	0.652314	-0.000077
 517	5.1342e+01	19.4241	53.261932	0.000182	1.823981	0.617981	-0.000073
 518	5.1441e+01	19.3936	53.193300	0.000172	1.722648	0.583649	-0.000069
 519	5.1541e+01	19.3535	53.108521	0.000213	2.127977	0.720978	-0.000085
 520	5.1641e+01	19.3182	53.003555	0.000263	2.634639	0.892640	-0.000105
 521	5.1740e+01	19.2733	52.930887	0.000182	1.823981	0.617981	-0.000073
 522	5.1840e+01	19.2348	52.870330	0.000152	1.519984	0.514984	-0.000061
 523	5.1939e+01	19.1930	52.773438	0.000243	2.431974	0.823975	-0.000097
 524	5.2038e+01	19.1529	52.704807	0.000172	1.722648	0.583649	-0.000069
 525	5.2138e+01	19.1209	52.632139	0.000182	1.823981	0.617981	-0.000073
 526	5.2237e+01	19.0695	52.523136	0.000274	2.735971	0.926972	-0.000110
 527	5.2337e+01	19.0326	52.454505	0.000172	1.722648	0.583649	-0.000069
 528	5.2437e+01	19.0037	52.397985	0.000142	1.418652	0.480652	-0.000057
 529	5.2536e+01	18.9540	52.313205	0.000213	2.127977	0.720978	-0.000085
 530	5.2636e+01	18.9123	52.212276	0.000253	2.533306	0.858307	-0.000101
 531	5.2735e+01	18.8770	52.147682	0.000162	1.621316	0.549317	-0.000065
 532	5.2834e+01	18.8401	52.054828	0.000233	2.330642	0.789643	-0.000093
 533	5.2934e+01	18.7936	51.986197	0.000172	1.722648	0.583649	-0.000069
 534	5.3033e+01	18.7503	51.873157	0.000284	2.837303	0.961304	-0.000114
 535	5.3133e+01	18.7134	51.808563	0.000162	1.621316	0.549317	-0.000065
 536	5.3233e+01	18.6701	51.719746	0.000223	2.229310	0.755311	-0.000089
 537	5.3332e+01	18.6300	51.663226	0.000142	1.418652	0.480652	-0.000057
 538	5.3431e+01	18.5931	51.570372	0.000233	2.330642	0.789643	-0.000093
 539	5.3531e+01	18.5513	51.485592	0.000213	2.127977	0.720978	-0.000085
 540	5.3630e+01	18.5128	51.412924	0.000182	1.823981	0.617981	-0.000073
 541	5.3730e+01	18.4776	51.311995	0.000253	2.533306	0.858307	-0.000101
 542	5.3830e+01	18.4342	51.239327	0.000182	1.823981	0.617981	-0.000073
 543	5.3929e+01	18.4054	51.146473	0.000233	2.330642	0.789643	-0.000093
 544	5.4029e+01	18.3637	51.102064	0.000111	1.114655	0.377655	-0.000045
 545	5.4128e+01	18.3203	51.009210	0.000233	2.330642	0.789643	-0.000093
 546	5.4227e+01	18.2834	50.936542	0.000182	1.823981	0.617981	-0.000073
 547	5.4327e+01	18.2369	50.811390	0.000314	3.141300	1.064301	-0.000126
 548	5.4426e+01	18.1936	50.775056	0.000091	0.911990	0.308991	-0.000037
 549	5.4526e+01	18.1615	50.662016	0.000284	2.837303	0.961304	-0.000114
 550	5.4626e+01	18.1150	50.605496	0.000142	1.418652	0.480652	-0.000057
 551	5.4725e+01	18.0749	50.480345	0.000314	3.141300	1.064301	-0.000126
 552	5.4825e+01	18.0316	50.375380	0.000263	2.634639	0.892640	-0.000105
 553	5.4924e+01	17.9915	50.343083	0.000081	0.810658	0.274658	-0.000032
 554	5.5023e+01	17.9514	50.266377	0.000193	1.925313	0.652314	-0.000077
 555	5.5123e+01	17.9209	50.161412	0.000263	2.634639	0.892640	-0.000105
 556	5.5222e+01	17.8712	50.072595	0.000223	2.229310	0.755311	-0.000089
 557	5.5322e+01	17.8391	49.979740	0.000233	2.330642	0.789643	-0.000093
 558	5.5422e+01	17.7958	49.919183	0.000152	1.519984	0.514984	-0.000061
 559	5.5521e+01	17.7556	49.854589	0.000162	1.621316	0.549317	-0.000065
 560	5.5620e+01	17.7236	49.781921	0.000182	1.823981	0.617981	-0.000073
 561	5.5720e+01	17.6786	49.640621	0.000355	3.546629	1.201630	-0.000142
 562	5.5819e+01	17.6353	49.555841	0.000213	2.127977	0.720978	-0.000085
 563	5.5919e+01	17.6016	49.515470	0.000101	1.013323	0.343323	-0.000041
 564	5.6019e+01	17.5519	49.414541	0.000253	2.533306	0.858307	-0.000101
 565	5.6118e+01	17.5150	49.317650	0.000243	2.431974	0.823975	-0.000097
 566	5.6218e+01	17.4877	49.236907	0.000203	2.026645	0.686646	-0.000081
 567	5.6317e+01	17.4364	49.127905	0.000274	2.735971	0.926972	-0.000110
 568	5.6416e+01	17.4011	49.079459	0.000122	1.215987	0.411988	-0.000049
 569	5.6516e+01	17.3594	48.982568	0.000243	2.431974	0.823975	-0.000097
 570	5.6615e+01	17.3145	48.873565	0.000274	2.735971	0.926972	-0.000110
 571	5.6715e+01	17.2744	48.813008	0.000152	1.519984	0.514984	-0.000061
 572	5.6815e+01	17.2423	48.724191	0.000223	2.229310	0.755311	-0.000089
 573	5.6914e+01	17.1942	48.655560	0.000172	1.722648	0.583649	-0.000069
 574	5.7014e+01	17.1557	48.558669	0.000243	2.431974	0.823975	-0.000097
 575	5.7113e+01	17.1124	48.506186	0.000132	1.317319	0.446320	-0.000053
 576	5.7212e+01	17.0738	48.449666	0.000142	1.418652	0.480652	-0.000057
 577	5.7312e+01	17.0418	48.344700	0.000263	2.634639	0.892640	-0.000105
 578	5.7411e+01	16.9920	48.259921	0.000213	2.127977	0.720978	-0.000085
 579	5.7511e+01	16.9616	48.191289	0.000172	1.722648	0.583649	-0.000069
 580	5.7611e+01	16.9118	48.102472	0.000223	2.229310	0.755311	-0.000089
 581	5.7710e+01	16.8765	48.009618	0.000233	2.330642	0.789643	-0.000093
 582	5.7809e+01	16.8348	47.920801	0.000223	2.229310	0.755311	-0.000089
 583	5.7909e+01	16.7995	47.860244	0.000152	1.519984	0.514984	-0.000061
 584	5.8008e+01	16.7674	47.767390	0.000233	2.330642	0.789643	-0.000093
 585	5.8108e+01	16.7193	47.674536	0.000233	2.330642	0.789643	-0.000093
 586	5.8208e+01	16.6808	47.593793	0.000203	2.026645	0.686646	-0.000081
 587	5.8307e+01	16.6327	47.529199	0.000162	1.621316	0.549317	-0.000065
 588	5.8407e+01	16.5942	47.440382	0.000223	2.229310	0.755311	-0.000089
 589	5.8506e+01	16.5621	47.359639	0.000203	2.026645	0.686646	-0.000081
 590	5.8605e+01	16.5252	47.270822	0.000223	2.229310	0.755311	-0.000089
 591	5.8705e+01	16.4867	47.157783	0.000284	2.837303	0.961304	-0.000114
 592	5.8804e+01	16.4402	47.077040	0.000203	2.026645	0.686646	-0.000081
 593	5.8904e+01	16.4065	46.988223	0.000223	2.229310	0.755311	-0.000089
 594	5.9004e+01	16.3568	46.927666	0.000152	1.519984	0.514984	-0.000061
 595	5.9103e+01	16.3215	46.842886	0.000213	2.127977	0.720978	-0.000085
 596	5.9203e+01	16.2846	46.762143	0.000203	2.026645	0.686646	-0.000081
 597	5.9302e+01	16.2429	46.681401	0.000203	2.026645	0.686646	-0.000081
 598	5.9401e+01	16.2092	46.596621	0.000213	2.127977	0.720978	-0.000085
 599	5.9501e+01	16.1594	46.491655	0.000263	2.634639	0.892640	-0.000105
 600	5.9600e+01	16.1241	46.410912	0.000203	2.026645	0.686646	-0.000081
 601	5.9700e+01	16.0905	46.334207	0.000193	1.925313	0.652314	-0.000077
 602	5.9800e+01	16.0391	46.221167	0.000284	2.837303	0.961304	-0.000114
 603	5.9899e+01	16.0102	46.128313	0.000233	2.330642	0.789643	-0.000093
 604	5.9998e+01	15.9717	46.027385	0.000253	2.533306	0.858307	-0.000101
 605	6.0098e+01	15.9332	45.946642	0.000203	2.026645	0.686646	-0.000081
 606	6.0197e+01	15.8883	45.861862	0.000213	2.127977	0.720978	-0.000085
 607	6.0297e+01	15.8498	45.777082	0.000213	2.127977	0.720978	-0.000085
 608	6.0397e+01	15.8049	45.676154	0.000253	2.533306	0.858307	-0.000101
 609	6.0496e+01	15.7680	45.603485	0.000182	1.823981	0.617981	-0.000073
 610	6.0596e+01	15.7279	45.506594	0.000243	2.431974	0.823975	-0.000097
 611	6.0695e+01	15.6814	45.413740	0.000233	2.330642	0.789643	-0.000093
 612	6.0794e+01	15.6477	45.332997	0.000203	2.026645	0.686646	-0.000081
 613	6.0894e+01	15.6044	45.248217	0.000213	2.127977	0.720978	-0.000085
 614	6.0993e+01	15.5691	45.159400	0.000223	2.229310	0.755311	-0.000089
 615	6.1093e+01	15.5338	45.034249	0.000314	3.141300	1.064301	-0.000126
 616	6.1193e+01	15.4841	44.961581	0.000182	1.823981	0.617981	-0.000073
 617	6.1292e+01	15.4584	44.876801	0.000213	2.127977	0.720978	-0.000085
 618	6.1392e+01	15.4103	44.787984	0.000223	2.229310	0.755311	-0.000089
 619	6.1491e+01	15.3637	44.715315	0.000182	1.823981	0.617981	-0.000073
 620	6.1590e+01	15.3188	44.610350	0.000263	2.634639	0.892640	-0.000105
 621	6.1690e+01	15.2851	44.521533	0.000223	2.229310	0.755311	-0.000089
 622	6.1789e+01	15.2482	44.420605	0.000253	2.533306	0.858307	-0.000101
 623	6.1889e+01	15.2001	44.295453	0.000314	3.141300	1.064301	-0.000126
 624	6.1989e+01	15.1696	44.238933	0.000142	1.418652	0.480652	-0.000057
 625	6.2088e+01	15.1231	44.138005	0.000253	2.533306	0.858307	-0.000101
 626	6.2188e+01	15.0846	44.037077	0.000253	2.533306	0.858307	-0.000101
 627	6.2287e+01	15.0461	43.988631	0.000122	1.215987	0.411988	-0.000049
 628	6.2386e+01	15.0092	43.819071	0.000426	4.255955	1.441957	-0.000170
 629	6.2486e+01	14.9563	43.754477	0.000162	1.621316	0.549317	-0.000065
 630	6.2586e+01	14.9258	43.693920	0.000152	1.519984	0.514984	-0.000061
 631	6.2685e+01	14.8921	43.548583	0.000365	3.647961	1.235963	-0.000146
 632	6.2785e+01	14.8568	43.492063	0.000142	1.418652	0.480652	-0.000057
 633	6.2884e+01	14.8151	43.379024	0.000284	2.837303	0.961304	-0.000114
 634	6.2983e+01	14.7654	43.310392	0.000172	1.722648	0.583649	-0.000069
 635	6.3083e+01	14.7253	43.193315	0.000294	2.938635	0.995637	-0.000118
 636	6.3182e+01	14.6851	43.092387	0.000253	2.533306	0.858307	-0.000101
 637	6.3282e+01	14.6418	43.019718	0.000182	1.823981	0.617981	-0.000073
 638	6.3382e+01	14.6130	42.938976	0.000203	2.026645	0.686646	-0.000081
 639	6.3481e+01	14.5680	42.821899	0.000294	2.938635	0.995637	-0.000118
 640	6.3581e+01	14.5327	42.716933	0.000263	2.634639	0.892640	-0.000105
 641	6.3680e+01	14.4910	42.603893	0.000284	2.837303	0.961304	-0.000114
 642	6.3779e+01	14.4461	42.507002	0.000243	2.431974	0.823975	-0.000097
 643	6.3879e+01	14.4044	42.442408	0.000162	1.621316	0.549317	-0.000065
 644	6.3978e+01	14.3675	42.349554	0.000233	2.330642	0.789643	-0.000093
 645	6.4078e+01	14.3354	42.236514	0.000284	2.837303	0.961304	-0.000114
 646	6.4177e+01	14.2905	42.139623	0.000243	2.431974	0.823975	-0.000097
 647	6.4277e+01	14.2456	42.050806	0.000223	2.229310	0.755311	-0.000089
 648	6.4376e+01	14.2071	42.002360	0.000122	1.215987	0.411988	-0.000049
 649	6.4476e+01	14.1766	41.897395	0.000263	2.634639	0.892640	-0.000105
 650	6.4576e+01	14.1333	41.772243	0.000314	3.141300	1.064301	-0.000126
 651	6.4675e+01	14.0900	41.707649	0.000162	1.621316	0.549317	-0.000065
 652	6.4775e+01	14.0467	41.602684	0.000263	2.634639	0.892640	-0.000105
 653	6.4874e+01	14.0130	41.497718	0.000263	2.634639	0.892640	-0.000105
 654	6.4974e+01	13.9809	41.400827	0.000243	2.431974	0.823975	-0.000097
 655	6.5073e+01	13.9344	41.328159	0.000182	1.823981	0.617981	-0.000073
 656	6.5172e+01	13.8975	41.211082	0.000294	2.938635	0.995637	-0.000118
 657	6.5272e+01	13.8461	41.081893	0.000324	3.242632	1.098634	-0.000130
 658	6.5371e+01	13.8092	41.005188	0.000193	1.925313	0.652314	-0.000077
 659	6.5471e+01	13.7739	40.920408	0.000213	2.127977	0.720978	-0.000085
 660	6.5570e+01	13.7322	40.831591	0.000223	2.229310	0.755311	-0.000089
 661	6.5670e+01	13.6953	40.702403	0.000324	3.242632	1.098634	-0.000130
 662	6.5769e+01	13.6504	40.629734	0.000182	1.823981	0.617981	-0.000073
 663	6.5869e+01	13.6135	40.528806	0.000253	2.533306	0.858307	-0.000101
 664	6.5969e+01	13.5654	40.419803	0.000274	2.735971	0.926972	-0.000110
 665	6.6068e+01	13.5317	40.322912	0.000243	2.431974	0.823975	-0.000097
 666	6.6168e+01	13.4932	40.213909	0.000274	2.735971	0.926972	-0.000110
 667	6.6267e+01	13.4547	40.121055	0.000233	2.330642	0.789643	-0.000093
 668	6.6367e+01	13.4146	40.003978	0.000294	2.938635	0.995637	-0.000118
 669	6.6466e+01	13.3761	39.882864	0.000304	3.039968	1.029969	-0.000122
 670	6.6566e+01	13.3360	39.806158	0.000193	1.925313	0.652314	-0.000077
 671	6.6665e+01	13.2911	39.705230	0.000253	2.533306	0.858307	-0.000101
 672	6.6764e+01	13.2526	39.596227	0.000274	2.735971	0.926972	-0.000110
 673	6.6864e+01	13.2109	39.483188	0.000284	2.837303	0.961304	-0.000114
 674	6.6963e+01	13.1772	39.422630	0.000152	1.519984	0.514984	-0.000061
 675	6.7063e+01	13.1467	39.297479	0.000314	3.141300	1.064301	-0.000126
 676	6.7162e+01	13.0954	39.236922	0.000152	1.519984	0.514984	-0.000061
 677	6.7262e+01	13.0520	39.071400	0.000415	4.154623	1.407624	-0.000166
 678	6.7362e+01	13.0087	38.982583	0.000223	2.229310	0.755311	-0.000089
 679	6.7461e+01	12.9686	38.873580	0.000274	2.735971	0.926972	-0.000110
 680	6.7561e+01	12.9397	38.804949	0.000172	1.722648	0.583649	-0.000069
 681	6.7660e+01	12.8964	38.724206	0.000203	2.026645	0.686646	-0.000081
 682	6.7760e+01	12.8563	38.623278	0.000253	2.533306	0.858307	-0.000101
 683	6.7859e+01	12.8146	38.506201	0.000294	2.938635	0.995637	-0.000118
 684	6.7959e+01	12.7857	38.409309	0.000243	2.431974	0.823975	-0.000097
 685	6.8058e+01	12.7376	38.328567	0.000203	2.026645	0.686646	-0.000081
 686	6.8157e+01	12.6943	38.231675	0.000243	2.431974	0.823975	-0.000097
 687	6.8257e+01	12.6542	38.134784	0.000243	2.431974	0.823975	-0.000097
 688	6.8356e+01	12.6173	38.050004	0.000213	2.127977	0.720978	-0.000085
 689	6.8456e+01	12.5852	37.965224	0.000213	2.127977	0.720978	-0.000085
 690	6.8555e+01	12.5435	37.815850	0.000375	3.749294	1.270295	-0.000150
 691	6.8655e+01	12.4954	37.739145	0.000193	1.925313	0.652314	-0.000077
 692	6.8754e+01	12.4601	37.662439	0.000193	1.925313	0.652314	-0.000077
 693	6.8854e+01	12.4152	37.541325	0.000304	3.039968	1.029969	-0.000122
 694	6.8954e+01	12.3847	37.440397	0.000253	2.533306	0.858307	-0.000101
 695	6.9053e+01	12.3430	37.351580	0.000223	2.229310	0.755311	-0.000089
 696	6.9153e+01	12.2980	37.278911	0.000182	1.823981	0.617981	-0.000073
 697	6.9252e+01	12.2547	37.169909	0.000274	2.735971	0.926972	-0.000110
 698	6.9352e+01	12.2146	37.097240	0.000182	1.823981	0.617981	-0.000073
 699	6.9451e+01	12.1761	36.955941	0.000355	3.546629	1.201630	-0.000142
 700	6.9550e+01	12.1296	36.879235	0.000193	1.925313	0.652314	-0.000077
 701	6.9650e+01	12.1007	36.758121	0.000304	3.039968	1.029969	-0.000122
 702	6.9749e+01	12.0590	36.681415	0.000193	1.925313	0.652314	-0.000077
 703	6.9849e+01	12.0125	36.556264	0.000314	3.141300	1.064301	-0.000126
 704	6.9948e+01	11.9820	36.475521	0.000203	2.026645	0.686646	-0.000081
 705	7.0048e+01	11.9435	36.406890	0.000172	1.722648	0.583649	-0.000069
 706	7.0147e+01	11.8986	36.269627	0.000345	3.445297	1.167298	-0.000138
 707	7.0247e+01	11.8569	36.152551	0.000294	2.938635	0.995637	-0.000118
 708	7.0347e+01	11.8264	36.059696	0.000233	2.330642	0.789643	-0.000093
 709	7.0446e+01	11.7911	35.995102	0.000162	1.621316	0.549317	-0.000065
 710	7.0546e+01	11.7414	35.934545	0.000152	1.519984	0.514984	-0.000061
 711	7.0645e+01	11.7045	35.821505	0.000284	2.837303	0.961304	-0.000114
 712	7.0745e+01	11.6628	35.692317	0.000324	3.242632	1.098634	-0.000130
 713	7.0844e+01	11.6179	35.567166	0.000314	3.141300	1.064301	-0.000126
 714	7.0944e+01	11.5906	35.494497	0.000182	1.823981	0.617981	-0.000073
 715	7.1043e+01	11.5457	35.417792	0.000193	1.925313	0.652314	-0.000077
 716	7.1142e+01	11.5056	35.328975	0.000223	2.229310	0.755311	-0.000089
 717	7.1242e+01	11.4687	35.203824	0.000314	3.141300	1.064301	-0.000126
 718	7.1341e+01	11.4253	35.098858	0.000263	2.634639	0.892640	-0.000105
 719	7.1441e+01	11.3804	35.018115	0.000203	2.026645	0.686646	-0.000081
 720	7.1540e+01	11.3419	34.892964	0.000314	3.141300	1.064301	-0.000126
 721	7.1640e+01	11.3082	34.816259	0.000193	1.925313	0.652314	-0.000077
 722	7.1740e+01	11.2713	34.719367	0.000243	2.431974	0.823975	-0.000097
 723	7.1839e+01	11.2200	34.614402	0.000263	2.634639	0.892640	-0.000105
 724	7.1939e+01	11.1783	34.493288	0.000304	3.039968	1.029969	-0.000122
 725	7.2038e+01	11.1430	34.416582	0.000193	1.925313	0.652314	-0.000077
 726	7.2138e+01	11.1061	34.323728	0.000233	2.330642	0.789643	-0.000093
 727	7.2237e+01	11.0612	34.226837	0.000243	2.431974	0.823975	-0.000097
 728	7.2337e+01	11.0259	34.121871	0.000263	2.634639	0.892640	-0.000105
 729	7.2436e+01	10.9906	34.020943	0.000253	2.533306	0.858307	-0.000101
 730	7.2535e+01	10.9425	33.903866	0.000294	2.938635	0.995637	-0.000118
 731	7.2635e+01	10.9088	33.819086	0.000213	2.127977	0.720978	-0.000085
 732	7.2734e+01	10.8639	33.746418	0.000182	1.823981	0.617981	-0.000073
 733	7.2834e+01	10.8238	33.621266	0.000314	3.141300	1.064301	-0.000126
 734	7.2933e+01	10.7869	33.552635	0.000172	1.722648	0.583649	-0.000069
 735	7.3033e+01	10.7403	33.431521	0.000304	3.039968	1.029969	-0.000122
 736	7.3132e+01	10.7002	33.326556	0.000263	2.634639	0.892640	-0.000105
 737	7.3232e+01	10.6714	33.225627	0.000253	2.533306	0.858307	-0.000101
 738	7.3332e+01	10.6264	33.128736	0.000243	2.431974	0.823975	-0.000097
 739	7.3431e+01	10.5831	33.064142	0.000162	1.621316	0.549317	-0.000065
 740	7.3531e+01	10.5398	32.914768	0.000375	3.749294	1.270295	-0.000150
 741	7.3630e+01	10.5013	32.866322	0.000122	1.215987	0.411988	-0.000049
 742	7.3730e+01	10.4628	32.733097	0.000334	3.343965	1.132966	-0.000134
 743	7.3829e+01	10.4323	32.632168	0.000253	2.533306	0.858307	-0.000101
 744	7.3928e+01	10.3794	32.523166	0.000274	2.735971	0.926972	-0.000110
 745	7.4028e+01	10.3537	32.438386	0.000213	2.127977	0.720978	-0.000085
 746	7.4127e+01	10.3104	32.329383	0.000274	2.735971	0.926972	-0.000110
 747	7.4227e+01	10.2655	32.256715	0.000182	1.823981	0.617981	-0.000073
 748	7.4326e+01	10.2206	32.111378	0.000365	3.647961	1.235963	-0.000146
 749	7.4426e+01	10.1821	32.071006	0.000101	1.013323	0.343323	-0.000041
 750	7.4525e+01	10.1468	31.957967	0.000284	2.837303	0.961304	-0.000114
 751	7.4625e+01	10.1067	31.840890	0.000294	2.938635	0.995637	-0.000118
 752	7.4725e+01	10.0698	31.735924	0.000263	2.634639	0.892640	-0.000105
 753	7.4824e+01	10.0345	31.679404	0.000142	1.418652	0.480652	-0.000057
 754	7.4924e+01	9.9960	31.513882	0.000415	4.154623	1.407624	-0.000166
 755	7.5023e+01	9.9446	31.457362	0.000142	1.418652	0.480652	-0.000057
 756	7.5123e+01	9.9142	31.348359	0.000274	2.735971	0.926972	-0.000110
 757	7.5222e+01	9.8644	31.271653	0.000193	1.925313	0.652314	-0.000077
 758	7.5322e+01	9.8291	31.166688	0.000263	2.634639	0.892640	-0.000105
 759	7.5421e+01	9.7906	31.041537	0.000314	3.141300	1.064301	-0.000126
 760	7.5520e+01	9.7441	30.948683	0.000233	2.330642	0.789643	-0.000093
 761	7.5620e+01	9.7152	30.876014	0.000182	1.823981	0.617981	-0.000073
 762	7.5719e+01	9.6687	30.746826	0.000324	3.242632	1.098634	-0.000130
 763	7.5819e+01	9.6286	30.645897	0.000253	2.533306	0.858307	-0.000101
 764	7.5918e+01	9.5901	30.549006	0.000243	2.431974	0.823975	-0.000097
 765	7.6018e+01	9.5548	30.468263	0.000203	2.026645	0.686646	-0.000081
 766	7.6118e+01	9.5083	30.331001	0.000345	3.445297	1.167298	-0.000138
 767	7.6217e+01	9.4698	30.226035	0.000263	2.634639	0.892640	-0.000105
 768	7.6317e+01	9.4329	30.088773	0.000345	3.445297	1.167298	-0.000138
 769	7.6416e+01	9.3864	29.999956	0.000223	2.229310	0.755311	-0.000089
 770	7.6516e+01	9.3479	29.911139	0.000223	2.229310	0.755311	-0.000089
 771	7.6615e+01	9.3110	29.790025	0.000304	3.039968	1.029969	-0.000122
 772	7.6715e+01	9.2725	29.733505	0.000142	1.418652	0.480652	-0.000057
 773	7.6814e+01	9.2356	29.612391	0.000304	3.039968	1.029969	-0.000122
 774	7.6913e+01	9.1955	29.495314	0.000294	2.938635	0.995637	-0.000118
 775	7.7013e+01	9.1393	29.398422	0.000243	2.431974	0.823975	-0.000097
 776	7.7112e+01	9.1169	29.305568	0.000233	2.330642	0.789643	-0.000093
 777	7.7212e+01	9.0639	29.200603	0.000263	2.634639	0.892640	-0.000105
 778	7.7311e+01	9.0222	29.071414	0.000324	3.242632	1.098634	-0.000130
 779	7.7411e+01	8.9901	28.926078	0.000365	3.647961	1.235963	-0.000146
 780	7.7510e+01	8.9548	28.841298	0.000213	2.127977	0.720978	-0.000085
 781	7.7610e+01	8.9067	28.732295	0.000274	2.735971	0.926972	-0.000110
 782	7.7710e+01	8.8634	28.655589	0.000193	1.925313	0.652314	-0.000077
 783	7.7809e+01	8.8361	28.522364	0.000334	3.343965	1.132966	-0.000134
 784	7.7909e+01	8.7928	28.429510	0.000233	2.330642	0.789643	-0.000093
 785	7.8008e+01	8.7463	28.263987	0.000415	4.154623	1.407624	-0.000166
 786	7.8108e+01	8.7174	28.211505	0.000132	1.317319	0.446320	-0.000053
 787	7.8207e+01	8.6661	28.094428	0.000294	2.938635	0.995637	-0.000118
 788	7.8306e+01	8.6292	27.957165	0.000345	3.445297	1.167298	-0.000138
 789	7.8406e+01	8.6003	27.872385	0.000213	2.127977	0.720978	-0.000085
 790	7.8505e+01	8.5506	27.795680	0.000193	1.925313	0.652314	-0.000077
 791	7.8605e+01	8.5072	27.666491	0.000324	3.242632	1.098634	-0.000130
 792	7.8704e+01	8.4703	27.553451	0.000284	2.837303	0.961304	-0.000114
 793	7.8804e+01	8.4302	27.448486	0.000263	2.634639	0.892640	-0.000105
 794	7.8903e+01	8.3901	27.347557	0.000253	2.533306	0.858307	-0.000101
 795	7.9003e+01	8.3500	27.230481	0.000294	2.938635	0.995637	-0.000118
 796	7.9103e+01	8.3035	27.113404	0.000294	2.938635	0.995637	-0.000118
 797	7.9202e+01	8.2778	26.988252	0.000314	3.141300	1.064301	-0.000126
 798	7.9302e+01	8.2281	26.899435	0.000223	2.229310	0.755311	-0.000089
 799	7.9401e+01	8.1896	26.766210	0.000334	3.343965	1.132966	-0.000134
 800	7.9501e+01	8.1463	26.632984	0.000334	3.343965	1.132966	-0.000134
 801	7.9600e+01	8.1190	26.568390	0.000162	1.621316	0.549317	-0.000065
 802	7.9700e+01	8.0661	26.427091	0.000355	3.546629	1.201630	-0.000142
 803	7.9799e+01	8.0404	26.386719	0.000101	1.013323	0.343323	-0.000041
 804	7.9898e+01	7.9955	26.192937	0.000486	4.863948	1.647950	-0.000195
 805	7.9998e+01	7.9458	26.104120	0.000223	2.229310	0.755311	-0.000089
 806	8.0097e+01	7.9185	25.978968	0.000314	3.141300	1.064301	-0.000126
 807	8.0197e+01	7.8736	25.886114	0.000233	2.330642	0.789643	-0.000093
 808	8.0296e+01	7.8271	25.769037	0.000294	2.938635	0.995637	-0.000118
 809	8.0396e+01	7.7998	25.655998	0.000284	2.837303	0.961304	-0.000114
 810	8.0496e+01	7.7549	25.534884	0.000304	3.039968	1.029969	-0.000122
 811	8.0595e+01	7.7132	25.437992	0.000243	2.431974	0.823975	-0.000097
 812	8.0695e+01	7.6746	25.341101	0.000243	2.431974	0.823975	-0.000097
 813	8.0794e+01	7.6361	25.228061	0.000284	2.837303	0.961304	-0.000114
 814	8.0894e+01	7.5848	25.115021	0.000284	2.837303	0.961304	-0.000114
 815	8.0993e+01	7.5479	24.985833	0.000324	3.242632	1.098634	-0.000130
 816	8.1093e+01	7.5126	24.868756	0.000294	2.938635	0.995637	-0.000118
 817	8.1192e+01	7.4886	24.747642	0.000304	3.039968	1.029969	-0.000122
 818	8.1291e+01	7.4340	24.654788	0.000233	2.330642	0.789643	-0.000093
 819	8.1391e+01	7.4019	24.525600	0.000324	3.242632	1.098634	-0.000130
 820	8.1490e+01	7.3650	24.436783	0.000223	2.229310	0.755311	-0.000089
 821	8.1590e+01	7.3217	24.315669	0.000304	3.039968	1.029969	-0.000122
 822	8.1689e+01	7.2768	24.202629	0.000284	2.837303	0.961304	-0.000114
 823	8.1789e+01	7.2367	24.077478	0.000314	3.141300	1.064301	-0.000126
 824	8.1888e+01	7.1950	23.944252	0.000334	3.343965	1.132966	-0.000134
 825	8.1988e+01	7.1613	23.871584	0.000182	1.823981	0.617981	-0.000073
 826	8.2088e+01	7.1228	23.710098	0.000405	4.053290	1.373292	-0.000162
 827	8.2187e+01	7.0715	23.625318	0.000213	2.127977	0.720978	-0.000085
 828	8.2287e+01	7.0442	23.484019	0.000355	3.546629	1.201630	-0.000142
 829	8.2386e+01	6.9977	23.403276	0.000203	2.026645	0.686646	-0.000081
 830	8.2486e+01	6.9624	23.225642	0.000446	4.458619	1.510621	-0.000179
 831	8.2585e+01	6.9126	23.136825	0.000223	2.229310	0.755311	-0.000089
 832	8.2684e+01	6.8854	23.015711	0.000304	3.039968	1.029969	-0.000122
 833	8.2784e+01	6.8404	22.922857	0.000233	2.330642	0.789643	-0.000093
 834	8.2883e+01	6.7939	22.733111	0.000476	4.762616	1.613618	-0.000191
 835	8.2983e+01	6.7602	22.652369	0.000203	2.026645	0.686646	-0.000081
 836	8.3082e+01	6.7330	22.539329	0.000284	2.837303	0.961304	-0.000114
 837	8.3182e+01	6.6768	22.430326	0.000274	2.735971	0.926972	-0.000110
 838	8.3281e+01	6.6351	22.341509	0.000223	2.229310	0.755311	-0.000089
 839	8.3381e+01	6.5998	22.188098	0.000385	3.850626	1.304627	-0.000154
 840	8.3481e+01	6.5581	22.091207	0.000243	2.431974	0.823975	-0.000097
 841	8.3580e+01	6.5148	21.933758	0.000395	3.951958	1.338960	-0.000158
 842	8.3680e+01	6.4811	21.840904	0.000233	2.330642	0.789643	-0.000093
 843	8.3779e+01	6.4378	21.731902	0.000274	2.735971	0.926972	-0.000110
 844	8.3879e+01	6.4041	21.574453	0.000395	3.951958	1.338960	-0.000158
 845	8.3978e+01	6.3592	21.473525	0.000253	2.533306	0.858307	-0.000101
 846	8.4078e+01	6.3255	21.376634	0.000243	2.431974	0.823975	-0.000097
 847	8.4177e+01	6.2838	21.227260	0.000375	3.749294	1.270295	-0.000150
 848	8.4276e+01	6.2485	21.134406	0.000233	2.330642	0.789643	-0.000093
 849	8.4376e+01	6.2052	21.017329	0.000294	2.938635	0.995637	-0.000118
 850	8.4475e+01	6.1635	20.884103	0.000334	3.343965	1.132966	-0.000134
 851	8.4575e+01	6.1234	20.775101	0.000274	2.735971	0.926972	-0.000110
 852	8.4674e+01	6.0800	20.666098	0.000274	2.735971	0.926972	-0.000110
 853	8.4774e+01	6.0415	20.524798	0.000355	3.546629	1.201630	-0.000142
 854	8.4874e+01	6.0062	20.407721	0.000294	2.938635	0.995637	-0.000118
 855	8.4973e+01	5.9581	20.314867	0.000233	2.330642	0.789643	-0.000093
 856	8.5073e+01	5.9244	20.197790	0.000294	2.938635	0.995637	-0.000118
 857	8.5172e+01	5.8891	20.084750	0.000284	2.837303	0.961304	-0.000114
 858	8.5272e+01	5.8458	19.907116	0.000446	4.458619	1.510621	-0.000179
 859	8.5371e+01	5.8089	19.842522	0.000162	1.621316	0.549317	-0.000065
 860	8.5471e+01	5.7656	19.765817	0.000193	1.925313	0.652314	-0.000077
 861	8.5570e+01	5.7239	19.644703	0.000304	3.039968	1.029969	-0.000122
 862	8.5669e+01	5.6902	19.487254	0.000395	3.951958	1.338960	-0.000158
 863	8.5769e+01	5.6469	19.382289	0.000263	2.634639	0.892640	-0.000105
 864	8.5868e+01	5.6036	19.257137	0.000314	3.141300	1.064301	-0.000126
 865	8.5968e+01	5.5651	19.184469	0.000182	1.823981	0.617981	-0.000073
 866	8.6067e+01	5.5218	19.031058	0.000385	3.850626	1.304627	-0.000154
 867	8.6167e+01	5.4929	18.962427	0.000172	1.722648	0.583649	-0.000069
 868	8.6266e+01	5.4512	18.772681	0.000476	4.762616	1.613618	-0.000191
 869	8.6366e+01	5.4111	18.639456	0.000334	3.343965	1.132966	-0.000134
 870	8.6466e+01	5.3678	18.570824	0.000172	1.722648	0.583649	-0.000069
 871	8.6565e+01	5.3196	18.429525	0.000355	3.546629	1.201630	-0.000142
 872	8.6665e+01	5.2876	18.316485	0.000284	2.837303	0.961304	-0.000114
 873	8.6764e+01	5.2458	18.203445	0.000284	2.837303	0.961304	-0.000114
 874	8.6864e+01	5.2025	18.098480	0.000263	2.634639	0.892640	-0.000105
 875	8.6963e+01	5.1560	17.977365	0.000304	3.039968	1.029969	-0.000122
 876	8.7063e+01	5.1143	17.836066	0.000355	3.546629	1.201630	-0.000142
 877	8.7162e+01	5.0902	17.739174	0.000243	2.431974	0.823975	-0.000097
 878	8.7261e+01	5.0421	17.614023	0.000314	3.141300	1.064301	-0.000126
 879	8.7361e+01	5.0036	17.456575	0.000395	3.951958	1.338960	-0.000158
 880	8.7460e+01	4.9715	17.363721	0.000233	2.330642	0.789643	-0.000093
 881	8.7560e+01	4.9218	17.274904	0.000223	2.229310	0.755311	-0.000089
 882	8.7659e+01	4.8817	17.149753	0.000314	3.141300	1.064301	-0.000126
 883	8.7759e+01	4.8448	17.000379	0.000375	3.749294	1.270295	-0.000150
 884	8.7859e+01	4.8079	16.935784	0.000162	1.621316	0.549317	-0.000065
 885	8.7958e+01	4.7662	16.770262	0.000415	4.154623	1.407624	-0.000166
 886	8.8058e+01	4.7277	16.701631	0.000172	1.722648	0.583649	-0.000069
 887	8.8157e+01	4.6828	16.532071	0.000426	4.255955	1.441957	-0.000170
 888	8.8257e+01	4.6443	16.451328	0.000203	2.026645	0.686646	-0.000081
 889	8.8356e+01	4.6058	16.354437	0.000243	2.431974	0.823975	-0.000097
 890	8.8456e+01	4.5705	16.201026	0.000385	3.850626	1.304627	-0.000154
 891	8.8555e+01	4.5320	16.063763	0.000345	3.445297	1.167298	-0.000138
 892	8.8654e+01	4.4919	15.934575	0.000324	3.242632	1.098634	-0.000130
 893	8.8754e+01	4.4550	15.845758	0.000223	2.229310	0.755311	-0.000089
 894	8.8853e+01	4.4020	15.712532	0.000334	3.343965	1.132966	-0.000134
 895	8.8953e+01	4.3667	15.591418	0.000304	3.039968	1.029969	-0.000122
 896	8.9052e+01	4.3330	15.490490	0.000253	2.533306	0.858307	-0.000101
 897	8.9152e+01	4.2849	15.361301	0.000324	3.242632	1.098634	-0.000130
 898	8.9251e+01	4.2464	15.220002	0.000355	3.546629	1.201630	-0.000142
 899	8.9351e+01	4.2063	15.086776	0.000334	3.343965	1.132966	-0.000134
 900	8.9451e+01	4.1710	15.001996	0.000213	2.127977	0.720978	-0.000085
 901	8.9550e+01	4.1245	14.901068	0.000253	2.533306	0.858307	-0.000101
 902	8.9650e+01	4.0844	14.735545	0.000415	4.154623	1.407624	-0.000166
 903	8.9749e+01	4.0539	14.622506	0.000284	2.837303	0.961304	-0.000114
 904	8.9849e+01	4.0170	14.517540	0.000263	2.634639	0.892640	-0.000105
 905	8.9948e+01	3.9592	14.408537	0.000274	2.735971	0.926972	-0.000110
 906	9.0047e+01	3.9256	14.267238	0.000355	3.546629	1.201630	-0.000142
 907	9.0147e+01	3.8903	14.142086	0.000314	3.141300	1.064301	-0.000126
 908	9.0246e+01	3.8486	14.045195	0.000243	2.431974	0.823975	-0.000097
 909	9.0346e+01	3.8117	13.932155	0.000284	2.837303	0.961304	-0.000114
 910	9.0445e+01	3.7732	13.762596	0.000426	4.255955	1.441957	-0.000170
 911	9.0545e+01	3.7314	13.698002	0.000162	1.621316	0.549317	-0.000065
 912	9.0644e+01	3.6881	13.544590	0.000385	3.850626	1.304627	-0.000154
 913	9.0744e+01	3.6464	13.435588	0.000274	2.735971	0.926972	-0.000110
 914	9.0844e+01	3.6111	13.310437	0.000314	3.141300	1.064301	-0.000126
 915	9.0943e+01	3.5790	13.209508	0.000253	2.533306	0.858307	-0.000101
 916	9.1043e+01	3.5373	13.084357	0.000314	3.141300	1.064301	-0.000126
 917	9.1142e+01	3.4908	12.983429	0.000253	2.533306	0.858307	-0.000101
 918	9.1242e+01	3.4555	12.838092	0.000365	3.647961	1.235963	-0.000146
 919	9.1341e+01	3.4266	12.716978	0.000304	3.039968	1.029969	-0.000122
 920	9.1441e+01	3.3689	12.587789	0.000324	3.242632	1.098634	-0.000130
 921	9.1540e+01	3.3336	12.498972	0.000223	2.229310	0.755311	-0.000089
 922	9.1639e+01	3.2935	12.341524	0.000395	3.951958	1.338960	-0.000158
 923	9.1739e+01	3.2534	12.244633	0.000243	2.431974	0.823975	-0.000097
 924	9.1838e+01	3.2197	12.131593	0.000284	2.837303	0.961304	-0.000114
 925	9.1938e+01	3.1828	12.014516	0.000294	2.938635	0.995637	-0.000118
 926	9.2037e+01	3.1395	11.897439	0.000294	2.938635	0.995637	-0.000118
 927	9.2137e+01	3.0865	11.788436	0.000274	2.735971	0.926972	-0.000110
 928	9.2237e+01	3.0577	11.618877	0.000426	4.255955	1.441957	-0.000170
 929	9.2336e+01	3.0224	11.481614	0.000345	3.445297	1.167298	-0.000138
 930	9.2436e+01	2.9694	11.388760	0.000233	2.330642	0.789643	-0.000093
 931	9.2535e+01	2.9422	11.231312	0.000395	3.951958	1.338960	-0.000158
 932	9.2635e+01	2.8956	11.118272	0.000284	2.837303	0.961304	-0.000114
 933	9.2734e+01	2.8571	11.001195	0.000294	2.938635	0.995637	-0.000118
 934	9.2834e+01	2.8202	10.888155	0.000284	2.837303	0.961304	-0.000114
 935	9.2933e+01	2.7705	10.771078	0.000294	2.938635	0.995637	-0.000118
 936	9.3032e+01	2.7400	10.629778	0.000355	3.546629	1.201630	-0.000142
 937	9.3132e+01	2.7031	10.488479	0.000355	3.546629	1.201630	-0.000142
 938	9.3231e+01	2.6534	10.371402	0.000294	2.938635	0.995637	-0.000118
 939	9.3331e+01	2.6149	10.217991	0.000385	3.850626	1.304627	-0.000154
 940	9.3430e+01	2.5748	10.145322	0.000182	1.823981	0.617981	-0.000073
 941	9.3530e+01	2.5411	9.987874	0.000395	3.951958	1.338960	-0.000158
 942	9.3629e+01	2.4898	9.870797	0.000294	2.938635	0.995637	-0.000118
 943	9.3729e+01	2.4577	9.725460	0.000365	3.647961	1.235963	-0.000146
 944	9.3829e+01	2.4240	9.604346	0.000304	3.039968	1.029969	-0.000122
 945	9.3928e+01	2.3839	9.495343	0.000274	2.735971	0.926972	-0.000110
 946	9.4028e+01	2.3261	9.325784	0.000426	4.255955	1.441957	-0.000170
 947	9.4127e+01	2.2957	9.220818	0.000263	2.634639	0.892640	-0.000105
 948	9.4227e+01	2.2507	9.055295	0.000415	4.154623	1.407624	-0.000166
 949	9.4326e+01	2.2267	8.938219	0.000294	2.938635	0.995637	-0.000118
 950	9.4425e+01	2.1818	8.821142	0.000294	2.938635	0.995637	-0.000118
 951	9.4525e+01	2.1336	8.655619	0.000415	4.154623	1.407624	-0.000166
 952	9.4624e+01	2.0951	8.562765	0.000233	2.330642	0.789643	-0.000093
 953	9.4724e+01	2.0566	8.437614	0.000314	3.141300	1.064301	-0.000126
 954	9.4823e+01	2.0133	8.308425	0.000324	3.242632	1.098634	-0.000130
 955	9.4923e+01	1.9796	8.142903	0.000415	4.154623	1.407624	-0.000166
 956	9.5022e+01	1.9443	8.046012	0.000243	2.431974	0.823975	-0.000097
 957	9.5122e+01	1.8978	7.908749	0.000345	3.445297	1.167298	-0.000138
 958	9.5222e+01	1.8497	7.775523	0.000334	3.343965	1.132966	-0.000134
 959	9.5321e+01	1.8208	7.662484	0.000284	2.837303	0.961304	-0.000114
 960	9.5421e+01	1.7791	7.496961	0.000415	4.154623	1.407624	-0.000166
 961	9.5520e+01	1.7422	7.355661	0.000355	3.546629	1.201630	-0.000142
 962	9.5620e+01	1.7037	7.214362	0.000355	3.546629	1.201630	-0.000142
 963	9.5719e+01	1.6572	7.109396	0.000263	2.634639	0.892640	-0.000105
 964	9.5819e+01	1.6235	6.980208	0.000324	3.242632	1.098634	-0.000130
 965	9.5918e+01	1.5834	6.842945	0.000345	3.445297	1.167298	-0.000138
 966	9.6017e+01	1.5465	6.693571	0.000375	3.749294	1.270295	-0.000150
 967	9.6117e+01	1.4919	6.572457	0.000304	3.039968	1.029969	-0.000122
 968	9.6216e+01	1.4566	6.439232	0.000334	3.343965	1.132966	-0.000134
 969	9.6316e+01	1.4117	6.318117	0.000304	3.039968	1.029969	-0.000122
 970	9.6415e+01	1.3828	6.160669	0.000395	3.951958	1.338960	-0.000158
 971	9.6515e+01	1.3395	6.063778	0.000243	2.431974	0.823975	-0.000097
 972	9.6615e+01	1.2914	5.906330	0.000395	3.951958	1.338960	-0.000158
 973	9.6714e+01	1.2625	5.777141	0.000324	3.242632	1.098634	-0.000130
 974	9.6814e+01	1.2256	5.627767	0.000375	3.749294	1.270295	-0.000150
 975	9.6913e+01	1.1791	5.547025	0.000203	2.026645	0.686646	-0.000081
 976	9.7013e+01	1.1358	5.389576	0.000395	3.951958	1.338960	-0.000158
 977	9.7112e+01	1.1005	5.244239	0.000365	3.647961	1.235963	-0.000146
 978	9.7212e+01	1.0556	5.106977	0.000345	3.445297	1.167298	-0.000138
 979	9.7311e+01	1.0203	4.981826	0.000314	3.141300	1.064301	-0.000126
 980	9.7410e+01	0.9802	4.852637	0.000324	3.242632	1.098634	-0.000130
 981	9.7510e+01	0.9449	4.727486	0.000314	3.141300	1.064301	-0.000126
 982	9.7609e+01	0.9032	4.545815	0.000456	4.559952	1.544953	-0.000183
 983	9.7709e+01	0.8583	4.412589	0.000334	3.343965	1.132966	-0.000134
 984	9.7808e+01	0.8150	4.287438	0.000314	3.141300	1.064301	-0.000126
 985	9.7908e+01	0.7716	4.129990	0.000395	3.951958	1.338960	-0.000158
 986	9.8007e+01	0.7444	4.000802	0.000324	3.242632	1.098634	-0.000130
 987	9.8107e+01	0.6978	3.855465	0.000365	3.647961	1.235963	-0.000146
 988	9.8207e+01	0.6706	3.742425	0.000284	2.837303	0.961304	-0.000114
 989	9.8306e+01	0.6208	3.601125	0.000355	3.546629	1.201630	-0.000142
 990	9.8406e+01	0.5759	3.504234	0.000243	2.431974	0.823975	-0.000097
 991	9.8505e+01	0.5438	3.342748	0.000405	4.053290	1.373292	-0.000162
 992	9.8605e+01	0.5085	3.213560	0.000324	3.242632	1.098634	-0.000130
 993	9.8704e+01	0.4668	3.056112	0.000395	3.951958	1.338960	-0.000158
 994	9.8803e+01	0.4251	2.922886	0.000334	3.343965	1.132966	-0.000134
 995	9.8903e+01	0.3722	2.765438	0.000395	3.951958	1.338960	-0.000158
 996	9.9002e+01	0.3417	2.640287	0.000314	3.141300	1.064301	-0.000126
 997	9.9102e+01	0.3000	2.498987	0.000355	3.546629	1.201630	-0.000142
 998	9.9201e+01	0.2647	2.369799	0.000324	3.242632	1.098634	-0.000130
 999	9.9301e+01	0.2182	2.220425	0.000375	3.749294	1.270295	-0.000150
1000	9.9400e+01	0.1797	2.091236	0.000324	3.242632	1.098634	-0.000130
1001	9.9500e+01	0.1492	1.962048	0.000324	3.242632	1.098634	-0.000130
1002	9.9600e+01	0.1011	1.808637	0.000385	3.850626	1.304627	-0.000154
1003	9.9699e+01	0.0578	1.683486	0.000314	3.141300	1.064301	-0.000126
1004	9.9799e+01	0.0241	1.501814	0.000456	4.559952	1.544953	-0.000183
1005	9.9898e+01	-0.0032	1.453369	0.000122	1.215987	0.411988	-0.000049
1006	9.9998e+01	-0.0417	1.291883	0.000405	4.053290	1.373292	-0.000162
1007	1.0010e+02	-0.1011	1.178844	0.000284	2.837303	0.961304	-0.000114
1008	1.0020e+02	-0.1348	1.017358	0.000405	4.053290	1.373292	-0.000162
1009	1.0030e+02	-0.1620	0.839724	0.000446	4.458619	1.510621	-0.000179
1010	1.0040e+02	-0.2086	0.738796	0.000253	2.533306	0.858307	-0.000101
1011	1.0050e+02	-0.2454	0.581348	0.000395	3.951958	1.338960	-0.000158
1012	1.0059e+02	-0.2775	0.436011	0.000365	3.647961	1.235963	-0.000146
1013	1.0069e+02	-0.3289	0.306822	0.000324	3.242632	1.098634	-0.000130
1014	1.0079e+02	-0.3674	0.201857	0.000263	2.634639	0.892640	-0.000105
1015	1.0089e+02	-0.4091	0.080743	0.000304	3.039968	1.029969	-0.000122
1016	1.0099e+02	-0.4460	-0.064594	0.000365	3.647961	1.235963	-0.000146
1017	1.0109e+02	-0.4925	-0.197820	0.000334	3.343965	1.132966	-0.000134
1018	1.0119e+02	-0.5294	-0.347194	0.000375	3.749294	1.270295	-0.000150
1019	1.0129e+02	-0.5631	-0.476382	0.000324	3.242632	1.098634	-0.000130
1020	1.0139e+02	-0.6128	-0.617682	0.000355	3.546629	1.201630	-0.000142
1021	1.0149e+02	-0.6465	-0.763019	0.000365	3.647961	1.235963	-0.000146
1022	1.0159e+02	-0.6850	-0.888170	0.000314	3.141300	1.064301	-0.000126
1023	1.0169e+02	-0.7251	-1.009284	0.000304	3.039968	1.029969	-0.000122
1024	1.0179e+02	-0.7556	-1.154621	0.000365	3.647961	1.235963	-0.000146
1025	1.0189e+02	-0.8053	-1.291883	0.000345	3.445297	1.167298	-0.000138
1026	1.0199e+02	-0.8486	-1.429146	0.000345	3.445297	1.167298	-0.000138
1027	1.0209e+02	-0.8839	-1.590631	0.000405	4.053290	1.373292	-0.000162
1028	1.0219e+02	-0.9289	-1.691560	0.000253	2.533306	0.858307	-0.000101
1029	1.0229e+02	-0.9625	-1.816711	0.000314	3.141300	1.064301	-0.000126
1030	1.0239e+02	-1.0091	-1.953974	0.000345	3.445297	1.167298	-0.000138
1031	1.0248e+02	-1.0508	-2.091236	0.000345	3.445297	1.167298	-0.000138
1032	1.0258e+02	-1.0845	-2.244647	0.000385	3.850626	1.304627	-0.000154
1033	1.0268e+02	-1.1230	-2.369799	0.000314	3.141300	1.064301	-0.000126
1034	1.0278e+02	-1.1615	-2.466690	0.000243	2.431974	0.823975	-0.000097
1035	1.0288e+02	-1.2048	-2.612027	0.000365	3.647961	1.235963	-0.000146
1036	1.0298e+02	-1.2465	-2.761401	0.000375	3.749294	1.270295	-0.000150
1037	1.0308e+02	-1.2786	-2.838106	0.000193	1.925313	0.652314	-0.000077
1038	1.0318e+02	-1.3203	-3.015740	0.000446	4.458619	1.510621	-0.000179
1039	1.0328e+02	-1.3604	-3.161077	0.000365	3.647961	1.235963	-0.000146
1040	1.0338e+02	-1.4069	-3.257969	0.000243	2.431974	0.823975	-0.000097
1041	1.0348e+02	-1.4406	-3.407343	0.000375	3.749294	1.270295	-0.000150
1042	1.0358e+02	-1.4727	-3.536531	0.000324	3.242632	1.098634	-0.000130
1043	1.0368e+02	-1.5288	-3.714165	0.000446	4.458619	1.510621	-0.000179
1044	1.0378e+02	-1.5609	-3.798945	0.000213	2.127977	0.720978	-0.000085
1045	1.0388e+02	-1.6106	-3.940244	0.000355	3.546629	1.201630	-0.000142
1046	1.0398e+02	-1.6443	-4.049247	0.000274	2.735971	0.926972	-0.000110
1047	1.0408e+02	-1.6893	-4.210733	0.000405	4.053290	1.373292	-0.000162
1048	1.0418e+02	-1.7278	-4.307624	0.000243	2.431974	0.823975	-0.000097
1049	1.0428e+02	-1.7679	-4.444886	0.000345	3.445297	1.167298	-0.000138
1050	1.0438e+02	-1.7951	-4.586186	0.000355	3.546629	1.201630	-0.000142
1051	1.0447e+02	-1.8465	-4.675003	0.000223	2.229310	0.755311	-0.000089
1052	1.0457e+02	-1.8834	-4.824377	0.000375	3.749294	1.270295	-0.000150
1053	1.0467e+02	-1.9251	-4.965677	0.000355	3.546629	1.201630	-0.000142
1054	1.0477e+02	-1.9556	-5.074680	0.000274	2.735971	0.926972	-0.000110
1055	1.0487e+02	-2.0069	-5.224054	0.000375	3.749294	1.270295	-0.000150
1056	1.0497e+02	-2.0406	-5.337093	0.000284	2.837303	0.961304	-0.000114
1057	1.0507e+02	-2.0791	-5.486467	0.000375	3.749294	1.270295	-0.000150
1058	1.0517e+02	-2.1304	-5.611619	0.000314	3.141300	1.064301	-0.000126
1059	1.0527e+02	-2.1529	-5.728696	0.000294	2.938635	0.995637	-0.000118
1060	1.0537e+02	-2.1978	-5.886144	0.000395	3.951958	1.338960	-0.000158
1061	1.0547e+02	-2.2395	-5.974961	0.000223	2.229310	0.755311	-0.000089
1062	1.0557e+02	-2.2860	-6.136446	0.000405	4.053290	1.373292	-0.000162
1063	1.0567e+02	-2.3245	-6.277746	0.000355	3.546629	1.201630	-0.000142
1064	1.0577e+02	-2.3582	-6.346377	0.000172	1.722648	0.583649	-0.000069
1065	1.0587e+02	-2.4031	-6.495751	0.000375	3.749294	1.270295	-0.000150
1066	1.0597e+02	-2.4497	-6.624940	0.000324	3.242632	1.098634	-0.000130
1067	1.0607e+02	-2.4850	-6.746054	0.000304	3.039968	1.029969	-0.000122
1068	1.0617e+02	-2.5138	-6.846982	0.000253	2.533306	0.858307	-0.000101
1069	1.0627e+02	-2.5620	-6.984245	0.000345	3.445297	1.167298	-0.000138
1070	1.0637e+02	-2.6021	-7.129582	0.000365	3.647961	1.235963	-0.000146
1071	1.0647e+02	-2.6358	-7.295104	0.000415	4.154623	1.407624	-0.000166
1072	1.0656e+02	-2.6839	-7.323364	0.000071	0.709326	0.240326	-0.000028
1073	1.0666e+02	-2.7176	-7.521184	0.000497	4.965281	1.682283	-0.000199
1074	1.0676e+02	-2.7593	-7.622112	0.000253	2.533306	0.858307	-0.000101
1075	1.0686e+02	-2.8058	-7.751301	0.000324	3.242632	1.098634	-0.000130
1076	1.0696e+02	-2.8427	-7.848192	0.000243	2.431974	0.823975	-0.000097
1077	1.0706e+02	-2.8812	-8.001603	0.000385	3.850626	1.304627	-0.000154
1078	1.0716e+02	-2.9037	-8.126754	0.000314	3.141300	1.064301	-0.000126
1079	1.0726e+02	-2.9566	-8.243831	0.000294	2.938635	0.995637	-0.000118
1080	1.0736e+02	-2.9983	-8.340722	0.000243	2.431974	0.823975	-0.000097
1081	1.0746e+02	-3.0368	-8.522394	0.000456	4.559952	1.544953	-0.000183
1082	1.0756e+02	-3.0737	-8.586988	0.000162	1.621316	0.549317	-0.000065
1083	1.0766e+02	-3.1186	-8.712139	0.000314	3.141300	1.064301	-0.000126
1084	1.0776e+02	-3.1571	-8.849402	0.000345	3.445297	1.167298	-0.000138
1085	1.0786e+02	-3.2037	-8.954367	0.000263	2.634639	0.892640	-0.000105
1086	1.0796e+02	-3.2357	-9.119890	0.000415	4.154623	1.407624	-0.000166
1087	1.0806e+02	-3.2758	-9.224855	0.000263	2.634639	0.892640	-0.000105
1088	1.0816e+02	-3.3224	-9.321746	0.000243	2.431974	0.823975	-0.000097
1089	1.0826e+02	-3.3641	-9.463046	0.000355	3.546629	1.201630	-0.000142
1090	1.0836e+02	-3.3946	-9.576086	0.000284	2.837303	0.961304	-0.000114
1091	1.0845e+02	-3.4347	-9.685089	0.000274	2.735971	0.926972	-0.000110
1092	1.0855e+02	-3.4764	-9.806203	0.000304	3.039968	1.029969	-0.000122
1093	1.0865e+02	-3.5197	-9.943465	0.000345	3.445297	1.167298	-0.000138
1094	1.0875e+02	-3.5534	-10.032282	0.000223	2.229310	0.755311	-0.000089
1095	1.0885e+02	-3.6015	-10.185693	0.000385	3.850626	1.304627	-0.000154
1096	1.0895e+02	-3.6320	-10.310845	0.000314	3.141300	1.064301	-0.000126
1097	1.0905e+02	-3.6721	-10.427922	0.000294	2.938635	0.995637	-0.000118
1098	1.0915e+02	-3.7090	-10.532887	0.000263	2.634639	0.892640	-0.000105
1099	1.0925e+02	-3.7523	-10.670150	0.000345	3.445297	1.167298	-0.000138
1100	1.0935e+02	-3.7908	-10.779152	0.000274	2.735971	0.926972	-0.000110
1101	1.0945e+02	-3.8357	-10.936601	0.000395	3.951958	1.338960	-0.000158
1102	1.0955e+02	-3.8646	-11.037529	0.000253	2.533306	0.858307	-0.000101
1103	1.0965e+02	-3.9191	-11.134420	0.000243	2.431974	0.823975	-0.000097
1104	1.0975e+02	-3.9544	-11.295906	0.000405	4.053290	1.373292	-0.000162
1105	1.0985e+02	-3.9865	-11.380686	0.000213	2.127977	0.720978	-0.000085
1106	1.0995e+02	-4.0427	-11.530060	0.000375	3.749294	1.270295	-0.000150
1107	1.1005e+02	-4.0667	-11.647137	0.000294	2.938635	0.995637	-0.000118
1108	1.1015e+02	-4.1100	-11.804585	0.000395	3.951958	1.338960	-0.000158
1109	1.1025e+02	-4.1453	-11.897439	0.000233	2.330642	0.789643	-0.000093
1110	1.1035e+02	-4.2015	-12.002405	0.000263	2.634639	0.892640	-0.000105
1111	1.1044e+02	-4.2320	-12.171964	0.000426	4.255955	1.441957	-0.000170
1112	1.1054e+02	-4.2801	-12.272893	0.000253	2.533306	0.858307	-0.000101
1113	1.1064e+02	-4.3122	-12.377858	0.000263	2.634639	0.892640	-0.000105
1114	1.1074e+02	-4.3587	-12.470712	0.000233	2.330642	0.789643	-0.000093
1115	1.1084e+02	-4.3940	-12.595864	0.000314	3.141300	1.064301	-0.000126
1116	1.1094e+02	-4.4245	-12.741200	0.000365	3.647961	1.235963	-0.000146
1117	1.1104e+02	-4.4646	-12.866352	0.000314	3.141300	1.064301	-0.000126
1118	1.1114e+02	-4.5143	-13.003614	0.000345	3.445297	1.167298	-0.000138
1119	1.1124e+02	-4.5448	-13.092431	0.000223	2.229310	0.755311	-0.000089
1120	1.1134e+02	-4.5913	-13.261991	0.000426	4.255955	1.441957	-0.000170
1121	1.1144e+02	-4.6346	-13.358882	0.000243	2.431974	0.823975	-0.000097
1122	1.1154e+02	-4.6763	-13.479996	0.000304	3.039968	1.029969	-0.000122
1123	1.1164e+02	-4.7100	-13.613222	0.000334	3.343965	1.132966	-0.000134
1124	1.1174e+02	-4.7485	-13.706076	0.000233	2.330642	0.789643	-0.000093
1125	1.1184e+02	-4.7870	-13.831227	0.000314	3.141300	1.064301	-0.000126
1126	1.1194e+02	-4.8287	-13.948304	0.000294	2.938635	0.995637	-0.000118
1127	1.1204e+02	-4.8769	-14.073455	0.000314	3.141300	1.064301	-0.000126
1128	1.1214e+02	-4.9122	-14.230903	0.000395	3.951958	1.338960	-0.000158
1129	1.1224e+02	-4.9442	-14.315683	0.000213	2.127977	0.720978	-0.000085
1130	1.1234e+02	-4.9940	-14.456983	0.000355	3.546629	1.201630	-0.000142
1131	1.1244e+02	-5.0341	-14.590209	0.000334	3.343965	1.132966	-0.000134
1132	1.1253e+02	-5.0678	-14.699211	0.000274	2.735971	0.926972	-0.000110
1133	1.1263e+02	-5.1015	-14.836474	0.000345	3.445297	1.167298	-0.000138
1134	1.1273e+02	-5.1480	-14.949514	0.000284	2.837303	0.961304	-0.000114
1135	1.1283e+02	-5.1929	-15.046405	0.000243	2.431974	0.823975	-0.000097
1136	1.1293e+02	-5.2314	-15.211927	0.000415	4.154623	1.407624	-0.000166
1137	1.1303e+02	-5.2651	-15.308819	0.000243	2.431974	0.823975	-0.000097
1138	1.1313e+02	-5.3068	-15.425896	0.000294	2.938635	0.995637	-0.000118
1139	1.1323e+02	-5.3501	-15.514713	0.000223	2.229310	0.755311	-0.000089
1140	1.1333e+02	-5.3854	-15.643901	0.000324	3.242632	1.098634	-0.000130
1141	1.1343e+02	-5.4271	-15.797312	0.000385	3.850626	1.304627	-0.000154
1142	1.1353e+02	-5.4736	-15.910352	0.000284	2.837303	0.961304	-0.000114
1143	1.1363e+02	-5.5089	-16.023392	0.000284	2.837303	0.961304	-0.000114
1144	1.1373e+02	-5.5458	-16.152580	0.000324	3.242632	1.098634	-0.000130
1145	1.1383e+02	-5.5940	-16.269657	0.000294	2.938635	0.995637	-0.000118
1146	1.1393e+02	-5.6293	-16.398845	0.000324	3.242632	1.098634	-0.000130
1147	1.1403e+02	-5.6678	-16.519959	0.000304	3.039968	1.029969	-0.000122
1148	1.1413e+02	-5.7079	-16.669333	0.000375	3.749294	1.270295	-0.000150
1149	1.1423e+02	-5.7496	-16.742002	0.000182	1.823981	0.617981	-0.000073
1150	1.1433e+02	-5.7881	-16.907524	0.000415	4.154623	1.407624	-0.000166
1151	1.1442e+02	-5.8250	-16.968082	0.000152	1.519984	0.514984	-0.000061
1152	1.1452e+02	-5.8635	-17.137641	0.000426	4.255955	1.441957	-0.000170
1153	1.1462e+02	-5.9052	-17.250681	0.000284	2.837303	0.961304	-0.000114
1154	1.1472e+02	-5.9421	-17.339498	0.000223	2.229310	0.755311	-0.000089
1155	1.1482e+02	-5.9918	-17.452538	0.000284	2.837303	0.961304	-0.000114
1156	1.1492e+02	-6.0207	-17.577689	0.000314	3.141300	1.064301	-0.000126
1157	1.1502e+02	-6.0704	-17.702840	0.000314	3.141300	1.064301	-0.000126
1158	1.1512e+02	-6.1105	-17.815880	0.000284	2.837303	0.961304	-0.000114
1159	1.1522e+02	-6.1426	-17.932957	0.000294	2.938635	0.995637	-0.000118
1160	1.1532e+02	-6.1891	-18.090405	0.000395	3.951958	1.338960	-0.000158
1161	1.1542e+02	-6.2324	-18.215556	0.000314	3.141300	1.064301	-0.000126
1162	1.1552e+02	-6.2693	-18.308411	0.000233	2.330642	0.789643	-0.000093
1163	1.1562e+02	-6.3078	-18.441636	0.000334	3.343965	1.132966	-0.000134
1164	1.1572e+02	-6.3431	-18.534490	0.000233	2.330642	0.789643	-0.000093
1165	1.1582e+02	-6.3881	-18.691938	0.000395	3.951958	1.338960	-0.000158
1166	1.1592e+02	-6.4185	-18.796904	0.000263	2.634639	0.892640	-0.000105
1167	1.1602e+02	-6.4651	-18.909944	0.000284	2.837303	0.961304	-0.000114
1168	1.1612e+02	-6.5084	-19.035095	0.000314	3.141300	1.064301	-0.000126
1169	1.1622e+02	-6.5437	-19.152172	0.000294	2.938635	0.995637	-0.000118
1170	1.1632e+02	-6.5790	-19.289435	0.000345	3.445297	1.167298	-0.000138
1171	1.1642e+02	-6.6191	-19.422660	0.000334	3.343965	1.132966	-0.000134
1172	1.1651e+02	-6.6656	-19.523588	0.000253	2.533306	0.858307	-0.000101
1173	1.1661e+02	-6.6961	-19.632591	0.000274	2.735971	0.926972	-0.000110
1174	1.1671e+02	-6.7330	-19.818299	0.000466	4.661284	1.579286	-0.000187
1175	1.1681e+02	-6.7827	-19.850596	0.000081	0.810658	0.274658	-0.000032
1176	1.1691e+02	-6.8244	-19.995933	0.000365	3.647961	1.235963	-0.000146
1177	1.1701e+02	-6.8565	-20.108973	0.000284	2.837303	0.961304	-0.000114
1178	1.1711e+02	-6.8950	-20.238161	0.000324	3.242632	1.098634	-0.000130
1179	1.1721e+02	-6.9399	-20.339090	0.000253	2.533306	0.858307	-0.000101
1180	1.1731e+02	-6.9816	-20.492501	0.000385	3.850626	1.304627	-0.000154
1181	1.1741e+02	-7.0169	-20.557095	0.000162	1.621316	0.549317	-0.000065
1182	1.1751e+02	-7.0538	-20.682246	0.000314	3.141300	1.064301	-0.000126
1183	1.1761e+02	-7.0955	-20.811435	0.000324	3.242632	1.098634	-0.000130
1184	1.1771e+02	-7.1372	-20.932549	0.000304	3.039968	1.029969	-0.000122
1185	1.1781e+02	-7.1838	-21.001180	0.000172	1.722648	0.583649	-0.000069
1186	1.1791e+02	-7.2255	-21.154591	0.000385	3.850626	1.304627	-0.000154
1187	1.1801e+02	-7.2640	-21.271668	0.000294	2.938635	0.995637	-0.000118
1188	1.1811e+02	-7.2928	-21.396819	0.000314	3.141300	1.064301	-0.000126
1189	1.1821e+02	-7.3329	-21.509859	0.000284	2.837303	0.961304	-0.000114
1190	1.1831e+02	-7.3795	-21.626936	0.000294	2.938635	0.995637	-0.000118
1191	1.1841e+02	-7.4244	-21.739976	0.000284	2.837303	0.961304	-0.000114
1192	1.1850e+02	-7.4549	-21.848979	0.000274	2.735971	0.926972	-0.000110
1193	1.1860e+02	-7.4966	-22.002390	0.000385	3.850626	1.304627	-0.000154
1194	1.1870e+02	-7.5399	-22.066984	0.000162	1.621316	0.549317	-0.000065
1195	1.1880e+02	-7.5800	-22.228469	0.000405	4.053290	1.373292	-0.000162
1196	1.1890e+02	-7.6089	-22.284989	0.000142	1.418652	0.480652	-0.000057
1197	1.1900e+02	-7.6666	-22.418215	0.000334	3.343965	1.132966	-0.000134
1198	1.1910e+02	-7.7019	-22.551440	0.000334	3.343965	1.132966	-0.000134
1199	1.1920e+02	-7.7388	-22.656406	0.000263	2.634639	0.892640	-0.000105
1200	1.1930e+02	-7.7805	-22.793668	0.000345	3.445297	1.167298	-0.000138
1201	1.1940e+02	-7.8126	-22.858263	0.000162	1.621316	0.549317	-0.000065
1202	1.1950e+02	-7.8607	-22.951117	0.000233	2.330642	0.789643	-0.000093
1203	1.1960e+02	-7.8976	-23.100491	0.000375	3.749294	1.270295	-0.000150
1204	1.1970e+02	-7.9458	-23.193345	0.000233	2.330642	0.789643	-0.000093
1205	1.1980e+02	-7.9746	-23.274088	0.000203	2.026645	0.686646	-0.000081
1206	1.1990e+02	-8.0115	-23.439610	0.000415	4.154623	1.407624	-0.000166
1207	1.2000e+02	-8.0581	-23.528427	0.000223	2.229310	0.755311	-0.000089
1208	1.2010e+02	-8.0982	-23.661653	0.000334	3.343965	1.132966	-0.000134
1209	1.2020e+02	-8.1351	-23.718172	0.000142	1.418652	0.480652	-0.000057
1210	1.2030e+02	-8.1784	-23.835249	0.000294	2.938635	0.995637	-0.000118
1211	1.2039e+02	-8.2137	-23.988661	0.000385	3.850626	1.304627	-0.000154
1212	1.2049e+02	-8.2570	-24.109775	0.000304	3.039968	1.029969	-0.000122
1213	1.2059e+02	-8.3003	-24.194554	0.000213	2.127977	0.720978	-0.000085
1214	1.2069e+02	-8.3292	-24.319706	0.000314	3.141300	1.064301	-0.000126
1215	1.2079e+02	-8.3757	-24.384300	0.000162	1.621316	0.549317	-0.000065
1216	1.2089e+02	-8.4110	-24.505414	0.000304	3.039968	1.029969	-0.000122
1217	1.2099e+02	-8.4623	-24.614417	0.000274	2.735971	0.926972	-0.000110
1218	1.2109e+02	-8.4912	-24.751679	0.000345	3.445297	1.167298	-0.000138
1219	1.2119e+02	-8.5409	-24.856645	0.000263	2.634639	0.892640	-0.000105
1220	1.2129e+02	-8.5875	-24.941425	0.000213	2.127977	0.720978	-0.000085
1221	1.2139e+02	-8.6147	-25.050427	0.000274	2.735971	0.926972	-0.000110
1222	1.2149e+02	-8.6548	-25.187690	0.000345	3.445297	1.167298	-0.000138
1223	1.2159e+02	-8.6885	-25.276507	0.000223	2.229310	0.755311	-0.000089
1224	1.2169e+02	-8.7350	-25.405695	0.000324	3.242632	1.098634	-0.000130
1225	1.2179e+02	-8.7703	-25.510661	0.000263	2.634639	0.892640	-0.000105
1226	1.2189e+02	-8.8137	-25.603515	0.000233	2.330642	0.789643	-0.000093
1227	1.2199e+02	-8.8489	-25.765000	0.000405	4.053290	1.373292	-0.000162
1228	1.2209e+02	-8.8874	-25.861892	0.000243	2.431974	0.823975	-0.000097
1229	1.2219e+02	-8.9388	-25.954746	0.000233	2.330642	0.789643	-0.000093
1230	1.2229e+02	-8.9741	-26.047600	0.000233	2.330642	0.789643	-0.000093
1231	1.2239e+02	-9.0126	-26.180825	0.000334	3.343965	1.132966	-0.000134
1232	1.2248e+02	-9.0607	-26.318088	0.000345	3.445297	1.167298	-0.000138
1233	1.2258e+02	-9.0944	-26.378645	0.000152	1.519984	0.514984	-0.000061
1234	1.2268e+02	-9.1265	-26.495722	0.000294	2.938635	0.995637	-0.000118
1235	1.2278e+02	-9.1714	-26.620873	0.000314	3.141300	1.064301	-0.000126
1236	1.2288e+02	-9.2147	-26.725839	0.000263	2.634639	0.892640	-0.000105
1237	1.2298e+02	-9.2532	-26.850990	0.000314	3.141300	1.064301	-0.000126
1238	1.2308e+02	-9.2997	-26.964030	0.000284	2.837303	0.961304	-0.000114
1239	1.2318e+02	-9.3350	-27.056884	0.000233	2.330642	0.789643	-0.000093
1240	1.2328e+02	-9.3671	-27.157812	0.000253	2.533306	0.858307	-0.000101
1241	1.2338e+02	-9.4120	-27.250666	0.000233	2.330642	0.789643	-0.000093
1242	1.2348e+02	-9.4473	-27.387929	0.000345	3.445297	1.167298	-0.000138
1243	1.2358e+02	-9.4906	-27.492894	0.000263	2.634639	0.892640	-0.000105
1244	1.2368e+02	-9.5243	-27.597860	0.000263	2.634639	0.892640	-0.000105
1245	1.2378e+02	-9.5612	-27.678603	0.000203	2.026645	0.686646	-0.000081
1246	1.2388e+02	-9.6126	-27.771457	0.000233	2.330642	0.789643	-0.000093
1247	1.2398e+02	-9.6495	-27.868348	0.000243	2.431974	0.823975	-0.000097
1248	1.2408e+02	-9.6928	-27.961202	0.000233	2.330642	0.789643	-0.000093
1249	1.2418e+02	-9.7361	-28.090390	0.000324	3.242632	1.098634	-0.000130
1250	1.2428e+02	-9.7682	-28.223616	0.000334	3.343965	1.132966	-0.000134
1251	1.2438e+02	-9.8099	-28.263987	0.000101	1.013323	0.343323	-0.000041
1252	1.2447e+02	-9.8452	-28.389139	0.000314	3.141300	1.064301	-0.000126
1253	1.2457e+02	-9.8885	-28.522364	0.000334	3.343965	1.132966	-0.000134
1254	1.2467e+02	-9.9302	-28.586958	0.000162	1.621316	0.549317	-0.000065
1255	1.2477e+02	-9.9735	-28.704035	0.000294	2.938635	0.995637	-0.000118
1256	1.2487e+02	-10.0136	-28.837261	0.000334	3.343965	1.132966	-0.000134
1257	1.2497e+02	-10.0666	-28.905892	0.000172	1.722648	0.583649	-0.000069
1258	1.2507e+02	-10.0922	-29.043154	0.000345	3.445297	1.167298	-0.000138
1259	1.2517e+02	-10.1307	-29.119860	0.000193	1.925313	0.652314	-0.000077
1260	1.2527e+02	-10.1708	-29.208677	0.000223	2.229310	0.755311	-0.000089
1261	1.2537e+02	-10.2142	-29.349977	0.000355	3.546629	1.201630	-0.000142
1262	1.2547e+02	-10.2575	-29.430720	0.000203	2.026645	0.686646	-0.000081
1263	1.2557e+02	-10.2767	-29.499351	0.000172	1.722648	0.583649	-0.000069
1264	1.2567e+02	-10.3345	-29.640651	0.000355	3.546629	1.201630	-0.000142
1265	1.2577e+02	-10.3698	-29.765802	0.000314	3.141300	1.064301	-0.000126
1266	1.2587e+02	-10.4034	-29.854619	0.000223	2.229310	0.755311	-0.000089
1267	1.2597e+02	-10.4532	-29.951510	0.000243	2.431974	0.823975	-0.000097
1268	1.2607e+02	-10.4853	-30.056476	0.000263	2.634639	0.892640	-0.000105
1269	1.2617e+02	-10.5254	-30.189701	0.000334	3.343965	1.132966	-0.000134
1270	1.2627e+02	-10.5735	-30.290629	0.000253	2.533306	0.858307	-0.000101
1271	1.2636e+02	-10.6024	-30.383484	0.000233	2.330642	0.789643	-0.000093
1272	1.2646e+02	-10.6537	-30.492486	0.000274	2.735971	0.926972	-0.000110
1273	1.2656e+02	-10.6954	-30.601489	0.000274	2.735971	0.926972	-0.000110
1274	1.2666e+02	-10.7259	-30.718566	0.000294	2.938635	0.995637	-0.000118
1275	1.2676e+02	-10.7740	-30.839680	0.000304	3.039968	1.029969	-0.000122
1276	1.2686e+02	-10.8093	-30.936571	0.000243	2.431974	0.823975	-0.000097
1277	1.2696e+02	-10.8494	-31.041537	0.000263	2.634639	0.892640	-0.000105
1278	1.2706e+02	-10.8847	-31.138428	0.000243	2.431974	0.823975	-0.000097
1279	1.2716e+02	-10.9280	-31.247431	0.000274	2.735971	0.926972	-0.000110
1280	1.2726e+02	-10.9681	-31.332210	0.000213	2.127977	0.720978	-0.000085
1281	1.2736e+02	-11.0050	-31.441213	0.000274	2.735971	0.926972	-0.000110
1282	1.2746e+02	-11.0467	-31.562327	0.000304	3.039968	1.029969	-0.000122
1283	1.2756e+02	-11.0949	-31.647107	0.000213	2.127977	0.720978	-0.000085
1284	1.2766e+02	-11.1270	-31.780333	0.000334	3.343965	1.132966	-0.000134
1285	1.2776e+02	-11.1623	-31.909521	0.000324	3.242632	1.098634	-0.000130
1286	1.2786e+02	-11.2104	-31.990264	0.000203	2.026645	0.686646	-0.000081
1287	1.2796e+02	-11.2473	-32.123489	0.000334	3.343965	1.132966	-0.000134
1288	1.2806e+02	-11.2794	-32.180009	0.000142	1.418652	0.480652	-0.000057
1289	1.2816e+02	-11.3211	-32.321309	0.000355	3.546629	1.201630	-0.000142
1290	1.2826e+02	-11.3692	-32.434349	0.000284	2.837303	0.961304	-0.000114
1291	1.2835e+02	-11.4045	-32.490868	0.000142	1.418652	0.480652	-0.000057
1292	1.2845e+02	-11.4462	-32.620057	0.000324	3.242632	1.098634	-0.000130
1293	1.2855e+02	-11.4831	-32.729059	0.000274	2.735971	0.926972	-0.000110
1294	1.2865e+02	-11.5248	-32.825951	0.000243	2.431974	0.823975	-0.000097
1295	1.2875e+02	-11.5681	-32.947065	0.000304	3.039968	1.029969	-0.000122
1296	1.2885e+02	-11.6034	-33.060105	0.000284	2.837303	0.961304	-0.000114
1297	1.2895e+02	-11.6435	-33.181219	0.000304	3.039968	1.029969	-0.000122
1298	1.2905e+02	-11.6756	-33.270036	0.000223	2.229310	0.755311	-0.000089
1299	1.2915e+02	-11.7285	-33.395187	0.000314	3.141300	1.064301	-0.000126
1300	1.2925e+02	-11.7574	-33.492078	0.000243	2.431974	0.823975	-0.000097
1301	1.2935e+02	-11.8072	-33.625304	0.000334	3.343965	1.132966	-0.000134
1302	1.2945e+02	-11.8376	-33.669712	0.000111	1.114655	0.377655	-0.000045
1303	1.2955e+02	-11.8745	-33.839272	0.000426	4.255955	1.441957	-0.000170
1304	1.2965e+02	-11.9259	-33.940200	0.000253	2.533306	0.858307	-0.000101
1305	1.2975e+02	-11.9628	-34.020943	0.000203	2.026645	0.686646	-0.000081
1306	1.2985e+02	-12.0013	-34.158205	0.000345	3.445297	1.167298	-0.000138
1307	1.2995e+02	-12.0414	-34.283357	0.000314	3.141300	1.064301	-0.000126
1308	1.3005e+02	-12.0879	-34.364099	0.000203	2.026645	0.686646	-0.000081
1309	1.3015e+02	-12.1216	-34.444842	0.000203	2.026645	0.686646	-0.000081
1310	1.3025e+02	-12.1665	-34.565956	0.000304	3.039968	1.029969	-0.000122
1311	1.3034e+02	-12.2114	-34.678996	0.000284	2.837303	0.961304	-0.000114
1312	1.3044e+02	-12.2355	-34.763776	0.000213	2.127977	0.720978	-0.000085
1313	1.3054e+02	-12.2852	-34.868741	0.000263	2.634639	0.892640	-0.000105
1314	1.3064e+02	-12.3125	-34.985818	0.000294	2.938635	0.995637	-0.000118
1315	1.3074e+02	-12.3686	-35.115007	0.000324	3.242632	1.098634	-0.000130
1316	1.3084e+02	-12.4023	-35.219972	0.000263	2.634639	0.892640	-0.000105
1317	1.3094e+02	-12.4440	-35.312826	0.000233	2.330642	0.789643	-0.000093
1318	1.3104e+02	-12.4857	-35.377420	0.000162	1.621316	0.549317	-0.000065
1319	1.3114e+02	-12.5114	-35.510646	0.000334	3.343965	1.132966	-0.000134
1320	1.3124e+02	-12.5660	-35.623686	0.000284	2.837303	0.961304	-0.000114
1321	1.3134e+02	-12.6012	-35.712503	0.000223	2.229310	0.755311	-0.000089
1322	1.3144e+02	-12.6333	-35.829580	0.000294	2.938635	0.995637	-0.000118
1323	1.3154e+02	-12.6734	-35.966842	0.000345	3.445297	1.167298	-0.000138
1324	1.3164e+02	-12.7296	-36.039511	0.000182	1.823981	0.617981	-0.000073
1325	1.3174e+02	-12.7713	-36.152551	0.000284	2.837303	0.961304	-0.000114
1326	1.3184e+02	-12.8034	-36.265590	0.000284	2.837303	0.961304	-0.000114
1327	1.3194e+02	-12.8387	-36.374593	0.000274	2.735971	0.926972	-0.000110
1328	1.3204e+02	-12.8836	-36.443224	0.000172	1.722648	0.583649	-0.000069
1329	1.3214e+02	-12.9253	-36.568376	0.000314	3.141300	1.064301	-0.000126
1330	1.3224e+02	-12.9590	-36.693527	0.000314	3.141300	1.064301	-0.000126
1331	1.3234e+02	-12.9943	-36.782344	0.000223	2.229310	0.755311	-0.000089
1332	1.3243e+02	-13.0280	-36.931718	0.000375	3.749294	1.270295	-0.000150
1333	1.3253e+02	-13.0729	-37.028609	0.000243	2.431974	0.823975	-0.000097
1334	1.3263e+02	-13.1082	-37.145686	0.000294	2.938635	0.995637	-0.000118
1335	1.3273e+02	-13.1579	-37.190094	0.000111	1.114655	0.377655	-0.000045
1336	1.3283e+02	-13.1948	-37.319283	0.000324	3.242632	1.098634	-0.000130
1337	1.3293e+02	-13.2526	-37.424248	0.000263	2.634639	0.892640	-0.000105
1338	1.3303e+02	-13.2766	-37.549399	0.000314	3.141300	1.064301	-0.000126
1339	1.3313e+02	-13.3264	-37.622068	0.000182	1.823981	0.617981	-0.000073
1340	1.3323e+02	-13.3633	-37.759331	0.000345	3.445297	1.167298	-0.000138
1341	1.3333e+02	-13.3953	-37.876407	0.000294	2.938635	0.995637	-0.000118
1342	1.3343e+02	-13.4322	-37.965224	0.000223	2.229310	0.755311	-0.000089
1343	1.3353e+02	-13.4740	-38.082301	0.000294	2.938635	0.995637	-0.000118
1344	1.3363e+02	-13.5141	-38.187267	0.000263	2.634639	0.892640	-0.000105
1345	1.3373e+02	-13.5461	-38.312418	0.000314	3.141300	1.064301	-0.000126
1346	1.3383e+02	-13.5959	-38.405272	0.000233	2.330642	0.789643	-0.000093
1347	1.3393e+02	-13.6360	-38.546572	0.000355	3.546629	1.201630	-0.000142
1348	1.3403e+02	-13.6729	-38.635389	0.000223	2.229310	0.755311	-0.000089
1349	1.3413e+02	-13.7210	-38.667686	0.000081	0.810658	0.274658	-0.000032
1350	1.3423e+02	-13.7467	-38.813023	0.000365	3.647961	1.235963	-0.000146
1351	1.3432e+02	-13.7916	-38.930100	0.000294	2.938635	0.995637	-0.000118
1352	1.3442e+02	-13.8445	-39.026991	0.000243	2.431974	0.823975	-0.000097
1353	1.3452e+02	-13.8654	-39.103697	0.000193	1.925313	0.652314	-0.000077
1354	1.3462e+02	-13.9103	-39.192514	0.000223	2.229310	0.755311	-0.000089
1355	1.3472e+02	-13.9520	-39.321702	0.000324	3.242632	1.098634	-0.000130
1356	1.3482e+02	-13.9921	-39.406482	0.000213	2.127977	0.720978	-0.000085
1357	1.3492e+02	-14.0354	-39.519522	0.000284	2.837303	0.961304	-0.000114
1358	1.3502e+02	-14.0707	-39.636599	0.000294	2.938635	0.995637	-0.000118
1359	1.3512e+02	-14.1092	-39.737527	0.000253	2.533306	0.858307	-0.000101
1360	1.3522e+02	-14.1509	-39.830381	0.000233	2.330642	0.789643	-0.000093
1361	1.3532e+02	-14.1926	-39.963607	0.000334	3.343965	1.132966	-0.000134
1362	1.3542e+02	-14.2424	-40.064535	0.000253	2.533306	0.858307	-0.000101
1363	1.3552e+02	-14.2648	-40.112981	0.000122	1.215987	0.411988	-0.000049
1364	1.3562e+02	-14.3130	-40.230058	0.000294	2.938635	0.995637	-0.000118
1365	1.3572e+02	-14.3467	-40.371357	0.000355	3.546629	1.201630	-0.000142
1366	1.3582e+02	-14.3964	-40.431914	0.000152	1.519984	0.514984	-0.000061
1367	1.3592e+02	-14.4285	-40.548991	0.000294	2.938635	0.995637	-0.000118
1368	1.3602e+02	-14.4606	-40.662031	0.000284	2.837303	0.961304	-0.000114
1369	1.3612e+02	-14.5087	-40.754885	0.000233	2.330642	0.789643	-0.000093
1370	1.3622e+02	-14.5648	-40.871962	0.000294	2.938635	0.995637	-0.000118
1371	1.3631e+02	-14.5953	-40.944631	0.000182	1.823981	0.617981	-0.000073
1372	1.3641e+02	-14.6290	-41.017299	0.000182	1.823981	0.617981	-0.000073
1373	1.3651e+02	-14.6691	-41.138413	0.000304	3.039968	1.029969	-0.000122
1374	1.3661e+02	-14.7124	-41.247416	0.000274	2.735971	0.926972	-0.000110
1375	1.3671e+02	-14.7461	-41.328159	0.000203	2.026645	0.686646	-0.000081
1376	1.3681e+02	-14.8039	-41.404864	0.000193	1.925313	0.652314	-0.000077
1377	1.3691e+02	-14.8263	-41.542127	0.000345	3.445297	1.167298	-0.000138
1378	1.3701e+02	-14.8728	-41.655167	0.000284	2.837303	0.961304	-0.000114
1379	1.3711e+02	-14.9081	-41.723798	0.000172	1.722648	0.583649	-0.000069
1380	1.3721e+02	-14.9547	-41.812615	0.000223	2.229310	0.755311	-0.000089
1381	1.3731e+02	-14.9867	-41.949877	0.000345	3.445297	1.167298	-0.000138
1382	1.3741e+02	-15.0317	-42.058880	0.000274	2.735971	0.926972	-0.000110
1383	1.3751e+02	-15.0686	-42.131549	0.000182	1.823981	0.617981	-0.000073
1384	1.3761e+02	-15.1103	-42.196143	0.000162	1.621316	0.549317	-0.000065
1385	1.3771e+02	-15.1472	-42.341480	0.000365	3.647961	1.235963	-0.000146
1386	1.3781e+02	-15.1953	-42.418185	0.000193	1.925313	0.652314	-0.000077
1387	1.3791e+02	-15.2386	-42.511039	0.000233	2.330642	0.789643	-0.000093
1388	1.3801e+02	-15.2643	-42.607931	0.000243	2.431974	0.823975	-0.000097
1389	1.3811e+02	-15.3124	-42.720970	0.000284	2.837303	0.961304	-0.000114
1390	1.3821e+02	-15.3493	-42.785565	0.000162	1.621316	0.549317	-0.000065
1391	1.3831e+02	-15.3942	-42.890530	0.000263	2.634639	0.892640	-0.000105
1392	1.3840e+02	-15.4247	-43.007607	0.000294	2.938635	0.995637	-0.000118
1393	1.3850e+02	-15.4632	-43.088350	0.000203	2.026645	0.686646	-0.000081
1394	1.3860e+02	-15.5049	-43.209464	0.000304	3.039968	1.029969	-0.000122
1395	1.3870e+02	-15.5498	-43.318466	0.000274	2.735971	0.926972	-0.000110
1396	1.3880e+02	-15.5931	-43.427469	0.000274	2.735971	0.926972	-0.000110
1397	1.3890e+02	-15.6252	-43.516286	0.000223	2.229310	0.755311	-0.000089
1398	1.3900e+02	-15.6637	-43.540509	0.000061	0.607994	0.205994	-0.000024
1399	1.3910e+02	-15.7103	-43.645474	0.000263	2.634639	0.892640	-0.000105
1400	1.3920e+02	-15.7552	-43.786774	0.000355	3.546629	1.201630	-0.000142
1401	1.3930e+02	-15.7889	-43.920000	0.000334	3.343965	1.132966	-0.000134
1402	1.3940e+02	-15.8354	-43.952297	0.000081	0.810658	0.274658	-0.000032
1403	1.3950e+02	-15.8739	-44.053225	0.000253	2.533306	0.858307	-0.000101
1404	1.3960e+02	-15.9060	-44.133968	0.000203	2.026645	0.686646	-0.000081
1405	1.3970e+02	-15.9477	-44.271231	0.000345	3.445297	1.167298	-0.000138
1406	1.3980e+02	-15.9926	-44.380233	0.000274	2.735971	0.926972	-0.000110
1407	1.3990e+02	-16.0311	-44.473087	0.000233	2.330642	0.789643	-0.000093
1408	1.4000e+02	-16.0632	-44.586127	0.000284	2.837303	0.961304	-0.000114
1409	1.4010e+02	-16.1129	-44.703204	0.000294	2.938635	0.995637	-0.000118
1410	1.4020e+02	-16.1434	-44.759724	0.000142	1.418652	0.480652	-0.000057
1411	1.4029e+02	-16.1867	-44.832392	0.000182	1.823981	0.617981	-0.000073
1412	1.4039e+02	-16.2284	-44.949469	0.000294	2.938635	0.995637	-0.000118
1413	1.4049e+02	-16.2621	-45.050398	0.000253	2.533306	0.858307	-0.000101
1414	1.4059e+02	-16.2974	-45.102880	0.000132	1.317319	0.446320	-0.000053
1415	1.4069e+02	-16.3519	-45.215920	0.000284	2.837303	0.961304	-0.000114
1416	1.4079e+02	-16.3808	-45.284552	0.000172	1.722648	0.583649	-0.000069
1417	1.4089e+02	-16.4193	-45.421814	0.000345	3.445297	1.167298	-0.000138
1418	1.4099e+02	-16.4691	-45.502557	0.000203	2.026645	0.686646	-0.000081
1419	1.4109e+02	-16.5108	-45.534854	0.000081	0.810658	0.274658	-0.000032
1420	1.4119e+02	-16.5477	-45.732674	0.000497	4.965281	1.682283	-0.000199
1421	1.4129e+02	-16.5749	-45.801305	0.000172	1.722648	0.583649	-0.000069
1422	1.4139e+02	-16.6199	-45.865899	0.000162	1.621316	0.549317	-0.000065
1423	1.4149e+02	-16.6600	-45.974902	0.000274	2.735971	0.926972	-0.000110
1424	1.4159e+02	-16.7113	-46.063719	0.000223	2.229310	0.755311	-0.000089
1425	1.4169e+02	-16.7530	-46.100053	0.000091	0.911990	0.308991	-0.000037
1426	1.4179e+02	-16.7947	-46.221167	0.000304	3.039968	1.029969	-0.000122
1427	1.4189e+02	-16.8172	-46.322095	0.000253	2.533306	0.858307	-0.000101
1428	1.4199e+02	-16.8685	-46.435135	0.000284	2.837303	0.961304	-0.000114
1429	1.4209e+02	-16.9102	-46.519915	0.000213	2.127977	0.720978	-0.000085
1430	1.4219e+02	-16.9439	-46.612769	0.000233	2.330642	0.789643	-0.000093
1431	1.4228e+02	-16.9776	-46.693512	0.000203	2.026645	0.686646	-0.000081
1432	1.4238e+02	-17.0161	-46.806552	0.000284	2.837303	0.961304	-0.000114
1433	1.4248e+02	-17.0658	-46.875183	0.000172	1.722648	0.583649	-0.000069
1434	1.4258e+02	-17.1011	-47.036668	0.000405	4.053290	1.373292	-0.000162
1435	1.4268e+02	-17.1396	-47.113374	0.000193	1.925313	0.652314	-0.000077
1436	1.4278e+02	-17.1733	-47.182005	0.000172	1.722648	0.583649	-0.000069
1437	1.4288e+02	-17.2198	-47.286971	0.000263	2.634639	0.892640	-0.000105
1438	1.4298e+02	-17.2583	-47.391936	0.000263	2.634639	0.892640	-0.000105
1439	1.4308e+02	-17.2952	-47.468642	0.000193	1.925313	0.652314	-0.000077
1440	1.4318e+02	-17.3434	-47.601867	0.000334	3.343965	1.132966	-0.000134
1441	1.4328e+02	-17.3803	-47.654350	0.000132	1.317319	0.446320	-0.000053
1442	1.4338e+02	-17.4204	-47.775464	0.000304	3.039968	1.029969	-0.000122
1443	1.4348e+02	-17.4573	-47.848133	0.000182	1.823981	0.617981	-0.000073
1444	1.4358e+02	-17.5006	-47.965210	0.000294	2.938635	0.995637	-0.000118
1445	1.4368e+02	-17.5519	-48.025767	0.000152	1.519984	0.514984	-0.000061
1446	1.4378e+02	-17.5840	-48.154955	0.000324	3.242632	1.098634	-0.000130
1447	1.4388e+02	-17.6081	-48.267995	0.000284	2.837303	0.961304	-0.000114
1448	1.4398e+02	-17.6466	-48.352775	0.000213	2.127977	0.720978	-0.000085
1449	1.4408e+02	-17.7027	-48.461777	0.000274	2.735971	0.926972	-0.000110
1450	1.4418e+02	-17.7444	-48.514260	0.000132	1.317319	0.446320	-0.000053
1451	1.4428e+02	-17.7877	-48.631337	0.000294	2.938635	0.995637	-0.000118
1452	1.4437e+02	-17.8118	-48.764563	0.000334	3.343965	1.132966	-0.000134
1453	1.4447e+02	-17.8615	-48.853380	0.000223	2.229310	0.755311	-0.000089
1454	1.4457e+02	-17.8936	-48.934122	0.000203	2.026645	0.686646	-0.000081
1455	1.4467e+02	-17.9257	-49.063311	0.000324	3.242632	1.098634	-0.000130
1456	1.4477e+02	-17.9770	-49.144053	0.000203	2.026645	0.686646	-0.000081
1457	1.4487e+02	-18.0203	-49.236907	0.000233	2.330642	0.789643	-0.000093
1458	1.4497e+02	-18.0572	-49.349947	0.000284	2.837303	0.961304	-0.000114
1459	1.4507e+02	-18.0974	-49.418579	0.000172	1.722648	0.583649	-0.000069
1460	1.4517e+02	-18.1439	-49.523544	0.000263	2.634639	0.892640	-0.000105
1461	1.4527e+02	-18.1808	-49.636584	0.000284	2.837303	0.961304	-0.000114
1462	1.4537e+02	-18.2161	-49.705215	0.000172	1.722648	0.583649	-0.000069
1463	1.4547e+02	-18.2562	-49.858626	0.000385	3.850626	1.304627	-0.000154
1464	1.4557e+02	-18.2979	-49.943406	0.000213	2.127977	0.720978	-0.000085
1465	1.4567e+02	-18.3428	-49.995889	0.000132	1.317319	0.446320	-0.000053
1466	1.4577e+02	-18.3813	-50.129114	0.000334	3.343965	1.132966	-0.000134
1467	1.4587e+02	-18.4150	-50.221969	0.000233	2.330642	0.789643	-0.000093
1468	1.4597e+02	-18.4583	-50.335008	0.000284	2.837303	0.961304	-0.000114
1469	1.4607e+02	-18.4952	-50.435937	0.000253	2.533306	0.858307	-0.000101
1470	1.4617e+02	-18.5353	-50.504568	0.000172	1.722648	0.583649	-0.000069
1471	1.4626e+02	-18.5850	-50.641831	0.000345	3.445297	1.167298	-0.000138
1472	1.4636e+02	-18.6171	-50.714499	0.000182	1.823981	0.617981	-0.000073
1473	1.4646e+02	-18.6588	-50.847725	0.000334	3.343965	1.132966	-0.000134
1474	1.4656e+02	-18.6957	-50.908282	0.000152	1.519984	0.514984	-0.000061
1475	1.4666e+02	-18.7342	-51.041507	0.000334	3.343965	1.132966	-0.000134
1476	1.4676e+02	-18.7840	-51.170695	0.000324	3.242632	1.098634	-0.000130
1477	1.4686e+02	-18.8177	-51.247401	0.000193	1.925313	0.652314	-0.000077
1478	1.4696e+02	-18.8610	-51.316032	0.000172	1.722648	0.583649	-0.000069
1479	1.4706e+02	-18.8947	-51.392738	0.000193	1.925313	0.652314	-0.000077
1480	1.4716e+02	-18.9396	-51.525963	0.000334	3.343965	1.132966	-0.000134
1481	1.4726e+02	-18.9749	-51.614780	0.000223	2.229310	0.755311	-0.000089
1482	1.4736e+02	-19.0070	-51.723783	0.000274	2.735971	0.926972	-0.000110
1483	1.4746e+02	-19.0519	-51.800489	0.000193	1.925313	0.652314	-0.000077
1484	1.4756e+02	-19.0952	-51.933714	0.000334	3.343965	1.132966	-0.000134
1485	1.4766e+02	-19.1305	-52.050791	0.000294	2.938635	0.995637	-0.000118
1486	1.4776e+02	-19.1802	-52.139608	0.000223	2.229310	0.755311	-0.000089
1487	1.4786e+02	-19.2171	-52.248611	0.000274	2.735971	0.926972	-0.000110
1488	1.4796e+02	-19.2556	-52.333391	0.000213	2.127977	0.720978	-0.000085
1489	1.4806e+02	-19.3005	-52.422208	0.000223	2.229310	0.755311	-0.000089
1490	1.4816e+02	-19.3374	-52.559470	0.000345	3.445297	1.167298	-0.000138
1491	1.4825e+02	-19.3727	-52.648287	0.000223	2.229310	0.755311	-0.000089
1492	1.4835e+02	-19.4160	-52.765364	0.000294	2.938635	0.995637	-0.000118
1493	1.4845e+02	-19.4497	-52.850144	0.000213	2.127977	0.720978	-0.000085
1494	1.4855e+02	-19.4962	-52.922812	0.000182	1.823981	0.617981	-0.000073
1495	1.4865e+02	-19.5363	-53.064112	0.000355	3.546629	1.201630	-0.000142
1496	1.4875e+02	-19.5716	-53.152929	0.000223	2.229310	0.755311	-0.000089
1497	1.4885e+02	-19.6117	-53.286155	0.000334	3.343965	1.132966	-0.000134
1498	1.4895e+02	-19.6486	-53.407269	0.000304	3.039968	1.029969	-0.000122
1499	1.4905e+02	-19.6936	-53.504160	0.000243	2.431974	0.823975	-0.000097
1500	1.4915e+02	-19.7305	-53.560680	0.000142	1.418652	0.480652	-0.000057
1501	1.4925e+02	-19.7674	-53.718128	0.000395	3.951958	1.338960	-0.000158
1502	1.4935e+02	-19.8123	-53.806945	0.000223	2.229310	0.755311	-0.000089
1503	1.4945e+02	-19.8572	-53.899799	0.000233	2.330642	0.789643	-0.000093
1504	1.4955e+02	-19.8861	-54.016876	0.000294	2.938635	0.995637	-0.000118
1505	1.4965e+02	-19.9310	-54.113767	0.000243	2.431974	0.823975	-0.000097
1506	1.4975e+02	-19.9679	-54.210659	0.000243	2.431974	0.823975	-0.000097
1507	1.4985e+02	-20.0128	-54.355996	0.000365	3.647961	1.235963	-0.000146
1508	1.4995e+02	-19.9695	-54.275253	0.000203	2.026645	0.686646	0.000081
1509	1.5005e+02	-19.9326	-54.210659	0.000162	1.621316	0.549317	0.000065
1510	1.5015e+02	-19.8909	-54.174324	0.000091	0.911990	0.308991	0.000037
1511	1.5025e+02	-19.8588	-54.101656	0.000182	1.823981	0.617981	0.000073
1512	1.5034e+02	-19.8107	-54.057248	0.000111	1.114655	0.377655	0.000045
1513	1.5044e+02	-19.7802	-54.020913	0.000091	0.911990	0.308991	0.000037
1514	1.5054e+02	-19.7273	-53.924022	0.000243	2.431974	0.823975	0.000097
1515	1.5064e+02	-19.6936	-53.871539	0.000132	1.317319	0.446320	0.000053
1516	1.5074e+02	-19.6486	-53.831168	0.000101	1.013323	0.343323	0.000041
1517	1.5084e+02	-19.6150	-53.762537	0.000172	1.722648	0.583649	0.000069
1518	1.5094e+02	-19.5716	-53.718128	0.000111	1.114655	0.377655	0.000045
1519	1.5104e+02	-19.5299	-53.613163	0.000263	2.634639	0.892640	0.000105
1520	1.5114e+02	-19.4882	-53.544531	0.000172	1.722648	0.583649	0.000069
1521	1.5124e+02	-19.4561	-53.479937	0.000162	1.621316	0.549317	0.000065
1522	1.5134e+02	-19.4128	-53.399194	0.000203	2.026645	0.686646	0.000081
1523	1.5144e+02	-19.3727	-53.350749	0.000122	1.215987	0.411988	0.000049
1524	1.5154e+02	-19.3358	-53.290192	0.000152	1.519984	0.514984	0.000061
1525	1.5164e+02	-19.2957	-53.233672	0.000142	1.418652	0.480652	0.000057
1526	1.5174e+02	-19.2572	-53.156966	0.000193	1.925313	0.652314	0.000077
1527	1.5184e+02	-19.2187	-53.072186	0.000213	2.127977	0.720978	0.000085
1528	1.5194e+02	-19.1850	-52.959147	0.000284	2.837303	0.961304	0.000114
1529	1.5204e+02	-19.1337	-52.922812	0.000091	0.911990	0.308991	0.000037
1530	1.5214e+02	-19.0920	-52.846107	0.000193	1.925313	0.652314	0.000077
1531	1.5224e+02	-19.0567	-52.805735	0.000101	1.013323	0.343323	0.000041
1532	1.5233e+02	-19.0246	-52.704807	0.000253	2.533306	0.858307	0.000101
1533	1.5243e+02	-18.9781	-52.607916	0.000243	2.431974	0.823975	0.000097
1534	1.5253e+02	-18.9348	-52.547359	0.000152	1.519984	0.514984	0.000061
1535	1.5263e+02	-18.9043	-52.458542	0.000223	2.229310	0.755311	0.000089
1536	1.5273e+02	-18.8578	-52.414133	0.000111	1.114655	0.377655	0.000045
1537	1.5283e+02	-18.8209	-52.313205	0.000253	2.533306	0.858307	0.000101
1538	1.5293e+02	-18.7824	-52.208239	0.000263	2.634639	0.892640	0.000105
1539	1.5303e+02	-18.7278	-52.155757	0.000132	1.317319	0.446320	0.000053
1540	1.5313e+02	-18.7005	-52.151719	0.000010	0.101332	0.034332	0.000004
1541	1.5323e+02	-18.6556	-51.986197	0.000415	4.154623	1.407624	0.000166
1542	1.5333e+02	-18.6187	-51.933714	0.000132	1.317319	0.446320	0.000053
1543	1.5343e+02	-18.5770	-51.881231	0.000132	1.317319	0.446320	0.000053
1544	1.5353e+02	-18.5449	-51.784340	0.000243	2.431974	0.823975	0.000097
1545	1.5363e+02	-18.4984	-51.699560	0.000213	2.127977	0.720978	0.000085
1546	1.5373e+02	-18.4599	-51.626892	0.000182	1.823981	0.617981	0.000073
1547	1.5383e+02	-18.4182	-51.554223	0.000182	1.823981	0.617981	0.000073
1548	1.5393e+02	-18.3717	-51.457332	0.000243	2.431974	0.823975	0.000097
1549	1.5403e+02	-18.3476	-51.400812	0.000142	1.418652	0.480652	0.000057
1550	1.5413e+02	-18.2931	-51.295847	0.000263	2.634639	0.892640	0.000105
1551	1.5422e+02	-18.2514	-51.263550	0.000081	0.810658	0.274658	0.000032
1552	1.5432e+02	-18.2209	-51.162621	0.000253	2.533306	0.858307	0.000101
1553	1.5442e+02	-18.1776	-51.081878	0.000203	2.026645	0.686646	0.000081
1554	1.5452e+02	-18.1471	-50.997099	0.000213	2.127977	0.720978	0.000085
1555	1.5462e+02	-18.0909	-50.924430	0.000182	1.823981	0.617981	0.000073
1556	1.5472e+02	-18.0540	-50.863873	0.000152	1.519984	0.514984	0.000061
1557	1.5482e+02	-18.0203	-50.758908	0.000263	2.634639	0.892640	0.000105
1558	1.5492e+02	-17.9867	-50.657979	0.000253	2.533306	0.858307	0.000101
1559	1.5502e+02	-17.9273	-50.621645	0.000091	0.911990	0.308991	0.000037
1560	1.5512e+02	-17.8968	-50.581274	0.000101	1.013323	0.343323	0.000041
1561	1.5522e+02	-17.8615	-50.431900	0.000375	3.749294	1.270295	0.000150
1562	1.5532e+02	-17.8198	-50.395565	0.000091	0.911990	0.308991	0.000037
1563	1.5542e+02	-17.7813	-50.278488	0.000294	2.938635	0.995637	0.000118
1564	1.5552e+02	-17.7396	-50.161412	0.000294	2.938635	0.995637	0.000118
1565	1.5562e+02	-17.6963	-50.076632	0.000213	2.127977	0.720978	0.000085
1566	1.5572e+02	-17.6626	-50.003963	0.000182	1.823981	0.617981	0.000073
1567	1.5582e+02	-17.6241	-49.939369	0.000162	1.621316	0.549317	0.000065
1568	1.5592e+02	-17.5872	-49.866701	0.000182	1.823981	0.617981	0.000073
1569	1.5602e+02	-17.5487	-49.765772	0.000253	2.533306	0.858307	0.000101
1570	1.5612e+02	-17.4942	-49.668881	0.000243	2.431974	0.823975	0.000097
1571	1.5622e+02	-17.4573	-49.576027	0.000233	2.330642	0.789643	0.000093
1572	1.5631e+02	-17.4236	-49.483173	0.000233	2.330642	0.789643	0.000093
1573	1.5641e+02	-17.3803	-49.495284	-0.000030	-0.303997	-0.102997	-0.000012
1574	1.5651e+02	-17.3434	-49.370133	0.000314	3.141300	1.064301	0.000126
1575	1.5661e+02	-17.3065	-49.253056	0.000294	2.938635	0.995637	0.000118
1576	1.5671e+02	-17.2551	-49.160202	0.000233	2.330642	0.789643	0.000093
1577	1.5681e+02	-17.2198	-49.087533	0.000182	1.823981	0.617981	0.000073
1578	1.5691e+02	-17.1829	-49.031014	0.000142	1.418652	0.480652	0.000057
1579	1.5701e+02	-17.1428	-48.950271	0.000203	2.026645	0.686646	0.000081
1580	1.5711e+02	-17.1059	-48.881640	0.000172	1.722648	0.583649	0.000069
1581	1.5721e+02	-17.0626	-48.788785	0.000233	2.330642	0.789643	0.000093
1582	1.5731e+02	-17.0049	-48.687857	0.000253	2.533306	0.858307	0.000101
1583	1.5741e+02	-16.9776	-48.623263	0.000162	1.621316	0.549317	0.000065
1584	1.5751e+02	-16.9423	-48.502149	0.000304	3.039968	1.029969	0.000122
1585	1.5761e+02	-16.9086	-48.425443	0.000193	1.925313	0.652314	0.000077
1586	1.5771e+02	-16.8637	-48.320478	0.000263	2.634639	0.892640	0.000105
1587	1.5781e+02	-16.8172	-48.239735	0.000203	2.026645	0.686646	0.000081
1588	1.5791e+02	-16.7835	-48.163029	0.000193	1.925313	0.652314	0.000077
1589	1.5801e+02	-16.7418	-48.082287	0.000203	2.026645	0.686646	0.000081
1590	1.5811e+02	-16.7097	-47.973284	0.000274	2.735971	0.926972	0.000110
1591	1.5821e+02	-16.6616	-47.896578	0.000193	1.925313	0.652314	0.000077
1592	1.5830e+02	-16.6215	-47.795650	0.000253	2.533306	0.858307	0.000101
1593	1.5840e+02	-16.5846	-47.674536	0.000304	3.039968	1.029969	0.000122
1594	1.5850e+02	-16.5412	-47.593793	0.000203	2.026645	0.686646	0.000081
1595	1.5860e+02	-16.5060	-47.545348	0.000122	1.215987	0.411988	0.000049
1596	1.5870e+02	-16.4594	-47.420196	0.000314	3.141300	1.064301	0.000126
1597	1.5880e+02	-16.4241	-47.363676	0.000142	1.418652	0.480652	0.000057
1598	1.5890e+02	-16.3856	-47.266785	0.000243	2.431974	0.823975	0.000097
1599	1.5900e+02	-16.3455	-47.169894	0.000243	2.431974	0.823975	0.000097
1600	1.5910e+02	-16.3022	-47.089151	0.000203	2.026645	0.686646	0.000081
1601	1.5920e+02	-16.2701	-47.008409	0.000203	2.026645	0.686646	0.000081
1602	1.5930e+02	-16.2252	-46.907480	0.000253	2.533306	0.858307	0.000101
1603	1.5940e+02	-16.1899	-46.834812	0.000182	1.823981	0.617981	0.000073
1604	1.5950e+02	-16.1434	-46.754069	0.000203	2.026645	0.686646	0.000081
1605	1.5960e+02	-16.1017	-46.661215	0.000233	2.330642	0.789643	0.000093
1606	1.5970e+02	-16.0696	-46.588546	0.000182	1.823981	0.617981	0.000073
1607	1.5980e+02	-16.0295	-46.459358	0.000324	3.242632	1.098634	0.000130
1608	1.5990e+02	-15.9926	-46.439172	0.000051	0.506661	0.171661	0.000020
1609	1.6000e+02	-15.9557	-46.338244	0.000253	2.533306	0.858307	0.000101
1610	1.6010e+02	-15.9108	-46.213093	0.000314	3.141300	1.064301	0.000126
1611	1.6019e+02	-15.8723	-46.156573	0.000142	1.418652	0.480652	0.000057
1612	1.6029e+02	-15.8242	-46.059682	0.000243	2.431974	0.823975	0.000097
1613	1.6039e+02	-15.7792	-45.982976	0.000193	1.925313	0.652314	0.000077
1614	1.6049e+02	-15.7536	-45.902233	0.000203	2.026645	0.686646	0.000081
1615	1.6059e+02	-15.7086	-45.837639	0.000162	1.621316	0.549317	0.000065
1616	1.6069e+02	-15.6621	-45.724599	0.000284	2.837303	0.961304	0.000114
1617	1.6079e+02	-15.6236	-45.651931	0.000182	1.823981	0.617981	0.000073
1618	1.6089e+02	-15.5915	-45.546965	0.000263	2.634639	0.892640	0.000105
1619	1.6099e+02	-15.5434	-45.498520	0.000122	1.215987	0.411988	0.000049
1620	1.6109e+02	-15.5113	-45.353183	0.000365	3.647961	1.235963	0.000146
1621	1.6119e+02	-15.4664	-45.284552	0.000172	1.722648	0.583649	0.000069
1622	1.6129e+02	-15.4295	-45.187660	0.000243	2.431974	0.823975	0.000097
1623	1.6139e+02	-15.3862	-45.119029	0.000172	1.722648	0.583649	0.000069
1624	1.6149e+02	-15.3557	-45.042323	0.000193	1.925313	0.652314	0.000077
1625	1.6159e+02	-15.3140	-44.949469	0.000233	2.330642	0.789643	0.000093
1626	1.6169e+02	-15.2691	-44.856615	0.000233	2.330642	0.789643	0.000093
1627	1.6179e+02	-15.2274	-44.775872	0.000203	2.026645	0.686646	0.000081
1628	1.6189e+02	-15.1905	-44.691093	0.000213	2.127977	0.720978	0.000085
1629	1.6199e+02	-15.1456	-44.594201	0.000243	2.431974	0.823975	0.000097
1630	1.6209e+02	-15.1151	-44.473087	0.000304	3.039968	1.029969	0.000122
1631	1.6219e+02	-15.0718	-44.469050	0.000010	0.101332	0.034332	0.000004
1632	1.6228e+02	-15.0301	-44.327750	0.000355	3.546629	1.201630	0.000142
1633	1.6238e+02	-14.9916	-44.271231	0.000142	1.418652	0.480652	0.000057
1634	1.6248e+02	-14.9531	-44.174339	0.000243	2.431974	0.823975	0.000097
1635	1.6258e+02	-14.9081	-44.081485	0.000233	2.330642	0.789643	0.000093
1636	1.6268e+02	-14.8664	-43.980557	0.000253	2.533306	0.858307	0.000101
1637	1.6278e+02	-14.8359	-43.920000	0.000152	1.519984	0.514984	0.000061
1638	1.6288e+02	-14.7830	-43.810997	0.000274	2.735971	0.926972	0.000110
1639	1.6298e+02	-14.7509	-43.762551	0.000122	1.215987	0.411988	0.000049
1640	1.6308e+02	-14.7124	-43.685846	0.000193	1.925313	0.652314	0.000077
1641	1.6318e+02	-14.6675	-43.584917	0.000253	2.533306	0.858307	0.000101
1642	1.6328e+02	-14.6338	-43.435543	0.000375	3.749294	1.270295	0.000150
1643	1.6338e+02	-14.5905	-43.407283	0.000071	0.709326	0.240326	0.000028
1644	1.6348e+02	-14.5504	-43.342689	0.000162	1.621316	0.549317	0.000065
1645	1.6358e+02	-14.5199	-43.193315	0.000375	3.749294	1.270295	0.000150
1646	1.6368e+02	-14.4686	-43.148907	0.000111	1.114655	0.377655	0.000045
1647	1.6378e+02	-14.4253	-43.047978	0.000253	2.533306	0.858307	0.000101
1648	1.6388e+02	-14.3948	-42.963199	0.000213	2.127977	0.720978	0.000085
1649	1.6398e+02	-14.3515	-42.858233	0.000263	2.634639	0.892640	0.000105
1650	1.6408e+02	-14.3082	-42.769416	0.000223	2.229310	0.755311	0.000089
1651	1.6418e+02	-14.2777	-42.704822	0.000162	1.621316	0.549317	0.000065
1652	1.6427e+02	-14.2376	-42.567559	0.000345	3.445297	1.167298	0.000138
1653	1.6437e+02	-14.1943	-42.478742	0.000223	2.229310	0.755311	0.000089
1654	1.6447e+02	-14.1461	-42.458557	0.000051	0.506661	0.171661	0.000020
1655	1.6457e+02	-14.1189	-42.361665	0.000243	2.431974	0.823975	0.000097
1656	1.6467e+02	-14.0675	-42.256700	0.000263	2.634639	0.892640	0.000105
1657	1.6477e+02	-14.0226	-42.163846	0.000233	2.330642	0.789643	0.000093
1658	1.6487e+02	-13.9969	-42.079066	0.000213	2.127977	0.720978	0.000085
1659	1.6497e+02	-13.9456	-41.957952	0.000304	3.039968	1.029969	0.000122
1660	1.6507e+02	-13.9103	-41.909506	0.000122	1.215987	0.411988	0.000049
1661	1.6517e+02	-13.8798	-41.808578	0.000253	2.533306	0.858307	0.000101
1662	1.6527e+02	-13.8381	-41.731872	0.000193	1.925313	0.652314	0.000077
1663	1.6537e+02	-13.7900	-41.663241	0.000172	1.722648	0.583649	0.000069
1664	1.6547e+02	-13.7563	-41.558275	0.000263	2.634639	0.892640	0.000105
1665	1.6557e+02	-13.7146	-41.465421	0.000233	2.330642	0.789643	0.000093
1666	1.6567e+02	-13.6777	-41.408901	0.000142	1.418652	0.480652	0.000057
1667	1.6577e+02	-13.6408	-41.295861	0.000284	2.837303	0.961304	0.000114
1668	1.6587e+02	-13.5943	-41.227230	0.000172	1.722648	0.583649	0.000069
1669	1.6597e+02	-13.5477	-41.118227	0.000274	2.735971	0.926972	0.000110
1670	1.6607e+02	-13.5157	-41.081893	0.000091	0.911990	0.308991	0.000037
1671	1.6616e+02	-13.4756	-40.944631	0.000345	3.445297	1.167298	0.000138
1672	1.6626e+02	-13.4387	-40.867925	0.000193	1.925313	0.652314	0.000077
1673	1.6636e+02	-13.3937	-40.791219	0.000193	1.925313	0.652314	0.000077
1674	1.6646e+02	-13.3488	-40.678180	0.000284	2.837303	0.961304	0.000114
1675	1.6656e+02	-13.3151	-40.605511	0.000182	1.823981	0.617981	0.000073
1676	1.6666e+02	-13.2686	-40.532843	0.000182	1.823981	0.617981	0.000073
1677	1.6676e+02	-13.2365	-40.427877	0.000263	2.634639	0.892640	0.000105
1678	1.6686e+02	-13.1980	-40.383469	0.000111	1.114655	0.377655	0.000045
1679	1.6696e+02	-13.1547	-40.278503	0.000263	2.634639	0.892640	0.000105
1680	1.6706e+02	-13.1210	-40.153352	0.000314	3.141300	1.064301	0.000126
1681	1.6716e+02	-13.0761	-40.076646	0.000193	1.925313	0.652314	0.000077
1682	1.6726e+02	-13.0360	-39.995904	0.000203	2.026645	0.686646	0.000081
1683	1.6736e+02	-13.0007	-39.919198	0.000193	1.925313	0.652314	0.000077
1684	1.6746e+02	-12.9590	-39.818270	0.000253	2.533306	0.858307	0.000101
1685	1.6756e+02	-12.9173	-39.733490	0.000213	2.127977	0.720978	0.000085
1686	1.6766e+02	-12.8740	-39.636599	0.000243	2.431974	0.823975	0.000097
1687	1.6776e+02	-12.8339	-39.531633	0.000263	2.634639	0.892640	0.000105
1688	1.6786e+02	-12.8050	-39.438779	0.000233	2.330642	0.789643	0.000093
1689	1.6796e+02	-12.7617	-39.325739	0.000284	2.837303	0.961304	0.000114
1690	1.6806e+02	-12.7216	-39.196551	0.000324	3.242632	1.098634	0.000130
1691	1.6816e+02	-12.6734	-39.164254	0.000081	0.810658	0.274658	0.000032
1692	1.6825e+02	-12.6349	-39.067363	0.000243	2.431974	0.823975	0.000097
1693	1.6835e+02	-12.5996	-39.002768	0.000162	1.621316	0.549317	0.000065
1694	1.6845e+02	-12.5515	-38.881654	0.000304	3.039968	1.029969	0.000122
1695	1.6855e+02	-12.5146	-38.817060	0.000162	1.621316	0.549317	0.000065
1696	1.6865e+02	-12.4825	-38.695946	0.000304	3.039968	1.029969	0.000122
1697	1.6875e+02	-12.4440	-38.623278	0.000182	1.823981	0.617981	0.000073
1698	1.6885e+02	-12.3943	-38.522349	0.000253	2.533306	0.858307	0.000101
1699	1.6895e+02	-12.3622	-38.425458	0.000243	2.431974	0.823975	0.000097
1700	1.6905e+02	-12.3269	-38.292232	0.000334	3.343965	1.132966	0.000134
1701	1.6915e+02	-12.2820	-38.247824	0.000111	1.114655	0.377655	0.000045
1702	1.6925e+02	-12.2467	-38.142858	0.000263	2.634639	0.892640	0.000105
1703	1.6935e+02	-12.1954	-38.021744	0.000304	3.039968	1.029969	0.000122
1704	1.6945e+02	-12.1697	-37.949076	0.000182	1.823981	0.617981	0.000073
1705	1.6955e+02	-12.1200	-37.848148	0.000253	2.533306	0.858307	0.000101
1706	1.6965e+02	-12.0751	-37.743182	0.000263	2.634639	0.892640	0.000105
1707	1.6975e+02	-12.0430	-37.674551	0.000172	1.722648	0.583649	0.000069
1708	1.6985e+02	-12.0029	-37.593808	0.000203	2.026645	0.686646	0.000081
1709	1.6995e+02	-11.9547	-37.492880	0.000253	2.533306	0.858307	0.000101
1710	1.7005e+02	-11.9275	-37.363691	0.000324	3.242632	1.098634	0.000130
1711	1.7015e+02	-11.8890	-37.258726	0.000263	2.634639	0.892640	0.000105
1712	1.7024e+02	-11.8457	-37.165872	0.000233	2.330642	0.789643	0.000093
1713	1.7034e+02	-11.8007	-37.064943	0.000253	2.533306	0.858307	0.000101
1714	1.7044e+02	-11.7654	-36.980163	0.000213	2.127977	0.720978	0.000085
1715	1.7054e+02	-11.7253	-36.895384	0.000213	2.127977	0.720978	0.000085
1716	1.7064e+02	-11.6852	-36.774269	0.000304	3.039968	1.029969	0.000122
1717	1.7074e+02	-11.6451	-36.693527	0.000203	2.026645	0.686646	0.000081
1718	1.7084e+02	-11.6195	-36.584524	0.000274	2.735971	0.926972	0.000110
1719	1.7094e+02	-11.5585	-36.491670	0.000233	2.330642	0.789643	0.000093
1720	1.7104e+02	-11.5248	-36.402853	0.000223	2.229310	0.755311	0.000089
1721	1.7114e+02	-11.4879	-36.318073	0.000213	2.127977	0.720978	0.000085
1722	1.7124e+02	-11.4494	-36.184848	0.000334	3.343965	1.132966	0.000134
1723	1.7134e+02	-11.4029	-36.108142	0.000193	1.925313	0.652314	0.000077
1724	1.7144e+02	-11.3708	-36.019325	0.000223	2.229310	0.755311	0.000089
1725	1.7154e+02	-11.3259	-35.898211	0.000304	3.039968	1.029969	0.000122
1726	1.7164e+02	-11.2794	-35.773060	0.000314	3.141300	1.064301	0.000126
1727	1.7174e+02	-11.2441	-35.724614	0.000122	1.215987	0.411988	0.000049
1728	1.7184e+02	-11.2040	-35.611574	0.000284	2.837303	0.961304	0.000114
1729	1.7194e+02	-11.1687	-35.510646	0.000253	2.533306	0.858307	0.000101
1730	1.7204e+02	-11.1270	-35.389532	0.000304	3.039968	1.029969	0.000122
1731	1.7213e+02	-11.0869	-35.304752	0.000213	2.127977	0.720978	0.000085
1732	1.7223e+02	-11.0451	-35.211898	0.000233	2.330642	0.789643	0.000093
1733	1.7233e+02	-11.0147	-35.070598	0.000355	3.546629	1.201630	0.000142
1734	1.7243e+02	-10.9713	-35.006004	0.000162	1.621316	0.549317	0.000065
1735	1.7253e+02	-10.9280	-34.917187	0.000223	2.229310	0.755311	0.000089
1736	1.7263e+02	-10.8847	-34.796073	0.000304	3.039968	1.029969	0.000122
1737	1.7273e+02	-10.8462	-34.695145	0.000253	2.533306	0.858307	0.000101
1738	1.7283e+02	-10.8109	-34.622476	0.000182	1.823981	0.617981	0.000073
1739	1.7293e+02	-10.7708	-34.485213	0.000345	3.445297	1.167298	0.000138
1740	1.7303e+02	-10.7339	-34.368137	0.000294	2.938635	0.995637	0.000118
1741	1.7313e+02	-10.6842	-34.295468	0.000182	1.823981	0.617981	0.000073
1742	1.7323e+02	-10.6473	-34.206651	0.000223	2.229310	0.755311	0.000089
1743	1.7333e+02	-10.6008	-34.125908	0.000203	2.026645	0.686646	0.000081
1744	1.7343e+02	-10.5623	-33.980572	0.000365	3.647961	1.235963	0.000146
1745	1.7353e+02	-10.5270	-33.879643	0.000253	2.533306	0.858307	0.000101
1746	1.7363e+02	-10.4901	-33.839272	0.000101	1.013323	0.343323	0.000041
1747	1.7373e+02	-10.4436	-33.665675	0.000436	4.357287	1.476289	0.000174
1748	1.7383e+02	-10.4115	-33.544561	0.000304	3.039968	1.029969	0.000122
1749	1.7393e+02	-10.3698	-33.427484	0.000294	2.938635	0.995637	0.000118
1750	1.7403e+02	-10.3216	-33.370964	0.000142	1.418652	0.480652	0.000057
1751	1.7413e+02	-10.2895	-33.274073	0.000243	2.431974	0.823975	0.000097
1752	1.7422e+02	-10.2494	-33.152959	0.000304	3.039968	1.029969	0.000122
1753	1.7432e+02	-10.2125	-33.043956	0.000274	2.735971	0.926972	0.000110
1754	1.7442e+02	-10.1692	-32.975325	0.000172	1.722648	0.583649	0.000069
1755	1.7452e+02	-10.1307	-32.866322	0.000274	2.735971	0.926972	0.000110
1756	1.7462e+02	-10.0906	-32.720985	0.000365	3.647961	1.235963	0.000146
1757	1.7472e+02	-10.0537	-32.636205	0.000213	2.127977	0.720978	0.000085
1758	1.7482e+02	-10.0088	-32.539314	0.000243	2.431974	0.823975	0.000097
1759	1.7492e+02	-9.9767	-32.422237	0.000294	2.938635	0.995637	0.000118
1760	1.7502e+02	-9.9270	-32.297086	0.000314	3.141300	1.064301	0.000126
1761	1.7512e+02	-9.8885	-32.232492	0.000162	1.621316	0.549317	0.000065
1762	1.7522e+02	-9.8452	-32.095229	0.000345	3.445297	1.167298	0.000138
1763	1.7532e+02	-9.8099	-32.050821	0.000111	1.114655	0.377655	0.000045
1764	1.7542e+02	-9.7714	-31.893372	0.000395	3.951958	1.338960	0.000158
1765	1.7552e+02	-9.7249	-31.772258	0.000304	3.039968	1.029969	0.000122
1766	1.7562e+02	-9.6944	-31.707664	0.000162	1.621316	0.549317	0.000065
1767	1.7572e+02	-9.6430	-31.554253	0.000385	3.850626	1.304627	0.000154
1768	1.7582e+02	-9.6094	-31.465436	0.000223	2.229310	0.755311	0.000089
1769	1.7592e+02	-9.5741	-31.404879	0.000152	1.519984	0.514984	0.000061
1770	1.7602e+02	-9.5227	-31.287802	0.000294	2.938635	0.995637	0.000118
1771	1.7612e+02	-9.4794	-31.154576	0.000334	3.343965	1.132966	0.000134
1772	1.7621e+02	-9.4489	-31.094019	0.000152	1.519984	0.514984	0.000061
1773	1.7631e+02	-9.4072	-30.989054	0.000263	2.634639	0.892640	0.000105
1774	1.7641e+02	-9.3783	-30.851791	0.000345	3.445297	1.167298	0.000138
1775	1.7651e+02	-9.3447	-30.787197	0.000162	1.621316	0.549317	0.000065
1776	1.7661e+02	-9.2885	-30.682232	0.000263	2.634639	0.892640	0.000105
1777	1.7671e+02	-9.2548	-30.593415	0.000223	2.229310	0.755311	0.000089
1778	1.7681e+02	-9.2163	-30.431929	0.000405	4.053290	1.373292	0.000162
1779	1.7691e+02	-9.1682	-30.367335	0.000162	1.621316	0.549317	0.000065
1780	1.7701e+02	-9.1377	-30.278518	0.000223	2.229310	0.755311	0.000089
1781	1.7711e+02	-9.0912	-30.133181	0.000365	3.647961	1.235963	0.000146
1782	1.7721e+02	-9.0559	-30.028216	0.000263	2.634639	0.892640	0.000105
1783	1.7731e+02	-9.0142	-29.943436	0.000213	2.127977	0.720978	0.000085
1784	1.7741e+02	-8.9709	-29.903064	0.000101	1.013323	0.343323	0.000041
1785	1.7751e+02	-8.9404	-29.753690	0.000375	3.749294	1.270295	0.000150
1786	1.7761e+02	-8.8987	-29.608354	0.000365	3.647961	1.235963	0.000146
1787	1.7771e+02	-8.8602	-29.519537	0.000223	2.229310	0.755311	0.000089
1788	1.7781e+02	-8.8088	-29.446868	0.000182	1.823981	0.617981	0.000073
1789	1.7791e+02	-8.7671	-29.349977	0.000243	2.431974	0.823975	0.000097
1790	1.7801e+02	-8.7270	-29.232900	0.000294	2.938635	0.995637	0.000118
1791	1.7810e+02	-8.7030	-29.131971	0.000253	2.533306	0.858307	0.000101
1792	1.7820e+02	-8.6580	-29.063340	0.000172	1.722648	0.583649	0.000069
1793	1.7830e+02	-8.6099	-28.922040	0.000355	3.546629	1.201630	0.000142
1794	1.7840e+02	-8.5859	-28.809001	0.000284	2.837303	0.961304	0.000114
1795	1.7850e+02	-8.5361	-28.699998	0.000274	2.735971	0.926972	0.000110
1796	1.7860e+02	-8.4976	-28.570810	0.000324	3.242632	1.098634	0.000130
1797	1.7870e+02	-8.4495	-28.502178	0.000172	1.722648	0.583649	0.000069
1798	1.7880e+02	-8.4206	-28.397213	0.000263	2.634639	0.892640	0.000105
1799	1.7890e+02	-8.3789	-28.324544	0.000182	1.823981	0.617981	0.000073
1800	1.7900e+02	-8.3436	-28.211505	0.000284	2.837303	0.961304	0.000114
1801	1.7910e+02	-8.2827	-28.066168	0.000365	3.647961	1.235963	0.000146
1802	1.7920e+02	-8.2538	-27.957165	0.000274	2.735971	0.926972	0.000110
1803	1.7930e+02	-8.2185	-27.844125	0.000284	2.837303	0.961304	0.000114
1804	1.7940e+02	-8.1752	-27.747234	0.000243	2.431974	0.823975	0.000097
1805	1.7950e+02	-8.1399	-27.646306	0.000253	2.533306	0.858307	0.000101
1806	1.7960e+02	-8.0966	-27.589786	0.000142	1.418652	0.480652	0.000057
1807	1.7970e+02	-8.0500	-27.488857	0.000253	2.533306	0.858307	0.000101
1808	1.7980e+02	-8.0164	-27.371780	0.000294	2.938635	0.995637	0.000118
1809	1.7990e+02	-7.9795	-27.262778	0.000274	2.735971	0.926972	0.000110
1810	1.8000e+02	-7.9361	-27.145701	0.000294	2.938635	0.995637	0.000118
1811	1.8009e+02	-7.8944	-27.068995	0.000193	1.925313	0.652314	0.000077
1812	1.8019e+02	-7.8559	-26.935770	0.000334	3.343965	1.132966	0.000134
1813	1.8029e+02	-7.8222	-26.814656	0.000304	3.039968	1.029969	0.000122
1814	1.8039e+02	-7.7709	-26.709690	0.000263	2.634639	0.892640	0.000105
1815	1.8049e+02	-7.7388	-26.604725	0.000263	2.634639	0.892640	0.000105
1816	1.8059e+02	-7.6971	-26.475536	0.000324	3.242632	1.098634	0.000130
1817	1.8069e+02	-7.6522	-26.406905	0.000172	1.722648	0.583649	0.000069
1818	1.8079e+02	-7.6089	-26.310014	0.000243	2.431974	0.823975	0.000097
1819	1.8089e+02	-7.5800	-26.192937	0.000294	2.938635	0.995637	0.000118
1820	1.8099e+02	-7.5271	-26.108157	0.000213	2.127977	0.720978	0.000085
1821	1.8109e+02	-7.5014	-25.991080	0.000294	2.938635	0.995637	0.000118
1822	1.8119e+02	-7.4597	-25.914374	0.000193	1.925313	0.652314	0.000077
1823	1.8129e+02	-7.4196	-25.785186	0.000324	3.242632	1.098634	0.000130
1824	1.8139e+02	-7.3714	-25.639849	0.000365	3.647961	1.235963	0.000146
1825	1.8149e+02	-7.3506	-25.587366	0.000132	1.317319	0.446320	0.000053
1826	1.8159e+02	-7.3009	-25.474327	0.000284	2.837303	0.961304	0.000114
1827	1.8169e+02	-7.2495	-25.365324	0.000274	2.735971	0.926972	0.000110
1828	1.8179e+02	-7.2207	-25.260358	0.000263	2.634639	0.892640	0.000105
1829	1.8189e+02	-7.1822	-25.151356	0.000274	2.735971	0.926972	0.000110
1830	1.8199e+02	-7.1404	-25.038316	0.000284	2.837303	0.961304	0.000114
1831	1.8209e+02	-7.1051	-24.937387	0.000253	2.533306	0.858307	0.000101
1832	1.8218e+02	-7.0586	-24.852608	0.000213	2.127977	0.720978	0.000085
1833	1.8228e+02	-7.0169	-24.739568	0.000284	2.837303	0.961304	0.000114
1834	1.8238e+02	-6.9784	-24.646714	0.000233	2.330642	0.789643	0.000093
1835	1.8248e+02	-6.9399	-24.501377	0.000365	3.647961	1.235963	0.000146
1836	1.8258e+02	-6.8998	-24.432745	0.000172	1.722648	0.583649	0.000069
1837	1.8268e+02	-6.8613	-24.303557	0.000324	3.242632	1.098634	0.000130
1838	1.8278e+02	-6.8308	-24.194554	0.000274	2.735971	0.926972	0.000110
1839	1.8288e+02	-6.7779	-24.113812	0.000203	2.026645	0.686646	0.000081
1840	1.8298e+02	-6.7378	-24.012883	0.000253	2.533306	0.858307	0.000101
1841	1.8308e+02	-6.6961	-23.928104	0.000213	2.127977	0.720978	0.000085
1842	1.8318e+02	-6.6688	-23.798915	0.000324	3.242632	1.098634	0.000130
1843	1.8328e+02	-6.6191	-23.689913	0.000274	2.735971	0.926972	0.000110
1844	1.8338e+02	-6.5918	-23.597058	0.000233	2.330642	0.789643	0.000093
1845	1.8348e+02	-6.5356	-23.471907	0.000314	3.141300	1.064301	0.000126
1846	1.8358e+02	-6.5020	-23.350793	0.000304	3.039968	1.029969	0.000122
1847	1.8368e+02	-6.4651	-23.278125	0.000182	1.823981	0.617981	0.000073
1848	1.8378e+02	-6.4185	-23.177196	0.000253	2.533306	0.858307	0.000101
1849	1.8388e+02	-6.3913	-23.035897	0.000355	3.546629	1.201630	0.000142
1850	1.8398e+02	-6.3415	-22.975339	0.000152	1.519984	0.514984	0.000061
1851	1.8407e+02	-6.3014	-22.834040	0.000355	3.546629	1.201630	0.000142
1852	1.8417e+02	-6.2677	-22.749260	0.000213	2.127977	0.720978	0.000085
1853	1.8427e+02	-6.2196	-22.640257	0.000274	2.735971	0.926972	0.000110
1854	1.8437e+02	-6.1955	-22.502995	0.000345	3.445297	1.167298	0.000138
1855	1.8447e+02	-6.1442	-22.398029	0.000263	2.634639	0.892640	0.000105
1856	1.8457e+02	-6.1057	-22.293064	0.000263	2.634639	0.892640	0.000105
1857	1.8467e+02	-6.0656	-22.171949	0.000304	3.039968	1.029969	0.000122
1858	1.8477e+02	-6.0319	-22.099281	0.000182	1.823981	0.617981	0.000073
1859	1.8487e+02	-5.9854	-21.949907	0.000375	3.749294	1.270295	0.000150
1860	1.8497e+02	-5.9469	-21.812644	0.000345	3.445297	1.167298	0.000138
1861	1.8507e+02	-5.9068	-21.735939	0.000193	1.925313	0.652314	0.000077
1862	1.8517e+02	-5.8651	-21.647122	0.000223	2.229310	0.755311	0.000089
1863	1.8527e+02	-5.8186	-21.517933	0.000324	3.242632	1.098634	0.000130
1864	1.8537e+02	-5.7913	-21.425079	0.000233	2.330642	0.789643	0.000093
1865	1.8547e+02	-5.7560	-21.255520	0.000426	4.255955	1.441957	0.000170
1866	1.8557e+02	-5.7079	-21.162666	0.000233	2.330642	0.789643	0.000093
1867	1.8567e+02	-5.6678	-21.073849	0.000223	2.229310	0.755311	0.000089
1868	1.8577e+02	-5.6341	-20.952734	0.000304	3.039968	1.029969	0.000122
1869	1.8587e+02	-5.5908	-20.831620	0.000304	3.039968	1.029969	0.000122
1870	1.8597e+02	-5.5474	-20.706469	0.000314	3.141300	1.064301	0.000126
1871	1.8606e+02	-5.5025	-20.597467	0.000274	2.735971	0.926972	0.000110
1872	1.8616e+02	-5.4640	-20.500575	0.000243	2.431974	0.823975	0.000097
1873	1.8626e+02	-5.4367	-20.403684	0.000243	2.431974	0.823975	0.000097
1874	1.8636e+02	-5.3870	-20.274496	0.000324	3.242632	1.098634	0.000130
1875	1.8646e+02	-5.3421	-20.141270	0.000334	3.343965	1.132966	0.000134
1876	1.8656e+02	-5.3180	-20.032268	0.000274	2.735971	0.926972	0.000110
1877	1.8666e+02	-5.2731	-19.955562	0.000193	1.925313	0.652314	0.000077
1878	1.8676e+02	-5.2282	-19.818299	0.000345	3.445297	1.167298	0.000138
1879	1.8686e+02	-5.1849	-19.685074	0.000334	3.343965	1.132966	0.000134
1880	1.8696e+02	-5.1576	-19.551848	0.000334	3.343965	1.132966	0.000134
1881	1.8706e+02	-5.1031	-19.467069	0.000213	2.127977	0.720978	0.000085
1882	1.8716e+02	-5.0694	-19.362103	0.000263	2.634639	0.892640	0.000105
1883	1.8726e+02	-5.0261	-19.220803	0.000355	3.546629	1.201630	0.000142
1884	1.8736e+02	-4.9940	-19.156209	0.000162	1.621316	0.549317	0.000065
1885	1.8746e+02	-4.9378	-18.986649	0.000426	4.255955	1.441957	0.000170
1886	1.8756e+02	-4.9025	-18.893795	0.000233	2.330642	0.789643	0.000093
1887	1.8766e+02	-4.8753	-18.776718	0.000294	2.938635	0.995637	0.000118
1888	1.8776e+02	-4.8191	-18.611196	0.000415	4.154623	1.407624	0.000166
1889	1.8786e+02	-4.7886	-18.534490	0.000193	1.925313	0.652314	0.000077
1890	1.8796e+02	-4.7437	-18.393190	0.000355	3.546629	1.201630	0.000142
1891	1.8806e+02	-4.7100	-18.284188	0.000274	2.735971	0.926972	0.000110
1892	1.8815e+02	-4.6763	-18.159037	0.000314	3.141300	1.064301	0.000126
1893	1.8825e+02	-4.6314	-18.045997	0.000284	2.837303	0.961304	0.000114
1894	1.8835e+02	-4.5961	-17.973328	0.000182	1.823981	0.617981	0.000073
1895	1.8845e+02	-4.5576	-17.836066	0.000345	3.445297	1.167298	0.000138
1896	1.8855e+02	-4.5239	-17.718989	0.000294	2.938635	0.995637	0.000118
1897	1.8865e+02	-4.4726	-17.561540	0.000395	3.951958	1.338960	0.000158
1898	1.8875e+02	-4.4309	-17.488872	0.000182	1.823981	0.617981	0.000073
1899	1.8885e+02	-4.3908	-17.339498	0.000375	3.749294	1.270295	0.000150
1900	1.8895e+02	-4.3507	-17.218384	0.000304	3.039968	1.029969	0.000122
1901	1.8905e+02	-4.3106	-17.089196	0.000324	3.242632	1.098634	0.000130
1902	1.8915e+02	-4.2705	-17.000379	0.000223	2.229310	0.755311	0.000089
1903	1.8925e+02	-4.2320	-16.834856	0.000415	4.154623	1.407624	0.000166
1904	1.8935e+02	-4.1919	-16.746039	0.000223	2.229310	0.755311	0.000089
1905	1.8945e+02	-4.1502	-16.628962	0.000294	2.938635	0.995637	0.000118
1906	1.8955e+02	-4.1052	-16.544182	0.000213	2.127977	0.720978	0.000085
1907	1.8965e+02	-4.0699	-16.386734	0.000395	3.951958	1.338960	0.000158
1908	1.8975e+02	-4.0362	-16.293880	0.000233	2.330642	0.789643	0.000093
1909	1.8985e+02	-3.9977	-16.124320	0.000426	4.255955	1.441957	0.000170
1910	1.8995e+02	-3.9480	-16.007243	0.000294	2.938635	0.995637	0.000118
1911	1.9004e+02	-3.9191	-15.902278	0.000263	2.634639	0.892640	0.000105
1912	1.9014e+02	-3.8678	-15.769052	0.000334	3.343965	1.132966	0.000134
1913	1.9024e+02	-3.8389	-15.611604	0.000395	3.951958	1.338960	0.000158
1914	1.9034e+02	-3.7956	-15.547010	0.000162	1.621316	0.549317	0.000065
1915	1.9044e+02	-3.7571	-15.353227	0.000486	4.863948	1.647950	0.000195
1916	1.9054e+02	-3.7138	-15.280559	0.000182	1.823981	0.617981	0.000073
1917	1.9064e+02	-3.6785	-15.127148	0.000385	3.850626	1.304627	0.000154
1918	1.9074e+02	-3.6416	-14.981811	0.000365	3.647961	1.235963	0.000146
1919	1.9084e+02	-3.5919	-14.925291	0.000142	1.418652	0.480652	0.000057
1920	1.9094e+02	-3.5502	-14.767843	0.000395	3.951958	1.338960	0.000158
1921	1.9104e+02	-3.5133	-14.658840	0.000274	2.735971	0.926972	0.000110
1922	1.9114e+02	-3.4796	-14.541763	0.000294	2.938635	0.995637	0.000118
1923	1.9124e+02	-3.4411	-14.376240	0.000415	4.154623	1.407624	0.000166
1924	1.9134e+02	-3.3913	-14.291461	0.000213	2.127977	0.720978	0.000085
1925	1.9144e+02	-3.3625	-14.134012	0.000395	3.951958	1.338960	0.000158
1926	1.9154e+02	-3.3159	-13.980601	0.000385	3.850626	1.304627	0.000154
1927	1.9164e+02	-3.2791	-13.911970	0.000172	1.722648	0.583649	0.000069
1928	1.9174e+02	-3.2373	-13.758559	0.000385	3.850626	1.304627	0.000154
1929	1.9184e+02	-3.2069	-13.649556	0.000274	2.735971	0.926972	0.000110
1930	1.9194e+02	-3.1523	-13.512293	0.000345	3.445297	1.167298	0.000138
1931	1.9203e+02	-3.1090	-13.370994	0.000355	3.546629	1.201630	0.000142
1932	1.9213e+02	-3.0753	-13.282177	0.000223	2.229310	0.755311	0.000089
1933	1.9223e+02	-3.0384	-13.144914	0.000345	3.445297	1.167298	0.000138
1934	1.9233e+02	-2.9951	-12.991503	0.000385	3.850626	1.304627	0.000154
1935	1.9243e+02	-2.9598	-12.870389	0.000304	3.039968	1.029969	0.000122
1936	1.9253e+02	-2.9213	-12.753312	0.000294	2.938635	0.995637	0.000118
1937	1.9263e+02	-2.8796	-12.612012	0.000355	3.546629	1.201630	0.000142
1938	1.9273e+02	-2.8395	-12.531269	0.000203	2.026645	0.686646	0.000081
1939	1.9283e+02	-2.7946	-12.385932	0.000365	3.647961	1.235963	0.000146
1940	1.9293e+02	-2.7529	-12.252707	0.000334	3.343965	1.132966	0.000134
1941	1.9303e+02	-2.7240	-12.151779	0.000253	2.533306	0.858307	0.000101
1942	1.9313e+02	-2.6710	-11.994330	0.000395	3.951958	1.338960	0.000158
1943	1.9323e+02	-2.6325	-11.901476	0.000233	2.330642	0.789643	0.000093
1944	1.9333e+02	-2.5924	-11.764214	0.000345	3.445297	1.167298	0.000138
1945	1.9343e+02	-2.5652	-11.659248	0.000263	2.634639	0.892640	0.000105
1946	1.9353e+02	-2.5219	-11.521985	0.000345	3.445297	1.167298	0.000138
1947	1.9363e+02	-2.4737	-11.352426	0.000426	4.255955	1.441957	0.000170
1948	1.9373e+02	-2.4352	-11.267646	0.000213	2.127977	0.720978	0.000085
1949	1.9383e+02	-2.3967	-11.126346	0.000355	3.546629	1.201630	0.000142
1950	1.9393e+02	-2.3614	-10.993121	0.000334	3.343965	1.132966	0.000134
1951	1.9403e+02	-2.3197	-10.855858	0.000345	3.445297	1.167298	0.000138
1952	1.9412e+02	-2.2876	-10.787227	0.000172	1.722648	0.583649	0.000069
1953	1.9422e+02	-2.2395	-10.654001	0.000334	3.343965	1.132966	0.000134
1954	1.9432e+02	-2.2058	-10.508664	0.000365	3.647961	1.235963	0.000146
1955	1.9442e+02	-2.1529	-10.415810	0.000233	2.330642	0.789643	0.000093
1956	1.9452e+02	-2.1160	-10.294696	0.000304	3.039968	1.029969	0.000122
1957	1.9462e+02	-2.0871	-10.145322	0.000375	3.749294	1.270295	0.000150
1958	1.9472e+02	-2.0454	-9.991911	0.000385	3.850626	1.304627	0.000154
1959	1.9482e+02	-1.9973	-9.899057	0.000233	2.330642	0.789643	0.000093
1960	1.9492e+02	-1.9604	-9.761794	0.000345	3.445297	1.167298	0.000138
1961	1.9502e+02	-1.9299	-9.648754	0.000284	2.837303	0.961304	0.000114
1962	1.9512e+02	-1.8850	-9.539752	0.000274	2.735971	0.926972	0.000110
1963	1.9522e+02	-1.8481	-9.390378	0.000375	3.749294	1.270295	0.000150
1964	1.9532e+02	-1.7999	-9.241004	0.000375	3.749294	1.270295	0.000150
1965	1.9542e+02	-1.7582	-9.123927	0.000294	2.938635	0.995637	0.000118
1966	1.9552e+02	-1.7229	-9.006850	0.000294	2.938635	0.995637	0.000118
1967	1.9562e+02	-1.6844	-8.881699	0.000314	3.141300	1.064301	0.000126
1968	1.9572e+02	-1.6427	-8.744436	0.000345	3.445297	1.167298	0.000138
1969	1.9582e+02	-1.5978	-8.631396	0.000284	2.837303	0.961304	0.000114
1970	1.9592e+02	-1.5625	-8.486059	0.000365	3.647961	1.235963	0.000146
1971	1.9601e+02	-1.5320	-8.373020	0.000284	2.837303	0.961304	0.000114
1972	1.9611e+02	-1.4839	-8.223645	0.000375	3.749294	1.270295	0.000150
1973	1.9621e+02	-1.4454	-8.090420	0.000334	3.343965	1.132966	0.000134
1974	1.9631e+02	-1.4053	-7.989492	0.000253	2.533306	0.858307	0.000101
1975	1.9641e+02	-1.3636	-7.876452	0.000284	2.837303	0.961304	0.000114
1976	1.9651e+02	-1.3267	-7.735152	0.000355	3.546629	1.201630	0.000142
1977	1.9661e+02	-1.2882	-7.605964	0.000324	3.242632	1.098634	0.000130
1978	1.9671e+02	-1.2465	-7.476775	0.000324	3.242632	1.098634	0.000130
1979	1.9681e+02	-1.2096	-7.351624	0.000314	3.141300	1.064301	0.000126
1980	1.9691e+02	-1.1647	-7.226473	0.000314	3.141300	1.064301	0.000126
1981	1.9701e+02	-1.1198	-7.121507	0.000263	2.634639	0.892640	0.000105
1982	1.9711e+02	-1.0845	-6.955985	0.000415	4.154623	1.407624	0.000166
1983	1.9721e+02	-1.0428	-6.810648	0.000365	3.647961	1.235963	0.000146
1984	1.9731e+02	-0.9946	-6.701645	0.000274	2.735971	0.926972	0.000110
1985	1.9741e+02	-0.9690	-6.572457	0.000324	3.242632	1.098634	0.000130
1986	1.9751e+02	-0.9289	-6.431157	0.000355	3.546629	1.201630	0.000142
1987	1.9761e+02	-0.8936	-6.334266	0.000243	2.431974	0.823975	0.000097
1988	1.9771e+02	-0.8438	-6.184892	0.000375	3.749294	1.270295	0.000150
1989	1.9781e+02	-0.8085	-6.075889	0.000274	2.735971	0.926972	0.000110
1990	1.9791e+02	-0.7797	-5.962849	0.000284	2.837303	0.961304	0.000114
1991	1.9800e+02	-0.7171	-5.797327	0.000415	4.154623	1.407624	0.000166
1992	1.9810e+02	-0.6898	-5.664101	0.000334	3.343965	1.132966	0.000134
1993	1.9820e+02	-0.6449	-5.563173	0.000253	2.533306	0.858307	0.000101
1994	1.9830e+02	-0.6080	-5.373428	0.000476	4.762616	1.613618	0.000191
1995	1.9840e+02	-0.5615	-5.228091	0.000365	3.647961	1.235963	0.000146
1996	1.9850e+02	-0.5278	-5.123125	0.000263	2.634639	0.892640	0.000105
1997	1.9860e+02	-0.4957	-5.018160	0.000263	2.634639	0.892640	0.000105
1998	1.9870e+02	-0.4492	-4.876860	0.000355	3.546629	1.201630	0.000142
1999	1.9880e+02	-0.4059	-4.747672	0.000324	3.242632	1.098634	0.000130
2000	1.9890e+02	-0.3738	-4.606372	0.000355	3.546629	1.201630	0.000142
2001	1.9900e+02	-0.3273	-4.477184	0.000324	3.242632	1.098634	0.000130
2002	1.9910e+02	-0.2807	-4.364144	0.000284	2.837303	0.961304	0.000114
2003	1.9920e+02	-0.2438	-4.275327	0.000223	2.229310	0.755311	0.000089
2004	1.9930e+02	-0.2086	-4.089619	0.000466	4.661284	1.579286	0.000187
2005	1.9940e+02	-0.1700	-3.948319	0.000355	3.546629	1.201630	0.000142
2006	1.9950e+02	-0.1348	-3.831242	0.000294	2.938635	0.995637	0.000118
2007	1.9960e+02	-0.0882	-3.742425	0.000223	2.229310	0.755311	0.000089
2008	1.9970e+02	-0.0497	-3.605162	0.000345	3.445297	1.167298	0.000138
2009	1.9980e+02	0.0016	-3.471937	0.000345	3.445297	1.167298	0.000134

Center data before PMax,+/-Pr and +/-Vc Calc.

PMax (uC/cm2):	5.44e+01
Pr (uC/cm2):	1.46e+00
-Pr (uC/cm2):	-3.47e+00
PLoss (uC/cm2):	-1.44e+00
Vc:	6.45e-01
-Vc:	-4.30e-01
C (Max-Eff) (nF):	2.72e-01
K (Eff):	9.22e+02
Vert. (+/-Pr) Shift (uC/cm2):	-1.01e+00
Horiz. Shift (+/-Vc):	1.08e-01
Offset (uC/cm2):	1.99e+00

A (Loop Area - uC/cm2·Volts):	2.41e-02



Hysteresis Version: 5.48.1 - Radiant Technologies, Inc., 1999 - 9/12/24

