»»»»»»»»»»»»»»»»»»»»»»»»»»»»»»»»»»»» Hysteresis ««««««««««««««««««««««««««««««««««««
»»»  Executed Version:	5.48.1
»»»  Vision Version:	5.48.4 (R)
»»»  Vision Compiled:	9/18/24
»»»  Driver Version:	5.47.0
»»»  Windows Version:	Windows 8 or 8.1
»»»  Processor Information:	x86 (AMD or Intel) - 32 Processors
»»»  Tester Name:	PMF21124-494 (100V)
»»»  Tester S/N:	PMF21124-494
»»»  Internal Amp Type:	100V RevK 270k
»»»  Internal Amp S/N:	iAB2-596/K     
»»»  Execution Count:	1
»»»»»»»»»»»»»»»»»»»»»»»»»»»»»»»»»»»»»»»»»»««««««««««««««««««««««««««««««««««««««««««

Stored:	6/9/2025 - 15:41:12
Configured:	06/09/25 02:47:45 PM
Executed:	06/09/25 03:40:39 PM

»»»»»»»»»»»»»»»»»»»»»»»»»»»»»»»»»»» Sample Info ««««««««««««««««««««««««««««««««««««
Sample Name:	
Lot Name:	
Wafer Name:	
Die Row/Column:	0/0
Capacitor Number:	0
Sample Area (cm2):	1.00e-04
Sample Thickness (microns):	3.00e-01

Amplifier:	Internal

»»»»»»»»»»»»»»»»»»»»»»»»»»»»»»»»»»» Tester Info «««««««««««««««««««««««««««««««««««
Tester Name:	PMF21124-494 (100V)
Tester Serial Number:	PMF21124-494
Return Signal Amp. Level:	0.19 [Index: 3]

»»»»»»»»»»»»»»»»»»»»»»»»»»»»»»»» Hysteresis Info ««««««««««««««««««««««««««««««««««
Task Name:	Hyst-927
Volts:	20.00
Field:	666.67 (kV/cm)
DCBias:	0.00
DCField:	0.00 (kV/cm)
Hysteresis Period (ms):	2.00e+02
Preset:	Enabled
Preset Delay (ms):	1.00e+03
Profile:	Standard Bipolar

»»»»»»»»»»»»»»»»»»»»»»»»»»»»»»»»»»»»»» Data «««««««««««««««««««««««««««««««««««««««
Points:	2009

Valid Data

Point	Time (ms)	Drive Voltage	Measured Polarization (uC/cm2)	Capacitance (uF)	Normalized Capacitance (uF/cm2)	Dielectric Constant	Instantaneous Current (mA)
   1	0.0000e+00	-0.0048	-2.163905	0.000223	2.229533	0.755386	0.000089
   2	9.9500e-02	0.0305	-2.075088	0.000223	2.229533	0.755386	0.000089
   3	1.9900e-01	0.0738	-1.929751	0.000365	3.648327	1.236087	0.000146
   4	2.9850e-01	0.1059	-1.788451	0.000355	3.546985	1.201751	0.000142
   5	3.9800e-01	0.1428	-1.626966	0.000405	4.053697	1.373430	0.000162
   6	4.9750e-01	0.1877	-1.485666	0.000355	3.546985	1.201751	0.000142
   7	5.9700e-01	0.2326	-1.320143	0.000416	4.155039	1.407765	0.000166
   8	6.9650e-01	0.2791	-1.186918	0.000334	3.344300	1.133079	0.000134
   9	7.9600e-01	0.3016	-1.037544	0.000375	3.749670	1.270422	0.000150
  10	8.9550e-01	0.3353	-0.908356	0.000324	3.242957	1.098744	0.000130
  11	9.9500e-01	0.3834	-0.767056	0.000355	3.546985	1.201751	0.000142
  12	1.0945e+00	0.4299	-0.609607	0.000395	3.952354	1.339094	0.000158
  13	1.1940e+00	0.4716	-0.460233	0.000375	3.749670	1.270422	0.000150
  14	1.2935e+00	0.5085	-0.298748	0.000405	4.053697	1.373430	0.000162
  15	1.3930e+00	0.5503	-0.169560	0.000324	3.242957	1.098744	0.000130
  16	1.4925e+00	0.5904	-0.004037	0.000416	4.155039	1.407765	0.000166
  17	1.5920e+00	0.6321	0.157448	0.000405	4.053697	1.373430	0.000162
  18	1.6915e+00	0.6625	0.286637	0.000324	3.242957	1.098744	0.000130
  19	1.7910e+00	0.7107	0.427936	0.000355	3.546985	1.201751	0.000142
  20	1.8905e+00	0.7460	0.593459	0.000416	4.155039	1.407765	0.000166
  21	1.9900e+00	0.7845	0.742833	0.000375	3.749670	1.270422	0.000150
  22	2.0895e+00	0.8374	0.916430	0.000436	4.357724	1.476437	0.000174
  23	2.1890e+00	0.8599	1.041581	0.000314	3.141615	1.064408	0.000126
  24	2.2885e+00	0.8984	1.178844	0.000345	3.445642	1.167415	0.000138
  25	2.3880e+00	0.9433	1.328218	0.000375	3.749670	1.270422	0.000150
  26	2.4875e+00	0.9786	1.461443	0.000334	3.344300	1.133079	0.000134
  27	2.5870e+00	1.0219	1.643114	0.000456	4.560409	1.545108	0.000183
  28	2.6865e+00	1.0700	1.768265	0.000314	3.141615	1.064408	0.000126
  29	2.7860e+00	1.1053	1.945899	0.000446	4.459066	1.510773	0.000179
  30	2.8855e+00	1.1470	2.111422	0.000416	4.155039	1.407765	0.000166
  31	2.9850e+00	1.1887	2.240610	0.000324	3.242957	1.098744	0.000130
  32	3.0845e+00	1.2288	2.341539	0.000253	2.533560	0.858394	0.000101
  33	3.1840e+00	1.2657	2.515136	0.000436	4.357724	1.476437	0.000174
  34	3.2835e+00	1.3155	2.684695	0.000426	4.256382	1.442101	0.000170
  35	3.3830e+00	1.3476	2.838106	0.000385	3.851012	1.304758	0.000154
  36	3.4825e+00	1.3812	3.003629	0.000416	4.155039	1.407765	0.000166
  37	3.5820e+00	1.4262	3.124743	0.000304	3.040273	1.030072	0.000122
  38	3.6815e+00	1.4647	3.278154	0.000385	3.851012	1.304758	0.000154
  39	3.7810e+00	1.5128	3.447714	0.000426	4.256382	1.442101	0.000170
  40	3.8805e+00	1.5353	3.568828	0.000304	3.040273	1.030072	0.000122
  41	3.9800e+00	1.5962	3.726276	0.000395	3.952354	1.339094	0.000158
  42	4.0795e+00	1.6203	3.859502	0.000334	3.344300	1.133079	0.000134
  43	4.1790e+00	1.6572	4.045210	0.000466	4.661751	1.579444	0.000187
  44	4.2785e+00	1.7005	4.202658	0.000395	3.952354	1.339094	0.000158
  45	4.3780e+00	1.7454	4.323772	0.000304	3.040273	1.030072	0.000122
  46	4.4775e+00	1.7903	4.509481	0.000466	4.661751	1.579444	0.000187
  47	4.5770e+00	1.8176	4.630595	0.000304	3.040273	1.030072	0.000122
  48	4.6765e+00	1.8625	4.751709	0.000304	3.040273	1.030072	0.000122
  49	4.7760e+00	1.9026	4.945491	0.000486	4.864436	1.648116	0.000195
  50	4.8755e+00	1.9427	5.042383	0.000243	2.432218	0.824058	0.000097
  51	4.9750e+00	1.9828	5.248276	0.000517	5.168463	1.751123	0.000207
  52	5.0745e+00	2.0245	5.385539	0.000345	3.445642	1.167415	0.000138
  53	5.1740e+00	2.0646	5.510690	0.000314	3.141615	1.064408	0.000126
  54	5.2735e+00	2.0967	5.692361	0.000456	4.560409	1.545108	0.000183
  55	5.3730e+00	2.1352	5.861921	0.000426	4.256382	1.442101	0.000170
  56	5.4725e+00	2.1769	5.987072	0.000314	3.141615	1.064408	0.000126
  57	5.5720e+00	2.2251	6.168743	0.000456	4.560409	1.545108	0.000183
  58	5.6715e+00	2.2604	6.297932	0.000324	3.242957	1.098744	0.000130
  59	5.7710e+00	2.2973	6.467491	0.000426	4.256382	1.442101	0.000170
  60	5.8705e+00	2.3470	6.608791	0.000355	3.546985	1.201751	0.000142
  61	5.9700e+00	2.3887	6.778351	0.000426	4.256382	1.442101	0.000170
  62	6.0695e+00	2.4240	6.935799	0.000395	3.952354	1.339094	0.000158
  63	6.1690e+00	2.4641	7.056913	0.000304	3.040273	1.030072	0.000122
  64	6.2685e+00	2.4882	7.206287	0.000375	3.749670	1.270422	0.000150
  65	6.3680e+00	2.5507	7.379884	0.000436	4.357724	1.476437	0.000174
  66	6.4675e+00	2.5764	7.517147	0.000345	3.445642	1.167415	0.000138
  67	6.5670e+00	2.6229	7.674595	0.000395	3.952354	1.339094	0.000158
  68	6.6665e+00	2.6566	7.807821	0.000334	3.344300	1.133079	0.000134
  69	6.7660e+00	2.7015	7.957195	0.000375	3.749670	1.270422	0.000150
  70	6.8655e+00	2.7368	8.102531	0.000365	3.648327	1.236087	0.000146
  71	6.9650e+00	2.7753	8.264017	0.000405	4.053697	1.373430	0.000162
  72	7.0645e+00	2.8234	8.401279	0.000345	3.445642	1.167415	0.000138
  73	7.1640e+00	2.8571	8.546616	0.000365	3.648327	1.236087	0.000146
  74	7.2635e+00	2.8956	8.736362	0.000476	4.763094	1.613780	0.000191
  75	7.3630e+00	2.9325	8.869587	0.000334	3.344300	1.133079	0.000134
  76	7.4625e+00	2.9742	9.018961	0.000375	3.749670	1.270422	0.000150
  77	7.5620e+00	3.0127	9.127964	0.000274	2.736245	0.927065	0.000110
  78	7.6615e+00	3.0561	9.293486	0.000416	4.155039	1.407765	0.000166
  79	7.7610e+00	3.0994	9.450935	0.000395	3.952354	1.339094	0.000158
  80	7.8605e+00	3.1299	9.580123	0.000324	3.242957	1.098744	0.000130
  81	7.9600e+00	3.1748	9.717386	0.000345	3.445642	1.167415	0.000138
  82	8.0595e+00	3.2165	9.886945	0.000426	4.256382	1.442101	0.000170
  83	8.1590e+00	3.2566	10.036319	0.000375	3.749670	1.270422	0.000150
  84	8.2585e+00	3.2983	10.153396	0.000294	2.938930	0.995736	0.000118
  85	8.3580e+00	3.3368	10.322956	0.000426	4.256382	1.442101	0.000170
  86	8.4575e+00	3.3769	10.468293	0.000365	3.648327	1.236087	0.000146
  87	8.5570e+00	3.4138	10.609593	0.000355	3.546985	1.201751	0.000142
  88	8.6565e+00	3.4491	10.783190	0.000436	4.357724	1.476437	0.000174
  89	8.7560e+00	3.5020	10.916415	0.000334	3.344300	1.133079	0.000134
  90	8.8555e+00	3.5421	11.045603	0.000324	3.242957	1.098744	0.000130
  91	8.9550e+00	3.5710	11.211126	0.000416	4.155039	1.407765	0.000166
  92	9.0545e+00	3.6063	11.344351	0.000334	3.344300	1.133079	0.000134
  93	9.1540e+00	3.6512	11.473540	0.000324	3.242957	1.098744	0.000130
  94	9.2535e+00	3.6897	11.614840	0.000355	3.546985	1.201751	0.000142
  95	9.3530e+00	3.7395	11.752102	0.000345	3.445642	1.167415	0.000138
  96	9.4525e+00	3.7780	11.917625	0.000416	4.155039	1.407765	0.000166
  97	9.5520e+00	3.8197	12.046813	0.000324	3.242957	1.098744	0.000130
  98	9.6515e+00	3.8614	12.180039	0.000334	3.344300	1.133079	0.000134
  99	9.7510e+00	3.8951	12.325375	0.000365	3.648327	1.236087	0.000146
 100	9.8505e+00	3.9256	12.486861	0.000405	4.053697	1.373430	0.000162
 101	9.9500e+00	3.9769	12.632198	0.000365	3.648327	1.236087	0.000146
 102	1.0050e+01	4.0154	12.789646	0.000395	3.952354	1.339094	0.000158
 103	1.0149e+01	4.0571	12.890574	0.000253	2.533560	0.858394	0.000101
 104	1.0248e+01	4.0940	13.084357	0.000486	4.864436	1.648116	0.000195
 105	1.0348e+01	4.1309	13.209508	0.000314	3.141615	1.064408	0.000126
 106	1.0447e+01	4.1774	13.338696	0.000324	3.242957	1.098744	0.000130
 107	1.0547e+01	4.2127	13.479996	0.000355	3.546985	1.201751	0.000142
 108	1.0646e+01	4.2608	13.645519	0.000416	4.155039	1.407765	0.000166
 109	1.0746e+01	4.2929	13.774707	0.000324	3.242957	1.098744	0.000130
 110	1.0845e+01	4.3378	13.928118	0.000385	3.851012	1.304758	0.000154
 111	1.0945e+01	4.3683	14.101715	0.000436	4.357724	1.476437	0.000174
 112	1.1044e+01	4.4132	14.226866	0.000314	3.141615	1.064408	0.000126
 113	1.1144e+01	4.4501	14.372203	0.000365	3.648327	1.236087	0.000146
 114	1.1243e+01	4.5031	14.517540	0.000365	3.648327	1.236087	0.000146
 115	1.1343e+01	4.5432	14.646728	0.000324	3.242957	1.098744	0.000130
 116	1.1443e+01	4.5785	14.792065	0.000365	3.648327	1.236087	0.000146
 117	1.1542e+01	4.6138	14.949514	0.000395	3.952354	1.339094	0.000158
 118	1.1642e+01	4.6523	15.066591	0.000294	2.938930	0.995736	0.000118
 119	1.1741e+01	4.7004	15.199816	0.000334	3.344300	1.133079	0.000134
 120	1.1841e+01	4.7293	15.337079	0.000345	3.445642	1.167415	0.000138
 121	1.1940e+01	4.7694	15.494527	0.000395	3.952354	1.339094	0.000158
 122	1.2040e+01	4.8095	15.639864	0.000365	3.648327	1.236087	0.000146
 123	1.2139e+01	4.8464	15.805386	0.000416	4.155039	1.407765	0.000166
 124	1.2239e+01	4.8913	15.938612	0.000334	3.344300	1.133079	0.000134
 125	1.2338e+01	4.9282	16.096060	0.000395	3.952354	1.339094	0.000158
 126	1.2438e+01	4.9731	16.196989	0.000253	2.533560	0.858394	0.000101
 127	1.2537e+01	5.0052	16.326177	0.000324	3.242957	1.098744	0.000130
 128	1.2636e+01	5.0453	16.507848	0.000456	4.560409	1.545108	0.000183
 129	1.2736e+01	5.0934	16.628962	0.000304	3.040273	1.030072	0.000122
 130	1.2835e+01	5.1351	16.774299	0.000365	3.648327	1.236087	0.000146
 131	1.2935e+01	5.1672	16.935784	0.000405	4.053697	1.373430	0.000162
 132	1.3034e+01	5.2122	17.069010	0.000334	3.344300	1.133079	0.000134
 133	1.3134e+01	5.2474	17.214347	0.000365	3.648327	1.236087	0.000146
 134	1.3233e+01	5.2843	17.343535	0.000324	3.242957	1.098744	0.000130
 135	1.3333e+01	5.3341	17.500983	0.000395	3.952354	1.339094	0.000158
 136	1.3432e+01	5.3742	17.630172	0.000324	3.242957	1.098744	0.000130
 137	1.3532e+01	5.4095	17.735137	0.000263	2.634903	0.892729	0.000105
 138	1.3632e+01	5.4544	17.916808	0.000456	4.560409	1.545108	0.000183
 139	1.3731e+01	5.4865	18.033885	0.000294	2.938930	0.995736	0.000118
 140	1.3831e+01	5.5250	18.215556	0.000456	4.560409	1.545108	0.000183
 141	1.3930e+01	5.5699	18.344745	0.000324	3.242957	1.098744	0.000130
 142	1.4030e+01	5.6148	18.445673	0.000253	2.533560	0.858394	0.000101
 143	1.4129e+01	5.6549	18.603121	0.000395	3.952354	1.339094	0.000158
 144	1.4229e+01	5.6774	18.732310	0.000324	3.242957	1.098744	0.000130
 145	1.4328e+01	5.7207	18.893795	0.000405	4.053697	1.373430	0.000162
 146	1.4428e+01	5.7736	18.998761	0.000263	2.634903	0.892729	0.000105
 147	1.4527e+01	5.8041	19.152172	0.000385	3.851012	1.304758	0.000154
 148	1.4627e+01	5.8410	19.285397	0.000334	3.344300	1.133079	0.000134
 149	1.4726e+01	5.8843	19.426697	0.000355	3.546985	1.201751	0.000142
 150	1.4825e+01	5.9276	19.576071	0.000375	3.749670	1.270422	0.000150
 151	1.4925e+01	5.9694	19.689111	0.000284	2.837588	0.961401	0.000114
 152	1.5024e+01	6.0127	19.858671	0.000426	4.256382	1.442101	0.000170
 153	1.5124e+01	6.0399	19.987859	0.000324	3.242957	1.098744	0.000130
 154	1.5223e+01	6.0752	20.117047	0.000324	3.242957	1.098744	0.000130
 155	1.5323e+01	6.1250	20.262384	0.000365	3.648327	1.236087	0.000146
 156	1.5422e+01	6.1667	20.395610	0.000334	3.344300	1.133079	0.000134
 157	1.5522e+01	6.2052	20.512687	0.000294	2.938930	0.995736	0.000118
 158	1.5621e+01	6.2421	20.682246	0.000426	4.256382	1.442101	0.000170
 159	1.5721e+01	6.2902	20.791249	0.000274	2.736245	0.927065	0.000110
 160	1.5820e+01	6.3239	20.916400	0.000314	3.141615	1.064408	0.000126
 161	1.5920e+01	6.3768	21.102109	0.000466	4.661751	1.579444	0.000187
 162	1.6020e+01	6.4041	21.243408	0.000355	3.546985	1.201751	0.000142
 163	1.6119e+01	6.4394	21.368559	0.000314	3.141615	1.064408	0.000126
 164	1.6218e+01	6.4859	21.509859	0.000355	3.546985	1.201751	0.000142
 165	1.6318e+01	6.5132	21.622899	0.000284	2.837588	0.961401	0.000114
 166	1.6418e+01	6.5693	21.792459	0.000426	4.256382	1.442101	0.000170
 167	1.6517e+01	6.5918	21.925684	0.000334	3.344300	1.133079	0.000134
 168	1.6616e+01	6.6399	22.071021	0.000365	3.648327	1.236087	0.000146
 169	1.6716e+01	6.6800	22.204247	0.000334	3.344300	1.133079	0.000134
 170	1.6816e+01	6.7137	22.329398	0.000314	3.141615	1.064408	0.000126
 171	1.6915e+01	6.7618	22.454549	0.000314	3.141615	1.064408	0.000126
 172	1.7015e+01	6.8084	22.603923	0.000375	3.749670	1.270422	0.000150
 173	1.7114e+01	6.8404	22.753297	0.000375	3.749670	1.270422	0.000150
 174	1.7213e+01	6.8854	22.858263	0.000263	2.634903	0.892729	0.000105
 175	1.7313e+01	6.9207	23.039934	0.000456	4.560409	1.545108	0.000183
 176	1.7413e+01	6.9672	23.173159	0.000334	3.344300	1.133079	0.000134
 177	1.7512e+01	7.0009	23.286199	0.000284	2.837588	0.961401	0.000114
 178	1.7611e+01	7.0522	23.439610	0.000385	3.851012	1.304758	0.000154
 179	1.7711e+01	7.0763	23.548613	0.000274	2.736245	0.927065	0.000110
 180	1.7811e+01	7.1228	23.762581	0.000537	5.371148	1.819794	0.000215
 181	1.7910e+01	7.1581	23.827175	0.000162	1.621479	0.549372	0.000065
 182	1.8009e+01	7.2014	24.020958	0.000486	4.864436	1.648116	0.000195
 183	1.8109e+01	7.2479	24.138035	0.000294	2.938930	0.995736	0.000118
 184	1.8209e+01	7.2752	24.247037	0.000274	2.736245	0.927065	0.000110
 185	1.8308e+01	7.3297	24.404486	0.000395	3.952354	1.339094	0.000158
 186	1.8407e+01	7.3554	24.533674	0.000324	3.242957	1.098744	0.000130
 187	1.8507e+01	7.4051	24.670936	0.000345	3.445642	1.167415	0.000138
 188	1.8607e+01	7.4340	24.767828	0.000243	2.432218	0.824058	0.000097
 189	1.8706e+01	7.4837	24.969685	0.000507	5.067121	1.716787	0.000203
 190	1.8805e+01	7.5271	25.074650	0.000263	2.634903	0.892729	0.000105
 191	1.8905e+01	7.5543	25.219987	0.000365	3.648327	1.236087	0.000146
 192	1.9005e+01	7.6041	25.365324	0.000365	3.648327	1.236087	0.000146
 193	1.9104e+01	7.6394	25.494512	0.000324	3.242957	1.098744	0.000130
 194	1.9203e+01	7.6682	25.599478	0.000263	2.634903	0.892729	0.000105
 195	1.9303e+01	7.7196	25.777112	0.000446	4.459066	1.510773	0.000179
 196	1.9402e+01	7.7517	25.841706	0.000162	1.621479	0.549372	0.000065
 197	1.9502e+01	7.7998	26.019340	0.000446	4.459066	1.510773	0.000179
 198	1.9602e+01	7.8367	26.180825	0.000405	4.053697	1.373430	0.000162
 199	1.9701e+01	7.8800	26.285791	0.000263	2.634903	0.892729	0.000105
 200	1.9800e+01	7.9121	26.423053	0.000345	3.445642	1.167415	0.000138
 201	1.9900e+01	7.9602	26.532056	0.000274	2.736245	0.927065	0.000110
 202	2.0000e+01	8.0035	26.693541	0.000405	4.053697	1.373430	0.000162
 203	2.0099e+01	8.0388	26.826767	0.000334	3.344300	1.133079	0.000134
 204	2.0198e+01	8.0741	26.976141	0.000375	3.749670	1.270422	0.000150
 205	2.0298e+01	8.1062	27.089181	0.000284	2.837588	0.961401	0.000114
 206	2.0398e+01	8.1559	27.218369	0.000324	3.242957	1.098744	0.000130
 207	2.0497e+01	8.1976	27.335446	0.000294	2.938930	0.995736	0.000118
 208	2.0596e+01	8.2377	27.464634	0.000324	3.242957	1.098744	0.000130
 209	2.0696e+01	8.2827	27.626120	0.000405	4.053697	1.373430	0.000162
 210	2.0796e+01	8.3163	27.743197	0.000294	2.938930	0.995736	0.000118
 211	2.0895e+01	8.3516	27.872385	0.000324	3.242957	1.098744	0.000130
 212	2.0994e+01	8.3982	28.001573	0.000324	3.242957	1.098744	0.000130
 213	2.1094e+01	8.4383	28.146910	0.000365	3.648327	1.236087	0.000146
 214	2.1194e+01	8.4800	28.304359	0.000395	3.952354	1.339094	0.000158
 215	2.1293e+01	8.5089	28.397213	0.000233	2.330876	0.789722	0.000093
 216	2.1392e+01	8.5554	28.550624	0.000385	3.851012	1.304758	0.000154
 217	2.1492e+01	8.5971	28.663664	0.000284	2.837588	0.961401	0.000114
 218	2.1591e+01	8.6404	28.821112	0.000395	3.952354	1.339094	0.000158
 219	2.1691e+01	8.6645	28.905892	0.000213	2.128191	0.721051	0.000085
 220	2.1791e+01	8.7110	29.123897	0.000547	5.472491	1.854130	0.000219
 221	2.1890e+01	8.7559	29.200603	0.000193	1.925506	0.652379	0.000077
 222	2.1989e+01	8.7960	29.349977	0.000375	3.749670	1.270422	0.000150
 223	2.2089e+01	8.8297	29.454942	0.000263	2.634903	0.892729	0.000105
 224	2.2189e+01	8.8762	29.640651	0.000466	4.661751	1.579444	0.000187
 225	2.2288e+01	8.9243	29.733505	0.000233	2.330876	0.789722	0.000093
 226	2.2387e+01	8.9580	29.866730	0.000334	3.344300	1.133079	0.000134
 227	2.2487e+01	8.9965	29.979770	0.000284	2.837588	0.961401	0.000114
 228	2.2587e+01	9.0334	30.112995	0.000334	3.344300	1.133079	0.000134
 229	2.2686e+01	9.0800	30.246221	0.000334	3.344300	1.133079	0.000134
 230	2.2785e+01	9.1153	30.375409	0.000324	3.242957	1.098744	0.000130
 231	2.2885e+01	9.1538	30.508635	0.000334	3.344300	1.133079	0.000134
 232	2.2985e+01	9.1890	30.645897	0.000345	3.445642	1.167415	0.000138
 233	2.3084e+01	9.2420	30.779123	0.000334	3.344300	1.133079	0.000134
 234	2.3183e+01	9.2773	30.912348	0.000334	3.344300	1.133079	0.000134
 235	2.3283e+01	9.3094	31.065760	0.000385	3.851012	1.304758	0.000154
 236	2.3383e+01	9.3511	31.182836	0.000294	2.938930	0.995736	0.000118
 237	2.3482e+01	9.3976	31.307988	0.000314	3.141615	1.064408	0.000126
 238	2.3581e+01	9.4329	31.416990	0.000274	2.736245	0.927065	0.000110
 239	2.3681e+01	9.4762	31.566364	0.000375	3.749670	1.270422	0.000150
 240	2.3780e+01	9.5179	31.691516	0.000314	3.141615	1.064408	0.000126
 241	2.3880e+01	9.5580	31.792444	0.000253	2.533560	0.858394	0.000101
 242	2.3980e+01	9.5965	31.974115	0.000456	4.560409	1.545108	0.000183
 243	2.4079e+01	9.6286	32.103303	0.000324	3.242957	1.098744	0.000130
 244	2.4178e+01	9.6735	32.204232	0.000253	2.533560	0.858394	0.000101
 245	2.4278e+01	9.7120	32.301123	0.000243	2.432218	0.824058	0.000097
 246	2.4378e+01	9.7537	32.458571	0.000395	3.952354	1.339094	0.000158
 247	2.4477e+01	9.7922	32.583723	0.000314	3.141615	1.064408	0.000126
 248	2.4576e+01	9.8227	32.700799	0.000294	2.938930	0.995736	0.000118
 249	2.4676e+01	9.8692	32.809802	0.000274	2.736245	0.927065	0.000110
 250	2.4776e+01	9.9110	32.947065	0.000345	3.445642	1.167415	0.000138
 251	2.4875e+01	9.9495	33.047993	0.000253	2.533560	0.858394	0.000101
 252	2.4974e+01	9.9912	33.213516	0.000416	4.155039	1.407765	0.000166
 253	2.5074e+01	10.0281	33.346741	0.000334	3.344300	1.133079	0.000134
 254	2.5174e+01	10.0682	33.427484	0.000203	2.026848	0.686715	0.000081
 255	2.5273e+01	10.1083	33.568784	0.000355	3.546985	1.201751	0.000142
 256	2.5372e+01	10.1580	33.645489	0.000193	1.925506	0.652379	0.000077
 257	2.5472e+01	10.1901	33.790826	0.000365	3.648327	1.236087	0.000146
 258	2.5572e+01	10.2302	33.924052	0.000334	3.344300	1.133079	0.000134
 259	2.5671e+01	10.2703	34.077463	0.000385	3.851012	1.304758	0.000154
 260	2.5770e+01	10.3008	34.182428	0.000263	2.634903	0.892729	0.000105
 261	2.5870e+01	10.3489	34.319691	0.000345	3.445642	1.167415	0.000138
 262	2.5970e+01	10.3906	34.416582	0.000243	2.432218	0.824058	0.000097
 263	2.6069e+01	10.4275	34.529622	0.000284	2.837588	0.961401	0.000114
 264	2.6169e+01	10.4740	34.670922	0.000355	3.546985	1.201751	0.000142
 265	2.6268e+01	10.5045	34.759739	0.000223	2.229533	0.755386	0.000089
 266	2.6367e+01	10.5526	34.957558	0.000497	4.965779	1.682451	0.000199
 267	2.6467e+01	10.5911	35.042338	0.000213	2.128191	0.721051	0.000085
 268	2.6567e+01	10.6296	35.187675	0.000365	3.648327	1.236087	0.000146
 269	2.6666e+01	10.6681	35.296678	0.000274	2.736245	0.927065	0.000110
 270	2.6765e+01	10.7099	35.397606	0.000253	2.533560	0.858394	0.000101
 271	2.6865e+01	10.7468	35.546980	0.000375	3.749670	1.270422	0.000150
 272	2.6965e+01	10.7933	35.664057	0.000294	2.938930	0.995736	0.000118
 273	2.7064e+01	10.8302	35.764986	0.000253	2.533560	0.858394	0.000101
 274	2.7163e+01	10.8703	35.882062	0.000294	2.938930	0.995736	0.000118
 275	2.7263e+01	10.9040	36.019325	0.000345	3.445642	1.167415	0.000138
 276	2.7363e+01	10.9457	36.164662	0.000365	3.648327	1.236087	0.000146
 277	2.7462e+01	10.9890	36.273665	0.000274	2.736245	0.927065	0.000110
 278	2.7561e+01	11.0339	36.419001	0.000365	3.648327	1.236087	0.000146
 279	2.7661e+01	11.0548	36.495707	0.000193	1.925506	0.652379	0.000077
 280	2.7761e+01	11.1125	36.649118	0.000385	3.851012	1.304758	0.000154
 281	2.7860e+01	11.1446	36.778307	0.000324	3.242957	1.098744	0.000130
 282	2.7959e+01	11.1895	36.923643	0.000365	3.648327	1.236087	0.000146
 283	2.8059e+01	11.2232	37.036683	0.000284	2.837588	0.961401	0.000114
 284	2.8159e+01	11.2697	37.113389	0.000193	1.925506	0.652379	0.000077
 285	2.8258e+01	11.3130	37.295060	0.000456	4.560409	1.545108	0.000183
 286	2.8358e+01	11.3451	37.367728	0.000182	1.824164	0.618043	0.000073
 287	2.8457e+01	11.3933	37.533251	0.000416	4.155039	1.407765	0.000166
 288	2.8556e+01	11.4302	37.613994	0.000203	2.026848	0.686715	0.000081
 289	2.8656e+01	11.4622	37.751256	0.000345	3.445642	1.167415	0.000138
 290	2.8756e+01	11.5184	37.896593	0.000365	3.648327	1.236087	0.000146
 291	2.8855e+01	11.5505	38.033856	0.000345	3.445642	1.167415	0.000138
 292	2.8954e+01	11.5874	38.130747	0.000243	2.432218	0.824058	0.000097
 293	2.9054e+01	11.6243	38.308381	0.000446	4.459066	1.510773	0.000179
 294	2.9154e+01	11.6612	38.372975	0.000162	1.621479	0.549372	0.000065
 295	2.9253e+01	11.7093	38.477941	0.000263	2.634903	0.892729	0.000105
 296	2.9352e+01	11.7414	38.595018	0.000294	2.938930	0.995736	0.000118
 297	2.9452e+01	11.7815	38.716132	0.000304	3.040273	1.030072	0.000122
 298	2.9552e+01	11.8184	38.869543	0.000385	3.851012	1.304758	0.000154
 299	2.9651e+01	11.8601	38.982583	0.000284	2.837588	0.961401	0.000114
 300	2.9750e+01	11.9114	39.111771	0.000324	3.242957	1.098744	0.000130
 301	2.9850e+01	11.9355	39.212699	0.000253	2.533560	0.858394	0.000101
 302	2.9950e+01	11.9900	39.337851	0.000314	3.141615	1.064408	0.000126
 303	3.0049e+01	12.0189	39.475113	0.000345	3.445642	1.167415	0.000138
 304	3.0148e+01	12.0622	39.576042	0.000253	2.533560	0.858394	0.000101
 305	3.0248e+01	12.1055	39.705230	0.000324	3.242957	1.098744	0.000130
 306	3.0348e+01	12.1473	39.830381	0.000314	3.141615	1.064408	0.000126
 307	3.0447e+01	12.1858	39.951495	0.000304	3.040273	1.030072	0.000122
 308	3.0547e+01	12.2178	40.060498	0.000274	2.736245	0.927065	0.000110
 309	3.0646e+01	12.2547	40.161426	0.000253	2.533560	0.858394	0.000101
 310	3.0745e+01	12.2948	40.302726	0.000355	3.546985	1.201751	0.000142
 311	3.0845e+01	12.3446	40.379432	0.000193	1.925506	0.652379	0.000077
 312	3.0945e+01	12.3783	40.532843	0.000385	3.851012	1.304758	0.000154
 313	3.1044e+01	12.4264	40.649920	0.000294	2.938930	0.995736	0.000118
 314	3.1143e+01	12.4569	40.754885	0.000263	2.634903	0.892729	0.000105
 315	3.1243e+01	12.5050	40.916371	0.000405	4.053697	1.373430	0.000162
 316	3.1343e+01	12.5371	41.053633	0.000345	3.445642	1.167415	0.000138
 317	3.1442e+01	12.5836	41.130339	0.000193	1.925506	0.652379	0.000077
 318	3.1541e+01	12.6285	41.235304	0.000263	2.634903	0.892729	0.000105
 319	3.1641e+01	12.6542	41.340270	0.000263	2.634903	0.892729	0.000105
 320	3.1741e+01	12.6991	41.481570	0.000355	3.546985	1.201751	0.000142
 321	3.1840e+01	12.7344	41.614795	0.000334	3.344300	1.133079	0.000134
 322	3.1939e+01	12.7793	41.756095	0.000355	3.546985	1.201751	0.000142
 323	3.2039e+01	12.8098	41.848949	0.000233	2.330876	0.789722	0.000093
 324	3.2139e+01	12.8595	41.970063	0.000304	3.040273	1.030072	0.000122
 325	3.2238e+01	12.8916	42.115400	0.000365	3.648327	1.236087	0.000146
 326	3.2337e+01	12.9317	42.208254	0.000233	2.330876	0.789722	0.000093
 327	3.2437e+01	12.9831	42.321294	0.000284	2.837588	0.961401	0.000114
 328	3.2536e+01	13.0200	42.450482	0.000324	3.242957	1.098744	0.000130
 329	3.2636e+01	13.0488	42.563522	0.000284	2.837588	0.961401	0.000114
 330	3.2736e+01	13.1002	42.716933	0.000385	3.851012	1.304758	0.000154
 331	3.2835e+01	13.1322	42.797676	0.000203	2.026848	0.686715	0.000081
 332	3.2934e+01	13.1772	42.910716	0.000284	2.837588	0.961401	0.000114
 333	3.3034e+01	13.2221	43.056053	0.000365	3.648327	1.236087	0.000146
 334	3.3133e+01	13.2542	43.165055	0.000274	2.736245	0.927065	0.000110
 335	3.3233e+01	13.3023	43.270021	0.000263	2.634903	0.892729	0.000105
 336	3.3333e+01	13.3392	43.403246	0.000334	3.344300	1.133079	0.000134
 337	3.3432e+01	13.3793	43.512249	0.000274	2.736245	0.927065	0.000110
 338	3.3532e+01	13.4146	43.661623	0.000375	3.749670	1.270422	0.000150
 339	3.3631e+01	13.4499	43.750440	0.000223	2.229533	0.755386	0.000089
 340	3.3730e+01	13.4980	43.879628	0.000324	3.242957	1.098744	0.000130
 341	3.3830e+01	13.5397	44.008817	0.000324	3.242957	1.098744	0.000130
 342	3.3929e+01	13.5782	44.150116	0.000355	3.546985	1.201751	0.000142
 343	3.4029e+01	13.6167	44.206636	0.000142	1.418794	0.480700	0.000057
 344	3.4129e+01	13.6568	44.384270	0.000446	4.459066	1.510773	0.000179
 345	3.4228e+01	13.6937	44.501347	0.000294	2.938930	0.995736	0.000118
 346	3.4328e+01	13.7370	44.618424	0.000294	2.938930	0.995736	0.000118
 347	3.4427e+01	13.7691	44.699167	0.000203	2.026848	0.686715	0.000081
 348	3.4526e+01	13.8124	44.884875	0.000466	4.661751	1.579444	0.000187
 349	3.4626e+01	13.8493	44.969655	0.000213	2.128191	0.721051	0.000085
 350	3.4725e+01	13.8862	45.074621	0.000263	2.634903	0.892729	0.000105
 351	3.4825e+01	13.9231	45.211883	0.000345	3.445642	1.167415	0.000138
 352	3.4925e+01	13.9745	45.337034	0.000314	3.141615	1.064408	0.000126
 353	3.5024e+01	14.0178	45.462186	0.000314	3.141615	1.064408	0.000126
 354	3.5123e+01	14.0467	45.555040	0.000233	2.330876	0.789722	0.000093
 355	3.5223e+01	14.0932	45.684228	0.000324	3.242957	1.098744	0.000130
 356	3.5322e+01	14.1381	45.813416	0.000324	3.242957	1.098744	0.000130
 357	3.5422e+01	14.1702	45.926456	0.000284	2.837588	0.961401	0.000114
 358	3.5522e+01	14.2135	46.035459	0.000274	2.736245	0.927065	0.000110
 359	3.5621e+01	14.2504	46.152536	0.000294	2.938930	0.995736	0.000118
 360	3.5721e+01	14.2921	46.281724	0.000324	3.242957	1.098744	0.000130
 361	3.5820e+01	14.3306	46.382652	0.000253	2.533560	0.858394	0.000101
 362	3.5919e+01	14.3627	46.495692	0.000284	2.837588	0.961401	0.000114
 363	3.6019e+01	14.4044	46.584509	0.000223	2.229533	0.755386	0.000089
 364	3.6118e+01	14.4541	46.770218	0.000466	4.661751	1.579444	0.000187
 365	3.6218e+01	14.4894	46.879220	0.000274	2.736245	0.927065	0.000110
 366	3.6318e+01	14.5360	46.972074	0.000233	2.330876	0.789722	0.000093
 367	3.6417e+01	14.5745	47.105300	0.000334	3.344300	1.133079	0.000134
 368	3.6517e+01	14.6114	47.222377	0.000294	2.938930	0.995736	0.000118
 369	3.6616e+01	14.6563	47.307157	0.000213	2.128191	0.721051	0.000085
 370	3.6715e+01	14.6916	47.424234	0.000294	2.938930	0.995736	0.000118
 371	3.6815e+01	14.7333	47.549385	0.000314	3.141615	1.064408	0.000126
 372	3.6914e+01	14.7750	47.698759	0.000375	3.749670	1.270422	0.000150
 373	3.7014e+01	14.8071	47.795650	0.000243	2.432218	0.824058	0.000097
 374	3.7114e+01	14.8520	47.904653	0.000274	2.736245	0.927065	0.000110
 375	3.7213e+01	14.8937	47.953098	0.000122	1.216109	0.412029	0.000049
 376	3.7313e+01	14.9258	48.110547	0.000395	3.952354	1.339094	0.000158
 377	3.7412e+01	14.9723	48.223586	0.000284	2.837588	0.961401	0.000114
 378	3.7511e+01	15.0076	48.356812	0.000334	3.344300	1.133079	0.000134
 379	3.7611e+01	15.0541	48.465815	0.000274	2.736245	0.927065	0.000110
 380	3.7711e+01	15.0814	48.578854	0.000284	2.837588	0.961401	0.000114
 381	3.7810e+01	15.1375	48.716117	0.000345	3.445642	1.167415	0.000138
 382	3.7910e+01	15.1712	48.813008	0.000243	2.432218	0.824058	0.000097
 383	3.8009e+01	15.2210	48.917974	0.000263	2.634903	0.892729	0.000105
 384	3.8108e+01	15.2514	49.043125	0.000314	3.141615	1.064408	0.000126
 385	3.8208e+01	15.2851	49.144053	0.000253	2.533560	0.858394	0.000101
 386	3.8307e+01	15.3333	49.244982	0.000253	2.533560	0.858394	0.000101
 387	3.8407e+01	15.3718	49.370133	0.000314	3.141615	1.064408	0.000126
 388	3.8507e+01	15.4071	49.531618	0.000405	4.053697	1.373430	0.000162
 389	3.8606e+01	15.4423	49.632547	0.000253	2.533560	0.858394	0.000101
 390	3.8706e+01	15.4953	49.753661	0.000304	3.040273	1.030072	0.000122
 391	3.8805e+01	15.5274	49.874775	0.000304	3.040273	1.030072	0.000122
 392	3.8904e+01	15.5627	49.995889	0.000304	3.040273	1.030072	0.000122
 393	3.9004e+01	15.6028	50.060483	0.000162	1.621479	0.549372	0.000065
 394	3.9103e+01	15.6541	50.205820	0.000365	3.648327	1.236087	0.000146
 395	3.9203e+01	15.6942	50.318860	0.000284	2.837588	0.961401	0.000114
 396	3.9303e+01	15.7279	50.427863	0.000274	2.736245	0.927065	0.000110
 397	3.9402e+01	15.7728	50.532828	0.000263	2.634903	0.892729	0.000105
 398	3.9502e+01	15.8033	50.645868	0.000284	2.837588	0.961401	0.000114
 399	3.9601e+01	15.8578	50.775056	0.000324	3.242957	1.098744	0.000130
 400	3.9700e+01	15.8835	50.867910	0.000233	2.330876	0.789722	0.000093
 401	3.9800e+01	15.9268	50.980950	0.000284	2.837588	0.961401	0.000114
 402	3.9900e+01	15.9637	51.106101	0.000314	3.141615	1.064408	0.000126
 403	3.9999e+01	16.0054	51.202993	0.000243	2.432218	0.824058	0.000097
 404	4.0099e+01	16.0487	51.299884	0.000243	2.432218	0.824058	0.000097
 405	4.0198e+01	16.0953	51.449258	0.000375	3.749670	1.270422	0.000150
 406	4.0297e+01	16.1290	51.554223	0.000263	2.634903	0.892729	0.000105
 407	4.0397e+01	16.1675	51.647077	0.000233	2.330876	0.789722	0.000093
 408	4.0496e+01	16.2108	51.776266	0.000324	3.242957	1.098744	0.000130
 409	4.0596e+01	16.2541	51.869120	0.000233	2.330876	0.789722	0.000093
 410	4.0696e+01	16.2798	51.978123	0.000274	2.736245	0.927065	0.000110
 411	4.0795e+01	16.3311	52.111348	0.000334	3.344300	1.133079	0.000134
 412	4.0895e+01	16.3696	52.240536	0.000324	3.242957	1.098744	0.000130
 413	4.0994e+01	16.4017	52.345502	0.000263	2.634903	0.892729	0.000105
 414	4.1093e+01	16.4434	52.458542	0.000284	2.837588	0.961401	0.000114
 415	4.1193e+01	16.4787	52.527173	0.000172	1.722821	0.583708	0.000069
 416	4.1292e+01	16.5252	52.668473	0.000355	3.546985	1.201751	0.000142
 417	4.1392e+01	16.5637	52.753253	0.000213	2.128191	0.721051	0.000085
 418	4.1492e+01	16.6086	52.878404	0.000314	3.141615	1.064408	0.000126
 419	4.1591e+01	16.6439	52.987407	0.000274	2.736245	0.927065	0.000110
 420	4.1691e+01	16.6808	53.068149	0.000203	2.026848	0.686715	0.000081
 421	4.1790e+01	16.7241	53.185226	0.000294	2.938930	0.995736	0.000118
 422	4.1889e+01	16.7578	53.261932	0.000193	1.925506	0.652379	0.000077
 423	4.1989e+01	16.8124	53.411306	0.000375	3.749670	1.270422	0.000150
 424	4.2089e+01	16.8541	53.512234	0.000253	2.533560	0.858394	0.000101
 425	4.2188e+01	16.8862	53.584903	0.000182	1.824164	0.618043	0.000073
 426	4.2288e+01	16.9150	53.750425	0.000416	4.155039	1.407765	0.000166
 427	4.2387e+01	16.9664	53.859428	0.000274	2.736245	0.927065	0.000110
 428	4.2486e+01	17.0001	53.919985	0.000152	1.520136	0.515036	0.000061
 429	4.2586e+01	17.0466	54.053210	0.000334	3.344300	1.133079	0.000134
 430	4.2685e+01	17.0851	54.166250	0.000284	2.837588	0.961401	0.000114
 431	4.2785e+01	17.1236	54.246993	0.000203	2.026848	0.686715	0.000081
 432	4.2885e+01	17.1605	54.351958	0.000263	2.634903	0.892729	0.000105
 433	4.2984e+01	17.1958	54.505370	0.000385	3.851012	1.304758	0.000154
 434	4.3084e+01	17.2471	54.614372	0.000274	2.736245	0.927065	0.000110
 435	4.3183e+01	17.2776	54.715301	0.000253	2.533560	0.858394	0.000101
 436	4.3282e+01	17.3225	54.832378	0.000294	2.938930	0.995736	0.000118
 437	4.3382e+01	17.3578	54.913120	0.000203	2.026848	0.686715	0.000081
 438	4.3481e+01	17.3931	55.010012	0.000243	2.432218	0.824058	0.000097
 439	4.3581e+01	17.4364	55.090754	0.000203	2.026848	0.686715	0.000081
 440	4.3681e+01	17.4845	55.236091	0.000365	3.648327	1.236087	0.000146
 441	4.3780e+01	17.5278	55.332982	0.000243	2.432218	0.824058	0.000097
 442	4.3880e+01	17.5599	55.409688	0.000193	1.925506	0.652379	0.000077
 443	4.3979e+01	17.6032	55.567136	0.000395	3.952354	1.339094	0.000158
 444	4.4078e+01	17.6369	55.684213	0.000294	2.938930	0.995736	0.000118
 445	4.4178e+01	17.6802	55.748807	0.000162	1.621479	0.549372	0.000065
 446	4.4278e+01	17.7123	55.853773	0.000263	2.634903	0.892729	0.000105
 447	4.4377e+01	17.7621	55.982961	0.000324	3.242957	1.098744	0.000130
 448	4.4477e+01	17.7990	56.071778	0.000223	2.229533	0.755386	0.000089
 449	4.4576e+01	17.8375	56.213078	0.000355	3.546985	1.201751	0.000142
 450	4.4675e+01	17.8904	56.269598	0.000142	1.418794	0.480700	0.000057
 451	4.4775e+01	17.9161	56.402823	0.000334	3.344300	1.133079	0.000134
 452	4.4874e+01	17.9562	56.491640	0.000223	2.229533	0.755386	0.000089
 453	4.4974e+01	18.0011	56.608717	0.000294	2.938930	0.995736	0.000118
 454	4.5074e+01	18.0428	56.701571	0.000233	2.330876	0.789722	0.000093
 455	4.5173e+01	18.0893	56.842871	0.000355	3.546985	1.201751	0.000142
 456	4.5273e+01	18.1134	56.947837	0.000263	2.634903	0.892729	0.000105
 457	4.5372e+01	18.1583	57.020505	0.000182	1.824164	0.618043	0.000073
 458	4.5471e+01	18.1984	57.153731	0.000334	3.344300	1.133079	0.000134
 459	4.5571e+01	18.2417	57.282919	0.000324	3.242957	1.098744	0.000130
 460	4.5670e+01	18.2770	57.391922	0.000274	2.736245	0.927065	0.000110
 461	4.5770e+01	18.3252	57.484776	0.000233	2.330876	0.789722	0.000093
 462	4.5870e+01	18.3637	57.557444	0.000182	1.824164	0.618043	0.000073
 463	4.5969e+01	18.4054	57.722967	0.000416	4.155039	1.407765	0.000166
 464	4.6069e+01	18.4423	57.799672	0.000193	1.925506	0.652379	0.000077
 465	4.6168e+01	18.4808	57.880415	0.000203	2.026848	0.686715	0.000081
 466	4.6267e+01	18.5193	58.017678	0.000345	3.445642	1.167415	0.000138
 467	4.6367e+01	18.5497	58.094383	0.000193	1.925506	0.652379	0.000077
 468	4.6467e+01	18.5947	58.235683	0.000355	3.546985	1.201751	0.000142
 469	4.6566e+01	18.6396	58.336611	0.000253	2.533560	0.858394	0.000101
 470	4.6666e+01	18.6925	58.425428	0.000223	2.229533	0.755386	0.000089
 471	4.6765e+01	18.7102	58.526357	0.000253	2.533560	0.858394	0.000101
 472	4.6864e+01	18.7567	58.655545	0.000324	3.242957	1.098744	0.000130
 473	4.6964e+01	18.7968	58.736288	0.000203	2.026848	0.686715	0.000081
 474	4.7063e+01	18.8401	58.853365	0.000294	2.938930	0.995736	0.000118
 475	4.7163e+01	18.8738	58.986590	0.000334	3.344300	1.133079	0.000134
 476	4.7263e+01	18.9171	59.063296	0.000193	1.925506	0.652379	0.000077
 477	4.7362e+01	18.9588	59.135964	0.000182	1.824164	0.618043	0.000073
 478	4.7462e+01	18.9925	59.253041	0.000294	2.938930	0.995736	0.000118
 479	4.7561e+01	19.0390	59.378192	0.000314	3.141615	1.064408	0.000126
 480	4.7660e+01	19.0791	59.438749	0.000152	1.520136	0.515036	0.000061
 481	4.7760e+01	19.1144	59.555826	0.000294	2.938930	0.995736	0.000118
 482	4.7859e+01	19.1529	59.737498	0.000456	4.560409	1.545108	0.000183
 483	4.7959e+01	19.1946	59.794017	0.000142	1.418794	0.480700	0.000057
 484	4.8059e+01	19.2412	59.866686	0.000182	1.824164	0.618043	0.000073
 485	4.8158e+01	19.2765	59.983763	0.000294	2.938930	0.995736	0.000118
 486	4.8258e+01	19.3134	60.100840	0.000294	2.938930	0.995736	0.000118
 487	4.8357e+01	19.3535	60.189657	0.000223	2.229533	0.755386	0.000089
 488	4.8456e+01	19.3968	60.310771	0.000304	3.040273	1.030072	0.000122
 489	4.8556e+01	19.4369	60.411699	0.000253	2.533560	0.858394	0.000101
 490	4.8656e+01	19.4706	60.512628	0.000253	2.533560	0.858394	0.000101
 491	4.8755e+01	19.5059	60.649890	0.000345	3.445642	1.167415	0.000138
 492	4.8855e+01	19.5524	60.682187	0.000081	0.810739	0.274686	0.000032
 493	4.8954e+01	19.5861	60.815413	0.000334	3.344300	1.133079	0.000134
 494	4.9053e+01	19.6294	60.900193	0.000213	2.128191	0.721051	0.000085
 495	4.9153e+01	19.6663	61.025344	0.000314	3.141615	1.064408	0.000126
 496	4.9252e+01	19.7144	61.118198	0.000233	2.330876	0.789722	0.000093
 497	4.9352e+01	19.7497	61.267572	0.000375	3.749670	1.270422	0.000150
 498	4.9452e+01	19.8010	61.364463	0.000243	2.432218	0.824058	0.000097
 499	4.9551e+01	19.8315	61.420983	0.000142	1.418794	0.480700	0.000057
 500	4.9651e+01	19.8684	61.578431	0.000395	3.952354	1.339094	0.000158
 501	4.9750e+01	19.9117	61.691471	0.000284	2.837588	0.961401	0.000114
 502	4.9849e+01	19.9406	61.808548	0.000294	2.938930	0.995736	0.000118
 503	4.9949e+01	19.9871	61.873142	0.000162	1.621479	0.549372	0.000065
 504	5.0048e+01	19.9534	61.828734	0.000111	1.114767	0.377693	-0.000045
 505	5.0148e+01	19.9149	61.747991	0.000203	2.026848	0.686715	-0.000081
 506	5.0248e+01	19.8684	61.683397	0.000162	1.621479	0.549372	-0.000065
 507	5.0347e+01	19.8315	61.606691	0.000193	1.925506	0.652379	-0.000077
 508	5.0447e+01	19.8026	61.554209	0.000132	1.317451	0.446365	-0.000053
 509	5.0546e+01	19.7609	61.493652	0.000152	1.520136	0.515036	-0.000061
 510	5.0645e+01	19.7128	61.416946	0.000193	1.925506	0.652379	-0.000077
 511	5.0745e+01	19.6775	61.324092	0.000233	2.330876	0.789722	-0.000093
 512	5.0844e+01	19.6374	61.235275	0.000223	2.229533	0.755386	-0.000089
 513	5.0944e+01	19.5973	61.194904	0.000101	1.013424	0.343357	-0.000041
 514	5.1044e+01	19.5556	61.089938	0.000263	2.634903	0.892729	-0.000105
 515	5.1143e+01	19.5123	60.997084	0.000233	2.330876	0.789722	-0.000093
 516	5.1242e+01	19.4722	60.936527	0.000152	1.520136	0.515036	-0.000061
 517	5.1342e+01	19.4369	60.851747	0.000213	2.128191	0.721051	-0.000085
 518	5.1441e+01	19.3936	60.754856	0.000243	2.432218	0.824058	-0.000097
 519	5.1541e+01	19.3470	60.734670	0.000051	0.506712	0.171679	-0.000020
 520	5.1641e+01	19.3134	60.641816	0.000233	2.330876	0.789722	-0.000093
 521	5.1740e+01	19.2765	60.540888	0.000253	2.533560	0.858394	-0.000101
 522	5.1840e+01	19.2331	60.468219	0.000182	1.824164	0.618043	-0.000073
 523	5.1939e+01	19.1898	60.355179	0.000284	2.837588	0.961401	-0.000114
 524	5.2038e+01	19.1561	60.254251	0.000253	2.533560	0.858394	-0.000101
 525	5.2138e+01	19.1160	60.177545	0.000193	1.925506	0.652379	-0.000077
 526	5.2237e+01	19.0840	60.153322	0.000061	0.608055	0.206014	-0.000024
 527	5.2337e+01	19.0342	59.999911	0.000385	3.851012	1.304758	-0.000154
 528	5.2437e+01	19.0005	59.939354	0.000152	1.520136	0.515036	-0.000061
 529	5.2536e+01	18.9524	59.858612	0.000203	2.026848	0.686715	-0.000081
 530	5.2636e+01	18.9203	59.773832	0.000213	2.128191	0.721051	-0.000085
 531	5.2735e+01	18.8802	59.717312	0.000142	1.418794	0.480700	-0.000057
 532	5.2834e+01	18.8433	59.584086	0.000334	3.344300	1.133079	-0.000134
 533	5.2934e+01	18.7936	59.519492	0.000162	1.621479	0.549372	-0.000065
 534	5.3033e+01	18.7599	59.422601	0.000243	2.432218	0.824058	-0.000097
 535	5.3133e+01	18.7102	59.394341	0.000071	0.709397	0.240350	-0.000028
 536	5.3233e+01	18.6829	59.285338	0.000274	2.736245	0.927065	-0.000110
 537	5.3332e+01	18.6300	59.184410	0.000253	2.533560	0.858394	-0.000101
 538	5.3431e+01	18.6011	59.099630	0.000213	2.128191	0.721051	-0.000085
 539	5.3531e+01	18.5578	59.043110	0.000142	1.418794	0.480700	-0.000057
 540	5.3630e+01	18.5209	58.917959	0.000314	3.141615	1.064408	-0.000126
 541	5.3730e+01	18.4711	58.865476	0.000132	1.317451	0.446365	-0.000053
 542	5.3830e+01	18.4423	58.740325	0.000314	3.141615	1.064408	-0.000126
 543	5.3929e+01	18.4006	58.643434	0.000243	2.432218	0.824058	-0.000097
 544	5.4029e+01	18.3653	58.611137	0.000081	0.810739	0.274686	-0.000032
 545	5.4128e+01	18.3171	58.498097	0.000284	2.837588	0.961401	-0.000114
 546	5.4227e+01	18.2770	58.364871	0.000334	3.344300	1.133079	-0.000134
 547	5.4327e+01	18.2417	58.276054	0.000223	2.229533	0.755386	-0.000089
 548	5.4426e+01	18.2016	58.207423	0.000172	1.722821	0.583708	-0.000069
 549	5.4526e+01	18.1663	58.146866	0.000152	1.520136	0.515036	-0.000061
 550	5.4626e+01	18.1230	58.041901	0.000263	2.634903	0.892729	-0.000105
 551	5.4725e+01	18.0829	57.928861	0.000284	2.837588	0.961401	-0.000114
 552	5.4825e+01	18.0364	57.864267	0.000162	1.621479	0.549372	-0.000065
 553	5.4924e+01	18.0027	57.759301	0.000263	2.634903	0.892729	-0.000105
 554	5.5023e+01	17.9642	57.682595	0.000193	1.925506	0.652379	-0.000077
 555	5.5123e+01	17.9113	57.569556	0.000284	2.837588	0.961401	-0.000114
 556	5.5222e+01	17.8840	57.517073	0.000132	1.317451	0.446365	-0.000053
 557	5.5322e+01	17.8407	57.395959	0.000304	3.040273	1.030072	-0.000122
 558	5.5422e+01	17.8006	57.319253	0.000193	1.925506	0.652379	-0.000077
 559	5.5521e+01	17.7637	57.210251	0.000274	2.736245	0.927065	-0.000110
 560	5.5620e+01	17.7107	57.145656	0.000162	1.621479	0.549372	-0.000065
 561	5.5720e+01	17.6802	57.032617	0.000284	2.837588	0.961401	-0.000114
 562	5.5819e+01	17.6353	56.976097	0.000142	1.418794	0.480700	-0.000057
 563	5.5919e+01	17.6000	56.887280	0.000223	2.229533	0.755386	-0.000089
 564	5.6019e+01	17.5631	56.754054	0.000334	3.344300	1.133079	-0.000134
 565	5.6118e+01	17.5278	56.709646	0.000111	1.114767	0.377693	-0.000045
 566	5.6218e+01	17.4797	56.584495	0.000314	3.141615	1.064408	-0.000126
 567	5.6317e+01	17.4396	56.519900	0.000162	1.621479	0.549372	-0.000065
 568	5.6416e+01	17.4027	56.431083	0.000223	2.229533	0.755386	-0.000089
 569	5.6516e+01	17.3610	56.342266	0.000223	2.229533	0.755386	-0.000089
 570	5.6615e+01	17.3193	56.237301	0.000263	2.634903	0.892729	-0.000105
 571	5.6715e+01	17.2712	56.160595	0.000193	1.925506	0.652379	-0.000077
 572	5.6815e+01	17.2311	56.067741	0.000233	2.330876	0.789722	-0.000093
 573	5.6914e+01	17.2006	55.966813	0.000253	2.533560	0.858394	-0.000101
 574	5.7014e+01	17.1621	55.865884	0.000253	2.533560	0.858394	-0.000101
 575	5.7113e+01	17.1236	55.756882	0.000274	2.736245	0.927065	-0.000110
 576	5.7212e+01	17.0771	55.672102	0.000213	2.128191	0.721051	-0.000085
 577	5.7312e+01	17.0386	55.583285	0.000223	2.229533	0.755386	-0.000089
 578	5.7411e+01	17.0081	55.506579	0.000193	1.925506	0.652379	-0.000077
 579	5.7511e+01	16.9583	55.385465	0.000304	3.040273	1.030072	-0.000122
 580	5.7611e+01	16.9247	55.324908	0.000152	1.520136	0.515036	-0.000061
 581	5.7710e+01	16.8749	55.215905	0.000274	2.736245	0.927065	-0.000110
 582	5.7809e+01	16.8412	55.127089	0.000223	2.229533	0.755386	-0.000089
 583	5.7909e+01	16.8043	55.010012	0.000294	2.938930	0.995736	-0.000118
 584	5.8008e+01	16.7594	54.905046	0.000263	2.634903	0.892729	-0.000105
 585	5.8108e+01	16.7257	54.836415	0.000172	1.722821	0.583708	-0.000069
 586	5.8208e+01	16.6776	54.727412	0.000274	2.736245	0.927065	-0.000110
 587	5.8307e+01	16.6407	54.626484	0.000253	2.533560	0.858394	-0.000101
 588	5.8407e+01	16.6006	54.537667	0.000223	2.229533	0.755386	-0.000089
 589	5.8506e+01	16.5621	54.452887	0.000213	2.128191	0.721051	-0.000085
 590	5.8605e+01	16.5284	54.347921	0.000263	2.634903	0.892729	-0.000105
 591	5.8705e+01	16.4851	54.210659	0.000345	3.445642	1.167415	-0.000138
 592	5.8804e+01	16.4450	54.129916	0.000203	2.026848	0.686715	-0.000081
 593	5.8904e+01	16.3985	54.061285	0.000172	1.722821	0.583708	-0.000069
 594	5.9004e+01	16.3648	53.936133	0.000314	3.141615	1.064408	-0.000126
 595	5.9103e+01	16.3295	53.831168	0.000263	2.634903	0.892729	-0.000105
 596	5.9203e+01	16.2814	53.762537	0.000172	1.722821	0.583708	-0.000069
 597	5.9302e+01	16.2429	53.669683	0.000233	2.330876	0.789722	-0.000093
 598	5.9401e+01	16.2060	53.548568	0.000304	3.040273	1.030072	-0.000122
 599	5.9501e+01	16.1723	53.459751	0.000223	2.229533	0.755386	-0.000089
 600	5.9600e+01	16.1177	53.326526	0.000334	3.344300	1.133079	-0.000134
 601	5.9700e+01	16.0824	53.261932	0.000162	1.621479	0.549372	-0.000065
 602	5.9800e+01	16.0455	53.128706	0.000334	3.344300	1.133079	-0.000134
 603	5.9899e+01	16.0086	53.043926	0.000213	2.128191	0.721051	-0.000085
 604	5.9998e+01	15.9701	52.963184	0.000203	2.026848	0.686715	-0.000081
 605	6.0098e+01	15.9332	52.850144	0.000284	2.837588	0.961401	-0.000114
 606	6.0197e+01	15.8883	52.741141	0.000274	2.736245	0.927065	-0.000110
 607	6.0297e+01	15.8434	52.640213	0.000253	2.533560	0.858394	-0.000101
 608	6.0397e+01	15.8129	52.555433	0.000213	2.128191	0.721051	-0.000085
 609	6.0496e+01	15.7600	52.450468	0.000263	2.634903	0.892729	-0.000105
 610	6.0596e+01	15.7247	52.365688	0.000213	2.128191	0.721051	-0.000085
 611	6.0695e+01	15.6894	52.268796	0.000243	2.432218	0.824058	-0.000097
 612	6.0794e+01	15.6477	52.175942	0.000233	2.330876	0.789722	-0.000093
 613	6.0894e+01	15.6092	52.103274	0.000182	1.824164	0.618043	-0.000073
 614	6.0993e+01	15.5691	51.953900	0.000375	3.749670	1.270422	-0.000150
 615	6.1093e+01	15.5274	51.885269	0.000172	1.722821	0.583708	-0.000069
 616	6.1193e+01	15.4841	51.768192	0.000294	2.938930	0.995736	-0.000118
 617	6.1292e+01	15.4520	51.679375	0.000223	2.229533	0.755386	-0.000089
 618	6.1392e+01	15.4006	51.570372	0.000274	2.736245	0.927065	-0.000110
 619	6.1491e+01	15.3686	51.461369	0.000274	2.736245	0.927065	-0.000110
 620	6.1590e+01	15.3268	51.384664	0.000193	1.925506	0.652379	-0.000077
 621	6.1690e+01	15.2948	51.295847	0.000223	2.229533	0.755386	-0.000089
 622	6.1789e+01	15.2482	51.190881	0.000263	2.634903	0.892729	-0.000105
 623	6.1889e+01	15.2049	51.077841	0.000284	2.837588	0.961401	-0.000114
 624	6.1989e+01	15.1696	50.964802	0.000284	2.837588	0.961401	-0.000114
 625	6.2088e+01	15.1311	50.875985	0.000223	2.229533	0.755386	-0.000089
 626	6.2188e+01	15.0814	50.766982	0.000274	2.736245	0.927065	-0.000110
 627	6.2287e+01	15.0493	50.702388	0.000162	1.621479	0.549372	-0.000065
 628	6.2386e+01	15.0092	50.561088	0.000355	3.546985	1.201751	-0.000142
 629	6.2486e+01	14.9755	50.484382	0.000193	1.925506	0.652379	-0.000077
 630	6.2586e+01	14.9322	50.387491	0.000243	2.432218	0.824058	-0.000097
 631	6.2685e+01	14.8905	50.274451	0.000284	2.837588	0.961401	-0.000114
 632	6.2785e+01	14.8552	50.169486	0.000263	2.634903	0.892729	-0.000105
 633	6.2884e+01	14.7958	50.076632	0.000233	2.330876	0.789722	-0.000093
 634	6.2983e+01	14.7686	49.975703	0.000253	2.533560	0.858394	-0.000101
 635	6.3083e+01	14.7204	49.882849	0.000233	2.330876	0.789722	-0.000093
 636	6.3182e+01	14.6884	49.741549	0.000355	3.546985	1.201751	-0.000142
 637	6.3282e+01	14.6499	49.676955	0.000162	1.621479	0.549372	-0.000065
 638	6.3382e+01	14.6097	49.604287	0.000182	1.824164	0.618043	-0.000073
 639	6.3481e+01	14.5664	49.467024	0.000345	3.445642	1.167415	-0.000138
 640	6.3581e+01	14.5263	49.337836	0.000324	3.242957	1.098744	-0.000130
 641	6.3680e+01	14.4958	49.261130	0.000193	1.925506	0.652379	-0.000077
 642	6.3779e+01	14.4557	49.160202	0.000253	2.533560	0.858394	-0.000101
 643	6.3879e+01	14.3996	49.075422	0.000213	2.128191	0.721051	-0.000085
 644	6.3978e+01	14.3771	48.934122	0.000355	3.546985	1.201751	-0.000142
 645	6.4078e+01	14.3290	48.792823	0.000355	3.546985	1.201751	-0.000142
 646	6.4177e+01	14.2969	48.748414	0.000111	1.114767	0.377693	-0.000045
 647	6.4277e+01	14.2488	48.603077	0.000365	3.648327	1.236087	-0.000146
 648	6.4376e+01	14.2135	48.522334	0.000203	2.026848	0.686715	-0.000081
 649	6.4476e+01	14.1766	48.453703	0.000172	1.722821	0.583708	-0.000069
 650	6.4576e+01	14.1317	48.328552	0.000314	3.141615	1.064408	-0.000126
 651	6.4675e+01	14.0900	48.207438	0.000304	3.040273	1.030072	-0.000122
 652	6.4775e+01	14.0483	48.118621	0.000223	2.229533	0.755386	-0.000089
 653	6.4874e+01	14.0194	48.009618	0.000274	2.736245	0.927065	-0.000110
 654	6.4974e+01	13.9713	47.912727	0.000243	2.432218	0.824058	-0.000097
 655	6.5073e+01	13.9360	47.827947	0.000213	2.128191	0.721051	-0.000085
 656	6.5172e+01	13.8991	47.718944	0.000274	2.736245	0.927065	-0.000110
 657	6.5272e+01	13.8526	47.609942	0.000274	2.736245	0.927065	-0.000110
 658	6.5371e+01	13.8044	47.529199	0.000203	2.026848	0.686715	-0.000081
 659	6.5471e+01	13.7643	47.391936	0.000345	3.445642	1.167415	-0.000138
 660	6.5570e+01	13.7338	47.250637	0.000355	3.546985	1.201751	-0.000142
 661	6.5670e+01	13.6889	47.177968	0.000182	1.824164	0.618043	-0.000073
 662	6.5769e+01	13.6616	47.064928	0.000284	2.837588	0.961401	-0.000114
 663	6.5869e+01	13.6135	46.951889	0.000284	2.837588	0.961401	-0.000114
 664	6.5969e+01	13.5750	46.871146	0.000203	2.026848	0.686715	-0.000081
 665	6.6068e+01	13.5365	46.786366	0.000213	2.128191	0.721051	-0.000085
 666	6.6168e+01	13.4852	46.649103	0.000345	3.445642	1.167415	-0.000138
 667	6.6267e+01	13.4563	46.564324	0.000213	2.128191	0.721051	-0.000085
 668	6.6367e+01	13.4210	46.495692	0.000172	1.722821	0.583708	-0.000069
 669	6.6466e+01	13.3761	46.346318	0.000375	3.749670	1.270422	-0.000150
 670	6.6566e+01	13.3344	46.237316	0.000274	2.736245	0.927065	-0.000110
 671	6.6665e+01	13.2975	46.172721	0.000162	1.621479	0.549372	-0.000065
 672	6.6764e+01	13.2494	46.063719	0.000274	2.736245	0.927065	-0.000110
 673	6.6864e+01	13.2157	45.966828	0.000243	2.432218	0.824058	-0.000097
 674	6.6963e+01	13.1691	45.857825	0.000274	2.736245	0.927065	-0.000110
 675	6.7063e+01	13.1387	45.732674	0.000314	3.141615	1.064408	-0.000126
 676	6.7162e+01	13.1002	45.635782	0.000243	2.432218	0.824058	-0.000097
 677	6.7262e+01	13.0585	45.563114	0.000182	1.824164	0.618043	-0.000073
 678	6.7362e+01	13.0183	45.446037	0.000294	2.938930	0.995736	-0.000118
 679	6.7461e+01	12.9734	45.373369	0.000182	1.824164	0.618043	-0.000073
 680	6.7561e+01	12.9446	45.272440	0.000253	2.533560	0.858394	-0.000101
 681	6.7660e+01	12.8932	45.139215	0.000334	3.344300	1.133079	-0.000134
 682	6.7760e+01	12.8611	45.058472	0.000203	2.026848	0.686715	-0.000081
 683	6.7859e+01	12.8178	44.929284	0.000324	3.242957	1.098744	-0.000130
 684	6.7959e+01	12.7809	44.828355	0.000253	2.533560	0.858394	-0.000101
 685	6.8058e+01	12.7344	44.715315	0.000284	2.837588	0.961401	-0.000114
 686	6.8157e+01	12.6943	44.610350	0.000263	2.634903	0.892729	-0.000105
 687	6.8257e+01	12.6702	44.513459	0.000243	2.432218	0.824058	-0.000097
 688	6.8356e+01	12.6173	44.412530	0.000253	2.533560	0.858394	-0.000101
 689	6.8456e+01	12.5868	44.319676	0.000233	2.330876	0.789722	-0.000093
 690	6.8555e+01	12.5355	44.186451	0.000334	3.344300	1.133079	-0.000134
 691	6.8655e+01	12.5066	44.073411	0.000284	2.837588	0.961401	-0.000114
 692	6.8754e+01	12.4553	44.004780	0.000172	1.722821	0.583708	-0.000069
 693	6.8854e+01	12.4248	43.883665	0.000304	3.040273	1.030072	-0.000122
 694	6.8954e+01	12.3847	43.770626	0.000284	2.837588	0.961401	-0.000114
 695	6.9053e+01	12.3462	43.689883	0.000203	2.026848	0.686715	-0.000081
 696	6.9153e+01	12.3013	43.556657	0.000334	3.344300	1.133079	-0.000134
 697	6.9252e+01	12.2628	43.435543	0.000304	3.040273	1.030072	-0.000122
 698	6.9352e+01	12.2226	43.342689	0.000233	2.330876	0.789722	-0.000093
 699	6.9451e+01	12.1858	43.221575	0.000304	3.040273	1.030072	-0.000122
 700	6.9550e+01	12.1456	43.148907	0.000182	1.824164	0.618043	-0.000073
 701	6.9650e+01	12.0975	43.039904	0.000274	2.736245	0.927065	-0.000110
 702	6.9749e+01	12.0622	42.934939	0.000263	2.634903	0.892729	-0.000105
 703	6.9849e+01	12.0221	42.793639	0.000355	3.546985	1.201751	-0.000142
 704	6.9948e+01	11.9852	42.708859	0.000213	2.128191	0.721051	-0.000085
 705	7.0048e+01	11.9387	42.611968	0.000243	2.432218	0.824058	-0.000097
 706	7.0147e+01	11.9018	42.511039	0.000253	2.533560	0.858394	-0.000101
 707	7.0247e+01	11.8681	42.357628	0.000385	3.851012	1.304758	-0.000154
 708	7.0347e+01	11.8296	42.248625	0.000274	2.736245	0.927065	-0.000110
 709	7.0446e+01	11.7863	42.159809	0.000223	2.229533	0.755386	-0.000089
 710	7.0546e+01	11.7510	42.034657	0.000314	3.141615	1.064408	-0.000126
 711	7.0645e+01	11.7125	41.945840	0.000223	2.229533	0.755386	-0.000089
 712	7.0745e+01	11.6612	41.861060	0.000213	2.128191	0.721051	-0.000085
 713	7.0844e+01	11.6307	41.727835	0.000334	3.344300	1.133079	-0.000134
 714	7.0944e+01	11.5810	41.651129	0.000193	1.925506	0.652379	-0.000077
 715	7.1043e+01	11.5505	41.505793	0.000365	3.648327	1.236087	-0.000146
 716	7.1142e+01	11.5072	41.384678	0.000304	3.040273	1.030072	-0.000122
 717	7.1242e+01	11.4638	41.271639	0.000284	2.837588	0.961401	-0.000114
 718	7.1341e+01	11.4237	41.166673	0.000263	2.634903	0.892729	-0.000105
 719	7.1441e+01	11.3836	41.077856	0.000223	2.229533	0.755386	-0.000089
 720	7.1540e+01	11.3435	40.956742	0.000304	3.040273	1.030072	-0.000122
 721	7.1640e+01	11.3050	40.835628	0.000304	3.040273	1.030072	-0.000122
 722	7.1740e+01	11.2665	40.718551	0.000294	2.938930	0.995736	-0.000118
 723	7.1839e+01	11.2264	40.633771	0.000213	2.128191	0.721051	-0.000085
 724	7.1939e+01	11.1863	40.488434	0.000365	3.648327	1.236087	-0.000146
 725	7.2038e+01	11.1398	40.423840	0.000162	1.621479	0.549372	-0.000065
 726	7.2138e+01	11.1061	40.258318	0.000416	4.155039	1.407765	-0.000166
 727	7.2237e+01	11.0676	40.197761	0.000152	1.520136	0.515036	-0.000061
 728	7.2337e+01	11.0339	40.092795	0.000263	2.634903	0.892729	-0.000105
 729	7.2436e+01	10.9890	39.951495	0.000355	3.546985	1.201751	-0.000142
 730	7.2535e+01	10.9473	39.850567	0.000253	2.533560	0.858394	-0.000101
 731	7.2635e+01	10.9024	39.753676	0.000243	2.432218	0.824058	-0.000097
 732	7.2734e+01	10.8623	39.636599	0.000294	2.938930	0.995736	-0.000118
 733	7.2834e+01	10.8254	39.515485	0.000304	3.040273	1.030072	-0.000122
 734	7.2933e+01	10.7869	39.434742	0.000203	2.026848	0.686715	-0.000081
 735	7.3033e+01	10.7452	39.309591	0.000314	3.141615	1.064408	-0.000126
 736	7.3132e+01	10.7066	39.188477	0.000304	3.040273	1.030072	-0.000122
 737	7.3232e+01	10.6714	39.063325	0.000314	3.141615	1.064408	-0.000126
 738	7.3332e+01	10.6345	38.962397	0.000253	2.533560	0.858394	-0.000101
 739	7.3431e+01	10.5895	38.861469	0.000253	2.533560	0.858394	-0.000101
 740	7.3531e+01	10.5575	38.748429	0.000284	2.837588	0.961401	-0.000114
 741	7.3630e+01	10.5045	38.619240	0.000324	3.242957	1.098744	-0.000130
 742	7.3730e+01	10.4756	38.530423	0.000223	2.229533	0.755386	-0.000089
 743	7.3829e+01	10.4259	38.385087	0.000365	3.648327	1.236087	-0.000146
 744	7.3928e+01	10.3842	38.280121	0.000263	2.634903	0.892729	-0.000105
 745	7.4028e+01	10.3425	38.159007	0.000304	3.040273	1.030072	-0.000122
 746	7.4127e+01	10.3104	38.062116	0.000243	2.432218	0.824058	-0.000097
 747	7.4227e+01	10.2735	37.941002	0.000304	3.040273	1.030072	-0.000122
 748	7.4326e+01	10.2334	37.831999	0.000274	2.736245	0.927065	-0.000110
 749	7.4426e+01	10.1885	37.694736	0.000345	3.445642	1.167415	-0.000138
 750	7.4525e+01	10.1564	37.561511	0.000334	3.344300	1.133079	-0.000134
 751	7.4625e+01	10.1099	37.424248	0.000345	3.445642	1.167415	-0.000138
 752	7.4725e+01	10.0714	37.331394	0.000233	2.330876	0.789722	-0.000093
 753	7.4824e+01	10.0297	37.234503	0.000243	2.432218	0.824058	-0.000097
 754	7.4924e+01	9.9880	37.125500	0.000274	2.736245	0.927065	-0.000110
 755	7.5023e+01	9.9543	36.988238	0.000345	3.445642	1.167415	-0.000138
 756	7.5123e+01	9.9142	36.850975	0.000345	3.445642	1.167415	-0.000138
 757	7.5222e+01	9.8692	36.746009	0.000263	2.634903	0.892729	-0.000105
 758	7.5322e+01	9.8356	36.628933	0.000294	2.938930	0.995736	-0.000118
 759	7.5421e+01	9.7938	36.511856	0.000294	2.938930	0.995736	-0.000118
 760	7.5520e+01	9.7505	36.402853	0.000274	2.736245	0.927065	-0.000110
 761	7.5620e+01	9.7088	36.285776	0.000294	2.938930	0.995736	-0.000118
 762	7.5719e+01	9.6719	36.172736	0.000284	2.837588	0.961401	-0.000114
 763	7.5819e+01	9.6366	36.043548	0.000324	3.242957	1.098744	-0.000130
 764	7.5918e+01	9.5965	35.922434	0.000304	3.040273	1.030072	-0.000122
 765	7.6018e+01	9.5532	35.801320	0.000304	3.040273	1.030072	-0.000122
 766	7.6118e+01	9.5099	35.664057	0.000345	3.445642	1.167415	-0.000138
 767	7.6217e+01	9.4714	35.579277	0.000213	2.128191	0.721051	-0.000085
 768	7.6317e+01	9.4393	35.462200	0.000294	2.938930	0.995736	-0.000118
 769	7.6416e+01	9.3848	35.345123	0.000294	2.938930	0.995736	-0.000118
 770	7.6516e+01	9.3463	35.228046	0.000294	2.938930	0.995736	-0.000118
 771	7.6615e+01	9.3013	35.062524	0.000416	4.155039	1.407765	-0.000166
 772	7.6715e+01	9.2773	34.961595	0.000253	2.533560	0.858394	-0.000101
 773	7.6814e+01	9.2340	34.864704	0.000243	2.432218	0.824058	-0.000097
 774	7.6913e+01	9.1971	34.731479	0.000334	3.344300	1.133079	-0.000134
 775	7.7013e+01	9.1538	34.602290	0.000324	3.242957	1.098744	-0.000130
 776	7.7112e+01	9.1153	34.501362	0.000253	2.533560	0.858394	-0.000101
 777	7.7212e+01	9.0735	34.368137	0.000334	3.344300	1.133079	-0.000134
 778	7.7311e+01	9.0350	34.303542	0.000162	1.621479	0.549372	-0.000065
 779	7.7411e+01	8.9965	34.129946	0.000436	4.357724	1.476437	-0.000174
 780	7.7510e+01	8.9548	33.996720	0.000334	3.344300	1.133079	-0.000134
 781	7.7610e+01	8.9131	33.879643	0.000294	2.938930	0.995736	-0.000118
 782	7.7710e+01	8.8810	33.770640	0.000274	2.736245	0.927065	-0.000110
 783	7.7809e+01	8.8297	33.621266	0.000375	3.749670	1.270422	-0.000150
 784	7.7909e+01	8.7944	33.512264	0.000274	2.736245	0.927065	-0.000110
 785	7.8008e+01	8.7527	33.391150	0.000304	3.040273	1.030072	-0.000122
 786	7.8108e+01	8.7174	33.294258	0.000243	2.432218	0.824058	-0.000097
 787	7.8207e+01	8.6677	33.169107	0.000314	3.141615	1.064408	-0.000126
 788	7.8306e+01	8.6372	33.056067	0.000284	2.837588	0.961401	-0.000114
 789	7.8406e+01	8.5875	32.902656	0.000385	3.851012	1.304758	-0.000154
 790	7.8505e+01	8.5554	32.817876	0.000213	2.128191	0.721051	-0.000085
 791	7.8605e+01	8.5185	32.668502	0.000375	3.749670	1.270422	-0.000150
 792	7.8704e+01	8.4703	32.575648	0.000233	2.330876	0.789722	-0.000093
 793	7.8804e+01	8.4415	32.406089	0.000426	4.256382	1.442101	-0.000170
 794	7.8903e+01	8.3966	32.333420	0.000182	1.824164	0.618043	-0.000073
 795	7.9003e+01	8.3613	32.208269	0.000314	3.141615	1.064408	-0.000126
 796	7.9103e+01	8.3163	32.062932	0.000365	3.648327	1.236087	-0.000146
 797	7.9202e+01	8.2746	31.970078	0.000233	2.330876	0.789722	-0.000093
 798	7.9302e+01	8.2377	31.800518	0.000426	4.256382	1.442101	-0.000170
 799	7.9401e+01	8.1880	31.707664	0.000233	2.330876	0.789722	-0.000093
 800	7.9501e+01	8.1607	31.574439	0.000334	3.344300	1.133079	-0.000134
 801	7.9600e+01	8.1142	31.453325	0.000304	3.040273	1.030072	-0.000122
 802	7.9700e+01	8.0789	31.368545	0.000213	2.128191	0.721051	-0.000085
 803	7.9799e+01	8.0372	31.194948	0.000436	4.357724	1.476437	-0.000174
 804	7.9898e+01	7.9971	31.073834	0.000304	3.040273	1.030072	-0.000122
 805	7.9998e+01	7.9554	30.956757	0.000294	2.938930	0.995736	-0.000118
 806	8.0097e+01	7.9249	30.827568	0.000324	3.242957	1.098744	-0.000130
 807	8.0197e+01	7.8800	30.718566	0.000274	2.736245	0.927065	-0.000110
 808	8.0296e+01	7.8415	30.593415	0.000314	3.141615	1.064408	-0.000126
 809	8.0396e+01	7.7918	30.472301	0.000304	3.040273	1.030072	-0.000122
 810	8.0496e+01	7.7533	30.331001	0.000355	3.546985	1.201751	-0.000142
 811	8.0595e+01	7.7260	30.238147	0.000233	2.330876	0.789722	-0.000093
 812	8.0695e+01	7.6859	30.096847	0.000355	3.546985	1.201751	-0.000142
 813	8.0794e+01	7.6410	29.983807	0.000284	2.837588	0.961401	-0.000114
 814	8.0894e+01	7.6025	29.854619	0.000324	3.242957	1.098744	-0.000130
 815	8.0993e+01	7.5624	29.676985	0.000446	4.459066	1.510773	-0.000179
 816	8.1093e+01	7.5174	29.588168	0.000223	2.229533	0.755386	-0.000089
 817	8.1192e+01	7.4854	29.467054	0.000304	3.040273	1.030072	-0.000122
 818	8.1291e+01	7.4404	29.317680	0.000375	3.749670	1.270422	-0.000150
 819	8.1391e+01	7.3939	29.196566	0.000304	3.040273	1.030072	-0.000122
 820	8.1490e+01	7.3586	29.063340	0.000334	3.344300	1.133079	-0.000134
 821	8.1590e+01	7.3185	28.998746	0.000162	1.621479	0.549372	-0.000065
 822	8.1689e+01	7.2832	28.829186	0.000426	4.256382	1.442101	-0.000170
 823	8.1789e+01	7.2431	28.704035	0.000314	3.141615	1.064408	-0.000126
 824	8.1888e+01	7.1998	28.603107	0.000253	2.533560	0.858394	-0.000101
 825	8.1988e+01	7.1533	28.437584	0.000416	4.155039	1.407765	-0.000166
 826	8.2088e+01	7.1228	28.312433	0.000314	3.141615	1.064408	-0.000126
 827	8.2187e+01	7.0747	28.167096	0.000365	3.648327	1.236087	-0.000146
 828	8.2287e+01	7.0426	28.074242	0.000233	2.330876	0.789722	-0.000093
 829	8.2386e+01	7.0105	27.932942	0.000355	3.546985	1.201751	-0.000142
 830	8.2486e+01	6.9624	27.836051	0.000243	2.432218	0.824058	-0.000097
 831	8.2585e+01	6.9271	27.662454	0.000436	4.357724	1.476437	-0.000174
 832	8.2684e+01	6.8790	27.553451	0.000274	2.736245	0.927065	-0.000110
 833	8.2784e+01	6.8340	27.448486	0.000263	2.634903	0.892729	-0.000105
 834	8.2883e+01	6.7987	27.343520	0.000263	2.634903	0.892729	-0.000105
 835	8.2983e+01	6.7634	27.202221	0.000355	3.546985	1.201751	-0.000142
 836	8.3082e+01	6.7330	27.044772	0.000395	3.952354	1.339094	-0.000158
 837	8.3182e+01	6.6800	26.959992	0.000213	2.128191	0.721051	-0.000085
 838	8.3281e+01	6.6511	26.818693	0.000355	3.546985	1.201751	-0.000142
 839	8.3381e+01	6.6030	26.677393	0.000355	3.546985	1.201751	-0.000142
 840	8.3481e+01	6.5629	26.616836	0.000152	1.520136	0.515036	-0.000061
 841	8.3580e+01	6.5180	26.406905	0.000527	5.269806	1.785459	-0.000211
 842	8.3680e+01	6.4827	26.326162	0.000203	2.026848	0.686715	-0.000081
 843	8.3779e+01	6.4442	26.184862	0.000355	3.546985	1.201751	-0.000142
 844	8.3879e+01	6.4041	26.092008	0.000233	2.330876	0.789722	-0.000093
 845	8.3978e+01	6.3752	25.934560	0.000395	3.952354	1.339094	-0.000158
 846	8.4078e+01	6.3239	25.813446	0.000304	3.040273	1.030072	-0.000122
 847	8.4177e+01	6.2902	25.700406	0.000284	2.837588	0.961401	-0.000114
 848	8.4276e+01	6.2453	25.567181	0.000334	3.344300	1.133079	-0.000134
 849	8.4376e+01	6.2052	25.429918	0.000345	3.445642	1.167415	-0.000138
 850	8.4475e+01	6.1651	25.296693	0.000334	3.344300	1.133079	-0.000134
 851	8.4575e+01	6.1282	25.159430	0.000345	3.445642	1.167415	-0.000138
 852	8.4674e+01	6.0897	25.070613	0.000223	2.229533	0.755386	-0.000089
 853	8.4774e+01	6.0480	24.969685	0.000253	2.533560	0.858394	-0.000101
 854	8.4874e+01	6.0079	24.816273	0.000385	3.851012	1.304758	-0.000154
 855	8.4973e+01	5.9613	24.646714	0.000426	4.256382	1.442101	-0.000170
 856	8.5073e+01	5.9260	24.541748	0.000263	2.634903	0.892729	-0.000105
 857	8.5172e+01	5.8827	24.416597	0.000314	3.141615	1.064408	-0.000126
 858	8.5272e+01	5.8410	24.299520	0.000294	2.938930	0.995736	-0.000118
 859	8.5371e+01	5.8089	24.162257	0.000345	3.445642	1.167415	-0.000138
 860	8.5471e+01	5.7624	24.053255	0.000274	2.736245	0.927065	-0.000110
 861	8.5570e+01	5.7287	23.883695	0.000426	4.256382	1.442101	-0.000170
 862	8.5669e+01	5.6854	23.770655	0.000284	2.837588	0.961401	-0.000114
 863	8.5769e+01	5.6501	23.645504	0.000314	3.141615	1.064408	-0.000126
 864	8.5868e+01	5.6004	23.528427	0.000294	2.938930	0.995736	-0.000118
 865	8.5968e+01	5.5651	23.379053	0.000375	3.749670	1.270422	-0.000150
 866	8.6067e+01	5.5330	23.225642	0.000385	3.851012	1.304758	-0.000154
 867	8.6167e+01	5.4897	23.092416	0.000334	3.344300	1.133079	-0.000134
 868	8.6266e+01	5.4512	22.967265	0.000314	3.141615	1.064408	-0.000126
 869	8.6366e+01	5.4095	22.838077	0.000324	3.242957	1.098744	-0.000130
 870	8.6466e+01	5.3662	22.708889	0.000324	3.242957	1.098744	-0.000130
 871	8.6565e+01	5.3293	22.587774	0.000304	3.040273	1.030072	-0.000122
 872	8.6665e+01	5.2876	22.410140	0.000446	4.459066	1.510773	-0.000179
 873	8.6764e+01	5.2474	22.301138	0.000274	2.736245	0.927065	-0.000110
 874	8.6864e+01	5.2073	22.192135	0.000274	2.736245	0.927065	-0.000110
 875	8.6963e+01	5.1656	22.046798	0.000365	3.648327	1.236087	-0.000146
 876	8.7063e+01	5.1303	21.885313	0.000405	4.053697	1.373430	-0.000162
 877	8.7162e+01	5.0854	21.784384	0.000253	2.533560	0.858394	-0.000101
 878	8.7261e+01	5.0501	21.626936	0.000395	3.952354	1.339094	-0.000158
 879	8.7361e+01	5.0068	21.530045	0.000243	2.432218	0.824058	-0.000097
 880	8.7460e+01	4.9651	21.344337	0.000466	4.661751	1.579444	-0.000187
 881	8.7560e+01	4.9282	21.219185	0.000314	3.141615	1.064408	-0.000126
 882	8.7659e+01	4.8961	21.114220	0.000263	2.634903	0.892729	-0.000105
 883	8.7759e+01	4.8576	20.956772	0.000395	3.952354	1.339094	-0.000158
 884	8.7859e+01	4.8127	20.831620	0.000314	3.141615	1.064408	-0.000126
 885	8.7958e+01	4.7726	20.690321	0.000355	3.546985	1.201751	-0.000142
 886	8.8058e+01	4.7341	20.581318	0.000274	2.736245	0.927065	-0.000110
 887	8.8157e+01	4.6844	20.411758	0.000426	4.256382	1.442101	-0.000170
 888	8.8257e+01	4.6539	20.274496	0.000345	3.445642	1.167415	-0.000138
 889	8.8356e+01	4.6090	20.173567	0.000253	2.533560	0.858394	-0.000101
 890	8.8456e+01	4.5705	20.028230	0.000365	3.648327	1.236087	-0.000146
 891	8.8555e+01	4.5336	19.890968	0.000345	3.445642	1.167415	-0.000138
 892	8.8654e+01	4.4870	19.753705	0.000345	3.445642	1.167415	-0.000138
 893	8.8754e+01	4.4550	19.604331	0.000375	3.749670	1.270422	-0.000150
 894	8.8853e+01	4.4068	19.487254	0.000294	2.938930	0.995736	-0.000118
 895	8.8953e+01	4.3731	19.354029	0.000334	3.344300	1.133079	-0.000134
 896	8.9052e+01	4.3411	19.196580	0.000395	3.952354	1.339094	-0.000158
 897	8.9152e+01	4.2961	19.079503	0.000294	2.938930	0.995736	-0.000118
 898	8.9251e+01	4.2544	18.938204	0.000355	3.546985	1.201751	-0.000142
 899	8.9351e+01	4.2143	18.800941	0.000345	3.445642	1.167415	-0.000138
 900	8.9451e+01	4.1774	18.691938	0.000274	2.736245	0.927065	-0.000110
 901	8.9550e+01	4.1453	18.530453	0.000405	4.053697	1.373430	-0.000162
 902	8.9650e+01	4.0892	18.377042	0.000385	3.851012	1.304758	-0.000154
 903	8.9749e+01	4.0571	18.251891	0.000314	3.141615	1.064408	-0.000126
 904	8.9849e+01	4.0154	18.106554	0.000365	3.648327	1.236087	-0.000146
 905	8.9948e+01	3.9753	17.965254	0.000355	3.546985	1.201751	-0.000142
 906	9.0047e+01	3.9336	17.840103	0.000314	3.141615	1.064408	-0.000126
 907	9.0147e+01	3.8919	17.686692	0.000385	3.851012	1.304758	-0.000154
 908	9.0246e+01	3.8550	17.565578	0.000304	3.040273	1.030072	-0.000122
 909	9.0346e+01	3.8165	17.432352	0.000334	3.344300	1.133079	-0.000134
 910	9.0445e+01	3.7651	17.278941	0.000385	3.851012	1.304758	-0.000154
 911	9.0545e+01	3.7314	17.157827	0.000304	3.040273	1.030072	-0.000122
 912	9.0644e+01	3.6833	16.984230	0.000436	4.357724	1.476437	-0.000174
 913	9.0744e+01	3.6577	16.891376	0.000233	2.330876	0.789722	-0.000093
 914	9.0844e+01	3.6095	16.689519	0.000507	5.067121	1.716787	-0.000203
 915	9.0943e+01	3.5726	16.548219	0.000355	3.546985	1.201751	-0.000142
 916	9.1043e+01	3.5357	16.443254	0.000263	2.634903	0.892729	-0.000105
 917	9.1142e+01	3.4940	16.289843	0.000385	3.851012	1.304758	-0.000154
 918	9.1242e+01	3.4587	16.136432	0.000385	3.851012	1.304758	-0.000154
 919	9.1341e+01	3.4218	16.011280	0.000314	3.141615	1.064408	-0.000126
 920	9.1441e+01	3.3737	15.825572	0.000466	4.661751	1.579444	-0.000187
 921	9.1540e+01	3.3336	15.724644	0.000253	2.533560	0.858394	-0.000101
 922	9.1639e+01	3.2951	15.563158	0.000405	4.053697	1.373430	-0.000162
 923	9.1739e+01	3.2614	15.405710	0.000395	3.952354	1.339094	-0.000158
 924	9.1838e+01	3.2197	15.268447	0.000345	3.445642	1.167415	-0.000138
 925	9.1938e+01	3.1764	15.139259	0.000324	3.242957	1.098744	-0.000130
 926	9.2037e+01	3.1379	14.965662	0.000436	4.357724	1.476437	-0.000174
 927	9.2137e+01	3.0914	14.820325	0.000365	3.648327	1.236087	-0.000146
 928	9.2237e+01	3.0529	14.703248	0.000294	2.938930	0.995736	-0.000118
 929	9.2336e+01	3.0176	14.557911	0.000365	3.648327	1.236087	-0.000146
 930	9.2436e+01	2.9903	14.412575	0.000365	3.648327	1.236087	-0.000146
 931	9.2535e+01	2.9454	14.226866	0.000466	4.661751	1.579444	-0.000187
 932	9.2635e+01	2.9085	14.105752	0.000304	3.040273	1.030072	-0.000122
 933	9.2734e+01	2.8587	13.936193	0.000426	4.256382	1.442101	-0.000170
 934	9.2834e+01	2.8170	13.790856	0.000365	3.648327	1.236087	-0.000146
 935	9.2933e+01	2.7785	13.661667	0.000324	3.242957	1.098744	-0.000130
 936	9.3032e+01	2.7368	13.516330	0.000365	3.648327	1.236087	-0.000146
 937	9.3132e+01	2.6951	13.362919	0.000385	3.851012	1.304758	-0.000154
 938	9.3231e+01	2.6598	13.225657	0.000345	3.445642	1.167415	-0.000138
 939	9.3331e+01	2.6277	13.064171	0.000405	4.053697	1.373430	-0.000162
 940	9.3430e+01	2.5796	12.947094	0.000294	2.938930	0.995736	-0.000118
 941	9.3530e+01	2.5347	12.797720	0.000375	3.749670	1.270422	-0.000150
 942	9.3629e+01	2.4978	12.612012	0.000466	4.661751	1.579444	-0.000187
 943	9.3729e+01	2.4577	12.458601	0.000385	3.851012	1.304758	-0.000154
 944	9.3829e+01	2.4192	12.301153	0.000395	3.952354	1.339094	-0.000158
 945	9.3928e+01	2.3791	12.180039	0.000304	3.040273	1.030072	-0.000122
 946	9.4028e+01	2.3406	12.018553	0.000405	4.053697	1.373430	-0.000162
 947	9.4127e+01	2.2924	11.905513	0.000284	2.837588	0.961401	-0.000114
 948	9.4227e+01	2.2588	11.735954	0.000426	4.256382	1.442101	-0.000170
 949	9.4326e+01	2.2235	11.594654	0.000355	3.546985	1.201751	-0.000142
 950	9.4425e+01	2.1882	11.421057	0.000436	4.357724	1.476437	-0.000174
 951	9.4525e+01	2.1352	11.312054	0.000274	2.736245	0.927065	-0.000110
 952	9.4624e+01	2.0967	11.106160	0.000517	5.168463	1.751123	-0.000207
 953	9.4724e+01	2.0598	10.972935	0.000334	3.344300	1.133079	-0.000134
 954	9.4823e+01	2.0197	10.835672	0.000345	3.445642	1.167415	-0.000138
 955	9.4923e+01	1.9652	10.670150	0.000416	4.155039	1.407765	-0.000166
 956	9.5022e+01	1.9379	10.577296	0.000233	2.330876	0.789722	-0.000093
 957	9.5122e+01	1.8978	10.371402	0.000517	5.168463	1.751123	-0.000207
 958	9.5222e+01	1.8625	10.254325	0.000294	2.938930	0.995736	-0.000118
 959	9.5321e+01	1.8192	10.088802	0.000416	4.155039	1.407765	-0.000166
 960	9.5421e+01	1.7823	9.935391	0.000385	3.851012	1.304758	-0.000154
 961	9.5520e+01	1.7438	9.790054	0.000365	3.648327	1.236087	-0.000146
 962	9.5620e+01	1.6989	9.636643	0.000385	3.851012	1.304758	-0.000154
 963	9.5719e+01	1.6620	9.507455	0.000324	3.242957	1.098744	-0.000130
 964	9.5819e+01	1.6283	9.317709	0.000476	4.763094	1.613780	-0.000191
 965	9.5918e+01	1.5834	9.184484	0.000334	3.344300	1.133079	-0.000134
 966	9.6017e+01	1.5497	9.027036	0.000395	3.952354	1.339094	-0.000158
 967	9.6117e+01	1.4887	8.841327	0.000466	4.661751	1.579444	-0.000187
 968	9.6216e+01	1.4550	8.740399	0.000253	2.533560	0.858394	-0.000101
 969	9.6316e+01	1.4197	8.566802	0.000436	4.357724	1.476437	-0.000174
 970	9.6415e+01	1.3845	8.449725	0.000294	2.938930	0.995736	-0.000118
 971	9.6515e+01	1.3443	8.280165	0.000426	4.256382	1.442101	-0.000170
 972	9.6615e+01	1.2946	8.122717	0.000395	3.952354	1.339094	-0.000158
 973	9.6714e+01	1.2673	7.965269	0.000395	3.952354	1.339094	-0.000158
 974	9.6814e+01	1.2272	7.832043	0.000334	3.344300	1.133079	-0.000134
 975	9.6913e+01	1.1839	7.678632	0.000385	3.851012	1.304758	-0.000154
 976	9.7013e+01	1.1422	7.500998	0.000446	4.459066	1.510773	-0.000179
 977	9.7112e+01	1.1069	7.303179	0.000497	4.965779	1.682451	-0.000199
 978	9.7212e+01	1.0588	7.194176	0.000274	2.736245	0.927065	-0.000110
 979	9.7311e+01	1.0155	7.028653	0.000416	4.155039	1.407765	-0.000166
 980	9.7410e+01	0.9850	6.899465	0.000324	3.242957	1.098744	-0.000130
 981	9.7510e+01	0.9497	6.733942	0.000416	4.155039	1.407765	-0.000166
 982	9.7609e+01	0.9032	6.596680	0.000345	3.445642	1.167415	-0.000138
 983	9.7709e+01	0.8567	6.402897	0.000486	4.864436	1.648116	-0.000195
 984	9.7808e+01	0.8198	6.245449	0.000395	3.952354	1.339094	-0.000158
 985	9.7908e+01	0.7829	6.096075	0.000375	3.749670	1.270422	-0.000150
 986	9.8007e+01	0.7524	5.950738	0.000365	3.648327	1.236087	-0.000146
 987	9.8107e+01	0.7010	5.805401	0.000365	3.648327	1.236087	-0.000146
 988	9.8207e+01	0.6674	5.672176	0.000334	3.344300	1.133079	-0.000134
 989	9.8306e+01	0.6273	5.490505	0.000456	4.560409	1.545108	-0.000183
 990	9.8406e+01	0.5823	5.304796	0.000466	4.661751	1.579444	-0.000187
 991	9.8505e+01	0.5374	5.151385	0.000385	3.851012	1.304758	-0.000154
 992	9.8605e+01	0.5053	5.014123	0.000345	3.445642	1.167415	-0.000138
 993	9.8704e+01	0.4636	4.848600	0.000416	4.155039	1.407765	-0.000166
 994	9.8803e+01	0.4331	4.670966	0.000446	4.459066	1.510773	-0.000179
 995	9.8903e+01	0.3834	4.529666	0.000355	3.546985	1.201751	-0.000142
 996	9.9002e+01	0.3513	4.412589	0.000294	2.938930	0.995736	-0.000118
 997	9.9102e+01	0.3144	4.243030	0.000426	4.256382	1.442101	-0.000170
 998	9.9201e+01	0.2679	4.073470	0.000426	4.256382	1.442101	-0.000170
 999	9.9301e+01	0.2262	3.911985	0.000405	4.053697	1.373430	-0.000162
1000	9.9400e+01	0.1813	3.722239	0.000476	4.763094	1.613780	-0.000191
1001	9.9500e+01	0.1508	3.629385	0.000233	2.330876	0.789722	-0.000093
1002	9.9600e+01	0.1075	3.475974	0.000385	3.851012	1.304758	-0.000154
1003	9.9699e+01	0.0706	3.286228	0.000476	4.763094	1.613780	-0.000191
1004	9.9799e+01	0.0273	3.144929	0.000355	3.546985	1.201751	-0.000142
1005	9.9898e+01	-0.0112	3.023815	0.000304	3.040273	1.030072	-0.000122
1006	9.9998e+01	-0.0385	2.910775	0.000284	2.837588	0.961401	-0.000114
1007	1.0010e+02	-0.0914	2.708918	0.000507	5.067121	1.716787	-0.000203
1008	1.0020e+02	-0.1283	2.563581	0.000365	3.648327	1.236087	-0.000146
1009	1.0030e+02	-0.1572	2.381910	0.000456	4.560409	1.545108	-0.000183
1010	1.0040e+02	-0.2053	2.240610	0.000355	3.546985	1.201751	-0.000142
1011	1.0050e+02	-0.2454	2.079125	0.000405	4.053697	1.373430	-0.000162
1012	1.0059e+02	-0.2759	1.913602	0.000416	4.155039	1.407765	-0.000166
1013	1.0069e+02	-0.3305	1.800563	0.000284	2.837588	0.961401	-0.000114
1014	1.0079e+02	-0.3497	1.655226	0.000365	3.648327	1.236087	-0.000146
1015	1.0089e+02	-0.4043	1.441257	0.000537	5.371148	1.819794	-0.000215
1016	1.0099e+02	-0.4540	1.299958	0.000355	3.546985	1.201751	-0.000142
1017	1.0109e+02	-0.4781	1.215178	0.000213	2.128191	0.721051	-0.000085
1018	1.0119e+02	-0.5278	0.964875	0.000628	6.283230	2.128816	-0.000252
1019	1.0129e+02	-0.5663	0.839724	0.000314	3.141615	1.064408	-0.000126
1020	1.0139e+02	-0.6016	0.742833	0.000243	2.432218	0.824058	-0.000097
1021	1.0149e+02	-0.6433	0.524828	0.000547	5.472491	1.854130	-0.000219
1022	1.0159e+02	-0.6786	0.379491	0.000365	3.648327	1.236087	-0.000146
1023	1.0169e+02	-0.7235	0.234154	0.000365	3.648327	1.236087	-0.000146
1024	1.0179e+02	-0.7588	0.113040	0.000304	3.040273	1.030072	-0.000122
1025	1.0189e+02	-0.7973	-0.056520	0.000426	4.256382	1.442101	-0.000170
1026	1.0199e+02	-0.8454	-0.254340	0.000497	4.965779	1.682451	-0.000199
1027	1.0209e+02	-0.8759	-0.419862	0.000416	4.155039	1.407765	-0.000166
1028	1.0219e+02	-0.9192	-0.545013	0.000314	3.141615	1.064408	-0.000126
1029	1.0229e+02	-0.9625	-0.686313	0.000355	3.546985	1.201751	-0.000142
1030	1.0239e+02	-0.9994	-0.908356	0.000557	5.573833	1.888466	-0.000223
1031	1.0248e+02	-1.0460	-1.065804	0.000395	3.952354	1.339094	-0.000158
1032	1.0258e+02	-1.0813	-1.178844	0.000284	2.837588	0.961401	-0.000114
1033	1.0268e+02	-1.1149	-1.340329	0.000405	4.053697	1.373430	-0.000162
1034	1.0278e+02	-1.1615	-1.469517	0.000324	3.242957	1.098744	-0.000130
1035	1.0288e+02	-1.2064	-1.643114	0.000436	4.357724	1.476437	-0.000174
1036	1.0298e+02	-1.2433	-1.840934	0.000497	4.965779	1.682451	-0.000199
1037	1.0308e+02	-1.2754	-1.949937	0.000274	2.736245	0.927065	-0.000110
1038	1.0318e+02	-1.3251	-2.115459	0.000416	4.155039	1.407765	-0.000166
1039	1.0328e+02	-1.3684	-2.280982	0.000416	4.155039	1.407765	-0.000166
1040	1.0338e+02	-1.3973	-2.434393	0.000385	3.851012	1.304758	-0.000154
1041	1.0348e+02	-1.4406	-2.575693	0.000355	3.546985	1.201751	-0.000142
1042	1.0358e+02	-1.4807	-2.757364	0.000456	4.560409	1.545108	-0.000183
1043	1.0368e+02	-1.5256	-2.906738	0.000375	3.749670	1.270422	-0.000150
1044	1.0378e+02	-1.5561	-3.080335	0.000436	4.357724	1.476437	-0.000174
1045	1.0388e+02	-1.5978	-3.213560	0.000334	3.344300	1.133079	-0.000134
1046	1.0398e+02	-1.6363	-3.375045	0.000405	4.053697	1.373430	-0.000162
1047	1.0408e+02	-1.6796	-3.496160	0.000304	3.040273	1.030072	-0.000122
1048	1.0418e+02	-1.7246	-3.649571	0.000385	3.851012	1.304758	-0.000154
1049	1.0428e+02	-1.7518	-3.859502	0.000527	5.269806	1.785459	-0.000211
1050	1.0438e+02	-1.7983	-4.029061	0.000426	4.256382	1.442101	-0.000170
1051	1.0447e+02	-1.8401	-4.121916	0.000233	2.330876	0.789722	-0.000093
1052	1.0457e+02	-1.8753	-4.291475	0.000426	4.256382	1.442101	-0.000170
1053	1.0467e+02	-1.9203	-4.469109	0.000446	4.459066	1.510773	-0.000179
1054	1.0477e+02	-1.9604	-4.626558	0.000395	3.952354	1.339094	-0.000158
1055	1.0487e+02	-1.9989	-4.775932	0.000375	3.749670	1.270422	-0.000150
1056	1.0497e+02	-2.0406	-4.888971	0.000284	2.837588	0.961401	-0.000114
1057	1.0507e+02	-2.0887	-5.058531	0.000426	4.256382	1.442101	-0.000170
1058	1.0517e+02	-2.1176	-5.215979	0.000395	3.952354	1.339094	-0.000158
1059	1.0527e+02	-2.1561	-5.365353	0.000375	3.749670	1.270422	-0.000150
1060	1.0537e+02	-2.1994	-5.571247	0.000517	5.168463	1.751123	-0.000207
1061	1.0547e+02	-2.2379	-5.672176	0.000253	2.533560	0.858394	-0.000101
1062	1.0557e+02	-2.2796	-5.833661	0.000405	4.053697	1.373430	-0.000162
1063	1.0567e+02	-2.3117	-5.983035	0.000375	3.749670	1.270422	-0.000150
1064	1.0577e+02	-2.3534	-6.160669	0.000446	4.459066	1.510773	-0.000179
1065	1.0587e+02	-2.3935	-6.306006	0.000365	3.648327	1.236087	-0.000146
1066	1.0597e+02	-2.4320	-6.443269	0.000345	3.445642	1.167415	-0.000138
1067	1.0607e+02	-2.4801	-6.580531	0.000345	3.445642	1.167415	-0.000138
1068	1.0617e+02	-2.5042	-6.717794	0.000345	3.445642	1.167415	-0.000138
1069	1.0627e+02	-2.5588	-6.895428	0.000446	4.459066	1.510773	-0.000179
1070	1.0637e+02	-2.5940	-7.052876	0.000395	3.952354	1.339094	-0.000158
1071	1.0647e+02	-2.6406	-7.173990	0.000304	3.040273	1.030072	-0.000122
1072	1.0656e+02	-2.6646	-7.391996	0.000547	5.472491	1.854130	-0.000219
1073	1.0666e+02	-2.7192	-7.476775	0.000213	2.128191	0.721051	-0.000085
1074	1.0676e+02	-2.7545	-7.658446	0.000456	4.560409	1.545108	-0.000183
1075	1.0686e+02	-2.7962	-7.807821	0.000375	3.749670	1.270422	-0.000150
1076	1.0696e+02	-2.8315	-7.993529	0.000466	4.661751	1.579444	-0.000187
1077	1.0706e+02	-2.8764	-8.118680	0.000314	3.141615	1.064408	-0.000126
1078	1.0716e+02	-2.9101	-8.239794	0.000304	3.040273	1.030072	-0.000122
1079	1.0726e+02	-2.9614	-8.405317	0.000416	4.155039	1.407765	-0.000166
1080	1.0736e+02	-2.9935	-8.554691	0.000375	3.749670	1.270422	-0.000150
1081	1.0746e+02	-3.0400	-8.687916	0.000334	3.344300	1.133079	-0.000134
1082	1.0756e+02	-3.0721	-8.865550	0.000446	4.459066	1.510773	-0.000179
1083	1.0766e+02	-3.1090	-9.002813	0.000345	3.445642	1.167415	-0.000138
1084	1.0776e+02	-3.1507	-9.172372	0.000426	4.256382	1.442101	-0.000170
1085	1.0786e+02	-3.1908	-9.313672	0.000355	3.546985	1.201751	-0.000142
1086	1.0796e+02	-3.2357	-9.446898	0.000334	3.344300	1.133079	-0.000134
1087	1.0806e+02	-3.2742	-9.624532	0.000446	4.459066	1.510773	-0.000179
1088	1.0816e+02	-3.3079	-9.773906	0.000375	3.749670	1.270422	-0.000150
1089	1.0826e+02	-3.3496	-9.907131	0.000334	3.344300	1.133079	-0.000134
1090	1.0836e+02	-3.3946	-10.068617	0.000405	4.053697	1.373430	-0.000162
1091	1.0845e+02	-3.4331	-10.209916	0.000355	3.546985	1.201751	-0.000142
1092	1.0855e+02	-3.4651	-10.375439	0.000416	4.155039	1.407765	-0.000166
1093	1.0865e+02	-3.5117	-10.504627	0.000324	3.242957	1.098744	-0.000130
1094	1.0875e+02	-3.5486	-10.674187	0.000426	4.256382	1.442101	-0.000170
1095	1.0885e+02	-3.5919	-10.795301	0.000304	3.040273	1.030072	-0.000122
1096	1.0895e+02	-3.6320	-10.972935	0.000446	4.459066	1.510773	-0.000179
1097	1.0905e+02	-3.6737	-11.094049	0.000304	3.040273	1.030072	-0.000122
1098	1.0915e+02	-3.7106	-11.263609	0.000426	4.256382	1.442101	-0.000170
1099	1.0925e+02	-3.7395	-11.408946	0.000365	3.648327	1.236087	-0.000146
1100	1.0935e+02	-3.7924	-11.586580	0.000446	4.459066	1.510773	-0.000179
1101	1.0945e+02	-3.8357	-11.723842	0.000345	3.445642	1.167415	-0.000138
1102	1.0955e+02	-3.8614	-11.877253	0.000385	3.851012	1.304758	-0.000154
1103	1.0965e+02	-3.9015	-11.998367	0.000304	3.040273	1.030072	-0.000122
1104	1.0975e+02	-3.9480	-12.171964	0.000436	4.357724	1.476437	-0.000174
1105	1.0985e+02	-3.9865	-12.317301	0.000365	3.648327	1.236087	-0.000146
1106	1.0995e+02	-4.0234	-12.442452	0.000314	3.141615	1.064408	-0.000126
1107	1.1005e+02	-4.0667	-12.591826	0.000375	3.749670	1.270422	-0.000150
1108	1.1015e+02	-4.1084	-12.761386	0.000426	4.256382	1.442101	-0.000170
1109	1.1025e+02	-4.1534	-12.862314	0.000253	2.533560	0.858394	-0.000101
1110	1.1035e+02	-4.1983	-13.023800	0.000405	4.053697	1.373430	-0.000162
1111	1.1044e+02	-4.2352	-13.161063	0.000345	3.445642	1.167415	-0.000138
1112	1.1054e+02	-4.2689	-13.326585	0.000416	4.155039	1.407765	-0.000166
1113	1.1064e+02	-4.3106	-13.435588	0.000274	2.736245	0.927065	-0.000110
1114	1.1074e+02	-4.3507	-13.661667	0.000568	5.675175	1.922802	-0.000227
1115	1.1084e+02	-4.3860	-13.782781	0.000304	3.040273	1.030072	-0.000122
1116	1.1094e+02	-4.4245	-13.891784	0.000274	2.736245	0.927065	-0.000110
1117	1.1104e+02	-4.4630	-14.025010	0.000334	3.344300	1.133079	-0.000134
1118	1.1114e+02	-4.5095	-14.166309	0.000355	3.546985	1.201751	-0.000142
1119	1.1124e+02	-4.5432	-14.323758	0.000395	3.952354	1.339094	-0.000158
1120	1.1134e+02	-4.5881	-14.485243	0.000405	4.053697	1.373430	-0.000162
1121	1.1144e+02	-4.6250	-14.606357	0.000304	3.040273	1.030072	-0.000122
1122	1.1154e+02	-4.6699	-14.779954	0.000436	4.357724	1.476437	-0.000174
1123	1.1164e+02	-4.7180	-14.905105	0.000314	3.141615	1.064408	-0.000126
1124	1.1174e+02	-4.7421	-15.058516	0.000385	3.851012	1.304758	-0.000154
1125	1.1184e+02	-4.7806	-15.215965	0.000395	3.952354	1.339094	-0.000158
1126	1.1194e+02	-4.8255	-15.345153	0.000324	3.242957	1.098744	-0.000130
1127	1.1204e+02	-4.8624	-15.474341	0.000324	3.242957	1.098744	-0.000130
1128	1.1214e+02	-4.9090	-15.615641	0.000355	3.546985	1.201751	-0.000142
1129	1.1224e+02	-4.9410	-15.736755	0.000304	3.040273	1.030072	-0.000122
1130	1.1234e+02	-4.9860	-15.902278	0.000416	4.155039	1.407765	-0.000166
1131	1.1244e+02	-5.0309	-16.035503	0.000334	3.344300	1.133079	-0.000134
1132	1.1253e+02	-5.0694	-16.225249	0.000476	4.763094	1.613780	-0.000191
1133	1.1263e+02	-5.1063	-16.362511	0.000345	3.445642	1.167415	-0.000138
1134	1.1273e+02	-5.1448	-16.471514	0.000274	2.736245	0.927065	-0.000110
1135	1.1283e+02	-5.1881	-16.568405	0.000243	2.432218	0.824058	-0.000097
1136	1.1293e+02	-5.2186	-16.778336	0.000527	5.269806	1.785459	-0.000211
1137	1.1303e+02	-5.2667	-16.875227	0.000243	2.432218	0.824058	-0.000097
1138	1.1313e+02	-5.3116	-17.000379	0.000314	3.141615	1.064408	-0.000126
1139	1.1323e+02	-5.3437	-17.214347	0.000537	5.371148	1.819794	-0.000215
1140	1.1333e+02	-5.3806	-17.343535	0.000324	3.242957	1.098744	-0.000130
1141	1.1343e+02	-5.4223	-17.444464	0.000253	2.533560	0.858394	-0.000101
1142	1.1353e+02	-5.4704	-17.589800	0.000365	3.648327	1.236087	-0.000146
1143	1.1363e+02	-5.5137	-17.739174	0.000375	3.749670	1.270422	-0.000150
1144	1.1373e+02	-5.5458	-17.892586	0.000385	3.851012	1.304758	-0.000154
1145	1.1383e+02	-5.5763	-17.981403	0.000223	2.229533	0.755386	-0.000089
1146	1.1393e+02	-5.6244	-18.122702	0.000355	3.546985	1.201751	-0.000142
1147	1.1403e+02	-5.6565	-18.284188	0.000405	4.053697	1.373430	-0.000162
1148	1.1413e+02	-5.7063	-18.482007	0.000497	4.965779	1.682451	-0.000199
1149	1.1423e+02	-5.7432	-18.586973	0.000263	2.634903	0.892729	-0.000105
1150	1.1433e+02	-5.7865	-18.695976	0.000274	2.736245	0.927065	-0.000110
1151	1.1442e+02	-5.8314	-18.869572	0.000436	4.357724	1.476437	-0.000174
1152	1.1452e+02	-5.8619	-18.966464	0.000243	2.432218	0.824058	-0.000097
1153	1.1462e+02	-5.9052	-19.152172	0.000466	4.661751	1.579444	-0.000187
1154	1.1472e+02	-5.9325	-19.236952	0.000213	2.128191	0.721051	-0.000085
1155	1.1482e+02	-5.9758	-19.414586	0.000446	4.459066	1.510773	-0.000179
1156	1.1492e+02	-6.0143	-19.539737	0.000314	3.141615	1.064408	-0.000126
1157	1.1502e+02	-6.0688	-19.656814	0.000294	2.938930	0.995736	-0.000118
1158	1.1512e+02	-6.1105	-19.826374	0.000426	4.256382	1.442101	-0.000170
1159	1.1522e+02	-6.1506	-19.927302	0.000253	2.533560	0.858394	-0.000101
1160	1.1532e+02	-6.1811	-20.117047	0.000476	4.763094	1.613780	-0.000191
1161	1.1542e+02	-6.2244	-20.185679	0.000172	1.722821	0.583708	-0.000069
1162	1.1552e+02	-6.2661	-20.363313	0.000446	4.459066	1.510773	-0.000179
1163	1.1562e+02	-6.3014	-20.508650	0.000365	3.648327	1.236087	-0.000146
1164	1.1572e+02	-6.3415	-20.637838	0.000324	3.242957	1.098744	-0.000130
1165	1.1582e+02	-6.3800	-20.746841	0.000274	2.736245	0.927065	-0.000110
1166	1.1592e+02	-6.4266	-20.908326	0.000405	4.053697	1.373430	-0.000162
1167	1.1602e+02	-6.4554	-21.029440	0.000304	3.040273	1.030072	-0.000122
1168	1.1612e+02	-6.4971	-21.190925	0.000405	4.053697	1.373430	-0.000162
1169	1.1622e+02	-6.5340	-21.303965	0.000284	2.837588	0.961401	-0.000114
1170	1.1632e+02	-6.5741	-21.417005	0.000284	2.837588	0.961401	-0.000114
1171	1.1642e+02	-6.6094	-21.550231	0.000334	3.344300	1.133079	-0.000134
1172	1.1651e+02	-6.6560	-21.687493	0.000345	3.445642	1.167415	-0.000138
1173	1.1661e+02	-6.7009	-21.800533	0.000284	2.837588	0.961401	-0.000114
1174	1.1671e+02	-6.7346	-21.933758	0.000334	3.344300	1.133079	-0.000134
1175	1.1681e+02	-6.7731	-22.062947	0.000324	3.242957	1.098744	-0.000130
1176	1.1691e+02	-6.8212	-22.184061	0.000304	3.040273	1.030072	-0.000122
1177	1.1701e+02	-6.8597	-22.329398	0.000365	3.648327	1.236087	-0.000146
1178	1.1711e+02	-6.8966	-22.446475	0.000294	2.938930	0.995736	-0.000118
1179	1.1721e+02	-6.9367	-22.611997	0.000416	4.155039	1.407765	-0.000166
1180	1.1731e+02	-6.9720	-22.761371	0.000375	3.749670	1.270422	-0.000150
1181	1.1741e+02	-7.0137	-22.882485	0.000304	3.040273	1.030072	-0.000122
1182	1.1751e+02	-7.0538	-22.959191	0.000193	1.925506	0.652379	-0.000077
1183	1.1761e+02	-7.0891	-23.120676	0.000405	4.053697	1.373430	-0.000162
1184	1.1771e+02	-7.1388	-23.261976	0.000355	3.546985	1.201751	-0.000142
1185	1.1781e+02	-7.1789	-23.423462	0.000405	4.053697	1.373430	-0.000162
1186	1.1791e+02	-7.2174	-23.532464	0.000274	2.736245	0.927065	-0.000110
1187	1.1801e+02	-7.2656	-23.653578	0.000304	3.040273	1.030072	-0.000122
1188	1.1811e+02	-7.2896	-23.770655	0.000294	2.938930	0.995736	-0.000118
1189	1.1821e+02	-7.3378	-23.915992	0.000365	3.648327	1.236087	-0.000146
1190	1.1831e+02	-7.3682	-24.073440	0.000395	3.952354	1.339094	-0.000158
1191	1.1841e+02	-7.4148	-24.158220	0.000213	2.128191	0.721051	-0.000085
1192	1.1850e+02	-7.4549	-24.255112	0.000243	2.432218	0.824058	-0.000097
1193	1.1860e+02	-7.4918	-24.432745	0.000446	4.459066	1.510773	-0.000179
1194	1.1870e+02	-7.5351	-24.525600	0.000233	2.330876	0.789722	-0.000093
1195	1.1880e+02	-7.5784	-24.691122	0.000416	4.155039	1.407765	-0.000166
1196	1.1890e+02	-7.6249	-24.775902	0.000213	2.128191	0.721051	-0.000085
1197	1.1900e+02	-7.6458	-24.949499	0.000436	4.357724	1.476437	-0.000174
1198	1.1910e+02	-7.7019	-25.094836	0.000365	3.648327	1.236087	-0.000146
1199	1.1920e+02	-7.7436	-25.191727	0.000243	2.432218	0.824058	-0.000097
1200	1.1930e+02	-7.7757	-25.304767	0.000284	2.837588	0.961401	-0.000114
1201	1.1940e+02	-7.8206	-25.446067	0.000355	3.546985	1.201751	-0.000142
1202	1.1950e+02	-7.8607	-25.611589	0.000416	4.155039	1.407765	-0.000166
1203	1.1960e+02	-7.8992	-25.724629	0.000284	2.837588	0.961401	-0.000114
1204	1.1970e+02	-7.9458	-25.845743	0.000304	3.040273	1.030072	-0.000122
1205	1.1980e+02	-7.9762	-25.999154	0.000385	3.851012	1.304758	-0.000154
1206	1.1990e+02	-8.0180	-26.136417	0.000345	3.445642	1.167415	-0.000138
1207	1.2000e+02	-8.0613	-26.245419	0.000274	2.736245	0.927065	-0.000110
1208	1.2010e+02	-8.0950	-26.394793	0.000375	3.749670	1.270422	-0.000150
1209	1.2020e+02	-8.1303	-26.499759	0.000263	2.634903	0.892729	-0.000105
1210	1.2030e+02	-8.1639	-26.661244	0.000405	4.053697	1.373430	-0.000162
1211	1.2039e+02	-8.2169	-26.758136	0.000243	2.432218	0.824058	-0.000097
1212	1.2049e+02	-8.2538	-26.903473	0.000365	3.648327	1.236087	-0.000146
1213	1.2059e+02	-8.2859	-27.000364	0.000243	2.432218	0.824058	-0.000097
1214	1.2069e+02	-8.3308	-27.173961	0.000436	4.357724	1.476437	-0.000174
1215	1.2079e+02	-8.3757	-27.274889	0.000253	2.533560	0.858394	-0.000101
1216	1.2089e+02	-8.4174	-27.420226	0.000365	3.648327	1.236087	-0.000146
1217	1.2099e+02	-8.4463	-27.529229	0.000274	2.736245	0.927065	-0.000110
1218	1.2109e+02	-8.4912	-27.634194	0.000263	2.634903	0.892729	-0.000105
1219	1.2119e+02	-8.5281	-27.795680	0.000405	4.053697	1.373430	-0.000162
1220	1.2129e+02	-8.5730	-27.920831	0.000314	3.141615	1.064408	-0.000126
1221	1.2139e+02	-8.6131	-28.025796	0.000263	2.634903	0.892729	-0.000105
1222	1.2149e+02	-8.6532	-28.207467	0.000456	4.560409	1.545108	-0.000183
1223	1.2159e+02	-8.6853	-28.300322	0.000233	2.330876	0.789722	-0.000093
1224	1.2169e+02	-8.7302	-28.433547	0.000334	3.344300	1.133079	-0.000134
1225	1.2179e+02	-8.7639	-28.574847	0.000355	3.546985	1.201751	-0.000142
1226	1.2189e+02	-8.8088	-28.704035	0.000324	3.242957	1.098744	-0.000130
1227	1.2199e+02	-8.8522	-28.788815	0.000213	2.128191	0.721051	-0.000085
1228	1.2209e+02	-8.8891	-28.958375	0.000426	4.256382	1.442101	-0.000170
1229	1.2219e+02	-8.9356	-29.067377	0.000274	2.736245	0.927065	-0.000110
1230	1.2229e+02	-8.9709	-29.204640	0.000345	3.445642	1.167415	-0.000138
1231	1.2239e+02	-9.0126	-29.313643	0.000274	2.736245	0.927065	-0.000110
1232	1.2248e+02	-9.0495	-29.463017	0.000375	3.749670	1.270422	-0.000150
1233	1.2258e+02	-9.0928	-29.592205	0.000324	3.242957	1.098744	-0.000130
1234	1.2268e+02	-9.1265	-29.725430	0.000334	3.344300	1.133079	-0.000134
1235	1.2278e+02	-9.1730	-29.858656	0.000334	3.344300	1.133079	-0.000134
1236	1.2288e+02	-9.2115	-29.931324	0.000182	1.824164	0.618043	-0.000073
1237	1.2298e+02	-9.2564	-30.060513	0.000324	3.242957	1.098744	-0.000130
1238	1.2308e+02	-9.2917	-30.197775	0.000345	3.445642	1.167415	-0.000138
1239	1.2318e+02	-9.3350	-30.339075	0.000355	3.546985	1.201751	-0.000142
1240	1.2328e+02	-9.3655	-30.480375	0.000355	3.546985	1.201751	-0.000142
1241	1.2338e+02	-9.4104	-30.585340	0.000263	2.634903	0.892729	-0.000105
1242	1.2348e+02	-9.4586	-30.746826	0.000405	4.053697	1.373430	-0.000162
1243	1.2358e+02	-9.4810	-30.855828	0.000274	2.736245	0.927065	-0.000110
1244	1.2368e+02	-9.5291	-30.920423	0.000162	1.621479	0.549372	-0.000065
1245	1.2378e+02	-9.5725	-31.041537	0.000304	3.040273	1.030072	-0.000122
1246	1.2388e+02	-9.6078	-31.247431	0.000517	5.168463	1.751123	-0.000207
1247	1.2398e+02	-9.6495	-31.324136	0.000193	1.925506	0.652379	-0.000077
1248	1.2408e+02	-9.6944	-31.477547	0.000385	3.851012	1.304758	-0.000154
1249	1.2418e+02	-9.7361	-31.606736	0.000324	3.242957	1.098744	-0.000130
1250	1.2428e+02	-9.7698	-31.699590	0.000233	2.330876	0.789722	-0.000093
1251	1.2438e+02	-9.7970	-31.812630	0.000284	2.837588	0.961401	-0.000114
1252	1.2447e+02	-9.8388	-31.970078	0.000395	3.952354	1.339094	-0.000158
1253	1.2457e+02	-9.8805	-32.107341	0.000345	3.445642	1.167415	-0.000138
1254	1.2467e+02	-9.9334	-32.244603	0.000345	3.445642	1.167415	-0.000138
1255	1.2477e+02	-9.9735	-32.381866	0.000345	3.445642	1.167415	-0.000138
1256	1.2487e+02	-10.0024	-32.474720	0.000233	2.330876	0.789722	-0.000093
1257	1.2497e+02	-10.0473	-32.624094	0.000375	3.749670	1.270422	-0.000150
1258	1.2507e+02	-10.0890	-32.737134	0.000284	2.837588	0.961401	-0.000114
1259	1.2517e+02	-10.1147	-32.858248	0.000304	3.040273	1.030072	-0.000122
1260	1.2527e+02	-10.1612	-32.999548	0.000355	3.546985	1.201751	-0.000142
1261	1.2537e+02	-10.2029	-33.092402	0.000233	2.330876	0.789722	-0.000093
1262	1.2547e+02	-10.2478	-33.241776	0.000375	3.749670	1.270422	-0.000150
1263	1.2557e+02	-10.2863	-33.399224	0.000395	3.952354	1.339094	-0.000158
1264	1.2567e+02	-10.3136	-33.520338	0.000304	3.040273	1.030072	-0.000122
1265	1.2577e+02	-10.3633	-33.641452	0.000304	3.040273	1.030072	-0.000122
1266	1.2587e+02	-10.4051	-33.762566	0.000304	3.040273	1.030072	-0.000122
1267	1.2597e+02	-10.4452	-33.883680	0.000304	3.040273	1.030072	-0.000122
1268	1.2607e+02	-10.4869	-34.012869	0.000324	3.242957	1.098744	-0.000130
1269	1.2617e+02	-10.5206	-34.109760	0.000243	2.432218	0.824058	-0.000097
1270	1.2627e+02	-10.5671	-34.267208	0.000395	3.952354	1.339094	-0.000158
1271	1.2636e+02	-10.6184	-34.380248	0.000284	2.837588	0.961401	-0.000114
1272	1.2646e+02	-10.6441	-34.505399	0.000314	3.141615	1.064408	-0.000126
1273	1.2656e+02	-10.6906	-34.678996	0.000436	4.357724	1.476437	-0.000174
1274	1.2666e+02	-10.7243	-34.759739	0.000203	2.026848	0.686715	-0.000081
1275	1.2676e+02	-10.7660	-34.880853	0.000304	3.040273	1.030072	-0.000122
1276	1.2686e+02	-10.8093	-35.022153	0.000355	3.546985	1.201751	-0.000142
1277	1.2696e+02	-10.8414	-35.139229	0.000294	2.938930	0.995736	-0.000118
1278	1.2706e+02	-10.8879	-35.276492	0.000345	3.445642	1.167415	-0.000138
1279	1.2716e+02	-10.9216	-35.397606	0.000304	3.040273	1.030072	-0.000122
1280	1.2726e+02	-10.9617	-35.498535	0.000253	2.533560	0.858394	-0.000101
1281	1.2736e+02	-11.0018	-35.651946	0.000385	3.851012	1.304758	-0.000154
1282	1.2746e+02	-11.0467	-35.752874	0.000253	2.533560	0.858394	-0.000101
1283	1.2756e+02	-11.0901	-35.873988	0.000304	3.040273	1.030072	-0.000122
1284	1.2766e+02	-11.1205	-35.974917	0.000253	2.533560	0.858394	-0.000101
1285	1.2776e+02	-11.1639	-36.152551	0.000446	4.459066	1.510773	-0.000179
1286	1.2786e+02	-11.1975	-36.269627	0.000294	2.938930	0.995736	-0.000118
1287	1.2796e+02	-11.2360	-36.386704	0.000294	2.938930	0.995736	-0.000118
1288	1.2806e+02	-11.2713	-36.503781	0.000294	2.938930	0.995736	-0.000118
1289	1.2816e+02	-11.3163	-36.612784	0.000274	2.736245	0.927065	-0.000110
1290	1.2826e+02	-11.3644	-36.725824	0.000284	2.837588	0.961401	-0.000114
1291	1.2835e+02	-11.3997	-36.863086	0.000345	3.445642	1.167415	-0.000138
1292	1.2845e+02	-11.4334	-36.980163	0.000294	2.938930	0.995736	-0.000118
1293	1.2855e+02	-11.4943	-37.117426	0.000345	3.445642	1.167415	-0.000138
1294	1.2865e+02	-11.5264	-37.258726	0.000355	3.546985	1.201751	-0.000142
1295	1.2875e+02	-11.5569	-37.351580	0.000233	2.330876	0.789722	-0.000093
1296	1.2885e+02	-11.5906	-37.484805	0.000334	3.344300	1.133079	-0.000134
1297	1.2895e+02	-11.6515	-37.605919	0.000304	3.040273	1.030072	-0.000122
1298	1.2905e+02	-11.6820	-37.739145	0.000334	3.344300	1.133079	-0.000134
1299	1.2915e+02	-11.7285	-37.872370	0.000334	3.344300	1.133079	-0.000134
1300	1.2925e+02	-11.7558	-37.989447	0.000294	2.938930	0.995736	-0.000118
1301	1.2935e+02	-11.7991	-38.086339	0.000243	2.432218	0.824058	-0.000097
1302	1.2945e+02	-11.8344	-38.150933	0.000162	1.621479	0.549372	-0.000065
1303	1.2955e+02	-11.8793	-38.340678	0.000476	4.763094	1.613780	-0.000191
1304	1.2965e+02	-11.9291	-38.469866	0.000324	3.242957	1.098744	-0.000130
1305	1.2975e+02	-11.9628	-38.574832	0.000263	2.634903	0.892729	-0.000105
1306	1.2985e+02	-11.9948	-38.695946	0.000304	3.040273	1.030072	-0.000122
1307	1.2995e+02	-12.0462	-38.841283	0.000365	3.648327	1.236087	-0.000146
1308	1.3005e+02	-12.0751	-38.930100	0.000223	2.229533	0.755386	-0.000089
1309	1.3015e+02	-12.1200	-39.083511	0.000385	3.851012	1.304758	-0.000154
1310	1.3025e+02	-12.1601	-39.192514	0.000274	2.736245	0.927065	-0.000110
1311	1.3034e+02	-12.1970	-39.309591	0.000294	2.938930	0.995736	-0.000118
1312	1.3044e+02	-12.2371	-39.463002	0.000385	3.851012	1.304758	-0.000154
1313	1.3054e+02	-12.2708	-39.596227	0.000334	3.344300	1.133079	-0.000134
1314	1.3064e+02	-12.3157	-39.660821	0.000162	1.621479	0.549372	-0.000065
1315	1.3074e+02	-12.3494	-39.806158	0.000365	3.648327	1.236087	-0.000146
1316	1.3084e+02	-12.3959	-39.907087	0.000253	2.533560	0.858394	-0.000101
1317	1.3094e+02	-12.4440	-40.024164	0.000294	2.938930	0.995736	-0.000118
1318	1.3104e+02	-12.4745	-40.153352	0.000324	3.242957	1.098744	-0.000130
1319	1.3114e+02	-12.5082	-40.274466	0.000304	3.040273	1.030072	-0.000122
1320	1.3124e+02	-12.5579	-40.411729	0.000345	3.445642	1.167415	-0.000138
1321	1.3134e+02	-12.6029	-40.544954	0.000334	3.344300	1.133079	-0.000134
1322	1.3144e+02	-12.6414	-40.637808	0.000233	2.330876	0.789722	-0.000093
1323	1.3154e+02	-12.6622	-40.766997	0.000324	3.242957	1.098744	-0.000130
1324	1.3164e+02	-12.7248	-40.904259	0.000345	3.445642	1.167415	-0.000138
1325	1.3174e+02	-12.7537	-41.025373	0.000304	3.040273	1.030072	-0.000122
1326	1.3184e+02	-12.7970	-41.122265	0.000243	2.432218	0.824058	-0.000097
1327	1.3194e+02	-12.8339	-41.243379	0.000304	3.040273	1.030072	-0.000122
1328	1.3204e+02	-12.8708	-41.356419	0.000284	2.837588	0.961401	-0.000114
1329	1.3214e+02	-12.9044	-41.481570	0.000314	3.141615	1.064408	-0.000126
1330	1.3224e+02	-12.9574	-41.594610	0.000284	2.837588	0.961401	-0.000114
1331	1.3234e+02	-12.9895	-41.760132	0.000416	4.155039	1.407765	-0.000166
1332	1.3243e+02	-13.0280	-41.836838	0.000193	1.925506	0.652379	-0.000077
1333	1.3253e+02	-13.0665	-41.966026	0.000324	3.242957	1.098744	-0.000130
1334	1.3263e+02	-13.1114	-42.046769	0.000203	2.026848	0.686715	-0.000081
1335	1.3273e+02	-13.1595	-42.171920	0.000314	3.141615	1.064408	-0.000126
1336	1.3283e+02	-13.1980	-42.305145	0.000334	3.344300	1.133079	-0.000134
1337	1.3293e+02	-13.2381	-42.406074	0.000253	2.533560	0.858394	-0.000101
1338	1.3303e+02	-13.2702	-42.567559	0.000405	4.053697	1.373430	-0.000162
1339	1.3313e+02	-13.3103	-42.644265	0.000193	1.925506	0.652379	-0.000077
1340	1.3323e+02	-13.3536	-42.769416	0.000314	3.141615	1.064408	-0.000126
1341	1.3333e+02	-13.3969	-42.858233	0.000223	2.229533	0.755386	-0.000089
1342	1.3343e+02	-13.4258	-42.995496	0.000345	3.445642	1.167415	-0.000138
1343	1.3353e+02	-13.4723	-43.104498	0.000274	2.736245	0.927065	-0.000110
1344	1.3363e+02	-13.5092	-43.245798	0.000355	3.546985	1.201751	-0.000142
1345	1.3373e+02	-13.5494	-43.342689	0.000243	2.432218	0.824058	-0.000097
1346	1.3383e+02	-13.5895	-43.443618	0.000253	2.533560	0.858394	-0.000101
1347	1.3393e+02	-13.6312	-43.576843	0.000334	3.344300	1.133079	-0.000134
1348	1.3403e+02	-13.6665	-43.661623	0.000213	2.128191	0.721051	-0.000085
1349	1.3413e+02	-13.7066	-43.798886	0.000345	3.445642	1.167415	-0.000138
1350	1.3423e+02	-13.7435	-43.911925	0.000284	2.837588	0.961401	-0.000114
1351	1.3432e+02	-13.7852	-44.045151	0.000334	3.344300	1.133079	-0.000134
1352	1.3442e+02	-13.8285	-44.138005	0.000233	2.330876	0.789722	-0.000093
1353	1.3452e+02	-13.8750	-44.271231	0.000334	3.344300	1.133079	-0.000134
1354	1.3462e+02	-13.9167	-44.372159	0.000253	2.533560	0.858394	-0.000101
1355	1.3472e+02	-13.9568	-44.473087	0.000253	2.533560	0.858394	-0.000101
1356	1.3482e+02	-13.9889	-44.582090	0.000274	2.736245	0.927065	-0.000110
1357	1.3492e+02	-14.0242	-44.699167	0.000294	2.938930	0.995736	-0.000118
1358	1.3502e+02	-14.0611	-44.820281	0.000304	3.040273	1.030072	-0.000122
1359	1.3512e+02	-14.1060	-44.929284	0.000274	2.736245	0.927065	-0.000110
1360	1.3522e+02	-14.1606	-45.062509	0.000334	3.344300	1.133079	-0.000134
1361	1.3532e+02	-14.1943	-45.183623	0.000304	3.040273	1.030072	-0.000122
1362	1.3542e+02	-14.2215	-45.332997	0.000375	3.749670	1.270422	-0.000150
1363	1.3552e+02	-14.2729	-45.389517	0.000142	1.418794	0.480700	-0.000057
1364	1.3562e+02	-14.3146	-45.506594	0.000294	2.938930	0.995736	-0.000118
1365	1.3572e+02	-14.3579	-45.611560	0.000263	2.634903	0.892729	-0.000105
1366	1.3582e+02	-14.3948	-45.732674	0.000304	3.040273	1.030072	-0.000122
1367	1.3592e+02	-14.4172	-45.837639	0.000263	2.634903	0.892729	-0.000105
1368	1.3602e+02	-14.4702	-45.974902	0.000345	3.445642	1.167415	-0.000138
1369	1.3612e+02	-14.5055	-46.100053	0.000314	3.141615	1.064408	-0.000126
1370	1.3622e+02	-14.5392	-46.196944	0.000243	2.432218	0.824058	-0.000097
1371	1.3631e+02	-14.5889	-46.273650	0.000193	1.925506	0.652379	-0.000077
1372	1.3641e+02	-14.6274	-46.406875	0.000334	3.344300	1.133079	-0.000134
1373	1.3651e+02	-14.6643	-46.560286	0.000385	3.851012	1.304758	-0.000154
1374	1.3661e+02	-14.7156	-46.669289	0.000274	2.736245	0.927065	-0.000110
1375	1.3671e+02	-14.7509	-46.798477	0.000324	3.242957	1.098744	-0.000130
1376	1.3681e+02	-14.7910	-46.859035	0.000152	1.520136	0.515036	-0.000061
1377	1.3691e+02	-14.8263	-46.976111	0.000294	2.938930	0.995736	-0.000118
1378	1.3701e+02	-14.8680	-47.141634	0.000416	4.155039	1.407765	-0.000166
1379	1.3711e+02	-14.9033	-47.194117	0.000132	1.317451	0.446365	-0.000053
1380	1.3721e+02	-14.9531	-47.295045	0.000253	2.533560	0.858394	-0.000101
1381	1.3731e+02	-14.9932	-47.456531	0.000405	4.053697	1.373430	-0.000162
1382	1.3741e+02	-15.0317	-47.581682	0.000314	3.141615	1.064408	-0.000126
1383	1.3751e+02	-15.0637	-47.690684	0.000274	2.736245	0.927065	-0.000110
1384	1.3761e+02	-15.1022	-47.815836	0.000314	3.141615	1.064408	-0.000126
1385	1.3771e+02	-15.1456	-47.940987	0.000314	3.141615	1.064408	-0.000126
1386	1.3781e+02	-15.1937	-48.066138	0.000314	3.141615	1.064408	-0.000126
1387	1.3791e+02	-15.2290	-48.146881	0.000203	2.026848	0.686715	-0.000081
1388	1.3801e+02	-15.2643	-48.280106	0.000334	3.344300	1.133079	-0.000134
1389	1.3811e+02	-15.3108	-48.389109	0.000274	2.736245	0.927065	-0.000110
1390	1.3821e+02	-15.3477	-48.481963	0.000233	2.330876	0.789722	-0.000093
1391	1.3831e+02	-15.3878	-48.611151	0.000324	3.242957	1.098744	-0.000130
1392	1.3840e+02	-15.4407	-48.716117	0.000263	2.634903	0.892729	-0.000105
1393	1.3850e+02	-15.4728	-48.804934	0.000223	2.229533	0.755386	-0.000089
1394	1.3860e+02	-15.4969	-48.942197	0.000345	3.445642	1.167415	-0.000138
1395	1.3870e+02	-15.5530	-49.039088	0.000243	2.432218	0.824058	-0.000097
1396	1.3880e+02	-15.5787	-49.152128	0.000284	2.837588	0.961401	-0.000114
1397	1.3890e+02	-15.6188	-49.285353	0.000334	3.344300	1.133079	-0.000134
1398	1.3900e+02	-15.6605	-49.366096	0.000203	2.026848	0.686715	-0.000081
1399	1.3910e+02	-15.7006	-49.491247	0.000314	3.141615	1.064408	-0.000126
1400	1.3920e+02	-15.7407	-49.612361	0.000304	3.040273	1.030072	-0.000122
1401	1.3930e+02	-15.7857	-49.701178	0.000223	2.229533	0.755386	-0.000089
1402	1.3940e+02	-15.8225	-49.777884	0.000193	1.925506	0.652379	-0.000077
1403	1.3950e+02	-15.8627	-49.959555	0.000456	4.560409	1.545108	-0.000183
1404	1.3960e+02	-15.8979	-50.036260	0.000193	1.925506	0.652379	-0.000077
1405	1.3970e+02	-15.9445	-50.177560	0.000355	3.546985	1.201751	-0.000142
1406	1.3980e+02	-15.9782	-50.250229	0.000182	1.824164	0.618043	-0.000073
1407	1.3990e+02	-16.0215	-50.379417	0.000324	3.242957	1.098744	-0.000130
1408	1.4000e+02	-16.0712	-50.508605	0.000324	3.242957	1.098744	-0.000130
1409	1.4010e+02	-16.0985	-50.589348	0.000203	2.026848	0.686715	-0.000081
1410	1.4020e+02	-16.1354	-50.686239	0.000243	2.432218	0.824058	-0.000097
1411	1.4029e+02	-16.1739	-50.880022	0.000486	4.864436	1.648116	-0.000195
1412	1.4039e+02	-16.2140	-50.968839	0.000223	2.229533	0.755386	-0.000089
1413	1.4049e+02	-16.2605	-51.053619	0.000213	2.128191	0.721051	-0.000085
1414	1.4059e+02	-16.3086	-51.154547	0.000253	2.533560	0.858394	-0.000101
1415	1.4069e+02	-16.3471	-51.243364	0.000223	2.229533	0.755386	-0.000089
1416	1.4079e+02	-16.3808	-51.429072	0.000466	4.661751	1.579444	-0.000187
1417	1.4089e+02	-16.4145	-51.473481	0.000111	1.114767	0.377693	-0.000045
1418	1.4099e+02	-16.4658	-51.622855	0.000375	3.749670	1.270422	-0.000150
1419	1.4109e+02	-16.5011	-51.727820	0.000263	2.634903	0.892729	-0.000105
1420	1.4119e+02	-16.5445	-51.836823	0.000274	2.736245	0.927065	-0.000110
1421	1.4129e+02	-16.5814	-51.966011	0.000324	3.242957	1.098744	-0.000130
1422	1.4139e+02	-16.6199	-52.079051	0.000284	2.837588	0.961401	-0.000114
1423	1.4149e+02	-16.6535	-52.220351	0.000355	3.546985	1.201751	-0.000142
1424	1.4159e+02	-16.6985	-52.272834	0.000132	1.317451	0.446365	-0.000053
1425	1.4169e+02	-16.7338	-52.474690	0.000507	5.067121	1.716787	-0.000203
1426	1.4179e+02	-16.7787	-52.519099	0.000111	1.114767	0.377693	-0.000045
1427	1.4189e+02	-16.8220	-52.668473	0.000375	3.749670	1.270422	-0.000150
1428	1.4199e+02	-16.8557	-52.753253	0.000213	2.128191	0.721051	-0.000085
1429	1.4209e+02	-16.8926	-52.850144	0.000243	2.432218	0.824058	-0.000097
1430	1.4219e+02	-16.9327	-53.011629	0.000405	4.053697	1.373430	-0.000162
1431	1.4228e+02	-16.9824	-53.144855	0.000334	3.344300	1.133079	-0.000134
1432	1.4238e+02	-17.0145	-53.261932	0.000294	2.938930	0.995736	-0.000118
1433	1.4248e+02	-17.0514	-53.338637	0.000193	1.925506	0.652379	-0.000077
1434	1.4258e+02	-17.1075	-53.455714	0.000294	2.938930	0.995736	-0.000118
1435	1.4268e+02	-17.1412	-53.588940	0.000334	3.344300	1.133079	-0.000134
1436	1.4278e+02	-17.1781	-53.738314	0.000375	3.749670	1.270422	-0.000150
1437	1.4288e+02	-17.2230	-53.827131	0.000223	2.229533	0.755386	-0.000089
1438	1.4298e+02	-17.2535	-53.915948	0.000223	2.229533	0.755386	-0.000089
1439	1.4308e+02	-17.3113	-54.045136	0.000324	3.242957	1.098744	-0.000130
1440	1.4318e+02	-17.3402	-54.166250	0.000304	3.040273	1.030072	-0.000122
1441	1.4328e+02	-17.3835	-54.299476	0.000334	3.344300	1.133079	-0.000134
1442	1.4338e+02	-17.4204	-54.400404	0.000253	2.533560	0.858394	-0.000101
1443	1.4348e+02	-17.4653	-54.517481	0.000294	2.938930	0.995736	-0.000118
1444	1.4358e+02	-17.4910	-54.598224	0.000203	2.026848	0.686715	-0.000081
1445	1.4368e+02	-17.5423	-54.743561	0.000365	3.648327	1.236087	-0.000146
1446	1.4378e+02	-17.5696	-54.864675	0.000304	3.040273	1.030072	-0.000122
1447	1.4388e+02	-17.6129	-54.949455	0.000213	2.128191	0.721051	-0.000085
1448	1.4398e+02	-17.6514	-55.070569	0.000304	3.040273	1.030072	-0.000122
1449	1.4408e+02	-17.7011	-55.211868	0.000355	3.546985	1.201751	-0.000142
1450	1.4418e+02	-17.7348	-55.280500	0.000172	1.722821	0.583708	-0.000069
1451	1.4428e+02	-17.7717	-55.389502	0.000274	2.736245	0.927065	-0.000110
1452	1.4437e+02	-17.8134	-55.542913	0.000385	3.851012	1.304758	-0.000154
1453	1.4447e+02	-17.8551	-55.607508	0.000162	1.621479	0.549372	-0.000065
1454	1.4457e+02	-17.8984	-55.740733	0.000334	3.344300	1.133079	-0.000134
1455	1.4467e+02	-17.9433	-55.869921	0.000324	3.242957	1.098744	-0.000130
1456	1.4477e+02	-17.9786	-55.970850	0.000253	2.533560	0.858394	-0.000101
1457	1.4487e+02	-18.0059	-56.091964	0.000304	3.040273	1.030072	-0.000122
1458	1.4497e+02	-18.0621	-56.225189	0.000334	3.344300	1.133079	-0.000134
1459	1.4507e+02	-18.0877	-56.326118	0.000253	2.533560	0.858394	-0.000101
1460	1.4517e+02	-18.1423	-56.427046	0.000253	2.533560	0.858394	-0.000101
1461	1.4527e+02	-18.1727	-56.560272	0.000334	3.344300	1.133079	-0.000134
1462	1.4537e+02	-18.2193	-56.653126	0.000233	2.330876	0.789722	-0.000093
1463	1.4547e+02	-18.2546	-56.794426	0.000355	3.546985	1.201751	-0.000142
1464	1.4557e+02	-18.2915	-56.907465	0.000284	2.837588	0.961401	-0.000114
1465	1.4567e+02	-18.3348	-57.008394	0.000253	2.533560	0.858394	-0.000101
1466	1.4577e+02	-18.3829	-57.097211	0.000223	2.229533	0.755386	-0.000089
1467	1.4587e+02	-18.4054	-57.186028	0.000223	2.229533	0.755386	-0.000089
1468	1.4597e+02	-18.4519	-57.351550	0.000416	4.155039	1.407765	-0.000166
1469	1.4607e+02	-18.4936	-57.484776	0.000334	3.344300	1.133079	-0.000134
1470	1.4617e+02	-18.5481	-57.589741	0.000263	2.634903	0.892729	-0.000105
1471	1.4626e+02	-18.5722	-57.666447	0.000193	1.925506	0.652379	-0.000077
1472	1.4636e+02	-18.6091	-57.807747	0.000355	3.546985	1.201751	-0.000142
1473	1.4646e+02	-18.6669	-57.932898	0.000314	3.141615	1.064408	-0.000126
1474	1.4656e+02	-18.6941	-58.025752	0.000233	2.330876	0.789722	-0.000093
1475	1.4666e+02	-18.7310	-58.158977	0.000334	3.344300	1.133079	-0.000134
1476	1.4676e+02	-18.7679	-58.251832	0.000233	2.330876	0.789722	-0.000093
1477	1.4686e+02	-18.8048	-58.376983	0.000314	3.141615	1.064408	-0.000126
1478	1.4696e+02	-18.8481	-58.498097	0.000304	3.040273	1.030072	-0.000122
1479	1.4706e+02	-18.8914	-58.627285	0.000324	3.242957	1.098744	-0.000130
1480	1.4716e+02	-18.9380	-58.724176	0.000243	2.432218	0.824058	-0.000097
1481	1.4726e+02	-18.9749	-58.853365	0.000324	3.242957	1.098744	-0.000130
1482	1.4736e+02	-19.0037	-58.982553	0.000324	3.242957	1.098744	-0.000130
1483	1.4746e+02	-19.0503	-59.067333	0.000213	2.128191	0.721051	-0.000085
1484	1.4756e+02	-19.0888	-59.192484	0.000314	3.141615	1.064408	-0.000126
1485	1.4766e+02	-19.1369	-59.353970	0.000405	4.053697	1.373430	-0.000162
1486	1.4776e+02	-19.1690	-59.462972	0.000274	2.736245	0.927065	-0.000110
1487	1.4786e+02	-19.2059	-59.543715	0.000203	2.026848	0.686715	-0.000081
1488	1.4796e+02	-19.2492	-59.713275	0.000426	4.256382	1.442101	-0.000170
1489	1.4806e+02	-19.2925	-59.785943	0.000182	1.824164	0.618043	-0.000073
1490	1.4816e+02	-19.3230	-59.886872	0.000253	2.533560	0.858394	-0.000101
1491	1.4825e+02	-19.3663	-59.991837	0.000263	2.634903	0.892729	-0.000105
1492	1.4835e+02	-19.4048	-60.092765	0.000253	2.533560	0.858394	-0.000101
1493	1.4845e+02	-19.4561	-60.242139	0.000375	3.749670	1.270422	-0.000150
1494	1.4855e+02	-19.4946	-60.363254	0.000304	3.040273	1.030072	-0.000122
1495	1.4865e+02	-19.5267	-60.512628	0.000375	3.749670	1.270422	-0.000150
1496	1.4875e+02	-19.5732	-60.605482	0.000233	2.330876	0.789722	-0.000093
1497	1.4885e+02	-19.5973	-60.775041	0.000426	4.256382	1.442101	-0.000170
1498	1.4895e+02	-19.6454	-60.823487	0.000122	1.216109	0.412029	-0.000049
1499	1.4905e+02	-19.6839	-60.940564	0.000294	2.938930	0.995736	-0.000118
1500	1.4915e+02	-19.7240	-61.110124	0.000426	4.256382	1.442101	-0.000170
1501	1.4925e+02	-19.7722	-61.211052	0.000253	2.533560	0.858394	-0.000101
1502	1.4935e+02	-19.8010	-61.320055	0.000274	2.736245	0.927065	-0.000110
1503	1.4945e+02	-19.8508	-61.449243	0.000324	3.242957	1.098744	-0.000130
1504	1.4955e+02	-19.8861	-61.529986	0.000203	2.026848	0.686715	-0.000081
1505	1.4965e+02	-19.9214	-61.679360	0.000375	3.749670	1.270422	-0.000150
1506	1.4975e+02	-19.9695	-61.776251	0.000243	2.432218	0.824058	-0.000097
1507	1.4985e+02	-20.0064	-61.873142	0.000243	2.432218	0.824058	-0.000097
1508	1.4995e+02	-19.9647	-61.840845	0.000081	0.810739	0.274686	0.000032
1509	1.5005e+02	-19.9294	-61.820660	0.000051	0.506712	0.171679	0.000020
1510	1.5015e+02	-19.8845	-61.731843	0.000223	2.229533	0.755386	0.000089
1511	1.5025e+02	-19.8444	-61.663211	0.000172	1.722821	0.583708	0.000069
1512	1.5034e+02	-19.8075	-61.598617	0.000162	1.621479	0.549372	0.000065
1513	1.5044e+02	-19.7609	-61.538060	0.000152	1.520136	0.515036	0.000061
1514	1.5054e+02	-19.7273	-61.469429	0.000172	1.722821	0.583708	0.000069
1515	1.5064e+02	-19.6855	-61.388686	0.000203	2.026848	0.686715	0.000081
1516	1.5074e+02	-19.6486	-61.311980	0.000193	1.925506	0.652379	0.000077
1517	1.5084e+02	-19.6134	-61.291795	0.000051	0.506712	0.171679	0.000020
1518	1.5094e+02	-19.5636	-61.162606	0.000324	3.242957	1.098744	0.000130
1519	1.5104e+02	-19.5219	-61.065715	0.000243	2.432218	0.824058	0.000097
1520	1.5114e+02	-19.4882	-61.041492	0.000061	0.608055	0.206014	0.000024
1521	1.5124e+02	-19.4481	-60.940564	0.000253	2.533560	0.858394	0.000101
1522	1.5134e+02	-19.4032	-60.900193	0.000101	1.013424	0.343357	0.000041
1523	1.5144e+02	-19.3663	-60.815413	0.000213	2.128191	0.721051	0.000085
1524	1.5154e+02	-19.3278	-60.750819	0.000162	1.621479	0.549372	0.000065
1525	1.5164e+02	-19.2861	-60.674113	0.000193	1.925506	0.652379	0.000077
1526	1.5174e+02	-19.2492	-60.565110	0.000274	2.736245	0.927065	0.000110
1527	1.5184e+02	-19.2155	-60.488405	0.000193	1.925506	0.652379	0.000077
1528	1.5194e+02	-19.1722	-60.460145	0.000071	0.709397	0.240350	0.000028
1529	1.5204e+02	-19.1241	-60.379402	0.000203	2.026848	0.686715	0.000081
1530	1.5214e+02	-19.0936	-60.306734	0.000182	1.824164	0.618043	0.000073
1531	1.5224e+02	-19.0487	-60.254251	0.000132	1.317451	0.446365	0.000053
1532	1.5233e+02	-19.0198	-60.173508	0.000203	2.026848	0.686715	0.000081
1533	1.5243e+02	-18.9797	-60.064506	0.000274	2.736245	0.927065	0.000110
1534	1.5253e+02	-18.9299	-59.963577	0.000253	2.533560	0.858394	0.000101
1535	1.5263e+02	-18.8963	-59.866686	0.000243	2.432218	0.824058	0.000097
1536	1.5273e+02	-18.8610	-59.777869	0.000223	2.229533	0.755386	0.000089
1537	1.5283e+02	-18.8241	-59.705200	0.000182	1.824164	0.618043	0.000073
1538	1.5293e+02	-18.7695	-59.616383	0.000223	2.229533	0.755386	0.000089
1539	1.5303e+02	-18.7390	-59.588123	0.000071	0.709397	0.240350	0.000028
1540	1.5313e+02	-18.6877	-59.495269	0.000233	2.330876	0.789722	0.000093
1541	1.5323e+02	-18.6524	-59.446824	0.000122	1.216109	0.412029	0.000049
1542	1.5333e+02	-18.6075	-59.345895	0.000253	2.533560	0.858394	0.000101
1543	1.5343e+02	-18.5738	-59.216707	0.000324	3.242957	1.098744	0.000130
1544	1.5353e+02	-18.5353	-59.180373	0.000091	0.912082	0.309022	0.000037
1545	1.5363e+02	-18.4920	-59.083482	0.000243	2.432218	0.824058	0.000097
1546	1.5373e+02	-18.4599	-59.026962	0.000142	1.418794	0.480700	0.000057
1547	1.5383e+02	-18.4118	-58.893736	0.000334	3.344300	1.133079	0.000134
1548	1.5393e+02	-18.3701	-58.841253	0.000132	1.317451	0.446365	0.000053
1549	1.5403e+02	-18.3380	-58.764548	0.000193	1.925506	0.652379	0.000077
1550	1.5413e+02	-18.2915	-58.675731	0.000223	2.229533	0.755386	0.000089
1551	1.5422e+02	-18.2578	-58.578840	0.000243	2.432218	0.824058	0.000097
1552	1.5432e+02	-18.2096	-58.477911	0.000253	2.533560	0.858394	0.000101
1553	1.5442e+02	-18.1727	-58.433503	0.000111	1.114767	0.377693	0.000045
1554	1.5452e+02	-18.1359	-58.344686	0.000223	2.229533	0.755386	0.000089
1555	1.5462e+02	-18.0861	-58.263943	0.000203	2.026848	0.686715	0.000081
1556	1.5472e+02	-18.0572	-58.150903	0.000284	2.837588	0.961401	0.000114
1557	1.5482e+02	-18.0091	-58.070160	0.000203	2.026848	0.686715	0.000081
1558	1.5492e+02	-17.9658	-57.997492	0.000182	1.824164	0.618043	0.000073
1559	1.5502e+02	-17.9385	-57.932898	0.000162	1.621479	0.549372	0.000065
1560	1.5512e+02	-17.8952	-57.827932	0.000263	2.634903	0.892729	0.000105
1561	1.5522e+02	-17.8567	-57.722967	0.000263	2.634903	0.892729	0.000105
1562	1.5532e+02	-17.8054	-57.650298	0.000182	1.824164	0.618043	0.000073
1563	1.5542e+02	-17.7733	-57.573593	0.000193	1.925506	0.652379	0.000077
1564	1.5552e+02	-17.7332	-57.480739	0.000233	2.330876	0.789722	0.000093
1565	1.5562e+02	-17.6995	-57.412107	0.000172	1.722821	0.583708	0.000069
1566	1.5572e+02	-17.6530	-57.315216	0.000243	2.432218	0.824058	0.000097
1567	1.5582e+02	-17.6273	-57.210251	0.000263	2.634903	0.892729	0.000105
1568	1.5592e+02	-17.5696	-57.145656	0.000162	1.621479	0.549372	0.000065
1569	1.5602e+02	-17.5359	-57.060877	0.000213	2.128191	0.721051	0.000085
1570	1.5612e+02	-17.4926	-56.943800	0.000294	2.938930	0.995736	0.000118
1571	1.5622e+02	-17.4524	-56.867094	0.000193	1.925506	0.652379	0.000077
1572	1.5631e+02	-17.4172	-56.745980	0.000304	3.040273	1.030072	0.000122
1573	1.5641e+02	-17.3690	-56.689460	0.000142	1.418794	0.480700	0.000057
1574	1.5651e+02	-17.3353	-56.556235	0.000334	3.344300	1.133079	0.000134
1575	1.5661e+02	-17.2984	-56.544123	0.000030	0.304027	0.103007	0.000012
1576	1.5671e+02	-17.2567	-56.427046	0.000294	2.938930	0.995736	0.000118
1577	1.5681e+02	-17.2038	-56.346303	0.000203	2.026848	0.686715	0.000081
1578	1.5691e+02	-17.1749	-56.237301	0.000274	2.736245	0.927065	0.000110
1579	1.5701e+02	-17.1364	-56.148484	0.000223	2.229533	0.755386	0.000089
1580	1.5711e+02	-17.0931	-56.063704	0.000213	2.128191	0.721051	0.000085
1581	1.5721e+02	-17.0562	-55.982961	0.000203	2.026848	0.686715	0.000081
1582	1.5731e+02	-17.0193	-55.877996	0.000263	2.634903	0.892729	0.000105
1583	1.5741e+02	-16.9728	-55.801290	0.000193	1.925506	0.652379	0.000077
1584	1.5751e+02	-16.9439	-55.716510	0.000213	2.128191	0.721051	0.000085
1585	1.5761e+02	-16.8990	-55.664028	0.000132	1.317451	0.446365	0.000053
1586	1.5771e+02	-16.8557	-55.518691	0.000365	3.648327	1.236087	0.000146
1587	1.5781e+02	-16.8204	-55.462171	0.000142	1.418794	0.480700	0.000057
1588	1.5791e+02	-16.7723	-55.324908	0.000345	3.445642	1.167415	0.000138
1589	1.5801e+02	-16.7418	-55.252240	0.000182	1.824164	0.618043	0.000073
1590	1.5811e+02	-16.7033	-55.187646	0.000162	1.621479	0.549372	0.000065
1591	1.5821e+02	-16.6600	-55.102866	0.000213	2.128191	0.721051	0.000085
1592	1.5830e+02	-16.6279	-55.026160	0.000193	1.925506	0.652379	0.000077
1593	1.5840e+02	-16.5781	-54.917157	0.000274	2.736245	0.927065	0.000110
1594	1.5850e+02	-16.5445	-54.840452	0.000193	1.925506	0.652379	0.000077
1595	1.5860e+02	-16.4947	-54.731449	0.000274	2.736245	0.927065	0.000110
1596	1.5870e+02	-16.4530	-54.674929	0.000142	1.418794	0.480700	0.000057
1597	1.5880e+02	-16.4161	-54.541704	0.000334	3.344300	1.133079	0.000134
1598	1.5890e+02	-16.3824	-54.464998	0.000193	1.925506	0.652379	0.000077
1599	1.5900e+02	-16.3359	-54.364070	0.000253	2.533560	0.858394	0.000101
1600	1.5910e+02	-16.3022	-54.335810	0.000071	0.709397	0.240350	0.000028
1601	1.5920e+02	-16.2605	-54.206622	0.000324	3.242957	1.098744	0.000130
1602	1.5930e+02	-16.2188	-54.125879	0.000203	2.026848	0.686715	0.000081
1603	1.5940e+02	-16.1835	-54.033025	0.000233	2.330876	0.789722	0.000093
1604	1.5950e+02	-16.1386	-53.948245	0.000213	2.128191	0.721051	0.000085
1605	1.5960e+02	-16.0985	-53.851354	0.000243	2.432218	0.824058	0.000097
1606	1.5970e+02	-16.0632	-53.734277	0.000294	2.938930	0.995736	0.000118
1607	1.5980e+02	-16.0247	-53.637385	0.000243	2.432218	0.824058	0.000097
1608	1.5990e+02	-15.9766	-53.588940	0.000122	1.216109	0.412029	0.000049
1609	1.6000e+02	-15.9509	-53.471863	0.000294	2.938930	0.995736	0.000118
1610	1.6010e+02	-15.9044	-53.379009	0.000233	2.330876	0.789722	0.000093
1611	1.6019e+02	-15.8610	-53.261932	0.000294	2.938930	0.995736	0.000118
1612	1.6029e+02	-15.8129	-53.245783	0.000041	0.405370	0.137343	0.000016
1613	1.6039e+02	-15.7857	-53.124669	0.000304	3.040273	1.030072	0.000122
1614	1.6049e+02	-15.7504	-52.999518	0.000314	3.141615	1.064408	0.000126
1615	1.6059e+02	-15.7070	-52.898590	0.000253	2.533560	0.858394	0.000101
1616	1.6069e+02	-15.6701	-52.805735	0.000233	2.330876	0.789722	0.000093
1617	1.6079e+02	-15.6236	-52.745178	0.000152	1.520136	0.515036	0.000061
1618	1.6089e+02	-15.5851	-52.688659	0.000142	1.418794	0.480700	0.000057
1619	1.6099e+02	-15.5402	-52.571582	0.000294	2.938930	0.995736	0.000118
1620	1.6109e+02	-15.5145	-52.450468	0.000304	3.040273	1.030072	0.000122
1621	1.6119e+02	-15.4600	-52.373762	0.000193	1.925506	0.652379	0.000077
1622	1.6129e+02	-15.4279	-52.284945	0.000223	2.229533	0.755386	0.000089
1623	1.6139e+02	-15.3878	-52.163831	0.000304	3.040273	1.030072	0.000122
1624	1.6149e+02	-15.3493	-52.079051	0.000213	2.128191	0.721051	0.000085
1625	1.6159e+02	-15.3060	-52.026568	0.000132	1.317451	0.446365	0.000053
1626	1.6169e+02	-15.2595	-51.848934	0.000446	4.459066	1.510773	0.000179
1627	1.6179e+02	-15.2226	-51.804526	0.000111	1.114767	0.377693	0.000045
1628	1.6189e+02	-15.1841	-51.695523	0.000274	2.736245	0.927065	0.000110
1629	1.6199e+02	-15.1472	-51.602669	0.000233	2.330876	0.789722	0.000093
1630	1.6209e+02	-15.1039	-51.521926	0.000203	2.026848	0.686715	0.000081
1631	1.6219e+02	-15.0637	-51.437146	0.000213	2.128191	0.721051	0.000085
1632	1.6228e+02	-15.0236	-51.291810	0.000365	3.648327	1.236087	0.000146
1633	1.6238e+02	-14.9803	-51.227215	0.000162	1.621479	0.549372	0.000065
1634	1.6248e+02	-14.9450	-51.110138	0.000294	2.938930	0.995736	0.000118
1635	1.6258e+02	-14.9065	-51.005173	0.000263	2.634903	0.892729	0.000105
1636	1.6268e+02	-14.8584	-50.936542	0.000172	1.722821	0.583708	0.000069
1637	1.6278e+02	-14.8279	-50.815428	0.000304	3.040273	1.030072	0.000122
1638	1.6288e+02	-14.7862	-50.754870	0.000152	1.520136	0.515036	0.000061
1639	1.6298e+02	-14.7461	-50.657979	0.000243	2.432218	0.824058	0.000097
1640	1.6308e+02	-14.7092	-50.553014	0.000263	2.634903	0.892729	0.000105
1641	1.6318e+02	-14.6659	-50.439974	0.000284	2.837588	0.961401	0.000114
1642	1.6328e+02	-14.6178	-50.363268	0.000193	1.925506	0.652379	0.000077
1643	1.6338e+02	-14.5809	-50.250229	0.000284	2.837588	0.961401	0.000114
1644	1.6348e+02	-14.5472	-50.165449	0.000213	2.128191	0.721051	0.000085
1645	1.6358e+02	-14.5087	-50.056446	0.000274	2.736245	0.927065	0.000110
1646	1.6368e+02	-14.4734	-49.963592	0.000233	2.330876	0.789722	0.000093
1647	1.6378e+02	-14.4381	-49.842478	0.000304	3.040273	1.030072	0.000122
1648	1.6388e+02	-14.3868	-49.773847	0.000172	1.722821	0.583708	0.000069
1649	1.6398e+02	-14.3515	-49.689067	0.000213	2.128191	0.721051	0.000085
1650	1.6408e+02	-14.3114	-49.588138	0.000253	2.533560	0.858394	0.000101
1651	1.6418e+02	-14.2680	-49.467024	0.000304	3.040273	1.030072	0.000122
1652	1.6427e+02	-14.2247	-49.390319	0.000193	1.925506	0.652379	0.000077
1653	1.6437e+02	-14.1878	-49.277279	0.000284	2.837588	0.961401	0.000114
1654	1.6447e+02	-14.1525	-49.188462	0.000223	2.229533	0.755386	0.000089
1655	1.6457e+02	-14.1124	-49.107719	0.000203	2.026848	0.686715	0.000081
1656	1.6467e+02	-14.0627	-49.006791	0.000253	2.533560	0.858394	0.000101
1657	1.6477e+02	-14.0290	-48.881640	0.000314	3.141615	1.064408	0.000126
1658	1.6487e+02	-13.9841	-48.808971	0.000182	1.824164	0.618043	0.000073
1659	1.6497e+02	-13.9440	-48.675746	0.000334	3.344300	1.133079	0.000134
1660	1.6507e+02	-13.9103	-48.603077	0.000182	1.824164	0.618043	0.000073
1661	1.6517e+02	-13.8734	-48.445629	0.000395	3.952354	1.339094	0.000158
1662	1.6527e+02	-13.8365	-48.405257	0.000101	1.013424	0.343357	0.000041
1663	1.6537e+02	-13.7868	-48.292218	0.000284	2.837588	0.961401	0.000114
1664	1.6547e+02	-13.7515	-48.211475	0.000203	2.026848	0.686715	0.000081
1665	1.6557e+02	-13.7098	-48.126695	0.000213	2.128191	0.721051	0.000085
1666	1.6567e+02	-13.6665	-47.977321	0.000375	3.749670	1.270422	0.000150
1667	1.6577e+02	-13.6296	-47.876393	0.000253	2.533560	0.858394	0.000101
1668	1.6587e+02	-13.5862	-47.787576	0.000223	2.229533	0.755386	0.000089
1669	1.6597e+02	-13.5510	-47.682610	0.000263	2.634903	0.892729	0.000105
1670	1.6607e+02	-13.5108	-47.573608	0.000274	2.736245	0.927065	0.000110
1671	1.6616e+02	-13.4723	-47.496902	0.000193	1.925506	0.652379	0.000077
1672	1.6626e+02	-13.4354	-47.391936	0.000263	2.634903	0.892729	0.000105
1673	1.6636e+02	-13.3857	-47.246600	0.000365	3.648327	1.236087	0.000146
1674	1.6646e+02	-13.3520	-47.161820	0.000213	2.128191	0.721051	0.000085
1675	1.6656e+02	-13.3135	-47.097226	0.000162	1.621479	0.549372	0.000065
1676	1.6666e+02	-13.2702	-46.968037	0.000324	3.242957	1.098744	0.000130
1677	1.6676e+02	-13.2317	-46.854997	0.000284	2.837588	0.961401	0.000114
1678	1.6686e+02	-13.1868	-46.758106	0.000243	2.432218	0.824058	0.000097
1679	1.6696e+02	-13.1595	-46.649103	0.000274	2.736245	0.927065	0.000110
1680	1.6706e+02	-13.1130	-46.532027	0.000294	2.938930	0.995736	0.000118
1681	1.6716e+02	-13.0633	-46.423024	0.000274	2.736245	0.927065	0.000110
1682	1.6726e+02	-13.0280	-46.314021	0.000274	2.736245	0.927065	0.000110
1683	1.6736e+02	-12.9815	-46.241353	0.000182	1.824164	0.618043	0.000073
1684	1.6746e+02	-12.9574	-46.059682	0.000456	4.560409	1.545108	0.000183
1685	1.6756e+02	-12.9141	-45.991050	0.000172	1.722821	0.583708	0.000069
1686	1.6766e+02	-12.8740	-45.902233	0.000223	2.229533	0.755386	0.000089
1687	1.6776e+02	-12.8371	-45.805342	0.000243	2.432218	0.824058	0.000097
1688	1.6786e+02	-12.7922	-45.700377	0.000263	2.634903	0.892729	0.000105
1689	1.6796e+02	-12.7617	-45.611560	0.000223	2.229533	0.755386	0.000089
1690	1.6806e+02	-12.7200	-45.482371	0.000324	3.242957	1.098744	0.000130
1691	1.6816e+02	-12.6670	-45.401629	0.000203	2.026848	0.686715	0.000081
1692	1.6825e+02	-12.6478	-45.296663	0.000263	2.634903	0.892729	0.000105
1693	1.6835e+02	-12.5948	-45.187660	0.000274	2.736245	0.927065	0.000110
1694	1.6845e+02	-12.5547	-45.070583	0.000294	2.938930	0.995736	0.000118
1695	1.6855e+02	-12.5146	-44.981766	0.000223	2.229533	0.755386	0.000089
1696	1.6865e+02	-12.4697	-44.888912	0.000233	2.330876	0.789722	0.000093
1697	1.6875e+02	-12.4328	-44.792021	0.000243	2.432218	0.824058	0.000097
1698	1.6885e+02	-12.3975	-44.654758	0.000345	3.445642	1.167415	0.000138
1699	1.6895e+02	-12.3558	-44.509422	0.000365	3.648327	1.236087	0.000146
1700	1.6905e+02	-12.3093	-44.412530	0.000243	2.432218	0.824058	0.000097
1701	1.6915e+02	-12.2804	-44.271231	0.000355	3.546985	1.201751	0.000142
1702	1.6925e+02	-12.2451	-44.206636	0.000162	1.621479	0.549372	0.000065
1703	1.6935e+02	-12.2034	-44.061299	0.000365	3.648327	1.236087	0.000146
1704	1.6945e+02	-12.1537	-43.996705	0.000162	1.621479	0.549372	0.000065
1705	1.6955e+02	-12.1168	-43.867517	0.000324	3.242957	1.098744	0.000130
1706	1.6965e+02	-12.0783	-43.758514	0.000274	2.736245	0.927065	0.000110
1707	1.6975e+02	-12.0430	-43.665660	0.000233	2.330876	0.789722	0.000093
1708	1.6985e+02	-11.9932	-43.560695	0.000263	2.634903	0.892729	0.000105
1709	1.6995e+02	-11.9531	-43.451692	0.000274	2.736245	0.927065	0.000110
1710	1.7005e+02	-11.9178	-43.358838	0.000233	2.330876	0.789722	0.000093
1711	1.7015e+02	-11.8729	-43.245798	0.000284	2.837588	0.961401	0.000114
1712	1.7024e+02	-11.8280	-43.169092	0.000193	1.925506	0.652379	0.000077
1713	1.7034e+02	-11.7991	-43.039904	0.000324	3.242957	1.098744	0.000130
1714	1.7044e+02	-11.7606	-42.959161	0.000203	2.026848	0.686715	0.000081
1715	1.7054e+02	-11.7173	-42.813825	0.000365	3.648327	1.236087	0.000146
1716	1.7064e+02	-11.6804	-42.676562	0.000345	3.445642	1.167415	0.000138
1717	1.7074e+02	-11.6419	-42.587745	0.000223	2.229533	0.755386	0.000089
1718	1.7084e+02	-11.5874	-42.494891	0.000233	2.330876	0.789722	0.000093
1719	1.7094e+02	-11.5569	-42.385888	0.000274	2.736245	0.927065	0.000110
1720	1.7104e+02	-11.5152	-42.297071	0.000223	2.229533	0.755386	0.000089
1721	1.7114e+02	-11.4799	-42.188068	0.000274	2.736245	0.927065	0.000110
1722	1.7124e+02	-11.4366	-42.058880	0.000324	3.242957	1.098744	0.000130
1723	1.7134e+02	-11.4045	-41.929692	0.000324	3.242957	1.098744	0.000130
1724	1.7144e+02	-11.3596	-41.804541	0.000314	3.141615	1.064408	0.000126
1725	1.7154e+02	-11.3243	-41.743984	0.000152	1.520136	0.515036	0.000061
1726	1.7164e+02	-11.2810	-41.622869	0.000304	3.040273	1.030072	0.000122
1727	1.7174e+02	-11.2521	-41.497718	0.000314	3.141615	1.064408	0.000126
1728	1.7184e+02	-11.1991	-41.364493	0.000334	3.344300	1.133079	0.000134
1729	1.7194e+02	-11.1558	-41.239342	0.000314	3.141615	1.064408	0.000126
1730	1.7204e+02	-11.1061	-41.166673	0.000182	1.824164	0.618043	0.000073
1731	1.7213e+02	-11.0885	-41.021336	0.000365	3.648327	1.236087	0.000146
1732	1.7223e+02	-11.0371	-40.920408	0.000253	2.533560	0.858394	0.000101
1733	1.7233e+02	-10.9970	-40.855814	0.000162	1.621479	0.549372	0.000065
1734	1.7243e+02	-10.9617	-40.734700	0.000304	3.040273	1.030072	0.000122
1735	1.7253e+02	-10.9232	-40.597437	0.000345	3.445642	1.167415	0.000138
1736	1.7263e+02	-10.8831	-40.496509	0.000253	2.533560	0.858394	0.000101
1737	1.7273e+02	-10.8446	-40.371357	0.000314	3.141615	1.064408	0.000126
1738	1.7283e+02	-10.7981	-40.294652	0.000193	1.925506	0.652379	0.000077
1739	1.7293e+02	-10.7580	-40.145278	0.000375	3.749670	1.270422	0.000150
1740	1.7303e+02	-10.7275	-40.080684	0.000162	1.621479	0.549372	0.000065
1741	1.7313e+02	-10.6858	-39.931310	0.000375	3.749670	1.270422	0.000150
1742	1.7323e+02	-10.6377	-39.830381	0.000253	2.533560	0.858394	0.000101
1743	1.7333e+02	-10.6040	-39.717341	0.000284	2.837588	0.961401	0.000114
1744	1.7343e+02	-10.5607	-39.616413	0.000253	2.533560	0.858394	0.000101
1745	1.7353e+02	-10.5190	-39.450890	0.000416	4.155039	1.407765	0.000166
1746	1.7363e+02	-10.4885	-39.406482	0.000111	1.114767	0.377693	0.000045
1747	1.7373e+02	-10.4436	-39.301516	0.000263	2.634903	0.892729	0.000105
1748	1.7383e+02	-10.4051	-39.160217	0.000355	3.546985	1.201751	0.000142
1749	1.7393e+02	-10.3649	-39.043140	0.000294	2.938930	0.995736	0.000118
1750	1.7403e+02	-10.3232	-38.958360	0.000213	2.128191	0.721051	0.000085
1751	1.7413e+02	-10.2895	-38.833209	0.000314	3.141615	1.064408	0.000126
1752	1.7422e+02	-10.2446	-38.752466	0.000203	2.026848	0.686715	0.000081
1753	1.7432e+02	-10.2013	-38.574832	0.000446	4.459066	1.510773	0.000179
1754	1.7442e+02	-10.1596	-38.502164	0.000182	1.824164	0.618043	0.000073
1755	1.7452e+02	-10.1275	-38.405272	0.000243	2.432218	0.824058	0.000097
1756	1.7462e+02	-10.0762	-38.300307	0.000263	2.634903	0.892729	0.000105
1757	1.7472e+02	-10.0505	-38.191304	0.000274	2.736245	0.927065	0.000110
1758	1.7482e+02	-9.9992	-38.058079	0.000334	3.344300	1.133079	0.000134
1759	1.7492e+02	-9.9671	-37.920816	0.000345	3.445642	1.167415	0.000138
1760	1.7502e+02	-9.9270	-37.815850	0.000263	2.634903	0.892729	0.000105
1761	1.7512e+02	-9.8869	-37.702811	0.000284	2.837588	0.961401	0.000114
1762	1.7522e+02	-9.8404	-37.593808	0.000274	2.736245	0.927065	0.000110
1763	1.7532e+02	-9.8131	-37.504991	0.000223	2.229533	0.755386	0.000089
1764	1.7542e+02	-9.7682	-37.404063	0.000253	2.533560	0.858394	0.000101
1765	1.7552e+02	-9.7152	-37.234503	0.000426	4.256382	1.442101	0.000170
1766	1.7562e+02	-9.6767	-37.177983	0.000142	1.418794	0.480700	0.000057
1767	1.7572e+02	-9.6479	-37.044758	0.000334	3.344300	1.133079	0.000134
1768	1.7582e+02	-9.6045	-36.955941	0.000223	2.229533	0.755386	0.000089
1769	1.7592e+02	-9.5725	-36.883272	0.000182	1.824164	0.618043	0.000073
1770	1.7602e+02	-9.5275	-36.737935	0.000365	3.648327	1.236087	0.000146
1771	1.7612e+02	-9.4826	-36.600673	0.000345	3.445642	1.167415	0.000138
1772	1.7621e+02	-9.4505	-36.471484	0.000324	3.242957	1.098744	0.000130
1773	1.7631e+02	-9.4056	-36.322110	0.000375	3.749670	1.270422	0.000150
1774	1.7641e+02	-9.3607	-36.253479	0.000172	1.722821	0.583708	0.000069
1775	1.7651e+02	-9.3302	-36.168699	0.000213	2.128191	0.721051	0.000085
1776	1.7661e+02	-9.2837	-36.015288	0.000385	3.851012	1.304758	0.000154
1777	1.7671e+02	-9.2532	-35.938582	0.000193	1.925506	0.652379	0.000077
1778	1.7681e+02	-9.2099	-35.821505	0.000294	2.938930	0.995736	0.000118
1779	1.7691e+02	-9.1618	-35.704428	0.000294	2.938930	0.995736	0.000118
1780	1.7701e+02	-9.1281	-35.559092	0.000365	3.648327	1.236087	0.000146
1781	1.7711e+02	-9.0784	-35.454126	0.000263	2.634903	0.892729	0.000105
1782	1.7721e+02	-9.0527	-35.333012	0.000304	3.040273	1.030072	0.000122
1783	1.7731e+02	-9.0110	-35.256306	0.000193	1.925506	0.652379	0.000077
1784	1.7741e+02	-8.9757	-35.066561	0.000476	4.763094	1.613780	0.000191
1785	1.7751e+02	-8.9131	-34.993893	0.000182	1.824164	0.618043	0.000073
1786	1.7761e+02	-8.8971	-34.909113	0.000213	2.128191	0.721051	0.000085
1787	1.7771e+02	-8.8506	-34.775887	0.000334	3.344300	1.133079	0.000134
1788	1.7781e+02	-8.8056	-34.658810	0.000294	2.938930	0.995736	0.000118
1789	1.7791e+02	-8.7735	-34.501362	0.000395	3.952354	1.339094	0.000158
1790	1.7801e+02	-8.7350	-34.416582	0.000213	2.128191	0.721051	0.000085
1791	1.7810e+02	-8.6885	-34.335839	0.000203	2.026848	0.686715	0.000081
1792	1.7820e+02	-8.6484	-34.202614	0.000334	3.344300	1.133079	0.000134
1793	1.7830e+02	-8.6115	-34.113797	0.000223	2.229533	0.755386	0.000089
1794	1.7840e+02	-8.5634	-33.972497	0.000355	3.546985	1.201751	0.000142
1795	1.7850e+02	-8.5281	-33.871569	0.000253	2.533560	0.858394	0.000101
1796	1.7860e+02	-8.4928	-33.718158	0.000385	3.851012	1.304758	0.000154
1797	1.7870e+02	-8.4559	-33.597044	0.000304	3.040273	1.030072	0.000122
1798	1.7880e+02	-8.4126	-33.467855	0.000324	3.242957	1.098744	0.000130
1799	1.7890e+02	-8.3725	-33.387113	0.000203	2.026848	0.686715	0.000081
1800	1.7900e+02	-8.3324	-33.249850	0.000345	3.445642	1.167415	0.000138
1801	1.7910e+02	-8.2875	-33.152959	0.000243	2.432218	0.824058	0.000097
1802	1.7920e+02	-8.2538	-33.011659	0.000355	3.546985	1.201751	0.000142
1803	1.7930e+02	-8.2057	-32.898619	0.000284	2.837588	0.961401	0.000114
1804	1.7940e+02	-8.1768	-32.773468	0.000314	3.141615	1.064408	0.000126
1805	1.7950e+02	-8.1319	-32.652354	0.000304	3.040273	1.030072	0.000122
1806	1.7960e+02	-8.0966	-32.543351	0.000274	2.736245	0.927065	0.000110
1807	1.7970e+02	-8.0613	-32.446460	0.000243	2.432218	0.824058	0.000097
1808	1.7980e+02	-8.0067	-32.341494	0.000263	2.634903	0.892729	0.000105
1809	1.7990e+02	-7.9698	-32.180009	0.000405	4.053697	1.373430	0.000162
1810	1.8000e+02	-7.9313	-32.075043	0.000263	2.634903	0.892729	0.000105
1811	1.8009e+02	-7.8912	-31.953929	0.000304	3.040273	1.030072	0.000122
1812	1.8019e+02	-7.8447	-31.828778	0.000314	3.141615	1.064408	0.000126
1813	1.8029e+02	-7.8174	-31.752073	0.000193	1.925506	0.652379	0.000077
1814	1.8039e+02	-7.7693	-31.582513	0.000426	4.256382	1.442101	0.000170
1815	1.8049e+02	-7.7324	-31.445250	0.000345	3.445642	1.167415	0.000138
1816	1.8059e+02	-7.6923	-31.356433	0.000223	2.229533	0.755386	0.000089
1817	1.8069e+02	-7.6490	-31.166688	0.000476	4.763094	1.613780	0.000191
1818	1.8079e+02	-7.6217	-31.077871	0.000223	2.229533	0.755386	0.000089
1819	1.8089e+02	-7.5704	-30.976943	0.000253	2.533560	0.858394	0.000101
1820	1.8099e+02	-7.5335	-30.859866	0.000294	2.938930	0.995736	0.000118
1821	1.8109e+02	-7.4886	-30.754900	0.000263	2.634903	0.892729	0.000105
1822	1.8119e+02	-7.4549	-30.621675	0.000334	3.344300	1.133079	0.000134
1823	1.8129e+02	-7.4180	-30.524783	0.000243	2.432218	0.824058	0.000097
1824	1.8139e+02	-7.3779	-30.391558	0.000334	3.344300	1.133079	0.000134
1825	1.8149e+02	-7.3394	-30.302741	0.000223	2.229533	0.755386	0.000089
1826	1.8159e+02	-7.2896	-30.177590	0.000314	3.141615	1.064408	0.000126
1827	1.8169e+02	-7.2672	-30.056476	0.000304	3.040273	1.030072	0.000122
1828	1.8179e+02	-7.2174	-29.907102	0.000375	3.749670	1.270422	0.000150
1829	1.8189e+02	-7.1789	-29.794062	0.000284	2.837588	0.961401	0.000114
1830	1.8199e+02	-7.1388	-29.689096	0.000263	2.634903	0.892729	0.000105
1831	1.8209e+02	-7.0907	-29.539722	0.000375	3.749670	1.270422	0.000150
1832	1.8218e+02	-7.0490	-29.394385	0.000365	3.648327	1.236087	0.000146
1833	1.8228e+02	-7.0137	-29.313643	0.000203	2.026848	0.686715	0.000081
1834	1.8238e+02	-6.9704	-29.176380	0.000345	3.445642	1.167415	0.000138
1835	1.8248e+02	-6.9319	-29.067377	0.000274	2.736245	0.927065	0.000110
1836	1.8258e+02	-6.8950	-28.930115	0.000345	3.445642	1.167415	0.000138
1837	1.8268e+02	-6.8549	-28.821112	0.000274	2.736245	0.927065	0.000110
1838	1.8278e+02	-6.8180	-28.683849	0.000345	3.445642	1.167415	0.000138
1839	1.8288e+02	-6.7779	-28.550624	0.000334	3.344300	1.133079	0.000134
1840	1.8298e+02	-6.7394	-28.417398	0.000334	3.344300	1.133079	0.000134
1841	1.8308e+02	-6.6945	-28.288210	0.000324	3.242957	1.098744	0.000130
1842	1.8318e+02	-6.6576	-28.150948	0.000345	3.445642	1.167415	0.000138
1843	1.8328e+02	-6.6223	-28.037908	0.000284	2.837588	0.961401	0.000114
1844	1.8338e+02	-6.5758	-27.888534	0.000375	3.749670	1.270422	0.000150
1845	1.8348e+02	-6.5372	-27.795680	0.000233	2.330876	0.789722	0.000093
1846	1.8358e+02	-6.5004	-27.662454	0.000334	3.344300	1.133079	0.000134
1847	1.8368e+02	-6.4602	-27.513080	0.000375	3.749670	1.270422	0.000150
1848	1.8378e+02	-6.4201	-27.379855	0.000334	3.344300	1.133079	0.000134
1849	1.8388e+02	-6.3752	-27.299112	0.000203	2.026848	0.686715	0.000081
1850	1.8398e+02	-6.3415	-27.161849	0.000345	3.445642	1.167415	0.000138
1851	1.8407e+02	-6.3078	-27.024587	0.000345	3.445642	1.167415	0.000138
1852	1.8417e+02	-6.2549	-26.899435	0.000314	3.141615	1.064408	0.000126
1853	1.8427e+02	-6.2292	-26.774284	0.000314	3.141615	1.064408	0.000126
1854	1.8437e+02	-6.1843	-26.653170	0.000304	3.040273	1.030072	0.000122
1855	1.8447e+02	-6.1458	-26.491685	0.000405	4.053697	1.373430	0.000162
1856	1.8457e+02	-6.0961	-26.366534	0.000314	3.141615	1.064408	0.000126
1857	1.8467e+02	-6.0720	-26.221197	0.000365	3.648327	1.236087	0.000146
1858	1.8477e+02	-6.0159	-26.136417	0.000213	2.128191	0.721051	0.000085
1859	1.8487e+02	-5.9790	-26.015303	0.000304	3.040273	1.030072	0.000122
1860	1.8497e+02	-5.9453	-25.869966	0.000365	3.648327	1.236087	0.000146
1861	1.8507e+02	-5.9100	-25.793260	0.000193	1.925506	0.652379	0.000077
1862	1.8517e+02	-5.8538	-25.619663	0.000436	4.357724	1.476437	0.000174
1863	1.8527e+02	-5.8234	-25.498549	0.000304	3.040273	1.030072	0.000122
1864	1.8537e+02	-5.7833	-25.337064	0.000405	4.053697	1.373430	0.000162
1865	1.8547e+02	-5.7448	-25.232098	0.000263	2.634903	0.892729	0.000105
1866	1.8557e+02	-5.7030	-25.078687	0.000385	3.851012	1.304758	0.000154
1867	1.8567e+02	-5.6581	-24.953536	0.000314	3.141615	1.064408	0.000126
1868	1.8577e+02	-5.6180	-24.848570	0.000263	2.634903	0.892729	0.000105
1869	1.8587e+02	-5.5875	-24.715345	0.000334	3.344300	1.133079	0.000134
1870	1.8597e+02	-5.5522	-24.549822	0.000416	4.155039	1.407765	0.000166
1871	1.8606e+02	-5.5089	-24.424671	0.000314	3.141615	1.064408	0.000126
1872	1.8616e+02	-5.4688	-24.291446	0.000334	3.344300	1.133079	0.000134
1873	1.8626e+02	-5.4271	-24.186480	0.000263	2.634903	0.892729	0.000105
1874	1.8636e+02	-5.3886	-24.020958	0.000416	4.155039	1.407765	0.000166
1875	1.8646e+02	-5.3517	-23.883695	0.000345	3.445642	1.167415	0.000138
1876	1.8656e+02	-5.3052	-23.762581	0.000304	3.040273	1.030072	0.000122
1877	1.8666e+02	-5.2683	-23.649541	0.000284	2.837588	0.961401	0.000114
1878	1.8676e+02	-5.2266	-23.504204	0.000365	3.648327	1.236087	0.000146
1879	1.8686e+02	-5.1833	-23.362905	0.000355	3.546985	1.201751	0.000142
1880	1.8696e+02	-5.1544	-23.310422	0.000132	1.317451	0.446365	0.000053
1881	1.8706e+02	-5.1047	-23.128751	0.000456	4.560409	1.545108	0.000183
1882	1.8716e+02	-5.0662	-23.023785	0.000263	2.634903	0.892729	0.000105
1883	1.8726e+02	-5.0293	-22.894597	0.000324	3.242957	1.098744	0.000130
1884	1.8736e+02	-4.9908	-22.737148	0.000395	3.952354	1.339094	0.000158
1885	1.8746e+02	-4.9491	-22.587774	0.000375	3.749670	1.270422	0.000150
1886	1.8756e+02	-4.9090	-22.474735	0.000284	2.837588	0.961401	0.000114
1887	1.8766e+02	-4.8705	-22.321323	0.000385	3.851012	1.304758	0.000154
1888	1.8776e+02	-4.8255	-22.208284	0.000284	2.837588	0.961401	0.000114
1889	1.8786e+02	-4.7870	-22.050835	0.000395	3.952354	1.339094	0.000158
1890	1.8796e+02	-4.7485	-21.917610	0.000334	3.344300	1.133079	0.000134
1891	1.8806e+02	-4.7036	-21.772273	0.000365	3.648327	1.236087	0.000146
1892	1.8815e+02	-4.6619	-21.691530	0.000203	2.026848	0.686715	0.000081
1893	1.8825e+02	-4.6346	-21.530045	0.000405	4.053697	1.373430	0.000162
1894	1.8835e+02	-4.5865	-21.388745	0.000355	3.546985	1.201751	0.000142
1895	1.8845e+02	-4.5464	-21.275705	0.000284	2.837588	0.961401	0.000114
1896	1.8855e+02	-4.5047	-21.150554	0.000314	3.141615	1.064408	0.000126
1897	1.8865e+02	-4.4806	-21.013292	0.000345	3.445642	1.167415	0.000138
1898	1.8875e+02	-4.4181	-20.859880	0.000385	3.851012	1.304758	0.000154
1899	1.8885e+02	-4.3876	-20.718581	0.000355	3.546985	1.201751	0.000142
1900	1.8895e+02	-4.3411	-20.569207	0.000375	3.749670	1.270422	0.000150
1901	1.8905e+02	-4.3058	-20.472315	0.000243	2.432218	0.824058	0.000097
1902	1.8915e+02	-4.2673	-20.355238	0.000294	2.938930	0.995736	0.000118
1903	1.8925e+02	-4.2207	-20.173567	0.000456	4.560409	1.545108	0.000183
1904	1.8935e+02	-4.1935	-20.044379	0.000324	3.242957	1.098744	0.000130
1905	1.8945e+02	-4.1534	-19.903079	0.000355	3.546985	1.201751	0.000142
1906	1.8955e+02	-4.1165	-19.729482	0.000436	4.357724	1.476437	0.000174
1907	1.8965e+02	-4.0731	-19.648740	0.000203	2.026848	0.686715	0.000081
1908	1.8975e+02	-4.0427	-19.499366	0.000375	3.749670	1.270422	0.000150
1909	1.8985e+02	-3.9865	-19.341917	0.000395	3.952354	1.339094	0.000158
1910	1.8995e+02	-3.9560	-19.228878	0.000284	2.837588	0.961401	0.000114
1911	1.9004e+02	-3.9047	-19.071429	0.000395	3.952354	1.339094	0.000158
1912	1.9014e+02	-3.8678	-18.934167	0.000345	3.445642	1.167415	0.000138
1913	1.9024e+02	-3.8293	-18.792867	0.000355	3.546985	1.201751	0.000142
1914	1.9034e+02	-3.7876	-18.708087	0.000213	2.128191	0.721051	0.000085
1915	1.9044e+02	-3.7523	-18.546602	0.000405	4.053697	1.373430	0.000162
1916	1.9054e+02	-3.7074	-18.393190	0.000385	3.851012	1.304758	0.000154
1917	1.9064e+02	-3.6673	-18.215556	0.000446	4.459066	1.510773	0.000179
1918	1.9074e+02	-3.6320	-18.086368	0.000324	3.242957	1.098744	0.000130
1919	1.9084e+02	-3.5951	-18.025811	0.000152	1.520136	0.515036	0.000061
1920	1.9094e+02	-3.5470	-17.819917	0.000517	5.168463	1.751123	0.000207
1921	1.9104e+02	-3.5149	-17.731100	0.000223	2.229533	0.755386	0.000089
1922	1.9114e+02	-3.4635	-17.577689	0.000385	3.851012	1.304758	0.000154
1923	1.9124e+02	-3.4331	-17.412166	0.000416	4.155039	1.407765	0.000166
1924	1.9134e+02	-3.3881	-17.303164	0.000274	2.736245	0.927065	0.000110
1925	1.9144e+02	-3.3512	-17.149753	0.000385	3.851012	1.304758	0.000154
1926	1.9154e+02	-3.2999	-17.020564	0.000324	3.242957	1.098744	0.000130
1927	1.9164e+02	-3.2758	-16.891376	0.000324	3.242957	1.098744	0.000130
1928	1.9174e+02	-3.2309	-16.758150	0.000334	3.344300	1.133079	0.000134
1929	1.9184e+02	-3.1876	-16.580516	0.000446	4.459066	1.510773	0.000179
1930	1.9194e+02	-3.1652	-16.463440	0.000294	2.938930	0.995736	0.000118
1931	1.9203e+02	-3.1138	-16.370585	0.000233	2.330876	0.789722	0.000093
1932	1.9213e+02	-3.0689	-16.196989	0.000436	4.357724	1.476437	0.000174
1933	1.9223e+02	-3.0336	-16.031466	0.000416	4.155039	1.407765	0.000166
1934	1.9233e+02	-2.9887	-15.918426	0.000284	2.837588	0.961401	0.000114
1935	1.9243e+02	-2.9566	-15.817498	0.000253	2.533560	0.858394	0.000101
1936	1.9253e+02	-2.9165	-15.643901	0.000436	4.357724	1.476437	0.000174
1937	1.9263e+02	-2.8716	-15.498564	0.000365	3.648327	1.236087	0.000146
1938	1.9273e+02	-2.8315	-15.365339	0.000334	3.344300	1.133079	0.000134
1939	1.9283e+02	-2.7914	-15.220002	0.000365	3.648327	1.236087	0.000146
1940	1.9293e+02	-2.7513	-15.123110	0.000243	2.432218	0.824058	0.000097
1941	1.9303e+02	-2.7176	-14.929328	0.000486	4.864436	1.648116	0.000195
1942	1.9313e+02	-2.6839	-14.832437	0.000243	2.432218	0.824058	0.000097
1943	1.9323e+02	-2.6358	-14.670951	0.000405	4.053697	1.373430	0.000162
1944	1.9333e+02	-2.5908	-14.529652	0.000355	3.546985	1.201751	0.000142
1945	1.9343e+02	-2.5475	-14.404500	0.000314	3.141615	1.064408	0.000126
1946	1.9353e+02	-2.5235	-14.251089	0.000385	3.851012	1.304758	0.000154
1947	1.9363e+02	-2.4737	-14.117864	0.000334	3.344300	1.133079	0.000134
1948	1.9373e+02	-2.4400	-13.984638	0.000334	3.344300	1.133079	0.000134
1949	1.9383e+02	-2.3967	-13.807004	0.000446	4.459066	1.510773	0.000179
1950	1.9393e+02	-2.3614	-13.673779	0.000334	3.344300	1.133079	0.000134
1951	1.9403e+02	-2.3197	-13.512293	0.000405	4.053697	1.373430	0.000162
1952	1.9412e+02	-2.2732	-13.350808	0.000405	4.053697	1.373430	0.000162
1953	1.9422e+02	-2.2331	-13.209508	0.000355	3.546985	1.201751	0.000142
1954	1.9432e+02	-2.2090	-13.080320	0.000324	3.242957	1.098744	0.000130
1955	1.9442e+02	-2.1593	-12.959206	0.000304	3.040273	1.030072	0.000122
1956	1.9452e+02	-2.1128	-12.773497	0.000466	4.661751	1.579444	0.000187
1957	1.9462e+02	-2.0807	-12.636235	0.000345	3.445642	1.167415	0.000138
1958	1.9472e+02	-2.0261	-12.503009	0.000334	3.344300	1.133079	0.000134
1959	1.9482e+02	-1.9989	-12.385932	0.000294	2.938930	0.995736	0.000118
1960	1.9492e+02	-1.9636	-12.208298	0.000446	4.459066	1.510773	0.000179
1961	1.9502e+02	-1.9203	-12.083147	0.000314	3.141615	1.064408	0.000126
1962	1.9512e+02	-1.8753	-11.925699	0.000395	3.952354	1.339094	0.000158
1963	1.9522e+02	-1.8417	-11.752102	0.000436	4.357724	1.476437	0.000174
1964	1.9532e+02	-1.7935	-11.594654	0.000395	3.952354	1.339094	0.000158
1965	1.9542e+02	-1.7502	-11.485651	0.000274	2.736245	0.927065	0.000110
1966	1.9552e+02	-1.7165	-11.312054	0.000436	4.357724	1.476437	0.000174
1967	1.9562e+02	-1.6812	-11.207089	0.000263	2.634903	0.892729	0.000105
1968	1.9572e+02	-1.6379	-10.993121	0.000537	5.371148	1.819794	0.000215
1969	1.9582e+02	-1.5994	-10.876044	0.000294	2.938930	0.995736	0.000118
1970	1.9592e+02	-1.5593	-10.718595	0.000395	3.952354	1.339094	0.000158
1971	1.9601e+02	-1.5256	-10.573258	0.000365	3.648327	1.236087	0.000146
1972	1.9611e+02	-1.4759	-10.423884	0.000375	3.749670	1.270422	0.000150
1973	1.9621e+02	-1.4406	-10.270473	0.000385	3.851012	1.304758	0.000154
1974	1.9631e+02	-1.4037	-10.104951	0.000416	4.155039	1.407765	0.000166
1975	1.9641e+02	-1.3636	-9.983837	0.000304	3.040273	1.030072	0.000122
1976	1.9651e+02	-1.3155	-9.854648	0.000324	3.242957	1.098744	0.000130
1977	1.9661e+02	-1.2850	-9.672977	0.000456	4.560409	1.545108	0.000183
1978	1.9671e+02	-1.2385	-9.539752	0.000334	3.344300	1.133079	0.000134
1979	1.9681e+02	-1.1968	-9.382303	0.000395	3.952354	1.339094	0.000158
1980	1.9691e+02	-1.1583	-9.212744	0.000426	4.256382	1.442101	0.000170
1981	1.9701e+02	-1.1214	-9.091630	0.000304	3.040273	1.030072	0.000122
1982	1.9711e+02	-1.0716	-8.897847	0.000486	4.864436	1.648116	0.000195
1983	1.9721e+02	-1.0428	-8.792882	0.000263	2.634903	0.892729	0.000105
1984	1.9731e+02	-1.0042	-8.623322	0.000426	4.256382	1.442101	0.000170
1985	1.9741e+02	-0.9657	-8.453762	0.000426	4.256382	1.442101	0.000170
1986	1.9751e+02	-0.9176	-8.300351	0.000385	3.851012	1.304758	0.000154
1987	1.9761e+02	-0.8823	-8.179237	0.000304	3.040273	1.030072	0.000122
1988	1.9771e+02	-0.8438	-8.009677	0.000426	4.256382	1.442101	0.000170
1989	1.9781e+02	-0.8005	-7.860303	0.000375	3.749670	1.270422	0.000150
1990	1.9791e+02	-0.7572	-7.706892	0.000385	3.851012	1.304758	0.000154
1991	1.9800e+02	-0.7267	-7.577704	0.000324	3.242957	1.098744	0.000130
1992	1.9810e+02	-0.6754	-7.412181	0.000416	4.155039	1.407765	0.000166
1993	1.9820e+02	-0.6417	-7.262807	0.000375	3.749670	1.270422	0.000150
1994	1.9830e+02	-0.6032	-7.085173	0.000446	4.459066	1.510773	0.000179
1995	1.9840e+02	-0.5551	-6.911576	0.000436	4.357724	1.476437	0.000174
1996	1.9850e+02	-0.5310	-6.810648	0.000253	2.533560	0.858394	0.000101
1997	1.9860e+02	-0.4877	-6.637051	0.000436	4.357724	1.476437	0.000174
1998	1.9870e+02	-0.4396	-6.463454	0.000436	4.357724	1.476437	0.000174
1999	1.9880e+02	-0.4027	-6.306006	0.000395	3.952354	1.339094	0.000158
2000	1.9890e+02	-0.3545	-6.148558	0.000395	3.952354	1.339094	0.000158
2001	1.9900e+02	-0.3208	-5.983035	0.000416	4.155039	1.407765	0.000166
2002	1.9910e+02	-0.2872	-5.853847	0.000324	3.242957	1.098744	0.000130
2003	1.9920e+02	-0.2471	-5.676213	0.000446	4.459066	1.510773	0.000179
2004	1.9930e+02	-0.2053	-5.510690	0.000416	4.155039	1.407765	0.000166
2005	1.9940e+02	-0.1684	-5.361316	0.000375	3.749670	1.270422	0.000150
2006	1.9950e+02	-0.1283	-5.224054	0.000345	3.445642	1.167415	0.000138
2007	1.9960e+02	-0.0834	-5.034308	0.000476	4.763094	1.613780	0.000191
2008	1.9970e+02	-0.0417	-4.888971	0.000365	3.648327	1.236087	0.000146
2009	1.9980e+02	0.0000	-4.735560	0.000365	3.648327	1.236087	0.000154

Center data before PMax,+/-Pr and +/-Vc Calc.

PMax (uC/cm2):	6.19e+01
Pr (uC/cm2):	3.06e+00
-Pr (uC/cm2):	-4.74e+00
PLoss (uC/cm2):	-2.57e+00
Vc:	5.91e-01
-Vc:	-7.84e-01
C (Max-Eff) (nF):	3.10e-01
K (Eff):	1.05e+03
Vert. (+/-Pr) Shift (uC/cm2):	-8.38e-01
Horiz. Shift (+/-Vc):	-9.65e-02
Offset (uC/cm2):	2.18e+00

A (Loop Area - uC/cm2·Volts):	9.13e-03



Hysteresis Version: 5.48.1 - Radiant Technologies, Inc., 1999 - 9/12/24

