»»»»»»»»»»»»»»»»»»»»»»»»»»»»»»»»»»»» Hysteresis ««««««««««««««««««««««««««««««««««««
»»»  Executed Version:	5.48.1
»»»  Vision Version:	5.48.4 (R)
»»»  Vision Compiled:	9/18/24
»»»  Driver Version:	5.47.0
»»»  Windows Version:	Windows 8 or 8.1
»»»  Processor Information:	x86 (AMD or Intel) - 32 Processors
»»»  Tester Name:	PMF21124-494 (100V)
»»»  Tester S/N:	PMF21124-494
»»»  Internal Amp Type:	100V RevK 270k
»»»  Internal Amp S/N:	iAB2-596/K     
»»»  Execution Count:	1
»»»»»»»»»»»»»»»»»»»»»»»»»»»»»»»»»»»»»»»»»»««««««««««««««««««««««««««««««««««««««««««

Stored:	6/9/2025 - 15:35:45
Configured:	06/09/25 02:47:45 PM
Executed:	06/09/25 03:35:09 PM

»»»»»»»»»»»»»»»»»»»»»»»»»»»»»»»»»»» Sample Info ««««««««««««««««««««««««««««««««««««
Sample Name:	
Lot Name:	
Wafer Name:	
Die Row/Column:	0/0
Capacitor Number:	0
Sample Area (cm2):	1.00e-04
Sample Thickness (microns):	3.00e-01

Amplifier:	Internal

»»»»»»»»»»»»»»»»»»»»»»»»»»»»»»»»»»» Tester Info «««««««««««««««««««««««««««««««««««
Tester Name:	PMF21124-494 (100V)
Tester Serial Number:	PMF21124-494
Return Signal Amp. Level:	0.19 [Index: 3]

»»»»»»»»»»»»»»»»»»»»»»»»»»»»»»»» Hysteresis Info ««««««««««««««««««««««««««««««««««
Task Name:	Hyst-927
Volts:	20.00
Field:	666.67 (kV/cm)
DCBias:	0.00
DCField:	0.00 (kV/cm)
Hysteresis Period (ms):	2.00e+02
Preset:	Enabled
Preset Delay (ms):	1.00e+03
Profile:	Standard Bipolar

»»»»»»»»»»»»»»»»»»»»»»»»»»»»»»»»»»»»»» Data «««««««««««««««««««««««««««««««««««««««
Points:	2009

Valid Data

Point	Time (ms)	Drive Voltage	Measured Polarization (uC/cm2)	Capacitance (uF)	Normalized Capacitance (uF/cm2)	Dielectric Constant	Instantaneous Current (mA)
   1	0.0000e+00	0.0016	-2.577711	0.000314	3.142182	1.064600	0.000126
   2	9.9500e-02	0.0241	-2.452560	0.000314	3.142182	1.064600	0.000126
   3	1.9900e-01	0.0658	-2.363743	0.000223	2.229936	0.755523	0.000089
   4	2.9850e-01	0.1139	-2.198220	0.000416	4.155789	1.408020	0.000166
   5	3.9800e-01	0.1460	-2.040772	0.000395	3.953068	1.339336	0.000158
   6	4.9750e-01	0.1893	-1.875250	0.000416	4.155789	1.408020	0.000166
   7	5.9700e-01	0.2214	-1.770284	0.000264	2.635379	0.892890	0.000105
   8	6.9650e-01	0.2679	-1.604761	0.000416	4.155789	1.408020	0.000166
   9	7.9600e-01	0.3016	-1.471536	0.000334	3.344904	1.133284	0.000134
  10	8.9550e-01	0.3433	-1.334273	0.000345	3.446264	1.167626	0.000138
  11	9.9500e-01	0.3946	-1.160677	0.000436	4.358511	1.476703	0.000174
  12	1.0945e+00	0.4396	-1.011303	0.000375	3.750346	1.270652	0.000150
  13	1.1940e+00	0.4636	-0.890188	0.000304	3.040821	1.030258	0.000122
  14	1.2935e+00	0.5021	-0.716592	0.000436	4.358511	1.476703	0.000174
  15	1.3930e+00	0.5454	-0.579329	0.000345	3.446264	1.167626	0.000138
  16	1.4925e+00	0.5839	-0.417844	0.000405	4.054429	1.373678	0.000162
  17	1.5920e+00	0.6273	-0.300767	0.000294	2.939461	0.995916	0.000118
  18	1.6915e+00	0.6674	-0.115058	0.000466	4.662593	1.579729	0.000187
  19	1.7910e+00	0.6994	0.058538	0.000436	4.358511	1.476703	0.000174
  20	1.8905e+00	0.7476	0.187727	0.000324	3.243543	1.098942	0.000130
  21	1.9900e+00	0.7813	0.300767	0.000284	2.838100	0.961574	0.000114
  22	2.0895e+00	0.8342	0.433992	0.000334	3.344904	1.133284	0.000134
  23	2.1890e+00	0.8727	0.635849	0.000507	5.068036	1.717097	0.000203
  24	2.2885e+00	0.9048	0.821557	0.000466	4.662593	1.579729	0.000187
  25	2.3880e+00	0.9513	0.934597	0.000284	2.838100	0.961574	0.000114
  26	2.4875e+00	0.9754	1.092045	0.000395	3.953068	1.339336	0.000158
  27	2.5870e+00	1.0267	1.229308	0.000345	3.446264	1.167626	0.000138
  28	2.6865e+00	1.0540	1.398868	0.000426	4.257150	1.442361	0.000170
  29	2.7860e+00	1.1037	1.544204	0.000365	3.648986	1.236310	0.000146
  30	2.8855e+00	1.1502	1.689541	0.000365	3.648986	1.236310	0.000146
  31	2.9850e+00	1.1887	1.875250	0.000466	4.662593	1.579729	0.000187
  32	3.0845e+00	1.2080	1.980215	0.000264	2.635379	0.892890	0.000105
  33	3.1840e+00	1.2673	2.169960	0.000476	4.763954	1.614071	0.000191
  34	3.2835e+00	1.3074	2.278963	0.000274	2.736739	0.927232	0.000110
  35	3.3830e+00	1.3411	2.468709	0.000476	4.763954	1.614071	0.000191
  36	3.4825e+00	1.3812	2.614045	0.000365	3.648986	1.236310	0.000146
  37	3.5820e+00	1.4262	2.755345	0.000355	3.547625	1.201968	0.000142
  38	3.6815e+00	1.4663	2.904719	0.000375	3.750346	1.270652	0.000150
  39	3.7810e+00	1.5000	3.086390	0.000456	4.561232	1.545387	0.000183
  40	3.8805e+00	1.5449	3.259987	0.000436	4.358511	1.476703	0.000174
  41	3.9800e+00	1.5834	3.421473	0.000405	4.054429	1.373678	0.000162
  42	4.0795e+00	1.6251	3.554698	0.000334	3.344904	1.133284	0.000134
  43	4.1790e+00	1.6604	3.704072	0.000375	3.750346	1.270652	0.000150
  44	4.2785e+00	1.6973	3.889780	0.000466	4.662593	1.579729	0.000187
  45	4.3780e+00	1.7406	4.055303	0.000416	4.155789	1.408020	0.000166
  46	4.4775e+00	1.7823	4.176417	0.000304	3.040821	1.030258	0.000122
  47	4.5770e+00	1.8176	4.358088	0.000456	4.561232	1.545387	0.000183
  48	4.6765e+00	1.8625	4.507462	0.000375	3.750346	1.270652	0.000150
  49	4.7760e+00	1.9026	4.681059	0.000436	4.358511	1.476703	0.000174
  50	4.8755e+00	1.9331	4.818322	0.000345	3.446264	1.167626	0.000138
  51	4.9750e+00	1.9780	4.947510	0.000324	3.243543	1.098942	0.000130
  52	5.0745e+00	2.0261	5.121107	0.000436	4.358511	1.476703	0.000174
  53	5.1740e+00	2.0582	5.327001	0.000517	5.169396	1.751439	0.000207
  54	5.2735e+00	2.0983	5.472337	0.000365	3.648986	1.236310	0.000146
  55	5.3730e+00	2.1513	5.637860	0.000416	4.155789	1.408020	0.000166
  56	5.4725e+00	2.1834	5.807420	0.000426	4.257150	1.442361	0.000170
  57	5.5720e+00	2.2219	5.928534	0.000304	3.040821	1.030258	0.000122
  58	5.6715e+00	2.2620	6.094056	0.000416	4.155789	1.408020	0.000166
  59	5.7710e+00	2.2941	6.235356	0.000355	3.547625	1.201968	0.000142
  60	5.8705e+00	2.3422	6.404916	0.000426	4.257150	1.442361	0.000170
  61	5.9700e+00	2.3807	6.578513	0.000436	4.358511	1.476703	0.000174
  62	6.0695e+00	2.4240	6.663293	0.000213	2.128575	0.721181	0.000085
  63	6.1690e+00	2.4545	6.857075	0.000487	4.865314	1.648413	0.000195
  64	6.2685e+00	2.4978	7.050858	0.000487	4.865314	1.648413	0.000195
  65	6.3680e+00	2.5331	7.180046	0.000324	3.243543	1.098942	0.000130
  66	6.4675e+00	2.5796	7.345568	0.000416	4.155789	1.408020	0.000166
  67	6.5670e+00	2.6261	7.466683	0.000304	3.040821	1.030258	0.000122
  68	6.6665e+00	2.6694	7.660465	0.000487	4.865314	1.648413	0.000195
  69	6.7660e+00	2.6951	7.817913	0.000395	3.953068	1.339336	0.000158
  70	6.8655e+00	2.7336	7.951139	0.000334	3.344904	1.133284	0.000134
  71	6.9650e+00	2.7769	8.108587	0.000395	3.953068	1.339336	0.000158
  72	7.0645e+00	2.8202	8.266035	0.000395	3.953068	1.339336	0.000158
  73	7.1640e+00	2.8539	8.455781	0.000476	4.763954	1.614071	0.000191
  74	7.2635e+00	2.9005	8.560746	0.000264	2.635379	0.892890	0.000105
  75	7.3630e+00	2.9325	8.722232	0.000405	4.054429	1.373678	0.000162
  76	7.4625e+00	2.9823	8.887754	0.000416	4.155789	1.408020	0.000166
  77	7.5620e+00	3.0192	9.029054	0.000355	3.547625	1.201968	0.000142
  78	7.6615e+00	3.0529	9.182465	0.000385	3.851707	1.304994	0.000154
  79	7.7610e+00	3.1010	9.335876	0.000385	3.851707	1.304994	0.000154
  80	7.8605e+00	3.1315	9.481213	0.000365	3.648986	1.236310	0.000146
  81	7.9600e+00	3.1652	9.674996	0.000487	4.865314	1.648413	0.000195
  82	8.0595e+00	3.2133	9.796110	0.000304	3.040821	1.030258	0.000122
  83	8.1590e+00	3.2646	9.965670	0.000426	4.257150	1.442361	0.000170
  84	8.2585e+00	3.2951	10.131192	0.000416	4.155789	1.408020	0.000166
  85	8.3580e+00	3.3400	10.240195	0.000274	2.736739	0.927232	0.000110
  86	8.4575e+00	3.3721	10.409755	0.000426	4.257150	1.442361	0.000170
  87	8.5570e+00	3.4186	10.547017	0.000345	3.446264	1.167626	0.000138
  88	8.6565e+00	3.4539	10.740800	0.000487	4.865314	1.648413	0.000195
  89	8.7560e+00	3.4988	10.874025	0.000334	3.344904	1.133284	0.000134
  90	8.8555e+00	3.5389	11.027436	0.000385	3.851707	1.304994	0.000154
  91	8.9550e+00	3.5758	11.188922	0.000405	4.054429	1.373678	0.000162
  92	9.0545e+00	3.6127	11.310036	0.000304	3.040821	1.030258	0.000122
  93	9.1540e+00	3.6528	11.503818	0.000487	4.865314	1.648413	0.000195
  94	9.2535e+00	3.6945	11.604747	0.000253	2.534018	0.858548	0.000101
  95	9.3530e+00	3.7347	11.766232	0.000405	4.054429	1.373678	0.000162
  96	9.4525e+00	3.7764	11.923680	0.000395	3.953068	1.339336	0.000158
  97	9.5520e+00	3.8133	12.085166	0.000405	4.054429	1.373678	0.000162
  98	9.6515e+00	3.8534	12.242614	0.000395	3.953068	1.339336	0.000158
  99	9.7510e+00	3.8855	12.408137	0.000416	4.155789	1.408020	0.000166
 100	9.8505e+00	3.9272	12.529251	0.000304	3.040821	1.030258	0.000122
 101	9.9500e+00	3.9769	12.674588	0.000365	3.648986	1.236310	0.000146
 102	1.0050e+01	4.0122	12.836073	0.000405	4.054429	1.373678	0.000162
 103	1.0149e+01	4.0523	12.977373	0.000355	3.547625	1.201968	0.000142
 104	1.0248e+01	4.0892	13.163081	0.000466	4.662593	1.579729	0.000187
 105	1.0348e+01	4.1373	13.280158	0.000294	2.939461	0.995916	0.000118
 106	1.0447e+01	4.1806	13.429532	0.000375	3.750346	1.270652	0.000150
 107	1.0547e+01	4.2159	13.611203	0.000456	4.561232	1.545387	0.000183
 108	1.0646e+01	4.2496	13.720206	0.000274	2.736739	0.927232	0.000110
 109	1.0746e+01	4.2977	13.881691	0.000405	4.054429	1.373678	0.000162
 110	1.0845e+01	4.3330	14.010880	0.000324	3.243543	1.098942	0.000130
 111	1.0945e+01	4.3747	14.168328	0.000395	3.953068	1.339336	0.000158
 112	1.1044e+01	4.4165	14.337888	0.000426	4.257150	1.442361	0.000170
 113	1.1144e+01	4.4469	14.467076	0.000324	3.243543	1.098942	0.000130
 114	1.1243e+01	4.4935	14.628561	0.000405	4.054429	1.373678	0.000162
 115	1.1343e+01	4.5352	14.777935	0.000375	3.750346	1.270652	0.000150
 116	1.1443e+01	4.5737	14.947495	0.000426	4.257150	1.442361	0.000170
 117	1.1542e+01	4.6074	15.048423	0.000253	2.534018	0.858548	0.000101
 118	1.1642e+01	4.6667	15.205872	0.000395	3.953068	1.339336	0.000158
 119	1.1741e+01	4.7004	15.375431	0.000426	4.257150	1.442361	0.000170
 120	1.1841e+01	4.7325	15.553065	0.000446	4.459871	1.511045	0.000179
 121	1.1940e+01	4.7726	15.682254	0.000324	3.243543	1.098942	0.000130
 122	1.2040e+01	4.8191	15.839702	0.000395	3.953068	1.339336	0.000158
 123	1.2139e+01	4.8576	15.993113	0.000385	3.851707	1.304994	0.000154
 124	1.2239e+01	4.8929	16.130376	0.000345	3.446264	1.167626	0.000138
 125	1.2338e+01	4.9186	16.239379	0.000274	2.736739	0.927232	0.000110
 126	1.2438e+01	4.9635	16.421050	0.000456	4.561232	1.545387	0.000183
 127	1.2537e+01	5.0116	16.517941	0.000243	2.432657	0.824207	0.000097
 128	1.2636e+01	5.0501	16.691538	0.000436	4.358511	1.476703	0.000174
 129	1.2736e+01	5.0806	16.808615	0.000294	2.939461	0.995916	0.000118
 130	1.2835e+01	5.1319	16.990286	0.000456	4.561232	1.545387	0.000183
 131	1.2935e+01	5.1688	17.095251	0.000264	2.635379	0.892890	0.000105
 132	1.3034e+01	5.2057	17.248662	0.000385	3.851707	1.304994	0.000154
 133	1.3134e+01	5.2507	17.389962	0.000355	3.547625	1.201968	0.000142
 134	1.3233e+01	5.2892	17.583745	0.000487	4.865314	1.648413	0.000195
 135	1.3333e+01	5.3244	17.708896	0.000314	3.142182	1.064600	0.000126
 136	1.3432e+01	5.3694	17.834047	0.000314	3.142182	1.064600	0.000126
 137	1.3532e+01	5.4095	17.979384	0.000365	3.648986	1.236310	0.000146
 138	1.3632e+01	5.4528	18.096461	0.000294	2.939461	0.995916	0.000118
 139	1.3731e+01	5.4833	18.302355	0.000517	5.169396	1.751439	0.000207
 140	1.3831e+01	5.5330	18.415395	0.000284	2.838100	0.961574	0.000114
 141	1.3930e+01	5.5683	18.568806	0.000385	3.851707	1.304994	0.000154
 142	1.4030e+01	5.6052	18.665697	0.000243	2.432657	0.824207	0.000097
 143	1.4129e+01	5.6437	18.863517	0.000497	4.966675	1.682755	0.000199
 144	1.4229e+01	5.6838	18.984631	0.000304	3.040821	1.030258	0.000122
 145	1.4328e+01	5.7287	19.146116	0.000405	4.054429	1.373678	0.000162
 146	1.4428e+01	5.7768	19.287416	0.000355	3.547625	1.201968	0.000142
 147	1.4527e+01	5.8057	19.456976	0.000426	4.257150	1.442361	0.000170
 148	1.4627e+01	5.8458	19.549830	0.000233	2.331296	0.789865	0.000093
 149	1.4726e+01	5.8859	19.727464	0.000446	4.459871	1.511045	0.000179
 150	1.4825e+01	5.9292	19.872801	0.000365	3.648986	1.236310	0.000146
 151	1.4925e+01	5.9710	20.018138	0.000365	3.648986	1.236310	0.000146
 152	1.5024e+01	6.0095	20.187697	0.000426	4.257150	1.442361	0.000170
 153	1.5124e+01	6.0399	20.304774	0.000294	2.939461	0.995916	0.000118
 154	1.5223e+01	6.0849	20.454148	0.000375	3.750346	1.270652	0.000150
 155	1.5323e+01	6.1346	20.635819	0.000456	4.561232	1.545387	0.000183
 156	1.5422e+01	6.1570	20.760971	0.000314	3.142182	1.064600	0.000126
 157	1.5522e+01	6.2004	20.902270	0.000355	3.547625	1.201968	0.000142
 158	1.5621e+01	6.2485	21.023384	0.000304	3.040821	1.030258	0.000122
 159	1.5721e+01	6.2934	21.196981	0.000436	4.358511	1.476703	0.000174
 160	1.5820e+01	6.3319	21.326170	0.000324	3.243543	1.098942	0.000130
 161	1.5920e+01	6.3656	21.479581	0.000385	3.851707	1.304994	0.000154
 162	1.6020e+01	6.4073	21.657215	0.000446	4.459871	1.511045	0.000179
 163	1.6119e+01	6.4490	21.758143	0.000253	2.534018	0.858548	0.000101
 164	1.6218e+01	6.4811	21.883294	0.000314	3.142182	1.064600	0.000126
 165	1.6318e+01	6.5164	22.036705	0.000385	3.851707	1.304994	0.000154
 166	1.6418e+01	6.5709	22.190117	0.000385	3.851707	1.304994	0.000154
 167	1.6517e+01	6.6046	22.307194	0.000294	2.939461	0.995916	0.000118
 168	1.6616e+01	6.6399	22.460605	0.000385	3.851707	1.304994	0.000154
 169	1.6716e+01	6.6832	22.638239	0.000446	4.459871	1.511045	0.000179
 170	1.6816e+01	6.7233	22.775501	0.000345	3.446264	1.167626	0.000138
 171	1.6915e+01	6.7570	22.957172	0.000456	4.561232	1.545387	0.000183
 172	1.7015e+01	6.7923	23.021767	0.000162	1.621771	0.549471	0.000065
 173	1.7114e+01	6.8292	23.243809	0.000557	5.574839	1.888807	0.000223
 174	1.7213e+01	6.8822	23.364923	0.000304	3.040821	1.030258	0.000122
 175	1.7313e+01	6.9239	23.518334	0.000385	3.851707	1.304994	0.000154
 176	1.7413e+01	6.9592	23.639448	0.000304	3.040821	1.030258	0.000122
 177	1.7512e+01	7.0009	23.809008	0.000426	4.257150	1.442361	0.000170
 178	1.7611e+01	7.0378	23.922048	0.000284	2.838100	0.961574	0.000114
 179	1.7711e+01	7.0859	24.031050	0.000274	2.736739	0.927232	0.000110
 180	1.7811e+01	7.1148	24.224833	0.000487	4.865314	1.648413	0.000195
 181	1.7910e+01	7.1597	24.358058	0.000334	3.344904	1.133284	0.000134
 182	1.8009e+01	7.1918	24.523581	0.000416	4.155789	1.408020	0.000166
 183	1.8109e+01	7.2415	24.664881	0.000355	3.547625	1.201968	0.000142
 184	1.8209e+01	7.2832	24.814255	0.000375	3.750346	1.270652	0.000150
 185	1.8308e+01	7.3233	24.907109	0.000233	2.331296	0.789865	0.000093
 186	1.8407e+01	7.3634	25.076669	0.000426	4.257150	1.442361	0.000170
 187	1.8507e+01	7.4019	25.213931	0.000345	3.446264	1.167626	0.000138
 188	1.8607e+01	7.4436	25.363305	0.000375	3.750346	1.270652	0.000150
 189	1.8706e+01	7.4886	25.492494	0.000324	3.243543	1.098942	0.000130
 190	1.8805e+01	7.5174	25.662053	0.000426	4.257150	1.442361	0.000170
 191	1.8905e+01	7.5591	25.791242	0.000324	3.243543	1.098942	0.000130
 192	1.9005e+01	7.5960	25.908319	0.000294	2.939461	0.995916	0.000118
 193	1.9104e+01	7.6345	26.098064	0.000476	4.763954	1.614071	0.000191
 194	1.9203e+01	7.6859	26.194955	0.000243	2.432657	0.824207	0.000097
 195	1.9303e+01	7.7180	26.376626	0.000456	4.561232	1.545387	0.000183
 196	1.9402e+01	7.7661	26.461406	0.000213	2.128575	0.721181	0.000085
 197	1.9502e+01	7.7982	26.630966	0.000426	4.257150	1.442361	0.000170
 198	1.9602e+01	7.8431	26.772266	0.000355	3.547625	1.201968	0.000142
 199	1.9701e+01	7.8784	26.929714	0.000395	3.953068	1.339336	0.000158
 200	1.9800e+01	7.9137	27.075051	0.000365	3.648986	1.236310	0.000146
 201	1.9900e+01	7.9602	27.192128	0.000294	2.939461	0.995916	0.000118
 202	2.0000e+01	8.0019	27.345539	0.000385	3.851707	1.304994	0.000154
 203	2.0099e+01	8.0388	27.470690	0.000314	3.142182	1.064600	0.000126
 204	2.0198e+01	8.0805	27.620064	0.000375	3.750346	1.270652	0.000150
 205	2.0298e+01	8.1158	27.733104	0.000284	2.838100	0.961574	0.000114
 206	2.0398e+01	8.1607	27.902664	0.000426	4.257150	1.442361	0.000170
 207	2.0497e+01	8.1944	28.023778	0.000304	3.040821	1.030258	0.000122
 208	2.0596e+01	8.2458	28.157003	0.000334	3.344904	1.133284	0.000134
 209	2.0696e+01	8.2698	28.334637	0.000446	4.459871	1.511045	0.000179
 210	2.0796e+01	8.3163	28.488048	0.000385	3.851707	1.304994	0.000154
 211	2.0895e+01	8.3500	28.613200	0.000314	3.142182	1.064600	0.000126
 212	2.0994e+01	8.3998	28.778722	0.000416	4.155789	1.408020	0.000166
 213	2.1094e+01	8.4254	28.920022	0.000355	3.547625	1.201968	0.000142
 214	2.1194e+01	8.4736	29.045173	0.000314	3.142182	1.064600	0.000126
 215	2.1293e+01	8.5153	29.178399	0.000334	3.344904	1.133284	0.000134
 216	2.1392e+01	8.5522	29.327773	0.000375	3.750346	1.270652	0.000150
 217	2.1492e+01	8.6003	29.489258	0.000405	4.054429	1.373678	0.000162
 218	2.1591e+01	8.6292	29.606335	0.000294	2.939461	0.995916	0.000118
 219	2.1691e+01	8.6805	29.751672	0.000365	3.648986	1.236310	0.000146
 220	2.1791e+01	8.7142	29.909120	0.000395	3.953068	1.339336	0.000158
 221	2.1890e+01	8.7559	30.094828	0.000466	4.662593	1.579729	0.000187
 222	2.1989e+01	8.8008	30.219980	0.000314	3.142182	1.064600	0.000126
 223	2.2089e+01	8.8425	30.316871	0.000243	2.432657	0.824207	0.000097
 224	2.2189e+01	8.8746	30.458171	0.000355	3.547625	1.201968	0.000142
 225	2.2288e+01	8.9163	30.619656	0.000405	4.054429	1.373678	0.000162
 226	2.2387e+01	8.9484	30.740770	0.000304	3.040821	1.030258	0.000122
 227	2.2487e+01	8.9965	30.869958	0.000324	3.243543	1.098942	0.000130
 228	2.2587e+01	9.0382	31.015295	0.000365	3.648986	1.236310	0.000146
 229	2.2686e+01	9.0719	31.152558	0.000345	3.446264	1.167626	0.000138
 230	2.2785e+01	9.1136	31.293858	0.000355	3.547625	1.201968	0.000142
 231	2.2885e+01	9.1505	31.419009	0.000314	3.142182	1.064600	0.000126
 232	2.2985e+01	9.2067	31.568383	0.000375	3.750346	1.270652	0.000150
 233	2.3084e+01	9.2324	31.709683	0.000355	3.547625	1.201968	0.000142
 234	2.3183e+01	9.2741	31.850982	0.000355	3.547625	1.201968	0.000142
 235	2.3283e+01	9.3142	31.988245	0.000345	3.446264	1.167626	0.000138
 236	2.3383e+01	9.3527	32.121470	0.000334	3.344904	1.133284	0.000134
 237	2.3482e+01	9.3928	32.246622	0.000314	3.142182	1.064600	0.000126
 238	2.3581e+01	9.4393	32.387921	0.000355	3.547625	1.201968	0.000142
 239	2.3681e+01	9.4714	32.472701	0.000213	2.128575	0.721181	0.000085
 240	2.3780e+01	9.5147	32.634187	0.000405	4.054429	1.373678	0.000162
 241	2.3880e+01	9.5548	32.799709	0.000416	4.155789	1.408020	0.000166
 242	2.3980e+01	9.5965	32.961195	0.000405	4.054429	1.373678	0.000162
 243	2.4079e+01	9.6302	33.013677	0.000132	1.317689	0.446445	0.000053
 244	2.4178e+01	9.6703	33.191311	0.000446	4.459871	1.511045	0.000179
 245	2.4278e+01	9.7040	33.320500	0.000324	3.243543	1.098942	0.000130
 246	2.4378e+01	9.7473	33.445651	0.000314	3.142182	1.064600	0.000126
 247	2.4477e+01	9.7970	33.554654	0.000274	2.736739	0.927232	0.000110
 248	2.4576e+01	9.8339	33.695953	0.000355	3.547625	1.201968	0.000142
 249	2.4676e+01	9.8708	33.796882	0.000253	2.534018	0.858548	0.000101
 250	2.4776e+01	9.9045	33.986627	0.000476	4.763954	1.614071	0.000191
 251	2.4875e+01	9.9495	34.123890	0.000345	3.446264	1.167626	0.000138
 252	2.4974e+01	9.9928	34.204633	0.000203	2.027214	0.686839	0.000081
 253	2.5074e+01	10.0313	34.366118	0.000405	4.054429	1.373678	0.000162
 254	2.5174e+01	10.0746	34.515492	0.000375	3.750346	1.270652	0.000150
 255	2.5273e+01	10.1099	34.632569	0.000294	2.939461	0.995916	0.000118
 256	2.5372e+01	10.1468	34.737534	0.000264	2.635379	0.892890	0.000105
 257	2.5472e+01	10.1885	34.870760	0.000334	3.344904	1.133284	0.000134
 258	2.5572e+01	10.2334	35.036283	0.000416	4.155789	1.408020	0.000166
 259	2.5671e+01	10.2639	35.161434	0.000314	3.142182	1.064600	0.000126
 260	2.5770e+01	10.3152	35.274474	0.000284	2.838100	0.961574	0.000114
 261	2.5870e+01	10.3473	35.403662	0.000324	3.243543	1.098942	0.000130
 262	2.5970e+01	10.3874	35.528813	0.000314	3.142182	1.064600	0.000126
 263	2.6069e+01	10.4307	35.674150	0.000365	3.648986	1.236310	0.000146
 264	2.6169e+01	10.4740	35.783153	0.000274	2.736739	0.927232	0.000110
 265	2.6268e+01	10.5077	35.924452	0.000355	3.547625	1.201968	0.000142
 266	2.6367e+01	10.5430	36.037492	0.000284	2.838100	0.961574	0.000114
 267	2.6467e+01	10.5911	36.146495	0.000274	2.736739	0.927232	0.000110
 268	2.6567e+01	10.6264	36.303943	0.000395	3.953068	1.339336	0.000158
 269	2.6666e+01	10.6714	36.441206	0.000345	3.446264	1.167626	0.000138
 270	2.6765e+01	10.7115	36.558283	0.000294	2.939461	0.995916	0.000118
 271	2.6865e+01	10.7452	36.699582	0.000355	3.547625	1.201968	0.000142
 272	2.6965e+01	10.7853	36.816659	0.000294	2.939461	0.995916	0.000118
 273	2.7064e+01	10.8173	36.949885	0.000334	3.344904	1.133284	0.000134
 274	2.7163e+01	10.8671	37.038702	0.000223	2.229936	0.755523	0.000089
 275	2.7263e+01	10.9088	37.171927	0.000334	3.344904	1.133284	0.000134
 276	2.7363e+01	10.9473	37.309190	0.000345	3.446264	1.167626	0.000138
 277	2.7462e+01	10.9906	37.454527	0.000365	3.648986	1.236310	0.000146
 278	2.7561e+01	11.0275	37.563529	0.000274	2.736739	0.927232	0.000110
 279	2.7661e+01	11.0596	37.696755	0.000334	3.344904	1.133284	0.000134
 280	2.7761e+01	11.1045	37.834018	0.000345	3.446264	1.167626	0.000138
 281	2.7860e+01	11.1494	37.955132	0.000304	3.040821	1.030258	0.000122
 282	2.7959e+01	11.1911	38.068171	0.000284	2.838100	0.961574	0.000114
 283	2.8059e+01	11.2232	38.237731	0.000426	4.257150	1.442361	0.000170
 284	2.8159e+01	11.2649	38.370957	0.000334	3.344904	1.133284	0.000134
 285	2.8258e+01	11.2970	38.475922	0.000264	2.635379	0.892890	0.000105
 286	2.8358e+01	11.3451	38.609148	0.000334	3.344904	1.133284	0.000134
 287	2.8457e+01	11.3804	38.718150	0.000274	2.736739	0.927232	0.000110
 288	2.8556e+01	11.4237	38.851376	0.000334	3.344904	1.133284	0.000134
 289	2.8656e+01	11.4719	38.984601	0.000334	3.344904	1.133284	0.000134
 290	2.8756e+01	11.5056	39.093604	0.000274	2.736739	0.927232	0.000110
 291	2.8855e+01	11.5585	39.218755	0.000314	3.142182	1.064600	0.000126
 292	2.8954e+01	11.5810	39.307572	0.000223	2.229936	0.755523	0.000089
 293	2.9054e+01	11.6227	39.465020	0.000395	3.953068	1.339336	0.000158
 294	2.9154e+01	11.6708	39.582097	0.000294	2.939461	0.995916	0.000118
 295	2.9253e+01	11.6981	39.711286	0.000324	3.243543	1.098942	0.000130
 296	2.9352e+01	11.7414	39.836437	0.000314	3.142182	1.064600	0.000126
 297	2.9452e+01	11.7863	39.969662	0.000334	3.344904	1.133284	0.000134
 298	2.9552e+01	11.8232	40.050405	0.000203	2.027214	0.686839	0.000081
 299	2.9651e+01	11.8617	40.183631	0.000334	3.344904	1.133284	0.000134
 300	2.9750e+01	11.9002	40.276485	0.000233	2.331296	0.789865	0.000093
 301	2.9850e+01	11.9371	40.470267	0.000487	4.865314	1.648413	0.000195
 302	2.9950e+01	11.9852	40.518713	0.000122	1.216329	0.412103	0.000049
 303	3.0049e+01	12.0301	40.716532	0.000497	4.966675	1.682755	0.000199
 304	3.0148e+01	12.0719	40.797275	0.000203	2.027214	0.686839	0.000081
 305	3.0248e+01	12.1039	40.910315	0.000284	2.838100	0.961574	0.000114
 306	3.0348e+01	12.1505	41.019318	0.000274	2.736739	0.927232	0.000110
 307	3.0447e+01	12.1809	41.152543	0.000334	3.344904	1.133284	0.000134
 308	3.0547e+01	12.2307	41.301917	0.000375	3.750346	1.270652	0.000150
 309	3.0646e+01	12.2563	41.410920	0.000274	2.736739	0.927232	0.000110
 310	3.0745e+01	12.2980	41.523960	0.000284	2.838100	0.961574	0.000114
 311	3.0845e+01	12.3446	41.645074	0.000304	3.040821	1.030258	0.000122
 312	3.0945e+01	12.3767	41.770225	0.000314	3.142182	1.064600	0.000126
 313	3.1044e+01	12.4232	41.911525	0.000355	3.547625	1.201968	0.000142
 314	3.1143e+01	12.4633	42.048787	0.000345	3.446264	1.167626	0.000138
 315	3.1243e+01	12.5034	42.117419	0.000172	1.723132	0.583813	0.000069
 316	3.1343e+01	12.5371	42.270830	0.000385	3.851707	1.304994	0.000154
 317	3.1442e+01	12.5820	42.383870	0.000284	2.838100	0.961574	0.000114
 318	3.1541e+01	12.6157	42.500946	0.000294	2.939461	0.995916	0.000118
 319	3.1641e+01	12.6574	42.613986	0.000284	2.838100	0.961574	0.000114
 320	3.1741e+01	12.7087	42.787583	0.000436	4.358511	1.476703	0.000174
 321	3.1840e+01	12.7424	42.872363	0.000213	2.128575	0.721181	0.000085
 322	3.1939e+01	12.7873	43.009626	0.000345	3.446264	1.167626	0.000138
 323	3.2039e+01	12.8162	43.114591	0.000264	2.635379	0.892890	0.000105
 324	3.2139e+01	12.8676	43.255891	0.000355	3.547625	1.201968	0.000142
 325	3.2238e+01	12.8996	43.385079	0.000324	3.243543	1.098942	0.000130
 326	3.2337e+01	12.9365	43.490045	0.000264	2.635379	0.892890	0.000105
 327	3.2437e+01	12.9815	43.595010	0.000264	2.635379	0.892890	0.000105
 328	3.2536e+01	13.0135	43.784756	0.000476	4.763954	1.614071	0.000191
 329	3.2636e+01	13.0552	43.821090	0.000091	0.912246	0.309077	0.000037
 330	3.2736e+01	13.1002	43.978538	0.000395	3.953068	1.339336	0.000158
 331	3.2835e+01	13.1339	44.091578	0.000284	2.838100	0.961574	0.000114
 332	3.2934e+01	13.1740	44.220766	0.000324	3.243543	1.098942	0.000130
 333	3.3034e+01	13.2109	44.374177	0.000385	3.851707	1.304994	0.000154
 334	3.3133e+01	13.2462	44.475106	0.000253	2.534018	0.858548	0.000101
 335	3.3233e+01	13.2879	44.604294	0.000324	3.243543	1.098942	0.000130
 336	3.3333e+01	13.3424	44.721371	0.000294	2.939461	0.995916	0.000118
 337	3.3432e+01	13.3777	44.846522	0.000314	3.142182	1.064600	0.000126
 338	3.3532e+01	13.4114	44.971674	0.000314	3.142182	1.064600	0.000126
 339	3.3631e+01	13.4611	45.076639	0.000264	2.635379	0.892890	0.000105
 340	3.3730e+01	13.4964	45.234087	0.000395	3.953068	1.339336	0.000158
 341	3.3830e+01	13.5461	45.351164	0.000294	2.939461	0.995916	0.000118
 342	3.3929e+01	13.5734	45.504575	0.000385	3.851707	1.304994	0.000154
 343	3.4029e+01	13.6135	45.581281	0.000193	1.925854	0.652497	0.000077
 344	3.4129e+01	13.6633	45.706432	0.000314	3.142182	1.064600	0.000126
 345	3.4228e+01	13.6793	45.795249	0.000223	2.229936	0.755523	0.000089
 346	3.4328e+01	13.7338	45.956735	0.000405	4.054429	1.373678	0.000162
 347	3.4427e+01	13.7755	46.077849	0.000304	3.040821	1.030258	0.000122
 348	3.4526e+01	13.8124	46.174740	0.000243	2.432657	0.824207	0.000097
 349	3.4626e+01	13.8558	46.291817	0.000294	2.939461	0.995916	0.000118
 350	3.4725e+01	13.8975	46.485599	0.000487	4.865314	1.648413	0.000195
 351	3.4825e+01	13.9312	46.606714	0.000304	3.040821	1.030258	0.000122
 352	3.4925e+01	13.9745	46.707642	0.000253	2.534018	0.858548	0.000101
 353	3.5024e+01	14.0226	46.820682	0.000284	2.838100	0.961574	0.000114
 354	3.5123e+01	14.0499	46.949870	0.000324	3.243543	1.098942	0.000130
 355	3.5223e+01	14.0900	47.062910	0.000284	2.838100	0.961574	0.000114
 356	3.5322e+01	14.1397	47.155764	0.000233	2.331296	0.789865	0.000093
 357	3.5422e+01	14.1750	47.317249	0.000405	4.054429	1.373678	0.000162
 358	3.5522e+01	14.2071	47.426252	0.000274	2.736739	0.927232	0.000110
 359	3.5621e+01	14.2536	47.567552	0.000355	3.547625	1.201968	0.000142
 360	3.5721e+01	14.2889	47.680592	0.000284	2.838100	0.961574	0.000114
 361	3.5820e+01	14.3402	47.797669	0.000294	2.939461	0.995916	0.000118
 362	3.5919e+01	14.3723	47.947043	0.000375	3.750346	1.270652	0.000150
 363	3.6019e+01	14.4124	48.023748	0.000193	1.925854	0.652497	0.000077
 364	3.6118e+01	14.4557	48.148899	0.000314	3.142182	1.064600	0.000126
 365	3.6218e+01	14.4910	48.261939	0.000284	2.838100	0.961574	0.000114
 366	3.6318e+01	14.5327	48.387090	0.000314	3.142182	1.064600	0.000126
 367	3.6417e+01	14.5729	48.508204	0.000304	3.040821	1.030258	0.000122
 368	3.6517e+01	14.6178	48.625281	0.000294	2.939461	0.995916	0.000118
 369	3.6616e+01	14.6515	48.730247	0.000264	2.635379	0.892890	0.000105
 370	3.6715e+01	14.6900	48.843287	0.000284	2.838100	0.961574	0.000114
 371	3.6815e+01	14.7269	48.992661	0.000375	3.750346	1.270652	0.000150
 372	3.6914e+01	14.7718	49.129923	0.000345	3.446264	1.167626	0.000138
 373	3.7014e+01	14.8055	49.214703	0.000213	2.128575	0.721181	0.000085
 374	3.7114e+01	14.8472	49.368114	0.000385	3.851707	1.304994	0.000154
 375	3.7213e+01	14.8905	49.493266	0.000314	3.142182	1.064600	0.000126
 376	3.7313e+01	14.9338	49.606305	0.000284	2.838100	0.961574	0.000114
 377	3.7412e+01	14.9771	49.727419	0.000304	3.040821	1.030258	0.000122
 378	3.7511e+01	15.0188	49.864682	0.000345	3.446264	1.167626	0.000138
 379	3.7611e+01	15.0509	49.989833	0.000314	3.142182	1.064600	0.000126
 380	3.7711e+01	15.0878	50.123059	0.000334	3.344904	1.133284	0.000134
 381	3.7810e+01	15.1231	50.199764	0.000193	1.925854	0.652497	0.000077
 382	3.7910e+01	15.1728	50.345101	0.000365	3.648986	1.236310	0.000146
 383	3.8009e+01	15.2065	50.441992	0.000243	2.432657	0.824207	0.000097
 384	3.8108e+01	15.2514	50.579255	0.000345	3.446264	1.167626	0.000138
 385	3.8208e+01	15.2899	50.712481	0.000334	3.344904	1.133284	0.000134
 386	3.8307e+01	15.3268	50.837632	0.000314	3.142182	1.064600	0.000126
 387	3.8407e+01	15.3718	50.962783	0.000314	3.142182	1.064600	0.000126
 388	3.8507e+01	15.4183	51.055637	0.000233	2.331296	0.789865	0.000093
 389	3.8606e+01	15.4536	51.209048	0.000385	3.851707	1.304994	0.000154
 390	3.8706e+01	15.4857	51.314014	0.000264	2.635379	0.892890	0.000105
 391	3.8805e+01	15.5306	51.459351	0.000365	3.648986	1.236310	0.000146
 392	3.8904e+01	15.5707	51.527982	0.000172	1.723132	0.583813	0.000069
 393	3.9004e+01	15.6092	51.665245	0.000345	3.446264	1.167626	0.000138
 394	3.9103e+01	15.6525	51.818656	0.000385	3.851707	1.304994	0.000154
 395	3.9203e+01	15.6862	51.943807	0.000314	3.142182	1.064600	0.000126
 396	3.9303e+01	15.7279	52.068958	0.000314	3.142182	1.064600	0.000126
 397	3.9402e+01	15.7648	52.165849	0.000243	2.432657	0.824207	0.000097
 398	3.9502e+01	15.8033	52.242555	0.000193	1.925854	0.652497	0.000077
 399	3.9601e+01	15.8434	52.355595	0.000284	2.838100	0.961574	0.000114
 400	3.9700e+01	15.8883	52.525155	0.000426	4.257150	1.442361	0.000170
 401	3.9800e+01	15.9332	52.589749	0.000162	1.621771	0.549471	0.000065
 402	3.9900e+01	15.9653	52.759308	0.000426	4.257150	1.442361	0.000170
 403	3.9999e+01	16.0054	52.844088	0.000213	2.128575	0.721181	0.000085
 404	4.0099e+01	16.0568	52.969239	0.000314	3.142182	1.064600	0.000126
 405	4.0198e+01	16.0872	53.078242	0.000274	2.736739	0.927232	0.000110
 406	4.0297e+01	16.1290	53.215505	0.000345	3.446264	1.167626	0.000138
 407	4.0397e+01	16.1675	53.308359	0.000233	2.331296	0.789865	0.000093
 408	4.0496e+01	16.1995	53.429473	0.000304	3.040821	1.030258	0.000122
 409	4.0596e+01	16.2525	53.526364	0.000243	2.432657	0.824207	0.000097
 410	4.0696e+01	16.2846	53.659590	0.000334	3.344904	1.133284	0.000134
 411	4.0795e+01	16.3231	53.764555	0.000264	2.635379	0.892890	0.000105
 412	4.0895e+01	16.3648	53.873558	0.000274	2.736739	0.927232	0.000110
 413	4.0994e+01	16.4001	53.990635	0.000294	2.939461	0.995916	0.000118
 414	4.1093e+01	16.4466	54.115786	0.000314	3.142182	1.064600	0.000126
 415	4.1193e+01	16.4835	54.216714	0.000253	2.534018	0.858548	0.000101
 416	4.1292e+01	16.5252	54.321680	0.000264	2.635379	0.892890	0.000105
 417	4.1392e+01	16.5669	54.491240	0.000426	4.257150	1.442361	0.000170
 418	4.1492e+01	16.6118	54.580057	0.000223	2.229936	0.755523	0.000089
 419	4.1591e+01	16.6471	54.697134	0.000294	2.939461	0.995916	0.000118
 420	4.1691e+01	16.6824	54.814210	0.000294	2.939461	0.995916	0.000118
 421	4.1790e+01	16.7289	54.919176	0.000264	2.635379	0.892890	0.000105
 422	4.1889e+01	16.7562	55.024142	0.000264	2.635379	0.892890	0.000105
 423	4.1989e+01	16.8027	55.129107	0.000264	2.635379	0.892890	0.000105
 424	4.2089e+01	16.8396	55.262333	0.000334	3.344904	1.133284	0.000134
 425	4.2188e+01	16.8878	55.347112	0.000213	2.128575	0.721181	0.000085
 426	4.2288e+01	16.9279	55.460152	0.000284	2.838100	0.961574	0.000114
 427	4.2387e+01	16.9567	55.621638	0.000405	4.054429	1.373678	0.000162
 428	4.2486e+01	16.9936	55.710455	0.000223	2.229936	0.755523	0.000089
 429	4.2586e+01	17.0386	55.783123	0.000182	1.824493	0.618155	0.000073
 430	4.2685e+01	17.0819	55.896163	0.000284	2.838100	0.961574	0.000114
 431	4.2785e+01	17.1300	56.017277	0.000304	3.040821	1.030258	0.000122
 432	4.2885e+01	17.1653	56.118205	0.000253	2.534018	0.858548	0.000101
 433	4.2984e+01	17.2038	56.227208	0.000274	2.736739	0.927232	0.000110
 434	4.3084e+01	17.2407	56.348322	0.000304	3.040821	1.030258	0.000122
 435	4.3183e+01	17.2792	56.497696	0.000375	3.750346	1.270652	0.000150
 436	4.3282e+01	17.3241	56.586513	0.000223	2.229936	0.755523	0.000089
 437	4.3382e+01	17.3626	56.715701	0.000324	3.243543	1.098942	0.000130
 438	4.3481e+01	17.3963	56.828741	0.000284	2.838100	0.961574	0.000114
 439	4.3581e+01	17.4412	56.929670	0.000253	2.534018	0.858548	0.000101
 440	4.3681e+01	17.4813	57.006375	0.000193	1.925854	0.652497	0.000077
 441	4.3780e+01	17.5182	57.135564	0.000324	3.243543	1.098942	0.000130
 442	4.3880e+01	17.5647	57.220343	0.000213	2.128575	0.721181	0.000085
 443	4.3979e+01	17.6065	57.349532	0.000324	3.243543	1.098942	0.000130
 444	4.4078e+01	17.6401	57.450460	0.000253	2.534018	0.858548	0.000101
 445	4.4178e+01	17.6802	57.579648	0.000324	3.243543	1.098942	0.000130
 446	4.4278e+01	17.7268	57.696725	0.000294	2.939461	0.995916	0.000118
 447	4.4377e+01	17.7669	57.781505	0.000213	2.128575	0.721181	0.000085
 448	4.4477e+01	17.7990	57.882434	0.000253	2.534018	0.858548	0.000101
 449	4.4576e+01	17.8471	58.007585	0.000314	3.142182	1.064600	0.000126
 450	4.4675e+01	17.8695	58.116588	0.000274	2.736739	0.927232	0.000110
 451	4.4775e+01	17.9177	58.197330	0.000203	2.027214	0.686839	0.000081
 452	4.4874e+01	17.9626	58.342667	0.000365	3.648986	1.236310	0.000146
 453	4.4974e+01	18.0011	58.447633	0.000264	2.635379	0.892890	0.000105
 454	4.5074e+01	18.0380	58.524338	0.000193	1.925854	0.652497	0.000077
 455	4.5173e+01	18.0733	58.657564	0.000334	3.344904	1.133284	0.000134
 456	4.5273e+01	18.1262	58.786752	0.000324	3.243543	1.098942	0.000130
 457	4.5372e+01	18.1599	58.867495	0.000203	2.027214	0.686839	0.000081
 458	4.5471e+01	18.2048	58.992646	0.000314	3.142182	1.064600	0.000126
 459	4.5571e+01	18.2433	59.081463	0.000223	2.229936	0.755523	0.000089
 460	4.5670e+01	18.2770	59.166243	0.000213	2.128575	0.721181	0.000085
 461	4.5770e+01	18.3155	59.267171	0.000253	2.534018	0.858548	0.000101
 462	4.5870e+01	18.3572	59.412508	0.000365	3.648986	1.236310	0.000146
 463	4.5969e+01	18.3925	59.501325	0.000223	2.229936	0.755523	0.000089
 464	4.6069e+01	18.4471	59.618402	0.000294	2.939461	0.995916	0.000118
 465	4.6168e+01	18.4856	59.711256	0.000233	2.331296	0.789865	0.000093
 466	4.6267e+01	18.5161	59.836407	0.000314	3.142182	1.064600	0.000126
 467	4.6367e+01	18.5513	59.917150	0.000203	2.027214	0.686839	0.000081
 468	4.6467e+01	18.5947	60.014041	0.000243	2.432657	0.824207	0.000097
 469	4.6566e+01	18.6284	60.127081	0.000284	2.838100	0.961574	0.000114
 470	4.6666e+01	18.6797	60.252232	0.000314	3.142182	1.064600	0.000126
 471	4.6765e+01	18.7102	60.316826	0.000162	1.621771	0.549471	0.000065
 472	4.6864e+01	18.7583	60.450052	0.000334	3.344904	1.133284	0.000134
 473	4.6964e+01	18.8080	60.550980	0.000253	2.534018	0.858548	0.000101
 474	4.7063e+01	18.8369	60.680169	0.000324	3.243543	1.098942	0.000130
 475	4.7163e+01	18.8786	60.764949	0.000213	2.128575	0.721181	0.000085
 476	4.7263e+01	18.9075	60.873951	0.000274	2.736739	0.927232	0.000110
 477	4.7362e+01	18.9556	60.986991	0.000284	2.838100	0.961574	0.000114
 478	4.7462e+01	18.9957	61.075808	0.000223	2.229936	0.755523	0.000089
 479	4.7561e+01	19.0390	61.172699	0.000243	2.432657	0.824207	0.000097
 480	4.7660e+01	19.0711	61.281702	0.000274	2.736739	0.927232	0.000110
 481	4.7760e+01	19.1225	61.394742	0.000284	2.838100	0.961574	0.000114
 482	4.7859e+01	19.1513	61.487596	0.000233	2.331296	0.789865	0.000093
 483	4.7959e+01	19.1898	61.649081	0.000405	4.054429	1.373678	0.000162
 484	4.8059e+01	19.2348	61.713675	0.000162	1.621771	0.549471	0.000065
 485	4.8158e+01	19.2749	61.830752	0.000294	2.939461	0.995916	0.000118
 486	4.8258e+01	19.3166	61.907458	0.000193	1.925854	0.652497	0.000077
 487	4.8357e+01	19.3551	62.040683	0.000334	3.344904	1.133284	0.000134
 488	4.8456e+01	19.3984	62.173909	0.000334	3.344904	1.133284	0.000134
 489	4.8556e+01	19.4417	62.238503	0.000162	1.621771	0.549471	0.000065
 490	4.8656e+01	19.4658	62.335394	0.000243	2.432657	0.824207	0.000097
 491	4.8755e+01	19.5075	62.484768	0.000375	3.750346	1.270652	0.000150
 492	4.8855e+01	19.5540	62.577623	0.000233	2.331296	0.789865	0.000093
 493	4.8954e+01	19.6021	62.670477	0.000233	2.331296	0.789865	0.000093
 494	4.9053e+01	19.6342	62.779479	0.000274	2.736739	0.927232	0.000110
 495	4.9153e+01	19.6727	62.896556	0.000294	2.939461	0.995916	0.000118
 496	4.9252e+01	19.7144	63.021707	0.000314	3.142182	1.064600	0.000126
 497	4.9352e+01	19.7449	63.118599	0.000243	2.432657	0.824207	0.000097
 498	4.9452e+01	19.7914	63.227601	0.000274	2.736739	0.927232	0.000110
 499	4.9551e+01	19.8379	63.356790	0.000324	3.243543	1.098942	0.000130
 500	4.9651e+01	19.8588	63.401198	0.000111	1.114968	0.377761	0.000045
 501	4.9750e+01	19.9166	63.574795	0.000436	4.358511	1.476703	0.000174
 502	4.9849e+01	19.9567	63.671686	0.000243	2.432657	0.824207	0.000097
 503	4.9949e+01	19.9823	63.776652	0.000264	2.635379	0.892890	0.000105
 504	5.0048e+01	19.9502	63.712058	0.000162	1.621771	0.549471	-0.000065
 505	5.0148e+01	19.9214	63.619204	0.000233	2.331296	0.789865	-0.000093
 506	5.0248e+01	19.8780	63.526349	0.000233	2.331296	0.789865	-0.000093
 507	5.0347e+01	19.8347	63.461755	0.000162	1.621771	0.549471	-0.000065
 508	5.0447e+01	19.7866	63.413310	0.000122	1.216329	0.412103	-0.000049
 509	5.0546e+01	19.7545	63.296233	0.000294	2.939461	0.995916	-0.000118
 510	5.0645e+01	19.7160	63.199341	0.000243	2.432657	0.824207	-0.000097
 511	5.0745e+01	19.6647	63.150896	0.000122	1.216329	0.412103	-0.000049
 512	5.0844e+01	19.6294	63.033819	0.000294	2.939461	0.995916	-0.000118
 513	5.0944e+01	19.5925	62.969225	0.000162	1.621771	0.549471	-0.000065
 514	5.1044e+01	19.5572	62.888482	0.000203	2.027214	0.686839	-0.000081
 515	5.1143e+01	19.5107	62.783516	0.000264	2.635379	0.892890	-0.000105
 516	5.1242e+01	19.4609	62.718922	0.000162	1.621771	0.549471	-0.000065
 517	5.1342e+01	19.4241	62.634142	0.000213	2.128575	0.721181	-0.000085
 518	5.1441e+01	19.4000	62.545325	0.000223	2.229936	0.755523	-0.000089
 519	5.1541e+01	19.3470	62.484768	0.000152	1.520411	0.515129	-0.000061
 520	5.1641e+01	19.3214	62.371729	0.000284	2.838100	0.961574	-0.000114
 521	5.1740e+01	19.2749	62.286949	0.000213	2.128575	0.721181	-0.000085
 522	5.1840e+01	19.2348	62.214280	0.000182	1.824493	0.618155	-0.000073
 523	5.1939e+01	19.1914	62.141612	0.000182	1.824493	0.618155	-0.000073
 524	5.2038e+01	19.1449	62.036646	0.000264	2.635379	0.892890	-0.000105
 525	5.2138e+01	19.1144	61.939755	0.000243	2.432657	0.824207	-0.000097
 526	5.2237e+01	19.0856	61.867087	0.000182	1.824493	0.618155	-0.000073
 527	5.2337e+01	19.0519	61.798455	0.000172	1.723132	0.583813	-0.000069
 528	5.2437e+01	18.9909	61.685416	0.000284	2.838100	0.961574	-0.000114
 529	5.2536e+01	18.9588	61.592561	0.000233	2.331296	0.789865	-0.000093
 530	5.2636e+01	18.9187	61.536041	0.000142	1.419050	0.480787	-0.000057
 531	5.2735e+01	18.8738	61.455299	0.000203	2.027214	0.686839	-0.000081
 532	5.2834e+01	18.8369	61.358408	0.000243	2.432657	0.824207	-0.000097
 533	5.2934e+01	18.7968	61.225182	0.000334	3.344904	1.133284	-0.000134
 534	5.3033e+01	18.7535	61.168662	0.000142	1.419050	0.480787	-0.000057
 535	5.3133e+01	18.7214	61.063697	0.000264	2.635379	0.892890	-0.000105
 536	5.3233e+01	18.6781	60.978917	0.000213	2.128575	0.721181	-0.000085
 537	5.3332e+01	18.6332	60.898174	0.000203	2.027214	0.686839	-0.000081
 538	5.3431e+01	18.5931	60.793209	0.000264	2.635379	0.892890	-0.000105
 539	5.3531e+01	18.5610	60.712466	0.000203	2.027214	0.686839	-0.000081
 540	5.3630e+01	18.5177	60.623649	0.000223	2.229936	0.755523	-0.000089
 541	5.3730e+01	18.4711	60.534832	0.000223	2.229936	0.755523	-0.000089
 542	5.3830e+01	18.4342	60.458126	0.000193	1.925854	0.652497	-0.000077
 543	5.3929e+01	18.4006	60.345086	0.000284	2.838100	0.961574	-0.000114
 544	5.4029e+01	18.3588	60.260307	0.000213	2.128575	0.721181	-0.000085
 545	5.4128e+01	18.3203	60.179564	0.000203	2.027214	0.686839	-0.000081
 546	5.4227e+01	18.2786	60.102858	0.000193	1.925854	0.652497	-0.000077
 547	5.4327e+01	18.2385	60.005967	0.000243	2.432657	0.824207	-0.000097
 548	5.4426e+01	18.1952	59.929261	0.000193	1.925854	0.652497	-0.000077
 549	5.4526e+01	18.1583	59.824296	0.000264	2.635379	0.892890	-0.000105
 550	5.4626e+01	18.1166	59.727405	0.000243	2.432657	0.824207	-0.000097
 551	5.4725e+01	18.0925	59.618402	0.000274	2.736739	0.927232	-0.000110
 552	5.4825e+01	18.0220	59.545734	0.000182	1.824493	0.618155	-0.000073
 553	5.4924e+01	17.9883	59.440768	0.000264	2.635379	0.892890	-0.000105
 554	5.5023e+01	17.9642	59.351951	0.000223	2.229936	0.755523	-0.000089
 555	5.5123e+01	17.9177	59.299468	0.000132	1.317689	0.446445	-0.000053
 556	5.5222e+01	17.8792	59.194503	0.000264	2.635379	0.892890	-0.000105
 557	5.5322e+01	17.8391	59.097612	0.000243	2.432657	0.824207	-0.000097
 558	5.5422e+01	17.7942	59.024943	0.000182	1.824493	0.618155	-0.000073
 559	5.5521e+01	17.7637	58.944200	0.000203	2.027214	0.686839	-0.000081
 560	5.5620e+01	17.7204	58.815012	0.000324	3.243543	1.098942	-0.000130
 561	5.5720e+01	17.6754	58.734269	0.000203	2.027214	0.686839	-0.000081
 562	5.5819e+01	17.6417	58.629304	0.000264	2.635379	0.892890	-0.000105
 563	5.5919e+01	17.5968	58.576821	0.000132	1.317689	0.446445	-0.000053
 564	5.6019e+01	17.5615	58.467818	0.000274	2.736739	0.927232	-0.000110
 565	5.6118e+01	17.5214	58.403224	0.000162	1.621771	0.549471	-0.000065
 566	5.6218e+01	17.4797	58.269999	0.000334	3.344904	1.133284	-0.000134
 567	5.6317e+01	17.4476	58.165033	0.000264	2.635379	0.892890	-0.000105
 568	5.6416e+01	17.3979	58.100439	0.000162	1.621771	0.549471	-0.000065
 569	5.6516e+01	17.3626	57.963176	0.000345	3.446264	1.167626	-0.000138
 570	5.6615e+01	17.3241	57.898582	0.000162	1.621771	0.549471	-0.000065
 571	5.6715e+01	17.2760	57.797654	0.000253	2.534018	0.858548	-0.000101
 572	5.6815e+01	17.2375	57.712874	0.000213	2.128575	0.721181	-0.000085
 573	5.6914e+01	17.2022	57.575611	0.000345	3.446264	1.167626	-0.000138
 574	5.7014e+01	17.1509	57.494869	0.000203	2.027214	0.686839	-0.000081
 575	5.7113e+01	17.1268	57.389903	0.000264	2.635379	0.892890	-0.000105
 576	5.7212e+01	17.0755	57.317235	0.000182	1.824493	0.618155	-0.000073
 577	5.7312e+01	17.0386	57.200158	0.000294	2.939461	0.995916	-0.000118
 578	5.7411e+01	17.0065	57.099229	0.000253	2.534018	0.858548	-0.000101
 579	5.7511e+01	16.9680	57.038672	0.000152	1.520411	0.515129	-0.000061
 580	5.7611e+01	16.9198	56.925632	0.000284	2.838100	0.961574	-0.000114
 581	5.7710e+01	16.8781	56.812593	0.000284	2.838100	0.961574	-0.000114
 582	5.7809e+01	16.8396	56.715701	0.000243	2.432657	0.824207	-0.000097
 583	5.7909e+01	16.8092	56.630922	0.000213	2.128575	0.721181	-0.000085
 584	5.8008e+01	16.7610	56.497696	0.000334	3.344904	1.133284	-0.000134
 585	5.8108e+01	16.7193	56.392731	0.000264	2.635379	0.892890	-0.000105
 586	5.8208e+01	16.6904	56.332174	0.000152	1.520411	0.515129	-0.000061
 587	5.8307e+01	16.6407	56.207022	0.000314	3.142182	1.064600	-0.000126
 588	5.8407e+01	16.5990	56.126280	0.000203	2.027214	0.686839	-0.000081
 589	5.8506e+01	16.5605	56.009203	0.000294	2.939461	0.995916	-0.000118
 590	5.8605e+01	16.5220	55.928460	0.000203	2.027214	0.686839	-0.000081
 591	5.8705e+01	16.4803	55.831569	0.000243	2.432657	0.824207	-0.000097
 592	5.8804e+01	16.4370	55.726603	0.000264	2.635379	0.892890	-0.000105
 593	5.8904e+01	16.3985	55.625675	0.000253	2.534018	0.858548	-0.000101
 594	5.9004e+01	16.3600	55.512635	0.000284	2.838100	0.961574	-0.000114
 595	5.9103e+01	16.3295	55.371335	0.000355	3.547625	1.201968	-0.000142
 596	5.9203e+01	16.2846	55.286555	0.000213	2.128575	0.721181	-0.000085
 597	5.9302e+01	16.2445	55.189664	0.000243	2.432657	0.824207	-0.000097
 598	5.9401e+01	16.2060	55.060476	0.000324	3.243543	1.098942	-0.000130
 599	5.9501e+01	16.1707	55.012030	0.000122	1.216329	0.412103	-0.000049
 600	5.9600e+01	16.1209	54.907065	0.000264	2.635379	0.892890	-0.000105
 601	5.9700e+01	16.0969	54.781913	0.000314	3.142182	1.064600	-0.000126
 602	5.9800e+01	16.0343	54.705208	0.000193	1.925854	0.652497	-0.000077
 603	5.9899e+01	16.0054	54.580057	0.000314	3.142182	1.064600	-0.000126
 604	5.9998e+01	15.9605	54.515462	0.000162	1.621771	0.549471	-0.000065
 605	6.0098e+01	15.9316	54.374163	0.000355	3.547625	1.201968	-0.000142
 606	6.0197e+01	15.8851	54.269197	0.000264	2.635379	0.892890	-0.000105
 607	6.0297e+01	15.8498	54.220752	0.000122	1.216329	0.412103	-0.000049
 608	6.0397e+01	15.8017	54.075415	0.000365	3.648986	1.236310	-0.000146
 609	6.0496e+01	15.7776	54.031006	0.000111	1.114968	0.377761	-0.000045
 610	6.0596e+01	15.7375	53.865484	0.000416	4.155789	1.408020	-0.000166
 611	6.0695e+01	15.6894	53.796852	0.000172	1.723132	0.583813	-0.000069
 612	6.0794e+01	15.6413	53.667664	0.000324	3.243543	1.098942	-0.000130
 613	6.0894e+01	15.6092	53.570773	0.000243	2.432657	0.824207	-0.000097
 614	6.0993e+01	15.5627	53.490030	0.000203	2.027214	0.686839	-0.000081
 615	6.1093e+01	15.5338	53.340656	0.000375	3.750346	1.270652	-0.000150
 616	6.1193e+01	15.4905	53.251839	0.000223	2.229936	0.755523	-0.000089
 617	6.1292e+01	15.4488	53.142836	0.000274	2.736739	0.927232	-0.000110
 618	6.1392e+01	15.4135	53.017685	0.000314	3.142182	1.064600	-0.000126
 619	6.1491e+01	15.3734	52.928868	0.000223	2.229936	0.755523	-0.000089
 620	6.1590e+01	15.3333	52.836014	0.000233	2.331296	0.789865	-0.000093
 621	6.1690e+01	15.2899	52.686640	0.000375	3.750346	1.270652	-0.000150
 622	6.1789e+01	15.2627	52.609934	0.000193	1.925854	0.652497	-0.000077
 623	6.1889e+01	15.2065	52.488820	0.000304	3.040821	1.030258	-0.000122
 624	6.1989e+01	15.1632	52.359632	0.000324	3.243543	1.098942	-0.000130
 625	6.2088e+01	15.1327	52.278889	0.000203	2.027214	0.686839	-0.000081
 626	6.2188e+01	15.0926	52.210258	0.000172	1.723132	0.583813	-0.000069
 627	6.2287e+01	15.0525	52.085107	0.000314	3.142182	1.064600	-0.000126
 628	6.2386e+01	15.0108	51.939770	0.000365	3.648986	1.236310	-0.000146
 629	6.2486e+01	14.9643	51.842879	0.000243	2.432657	0.824207	-0.000097
 630	6.2586e+01	14.9306	51.766173	0.000193	1.925854	0.652497	-0.000077
 631	6.2685e+01	14.8921	51.620836	0.000365	3.648986	1.236310	-0.000146
 632	6.2785e+01	14.8552	51.511833	0.000274	2.736739	0.927232	-0.000110
 633	6.2884e+01	14.8023	51.427054	0.000213	2.128575	0.721181	-0.000085
 634	6.2983e+01	14.7670	51.314014	0.000284	2.838100	0.961574	-0.000114
 635	6.3083e+01	14.7269	51.229234	0.000213	2.128575	0.721181	-0.000085
 636	6.3182e+01	14.6819	51.104083	0.000314	3.142182	1.064600	-0.000126
 637	6.3282e+01	14.6547	50.991043	0.000284	2.838100	0.961574	-0.000114
 638	6.3382e+01	14.6226	50.861855	0.000324	3.243543	1.098942	-0.000130
 639	6.3481e+01	14.5600	50.724592	0.000345	3.446264	1.167626	-0.000138
 640	6.3581e+01	14.5343	50.668072	0.000142	1.419050	0.480787	-0.000057
 641	6.3680e+01	14.4958	50.542921	0.000314	3.142182	1.064600	-0.000126
 642	6.3779e+01	14.4573	50.429881	0.000284	2.838100	0.961574	-0.000114
 643	6.3879e+01	14.4108	50.316841	0.000284	2.838100	0.961574	-0.000114
 644	6.3978e+01	14.3643	50.203801	0.000284	2.838100	0.961574	-0.000114
 645	6.4078e+01	14.3322	50.082687	0.000304	3.040821	1.030258	-0.000122
 646	6.4177e+01	14.2953	49.985796	0.000243	2.432657	0.824207	-0.000097
 647	6.4277e+01	14.2472	49.884868	0.000253	2.534018	0.858548	-0.000101
 648	6.4376e+01	14.2167	49.763754	0.000304	3.040821	1.030258	-0.000122
 649	6.4476e+01	14.1702	49.642640	0.000304	3.040821	1.030258	-0.000122
 650	6.4576e+01	14.1317	49.533637	0.000274	2.736739	0.927232	-0.000110
 651	6.4675e+01	14.0900	49.481154	0.000132	1.317689	0.446445	-0.000053
 652	6.4775e+01	14.0547	49.372152	0.000274	2.736739	0.927232	-0.000110
 653	6.4874e+01	14.0194	49.247000	0.000314	3.142182	1.064600	-0.000126
 654	6.4974e+01	13.9729	49.129923	0.000294	2.939461	0.995916	-0.000118
 655	6.5073e+01	13.9312	49.069366	0.000152	1.520411	0.515129	-0.000061
 656	6.5172e+01	13.8878	48.948252	0.000304	3.040821	1.030258	-0.000122
 657	6.5272e+01	13.8542	48.815027	0.000334	3.344904	1.133284	-0.000134
 658	6.5371e+01	13.8221	48.742358	0.000182	1.824493	0.618155	-0.000073
 659	6.5471e+01	13.7788	48.576836	0.000416	4.155789	1.408020	-0.000166
 660	6.5570e+01	13.7370	48.492056	0.000213	2.128575	0.721181	-0.000085
 661	6.5670e+01	13.6905	48.407276	0.000213	2.128575	0.721181	-0.000085
 662	6.5769e+01	13.6584	48.257902	0.000375	3.750346	1.270652	-0.000150
 663	6.5869e+01	13.6103	48.173122	0.000213	2.128575	0.721181	-0.000085
 664	6.5969e+01	13.5766	48.052008	0.000304	3.040821	1.030258	-0.000122
 665	6.6068e+01	13.5349	47.947043	0.000264	2.635379	0.892890	-0.000105
 666	6.6168e+01	13.4980	47.821891	0.000314	3.142182	1.064600	-0.000126
 667	6.6267e+01	13.4611	47.761334	0.000152	1.520411	0.515129	-0.000061
 668	6.6367e+01	13.4210	47.628109	0.000334	3.344904	1.133284	-0.000134
 669	6.6466e+01	13.3793	47.511032	0.000294	2.939461	0.995916	-0.000118
 670	6.6566e+01	13.3312	47.438363	0.000182	1.824493	0.618155	-0.000073
 671	6.6665e+01	13.2895	47.268804	0.000426	4.257150	1.442361	-0.000170
 672	6.6764e+01	13.2638	47.220358	0.000122	1.216329	0.412103	-0.000049
 673	6.6864e+01	13.2205	47.054836	0.000416	4.155789	1.408020	-0.000166
 674	6.6963e+01	13.1804	46.957944	0.000243	2.432657	0.824207	-0.000097
 675	6.7063e+01	13.1419	46.869127	0.000223	2.229936	0.755523	-0.000089
 676	6.7162e+01	13.0937	46.792422	0.000193	1.925854	0.652497	-0.000077
 677	6.7262e+01	13.0552	46.651122	0.000355	3.547625	1.201968	-0.000142
 678	6.7362e+01	13.0167	46.509822	0.000355	3.547625	1.201968	-0.000142
 679	6.7461e+01	12.9734	46.425042	0.000213	2.128575	0.721181	-0.000085
 680	6.7561e+01	12.9349	46.340263	0.000213	2.128575	0.721181	-0.000085
 681	6.7660e+01	12.9044	46.231260	0.000274	2.736739	0.927232	-0.000110
 682	6.7760e+01	12.8676	46.114183	0.000294	2.939461	0.995916	-0.000118
 683	6.7859e+01	12.8162	45.997106	0.000294	2.939461	0.995916	-0.000118
 684	6.7959e+01	12.7761	45.875992	0.000304	3.040821	1.030258	-0.000122
 685	6.8058e+01	12.7424	45.771026	0.000264	2.635379	0.892890	-0.000105
 686	6.8157e+01	12.7007	45.686247	0.000213	2.128575	0.721181	-0.000085
 687	6.8257e+01	12.6574	45.561095	0.000314	3.142182	1.064600	-0.000126
 688	6.8356e+01	12.6221	45.468241	0.000233	2.331296	0.789865	-0.000093
 689	6.8456e+01	12.5852	45.387499	0.000203	2.027214	0.686839	-0.000081
 690	6.8555e+01	12.5451	45.226013	0.000405	4.054429	1.373678	-0.000162
 691	6.8655e+01	12.5050	45.117010	0.000274	2.736739	0.927232	-0.000110
 692	6.8754e+01	12.4633	44.987822	0.000324	3.243543	1.098942	-0.000130
 693	6.8854e+01	12.4200	44.915154	0.000182	1.824493	0.618155	-0.000073
 694	6.8954e+01	12.3799	44.818262	0.000243	2.432657	0.824207	-0.000097
 695	6.9053e+01	12.3382	44.681000	0.000345	3.446264	1.167626	-0.000138
 696	6.9153e+01	12.3109	44.592183	0.000223	2.229936	0.755523	-0.000089
 697	6.9252e+01	12.2563	44.458957	0.000334	3.344904	1.133284	-0.000134
 698	6.9352e+01	12.2146	44.321695	0.000345	3.446264	1.167626	-0.000138
 699	6.9451e+01	12.1745	44.240952	0.000203	2.027214	0.686839	-0.000081
 700	6.9550e+01	12.1505	44.156172	0.000213	2.128575	0.721181	-0.000085
 701	6.9650e+01	12.0991	44.014872	0.000355	3.547625	1.201968	-0.000142
 702	6.9749e+01	12.0622	43.905870	0.000274	2.736739	0.927232	-0.000110
 703	6.9849e+01	12.0317	43.800904	0.000264	2.635379	0.892890	-0.000105
 704	6.9948e+01	11.9852	43.695939	0.000264	2.635379	0.892890	-0.000105
 705	7.0048e+01	11.9387	43.546565	0.000375	3.750346	1.270652	-0.000150
 706	7.0147e+01	11.9098	43.461785	0.000213	2.128575	0.721181	-0.000085
 707	7.0247e+01	11.8601	43.352782	0.000274	2.736739	0.927232	-0.000110
 708	7.0347e+01	11.8248	43.211482	0.000355	3.547625	1.201968	-0.000142
 709	7.0446e+01	11.7895	43.134777	0.000193	1.925854	0.652497	-0.000077
 710	7.0546e+01	11.7430	43.005588	0.000324	3.243543	1.098942	-0.000130
 711	7.0645e+01	11.7061	42.916771	0.000223	2.229936	0.755523	-0.000089
 712	7.0745e+01	11.6724	42.815843	0.000253	2.534018	0.858548	-0.000101
 713	7.0844e+01	11.6211	42.718952	0.000243	2.432657	0.824207	-0.000097
 714	7.0944e+01	11.5810	42.577652	0.000355	3.547625	1.201968	-0.000142
 715	7.1043e+01	11.5409	42.476724	0.000253	2.534018	0.858548	-0.000101
 716	7.1142e+01	11.5007	42.387907	0.000223	2.229936	0.755523	-0.000089
 717	7.1242e+01	11.4606	42.254681	0.000334	3.344904	1.133284	-0.000134
 718	7.1341e+01	11.4253	42.117419	0.000345	3.446264	1.167626	-0.000138
 719	7.1441e+01	11.3965	42.040713	0.000193	1.925854	0.652497	-0.000077
 720	7.1540e+01	11.3387	41.883265	0.000395	3.953068	1.339336	-0.000158
 721	7.1640e+01	11.3130	41.822708	0.000152	1.520411	0.515129	-0.000061
 722	7.1740e+01	11.2681	41.677371	0.000365	3.648986	1.236310	-0.000146
 723	7.1839e+01	11.2264	41.608739	0.000172	1.723132	0.583813	-0.000069
 724	7.1939e+01	11.1799	41.439180	0.000426	4.257150	1.442361	-0.000170
 725	7.2038e+01	11.1478	41.358437	0.000203	2.027214	0.686839	-0.000081
 726	7.2138e+01	11.1093	41.293843	0.000162	1.621771	0.549471	-0.000065
 727	7.2237e+01	11.0756	41.172729	0.000304	3.040821	1.030258	-0.000122
 728	7.2337e+01	11.0307	41.071800	0.000253	2.534018	0.858548	-0.000101
 729	7.2436e+01	10.9730	40.934538	0.000345	3.446264	1.167626	-0.000138
 730	7.2535e+01	10.9361	40.817461	0.000294	2.939461	0.995916	-0.000118
 731	7.2635e+01	10.9008	40.688273	0.000324	3.243543	1.098942	-0.000130
 732	7.2734e+01	10.8655	40.575233	0.000284	2.838100	0.961574	-0.000114
 733	7.2834e+01	10.8286	40.470267	0.000264	2.635379	0.892890	-0.000105
 734	7.2933e+01	10.7933	40.357227	0.000284	2.838100	0.961574	-0.000114
 735	7.3033e+01	10.7435	40.248225	0.000274	2.736739	0.927232	-0.000110
 736	7.3132e+01	10.7066	40.110962	0.000345	3.446264	1.167626	-0.000138
 737	7.3232e+01	10.6585	40.005997	0.000264	2.635379	0.892890	-0.000105
 738	7.3332e+01	10.6248	39.925254	0.000203	2.027214	0.686839	-0.000081
 739	7.3431e+01	10.5944	39.751657	0.000436	4.358511	1.476703	-0.000174
 740	7.3531e+01	10.5510	39.634580	0.000294	2.939461	0.995916	-0.000118
 741	7.3630e+01	10.5206	39.533652	0.000253	2.534018	0.858548	-0.000101
 742	7.3730e+01	10.4692	39.416575	0.000294	2.939461	0.995916	-0.000118
 743	7.3829e+01	10.4291	39.299498	0.000294	2.939461	0.995916	-0.000118
 744	7.3928e+01	10.3890	39.194532	0.000264	2.635379	0.892890	-0.000105
 745	7.4028e+01	10.3409	39.061307	0.000334	3.344904	1.133284	-0.000134
 746	7.4127e+01	10.3072	38.964416	0.000243	2.432657	0.824207	-0.000097
 747	7.4227e+01	10.2767	38.823116	0.000355	3.547625	1.201968	-0.000142
 748	7.4326e+01	10.2302	38.718150	0.000264	2.635379	0.892890	-0.000105
 749	7.4426e+01	10.1997	38.568776	0.000375	3.750346	1.270652	-0.000150
 750	7.4525e+01	10.1516	38.479959	0.000223	2.229936	0.755523	-0.000089
 751	7.4625e+01	10.1099	38.326548	0.000385	3.851707	1.304994	-0.000154
 752	7.4725e+01	10.0698	38.217545	0.000274	2.736739	0.927232	-0.000110
 753	7.4824e+01	10.0361	38.096431	0.000304	3.040821	1.030258	-0.000122
 754	7.4924e+01	9.9928	37.975317	0.000304	3.040821	1.030258	-0.000122
 755	7.5023e+01	9.9478	37.858240	0.000294	2.939461	0.995916	-0.000118
 756	7.5123e+01	9.9126	37.725015	0.000334	3.344904	1.133284	-0.000134
 757	7.5222e+01	9.8724	37.628124	0.000243	2.432657	0.824207	-0.000097
 758	7.5322e+01	9.8372	37.494898	0.000334	3.344904	1.133284	-0.000134
 759	7.5421e+01	9.7970	37.361673	0.000334	3.344904	1.133284	-0.000134
 760	7.5520e+01	9.7457	37.268819	0.000233	2.331296	0.789865	-0.000093
 761	7.5620e+01	9.7120	37.099259	0.000426	4.257150	1.442361	-0.000170
 762	7.5719e+01	9.6687	36.990256	0.000274	2.736739	0.927232	-0.000110
 763	7.5819e+01	9.6366	36.893365	0.000243	2.432657	0.824207	-0.000097
 764	7.5918e+01	9.5917	36.739954	0.000385	3.851707	1.304994	-0.000154
 765	7.6018e+01	9.5548	36.651137	0.000223	2.229936	0.755523	-0.000089
 766	7.6118e+01	9.5083	36.493689	0.000395	3.953068	1.339336	-0.000158
 767	7.6217e+01	9.4682	36.380649	0.000284	2.838100	0.961574	-0.000114
 768	7.6317e+01	9.4393	36.267609	0.000284	2.838100	0.961574	-0.000114
 769	7.6416e+01	9.3992	36.142458	0.000314	3.142182	1.064600	-0.000126
 770	7.6516e+01	9.3495	36.017306	0.000314	3.142182	1.064600	-0.000126
 771	7.6615e+01	9.3158	35.884081	0.000334	3.344904	1.133284	-0.000134
 772	7.6715e+01	9.2805	35.783153	0.000253	2.534018	0.858548	-0.000101
 773	7.6814e+01	9.2388	35.662039	0.000304	3.040821	1.030258	-0.000122
 774	7.6913e+01	9.1890	35.532850	0.000324	3.243543	1.098942	-0.000130
 775	7.7013e+01	9.1505	35.379439	0.000385	3.851707	1.304994	-0.000154
 776	7.7112e+01	9.1217	35.274474	0.000264	2.635379	0.892890	-0.000105
 777	7.7212e+01	9.0735	35.157397	0.000294	2.939461	0.995916	-0.000118
 778	7.7311e+01	9.0366	35.028208	0.000324	3.243543	1.098942	-0.000130
 779	7.7411e+01	8.9901	34.894983	0.000334	3.344904	1.133284	-0.000134
 780	7.7510e+01	8.9500	34.777906	0.000294	2.939461	0.995916	-0.000118
 781	7.7610e+01	8.9147	34.608346	0.000426	4.257150	1.442361	-0.000170
 782	7.7710e+01	8.8810	34.543752	0.000162	1.621771	0.549471	-0.000065
 783	7.7809e+01	8.8281	34.394378	0.000375	3.750346	1.270652	-0.000150
 784	7.7909e+01	8.7912	34.249041	0.000365	3.648986	1.236310	-0.000146
 785	7.8008e+01	8.7671	34.140038	0.000274	2.736739	0.927232	-0.000110
 786	7.8108e+01	8.7174	33.982590	0.000395	3.953068	1.339336	-0.000158
 787	7.8207e+01	8.6725	33.869550	0.000284	2.838100	0.961574	-0.000114
 788	7.8306e+01	8.6356	33.748436	0.000304	3.040821	1.030258	-0.000122
 789	7.8406e+01	8.5923	33.623285	0.000314	3.142182	1.064600	-0.000126
 790	7.8505e+01	8.5538	33.469874	0.000385	3.851707	1.304994	-0.000154
 791	7.8605e+01	8.5137	33.377020	0.000233	2.331296	0.789865	-0.000093
 792	7.8704e+01	8.4800	33.247831	0.000324	3.243543	1.098942	-0.000130
 793	7.8804e+01	8.4415	33.146903	0.000253	2.534018	0.858548	-0.000101
 794	7.8903e+01	8.4030	32.989455	0.000395	3.953068	1.339336	-0.000158
 795	7.9003e+01	8.3500	32.844118	0.000365	3.648986	1.236310	-0.000146
 796	7.9103e+01	8.3179	32.735115	0.000274	2.736739	0.927232	-0.000110
 797	7.9202e+01	8.2762	32.593815	0.000355	3.547625	1.201968	-0.000142
 798	7.9302e+01	8.2297	32.456553	0.000345	3.446264	1.167626	-0.000138
 799	7.9401e+01	8.1944	32.323327	0.000334	3.344904	1.133284	-0.000134
 800	7.9501e+01	8.1591	32.194139	0.000324	3.243543	1.098942	-0.000130
 801	7.9600e+01	8.1142	32.032654	0.000405	4.054429	1.373678	-0.000162
 802	7.9700e+01	8.0837	31.903465	0.000324	3.243543	1.098942	-0.000130
 803	7.9799e+01	8.0356	31.810611	0.000233	2.331296	0.789865	-0.000093
 804	7.9898e+01	7.9987	31.649126	0.000405	4.054429	1.373678	-0.000162
 805	7.9998e+01	7.9554	31.523974	0.000314	3.142182	1.064600	-0.000126
 806	8.0097e+01	7.9137	31.366526	0.000395	3.953068	1.339336	-0.000158
 807	8.0197e+01	7.8848	31.265598	0.000253	2.534018	0.858548	-0.000101
 808	8.0296e+01	7.8351	31.128335	0.000345	3.446264	1.167626	-0.000138
 809	8.0396e+01	7.7966	30.974924	0.000385	3.851707	1.304994	-0.000154
 810	8.0496e+01	7.7677	30.845736	0.000324	3.243543	1.098942	-0.000130
 811	8.0595e+01	7.7148	30.740770	0.000264	2.635379	0.892890	-0.000105
 812	8.0695e+01	7.6795	30.611582	0.000324	3.243543	1.098942	-0.000130
 813	8.0794e+01	7.6378	30.474319	0.000345	3.446264	1.167626	-0.000138
 814	8.0894e+01	7.5993	30.328982	0.000365	3.648986	1.236310	-0.000146
 815	8.0993e+01	7.5624	30.228054	0.000253	2.534018	0.858548	-0.000101
 816	8.1093e+01	7.5190	30.062531	0.000416	4.155789	1.408020	-0.000166
 817	8.1192e+01	7.4854	29.913157	0.000375	3.750346	1.270652	-0.000150
 818	8.1291e+01	7.4292	29.804155	0.000274	2.736739	0.927232	-0.000110
 819	8.1391e+01	7.4019	29.683041	0.000304	3.040821	1.030258	-0.000122
 820	8.1490e+01	7.3618	29.533666	0.000375	3.750346	1.270652	-0.000150
 821	8.1590e+01	7.3217	29.384292	0.000375	3.750346	1.270652	-0.000150
 822	8.1689e+01	7.2736	29.291438	0.000233	2.331296	0.789865	-0.000093
 823	8.1789e+01	7.2399	29.166287	0.000314	3.142182	1.064600	-0.000126
 824	8.1888e+01	7.1982	29.029025	0.000345	3.446264	1.167626	-0.000138
 825	8.1988e+01	7.1597	28.895799	0.000334	3.344904	1.133284	-0.000134
 826	8.2088e+01	7.1228	28.766611	0.000324	3.243543	1.098942	-0.000130
 827	8.2187e+01	7.0763	28.625311	0.000355	3.547625	1.201968	-0.000142
 828	8.2287e+01	7.0490	28.504197	0.000304	3.040821	1.030258	-0.000122
 829	8.2386e+01	7.0073	28.370971	0.000334	3.344904	1.133284	-0.000134
 830	8.2486e+01	6.9608	28.245820	0.000314	3.142182	1.064600	-0.000126
 831	8.2585e+01	6.9175	28.104520	0.000355	3.547625	1.201968	-0.000142
 832	8.2684e+01	6.8822	27.987444	0.000294	2.939461	0.995916	-0.000118
 833	8.2784e+01	6.8372	27.838069	0.000375	3.750346	1.270652	-0.000150
 834	8.2883e+01	6.8100	27.688695	0.000375	3.750346	1.270652	-0.000150
 835	8.2983e+01	6.7618	27.539321	0.000375	3.750346	1.270652	-0.000150
 836	8.3082e+01	6.7233	27.430319	0.000274	2.736739	0.927232	-0.000110
 837	8.3182e+01	6.6768	27.313242	0.000294	2.939461	0.995916	-0.000118
 838	8.3281e+01	6.6431	27.180016	0.000334	3.344904	1.133284	-0.000134
 839	8.3381e+01	6.5886	27.050828	0.000324	3.243543	1.098942	-0.000130
 840	8.3481e+01	6.5709	26.929714	0.000304	3.040821	1.030258	-0.000122
 841	8.3580e+01	6.5212	26.764191	0.000416	4.155789	1.408020	-0.000166
 842	8.3680e+01	6.4843	26.635003	0.000324	3.243543	1.098942	-0.000130
 843	8.3779e+01	6.4506	26.517926	0.000294	2.939461	0.995916	-0.000118
 844	8.3879e+01	6.4153	26.376626	0.000355	3.547625	1.201968	-0.000142
 845	8.3978e+01	6.3544	26.247438	0.000324	3.243543	1.098942	-0.000130
 846	8.4078e+01	6.3223	26.081915	0.000416	4.155789	1.408020	-0.000166
 847	8.4177e+01	6.2870	25.985024	0.000243	2.432657	0.824207	-0.000097
 848	8.4276e+01	6.2453	25.855836	0.000324	3.243543	1.098942	-0.000130
 849	8.4376e+01	6.2068	25.742796	0.000284	2.838100	0.961574	-0.000114
 850	8.4475e+01	6.1667	25.565162	0.000446	4.459871	1.511045	-0.000179
 851	8.4575e+01	6.1266	25.460197	0.000264	2.635379	0.892890	-0.000105
 852	8.4674e+01	6.0865	25.294674	0.000416	4.155789	1.408020	-0.000166
 853	8.4774e+01	6.0512	25.169523	0.000314	3.142182	1.064600	-0.000126
 854	8.4874e+01	6.0062	25.052446	0.000294	2.939461	0.995916	-0.000118
 855	8.4973e+01	5.9758	24.907109	0.000365	3.648986	1.236310	-0.000146
 856	8.5073e+01	5.9373	24.753698	0.000385	3.851707	1.304994	-0.000154
 857	8.5172e+01	5.8907	24.664881	0.000223	2.229936	0.755523	-0.000089
 858	8.5272e+01	5.8426	24.499358	0.000416	4.155789	1.408020	-0.000166
 859	8.5371e+01	5.8025	24.374207	0.000314	3.142182	1.064600	-0.000126
 860	8.5471e+01	5.7640	24.257130	0.000294	2.939461	0.995916	-0.000118
 861	8.5570e+01	5.7255	24.095645	0.000405	4.054429	1.373678	-0.000162
 862	8.5669e+01	5.6886	23.982605	0.000284	2.838100	0.961574	-0.000114
 863	8.5769e+01	5.6501	23.861491	0.000304	3.040821	1.030258	-0.000122
 864	8.5868e+01	5.5988	23.704042	0.000395	3.953068	1.339336	-0.000158
 865	8.5968e+01	5.5763	23.562743	0.000355	3.547625	1.201968	-0.000142
 866	8.6067e+01	5.5346	23.421443	0.000355	3.547625	1.201968	-0.000142
 867	8.6167e+01	5.4945	23.300329	0.000304	3.040821	1.030258	-0.000122
 868	8.6266e+01	5.4432	23.142881	0.000395	3.953068	1.339336	-0.000158
 869	8.6366e+01	5.4047	22.989469	0.000385	3.851707	1.304994	-0.000154
 870	8.6466e+01	5.3646	22.844133	0.000365	3.648986	1.236310	-0.000146
 871	8.6565e+01	5.3357	22.747241	0.000243	2.432657	0.824207	-0.000097
 872	8.6665e+01	5.2988	22.605942	0.000355	3.547625	1.201968	-0.000142
 873	8.6764e+01	5.2523	22.468679	0.000345	3.446264	1.167626	-0.000138
 874	8.6864e+01	5.2105	22.315268	0.000385	3.851707	1.304994	-0.000154
 875	8.6963e+01	5.1656	22.169931	0.000365	3.648986	1.236310	-0.000146
 876	8.7063e+01	5.1303	22.052854	0.000294	2.939461	0.995916	-0.000118
 877	8.7162e+01	5.0902	21.899443	0.000385	3.851707	1.304994	-0.000154
 878	8.7261e+01	5.0389	21.774292	0.000314	3.142182	1.064600	-0.000126
 879	8.7361e+01	5.0116	21.632992	0.000355	3.547625	1.201968	-0.000142
 880	8.7460e+01	4.9699	21.495729	0.000345	3.446264	1.167626	-0.000138
 881	8.7560e+01	4.9298	21.338281	0.000395	3.953068	1.339336	-0.000158
 882	8.7659e+01	4.8897	21.221204	0.000294	2.939461	0.995916	-0.000118
 883	8.7759e+01	4.8368	21.112201	0.000274	2.736739	0.927232	-0.000110
 884	8.7859e+01	4.8111	20.978976	0.000334	3.344904	1.133284	-0.000134
 885	8.7958e+01	4.7710	20.801342	0.000446	4.459871	1.511045	-0.000179
 886	8.8058e+01	4.7245	20.660042	0.000355	3.547625	1.201968	-0.000142
 887	8.8157e+01	4.6876	20.530854	0.000324	3.243543	1.098942	-0.000130
 888	8.8257e+01	4.6507	20.401665	0.000324	3.243543	1.098942	-0.000130
 889	8.8356e+01	4.6025	20.304774	0.000243	2.432657	0.824207	-0.000097
 890	8.8456e+01	4.5785	20.131177	0.000436	4.358511	1.476703	-0.000174
 891	8.8555e+01	4.5304	19.977766	0.000385	3.851707	1.304994	-0.000154
 892	8.8654e+01	4.4902	19.840504	0.000345	3.446264	1.167626	-0.000138
 893	8.8754e+01	4.4534	19.763798	0.000193	1.925854	0.652497	-0.000077
 894	8.8853e+01	4.4100	19.586164	0.000446	4.459871	1.511045	-0.000179
 895	8.8953e+01	4.3763	19.440827	0.000365	3.648986	1.236310	-0.000146
 896	8.9052e+01	4.3378	19.307602	0.000334	3.344904	1.133284	-0.000134
 897	8.9152e+01	4.2945	19.174376	0.000334	3.344904	1.133284	-0.000134
 898	8.9251e+01	4.2464	19.025002	0.000375	3.750346	1.270652	-0.000150
 899	8.9351e+01	4.2079	18.891777	0.000334	3.344904	1.133284	-0.000134
 900	8.9451e+01	4.1678	18.742403	0.000375	3.750346	1.270652	-0.000150
 901	8.9550e+01	4.1389	18.584954	0.000395	3.953068	1.339336	-0.000158
 902	8.9650e+01	4.0908	18.439617	0.000365	3.648986	1.236310	-0.000146
 903	8.9749e+01	4.0587	18.294281	0.000365	3.648986	1.236310	-0.000146
 904	8.9849e+01	4.0106	18.185278	0.000274	2.736739	0.927232	-0.000110
 905	8.9948e+01	3.9769	18.035904	0.000375	3.750346	1.270652	-0.000150
 906	9.0047e+01	3.9272	17.894604	0.000355	3.547625	1.201968	-0.000142
 907	9.0147e+01	3.8967	17.725044	0.000426	4.257150	1.442361	-0.000170
 908	9.0246e+01	3.8502	17.595856	0.000324	3.243543	1.098942	-0.000130
 909	9.0346e+01	3.8068	17.450519	0.000365	3.648986	1.236310	-0.000146
 910	9.0445e+01	3.7796	17.280960	0.000426	4.257150	1.442361	-0.000170
 911	9.0545e+01	3.7379	17.163883	0.000294	2.939461	0.995916	-0.000118
 912	9.0644e+01	3.6897	16.998360	0.000416	4.155789	1.408020	-0.000166
 913	9.0744e+01	3.6512	16.861097	0.000345	3.446264	1.167626	-0.000138
 914	9.0844e+01	3.5999	16.703649	0.000395	3.953068	1.339336	-0.000158
 915	9.0943e+01	3.5726	16.554275	0.000375	3.750346	1.270652	-0.000150
 916	9.1043e+01	3.5405	16.449310	0.000264	2.635379	0.892890	-0.000105
 917	9.1142e+01	3.4956	16.275713	0.000436	4.358511	1.476703	-0.000174
 918	9.1242e+01	3.4539	16.114227	0.000405	4.054429	1.373678	-0.000162
 919	9.1341e+01	3.4218	15.981002	0.000334	3.344904	1.133284	-0.000134
 920	9.1441e+01	3.3753	15.807405	0.000436	4.358511	1.476703	-0.000174
 921	9.1540e+01	3.3224	15.690328	0.000294	2.939461	0.995916	-0.000118
 922	9.1639e+01	3.2919	15.532880	0.000395	3.953068	1.339336	-0.000158
 923	9.1739e+01	3.2630	15.403691	0.000324	3.243543	1.098942	-0.000130
 924	9.1838e+01	3.2213	15.238169	0.000416	4.155789	1.408020	-0.000166
 925	9.1938e+01	3.1812	15.080721	0.000395	3.953068	1.339336	-0.000158
 926	9.2037e+01	3.1443	14.939421	0.000355	3.547625	1.201968	-0.000142
 927	9.2137e+01	3.0978	14.826381	0.000284	2.838100	0.961574	-0.000114
 928	9.2237e+01	3.0529	14.616450	0.000527	5.270757	1.785781	-0.000211
 929	9.2336e+01	3.0192	14.459002	0.000395	3.953068	1.339336	-0.000158
 930	9.2436e+01	2.9742	14.317702	0.000355	3.547625	1.201968	-0.000142
 931	9.2535e+01	2.9341	14.148142	0.000426	4.257150	1.442361	-0.000170
 932	9.2635e+01	2.8956	14.022991	0.000314	3.142182	1.064600	-0.000126
 933	9.2734e+01	2.8636	13.861506	0.000405	4.054429	1.373678	-0.000162
 934	9.2834e+01	2.8202	13.712132	0.000375	3.750346	1.270652	-0.000150
 935	9.2933e+01	2.7737	13.595055	0.000294	2.939461	0.995916	-0.000118
 936	9.3032e+01	2.7416	13.409346	0.000466	4.662593	1.579729	-0.000187
 937	9.3132e+01	2.7031	13.251898	0.000395	3.953068	1.339336	-0.000158
 938	9.3231e+01	2.6582	13.090413	0.000405	4.054429	1.373678	-0.000162
 939	9.3331e+01	2.6165	12.997559	0.000233	2.331296	0.789865	-0.000093
 940	9.3430e+01	2.5812	12.807813	0.000476	4.763954	1.614071	-0.000191
 941	9.3530e+01	2.5379	12.654402	0.000385	3.851707	1.304994	-0.000154
 942	9.3629e+01	2.4962	12.509065	0.000365	3.648986	1.236310	-0.000146
 943	9.3729e+01	2.4561	12.367765	0.000355	3.547625	1.201968	-0.000142
 944	9.3829e+01	2.4240	12.186094	0.000456	4.561232	1.545387	-0.000183
 945	9.3928e+01	2.3711	12.036720	0.000375	3.750346	1.270652	-0.000150
 946	9.4028e+01	2.3422	11.863123	0.000436	4.358511	1.476703	-0.000174
 947	9.4127e+01	2.2957	11.725861	0.000345	3.446264	1.167626	-0.000138
 948	9.4227e+01	2.2620	11.580524	0.000365	3.648986	1.236310	-0.000146
 949	9.4326e+01	2.2187	11.415001	0.000416	4.155789	1.408020	-0.000166
 950	9.4425e+01	2.1753	11.241404	0.000436	4.358511	1.476703	-0.000174
 951	9.4525e+01	2.1433	11.124328	0.000294	2.939461	0.995916	-0.000118
 952	9.4624e+01	2.0983	10.950731	0.000436	4.358511	1.476703	-0.000174
 953	9.4724e+01	2.0598	10.825579	0.000314	3.142182	1.064600	-0.000126
 954	9.4823e+01	2.0197	10.668131	0.000395	3.953068	1.339336	-0.000158
 955	9.4923e+01	1.9780	10.510683	0.000395	3.953068	1.339336	-0.000158
 956	9.5022e+01	1.9363	10.324975	0.000466	4.662593	1.579729	-0.000187
 957	9.5122e+01	1.8914	10.236158	0.000223	2.229936	0.755523	-0.000089
 958	9.5222e+01	1.8657	10.022189	0.000537	5.372118	1.820123	-0.000215
 959	9.5321e+01	1.8144	9.840518	0.000456	4.561232	1.545387	-0.000183
 960	9.5421e+01	1.7839	9.731516	0.000274	2.736739	0.927232	-0.000110
 961	9.5520e+01	1.7422	9.545807	0.000466	4.662593	1.579729	-0.000187
 962	9.5620e+01	1.7069	9.384322	0.000405	4.054429	1.373678	-0.000162
 963	9.5719e+01	1.6652	9.214762	0.000426	4.257150	1.442361	-0.000170
 964	9.5819e+01	1.6267	9.089611	0.000314	3.142182	1.064600	-0.000126
 965	9.5918e+01	1.5834	8.924089	0.000416	4.155789	1.408020	-0.000166
 966	9.6017e+01	1.5449	8.762603	0.000405	4.054429	1.373678	-0.000162
 967	9.6117e+01	1.5000	8.605155	0.000395	3.953068	1.339336	-0.000158
 968	9.6216e+01	1.4599	8.419447	0.000466	4.662593	1.579729	-0.000187
 969	9.6316e+01	1.4165	8.286221	0.000334	3.344904	1.133284	-0.000134
 970	9.6415e+01	1.3893	8.112624	0.000436	4.358511	1.476703	-0.000174
 971	9.6515e+01	1.3411	7.906730	0.000517	5.169396	1.751439	-0.000207
 972	9.6615e+01	1.3058	7.785616	0.000304	3.040821	1.030258	-0.000122
 973	9.6714e+01	1.2609	7.632205	0.000385	3.851707	1.304994	-0.000154
 974	9.6814e+01	1.2272	7.438423	0.000487	4.865314	1.648413	-0.000195
 975	9.6913e+01	1.1823	7.325383	0.000284	2.838100	0.961574	-0.000114
 976	9.7013e+01	1.1406	7.147749	0.000446	4.459871	1.511045	-0.000179
 977	9.7112e+01	1.0973	6.966078	0.000456	4.561232	1.545387	-0.000183
 978	9.7212e+01	1.0700	6.828815	0.000345	3.446264	1.167626	-0.000138
 979	9.7311e+01	1.0251	6.647144	0.000456	4.561232	1.545387	-0.000183
 980	9.7410e+01	0.9818	6.477584	0.000426	4.257150	1.442361	-0.000170
 981	9.7510e+01	0.9465	6.295913	0.000456	4.561232	1.545387	-0.000183
 982	9.7609e+01	0.9032	6.142502	0.000385	3.851707	1.304994	-0.000154
 983	9.7709e+01	0.8679	6.009277	0.000334	3.344904	1.133284	-0.000134
 984	9.7808e+01	0.8214	5.843754	0.000416	4.155789	1.408020	-0.000166
 985	9.7908e+01	0.7797	5.734751	0.000274	2.736739	0.927232	-0.000110
 986	9.8007e+01	0.7476	5.504635	0.000578	5.777561	1.957491	-0.000231
 987	9.8107e+01	0.6994	5.379483	0.000314	3.142182	1.064600	-0.000126
 988	9.8207e+01	0.6642	5.254332	0.000314	3.142182	1.064600	-0.000126
 989	9.8306e+01	0.6224	5.080735	0.000436	4.358511	1.476703	-0.000174
 990	9.8406e+01	0.5759	4.870804	0.000527	5.270757	1.785781	-0.000211
 991	9.8505e+01	0.5326	4.725467	0.000365	3.648986	1.236310	-0.000146
 992	9.8605e+01	0.5085	4.592242	0.000334	3.344904	1.133284	-0.000134
 993	9.8704e+01	0.4604	4.430756	0.000405	4.054429	1.373678	-0.000162
 994	9.8803e+01	0.4235	4.285420	0.000365	3.648986	1.236310	-0.000146
 995	9.8903e+01	0.3882	4.115860	0.000426	4.257150	1.442361	-0.000170
 996	9.9002e+01	0.3481	3.946300	0.000426	4.257150	1.442361	-0.000170
 997	9.9102e+01	0.3048	3.809038	0.000345	3.446264	1.167626	-0.000138
 998	9.9201e+01	0.2631	3.627366	0.000456	4.561232	1.545387	-0.000183
 999	9.9301e+01	0.2310	3.482030	0.000365	3.648986	1.236310	-0.000146
1000	9.9400e+01	0.1749	3.296321	0.000466	4.662593	1.579729	-0.000187
1001	9.9500e+01	0.1492	3.155022	0.000355	3.547625	1.201968	-0.000142
1002	9.9600e+01	0.1059	2.985462	0.000426	4.257150	1.442361	-0.000170
1003	9.9699e+01	0.0626	2.815902	0.000426	4.257150	1.442361	-0.000170
1004	9.9799e+01	0.0225	2.702862	0.000284	2.838100	0.961574	-0.000114
1005	9.9898e+01	0.0128	2.597897	0.000264	2.635379	0.892890	-0.000105
1006	9.9998e+01	-0.0529	2.412189	0.000466	4.662593	1.579729	-0.000187
1007	1.0010e+02	-0.0786	2.230517	0.000456	4.561232	1.545387	-0.000183
1008	1.0020e+02	-0.1251	2.117478	0.000284	2.838100	0.961574	-0.000114
1009	1.0030e+02	-0.1572	1.895435	0.000557	5.574839	1.888807	-0.000223
1010	1.0040e+02	-0.2118	1.778358	0.000294	2.939461	0.995916	-0.000118
1011	1.0050e+02	-0.2390	1.633021	0.000365	3.648986	1.236310	-0.000146
1012	1.0059e+02	-0.2743	1.467499	0.000416	4.155789	1.408020	-0.000166
1013	1.0069e+02	-0.3321	1.281791	0.000466	4.662593	1.579729	-0.000187
1014	1.0079e+02	-0.3593	1.148565	0.000334	3.344904	1.133284	-0.000134
1015	1.0089e+02	-0.3995	1.015340	0.000334	3.344904	1.133284	-0.000134
1016	1.0099e+02	-0.4460	0.813483	0.000507	5.068036	1.717097	-0.000203
1017	1.0109e+02	-0.4813	0.668146	0.000365	3.648986	1.236310	-0.000146
1018	1.0119e+02	-0.5246	0.534920	0.000334	3.344904	1.133284	-0.000134
1019	1.0129e+02	-0.5551	0.389584	0.000365	3.648986	1.236310	-0.000146
1020	1.0139e+02	-0.6064	0.207912	0.000456	4.561232	1.545387	-0.000183
1021	1.0149e+02	-0.6513	0.066613	0.000355	3.547625	1.201968	-0.000142
1022	1.0159e+02	-0.6818	-0.119096	0.000466	4.662593	1.579729	-0.000187
1023	1.0169e+02	-0.7187	-0.260395	0.000355	3.547625	1.201968	-0.000142
1024	1.0179e+02	-0.7636	-0.429955	0.000426	4.257150	1.442361	-0.000170
1025	1.0189e+02	-0.8021	-0.575292	0.000365	3.648986	1.236310	-0.000146
1026	1.0199e+02	-0.8406	-0.756963	0.000456	4.561232	1.545387	-0.000183
1027	1.0209e+02	-0.8807	-0.910374	0.000385	3.851707	1.304994	-0.000154
1028	1.0219e+02	-0.9176	-1.043600	0.000334	3.344904	1.133284	-0.000134
1029	1.0229e+02	-0.9706	-1.221234	0.000446	4.459871	1.511045	-0.000179
1030	1.0239e+02	-1.0010	-1.370608	0.000375	3.750346	1.270652	-0.000150
1031	1.0248e+02	-1.0411	-1.532093	0.000405	4.054429	1.373678	-0.000162
1032	1.0258e+02	-1.0780	-1.649170	0.000294	2.939461	0.995916	-0.000118
1033	1.0268e+02	-1.1246	-1.830841	0.000456	4.561232	1.545387	-0.000183
1034	1.0278e+02	-1.1583	-1.968104	0.000345	3.446264	1.167626	-0.000138
1035	1.0288e+02	-1.2000	-2.161886	0.000487	4.865314	1.648413	-0.000195
1036	1.0298e+02	-1.2321	-2.287037	0.000314	3.142182	1.064600	-0.000126
1037	1.0308e+02	-1.2802	-2.436411	0.000375	3.750346	1.270652	-0.000150
1038	1.0318e+02	-1.3187	-2.618083	0.000456	4.561232	1.545387	-0.000183
1039	1.0328e+02	-1.3620	-2.743234	0.000314	3.142182	1.064600	-0.000126
1040	1.0338e+02	-1.3925	-2.908756	0.000416	4.155789	1.408020	-0.000166
1041	1.0348e+02	-1.4374	-3.102539	0.000487	4.865314	1.648413	-0.000195
1042	1.0358e+02	-1.4823	-3.231727	0.000324	3.243543	1.098942	-0.000130
1043	1.0368e+02	-1.5288	-3.377064	0.000365	3.648986	1.236310	-0.000146
1044	1.0378e+02	-1.5609	-3.550661	0.000436	4.358511	1.476703	-0.000174
1045	1.0388e+02	-1.5962	-3.708109	0.000395	3.953068	1.339336	-0.000158
1046	1.0398e+02	-1.6443	-3.813075	0.000264	2.635379	0.892890	-0.000105
1047	1.0408e+02	-1.6812	-4.031080	0.000547	5.473479	1.854465	-0.000219
1048	1.0418e+02	-1.7165	-4.160268	0.000324	3.243543	1.098942	-0.000130
1049	1.0428e+02	-1.7598	-4.293494	0.000334	3.344904	1.133284	-0.000134
1050	1.0438e+02	-1.7983	-4.450942	0.000395	3.953068	1.339336	-0.000158
1051	1.0447e+02	-1.8385	-4.580130	0.000324	3.243543	1.098942	-0.000130
1052	1.0457e+02	-1.8770	-4.777950	0.000497	4.966675	1.682755	-0.000199
1053	1.0467e+02	-1.9106	-4.907138	0.000324	3.243543	1.098942	-0.000130
1054	1.0477e+02	-1.9652	-5.080735	0.000436	4.358511	1.476703	-0.000174
1055	1.0487e+02	-1.9973	-5.209924	0.000324	3.243543	1.098942	-0.000130
1056	1.0497e+02	-2.0358	-5.302778	0.000233	2.331296	0.789865	-0.000093
1057	1.0507e+02	-2.0711	-5.488486	0.000466	4.662593	1.579729	-0.000187
1058	1.0517e+02	-2.1128	-5.658046	0.000426	4.257150	1.442361	-0.000170
1059	1.0527e+02	-2.1513	-5.803383	0.000365	3.648986	1.236310	-0.000146
1060	1.0537e+02	-2.1994	-5.920460	0.000294	2.939461	0.995916	-0.000118
1061	1.0547e+02	-2.2347	-6.106168	0.000466	4.662593	1.579729	-0.000187
1062	1.0557e+02	-2.2716	-6.235356	0.000324	3.243543	1.098942	-0.000130
1063	1.0567e+02	-2.3181	-6.364544	0.000324	3.243543	1.098942	-0.000130
1064	1.0577e+02	-2.3614	-6.566401	0.000507	5.068036	1.717097	-0.000203
1065	1.0587e+02	-2.4063	-6.675404	0.000274	2.736739	0.927232	-0.000110
1066	1.0597e+02	-2.4352	-6.828815	0.000385	3.851707	1.304994	-0.000154
1067	1.0607e+02	-2.4721	-7.014523	0.000466	4.662593	1.579729	-0.000187
1068	1.0617e+02	-2.5219	-7.147749	0.000334	3.344904	1.133284	-0.000134
1069	1.0627e+02	-2.5571	-7.272900	0.000314	3.142182	1.064600	-0.000126
1070	1.0637e+02	-2.6037	-7.446497	0.000436	4.358511	1.476703	-0.000174
1071	1.0647e+02	-2.6293	-7.607982	0.000405	4.054429	1.373678	-0.000162
1072	1.0656e+02	-2.6807	-7.785616	0.000446	4.459871	1.511045	-0.000179
1073	1.0666e+02	-2.7095	-7.902693	0.000294	2.939461	0.995916	-0.000118
1074	1.0676e+02	-2.7561	-8.112624	0.000527	5.270757	1.785781	-0.000211
1075	1.0686e+02	-2.7914	-8.209516	0.000243	2.432657	0.824207	-0.000097
1076	1.0696e+02	-2.8315	-8.383112	0.000436	4.358511	1.476703	-0.000174
1077	1.0706e+02	-2.8748	-8.532486	0.000375	3.750346	1.270652	-0.000150
1078	1.0716e+02	-2.9133	-8.661675	0.000324	3.243543	1.098942	-0.000130
1079	1.0726e+02	-2.9566	-8.827197	0.000416	4.155789	1.408020	-0.000166
1080	1.0736e+02	-2.9887	-8.972534	0.000365	3.648986	1.236310	-0.000146
1081	1.0746e+02	-3.0256	-9.154205	0.000456	4.561232	1.545387	-0.000183
1082	1.0756e+02	-3.0785	-9.287431	0.000334	3.344904	1.133284	-0.000134
1083	1.0766e+02	-3.1202	-9.412582	0.000314	3.142182	1.064600	-0.000126
1084	1.0776e+02	-3.1571	-9.602327	0.000476	4.763954	1.614071	-0.000191
1085	1.0786e+02	-3.1972	-9.715367	0.000284	2.838100	0.961574	-0.000114
1086	1.0796e+02	-3.2261	-9.880890	0.000416	4.155789	1.408020	-0.000166
1087	1.0806e+02	-3.2678	-10.030264	0.000375	3.750346	1.270652	-0.000150
1088	1.0816e+02	-3.3159	-10.211935	0.000456	4.561232	1.545387	-0.000183
1089	1.0826e+02	-3.3448	-10.304789	0.000233	2.331296	0.789865	-0.000093
1090	1.0836e+02	-3.3897	-10.466274	0.000405	4.054429	1.373678	-0.000162
1091	1.0845e+02	-3.4298	-10.643908	0.000446	4.459871	1.511045	-0.000179
1092	1.0855e+02	-3.4635	-10.797320	0.000385	3.851707	1.304994	-0.000154
1093	1.0865e+02	-3.5069	-10.926508	0.000324	3.243543	1.098942	-0.000130
1094	1.0875e+02	-3.5534	-11.071845	0.000365	3.648986	1.236310	-0.000146
1095	1.0885e+02	-3.5823	-11.229293	0.000395	3.953068	1.339336	-0.000158
1096	1.0895e+02	-3.6368	-11.354444	0.000314	3.142182	1.064600	-0.000126
1097	1.0905e+02	-3.6673	-11.544190	0.000476	4.763954	1.614071	-0.000191
1098	1.0915e+02	-3.7122	-11.681452	0.000345	3.446264	1.167626	-0.000138
1099	1.0925e+02	-3.7555	-11.814678	0.000334	3.344904	1.133284	-0.000134
1100	1.0935e+02	-3.7972	-12.012497	0.000497	4.966675	1.682755	-0.000199
1101	1.0945e+02	-3.8389	-12.129574	0.000294	2.939461	0.995916	-0.000118
1102	1.0955e+02	-3.8710	-12.287023	0.000395	3.953068	1.339336	-0.000158
1103	1.0965e+02	-3.9191	-12.444471	0.000395	3.953068	1.339336	-0.000158
1104	1.0975e+02	-3.9512	-12.585771	0.000355	3.547625	1.201968	-0.000142
1105	1.0985e+02	-3.9961	-12.698810	0.000284	2.838100	0.961574	-0.000114
1106	1.0995e+02	-4.0379	-12.880482	0.000456	4.561232	1.545387	-0.000183
1107	1.1005e+02	-4.0731	-13.041967	0.000405	4.054429	1.373678	-0.000162
1108	1.1015e+02	-4.1133	-13.183267	0.000355	3.547625	1.201968	-0.000142
1109	1.1025e+02	-4.1534	-13.360901	0.000446	4.459871	1.511045	-0.000179
1110	1.1035e+02	-4.1838	-13.498163	0.000345	3.446264	1.167626	-0.000138
1111	1.1044e+02	-4.2320	-13.591017	0.000233	2.331296	0.789865	-0.000093
1112	1.1054e+02	-4.2689	-13.776726	0.000466	4.662593	1.579729	-0.000187
1113	1.1064e+02	-4.3122	-13.901877	0.000314	3.142182	1.064600	-0.000126
1114	1.1074e+02	-4.3619	-14.039140	0.000345	3.446264	1.167626	-0.000138
1115	1.1084e+02	-4.3908	-14.180439	0.000355	3.547625	1.201968	-0.000142
1116	1.1094e+02	-4.4261	-14.329813	0.000375	3.750346	1.270652	-0.000150
1117	1.1104e+02	-4.4614	-14.487262	0.000395	3.953068	1.339336	-0.000158
1118	1.1114e+02	-4.5111	-14.664896	0.000446	4.459871	1.511045	-0.000179
1119	1.1124e+02	-4.5560	-14.786010	0.000304	3.040821	1.030258	-0.000122
1120	1.1134e+02	-4.5993	-14.971718	0.000466	4.662593	1.579729	-0.000187
1121	1.1144e+02	-4.6298	-15.096869	0.000314	3.142182	1.064600	-0.000126
1122	1.1154e+02	-4.6603	-15.230095	0.000334	3.344904	1.133284	-0.000134
1123	1.1164e+02	-4.7068	-15.387543	0.000395	3.953068	1.339336	-0.000158
1124	1.1174e+02	-4.7501	-15.520768	0.000334	3.344904	1.133284	-0.000134
1125	1.1184e+02	-4.7838	-15.666105	0.000365	3.648986	1.236310	-0.000146
1126	1.1194e+02	-4.8175	-15.823554	0.000395	3.953068	1.339336	-0.000158
1127	1.1204e+02	-4.8656	-15.936593	0.000284	2.838100	0.961574	-0.000114
1128	1.1214e+02	-4.9041	-16.146524	0.000527	5.270757	1.785781	-0.000211
1129	1.1224e+02	-4.9442	-16.235341	0.000223	2.229936	0.755523	-0.000089
1130	1.1234e+02	-4.9876	-16.412975	0.000446	4.459871	1.511045	-0.000179
1131	1.1244e+02	-5.0164	-16.546201	0.000334	3.344904	1.133284	-0.000134
1132	1.1253e+02	-5.0710	-16.715761	0.000426	4.257150	1.442361	-0.000170
1133	1.1263e+02	-5.1079	-16.853023	0.000345	3.446264	1.167626	-0.000138
1134	1.1273e+02	-5.1416	-16.990286	0.000345	3.446264	1.167626	-0.000138
1135	1.1283e+02	-5.1849	-17.147734	0.000395	3.953068	1.339336	-0.000158
1136	1.1293e+02	-5.2282	-17.309219	0.000405	4.054429	1.373678	-0.000162
1137	1.1303e+02	-5.2619	-17.418222	0.000274	2.736739	0.927232	-0.000110
1138	1.1313e+02	-5.3068	-17.563559	0.000365	3.648986	1.236310	-0.000146
1139	1.1323e+02	-5.3469	-17.765416	0.000507	5.068036	1.717097	-0.000203
1140	1.1333e+02	-5.3886	-17.866344	0.000253	2.534018	0.858548	-0.000101
1141	1.1343e+02	-5.4335	-18.019755	0.000385	3.851707	1.304994	-0.000154
1142	1.1353e+02	-5.4656	-18.193352	0.000436	4.358511	1.476703	-0.000174
1143	1.1363e+02	-5.5057	-18.322541	0.000324	3.243543	1.098942	-0.000130
1144	1.1373e+02	-5.5490	-18.516323	0.000487	4.865314	1.648413	-0.000195
1145	1.1383e+02	-5.5875	-18.625326	0.000274	2.736739	0.927232	-0.000110
1146	1.1393e+02	-5.6164	-18.734328	0.000274	2.736739	0.927232	-0.000110
1147	1.1403e+02	-5.6662	-18.916000	0.000456	4.561232	1.545387	-0.000183
1148	1.1413e+02	-5.7047	-19.033076	0.000294	2.939461	0.995916	-0.000118
1149	1.1423e+02	-5.7464	-19.194562	0.000405	4.054429	1.373678	-0.000162
1150	1.1433e+02	-5.7881	-19.327787	0.000334	3.344904	1.133284	-0.000134
1151	1.1442e+02	-5.8266	-19.481199	0.000385	3.851707	1.304994	-0.000154
1152	1.1452e+02	-5.8651	-19.626535	0.000365	3.648986	1.236310	-0.000146
1153	1.1462e+02	-5.9020	-19.779947	0.000385	3.851707	1.304994	-0.000154
1154	1.1472e+02	-5.9389	-19.905098	0.000314	3.142182	1.064600	-0.000126
1155	1.1482e+02	-5.9774	-20.038323	0.000334	3.344904	1.133284	-0.000134
1156	1.1492e+02	-6.0127	-20.179623	0.000355	3.547625	1.201968	-0.000142
1157	1.1502e+02	-6.0640	-20.328997	0.000375	3.750346	1.270652	-0.000150
1158	1.1512e+02	-6.1041	-20.446074	0.000294	2.939461	0.995916	-0.000118
1159	1.1522e+02	-6.1442	-20.611597	0.000416	4.155789	1.408020	-0.000166
1160	1.1532e+02	-6.1811	-20.773082	0.000405	4.054429	1.373678	-0.000162
1161	1.1542e+02	-6.2292	-20.841713	0.000172	1.723132	0.583813	-0.000069
1162	1.1552e+02	-6.2629	-21.047607	0.000517	5.169396	1.751439	-0.000207
1163	1.1562e+02	-6.3078	-21.112201	0.000162	1.621771	0.549471	-0.000065
1164	1.1572e+02	-6.3351	-21.273687	0.000405	4.054429	1.373678	-0.000162
1165	1.1582e+02	-6.3800	-21.406912	0.000334	3.344904	1.133284	-0.000134
1166	1.1592e+02	-6.4201	-21.580509	0.000436	4.358511	1.476703	-0.000174
1167	1.1602e+02	-6.4602	-21.669326	0.000223	2.229936	0.755523	-0.000089
1168	1.1612e+02	-6.5020	-21.798514	0.000324	3.243543	1.098942	-0.000130
1169	1.1622e+02	-6.5356	-21.976148	0.000446	4.459871	1.511045	-0.000179
1170	1.1632e+02	-6.5709	-22.125522	0.000375	3.750346	1.270652	-0.000150
1171	1.1642e+02	-6.6271	-22.214339	0.000223	2.229936	0.755523	-0.000089
1172	1.1651e+02	-6.6544	-22.420233	0.000517	5.169396	1.751439	-0.000207
1173	1.1661e+02	-6.6945	-22.505013	0.000213	2.128575	0.721181	-0.000085
1174	1.1671e+02	-6.7410	-22.642276	0.000345	3.446264	1.167626	-0.000138
1175	1.1681e+02	-6.7811	-22.767427	0.000314	3.142182	1.064600	-0.000126
1176	1.1691e+02	-6.8164	-22.912764	0.000365	3.648986	1.236310	-0.000146
1177	1.1701e+02	-6.8629	-23.005618	0.000233	2.331296	0.789865	-0.000093
1178	1.1711e+02	-6.9030	-23.179215	0.000436	4.358511	1.476703	-0.000174
1179	1.1721e+02	-6.9335	-23.284180	0.000264	2.635379	0.892890	-0.000105
1180	1.1731e+02	-6.9720	-23.453740	0.000426	4.257150	1.442361	-0.000170
1181	1.1741e+02	-7.0185	-23.578891	0.000314	3.142182	1.064600	-0.000126
1182	1.1751e+02	-7.0538	-23.736340	0.000395	3.953068	1.339336	-0.000158
1183	1.1761e+02	-7.1051	-23.833231	0.000243	2.432657	0.824207	-0.000097
1184	1.1771e+02	-7.1324	-23.982605	0.000375	3.750346	1.270652	-0.000150
1185	1.1781e+02	-7.1741	-24.123905	0.000355	3.547625	1.201968	-0.000142
1186	1.1791e+02	-7.2078	-24.269241	0.000365	3.648986	1.236310	-0.000146
1187	1.1801e+02	-7.2592	-24.378244	0.000274	2.736739	0.927232	-0.000110
1188	1.1811e+02	-7.2961	-24.523581	0.000365	3.648986	1.236310	-0.000146
1189	1.1821e+02	-7.3297	-24.640658	0.000294	2.939461	0.995916	-0.000118
1190	1.1831e+02	-7.3779	-24.802143	0.000405	4.054429	1.373678	-0.000162
1191	1.1841e+02	-7.4164	-24.923257	0.000304	3.040821	1.030258	-0.000122
1192	1.1850e+02	-7.4452	-25.080706	0.000395	3.953068	1.339336	-0.000158
1193	1.1860e+02	-7.4966	-25.165486	0.000213	2.128575	0.721181	-0.000085
1194	1.1870e+02	-7.5383	-25.298711	0.000334	3.344904	1.133284	-0.000134
1195	1.1880e+02	-7.5672	-25.460197	0.000405	4.054429	1.373678	-0.000162
1196	1.1890e+02	-7.6009	-25.569199	0.000274	2.736739	0.927232	-0.000110
1197	1.1900e+02	-7.6538	-25.714536	0.000365	3.648986	1.236310	-0.000146
1198	1.1910e+02	-7.6811	-25.807390	0.000233	2.331296	0.789865	-0.000093
1199	1.1920e+02	-7.7324	-25.976950	0.000426	4.257150	1.442361	-0.000170
1200	1.1930e+02	-7.7709	-26.069804	0.000233	2.331296	0.789865	-0.000093
1201	1.1940e+02	-7.8174	-26.247438	0.000446	4.459871	1.511045	-0.000179
1202	1.1950e+02	-7.8543	-26.352404	0.000264	2.635379	0.892890	-0.000105
1203	1.1960e+02	-7.8896	-26.521963	0.000426	4.257150	1.442361	-0.000170
1204	1.1970e+02	-7.9297	-26.554260	0.000081	0.810886	0.274736	-0.000032
1205	1.1980e+02	-7.9714	-26.768229	0.000537	5.372118	1.820123	-0.000215
1206	1.1990e+02	-8.0051	-26.905491	0.000345	3.446264	1.167626	-0.000138
1207	1.2000e+02	-8.0565	-26.986234	0.000203	2.027214	0.686839	-0.000081
1208	1.2010e+02	-8.0918	-27.147719	0.000405	4.054429	1.373678	-0.000162
1209	1.2020e+02	-8.1351	-27.293056	0.000365	3.648986	1.236310	-0.000146
1210	1.2030e+02	-8.1639	-27.430319	0.000345	3.446264	1.167626	-0.000138
1211	1.2039e+02	-8.2201	-27.579693	0.000375	3.750346	1.270652	-0.000150
1212	1.2049e+02	-8.2474	-27.660436	0.000203	2.027214	0.686839	-0.000081
1213	1.2059e+02	-8.2939	-27.785587	0.000314	3.142182	1.064600	-0.000126
1214	1.2069e+02	-8.3340	-27.918812	0.000334	3.344904	1.133284	-0.000134
1215	1.2079e+02	-8.3725	-28.039926	0.000304	3.040821	1.030258	-0.000122
1216	1.2089e+02	-8.4142	-28.177189	0.000345	3.446264	1.167626	-0.000138
1217	1.2099e+02	-8.4559	-28.274080	0.000243	2.432657	0.824207	-0.000097
1218	1.2109e+02	-8.5024	-28.439603	0.000416	4.155789	1.408020	-0.000166
1219	1.2119e+02	-8.5313	-28.580902	0.000355	3.547625	1.201968	-0.000142
1220	1.2129e+02	-8.5714	-28.693942	0.000284	2.838100	0.961574	-0.000114
1221	1.2139e+02	-8.6099	-28.790834	0.000243	2.432657	0.824207	-0.000097
1222	1.2149e+02	-8.6468	-28.972505	0.000456	4.561232	1.545387	-0.000183
1223	1.2159e+02	-8.6853	-29.085544	0.000284	2.838100	0.961574	-0.000114
1224	1.2169e+02	-8.7286	-29.194547	0.000274	2.736739	0.927232	-0.000110
1225	1.2179e+02	-8.7655	-29.299513	0.000264	2.635379	0.892890	-0.000105
1226	1.2189e+02	-8.7976	-29.416590	0.000294	2.939461	0.995916	-0.000118
1227	1.2199e+02	-8.8506	-29.574038	0.000395	3.953068	1.339336	-0.000158
1228	1.2209e+02	-8.8778	-29.687078	0.000284	2.838100	0.961574	-0.000114
1229	1.2219e+02	-8.9179	-29.796080	0.000274	2.736739	0.927232	-0.000110
1230	1.2229e+02	-8.9709	-29.929306	0.000334	3.344904	1.133284	-0.000134
1231	1.2239e+02	-9.0062	-30.054457	0.000314	3.142182	1.064600	-0.000126
1232	1.2248e+02	-9.0559	-30.159423	0.000264	2.635379	0.892890	-0.000105
1233	1.2258e+02	-9.0928	-30.304759	0.000365	3.648986	1.236310	-0.000146
1234	1.2268e+02	-9.1281	-30.458171	0.000385	3.851707	1.304994	-0.000154
1235	1.2278e+02	-9.1650	-30.567173	0.000274	2.736739	0.927232	-0.000110
1236	1.2288e+02	-9.2083	-30.708473	0.000355	3.547625	1.201968	-0.000142
1237	1.2298e+02	-9.2484	-30.849773	0.000355	3.547625	1.201968	-0.000142
1238	1.2308e+02	-9.2837	-30.991072	0.000355	3.547625	1.201968	-0.000142
1239	1.2318e+02	-9.3222	-31.096038	0.000264	2.635379	0.892890	-0.000105
1240	1.2328e+02	-9.3703	-31.229264	0.000334	3.344904	1.133284	-0.000134
1241	1.2338e+02	-9.4136	-31.346340	0.000294	2.939461	0.995916	-0.000118
1242	1.2348e+02	-9.4537	-31.467455	0.000304	3.040821	1.030258	-0.000122
1243	1.2358e+02	-9.4955	-31.576457	0.000274	2.736739	0.927232	-0.000110
1244	1.2368e+02	-9.5243	-31.693534	0.000294	2.939461	0.995916	-0.000118
1245	1.2378e+02	-9.5628	-31.859057	0.000416	4.155789	1.408020	-0.000166
1246	1.2388e+02	-9.6078	-32.036691	0.000446	4.459871	1.511045	-0.000179
1247	1.2398e+02	-9.6463	-32.109359	0.000182	1.824493	0.618155	-0.000073
1248	1.2408e+02	-9.6848	-32.198176	0.000223	2.229936	0.755523	-0.000089
1249	1.2418e+02	-9.7265	-32.351587	0.000385	3.851707	1.304994	-0.000154
1250	1.2428e+02	-9.7666	-32.509036	0.000395	3.953068	1.339336	-0.000158
1251	1.2438e+02	-9.8051	-32.630150	0.000304	3.040821	1.030258	-0.000122
1252	1.2447e+02	-9.8420	-32.779524	0.000375	3.750346	1.270652	-0.000150
1253	1.2457e+02	-9.8885	-32.892563	0.000284	2.838100	0.961574	-0.000114
1254	1.2467e+02	-9.9286	-33.025789	0.000334	3.344904	1.133284	-0.000134
1255	1.2477e+02	-9.9703	-33.110569	0.000213	2.128575	0.721181	-0.000085
1256	1.2487e+02	-9.9928	-33.247831	0.000345	3.446264	1.167626	-0.000138
1257	1.2497e+02	-10.0441	-33.401243	0.000385	3.851707	1.304994	-0.000154
1258	1.2507e+02	-10.0810	-33.490060	0.000223	2.229936	0.755523	-0.000089
1259	1.2517e+02	-10.1227	-33.627322	0.000345	3.446264	1.167626	-0.000138
1260	1.2527e+02	-10.1676	-33.772659	0.000365	3.648986	1.236310	-0.000146
1261	1.2537e+02	-10.2077	-33.922033	0.000375	3.750346	1.270652	-0.000150
1262	1.2547e+02	-10.2478	-34.014887	0.000233	2.331296	0.789865	-0.000093
1263	1.2557e+02	-10.2895	-34.148113	0.000334	3.344904	1.133284	-0.000134
1264	1.2567e+02	-10.3297	-34.265190	0.000294	2.939461	0.995916	-0.000118
1265	1.2577e+02	-10.3682	-34.406489	0.000355	3.547625	1.201968	-0.000142
1266	1.2587e+02	-10.4002	-34.535678	0.000324	3.243543	1.098942	-0.000130
1267	1.2597e+02	-10.4452	-34.660829	0.000314	3.142182	1.064600	-0.000126
1268	1.2607e+02	-10.4933	-34.781943	0.000304	3.040821	1.030258	-0.000122
1269	1.2617e+02	-10.5206	-34.874797	0.000233	2.331296	0.789865	-0.000093
1270	1.2627e+02	-10.5575	-35.056468	0.000456	4.561232	1.545387	-0.000183
1271	1.2636e+02	-10.5976	-35.193731	0.000345	3.446264	1.167626	-0.000138
1272	1.2646e+02	-10.6345	-35.314845	0.000304	3.040821	1.030258	-0.000122
1273	1.2656e+02	-10.6938	-35.427885	0.000284	2.838100	0.961574	-0.000114
1274	1.2666e+02	-10.7243	-35.573222	0.000365	3.648986	1.236310	-0.000146
1275	1.2676e+02	-10.7628	-35.702410	0.000324	3.243543	1.098942	-0.000130
1276	1.2686e+02	-10.8013	-35.831598	0.000324	3.243543	1.098942	-0.000130
1277	1.2696e+02	-10.8446	-35.936564	0.000264	2.635379	0.892890	-0.000105
1278	1.2706e+02	-10.8799	-36.077864	0.000355	3.547625	1.201968	-0.000142
1279	1.2716e+02	-10.9152	-36.194940	0.000294	2.939461	0.995916	-0.000118
1280	1.2726e+02	-10.9649	-36.275683	0.000203	2.027214	0.686839	-0.000081
1281	1.2736e+02	-11.0082	-36.421020	0.000365	3.648986	1.236310	-0.000146
1282	1.2746e+02	-11.0371	-36.578468	0.000395	3.953068	1.339336	-0.000158
1283	1.2756e+02	-11.0788	-36.679397	0.000253	2.534018	0.858548	-0.000101
1284	1.2766e+02	-11.1221	-36.820696	0.000355	3.547625	1.201968	-0.000142
1285	1.2776e+02	-11.1590	-36.941811	0.000304	3.040821	1.030258	-0.000122
1286	1.2786e+02	-11.1975	-37.079073	0.000345	3.446264	1.167626	-0.000138
1287	1.2796e+02	-11.2328	-37.167890	0.000223	2.229936	0.755523	-0.000089
1288	1.2806e+02	-11.2826	-37.389933	0.000557	5.574839	1.888807	-0.000223
1289	1.2816e+02	-11.3227	-37.474712	0.000213	2.128575	0.721181	-0.000085
1290	1.2826e+02	-11.3644	-37.579678	0.000264	2.635379	0.892890	-0.000105
1291	1.2835e+02	-11.4061	-37.684644	0.000264	2.635379	0.892890	-0.000105
1292	1.2845e+02	-11.4382	-37.842092	0.000395	3.953068	1.339336	-0.000158
1293	1.2855e+02	-11.4783	-37.959169	0.000294	2.939461	0.995916	-0.000118
1294	1.2865e+02	-11.5152	-38.076246	0.000294	2.939461	0.995916	-0.000118
1295	1.2875e+02	-11.5537	-38.217545	0.000355	3.547625	1.201968	-0.000142
1296	1.2885e+02	-11.6002	-38.330585	0.000284	2.838100	0.961574	-0.000114
1297	1.2895e+02	-11.6387	-38.431514	0.000253	2.534018	0.858548	-0.000101
1298	1.2905e+02	-11.6756	-38.568776	0.000345	3.446264	1.167626	-0.000138
1299	1.2915e+02	-11.7253	-38.734299	0.000416	4.155789	1.408020	-0.000166
1300	1.2925e+02	-11.7654	-38.883673	0.000375	3.750346	1.270652	-0.000150
1301	1.2935e+02	-11.7959	-38.988638	0.000264	2.635379	0.892890	-0.000105
1302	1.2945e+02	-11.8360	-39.093604	0.000264	2.635379	0.892890	-0.000105
1303	1.2955e+02	-11.8681	-39.226829	0.000334	3.344904	1.133284	-0.000134
1304	1.2965e+02	-11.9178	-39.327758	0.000253	2.534018	0.858548	-0.000101
1305	1.2975e+02	-11.9451	-39.497317	0.000426	4.257150	1.442361	-0.000170
1306	1.2985e+02	-11.9965	-39.594209	0.000243	2.432657	0.824207	-0.000097
1307	1.2995e+02	-12.0382	-39.711286	0.000294	2.939461	0.995916	-0.000118
1308	1.3005e+02	-12.0815	-39.836437	0.000314	3.142182	1.064600	-0.000126
1309	1.3015e+02	-12.1152	-40.026182	0.000476	4.763954	1.614071	-0.000191
1310	1.3025e+02	-12.1489	-40.094814	0.000172	1.723132	0.583813	-0.000069
1311	1.3034e+02	-12.1970	-40.256299	0.000405	4.054429	1.373678	-0.000162
1312	1.3044e+02	-12.2435	-40.361265	0.000264	2.635379	0.892890	-0.000105
1313	1.3054e+02	-12.2708	-40.510639	0.000375	3.750346	1.270652	-0.000150
1314	1.3064e+02	-12.3125	-40.623678	0.000284	2.838100	0.961574	-0.000114
1315	1.3074e+02	-12.3462	-40.748830	0.000314	3.142182	1.064600	-0.000126
1316	1.3084e+02	-12.3959	-40.845721	0.000243	2.432657	0.824207	-0.000097
1317	1.3094e+02	-12.4440	-40.999132	0.000385	3.851707	1.304994	-0.000154
1318	1.3104e+02	-12.4841	-41.104098	0.000264	2.635379	0.892890	-0.000105
1319	1.3114e+02	-12.5098	-41.217137	0.000284	2.838100	0.961574	-0.000114
1320	1.3124e+02	-12.5515	-41.362474	0.000365	3.648986	1.236310	-0.000146
1321	1.3134e+02	-12.5980	-41.503774	0.000355	3.547625	1.201968	-0.000142
1322	1.3144e+02	-12.6317	-41.608739	0.000264	2.635379	0.892890	-0.000105
1323	1.3154e+02	-12.6766	-41.725816	0.000294	2.939461	0.995916	-0.000118
1324	1.3164e+02	-12.7119	-41.838856	0.000284	2.838100	0.961574	-0.000114
1325	1.3174e+02	-12.7569	-41.959970	0.000304	3.040821	1.030258	-0.000122
1326	1.3184e+02	-12.7905	-42.068973	0.000274	2.736739	0.927232	-0.000110
1327	1.3194e+02	-12.8323	-42.210273	0.000355	3.547625	1.201968	-0.000142
1328	1.3204e+02	-12.8756	-42.307164	0.000243	2.432657	0.824207	-0.000097
1329	1.3214e+02	-12.9173	-42.456538	0.000375	3.750346	1.270652	-0.000150
1330	1.3224e+02	-12.9446	-42.553429	0.000243	2.432657	0.824207	-0.000097
1331	1.3234e+02	-12.9975	-42.698766	0.000365	3.648986	1.236310	-0.000146
1332	1.3243e+02	-13.0424	-42.779509	0.000203	2.027214	0.686839	-0.000081
1333	1.3253e+02	-13.0745	-42.932920	0.000385	3.851707	1.304994	-0.000154
1334	1.3263e+02	-13.1098	-43.066145	0.000334	3.344904	1.133284	-0.000134
1335	1.3273e+02	-13.1483	-43.142851	0.000193	1.925854	0.652497	-0.000077
1336	1.3283e+02	-13.1980	-43.284151	0.000355	3.547625	1.201968	-0.000142
1337	1.3293e+02	-13.2269	-43.409302	0.000314	3.142182	1.064600	-0.000126
1338	1.3303e+02	-13.2734	-43.486008	0.000193	1.925854	0.652497	-0.000077
1339	1.3313e+02	-13.3199	-43.655567	0.000426	4.257150	1.442361	-0.000170
1340	1.3323e+02	-13.3584	-43.724199	0.000172	1.723132	0.583813	-0.000069
1341	1.3333e+02	-13.4018	-43.881647	0.000395	3.953068	1.339336	-0.000158
1342	1.3343e+02	-13.4371	-43.994687	0.000284	2.838100	0.961574	-0.000114
1343	1.3353e+02	-13.4804	-44.123875	0.000324	3.243543	1.098942	-0.000130
1344	1.3363e+02	-13.5060	-44.261138	0.000345	3.446264	1.167626	-0.000138
1345	1.3373e+02	-13.5526	-44.341880	0.000203	2.027214	0.686839	-0.000081
1346	1.3383e+02	-13.5879	-44.467032	0.000314	3.142182	1.064600	-0.000126
1347	1.3393e+02	-13.6360	-44.620443	0.000385	3.851707	1.304994	-0.000154
1348	1.3403e+02	-13.6745	-44.729445	0.000274	2.736739	0.927232	-0.000110
1349	1.3413e+02	-13.7050	-44.802114	0.000182	1.824493	0.618155	-0.000073
1350	1.3423e+02	-13.7483	-44.923228	0.000304	3.040821	1.030258	-0.000122
1351	1.3432e+02	-13.7820	-45.056453	0.000334	3.344904	1.133284	-0.000134
1352	1.3442e+02	-13.8301	-45.213902	0.000395	3.953068	1.339336	-0.000158
1353	1.3452e+02	-13.8654	-45.286570	0.000182	1.824493	0.618155	-0.000073
1354	1.3462e+02	-13.9135	-45.444018	0.000395	3.953068	1.339336	-0.000158
1355	1.3472e+02	-13.9456	-45.544947	0.000253	2.534018	0.858548	-0.000101
1356	1.3482e+02	-13.9921	-45.637801	0.000233	2.331296	0.789865	-0.000093
1357	1.3492e+02	-14.0242	-45.766989	0.000324	3.243543	1.098942	-0.000130
1358	1.3502e+02	-14.0755	-45.843695	0.000193	1.925854	0.652497	-0.000077
1359	1.3512e+02	-14.1044	-45.980957	0.000345	3.446264	1.167626	-0.000138
1360	1.3522e+02	-14.1461	-46.118220	0.000345	3.446264	1.167626	-0.000138
1361	1.3532e+02	-14.1846	-46.235297	0.000294	2.939461	0.995916	-0.000118
1362	1.3542e+02	-14.2344	-46.360448	0.000314	3.142182	1.064600	-0.000126
1363	1.3552e+02	-14.2648	-46.473488	0.000284	2.838100	0.961574	-0.000114
1364	1.3562e+02	-14.3065	-46.566342	0.000233	2.331296	0.789865	-0.000093
1365	1.3572e+02	-14.3483	-46.667271	0.000253	2.534018	0.858548	-0.000101
1366	1.3582e+02	-14.3916	-46.844905	0.000446	4.459871	1.511045	-0.000179
1367	1.3592e+02	-14.4221	-46.917573	0.000182	1.824493	0.618155	-0.000073
1368	1.3602e+02	-14.4750	-46.990241	0.000182	1.824493	0.618155	-0.000073
1369	1.3612e+02	-14.5151	-47.139615	0.000375	3.750346	1.270652	-0.000150
1370	1.3622e+02	-14.5488	-47.260730	0.000304	3.040821	1.030258	-0.000122
1371	1.3631e+02	-14.5825	-47.353584	0.000233	2.331296	0.789865	-0.000093
1372	1.3641e+02	-14.6322	-47.498921	0.000365	3.648986	1.236310	-0.000146
1373	1.3651e+02	-14.6691	-47.607923	0.000274	2.736739	0.927232	-0.000110
1374	1.3661e+02	-14.7060	-47.765371	0.000395	3.953068	1.339336	-0.000158
1375	1.3671e+02	-14.7541	-47.809780	0.000111	1.114968	0.377761	-0.000045
1376	1.3681e+02	-14.7798	-47.951080	0.000355	3.547625	1.201968	-0.000142
1377	1.3691e+02	-14.8263	-48.043934	0.000233	2.331296	0.789865	-0.000093
1378	1.3701e+02	-14.8728	-48.201382	0.000395	3.953068	1.339336	-0.000158
1379	1.3711e+02	-14.9065	-48.294236	0.000233	2.331296	0.789865	-0.000093
1380	1.3721e+02	-14.9434	-48.391128	0.000243	2.432657	0.824207	-0.000097
1381	1.3731e+02	-14.9851	-48.496093	0.000264	2.635379	0.892890	-0.000105
1382	1.3741e+02	-15.0252	-48.657578	0.000405	4.054429	1.373678	-0.000162
1383	1.3751e+02	-15.0670	-48.758507	0.000253	2.534018	0.858548	-0.000101
1384	1.3761e+02	-15.0990	-48.871547	0.000284	2.838100	0.961574	-0.000114
1385	1.3771e+02	-15.1407	-48.972475	0.000253	2.534018	0.858548	-0.000101
1386	1.3781e+02	-15.1873	-49.093589	0.000304	3.040821	1.030258	-0.000122
1387	1.3791e+02	-15.2306	-49.198555	0.000264	2.635379	0.892890	-0.000105
1388	1.3801e+02	-15.2611	-49.307557	0.000274	2.736739	0.927232	-0.000110
1389	1.3811e+02	-15.3124	-49.436746	0.000324	3.243543	1.098942	-0.000130
1390	1.3821e+02	-15.3589	-49.549785	0.000284	2.838100	0.961574	-0.000114
1391	1.3831e+02	-15.3798	-49.678974	0.000324	3.243543	1.098942	-0.000130
1392	1.3840e+02	-15.4295	-49.747605	0.000172	1.723132	0.583813	-0.000069
1393	1.3850e+02	-15.4680	-49.844496	0.000243	2.432657	0.824207	-0.000097
1394	1.3860e+02	-15.5049	-49.961573	0.000294	2.939461	0.995916	-0.000118
1395	1.3870e+02	-15.5498	-50.078650	0.000294	2.939461	0.995916	-0.000118
1396	1.3880e+02	-15.5771	-50.211876	0.000334	3.344904	1.133284	-0.000134
1397	1.3890e+02	-15.6252	-50.308767	0.000243	2.432657	0.824207	-0.000097
1398	1.3900e+02	-15.6541	-50.421807	0.000284	2.838100	0.961574	-0.000114
1399	1.3910e+02	-15.7054	-50.518698	0.000243	2.432657	0.824207	-0.000097
1400	1.3920e+02	-15.7471	-50.631738	0.000284	2.838100	0.961574	-0.000114
1401	1.3930e+02	-15.7760	-50.777075	0.000365	3.648986	1.236310	-0.000146
1402	1.3940e+02	-15.8290	-50.869929	0.000233	2.331296	0.789865	-0.000093
1403	1.3950e+02	-15.8659	-50.982969	0.000284	2.838100	0.961574	-0.000114
1404	1.3960e+02	-15.8979	-51.132343	0.000375	3.750346	1.270652	-0.000150
1405	1.3970e+02	-15.9413	-51.209048	0.000193	1.925854	0.652497	-0.000077
1406	1.3980e+02	-15.9830	-51.338237	0.000324	3.243543	1.098942	-0.000130
1407	1.3990e+02	-16.0183	-51.447239	0.000274	2.736739	0.927232	-0.000110
1408	1.4000e+02	-16.0568	-51.532019	0.000213	2.128575	0.721181	-0.000085
1409	1.4010e+02	-16.1017	-51.705616	0.000436	4.358511	1.476703	-0.000174
1410	1.4020e+02	-16.1322	-51.806544	0.000253	2.534018	0.858548	-0.000101
1411	1.4029e+02	-16.1835	-51.899398	0.000233	2.331296	0.789865	-0.000093
1412	1.4039e+02	-16.2188	-52.024550	0.000314	3.142182	1.064600	-0.000126
1413	1.4049e+02	-16.2669	-52.161812	0.000345	3.446264	1.167626	-0.000138
1414	1.4059e+02	-16.2942	-52.254666	0.000233	2.331296	0.789865	-0.000093
1415	1.4069e+02	-16.3391	-52.367706	0.000284	2.838100	0.961574	-0.000114
1416	1.4079e+02	-16.3824	-52.537266	0.000426	4.257150	1.442361	-0.000170
1417	1.4089e+02	-16.4129	-52.650306	0.000284	2.838100	0.961574	-0.000114
1418	1.4099e+02	-16.4594	-52.727011	0.000193	1.925854	0.652497	-0.000077
1419	1.4109e+02	-16.5076	-52.844088	0.000294	2.939461	0.995916	-0.000118
1420	1.4119e+02	-16.5428	-52.981351	0.000345	3.446264	1.167626	-0.000138
1421	1.4129e+02	-16.5926	-53.094391	0.000284	2.838100	0.961574	-0.000114
1422	1.4139e+02	-16.6134	-53.203393	0.000274	2.736739	0.927232	-0.000110
1423	1.4149e+02	-16.6616	-53.292210	0.000223	2.229936	0.755523	-0.000089
1424	1.4159e+02	-16.7065	-53.417362	0.000314	3.142182	1.064600	-0.000126
1425	1.4169e+02	-16.7386	-53.586921	0.000426	4.257150	1.442361	-0.000170
1426	1.4179e+02	-16.7915	-53.708035	0.000304	3.040821	1.030258	-0.000122
1427	1.4189e+02	-16.8252	-53.821075	0.000284	2.838100	0.961574	-0.000114
1428	1.4199e+02	-16.8557	-53.942189	0.000304	3.040821	1.030258	-0.000122
1429	1.4209e+02	-16.9038	-53.990635	0.000122	1.216329	0.412103	-0.000049
1430	1.4219e+02	-16.9311	-54.176343	0.000466	4.662593	1.579729	-0.000187
1431	1.4228e+02	-16.9776	-54.297457	0.000304	3.040821	1.030258	-0.000122
1432	1.4238e+02	-17.0193	-54.374163	0.000193	1.925854	0.652497	-0.000077
1433	1.4248e+02	-17.0562	-54.535648	0.000405	4.054429	1.373678	-0.000162
1434	1.4258e+02	-17.1011	-54.600242	0.000162	1.621771	0.549471	-0.000065
1435	1.4268e+02	-17.1364	-54.765765	0.000416	4.155789	1.408020	-0.000166
1436	1.4278e+02	-17.1781	-54.866693	0.000253	2.534018	0.858548	-0.000101
1437	1.4288e+02	-17.2134	-54.971659	0.000264	2.635379	0.892890	-0.000105
1438	1.4298e+02	-17.2567	-55.096810	0.000314	3.142182	1.064600	-0.000126
1439	1.4308e+02	-17.2968	-55.225998	0.000324	3.243543	1.098942	-0.000130
1440	1.4318e+02	-17.3321	-55.355187	0.000324	3.243543	1.098942	-0.000130
1441	1.4328e+02	-17.3787	-55.524746	0.000426	4.257150	1.442361	-0.000170
1442	1.4338e+02	-17.4204	-55.609526	0.000213	2.128575	0.721181	-0.000085
1443	1.4348e+02	-17.4653	-55.722566	0.000284	2.838100	0.961574	-0.000114
1444	1.4358e+02	-17.4910	-55.819457	0.000243	2.432657	0.824207	-0.000097
1445	1.4368e+02	-17.5391	-55.956720	0.000345	3.446264	1.167626	-0.000138
1446	1.4378e+02	-17.5776	-56.049574	0.000233	2.331296	0.789865	-0.000093
1447	1.4388e+02	-17.6113	-56.207022	0.000395	3.953068	1.339336	-0.000158
1448	1.4398e+02	-17.6546	-56.336211	0.000324	3.243543	1.098942	-0.000130
1449	1.4408e+02	-17.6979	-56.481548	0.000365	3.648986	1.236310	-0.000146
1450	1.4418e+02	-17.7348	-56.529993	0.000122	1.216329	0.412103	-0.000049
1451	1.4428e+02	-17.7781	-56.687441	0.000395	3.953068	1.339336	-0.000158
1452	1.4437e+02	-17.8038	-56.820667	0.000334	3.344904	1.133284	-0.000134
1453	1.4447e+02	-17.8519	-56.974078	0.000385	3.851707	1.304994	-0.000154
1454	1.4457e+02	-17.8968	-57.058858	0.000213	2.128575	0.721181	-0.000085
1455	1.4467e+02	-17.9401	-57.171898	0.000284	2.838100	0.961574	-0.000114
1456	1.4477e+02	-17.9786	-57.313198	0.000355	3.547625	1.201968	-0.000142
1457	1.4487e+02	-18.0139	-57.434312	0.000304	3.040821	1.030258	-0.000122
1458	1.4497e+02	-18.0508	-57.551389	0.000294	2.939461	0.995916	-0.000118
1459	1.4507e+02	-18.0877	-57.680577	0.000324	3.243543	1.098942	-0.000130
1460	1.4517e+02	-18.1359	-57.777468	0.000243	2.432657	0.824207	-0.000097
1461	1.4527e+02	-18.1744	-57.890508	0.000284	2.838100	0.961574	-0.000114
1462	1.4537e+02	-18.2113	-58.072179	0.000456	4.561232	1.545387	-0.000183
1463	1.4547e+02	-18.2514	-58.152922	0.000203	2.027214	0.686839	-0.000081
1464	1.4557e+02	-18.2963	-58.278073	0.000314	3.142182	1.064600	-0.000126
1465	1.4567e+02	-18.3412	-58.419373	0.000355	3.547625	1.201968	-0.000142
1466	1.4577e+02	-18.3717	-58.540487	0.000304	3.040821	1.030258	-0.000122
1467	1.4587e+02	-18.4166	-58.653527	0.000284	2.838100	0.961574	-0.000114
1468	1.4597e+02	-18.4471	-58.798863	0.000365	3.648986	1.236310	-0.000146
1469	1.4607e+02	-18.4888	-58.968423	0.000426	4.257150	1.442361	-0.000170
1470	1.4617e+02	-18.5241	-59.061277	0.000233	2.331296	0.789865	-0.000093
1471	1.4626e+02	-18.5738	-59.190466	0.000324	3.243543	1.098942	-0.000130
1472	1.4636e+02	-18.6139	-59.311580	0.000304	3.040821	1.030258	-0.000122
1473	1.4646e+02	-18.6492	-59.448842	0.000345	3.446264	1.167626	-0.000138
1474	1.4656e+02	-18.6829	-59.561882	0.000284	2.838100	0.961574	-0.000114
1475	1.4666e+02	-18.7278	-59.699145	0.000345	3.446264	1.167626	-0.000138
1476	1.4676e+02	-18.7663	-59.844482	0.000365	3.648986	1.236310	-0.000146
1477	1.4686e+02	-18.8096	-59.965596	0.000304	3.040821	1.030258	-0.000122
1478	1.4696e+02	-18.8562	-60.086710	0.000304	3.040821	1.030258	-0.000122
1479	1.4706e+02	-18.8882	-60.215898	0.000324	3.243543	1.098942	-0.000130
1480	1.4716e+02	-18.9267	-60.373346	0.000395	3.953068	1.339336	-0.000158
1481	1.4726e+02	-18.9797	-60.474275	0.000253	2.534018	0.858548	-0.000101
1482	1.4736e+02	-19.0086	-60.599426	0.000314	3.142182	1.064600	-0.000126
1483	1.4746e+02	-19.0535	-60.736689	0.000345	3.446264	1.167626	-0.000138
1484	1.4756e+02	-19.1000	-60.853766	0.000294	2.939461	0.995916	-0.000118
1485	1.4766e+02	-19.1209	-60.970842	0.000294	2.939461	0.995916	-0.000118
1486	1.4776e+02	-19.1722	-61.108105	0.000345	3.446264	1.167626	-0.000138
1487	1.4786e+02	-19.2139	-61.249405	0.000355	3.547625	1.201968	-0.000142
1488	1.4796e+02	-19.2572	-61.358408	0.000274	2.736739	0.927232	-0.000110
1489	1.4806e+02	-19.2845	-61.487596	0.000324	3.243543	1.098942	-0.000130
1490	1.4816e+02	-19.3294	-61.657156	0.000426	4.257150	1.442361	-0.000170
1491	1.4825e+02	-19.3743	-61.754047	0.000243	2.432657	0.824207	-0.000097
1492	1.4835e+02	-19.4096	-61.883235	0.000324	3.243543	1.098942	-0.000130
1493	1.4845e+02	-19.4433	-61.992238	0.000274	2.736739	0.927232	-0.000110
1494	1.4855e+02	-19.4802	-62.145649	0.000385	3.851707	1.304994	-0.000154
1495	1.4865e+02	-19.5380	-62.234466	0.000223	2.229936	0.755523	-0.000089
1496	1.4875e+02	-19.5636	-62.404026	0.000426	4.257150	1.442361	-0.000170
1497	1.4885e+02	-19.6053	-62.521103	0.000294	2.939461	0.995916	-0.000118
1498	1.4895e+02	-19.6438	-62.658365	0.000345	3.446264	1.167626	-0.000138
1499	1.4905e+02	-19.6904	-62.803702	0.000365	3.648986	1.236310	-0.000146
1500	1.4915e+02	-19.7433	-62.916742	0.000284	2.838100	0.961574	-0.000114
1501	1.4925e+02	-19.7722	-63.070153	0.000385	3.851707	1.304994	-0.000154
1502	1.4935e+02	-19.8139	-63.163007	0.000233	2.331296	0.789865	-0.000093
1503	1.4945e+02	-19.8428	-63.276047	0.000284	2.838100	0.961574	-0.000114
1504	1.4955e+02	-19.8941	-63.429458	0.000385	3.851707	1.304994	-0.000154
1505	1.4965e+02	-19.9310	-63.566721	0.000345	3.446264	1.167626	-0.000138
1506	1.4975e+02	-19.9631	-63.703983	0.000345	3.446264	1.167626	-0.000138
1507	1.4985e+02	-20.0080	-63.776652	0.000182	1.824493	0.618155	-0.000073
1508	1.4995e+02	-19.9631	-63.764540	0.000030	0.304082	0.103026	0.000012
1509	1.5005e+02	-19.9262	-63.708021	0.000142	1.419050	0.480787	0.000057
1510	1.5015e+02	-19.8925	-63.639389	0.000172	1.723132	0.583813	0.000069
1511	1.5025e+02	-19.8428	-63.627278	0.000030	0.304082	0.103026	0.000012
1512	1.5034e+02	-19.8010	-63.526349	0.000253	2.534018	0.858548	0.000101
1513	1.5044e+02	-19.7641	-63.490015	0.000091	0.912246	0.309077	0.000037
1514	1.5054e+02	-19.7256	-63.429458	0.000152	1.520411	0.515129	0.000061
1515	1.5064e+02	-19.6839	-63.364864	0.000162	1.621771	0.549471	0.000065
1516	1.5074e+02	-19.6406	-63.344678	0.000051	0.506804	0.171710	0.000020
1517	1.5084e+02	-19.6037	-63.263936	0.000203	2.027214	0.686839	0.000081
1518	1.5094e+02	-19.5700	-63.187230	0.000193	1.925854	0.652497	0.000077
1519	1.5104e+02	-19.5299	-63.126673	0.000152	1.520411	0.515129	0.000061
1520	1.5114e+02	-19.4882	-63.058042	0.000172	1.723132	0.583813	0.000069
1521	1.5124e+02	-19.4465	-62.961150	0.000243	2.432657	0.824207	0.000097
1522	1.5134e+02	-19.4016	-62.900593	0.000152	1.520411	0.515129	0.000061
1523	1.5144e+02	-19.3727	-62.835999	0.000162	1.621771	0.549471	0.000065
1524	1.5154e+02	-19.3310	-62.739108	0.000243	2.432657	0.824207	0.000097
1525	1.5164e+02	-19.2893	-62.638180	0.000253	2.534018	0.858548	0.000101
1526	1.5174e+02	-19.2540	-62.601845	0.000091	0.912246	0.309077	0.000037
1527	1.5184e+02	-19.2139	-62.549363	0.000132	1.317689	0.446445	0.000053
1528	1.5194e+02	-19.1754	-62.508991	0.000101	1.013607	0.343419	0.000041
1529	1.5204e+02	-19.1321	-62.395951	0.000284	2.838100	0.961574	0.000114
1530	1.5214e+02	-19.0872	-62.286949	0.000274	2.736739	0.927232	0.000110
1531	1.5224e+02	-19.0551	-62.226392	0.000152	1.520411	0.515129	0.000061
1532	1.5233e+02	-19.0086	-62.190057	0.000091	0.912246	0.309077	0.000037
1533	1.5243e+02	-18.9701	-62.056832	0.000334	3.344904	1.133284	0.000134
1534	1.5253e+02	-18.9396	-62.008386	0.000122	1.216329	0.412103	0.000049
1535	1.5263e+02	-18.8898	-61.903421	0.000264	2.635379	0.892890	0.000105
1536	1.5273e+02	-18.8497	-61.846901	0.000142	1.419050	0.480787	0.000057
1537	1.5283e+02	-18.8160	-61.725787	0.000304	3.040821	1.030258	0.000122
1538	1.5293e+02	-18.7791	-61.677341	0.000122	1.216329	0.412103	0.000049
1539	1.5303e+02	-18.7326	-61.612747	0.000162	1.621771	0.549471	0.000065
1540	1.5313e+02	-18.6957	-61.511819	0.000253	2.534018	0.858548	0.000101
1541	1.5323e+02	-18.6508	-61.435113	0.000193	1.925854	0.652497	0.000077
1542	1.5333e+02	-18.6123	-61.354370	0.000203	2.027214	0.686839	0.000081
1543	1.5343e+02	-18.5690	-61.269591	0.000213	2.128575	0.721181	0.000085
1544	1.5353e+02	-18.5353	-61.196922	0.000182	1.824493	0.618155	0.000073
1545	1.5363e+02	-18.4872	-61.120217	0.000193	1.925854	0.652497	0.000077
1546	1.5373e+02	-18.4535	-61.015251	0.000264	2.635379	0.892890	0.000105
1547	1.5383e+02	-18.4086	-60.946620	0.000172	1.723132	0.583813	0.000069
1548	1.5393e+02	-18.3749	-60.841654	0.000264	2.635379	0.892890	0.000105
1549	1.5403e+02	-18.3364	-60.789171	0.000132	1.317689	0.446445	0.000053
1550	1.5413e+02	-18.2850	-60.680169	0.000274	2.736739	0.927232	0.000110
1551	1.5422e+02	-18.2594	-60.595389	0.000213	2.128575	0.721181	0.000085
1552	1.5432e+02	-18.2177	-60.490423	0.000264	2.635379	0.892890	0.000105
1553	1.5442e+02	-18.1808	-60.405643	0.000213	2.128575	0.721181	0.000085
1554	1.5452e+02	-18.1294	-60.341049	0.000162	1.621771	0.549471	0.000065
1555	1.5462e+02	-18.0925	-60.260307	0.000203	2.027214	0.686839	0.000081
1556	1.5472e+02	-18.0556	-60.110933	0.000375	3.750346	1.270652	0.000150
1557	1.5482e+02	-18.0139	-60.070561	0.000101	1.013607	0.343419	0.000041
1558	1.5492e+02	-17.9690	-59.961559	0.000274	2.736739	0.927232	0.000110
1559	1.5502e+02	-17.9337	-59.868704	0.000233	2.331296	0.789865	0.000093
1560	1.5512e+02	-17.8920	-59.747590	0.000304	3.040821	1.030258	0.000122
1561	1.5522e+02	-17.8599	-59.682996	0.000162	1.621771	0.549471	0.000065
1562	1.5532e+02	-17.8182	-59.590142	0.000233	2.331296	0.789865	0.000093
1563	1.5542e+02	-17.7749	-59.521511	0.000172	1.723132	0.583813	0.000069
1564	1.5552e+02	-17.7396	-59.396360	0.000314	3.142182	1.064600	0.000126
1565	1.5562e+02	-17.6931	-59.315617	0.000203	2.027214	0.686839	0.000081
1566	1.5572e+02	-17.6530	-59.267171	0.000122	1.216329	0.412103	0.000049
1567	1.5582e+02	-17.6209	-59.142020	0.000314	3.142182	1.064600	0.000126
1568	1.5592e+02	-17.5744	-59.033017	0.000274	2.736739	0.927232	0.000110
1569	1.5602e+02	-17.5439	-58.928052	0.000264	2.635379	0.892890	0.000105
1570	1.5612e+02	-17.4990	-58.863458	0.000162	1.621771	0.549471	0.000065
1571	1.5622e+02	-17.4605	-58.770604	0.000233	2.331296	0.789865	0.000093
1572	1.5631e+02	-17.4252	-58.714084	0.000142	1.419050	0.480787	0.000057
1573	1.5641e+02	-17.3754	-58.617192	0.000243	2.432657	0.824207	0.000097
1574	1.5651e+02	-17.3402	-58.492041	0.000314	3.142182	1.064600	0.000126
1575	1.5661e+02	-17.2952	-58.411298	0.000203	2.027214	0.686839	0.000081
1576	1.5671e+02	-17.2583	-58.338630	0.000182	1.824493	0.618155	0.000073
1577	1.5681e+02	-17.2150	-58.225590	0.000284	2.838100	0.961574	0.000114
1578	1.5691e+02	-17.1749	-58.148885	0.000193	1.925854	0.652497	0.000077
1579	1.5701e+02	-17.1412	-58.023733	0.000314	3.142182	1.064600	0.000126
1580	1.5711e+02	-17.1059	-57.959139	0.000162	1.621771	0.549471	0.000065
1581	1.5721e+02	-17.0578	-57.862248	0.000243	2.432657	0.824207	0.000097
1582	1.5731e+02	-17.0081	-57.769394	0.000233	2.331296	0.789865	0.000093
1583	1.5741e+02	-16.9808	-57.684614	0.000213	2.128575	0.721181	0.000085
1584	1.5751e+02	-16.9407	-57.567537	0.000294	2.939461	0.995916	0.000118
1585	1.5761e+02	-16.8926	-57.466609	0.000253	2.534018	0.858548	0.000101
1586	1.5771e+02	-16.8589	-57.450460	0.000041	0.405443	0.137368	0.000016
1587	1.5781e+02	-16.8140	-57.317235	0.000334	3.344904	1.133284	0.000134
1588	1.5791e+02	-16.7883	-57.244566	0.000182	1.824493	0.618155	0.000073
1589	1.5801e+02	-16.7434	-57.127489	0.000294	2.939461	0.995916	0.000118
1590	1.5811e+02	-16.6953	-57.034635	0.000233	2.331296	0.789865	0.000093
1591	1.5821e+02	-16.6584	-56.957930	0.000193	1.925854	0.652497	0.000077
1592	1.5830e+02	-16.6182	-56.869113	0.000223	2.229936	0.755523	0.000089
1593	1.5840e+02	-16.5878	-56.796444	0.000182	1.824493	0.618155	0.000073
1594	1.5850e+02	-16.5445	-56.679367	0.000294	2.939461	0.995916	0.000118
1595	1.5860e+02	-16.4995	-56.586513	0.000233	2.331296	0.789865	0.000093
1596	1.5870e+02	-16.4674	-56.509807	0.000193	1.925854	0.652497	0.000077
1597	1.5880e+02	-16.4177	-56.388693	0.000304	3.040821	1.030258	0.000122
1598	1.5890e+02	-16.3840	-56.283728	0.000264	2.635379	0.892890	0.000105
1599	1.5900e+02	-16.3423	-56.247394	0.000091	0.912246	0.309077	0.000037
1600	1.5910e+02	-16.3070	-56.150502	0.000243	2.432657	0.824207	0.000097
1601	1.5920e+02	-16.2573	-56.037463	0.000284	2.838100	0.961574	0.000114
1602	1.5930e+02	-16.2188	-55.916349	0.000304	3.040821	1.030258	0.000122
1603	1.5940e+02	-16.1755	-55.888089	0.000071	0.709525	0.240394	0.000028
1604	1.5950e+02	-16.1530	-55.791197	0.000243	2.432657	0.824207	0.000097
1605	1.5960e+02	-16.1033	-55.674120	0.000294	2.939461	0.995916	0.000118
1606	1.5970e+02	-16.0616	-55.597415	0.000193	1.925854	0.652497	0.000077
1607	1.5980e+02	-16.0167	-55.512635	0.000213	2.128575	0.721181	0.000085
1608	1.5990e+02	-15.9733	-55.415744	0.000243	2.432657	0.824207	0.000097
1609	1.6000e+02	-15.9557	-55.302704	0.000284	2.838100	0.961574	0.000114
1610	1.6010e+02	-15.9060	-55.217924	0.000213	2.128575	0.721181	0.000085
1611	1.6019e+02	-15.8578	-55.112959	0.000264	2.635379	0.892890	0.000105
1612	1.6029e+02	-15.8258	-55.012030	0.000253	2.534018	0.858548	0.000101
1613	1.6039e+02	-15.7808	-54.955510	0.000142	1.419050	0.480787	0.000057
1614	1.6049e+02	-15.7423	-54.806136	0.000375	3.750346	1.270652	0.000150
1615	1.6059e+02	-15.7086	-54.729431	0.000193	1.925854	0.652497	0.000077
1616	1.6069e+02	-15.6653	-54.612354	0.000294	2.939461	0.995916	0.000118
1617	1.6079e+02	-15.6204	-54.567945	0.000111	1.114968	0.377761	0.000045
1618	1.6089e+02	-15.5803	-54.479128	0.000223	2.229936	0.755523	0.000089
1619	1.6099e+02	-15.5514	-54.362051	0.000294	2.939461	0.995916	0.000118
1620	1.6109e+02	-15.5097	-54.261123	0.000253	2.534018	0.858548	0.000101
1621	1.6119e+02	-15.4600	-54.144046	0.000294	2.939461	0.995916	0.000118
1622	1.6129e+02	-15.4167	-54.055229	0.000223	2.229936	0.755523	0.000089
1623	1.6139e+02	-15.3910	-53.974486	0.000203	2.027214	0.686839	0.000081
1624	1.6149e+02	-15.3429	-53.909892	0.000162	1.621771	0.549471	0.000065
1625	1.6159e+02	-15.3060	-53.768592	0.000355	3.547625	1.201968	0.000142
1626	1.6169e+02	-15.2627	-53.691887	0.000193	1.925854	0.652497	0.000077
1627	1.6179e+02	-15.2226	-53.603070	0.000223	2.229936	0.755523	0.000089
1628	1.6189e+02	-15.1728	-53.514253	0.000223	2.229936	0.755523	0.000089
1629	1.6199e+02	-15.1375	-53.393139	0.000304	3.040821	1.030258	0.000122
1630	1.6209e+02	-15.1087	-53.336619	0.000142	1.419050	0.480787	0.000057
1631	1.6219e+02	-15.0621	-53.211468	0.000314	3.142182	1.064600	0.000126
1632	1.6228e+02	-15.0301	-53.106502	0.000264	2.635379	0.892890	0.000105
1633	1.6238e+02	-14.9867	-53.062094	0.000111	1.114968	0.377761	0.000045
1634	1.6248e+02	-14.9482	-52.945017	0.000294	2.939461	0.995916	0.000118
1635	1.6258e+02	-14.9097	-52.848125	0.000243	2.432657	0.824207	0.000097
1636	1.6268e+02	-14.8680	-52.739123	0.000274	2.736739	0.927232	0.000110
1637	1.6278e+02	-14.8359	-52.674529	0.000162	1.621771	0.549471	0.000065
1638	1.6288e+02	-14.7862	-52.589749	0.000213	2.128575	0.721181	0.000085
1639	1.6298e+02	-14.7541	-52.472672	0.000294	2.939461	0.995916	0.000118
1640	1.6308e+02	-14.7140	-52.347521	0.000314	3.142182	1.064600	0.000126
1641	1.6318e+02	-14.6723	-52.270815	0.000193	1.925854	0.652497	0.000077
1642	1.6328e+02	-14.6242	-52.177961	0.000233	2.331296	0.789865	0.000093
1643	1.6338e+02	-14.5841	-52.081070	0.000243	2.432657	0.824207	0.000097
1644	1.6348e+02	-14.5408	-51.980141	0.000253	2.534018	0.858548	0.000101
1645	1.6358e+02	-14.5039	-51.891324	0.000223	2.229936	0.755523	0.000089
1646	1.6368e+02	-14.4654	-51.818656	0.000182	1.824493	0.618155	0.000073
1647	1.6378e+02	-14.4301	-51.705616	0.000284	2.838100	0.961574	0.000114
1648	1.6388e+02	-14.3884	-51.628910	0.000193	1.925854	0.652497	0.000077
1649	1.6398e+02	-14.3531	-51.507796	0.000304	3.040821	1.030258	0.000122
1650	1.6408e+02	-14.3114	-51.431091	0.000193	1.925854	0.652497	0.000077
1651	1.6418e+02	-14.2616	-51.318051	0.000284	2.838100	0.961574	0.000114
1652	1.6427e+02	-14.2295	-51.225197	0.000233	2.331296	0.789865	0.000093
1653	1.6437e+02	-14.1894	-51.128306	0.000243	2.432657	0.824207	0.000097
1654	1.6447e+02	-14.1365	-51.023340	0.000264	2.635379	0.892890	0.000105
1655	1.6457e+02	-14.1172	-50.938560	0.000213	2.128575	0.721181	0.000085
1656	1.6467e+02	-14.0611	-50.813409	0.000314	3.142182	1.064600	0.000126
1657	1.6477e+02	-14.0322	-50.712481	0.000253	2.534018	0.858548	0.000101
1658	1.6487e+02	-13.9825	-50.619626	0.000233	2.331296	0.789865	0.000093
1659	1.6497e+02	-13.9488	-50.550995	0.000172	1.723132	0.583813	0.000069
1660	1.6507e+02	-13.9119	-50.450067	0.000253	2.534018	0.858548	0.000101
1661	1.6517e+02	-13.8734	-50.332990	0.000294	2.939461	0.995916	0.000118
1662	1.6527e+02	-13.8253	-50.252247	0.000203	2.027214	0.686839	0.000081
1663	1.6537e+02	-13.7852	-50.110947	0.000355	3.547625	1.201968	0.000142
1664	1.6547e+02	-13.7515	-50.001945	0.000274	2.736739	0.927232	0.000110
1665	1.6557e+02	-13.7162	-49.921202	0.000203	2.027214	0.686839	0.000081
1666	1.6567e+02	-13.6729	-49.796051	0.000314	3.142182	1.064600	0.000126
1667	1.6577e+02	-13.6231	-49.699160	0.000243	2.432657	0.824207	0.000097
1668	1.6587e+02	-13.5846	-49.578045	0.000304	3.040821	1.030258	0.000122
1669	1.6597e+02	-13.5558	-49.501340	0.000193	1.925854	0.652497	0.000077
1670	1.6607e+02	-13.5125	-49.372152	0.000324	3.243543	1.098942	0.000130
1671	1.6616e+02	-13.4707	-49.295446	0.000193	1.925854	0.652497	0.000077
1672	1.6626e+02	-13.4258	-49.162220	0.000334	3.344904	1.133284	0.000134
1673	1.6636e+02	-13.3921	-49.069366	0.000233	2.331296	0.789865	0.000093
1674	1.6646e+02	-13.3520	-48.960364	0.000274	2.736739	0.927232	0.000110
1675	1.6656e+02	-13.3071	-48.907881	0.000132	1.317689	0.446445	0.000053
1676	1.6666e+02	-13.2734	-48.770618	0.000345	3.446264	1.167626	0.000138
1677	1.6676e+02	-13.2285	-48.649504	0.000304	3.040821	1.030258	0.000122
1678	1.6686e+02	-13.1916	-48.576836	0.000182	1.824493	0.618155	0.000073
1679	1.6696e+02	-13.1643	-48.455722	0.000304	3.040821	1.030258	0.000122
1680	1.6706e+02	-13.1114	-48.370942	0.000213	2.128575	0.721181	0.000085
1681	1.6716e+02	-13.0777	-48.241754	0.000324	3.243543	1.098942	0.000130
1682	1.6726e+02	-13.0328	-48.156974	0.000213	2.128575	0.721181	0.000085
1683	1.6736e+02	-12.9895	-48.027785	0.000324	3.243543	1.098942	0.000130
1684	1.6746e+02	-12.9590	-47.943005	0.000213	2.128575	0.721181	0.000085
1685	1.6756e+02	-12.9125	-47.821891	0.000304	3.040821	1.030258	0.000122
1686	1.6766e+02	-12.8756	-47.725000	0.000243	2.432657	0.824207	0.000097
1687	1.6776e+02	-12.8274	-47.636183	0.000223	2.229936	0.755523	0.000089
1688	1.6786e+02	-12.7954	-47.519106	0.000294	2.939461	0.995916	0.000118
1689	1.6796e+02	-12.7601	-47.442401	0.000193	1.925854	0.652497	0.000077
1690	1.6806e+02	-12.7103	-47.272841	0.000426	4.257150	1.442361	0.000170
1691	1.6816e+02	-12.6734	-47.224395	0.000122	1.216329	0.412103	0.000049
1692	1.6825e+02	-12.6414	-47.091170	0.000334	3.344904	1.133284	0.000134
1693	1.6835e+02	-12.5964	-46.994279	0.000243	2.432657	0.824207	0.000097
1694	1.6845e+02	-12.5531	-46.873164	0.000304	3.040821	1.030258	0.000122
1695	1.6855e+02	-12.5178	-46.780310	0.000233	2.331296	0.789865	0.000093
1696	1.6865e+02	-12.4825	-46.663233	0.000294	2.939461	0.995916	0.000118
1697	1.6875e+02	-12.4328	-46.574416	0.000223	2.229936	0.755523	0.000089
1698	1.6885e+02	-12.3911	-46.437154	0.000345	3.446264	1.167626	0.000138
1699	1.6895e+02	-12.3574	-46.328151	0.000274	2.736739	0.927232	0.000110
1700	1.6905e+02	-12.3189	-46.203000	0.000314	3.142182	1.064600	0.000126
1701	1.6915e+02	-12.2772	-46.122257	0.000203	2.027214	0.686839	0.000081
1702	1.6925e+02	-12.2371	-45.989032	0.000334	3.344904	1.133284	0.000134
1703	1.6935e+02	-12.1906	-45.924438	0.000162	1.621771	0.549471	0.000065
1704	1.6945e+02	-12.1585	-45.799286	0.000314	3.142182	1.064600	0.000126
1705	1.6955e+02	-12.1184	-45.649912	0.000375	3.750346	1.270652	0.000150
1706	1.6965e+02	-12.0863	-45.597430	0.000132	1.317689	0.446445	0.000053
1707	1.6975e+02	-12.0366	-45.456130	0.000355	3.547625	1.201968	0.000142
1708	1.6985e+02	-11.9932	-45.298682	0.000395	3.953068	1.339336	0.000158
1709	1.6995e+02	-11.9563	-45.221976	0.000193	1.925854	0.652497	0.000077
1710	1.7005e+02	-11.9162	-45.121048	0.000253	2.534018	0.858548	0.000101
1711	1.7015e+02	-11.8793	-45.036268	0.000213	2.128575	0.721181	0.000085
1712	1.7024e+02	-11.8376	-44.903042	0.000334	3.344904	1.133284	0.000134
1713	1.7034e+02	-11.8023	-44.834411	0.000172	1.723132	0.583813	0.000069
1714	1.7044e+02	-11.7542	-44.668888	0.000416	4.155789	1.408020	0.000166
1715	1.7054e+02	-11.7221	-44.567960	0.000253	2.534018	0.858548	0.000101
1716	1.7064e+02	-11.6756	-44.467032	0.000253	2.534018	0.858548	0.000101
1717	1.7074e+02	-11.6419	-44.341880	0.000314	3.142182	1.064600	0.000126
1718	1.7084e+02	-11.6050	-44.224803	0.000294	2.939461	0.995916	0.000118
1719	1.7094e+02	-11.5585	-44.135986	0.000223	2.229936	0.755523	0.000089
1720	1.7104e+02	-11.5216	-44.002761	0.000334	3.344904	1.133284	0.000134
1721	1.7114e+02	-11.4767	-43.885684	0.000294	2.939461	0.995916	0.000118
1722	1.7124e+02	-11.4366	-43.768607	0.000294	2.939461	0.995916	0.000118
1723	1.7134e+02	-11.4061	-43.627307	0.000355	3.547625	1.201968	0.000142
1724	1.7144e+02	-11.3628	-43.530416	0.000243	2.432657	0.824207	0.000097
1725	1.7154e+02	-11.3227	-43.413339	0.000294	2.939461	0.995916	0.000118
1726	1.7164e+02	-11.2842	-43.336634	0.000193	1.925854	0.652497	0.000077
1727	1.7174e+02	-11.2393	-43.199371	0.000345	3.446264	1.167626	0.000138
1728	1.7184e+02	-11.2088	-43.074220	0.000314	3.142182	1.064600	0.000126
1729	1.7194e+02	-11.1526	-42.965217	0.000274	2.736739	0.927232	0.000110
1730	1.7204e+02	-11.1157	-42.868326	0.000243	2.432657	0.824207	0.000097
1731	1.7213e+02	-11.0788	-42.731063	0.000345	3.446264	1.167626	0.000138
1732	1.7223e+02	-11.0339	-42.613986	0.000294	2.939461	0.995916	0.000118
1733	1.7233e+02	-10.9906	-42.496909	0.000294	2.939461	0.995916	0.000118
1734	1.7243e+02	-10.9617	-42.363684	0.000334	3.344904	1.133284	0.000134
1735	1.7253e+02	-10.9264	-42.278904	0.000213	2.128575	0.721181	0.000085
1736	1.7263e+02	-10.8847	-42.133567	0.000365	3.648986	1.236310	0.000146
1737	1.7273e+02	-10.8414	-42.008416	0.000314	3.142182	1.064600	0.000126
1738	1.7283e+02	-10.8061	-41.935747	0.000182	1.824493	0.618155	0.000073
1739	1.7293e+02	-10.7708	-41.826745	0.000274	2.736739	0.927232	0.000110
1740	1.7303e+02	-10.7131	-41.693519	0.000334	3.344904	1.133284	0.000134
1741	1.7313e+02	-10.6922	-41.604702	0.000223	2.229936	0.755523	0.000089
1742	1.7323e+02	-10.6409	-41.511848	0.000233	2.331296	0.789865	0.000093
1743	1.7333e+02	-10.6024	-41.366511	0.000365	3.648986	1.236310	0.000146
1744	1.7343e+02	-10.5575	-41.241360	0.000314	3.142182	1.064600	0.000126
1745	1.7353e+02	-10.5254	-41.156580	0.000213	2.128575	0.721181	0.000085
1746	1.7363e+02	-10.4933	-41.055652	0.000253	2.534018	0.858548	0.000101
1747	1.7373e+02	-10.4403	-40.910315	0.000365	3.648986	1.236310	0.000146
1748	1.7383e+02	-10.4018	-40.793238	0.000294	2.939461	0.995916	0.000118
1749	1.7393e+02	-10.3617	-40.684235	0.000274	2.736739	0.927232	0.000110
1750	1.7403e+02	-10.3264	-40.559084	0.000314	3.142182	1.064600	0.000126
1751	1.7413e+02	-10.2863	-40.454119	0.000264	2.635379	0.892890	0.000105
1752	1.7422e+02	-10.2494	-40.333005	0.000304	3.040821	1.030258	0.000122
1753	1.7432e+02	-10.2077	-40.264373	0.000172	1.723132	0.583813	0.000069
1754	1.7442e+02	-10.1596	-40.110962	0.000385	3.851707	1.304994	0.000154
1755	1.7452e+02	-10.1259	-40.038294	0.000182	1.824493	0.618155	0.000073
1756	1.7462e+02	-10.0746	-39.913142	0.000314	3.142182	1.064600	0.000126
1757	1.7472e+02	-10.0425	-39.832400	0.000203	2.027214	0.686839	0.000081
1758	1.7482e+02	-10.0088	-39.683026	0.000375	3.750346	1.270652	0.000150
1759	1.7492e+02	-9.9671	-39.590172	0.000233	2.331296	0.789865	0.000093
1760	1.7502e+02	-9.9238	-39.489243	0.000253	2.534018	0.858548	0.000101
1761	1.7512e+02	-9.8789	-39.315646	0.000436	4.358511	1.476703	0.000174
1762	1.7522e+02	-9.8307	-39.206644	0.000274	2.736739	0.927232	0.000110
1763	1.7532e+02	-9.8147	-39.129938	0.000193	1.925854	0.652497	0.000077
1764	1.7542e+02	-9.7666	-39.004787	0.000314	3.142182	1.064600	0.000126
1765	1.7552e+02	-9.7313	-38.855413	0.000375	3.750346	1.270652	0.000150
1766	1.7562e+02	-9.6848	-38.738336	0.000294	2.939461	0.995916	0.000118
1767	1.7572e+02	-9.6511	-38.665668	0.000182	1.824493	0.618155	0.000073
1768	1.7582e+02	-9.6029	-38.552628	0.000284	2.838100	0.961574	0.000114
1769	1.7592e+02	-9.5644	-38.443625	0.000274	2.736739	0.927232	0.000110
1770	1.7602e+02	-9.5179	-38.306362	0.000345	3.446264	1.167626	0.000138
1771	1.7612e+02	-9.4922	-38.201397	0.000264	2.635379	0.892890	0.000105
1772	1.7621e+02	-9.4489	-38.096431	0.000264	2.635379	0.892890	0.000105
1773	1.7631e+02	-9.4040	-37.975317	0.000304	3.040821	1.030258	0.000122
1774	1.7641e+02	-9.3735	-37.846129	0.000324	3.243543	1.098942	0.000130
1775	1.7651e+02	-9.3190	-37.745201	0.000253	2.534018	0.858548	0.000101
1776	1.7661e+02	-9.2933	-37.628124	0.000294	2.939461	0.995916	0.000118
1777	1.7671e+02	-9.2468	-37.498935	0.000324	3.243543	1.098942	0.000130
1778	1.7681e+02	-9.2115	-37.353598	0.000365	3.648986	1.236310	0.000146
1779	1.7691e+02	-9.1730	-37.293041	0.000152	1.520411	0.515129	0.000061
1780	1.7701e+02	-9.1313	-37.171927	0.000304	3.040821	1.030258	0.000122
1781	1.7711e+02	-9.0880	-37.070999	0.000253	2.534018	0.858548	0.000101
1782	1.7721e+02	-9.0463	-36.953922	0.000294	2.939461	0.995916	0.000118
1783	1.7731e+02	-9.0046	-36.824734	0.000324	3.243543	1.098942	0.000130
1784	1.7741e+02	-8.9709	-36.703620	0.000304	3.040821	1.030258	0.000122
1785	1.7751e+02	-8.9308	-36.614803	0.000223	2.229936	0.755523	0.000089
1786	1.7761e+02	-8.8874	-36.457354	0.000395	3.953068	1.339336	0.000158
1787	1.7771e+02	-8.8489	-36.360463	0.000243	2.432657	0.824207	0.000097
1788	1.7781e+02	-8.8121	-36.231275	0.000324	3.243543	1.098942	0.000130
1789	1.7791e+02	-8.7671	-36.102086	0.000324	3.243543	1.098942	0.000130
1790	1.7801e+02	-8.7302	-35.972898	0.000324	3.243543	1.098942	0.000130
1791	1.7810e+02	-8.6933	-35.871970	0.000253	2.534018	0.858548	0.000101
1792	1.7820e+02	-8.6468	-35.775078	0.000243	2.432657	0.824207	0.000097
1793	1.7830e+02	-8.6051	-35.662039	0.000284	2.838100	0.961574	0.000114
1794	1.7840e+02	-8.5650	-35.540924	0.000304	3.040821	1.030258	0.000122
1795	1.7850e+02	-8.5297	-35.444033	0.000243	2.432657	0.824207	0.000097
1796	1.7860e+02	-8.4928	-35.290622	0.000385	3.851707	1.304994	0.000154
1797	1.7870e+02	-8.4527	-35.181619	0.000274	2.736739	0.927232	0.000110
1798	1.7880e+02	-8.4142	-35.088765	0.000233	2.331296	0.789865	0.000093
1799	1.7890e+02	-8.3693	-34.983800	0.000264	2.635379	0.892890	0.000105
1800	1.7900e+02	-8.3356	-34.826351	0.000395	3.953068	1.339336	0.000158
1801	1.7910e+02	-8.2843	-34.753683	0.000182	1.824493	0.618155	0.000073
1802	1.7920e+02	-8.2474	-34.616420	0.000345	3.446264	1.167626	0.000138
1803	1.7930e+02	-8.2073	-34.471083	0.000365	3.648986	1.236310	0.000146
1804	1.7940e+02	-8.1752	-34.390341	0.000203	2.027214	0.686839	0.000081
1805	1.7950e+02	-8.1319	-34.265190	0.000314	3.142182	1.064600	0.000126
1806	1.7960e+02	-8.0853	-34.180410	0.000213	2.128575	0.721181	0.000085
1807	1.7970e+02	-8.0516	-34.051221	0.000324	3.243543	1.098942	0.000130
1808	1.7980e+02	-8.0131	-33.917996	0.000334	3.344904	1.133284	0.000134
1809	1.7990e+02	-7.9746	-33.788808	0.000324	3.243543	1.098942	0.000130
1810	1.8000e+02	-7.9313	-33.655582	0.000334	3.344904	1.133284	0.000134
1811	1.8009e+02	-7.8944	-33.558691	0.000243	2.432657	0.824207	0.000097
1812	1.8019e+02	-7.8559	-33.445651	0.000284	2.838100	0.961574	0.000114
1813	1.8029e+02	-7.8062	-33.304351	0.000355	3.547625	1.201968	0.000142
1814	1.8039e+02	-7.7661	-33.207460	0.000243	2.432657	0.824207	0.000097
1815	1.8049e+02	-7.7372	-33.094420	0.000284	2.838100	0.961574	0.000114
1816	1.8059e+02	-7.6971	-32.985418	0.000274	2.736739	0.927232	0.000110
1817	1.8069e+02	-7.6458	-32.840081	0.000365	3.648986	1.236310	0.000146
1818	1.8079e+02	-7.6041	-32.767412	0.000182	1.824493	0.618155	0.000073
1819	1.8089e+02	-7.5784	-32.638224	0.000324	3.243543	1.098942	0.000130
1820	1.8099e+02	-7.5319	-32.492887	0.000365	3.648986	1.236310	0.000146
1821	1.8109e+02	-7.5014	-32.371773	0.000304	3.040821	1.030258	0.000122
1822	1.8119e+02	-7.4565	-32.270845	0.000253	2.534018	0.858548	0.000101
1823	1.8129e+02	-7.4196	-32.169916	0.000253	2.534018	0.858548	0.000101
1824	1.8139e+02	-7.3698	-32.024579	0.000365	3.648986	1.236310	0.000146
1825	1.8149e+02	-7.3378	-31.923651	0.000253	2.534018	0.858548	0.000101
1826	1.8159e+02	-7.2880	-31.754091	0.000426	4.257150	1.442361	0.000170
1827	1.8169e+02	-7.2543	-31.657200	0.000243	2.432657	0.824207	0.000097
1828	1.8179e+02	-7.2110	-31.540123	0.000294	2.939461	0.995916	0.000118
1829	1.8189e+02	-7.1838	-31.386712	0.000385	3.851707	1.304994	0.000154
1830	1.8199e+02	-7.1340	-31.301932	0.000213	2.128575	0.721181	0.000085
1831	1.8209e+02	-7.0923	-31.168706	0.000334	3.344904	1.133284	0.000134
1832	1.8218e+02	-7.0618	-30.995110	0.000436	4.358511	1.476703	0.000174
1833	1.8228e+02	-7.0121	-30.942627	0.000132	1.317689	0.446445	0.000053
1834	1.8238e+02	-6.9768	-30.785179	0.000395	3.953068	1.339336	0.000158
1835	1.8248e+02	-6.9431	-30.660027	0.000314	3.142182	1.064600	0.000126
1836	1.8258e+02	-6.8998	-30.526802	0.000334	3.344904	1.133284	0.000134
1837	1.8268e+02	-6.8549	-30.417799	0.000274	2.736739	0.927232	0.000110
1838	1.8278e+02	-6.8148	-30.260351	0.000395	3.953068	1.339336	0.000158
1839	1.8288e+02	-6.7779	-30.123088	0.000345	3.446264	1.167626	0.000138
1840	1.8298e+02	-6.7378	-30.014086	0.000274	2.736739	0.927232	0.000110
1841	1.8308e+02	-6.6961	-29.860674	0.000385	3.851707	1.304994	0.000154
1842	1.8318e+02	-6.6576	-29.763783	0.000243	2.432657	0.824207	0.000097
1843	1.8328e+02	-6.6126	-29.666892	0.000243	2.432657	0.824207	0.000097
1844	1.8338e+02	-6.5822	-29.513481	0.000385	3.851707	1.304994	0.000154
1845	1.8348e+02	-6.5405	-29.416590	0.000243	2.432657	0.824207	0.000097
1846	1.8358e+02	-6.5020	-29.226844	0.000476	4.763954	1.614071	0.000191
1847	1.8368e+02	-6.4538	-29.125916	0.000253	2.534018	0.858548	0.000101
1848	1.8378e+02	-6.4185	-29.016913	0.000274	2.736739	0.927232	0.000110
1849	1.8388e+02	-6.3881	-28.855428	0.000405	4.054429	1.373678	0.000162
1850	1.8398e+02	-6.3415	-28.750462	0.000264	2.635379	0.892890	0.000105
1851	1.8407e+02	-6.2998	-28.641459	0.000274	2.736739	0.927232	0.000110
1852	1.8417e+02	-6.2549	-28.516308	0.000314	3.142182	1.064600	0.000126
1853	1.8427e+02	-6.2228	-28.366934	0.000375	3.750346	1.270652	0.000150
1854	1.8437e+02	-6.1747	-28.294266	0.000182	1.824493	0.618155	0.000073
1855	1.8447e+02	-6.1458	-28.072223	0.000557	5.574839	1.888807	0.000223
1856	1.8457e+02	-6.1137	-27.983406	0.000223	2.229936	0.755523	0.000089
1857	1.8467e+02	-6.0608	-27.862292	0.000304	3.040821	1.030258	0.000122
1858	1.8477e+02	-6.0255	-27.741178	0.000304	3.040821	1.030258	0.000122
1859	1.8487e+02	-5.9886	-27.575656	0.000416	4.155789	1.408020	0.000166
1860	1.8497e+02	-5.9421	-27.450504	0.000314	3.142182	1.064600	0.000126
1861	1.8507e+02	-5.9052	-27.333428	0.000294	2.939461	0.995916	0.000118
1862	1.8517e+02	-5.8474	-27.224425	0.000274	2.736739	0.927232	0.000110
1863	1.8527e+02	-5.8266	-27.079088	0.000365	3.648986	1.236310	0.000146
1864	1.8537e+02	-5.7784	-26.949900	0.000324	3.243543	1.098942	0.000130
1865	1.8547e+02	-5.7496	-26.784377	0.000416	4.155789	1.408020	0.000166
1866	1.8557e+02	-5.6966	-26.655189	0.000324	3.243543	1.098942	0.000130
1867	1.8567e+02	-5.6565	-26.521963	0.000334	3.344904	1.133284	0.000134
1868	1.8577e+02	-5.6164	-26.396812	0.000314	3.142182	1.064600	0.000126
1869	1.8587e+02	-5.5908	-26.303958	0.000233	2.331296	0.789865	0.000093
1870	1.8597e+02	-5.5506	-26.158621	0.000365	3.648986	1.236310	0.000146
1871	1.8606e+02	-5.4977	-25.993098	0.000416	4.155789	1.408020	0.000166
1872	1.8616e+02	-5.4656	-25.900244	0.000233	2.331296	0.789865	0.000093
1873	1.8626e+02	-5.4255	-25.746833	0.000385	3.851707	1.304994	0.000154
1874	1.8636e+02	-5.3774	-25.605533	0.000355	3.547625	1.201968	0.000142
1875	1.8646e+02	-5.3405	-25.464234	0.000355	3.547625	1.201968	0.000142
1876	1.8656e+02	-5.3004	-25.359268	0.000264	2.635379	0.892890	0.000105
1877	1.8666e+02	-5.2699	-25.213931	0.000365	3.648986	1.236310	0.000146
1878	1.8676e+02	-5.2202	-25.072632	0.000355	3.547625	1.201968	0.000142
1879	1.8686e+02	-5.1961	-24.931332	0.000355	3.547625	1.201968	0.000142
1880	1.8696e+02	-5.1480	-24.842515	0.000223	2.229936	0.755523	0.000089
1881	1.8706e+02	-5.1095	-24.693141	0.000375	3.750346	1.270652	0.000150
1882	1.8716e+02	-5.0742	-24.531655	0.000405	4.054429	1.373678	0.000162
1883	1.8726e+02	-5.0261	-24.349984	0.000456	4.561232	1.545387	0.000183
1884	1.8736e+02	-4.9924	-24.249056	0.000253	2.534018	0.858548	0.000101
1885	1.8746e+02	-4.9410	-24.083533	0.000416	4.155789	1.408020	0.000166
1886	1.8756e+02	-4.9041	-23.982605	0.000253	2.534018	0.858548	0.000101
1887	1.8766e+02	-4.8737	-23.853417	0.000324	3.243543	1.098942	0.000130
1888	1.8776e+02	-4.8336	-23.708080	0.000365	3.648986	1.236310	0.000146
1889	1.8786e+02	-4.7951	-23.518334	0.000476	4.763954	1.614071	0.000191
1890	1.8796e+02	-4.7405	-23.429517	0.000223	2.229936	0.755523	0.000089
1891	1.8806e+02	-4.7036	-23.280143	0.000375	3.750346	1.270652	0.000150
1892	1.8815e+02	-4.6683	-23.146918	0.000334	3.344904	1.133284	0.000134
1893	1.8825e+02	-4.6218	-22.985432	0.000405	4.054429	1.373678	0.000162
1894	1.8835e+02	-4.5961	-22.872393	0.000284	2.838100	0.961574	0.000114
1895	1.8845e+02	-4.5432	-22.714944	0.000395	3.953068	1.339336	0.000158
1896	1.8855e+02	-4.5047	-22.541347	0.000436	4.358511	1.476703	0.000174
1897	1.8865e+02	-4.4726	-22.460605	0.000203	2.027214	0.686839	0.000081
1898	1.8875e+02	-4.4277	-22.307194	0.000385	3.851707	1.304994	0.000154
1899	1.8885e+02	-4.3876	-22.165894	0.000355	3.547625	1.201968	0.000142
1900	1.8895e+02	-4.3523	-22.012483	0.000385	3.851707	1.304994	0.000154
1901	1.8905e+02	-4.3009	-21.867146	0.000365	3.648986	1.236310	0.000146
1902	1.8915e+02	-4.2689	-21.717772	0.000375	3.750346	1.270652	0.000150
1903	1.8925e+02	-4.2272	-21.604732	0.000284	2.838100	0.961574	0.000114
1904	1.8935e+02	-4.1919	-21.487655	0.000294	2.939461	0.995916	0.000118
1905	1.8945e+02	-4.1437	-21.310021	0.000446	4.459871	1.511045	0.000179
1906	1.8955e+02	-4.1165	-21.192944	0.000294	2.939461	0.995916	0.000118
1907	1.8965e+02	-4.0651	-21.023384	0.000426	4.257150	1.442361	0.000170
1908	1.8975e+02	-4.0186	-20.906307	0.000294	2.939461	0.995916	0.000118
1909	1.8985e+02	-3.9881	-20.765008	0.000355	3.547625	1.201968	0.000142
1910	1.8995e+02	-3.9512	-20.627745	0.000345	3.446264	1.167626	0.000138
1911	1.9004e+02	-3.9079	-20.530854	0.000243	2.432657	0.824207	0.000097
1912	1.9014e+02	-3.8742	-20.337071	0.000487	4.865314	1.648413	0.000195
1913	1.9024e+02	-3.8309	-20.195772	0.000355	3.547625	1.201968	0.000142
1914	1.9034e+02	-3.7860	-20.062546	0.000334	3.344904	1.133284	0.000134
1915	1.9044e+02	-3.7475	-19.901061	0.000405	4.054429	1.373678	0.000162
1916	1.9054e+02	-3.7026	-19.763798	0.000345	3.446264	1.167626	0.000138
1917	1.9064e+02	-3.6737	-19.638647	0.000314	3.142182	1.064600	0.000126
1918	1.9074e+02	-3.6272	-19.513496	0.000314	3.142182	1.064600	0.000126
1919	1.9084e+02	-3.5983	-19.408530	0.000264	2.635379	0.892890	0.000105
1920	1.9094e+02	-3.5598	-19.218785	0.000476	4.763954	1.614071	0.000191
1921	1.9104e+02	-3.5036	-19.085559	0.000334	3.344904	1.133284	0.000134
1922	1.9114e+02	-3.4667	-18.948297	0.000345	3.446264	1.167626	0.000138
1923	1.9124e+02	-3.4298	-18.790848	0.000395	3.953068	1.339336	0.000158
1924	1.9134e+02	-3.3930	-18.661660	0.000324	3.243543	1.098942	0.000130
1925	1.9144e+02	-3.3512	-18.512286	0.000375	3.750346	1.270652	0.000150
1926	1.9154e+02	-3.3095	-18.415395	0.000243	2.432657	0.824207	0.000097
1927	1.9164e+02	-3.2742	-18.278132	0.000345	3.446264	1.167626	0.000138
1928	1.9174e+02	-3.2357	-18.096461	0.000456	4.561232	1.545387	0.000183
1929	1.9184e+02	-3.1956	-17.955161	0.000355	3.547625	1.201968	0.000142
1930	1.9194e+02	-3.1523	-17.850196	0.000264	2.635379	0.892890	0.000105
1931	1.9203e+02	-3.1138	-17.716970	0.000334	3.344904	1.133284	0.000134
1932	1.9213e+02	-3.0689	-17.575670	0.000355	3.547625	1.201968	0.000142
1933	1.9223e+02	-3.0352	-17.410148	0.000416	4.155789	1.408020	0.000166
1934	1.9233e+02	-2.9951	-17.248662	0.000405	4.054429	1.373678	0.000162
1935	1.9243e+02	-2.9550	-17.127548	0.000304	3.040821	1.030258	0.000122
1936	1.9253e+02	-2.9181	-16.962026	0.000416	4.155789	1.408020	0.000166
1937	1.9263e+02	-2.8732	-16.865135	0.000243	2.432657	0.824207	0.000097
1938	1.9273e+02	-2.8331	-16.707686	0.000395	3.953068	1.339336	0.000158
1939	1.9283e+02	-2.7882	-16.586572	0.000304	3.040821	1.030258	0.000122
1940	1.9293e+02	-2.7529	-16.421050	0.000416	4.155789	1.408020	0.000166
1941	1.9303e+02	-2.7144	-16.275713	0.000365	3.648986	1.236310	0.000146
1942	1.9313e+02	-2.6759	-16.122302	0.000385	3.851707	1.304994	0.000154
1943	1.9323e+02	-2.6325	-15.989076	0.000334	3.344904	1.133284	0.000134
1944	1.9333e+02	-2.5956	-15.859888	0.000324	3.243543	1.098942	0.000130
1945	1.9343e+02	-2.5523	-15.726662	0.000334	3.344904	1.133284	0.000134
1946	1.9353e+02	-2.5138	-15.532880	0.000487	4.865314	1.648413	0.000195
1947	1.9363e+02	-2.4689	-15.411766	0.000304	3.040821	1.030258	0.000122
1948	1.9373e+02	-2.4368	-15.282577	0.000324	3.243543	1.098942	0.000130
1949	1.9383e+02	-2.3951	-15.096869	0.000466	4.662593	1.579729	0.000187
1950	1.9393e+02	-2.3598	-14.975755	0.000304	3.040821	1.030258	0.000122
1951	1.9403e+02	-2.3101	-14.834455	0.000355	3.547625	1.201968	0.000142
1952	1.9412e+02	-2.2764	-14.705267	0.000324	3.243543	1.098942	0.000130
1953	1.9422e+02	-2.2459	-14.551856	0.000385	3.851707	1.304994	0.000154
1954	1.9432e+02	-2.2026	-14.374222	0.000446	4.459871	1.511045	0.000179
1955	1.9442e+02	-2.1513	-14.261182	0.000284	2.838100	0.961574	0.000114
1956	1.9452e+02	-2.1112	-14.123919	0.000345	3.446264	1.167626	0.000138
1957	1.9462e+02	-2.0791	-13.974545	0.000375	3.750346	1.270652	0.000150
1958	1.9472e+02	-2.0374	-13.837283	0.000345	3.446264	1.167626	0.000138
1959	1.9482e+02	-1.9941	-13.671760	0.000416	4.155789	1.408020	0.000166
1960	1.9492e+02	-1.9572	-13.534498	0.000345	3.446264	1.167626	0.000138
1961	1.9502e+02	-1.9219	-13.417421	0.000294	2.939461	0.995916	0.000118
1962	1.9512e+02	-1.8753	-13.231712	0.000466	4.662593	1.579729	0.000187
1963	1.9522e+02	-1.8401	-13.078301	0.000385	3.851707	1.304994	0.000154
1964	1.9532e+02	-1.7983	-12.953150	0.000314	3.142182	1.064600	0.000126
1965	1.9542e+02	-1.7518	-12.791665	0.000405	4.054429	1.373678	0.000162
1966	1.9552e+02	-1.7246	-12.654402	0.000345	3.446264	1.167626	0.000138
1967	1.9562e+02	-1.6812	-12.484842	0.000426	4.257150	1.442361	0.000170
1968	1.9572e+02	-1.6443	-12.323357	0.000405	4.054429	1.373678	0.000162
1969	1.9582e+02	-1.6010	-12.202243	0.000304	3.040821	1.030258	0.000122
1970	1.9592e+02	-1.5689	-12.044794	0.000395	3.953068	1.339336	0.000158
1971	1.9601e+02	-1.5128	-11.911569	0.000334	3.344904	1.133284	0.000134
1972	1.9611e+02	-1.4759	-11.746046	0.000416	4.155789	1.408020	0.000166
1973	1.9621e+02	-1.4390	-11.628969	0.000294	2.939461	0.995916	0.000118
1974	1.9631e+02	-1.3925	-11.479595	0.000375	3.750346	1.270652	0.000150
1975	1.9641e+02	-1.3588	-11.322147	0.000395	3.953068	1.339336	0.000158
1976	1.9651e+02	-1.3171	-11.156625	0.000416	4.155789	1.408020	0.000166
1977	1.9661e+02	-1.2770	-11.035511	0.000304	3.040821	1.030258	0.000122
1978	1.9671e+02	-1.2385	-10.878062	0.000395	3.953068	1.339336	0.000158
1979	1.9681e+02	-1.2016	-10.773097	0.000264	2.635379	0.892890	0.000105
1980	1.9691e+02	-1.1647	-10.599500	0.000436	4.358511	1.476703	0.000174
1981	1.9701e+02	-1.1262	-10.433977	0.000416	4.155789	1.408020	0.000166
1982	1.9711e+02	-1.0732	-10.300752	0.000334	3.344904	1.133284	0.000134
1983	1.9721e+02	-1.0492	-10.159452	0.000355	3.547625	1.201968	0.000142
1984	1.9731e+02	-0.9962	-9.993930	0.000416	4.155789	1.408020	0.000166
1985	1.9741e+02	-0.9657	-9.860704	0.000334	3.344904	1.133284	0.000134
1986	1.9751e+02	-0.9112	-9.751701	0.000274	2.736739	0.927232	0.000110
1987	1.9761e+02	-0.8759	-9.574067	0.000446	4.459871	1.511045	0.000179
1988	1.9771e+02	-0.8422	-9.384322	0.000476	4.763954	1.614071	0.000191
1989	1.9781e+02	-0.7989	-9.263208	0.000304	3.040821	1.030258	0.000122
1990	1.9791e+02	-0.7588	-9.065388	0.000497	4.966675	1.682755	0.000199
1991	1.9800e+02	-0.7267	-8.936200	0.000324	3.243543	1.098942	0.000130
1992	1.9810e+02	-0.6834	-8.798937	0.000345	3.446264	1.167626	0.000138
1993	1.9820e+02	-0.6337	-8.645526	0.000385	3.851707	1.304994	0.000154
1994	1.9830e+02	-0.5968	-8.484041	0.000405	4.054429	1.373678	0.000162
1995	1.9840e+02	-0.5567	-8.310444	0.000436	4.358511	1.476703	0.000174
1996	1.9850e+02	-0.5246	-8.173181	0.000345	3.446264	1.167626	0.000138
1997	1.9860e+02	-0.4797	-8.007659	0.000416	4.155789	1.408020	0.000166
1998	1.9870e+02	-0.4412	-7.821950	0.000466	4.662593	1.579729	0.000187
1999	1.9880e+02	-0.4027	-7.696799	0.000314	3.142182	1.064600	0.000126
2000	1.9890e+02	-0.3626	-7.519165	0.000446	4.459871	1.511045	0.000179
2001	1.9900e+02	-0.3257	-7.369791	0.000375	3.750346	1.270652	0.000150
2002	1.9910e+02	-0.2807	-7.212343	0.000395	3.953068	1.339336	0.000158
2003	1.9920e+02	-0.2422	-7.071043	0.000355	3.547625	1.201968	0.000142
2004	1.9930e+02	-0.2053	-6.941855	0.000324	3.243543	1.098942	0.000130
2005	1.9940e+02	-0.1636	-6.752110	0.000476	4.763954	1.614071	0.000191
2006	1.9950e+02	-0.1251	-6.618884	0.000334	3.344904	1.133284	0.000134
2007	1.9960e+02	-0.0818	-6.421064	0.000497	4.966675	1.682755	0.000199
2008	1.9970e+02	-0.0449	-6.303987	0.000294	2.939461	0.995916	0.000118
2009	1.9980e+02	-0.0016	-6.090019	0.000294	2.939461	0.995916	0.000215

Center data before PMax,+/-Pr and +/-Vc Calc.

PMax (uC/cm2):	6.38e+01
Pr (uC/cm2):	2.56e+00
-Pr (uC/cm2):	-6.09e+00
PLoss (uC/cm2):	-3.51e+00
Vc:	6.89e-01
-Vc:	-6.62e-01
C (Max-Eff) (nF):	3.19e-01
K (Eff):	1.08e+03
Vert. (+/-Pr) Shift (uC/cm2):	-1.76e+00
Horiz. Shift (+/-Vc):	1.32e-02
Offset (uC/cm2):	2.58e+00

A (Loop Area - uC/cm2·Volts):	4.46e-02



Hysteresis Version: 5.48.1 - Radiant Technologies, Inc., 1999 - 9/12/24

