»»»»»»»»»»»»»»»»»»»»»»»»»»»»»»»»»»»» Hysteresis ««««««««««««««««««««««««««««««««««««
»»»  Executed Version:	5.48.1
»»»  Vision Version:	5.48.4 (R)
»»»  Vision Compiled:	9/18/24
»»»  Driver Version:	5.47.0
»»»  Windows Version:	Windows 8 or 8.1
»»»  Processor Information:	x86 (AMD or Intel) - 32 Processors
»»»  Tester Name:	PMF21124-494 (100V)
»»»  Tester S/N:	PMF21124-494
»»»  Internal Amp Type:	100V RevK 270k
»»»  Internal Amp S/N:	iAB2-596/K     
»»»  Execution Count:	1
»»»»»»»»»»»»»»»»»»»»»»»»»»»»»»»»»»»»»»»»»»««««««««««««««««««««««««««««««««««««««««««

Stored:	6/9/2025 - 16:5:20
Configured:	06/09/25 02:47:45 PM
Executed:	06/09/25 04:04:51 PM

»»»»»»»»»»»»»»»»»»»»»»»»»»»»»»»»»»» Sample Info ««««««««««««««««««««««««««««««««««««
Sample Name:	
Lot Name:	
Wafer Name:	
Die Row/Column:	0/0
Capacitor Number:	0
Sample Area (cm2):	1.00e-04
Sample Thickness (microns):	3.00e-01

Amplifier:	Internal

»»»»»»»»»»»»»»»»»»»»»»»»»»»»»»»»»»» Tester Info «««««««««««««««««««««««««««««««««««
Tester Name:	PMF21124-494 (100V)
Tester Serial Number:	PMF21124-494
Return Signal Amp. Level:	0.19 [Index: 3]

»»»»»»»»»»»»»»»»»»»»»»»»»»»»»»»» Hysteresis Info ««««««««««««««««««««««««««««««««««
Task Name:	Hyst-927
Volts:	20.00
Field:	666.67 (kV/cm)
DCBias:	0.00
DCField:	0.00 (kV/cm)
Hysteresis Period (ms):	2.00e+02
Preset:	Enabled
Preset Delay (ms):	1.00e+03
Profile:	Standard Bipolar

»»»»»»»»»»»»»»»»»»»»»»»»»»»»»»»»»»»»»» Data «««««««««««««««««««««««««««««««««««««««
Points:	2009

Valid Data

Point	Time (ms)	Drive Voltage	Measured Polarization (uC/cm2)	Capacitance (uF)	Normalized Capacitance (uF/cm2)	Dielectric Constant	Instantaneous Current (mA)
   1	0.0000e+00	-0.0048	-2.321353	0.000233	2.330735	0.789675	0.000093
   2	9.9500e-02	0.0321	-2.228499	0.000233	2.330735	0.789675	0.000093
   3	1.9900e-01	0.0754	-2.083162	0.000365	3.648108	1.236012	0.000146
   4	2.9850e-01	0.1075	-1.982234	0.000253	2.533408	0.858342	0.000101
   5	3.9800e-01	0.1540	-1.857082	0.000314	3.141426	1.064344	0.000126
   6	4.9750e-01	0.1989	-1.740006	0.000294	2.938753	0.995677	0.000118
   7	5.9700e-01	0.2310	-1.635040	0.000263	2.634744	0.892676	0.000105
   8	6.9650e-01	0.2631	-1.497777	0.000345	3.445435	1.167345	0.000138
   9	7.9600e-01	0.3032	-1.392812	0.000263	2.634744	0.892676	0.000105
  10	8.9550e-01	0.3513	-1.279772	0.000284	2.837417	0.961343	0.000114
  11	9.9500e-01	0.3946	-1.174806	0.000263	2.634744	0.892676	0.000105
  12	1.0945e+00	0.4299	-1.021395	0.000385	3.850780	1.304680	0.000154
  13	1.1940e+00	0.4636	-0.916430	0.000263	2.634744	0.892676	0.000105
  14	1.2935e+00	0.5037	-0.763019	0.000385	3.850780	1.304680	0.000154
  15	1.3930e+00	0.5422	-0.666127	0.000243	2.432072	0.824008	0.000097
  16	1.4925e+00	0.5888	-0.516753	0.000375	3.749444	1.270346	0.000150
  17	1.5920e+00	0.6240	-0.399676	0.000294	2.938753	0.995677	0.000118
  18	1.6915e+00	0.6706	-0.266451	0.000334	3.344099	1.133011	0.000134
  19	1.7910e+00	0.7059	-0.109003	0.000395	3.952117	1.339013	0.000158
  20	1.8905e+00	0.7540	-0.020186	0.000223	2.229399	0.755341	0.000089
  21	1.9900e+00	0.7925	0.068631	0.000223	2.229399	0.755341	0.000089
  22	2.0895e+00	0.8246	0.185708	0.000294	2.938753	0.995677	0.000118
  23	2.1890e+00	0.8663	0.339119	0.000385	3.850780	1.304680	0.000154
  24	2.2885e+00	0.9048	0.440048	0.000253	2.533408	0.858342	0.000101
  25	2.3880e+00	0.9465	0.605570	0.000415	4.154789	1.407681	0.000166
  26	2.4875e+00	0.9882	0.730722	0.000314	3.141426	1.064344	0.000126
  27	2.5870e+00	1.0331	0.839724	0.000274	2.736081	0.927009	0.000110
  28	2.6865e+00	1.0668	0.972950	0.000334	3.344099	1.133011	0.000134
  29	2.7860e+00	1.1165	1.098101	0.000314	3.141426	1.064344	0.000126
  30	2.8855e+00	1.1422	1.235364	0.000345	3.445435	1.167345	0.000138
  31	2.9850e+00	1.1887	1.368589	0.000334	3.344099	1.133011	0.000134
  32	3.0845e+00	1.2176	1.445295	0.000193	1.925390	0.652340	0.000077
  33	3.1840e+00	1.2673	1.598706	0.000385	3.850780	1.304680	0.000154
  34	3.2835e+00	1.3058	1.719820	0.000304	3.040090	1.030010	0.000122
  35	3.3830e+00	1.3572	1.857082	0.000345	3.445435	1.167345	0.000138
  36	3.4825e+00	1.3941	1.970122	0.000284	2.837417	0.961343	0.000114
  37	3.5820e+00	1.4310	2.107385	0.000345	3.445435	1.167345	0.000138
  38	3.6815e+00	1.4599	2.216388	0.000274	2.736081	0.927009	0.000110
  39	3.7810e+00	1.5080	2.341539	0.000314	3.141426	1.064344	0.000126
  40	3.8805e+00	1.5385	2.458616	0.000294	2.938753	0.995677	0.000118
  41	3.9800e+00	1.5850	2.587804	0.000324	3.242762	1.098678	0.000130
  42	4.0795e+00	1.6219	2.725067	0.000345	3.445435	1.167345	0.000138
  43	4.1790e+00	1.6716	2.874441	0.000375	3.749444	1.270346	0.000150
  44	4.2785e+00	1.7069	2.939035	0.000162	1.621381	0.549339	0.000065
  45	4.3780e+00	1.7390	3.068223	0.000324	3.242762	1.098678	0.000130
  46	4.4775e+00	1.7839	3.201449	0.000334	3.344099	1.133011	0.000134
  47	4.5770e+00	1.8272	3.302377	0.000253	2.533408	0.858342	0.000101
  48	4.6765e+00	1.8657	3.423491	0.000304	3.040090	1.030010	0.000122
  49	4.7760e+00	1.9026	3.580939	0.000395	3.952117	1.339013	0.000158
  50	4.8755e+00	1.9491	3.669756	0.000223	2.229399	0.755341	0.000089
  51	4.9750e+00	1.9892	3.823168	0.000385	3.850780	1.304680	0.000154
  52	5.0745e+00	2.0229	3.916022	0.000233	2.330735	0.789675	0.000093
  53	5.1740e+00	2.0663	4.069433	0.000385	3.850780	1.304680	0.000154
  54	5.2735e+00	2.1031	4.150176	0.000203	2.026726	0.686674	0.000081
  55	5.3730e+00	2.1352	4.323772	0.000436	4.357462	1.476348	0.000174
  56	5.4725e+00	2.1898	4.408552	0.000213	2.128063	0.721007	0.000085
  57	5.5720e+00	2.2187	4.553889	0.000365	3.648108	1.236012	0.000146
  58	5.6715e+00	2.2668	4.662892	0.000274	2.736081	0.927009	0.000110
  59	5.7710e+00	2.2957	4.812266	0.000375	3.749444	1.270346	0.000150
  60	5.8705e+00	2.3534	4.872823	0.000152	1.520045	0.515005	0.000061
  61	5.9700e+00	2.3839	5.042383	0.000426	4.256126	1.442014	0.000170
  62	6.0695e+00	2.4256	5.207905	0.000415	4.154789	1.407681	0.000166
  63	6.1690e+00	2.4609	5.256351	0.000122	1.216036	0.412004	0.000049
  64	6.2685e+00	2.4994	5.393613	0.000345	3.445435	1.167345	0.000138
  65	6.3680e+00	2.5411	5.551062	0.000395	3.952117	1.339013	0.000158
  66	6.4675e+00	2.5764	5.660064	0.000274	2.736081	0.927009	0.000110
  67	6.5670e+00	2.6245	5.813475	0.000385	3.850780	1.304680	0.000154
  68	6.6665e+00	2.6582	5.910367	0.000243	2.432072	0.824008	0.000097
  69	6.7660e+00	2.6999	6.043592	0.000334	3.344099	1.133011	0.000134
  70	6.8655e+00	2.7352	6.176818	0.000334	3.344099	1.133011	0.000134
  71	6.9650e+00	2.7769	6.273709	0.000243	2.432072	0.824008	0.000097
  72	7.0645e+00	2.8202	6.415009	0.000355	3.546771	1.201679	0.000142
  73	7.1640e+00	2.8603	6.507863	0.000233	2.330735	0.789675	0.000093
  74	7.2635e+00	2.8988	6.649163	0.000355	3.546771	1.201679	0.000142
  75	7.3630e+00	2.9390	6.778351	0.000324	3.242762	1.098678	0.000130
  76	7.4625e+00	2.9791	6.915614	0.000345	3.445435	1.167345	0.000138
  77	7.5620e+00	3.0192	7.000393	0.000213	2.128063	0.721007	0.000085
  78	7.6615e+00	3.0625	7.149767	0.000375	3.749444	1.270346	0.000150
  79	7.7610e+00	3.0994	7.278956	0.000324	3.242762	1.098678	0.000130
  80	7.8605e+00	3.1411	7.359698	0.000203	2.026726	0.686674	0.000081
  81	7.9600e+00	3.1764	7.500998	0.000355	3.546771	1.201679	0.000142
  82	8.0595e+00	3.2213	7.646335	0.000365	3.648108	1.236012	0.000146
  83	8.1590e+00	3.2630	7.747263	0.000253	2.533408	0.858342	0.000101
  84	8.2585e+00	3.2951	7.868378	0.000304	3.040090	1.030010	0.000122
  85	8.3580e+00	3.3352	7.969306	0.000253	2.533408	0.858342	0.000101
  86	8.4575e+00	3.3753	8.106569	0.000345	3.445435	1.167345	0.000138
  87	8.5570e+00	3.4202	8.243831	0.000345	3.445435	1.167345	0.000138
  88	8.6565e+00	3.4587	8.368982	0.000314	3.141426	1.064344	0.000126
  89	8.7560e+00	3.5101	8.469911	0.000253	2.533408	0.858342	0.000101
  90	8.8555e+00	3.5325	8.603136	0.000334	3.344099	1.133011	0.000134
  91	8.9550e+00	3.5742	8.748473	0.000365	3.648108	1.236012	0.000146
  92	9.0545e+00	3.6191	8.849402	0.000253	2.533408	0.858342	0.000101
  93	9.1540e+00	3.6512	8.942256	0.000233	2.330735	0.789675	0.000093
  94	9.2535e+00	3.6994	9.083555	0.000355	3.546771	1.201679	0.000142
  95	9.3530e+00	3.7411	9.220818	0.000345	3.445435	1.167345	0.000138
  96	9.4525e+00	3.7844	9.345969	0.000314	3.141426	1.064344	0.000126
  97	9.5520e+00	3.8229	9.450935	0.000263	2.634744	0.892676	0.000105
  98	9.6515e+00	3.8582	9.592235	0.000355	3.546771	1.201679	0.000142
  99	9.7510e+00	3.8919	9.697200	0.000263	2.634744	0.892676	0.000105
 100	9.8505e+00	3.9320	9.810240	0.000284	2.837417	0.961343	0.000114
 101	9.9500e+00	3.9785	9.915205	0.000263	2.634744	0.892676	0.000105
 102	1.0050e+01	4.0138	10.064579	0.000375	3.749444	1.270346	0.000150
 103	1.0149e+01	4.0475	10.153396	0.000223	2.229399	0.755341	0.000089
 104	1.0248e+01	4.0924	10.310845	0.000395	3.952117	1.339013	0.000158
 105	1.0348e+01	4.1341	10.383513	0.000182	1.824054	0.618006	0.000073
 106	1.0447e+01	4.1758	10.544999	0.000405	4.053453	1.373347	0.000162
 107	1.0547e+01	4.2207	10.658038	0.000284	2.837417	0.961343	0.000114
 108	1.0646e+01	4.2512	10.775115	0.000294	2.938753	0.995677	0.000118
 109	1.0746e+01	4.2977	10.884118	0.000274	2.736081	0.927009	0.000110
 110	1.0845e+01	4.3362	11.029455	0.000365	3.648108	1.236012	0.000146
 111	1.0945e+01	4.3860	11.126346	0.000243	2.432072	0.824008	0.000097
 112	1.1044e+01	4.4148	11.227274	0.000253	2.533408	0.858342	0.000101
 113	1.1144e+01	4.4453	11.372611	0.000365	3.648108	1.236012	0.000146
 114	1.1243e+01	4.4999	11.469503	0.000243	2.432072	0.824008	0.000097
 115	1.1343e+01	4.5384	11.614840	0.000365	3.648108	1.236012	0.000146
 116	1.1443e+01	4.5705	11.735954	0.000304	3.040090	1.030010	0.000122
 117	1.1542e+01	4.6090	11.832845	0.000243	2.432072	0.824008	0.000097
 118	1.1642e+01	4.6571	11.978182	0.000365	3.648108	1.236012	0.000146
 119	1.1741e+01	4.6924	12.095259	0.000294	2.938753	0.995677	0.000118
 120	1.1841e+01	4.7373	12.208298	0.000284	2.837417	0.961343	0.000114
 121	1.1940e+01	4.7646	12.353635	0.000365	3.648108	1.236012	0.000146
 122	1.2040e+01	4.8223	12.482824	0.000324	3.242762	1.098678	0.000130
 123	1.2139e+01	4.8448	12.583752	0.000253	2.533408	0.858342	0.000101
 124	1.2239e+01	4.8913	12.692755	0.000274	2.736081	0.927009	0.000110
 125	1.2338e+01	4.9282	12.838092	0.000365	3.648108	1.236012	0.000146
 126	1.2438e+01	4.9763	12.959206	0.000304	3.040090	1.030010	0.000122
 127	1.2537e+01	5.0036	13.060134	0.000253	2.533408	0.858342	0.000101
 128	1.2636e+01	5.0565	13.197397	0.000345	3.445435	1.167345	0.000138
 129	1.2736e+01	5.0886	13.290251	0.000233	2.330735	0.789675	0.000093
 130	1.2835e+01	5.1368	13.435588	0.000365	3.648108	1.236012	0.000146
 131	1.2935e+01	5.1720	13.588999	0.000385	3.850780	1.304680	0.000154
 132	1.3034e+01	5.2122	13.702039	0.000284	2.837417	0.961343	0.000114
 133	1.3134e+01	5.2603	13.807004	0.000263	2.634744	0.892676	0.000105
 134	1.3233e+01	5.2892	13.932155	0.000314	3.141426	1.064344	0.000126
 135	1.3333e+01	5.3309	14.016935	0.000213	2.128063	0.721007	0.000085
 136	1.3432e+01	5.3710	14.174384	0.000395	3.952117	1.339013	0.000158
 137	1.3532e+01	5.4111	14.307609	0.000334	3.344099	1.133011	0.000134
 138	1.3632e+01	5.4560	14.412575	0.000263	2.634744	0.892676	0.000105
 139	1.3731e+01	5.4945	14.501392	0.000223	2.229399	0.755341	0.000089
 140	1.3831e+01	5.5282	14.654803	0.000385	3.850780	1.304680	0.000154
 141	1.3930e+01	5.5699	14.755731	0.000253	2.533408	0.858342	0.000101
 142	1.4030e+01	5.6212	14.876845	0.000304	3.040090	1.030010	0.000122
 143	1.4129e+01	5.6485	15.014108	0.000345	3.445435	1.167345	0.000138
 144	1.4229e+01	5.6918	15.115036	0.000253	2.533408	0.858342	0.000101
 145	1.4328e+01	5.7303	15.199816	0.000213	2.128063	0.721007	0.000085
 146	1.4428e+01	5.7720	15.341116	0.000355	3.546771	1.201679	0.000142
 147	1.4527e+01	5.8057	15.490490	0.000375	3.749444	1.270346	0.000150
 148	1.4627e+01	5.8474	15.603530	0.000284	2.837417	0.961343	0.000114
 149	1.4726e+01	5.8923	15.736755	0.000334	3.344099	1.133011	0.000134
 150	1.4825e+01	5.9292	15.813461	0.000193	1.925390	0.652340	0.000077
 151	1.4925e+01	5.9758	15.934575	0.000304	3.040090	1.030010	0.000122
 152	1.5024e+01	6.0062	16.059726	0.000314	3.141426	1.064344	0.000126
 153	1.5124e+01	6.0528	16.140469	0.000203	2.026726	0.686674	0.000081
 154	1.5223e+01	6.0929	16.285806	0.000365	3.648108	1.236012	0.000146
 155	1.5323e+01	6.1330	16.427105	0.000355	3.546771	1.201679	0.000142
 156	1.5422e+01	6.1699	16.536108	0.000274	2.736081	0.927009	0.000110
 157	1.5522e+01	6.2068	16.665296	0.000324	3.242762	1.098678	0.000130
 158	1.5621e+01	6.2469	16.766225	0.000253	2.533408	0.858342	0.000101
 159	1.5721e+01	6.2886	16.887339	0.000304	3.040090	1.030010	0.000122
 160	1.5820e+01	6.3335	17.024601	0.000345	3.445435	1.167345	0.000138
 161	1.5920e+01	6.3672	17.129567	0.000263	2.634744	0.892676	0.000105
 162	1.6020e+01	6.4089	17.214347	0.000213	2.128063	0.721007	0.000085
 163	1.6119e+01	6.4474	17.355647	0.000355	3.546771	1.201679	0.000142
 164	1.6218e+01	6.4811	17.436389	0.000203	2.026726	0.686674	0.000081
 165	1.6318e+01	6.5276	17.533281	0.000243	2.432072	0.824008	0.000097
 166	1.6418e+01	6.5677	17.686692	0.000385	3.850780	1.304680	0.000154
 167	1.6517e+01	6.5918	17.803769	0.000294	2.938753	0.995677	0.000118
 168	1.6616e+01	6.6415	17.969291	0.000415	4.154789	1.407681	0.000166
 169	1.6716e+01	6.6945	18.025811	0.000142	1.418709	0.480671	0.000057
 170	1.6816e+01	6.7282	18.126739	0.000253	2.533408	0.858342	0.000101
 171	1.6915e+01	6.7683	18.272076	0.000365	3.648108	1.236012	0.000146
 172	1.7015e+01	6.8019	18.360893	0.000223	2.229399	0.755341	0.000089
 173	1.7114e+01	6.8501	18.502193	0.000355	3.546771	1.201679	0.000142
 174	1.7213e+01	6.8854	18.599084	0.000243	2.432072	0.824008	0.000097
 175	1.7313e+01	6.9207	18.708087	0.000274	2.736081	0.927009	0.000110
 176	1.7413e+01	6.9720	18.837275	0.000324	3.242762	1.098678	0.000130
 177	1.7512e+01	6.9993	18.950315	0.000284	2.837417	0.961343	0.000114
 178	1.7611e+01	7.0458	19.067392	0.000294	2.938753	0.995677	0.000118
 179	1.7711e+01	7.0827	19.188506	0.000304	3.040090	1.030010	0.000122
 180	1.7811e+01	7.1276	19.289435	0.000253	2.533408	0.858342	0.000101
 181	1.7910e+01	7.1581	19.434771	0.000365	3.648108	1.236012	0.000146
 182	1.8009e+01	7.2046	19.503403	0.000172	1.722717	0.583672	0.000069
 183	1.8109e+01	7.2415	19.624517	0.000304	3.040090	1.030010	0.000122
 184	1.8209e+01	7.2880	19.765817	0.000355	3.546771	1.201679	0.000142
 185	1.8308e+01	7.3233	19.870782	0.000263	2.634744	0.892676	0.000105
 186	1.8407e+01	7.3650	19.979785	0.000274	2.736081	0.927009	0.000110
 187	1.8507e+01	7.4116	20.104936	0.000314	3.141426	1.064344	0.000126
 188	1.8607e+01	7.4404	20.173567	0.000172	1.722717	0.583672	0.000069
 189	1.8706e+01	7.4837	20.367350	0.000486	4.864143	1.648016	0.000195
 190	1.8805e+01	7.5255	20.456167	0.000223	2.229399	0.755341	0.000089
 191	1.8905e+01	7.5640	20.524798	0.000172	1.722717	0.583672	0.000069
 192	1.9005e+01	7.6025	20.666098	0.000355	3.546771	1.201679	0.000142
 193	1.9104e+01	7.6506	20.746841	0.000203	2.026726	0.686674	0.000081
 194	1.9203e+01	7.6795	20.896215	0.000375	3.749444	1.270346	0.000150
 195	1.9303e+01	7.7292	20.985032	0.000223	2.229399	0.755341	0.000089
 196	1.9402e+01	7.7661	21.122294	0.000345	3.445435	1.167345	0.000138
 197	1.9502e+01	7.8030	21.223223	0.000253	2.533408	0.858342	0.000101
 198	1.9602e+01	7.8495	21.372597	0.000375	3.749444	1.270346	0.000150
 199	1.9701e+01	7.8848	21.412968	0.000101	1.013363	0.343337	0.000041
 200	1.9800e+01	7.9121	21.562342	0.000375	3.749444	1.270346	0.000150
 201	1.9900e+01	7.9634	21.723827	0.000405	4.053453	1.373347	0.000162
 202	2.0000e+01	7.9939	21.760162	0.000091	0.912027	0.309003	0.000037
 203	2.0099e+01	8.0452	21.889350	0.000324	3.242762	1.098678	0.000130
 204	2.0198e+01	8.0789	21.970093	0.000203	2.026726	0.686674	0.000081
 205	2.0298e+01	8.1158	22.095244	0.000314	3.141426	1.064344	0.000126
 206	2.0398e+01	8.1607	22.216358	0.000304	3.040090	1.030010	0.000122
 207	2.0497e+01	8.1848	22.321323	0.000263	2.634744	0.892676	0.000105
 208	2.0596e+01	8.2345	22.406103	0.000213	2.128063	0.721007	0.000085
 209	2.0696e+01	8.2794	22.527217	0.000304	3.040090	1.030010	0.000122
 210	2.0796e+01	8.3179	22.656406	0.000324	3.242762	1.098678	0.000130
 211	2.0895e+01	8.3645	22.765408	0.000274	2.736081	0.927009	0.000110
 212	2.0994e+01	8.4014	22.902671	0.000345	3.445435	1.167345	0.000138
 213	2.1094e+01	8.4463	22.975339	0.000182	1.824054	0.618006	0.000073
 214	2.1194e+01	8.4800	23.096454	0.000304	3.040090	1.030010	0.000122
 215	2.1293e+01	8.5265	23.193345	0.000243	2.432072	0.824008	0.000097
 216	2.1392e+01	8.5602	23.282162	0.000223	2.229399	0.755341	0.000089
 217	2.1492e+01	8.6003	23.379053	0.000243	2.432072	0.824008	0.000097
 218	2.1591e+01	8.6388	23.492093	0.000284	2.837417	0.961343	0.000114
 219	2.1691e+01	8.6789	23.576873	0.000213	2.128063	0.721007	0.000085
 220	2.1791e+01	8.7174	23.734321	0.000395	3.952117	1.339013	0.000158
 221	2.1890e+01	8.7639	23.811027	0.000193	1.925390	0.652340	0.000077
 222	2.1989e+01	8.7992	23.976549	0.000415	4.154789	1.407681	0.000166
 223	2.2089e+01	8.8361	24.045180	0.000172	1.722717	0.583672	0.000069
 224	2.2189e+01	8.8730	24.142072	0.000243	2.432072	0.824008	0.000097
 225	2.2288e+01	8.9099	24.251074	0.000274	2.736081	0.927009	0.000110
 226	2.2387e+01	8.9628	24.364114	0.000284	2.837417	0.961343	0.000114
 227	2.2487e+01	8.9949	24.505414	0.000355	3.546771	1.201679	0.000142
 228	2.2587e+01	9.0399	24.570008	0.000162	1.621381	0.549339	0.000065
 229	2.2686e+01	9.0767	24.683048	0.000284	2.837417	0.961343	0.000114
 230	2.2785e+01	9.1120	24.824348	0.000355	3.546771	1.201679	0.000142
 231	2.2885e+01	9.1489	24.884905	0.000152	1.520045	0.515005	0.000061
 232	2.2985e+01	9.1874	25.018130	0.000334	3.344099	1.133011	0.000134
 233	2.3084e+01	9.2388	25.143281	0.000314	3.141426	1.064344	0.000126
 234	2.3183e+01	9.2789	25.240173	0.000243	2.432072	0.824008	0.000097
 235	2.3283e+01	9.3158	25.337064	0.000243	2.432072	0.824008	0.000097
 236	2.3383e+01	9.3575	25.417807	0.000203	2.026726	0.686674	0.000081
 237	2.3482e+01	9.3976	25.538921	0.000304	3.040090	1.030010	0.000122
 238	2.3581e+01	9.4377	25.643886	0.000263	2.634744	0.892676	0.000105
 239	2.3681e+01	9.4762	25.744815	0.000253	2.533408	0.858342	0.000101
 240	2.3780e+01	9.5163	25.829594	0.000213	2.128063	0.721007	0.000085
 241	2.3880e+01	9.5564	25.938597	0.000274	2.736081	0.927009	0.000110
 242	2.3980e+01	9.5965	26.059711	0.000304	3.040090	1.030010	0.000122
 243	2.4079e+01	9.6414	26.156602	0.000243	2.432072	0.824008	0.000097
 244	2.4178e+01	9.6799	26.285791	0.000324	3.242762	1.098678	0.000130
 245	2.4278e+01	9.7184	26.342311	0.000142	1.418709	0.480671	0.000057
 246	2.4378e+01	9.7585	26.495722	0.000385	3.850780	1.304680	0.000154
 247	2.4477e+01	9.7970	26.584539	0.000223	2.229399	0.755341	0.000089
 248	2.4576e+01	9.8356	26.713727	0.000324	3.242762	1.098678	0.000130
 249	2.4676e+01	9.8724	26.822730	0.000274	2.736081	0.927009	0.000110
 250	2.4776e+01	9.9222	26.899435	0.000193	1.925390	0.652340	0.000077
 251	2.4875e+01	9.9414	27.060921	0.000405	4.053453	1.373347	0.000162
 252	2.4974e+01	9.9912	27.117441	0.000142	1.418709	0.480671	0.000057
 253	2.5074e+01	10.0329	27.206258	0.000223	2.229399	0.755341	0.000089
 254	2.5174e+01	10.0730	27.375817	0.000426	4.256126	1.442014	0.000170
 255	2.5273e+01	10.1115	27.452523	0.000193	1.925390	0.652340	0.000077
 256	2.5372e+01	10.1548	27.557489	0.000263	2.634744	0.892676	0.000105
 257	2.5472e+01	10.1933	27.642268	0.000213	2.128063	0.721007	0.000085
 258	2.5572e+01	10.2238	27.767420	0.000314	3.141426	1.064344	0.000126
 259	2.5671e+01	10.2735	27.848162	0.000203	2.026726	0.686674	0.000081
 260	2.5770e+01	10.3168	27.973314	0.000314	3.141426	1.064344	0.000126
 261	2.5870e+01	10.3521	28.070205	0.000243	2.432072	0.824008	0.000097
 262	2.5970e+01	10.3986	28.211505	0.000355	3.546771	1.201679	0.000142
 263	2.6069e+01	10.4307	28.300322	0.000223	2.229399	0.755341	0.000089
 264	2.6169e+01	10.4740	28.417398	0.000294	2.938753	0.995677	0.000118
 265	2.6268e+01	10.5174	28.465844	0.000122	1.216036	0.412004	0.000049
 266	2.6367e+01	10.5478	28.595032	0.000324	3.242762	1.098678	0.000130
 267	2.6467e+01	10.5911	28.679812	0.000213	2.128063	0.721007	0.000085
 268	2.6567e+01	10.6313	28.809001	0.000324	3.242762	1.098678	0.000130
 269	2.6666e+01	10.6698	28.897818	0.000223	2.229399	0.755341	0.000089
 270	2.6765e+01	10.7179	28.986635	0.000223	2.229399	0.755341	0.000089
 271	2.6865e+01	10.7484	29.075452	0.000223	2.229399	0.755341	0.000089
 272	2.6965e+01	10.7901	29.232900	0.000395	3.952117	1.339013	0.000158
 273	2.7064e+01	10.8270	29.313643	0.000203	2.026726	0.686674	0.000081
 274	2.7163e+01	10.8767	29.414571	0.000253	2.533408	0.858342	0.000101
 275	2.7263e+01	10.9168	29.479165	0.000162	1.621381	0.549339	0.000065
 276	2.7363e+01	10.9585	29.620465	0.000355	3.546771	1.201679	0.000142
 277	2.7462e+01	10.9922	29.701208	0.000203	2.026726	0.686674	0.000081
 278	2.7561e+01	11.0291	29.822322	0.000304	3.040090	1.030010	0.000122
 279	2.7661e+01	11.0756	29.899027	0.000193	1.925390	0.652340	0.000077
 280	2.7761e+01	11.1045	30.008030	0.000274	2.736081	0.927009	0.000110
 281	2.7860e+01	11.1526	30.104921	0.000243	2.432072	0.824008	0.000097
 282	2.7959e+01	11.1879	30.201812	0.000243	2.432072	0.824008	0.000097
 283	2.8059e+01	11.2248	30.326964	0.000314	3.141426	1.064344	0.000126
 284	2.8159e+01	11.2633	30.423855	0.000243	2.432072	0.824008	0.000097
 285	2.8258e+01	11.3163	30.500561	0.000193	1.925390	0.652340	0.000077
 286	2.8358e+01	11.3483	30.649935	0.000375	3.749444	1.270346	0.000150
 287	2.8457e+01	11.3901	30.726640	0.000193	1.925390	0.652340	0.000077
 288	2.8556e+01	11.4221	30.863903	0.000345	3.445435	1.167345	0.000138
 289	2.8656e+01	11.4655	30.948683	0.000213	2.128063	0.721007	0.000085
 290	2.8756e+01	11.5056	31.045574	0.000243	2.432072	0.824008	0.000097
 291	2.8855e+01	11.5409	31.178799	0.000334	3.344099	1.133011	0.000134
 292	2.8954e+01	11.5922	31.259542	0.000203	2.026726	0.686674	0.000081
 293	2.9054e+01	11.6307	31.372582	0.000284	2.837417	0.961343	0.000114
 294	2.9154e+01	11.6644	31.457362	0.000213	2.128063	0.721007	0.000085
 295	2.9253e+01	11.7125	31.610773	0.000385	3.850780	1.304680	0.000154
 296	2.9352e+01	11.7382	31.651144	0.000101	1.013363	0.343337	0.000041
 297	2.9452e+01	11.7895	31.776295	0.000314	3.141426	1.064344	0.000126
 298	2.9552e+01	11.8360	31.905484	0.000324	3.242762	1.098678	0.000130
 299	2.9651e+01	11.8601	32.030635	0.000314	3.141426	1.064344	0.000126
 300	2.9750e+01	11.9050	32.083118	0.000132	1.317372	0.446338	0.000053
 301	2.9850e+01	11.9435	32.220380	0.000345	3.445435	1.167345	0.000138
 302	2.9950e+01	11.9852	32.317272	0.000243	2.432072	0.824008	0.000097
 303	3.0049e+01	12.0301	32.430311	0.000284	2.837417	0.961343	0.000114
 304	3.0148e+01	12.0638	32.519128	0.000223	2.229399	0.755341	0.000089
 305	3.0248e+01	12.1104	32.611982	0.000233	2.330735	0.789675	0.000093
 306	3.0348e+01	12.1456	32.749245	0.000345	3.445435	1.167345	0.000138
 307	3.0447e+01	12.1890	32.817876	0.000172	1.722717	0.583672	0.000069
 308	3.0547e+01	12.2259	32.898619	0.000203	2.026726	0.686674	0.000081
 309	3.0646e+01	12.2724	33.031845	0.000334	3.344099	1.133011	0.000134
 310	3.0745e+01	12.3061	33.112587	0.000203	2.026726	0.686674	0.000081
 311	3.0845e+01	12.3430	33.241776	0.000324	3.242762	1.098678	0.000130
 312	3.0945e+01	12.3831	33.334630	0.000233	2.330735	0.789675	0.000093
 313	3.1044e+01	12.4296	33.435558	0.000253	2.533408	0.858342	0.000101
 314	3.1143e+01	12.4713	33.524375	0.000223	2.229399	0.755341	0.000089
 315	3.1243e+01	12.5066	33.661638	0.000345	3.445435	1.167345	0.000138
 316	3.1343e+01	12.5435	33.750455	0.000223	2.229399	0.755341	0.000089
 317	3.1442e+01	12.5900	33.883680	0.000334	3.344099	1.133011	0.000134
 318	3.1541e+01	12.6269	33.968460	0.000213	2.128063	0.721007	0.000085
 319	3.1641e+01	12.6574	34.065351	0.000243	2.432072	0.824008	0.000097
 320	3.1741e+01	12.7103	34.133983	0.000172	1.722717	0.583672	0.000069
 321	3.1840e+01	12.7392	34.271245	0.000345	3.445435	1.167345	0.000138
 322	3.1939e+01	12.7793	34.319691	0.000122	1.216036	0.412004	0.000049
 323	3.2039e+01	12.8210	34.444842	0.000314	3.141426	1.064344	0.000126
 324	3.2139e+01	12.8595	34.565956	0.000304	3.040090	1.030010	0.000122
 325	3.2238e+01	12.9028	34.658810	0.000233	2.330735	0.789675	0.000093
 326	3.2337e+01	12.9430	34.763776	0.000263	2.634744	0.892676	0.000105
 327	3.2437e+01	12.9815	34.856630	0.000233	2.330735	0.789675	0.000093
 328	3.2536e+01	13.0103	34.937373	0.000203	2.026726	0.686674	0.000081
 329	3.2636e+01	13.0617	35.038301	0.000253	2.533408	0.858342	0.000101
 330	3.2736e+01	13.0986	35.131155	0.000233	2.330735	0.789675	0.000093
 331	3.2835e+01	13.1419	35.244195	0.000284	2.837417	0.961343	0.000114
 332	3.2934e+01	13.1820	35.377420	0.000334	3.344099	1.133011	0.000134
 333	3.3034e+01	13.2125	35.442015	0.000162	1.621381	0.549339	0.000065
 334	3.3133e+01	13.2590	35.530832	0.000223	2.229399	0.755341	0.000089
 335	3.3233e+01	13.3023	35.627723	0.000243	2.432072	0.824008	0.000097
 336	3.3333e+01	13.3424	35.748837	0.000304	3.040090	1.030010	0.000122
 337	3.3432e+01	13.3857	35.865914	0.000294	2.938753	0.995677	0.000118
 338	3.3532e+01	13.4146	35.954731	0.000223	2.229399	0.755341	0.000089
 339	3.3631e+01	13.4675	36.059696	0.000263	2.634744	0.892676	0.000105
 340	3.3730e+01	13.4980	36.128328	0.000172	1.722717	0.583672	0.000069
 341	3.3830e+01	13.5381	36.221182	0.000233	2.330735	0.789675	0.000093
 342	3.3929e+01	13.5846	36.334222	0.000284	2.837417	0.961343	0.000114
 343	3.4029e+01	13.6167	36.398816	0.000162	1.621381	0.549339	0.000065
 344	3.4129e+01	13.6568	36.536078	0.000345	3.445435	1.167345	0.000138
 345	3.4228e+01	13.6937	36.637007	0.000253	2.533408	0.858342	0.000101
 346	3.4328e+01	13.7403	36.766195	0.000324	3.242762	1.098678	0.000130
 347	3.4427e+01	13.7772	36.842901	0.000193	1.925390	0.652340	0.000077
 348	3.4526e+01	13.8124	36.964015	0.000304	3.040090	1.030010	0.000122
 349	3.4626e+01	13.8558	37.020535	0.000142	1.418709	0.480671	0.000057
 350	3.4725e+01	13.8911	37.153760	0.000334	3.344099	1.133011	0.000134
 351	3.4825e+01	13.9392	37.250651	0.000243	2.432072	0.824008	0.000097
 352	3.4925e+01	13.9857	37.355617	0.000263	2.634744	0.892676	0.000105
 353	3.5024e+01	14.0146	37.444434	0.000223	2.229399	0.755341	0.000089
 354	3.5123e+01	14.0579	37.565548	0.000304	3.040090	1.030010	0.000122
 355	3.5223e+01	14.0996	37.634179	0.000172	1.722717	0.583672	0.000069
 356	3.5322e+01	14.1301	37.714922	0.000203	2.026726	0.686674	0.000081
 357	3.5422e+01	14.1782	37.836036	0.000304	3.040090	1.030010	0.000122
 358	3.5522e+01	14.2119	37.981373	0.000365	3.648108	1.236012	0.000146
 359	3.5621e+01	14.2536	38.037893	0.000142	1.418709	0.480671	0.000057
 360	3.5721e+01	14.2905	38.146896	0.000274	2.736081	0.927009	0.000110
 361	3.5820e+01	14.3531	38.259935	0.000284	2.837417	0.961343	0.000114
 362	3.5919e+01	14.3659	38.356827	0.000243	2.432072	0.824008	0.000097
 363	3.6019e+01	14.4108	38.413347	0.000142	1.418709	0.480671	0.000057
 364	3.6118e+01	14.4557	38.534461	0.000304	3.040090	1.030010	0.000122
 365	3.6218e+01	14.4975	38.619240	0.000213	2.128063	0.721007	0.000085
 366	3.6318e+01	14.5360	38.708057	0.000223	2.229399	0.755341	0.000089
 367	3.6417e+01	14.5761	38.796874	0.000223	2.229399	0.755341	0.000089
 368	3.6517e+01	14.6258	38.942211	0.000365	3.648108	1.236012	0.000146
 369	3.6616e+01	14.6499	38.998731	0.000142	1.418709	0.480671	0.000057
 370	3.6715e+01	14.6900	39.107734	0.000274	2.736081	0.927009	0.000110
 371	3.6815e+01	14.7413	39.200588	0.000233	2.330735	0.789675	0.000093
 372	3.6914e+01	14.7734	39.309591	0.000274	2.736081	0.927009	0.000110
 373	3.7014e+01	14.8055	39.402445	0.000233	2.330735	0.789675	0.000093
 374	3.7114e+01	14.8584	39.483188	0.000203	2.026726	0.686674	0.000081
 375	3.7213e+01	14.8905	39.592190	0.000274	2.736081	0.927009	0.000110
 376	3.7313e+01	14.9322	39.701193	0.000274	2.736081	0.927009	0.000110
 377	3.7412e+01	14.9723	39.773861	0.000182	1.824054	0.618006	0.000073
 378	3.7511e+01	15.0156	39.834418	0.000152	1.520045	0.515005	0.000061
 379	3.7611e+01	15.0557	39.951495	0.000294	2.938753	0.995677	0.000118
 380	3.7711e+01	15.0878	40.072609	0.000304	3.040090	1.030010	0.000122
 381	3.7810e+01	15.1247	40.133166	0.000152	1.520045	0.515005	0.000061
 382	3.7910e+01	15.1793	40.270429	0.000345	3.445435	1.167345	0.000138
 383	3.8009e+01	15.2145	40.330986	0.000152	1.520045	0.515005	0.000061
 384	3.8108e+01	15.2579	40.435952	0.000263	2.634744	0.892676	0.000105
 385	3.8208e+01	15.2948	40.516694	0.000203	2.026726	0.686674	0.000081
 386	3.8307e+01	15.3333	40.605511	0.000223	2.229399	0.755341	0.000089
 387	3.8407e+01	15.3702	40.706440	0.000253	2.533408	0.858342	0.000101
 388	3.8507e+01	15.4167	40.823517	0.000294	2.938753	0.995677	0.000118
 389	3.8606e+01	15.4488	40.855814	0.000081	0.810691	0.274669	0.000032
 390	3.8706e+01	15.4905	40.960779	0.000263	2.634744	0.892676	0.000105
 391	3.8805e+01	15.5242	41.085930	0.000314	3.141426	1.064344	0.000126
 392	3.8904e+01	15.5739	41.162636	0.000193	1.925390	0.652340	0.000077
 393	3.9004e+01	15.6060	41.255490	0.000233	2.330735	0.789675	0.000093
 394	3.9103e+01	15.6493	41.372567	0.000294	2.938753	0.995677	0.000118
 395	3.9203e+01	15.6878	41.453310	0.000203	2.026726	0.686674	0.000081
 396	3.9303e+01	15.7279	41.566350	0.000284	2.837417	0.961343	0.000114
 397	3.9402e+01	15.7632	41.598647	0.000081	0.810691	0.274669	0.000032
 398	3.9502e+01	15.8081	41.727835	0.000324	3.242762	1.098678	0.000130
 399	3.9601e+01	15.8546	41.857023	0.000324	3.242762	1.098678	0.000130
 400	3.9700e+01	15.8899	41.917580	0.000152	1.520045	0.515005	0.000061
 401	3.9800e+01	15.9364	42.026583	0.000274	2.736081	0.927009	0.000110
 402	3.9900e+01	15.9733	42.115400	0.000223	2.229399	0.755341	0.000089
 403	3.9999e+01	16.0070	42.192106	0.000193	1.925390	0.652340	0.000077
 404	4.0099e+01	16.0503	42.280923	0.000223	2.229399	0.755341	0.000089
 405	4.0198e+01	16.0921	42.422222	0.000355	3.546771	1.201679	0.000142
 406	4.0297e+01	16.1241	42.486817	0.000162	1.621381	0.549339	0.000065
 407	4.0397e+01	16.1675	42.563522	0.000193	1.925390	0.652340	0.000077
 408	4.0496e+01	16.2156	42.712896	0.000375	3.749444	1.270346	0.000150
 409	4.0596e+01	16.2493	42.737119	0.000061	0.608018	0.206002	0.000024
 410	4.0696e+01	16.2926	42.866307	0.000324	3.242762	1.098678	0.000130
 411	4.0795e+01	16.3199	42.922827	0.000142	1.418709	0.480671	0.000057
 412	4.0895e+01	16.3616	43.015681	0.000233	2.330735	0.789675	0.000093
 413	4.0994e+01	16.4001	43.152944	0.000345	3.445435	1.167345	0.000138
 414	4.1093e+01	16.4530	43.221575	0.000172	1.722717	0.583672	0.000069
 415	4.1193e+01	16.4947	43.374986	0.000385	3.850780	1.304680	0.000154
 416	4.1292e+01	16.5236	43.435543	0.000152	1.520045	0.515005	0.000061
 417	4.1392e+01	16.5717	43.512249	0.000193	1.925390	0.652340	0.000077
 418	4.1492e+01	16.6118	43.588955	0.000193	1.925390	0.652340	0.000077
 419	4.1591e+01	16.6551	43.685846	0.000243	2.432072	0.824008	0.000097
 420	4.1691e+01	16.6792	43.806960	0.000304	3.040090	1.030010	0.000122
 421	4.1790e+01	16.7289	43.903851	0.000243	2.432072	0.824008	0.000097
 422	4.1889e+01	16.7739	43.984594	0.000203	2.026726	0.686674	0.000081
 423	4.1989e+01	16.7979	44.081485	0.000243	2.432072	0.824008	0.000097
 424	4.2089e+01	16.8477	44.174339	0.000233	2.330735	0.789675	0.000093
 425	4.2188e+01	16.8813	44.226822	0.000132	1.317372	0.446338	0.000053
 426	4.2288e+01	16.9295	44.347936	0.000304	3.040090	1.030010	0.000122
 427	4.2387e+01	16.9599	44.444827	0.000243	2.432072	0.824008	0.000097
 428	4.2486e+01	17.0097	44.561904	0.000294	2.938753	0.995677	0.000118
 429	4.2586e+01	17.0434	44.606313	0.000111	1.114700	0.377670	0.000045
 430	4.2685e+01	17.0867	44.739538	0.000334	3.344099	1.133011	0.000134
 431	4.2785e+01	17.1252	44.840467	0.000253	2.533408	0.858342	0.000101
 432	4.2885e+01	17.1701	44.921209	0.000203	2.026726	0.686674	0.000081
 433	4.2984e+01	17.2086	45.018101	0.000243	2.432072	0.824008	0.000097
 434	4.3084e+01	17.2423	45.078658	0.000152	1.520045	0.515005	0.000061
 435	4.3183e+01	17.2824	45.159400	0.000203	2.026726	0.686674	0.000081
 436	4.3282e+01	17.3241	45.288589	0.000324	3.242762	1.098678	0.000130
 437	4.3382e+01	17.3626	45.357220	0.000172	1.722717	0.583672	0.000069
 438	4.3481e+01	17.4059	45.442000	0.000213	2.128063	0.721007	0.000085
 439	4.3581e+01	17.4524	45.575225	0.000334	3.344099	1.133011	0.000134
 440	4.3681e+01	17.4829	45.615597	0.000101	1.013363	0.343337	0.000041
 441	4.3780e+01	17.5262	45.744785	0.000324	3.242762	1.098678	0.000130
 442	4.3880e+01	17.5631	45.813416	0.000172	1.722717	0.583672	0.000069
 443	4.3979e+01	17.6016	45.878011	0.000162	1.621381	0.549339	0.000065
 444	4.4078e+01	17.6466	45.954716	0.000193	1.925390	0.652340	0.000077
 445	4.4178e+01	17.6883	46.083904	0.000324	3.242762	1.098678	0.000130
 446	4.4278e+01	17.7188	46.168684	0.000213	2.128063	0.721007	0.000085
 447	4.4377e+01	17.7540	46.273650	0.000263	2.634744	0.892676	0.000105
 448	4.4477e+01	17.8006	46.334207	0.000152	1.520045	0.515005	0.000061
 449	4.4576e+01	17.8407	46.447247	0.000284	2.837417	0.961343	0.000114
 450	4.4675e+01	17.8824	46.536064	0.000223	2.229399	0.755341	0.000089
 451	4.4775e+01	17.9113	46.641029	0.000263	2.634744	0.892676	0.000105
 452	4.4874e+01	17.9626	46.750032	0.000274	2.736081	0.927009	0.000110
 453	4.4974e+01	18.0011	46.818663	0.000172	1.722717	0.583672	0.000069
 454	4.5074e+01	18.0428	46.939777	0.000304	3.040090	1.030010	0.000122
 455	4.5173e+01	18.0717	47.012446	0.000182	1.824054	0.618006	0.000073
 456	4.5273e+01	18.1166	47.105300	0.000233	2.330735	0.789675	0.000093
 457	4.5372e+01	18.1695	47.198154	0.000233	2.330735	0.789675	0.000093
 458	4.5471e+01	18.2032	47.323305	0.000314	3.141426	1.064344	0.000126
 459	4.5571e+01	18.2385	47.404048	0.000203	2.026726	0.686674	0.000081
 460	4.5670e+01	18.2899	47.488828	0.000213	2.128063	0.721007	0.000085
 461	4.5770e+01	18.3187	47.581682	0.000233	2.330735	0.789675	0.000093
 462	4.5870e+01	18.3540	47.698759	0.000294	2.938753	0.995677	0.000118
 463	4.5969e+01	18.3957	47.759316	0.000152	1.520045	0.515005	0.000061
 464	4.6069e+01	18.4439	47.868318	0.000274	2.736081	0.927009	0.000110
 465	4.6168e+01	18.4824	47.957135	0.000223	2.229399	0.755341	0.000089
 466	4.6267e+01	18.5209	48.045952	0.000223	2.229399	0.755341	0.000089
 467	4.6367e+01	18.5642	48.146881	0.000253	2.533408	0.858342	0.000101
 468	4.6467e+01	18.6011	48.259921	0.000284	2.837417	0.961343	0.000114
 469	4.6566e+01	18.6460	48.308366	0.000122	1.216036	0.412004	0.000049
 470	4.6666e+01	18.6845	48.421406	0.000284	2.837417	0.961343	0.000114
 471	4.6765e+01	18.7214	48.498112	0.000193	1.925390	0.652340	0.000077
 472	4.6864e+01	18.7583	48.631337	0.000334	3.344099	1.133011	0.000134
 473	4.6964e+01	18.8000	48.720154	0.000223	2.229399	0.755341	0.000089
 474	4.7063e+01	18.8385	48.813008	0.000233	2.330735	0.789675	0.000093
 475	4.7163e+01	18.8850	48.917974	0.000263	2.634744	0.892676	0.000105
 476	4.7263e+01	18.9219	49.002754	0.000213	2.128063	0.721007	0.000085
 477	4.7362e+01	18.9572	49.107719	0.000263	2.634744	0.892676	0.000105
 478	4.7462e+01	18.9989	49.212685	0.000263	2.634744	0.892676	0.000105
 479	4.7561e+01	19.0326	49.293427	0.000203	2.026726	0.686674	0.000081
 480	4.7660e+01	19.0775	49.353984	0.000152	1.520045	0.515005	0.000061
 481	4.7760e+01	19.1160	49.479136	0.000314	3.141426	1.064344	0.000126
 482	4.7859e+01	19.1642	49.576027	0.000243	2.432072	0.824008	0.000097
 483	4.7959e+01	19.1914	49.656770	0.000203	2.026726	0.686674	0.000081
 484	4.8059e+01	19.2331	49.741549	0.000213	2.128063	0.721007	0.000085
 485	4.8158e+01	19.2861	49.830366	0.000223	2.229399	0.755341	0.000089
 486	4.8258e+01	19.3166	49.931295	0.000253	2.533408	0.858342	0.000101
 487	4.8357e+01	19.3438	50.020112	0.000223	2.229399	0.755341	0.000089
 488	4.8456e+01	19.3936	50.125077	0.000263	2.634744	0.892676	0.000105
 489	4.8556e+01	19.4353	50.181597	0.000142	1.418709	0.480671	0.000057
 490	4.8656e+01	19.4706	50.290600	0.000274	2.736081	0.927009	0.000110
 491	4.8755e+01	19.5155	50.395565	0.000263	2.634744	0.892676	0.000105
 492	4.8855e+01	19.5508	50.480345	0.000213	2.128063	0.721007	0.000085
 493	4.8954e+01	19.5845	50.581274	0.000253	2.533408	0.858342	0.000101
 494	4.9053e+01	19.6310	50.682202	0.000253	2.533408	0.858342	0.000101
 495	4.9153e+01	19.6631	50.779093	0.000243	2.432072	0.824008	0.000097
 496	4.9252e+01	19.7160	50.859836	0.000203	2.026726	0.686674	0.000081
 497	4.9352e+01	19.7529	50.904245	0.000111	1.114700	0.377670	0.000045
 498	4.9452e+01	19.7994	51.001136	0.000243	2.432072	0.824008	0.000097
 499	4.9551e+01	19.8363	51.138398	0.000345	3.445435	1.167345	0.000138
 500	4.9651e+01	19.8668	51.243364	0.000263	2.634744	0.892676	0.000105
 501	4.9750e+01	19.9101	51.303921	0.000152	1.520045	0.515005	0.000061
 502	4.9849e+01	19.9567	51.420998	0.000294	2.938753	0.995677	0.000118
 503	4.9949e+01	19.9952	51.469444	0.000122	1.216036	0.412004	0.000049
 504	5.0048e+01	19.9502	51.429072	0.000101	1.013363	0.343337	-0.000041
 505	5.0148e+01	19.9133	51.348329	0.000203	2.026726	0.686674	-0.000081
 506	5.0248e+01	19.8732	51.291810	0.000142	1.418709	0.480671	-0.000057
 507	5.0347e+01	19.8283	51.235290	0.000142	1.418709	0.480671	-0.000057
 508	5.0447e+01	19.7962	51.178770	0.000142	1.418709	0.480671	-0.000057
 509	5.0546e+01	19.7641	51.126287	0.000132	1.317372	0.446338	-0.000053
 510	5.0645e+01	19.7096	51.049581	0.000193	1.925390	0.652340	-0.000077
 511	5.0745e+01	19.6743	51.017284	0.000081	0.810691	0.274669	-0.000032
 512	5.0844e+01	19.6278	50.912319	0.000263	2.634744	0.892676	-0.000105
 513	5.0944e+01	19.5973	50.880022	0.000081	0.810691	0.274669	-0.000032
 514	5.1044e+01	19.5540	50.791205	0.000223	2.229399	0.755341	-0.000089
 515	5.1143e+01	19.5091	50.722573	0.000172	1.722717	0.583672	-0.000069
 516	5.1242e+01	19.4690	50.690276	0.000081	0.810691	0.274669	-0.000032
 517	5.1342e+01	19.4401	50.561088	0.000324	3.242762	1.098678	-0.000130
 518	5.1441e+01	19.3904	50.500531	0.000152	1.520045	0.515005	-0.000061
 519	5.1541e+01	19.3535	50.452085	0.000122	1.216036	0.412004	-0.000049
 520	5.1641e+01	19.3182	50.379417	0.000182	1.824054	0.618006	-0.000073
 521	5.1740e+01	19.2829	50.335008	0.000111	1.114700	0.377670	-0.000045
 522	5.1840e+01	19.2283	50.278488	0.000142	1.418709	0.480671	-0.000057
 523	5.1939e+01	19.1914	50.209857	0.000172	1.722717	0.583672	-0.000069
 524	5.2038e+01	19.1529	50.108929	0.000253	2.533408	0.858342	-0.000101
 525	5.2138e+01	19.1225	50.056446	0.000132	1.317372	0.446338	-0.000053
 526	5.2237e+01	19.0840	49.975703	0.000203	2.026726	0.686674	-0.000081
 527	5.2337e+01	19.0310	49.923221	0.000132	1.317372	0.446338	-0.000053
 528	5.2437e+01	18.9925	49.822292	0.000253	2.533408	0.858342	-0.000101
 529	5.2536e+01	18.9508	49.769809	0.000132	1.317372	0.446338	-0.000053
 530	5.2636e+01	18.9235	49.713289	0.000142	1.418709	0.480671	-0.000057
 531	5.2735e+01	18.8754	49.636584	0.000193	1.925390	0.652340	-0.000077
 532	5.2834e+01	18.8305	49.555841	0.000203	2.026726	0.686674	-0.000081
 533	5.2934e+01	18.8032	49.487210	0.000172	1.722717	0.583672	-0.000069
 534	5.3033e+01	18.7551	49.438764	0.000122	1.216036	0.412004	-0.000049
 535	5.3133e+01	18.7214	49.341873	0.000243	2.432072	0.824008	-0.000097
 536	5.3233e+01	18.6829	49.273242	0.000172	1.722717	0.583672	-0.000069
 537	5.3332e+01	18.6364	49.236907	0.000091	0.912027	0.309003	-0.000037
 538	5.3431e+01	18.5963	49.119831	0.000294	2.938753	0.995677	-0.000118
 539	5.3531e+01	18.5513	49.051199	0.000172	1.722717	0.583672	-0.000069
 540	5.3630e+01	18.5193	48.954308	0.000243	2.432072	0.824008	-0.000097
 541	5.3730e+01	18.4776	48.905862	0.000122	1.216036	0.412004	-0.000049
 542	5.3830e+01	18.4342	48.833194	0.000182	1.824054	0.618006	-0.000073
 543	5.3929e+01	18.4070	48.748414	0.000213	2.128063	0.721007	-0.000085
 544	5.4029e+01	18.3669	48.683820	0.000162	1.621381	0.549339	-0.000065
 545	5.4128e+01	18.3075	48.586929	0.000243	2.432072	0.824008	-0.000097
 546	5.4227e+01	18.2866	48.498112	0.000223	2.229399	0.755341	-0.000089
 547	5.4327e+01	18.2417	48.425443	0.000182	1.824054	0.618006	-0.000073
 548	5.4426e+01	18.2048	48.372960	0.000132	1.317372	0.446338	-0.000053
 549	5.4526e+01	18.1599	48.296255	0.000193	1.925390	0.652340	-0.000077
 550	5.4626e+01	18.1182	48.227624	0.000172	1.722717	0.583672	-0.000069
 551	5.4725e+01	18.0813	48.134769	0.000233	2.330735	0.789675	-0.000093
 552	5.4825e+01	18.0444	48.045952	0.000223	2.229399	0.755341	-0.000089
 553	5.4924e+01	18.0059	48.001544	0.000111	1.114700	0.377670	-0.000045
 554	5.5023e+01	17.9706	47.896578	0.000263	2.634744	0.892676	-0.000105
 555	5.5123e+01	17.9129	47.836021	0.000152	1.520045	0.515005	-0.000061
 556	5.5222e+01	17.8792	47.751242	0.000213	2.128063	0.721007	-0.000085
 557	5.5322e+01	17.8471	47.670499	0.000203	2.026726	0.686674	-0.000081
 558	5.5422e+01	17.8038	47.569570	0.000253	2.533408	0.858342	-0.000101
 559	5.5521e+01	17.7749	47.513051	0.000142	1.418709	0.480671	-0.000057
 560	5.5620e+01	17.7268	47.424234	0.000223	2.229399	0.755341	-0.000089
 561	5.5720e+01	17.6963	47.351565	0.000182	1.824054	0.618006	-0.000073
 562	5.5819e+01	17.6466	47.258711	0.000233	2.330735	0.789675	-0.000093
 563	5.5919e+01	17.6016	47.157783	0.000253	2.533408	0.858342	-0.000101
 564	5.6019e+01	17.5599	47.113374	0.000111	1.114700	0.377670	-0.000045
 565	5.6118e+01	17.5214	47.032631	0.000203	2.026726	0.686674	-0.000081
 566	5.6218e+01	17.4845	46.959963	0.000182	1.824054	0.618006	-0.000073
 567	5.6317e+01	17.4396	46.867109	0.000233	2.330735	0.789675	-0.000093
 568	5.6416e+01	17.4043	46.778292	0.000223	2.229399	0.755341	-0.000089
 569	5.6516e+01	17.3578	46.725809	0.000132	1.317372	0.446338	-0.000053
 570	5.6615e+01	17.3225	46.624881	0.000253	2.533408	0.858342	-0.000101
 571	5.6715e+01	17.2744	46.564324	0.000152	1.520045	0.515005	-0.000061
 572	5.6815e+01	17.2471	46.463395	0.000253	2.533408	0.858342	-0.000101
 573	5.6914e+01	17.2038	46.390727	0.000182	1.824054	0.618006	-0.000073
 574	5.7014e+01	17.1589	46.318058	0.000182	1.824054	0.618006	-0.000073
 575	5.7113e+01	17.1252	46.200981	0.000294	2.938753	0.995677	-0.000118
 576	5.7212e+01	17.0851	46.188870	0.000030	0.304009	0.103001	-0.000012
 577	5.7312e+01	17.0418	46.067756	0.000304	3.040090	1.030010	-0.000122
 578	5.7411e+01	17.0017	45.982976	0.000213	2.128063	0.721007	-0.000085
 579	5.7511e+01	16.9599	45.882048	0.000253	2.533408	0.858342	-0.000101
 580	5.7611e+01	16.9214	45.817453	0.000162	1.621381	0.549339	-0.000065
 581	5.7710e+01	16.8829	45.732674	0.000213	2.128063	0.721007	-0.000085
 582	5.7809e+01	16.8509	45.700377	0.000081	0.810691	0.274669	-0.000032
 583	5.7909e+01	16.8043	45.591374	0.000274	2.736081	0.927009	-0.000110
 584	5.8008e+01	16.7706	45.522743	0.000172	1.722717	0.583672	-0.000069
 585	5.8108e+01	16.7193	45.401629	0.000304	3.040090	1.030010	-0.000122
 586	5.8208e+01	16.6856	45.385480	0.000041	0.405345	0.137335	-0.000016
 587	5.8307e+01	16.6519	45.292626	0.000233	2.330735	0.789675	-0.000093
 588	5.8407e+01	16.6006	45.187660	0.000263	2.634744	0.892676	-0.000105
 589	5.8506e+01	16.5669	45.086732	0.000253	2.533408	0.858342	-0.000101
 590	5.8605e+01	16.5268	45.046361	0.000101	1.013363	0.343337	-0.000041
 591	5.8705e+01	16.4915	44.933321	0.000284	2.837417	0.961343	-0.000114
 592	5.8804e+01	16.4482	44.876801	0.000142	1.418709	0.480671	-0.000057
 593	5.8904e+01	16.4065	44.783947	0.000233	2.330735	0.789675	-0.000093
 594	5.9004e+01	16.3600	44.687055	0.000243	2.432072	0.824008	-0.000097
 595	5.9103e+01	16.3263	44.622461	0.000162	1.621381	0.549339	-0.000065
 596	5.9203e+01	16.2878	44.553830	0.000172	1.722717	0.583672	-0.000069
 597	5.9302e+01	16.2493	44.481162	0.000182	1.824054	0.618006	-0.000073
 598	5.9401e+01	16.2108	44.356010	0.000314	3.141426	1.064344	-0.000126
 599	5.9501e+01	16.1626	44.263156	0.000233	2.330735	0.789675	-0.000093
 600	5.9600e+01	16.1257	44.230859	0.000081	0.810691	0.274669	-0.000032
 601	5.9700e+01	16.0921	44.129931	0.000253	2.533408	0.858342	-0.000101
 602	5.9800e+01	16.0503	44.053225	0.000193	1.925390	0.652340	-0.000077
 603	5.9899e+01	16.0102	43.952297	0.000253	2.533408	0.858342	-0.000101
 604	5.9998e+01	15.9733	43.920000	0.000081	0.810691	0.274669	-0.000032
 605	6.0098e+01	15.9268	43.815034	0.000263	2.634744	0.892676	-0.000105
 606	6.0197e+01	15.8867	43.730254	0.000213	2.128063	0.721007	-0.000085
 607	6.0297e+01	15.8562	43.673734	0.000142	1.418709	0.480671	-0.000057
 608	6.0397e+01	15.8097	43.560695	0.000284	2.837417	0.961343	-0.000114
 609	6.0496e+01	15.7792	43.492063	0.000172	1.722717	0.583672	-0.000069
 610	6.0596e+01	15.7359	43.379024	0.000284	2.837417	0.961343	-0.000114
 611	6.0695e+01	15.6974	43.306355	0.000182	1.824054	0.618006	-0.000073
 612	6.0794e+01	15.6493	43.189278	0.000294	2.938753	0.995677	-0.000118
 613	6.0894e+01	15.6092	43.144870	0.000111	1.114700	0.377670	-0.000045
 614	6.0993e+01	15.5659	43.039904	0.000263	2.634744	0.892676	-0.000105
 615	6.1093e+01	15.5322	42.938976	0.000253	2.533408	0.858342	-0.000101
 616	6.1193e+01	15.4889	42.846122	0.000233	2.330735	0.789675	-0.000093
 617	6.1292e+01	15.4552	42.813825	0.000081	0.810691	0.274669	-0.000032
 618	6.1392e+01	15.4151	42.692710	0.000304	3.040090	1.030010	-0.000122
 619	6.1491e+01	15.3718	42.616005	0.000193	1.925390	0.652340	-0.000077
 620	6.1590e+01	15.3300	42.551411	0.000162	1.621381	0.549339	-0.000065
 621	6.1690e+01	15.2851	42.482779	0.000172	1.722717	0.583672	-0.000069
 622	6.1789e+01	15.2530	42.402037	0.000203	2.026726	0.686674	-0.000081
 623	6.1889e+01	15.2145	42.276885	0.000314	3.141426	1.064344	-0.000126
 624	6.1989e+01	15.1680	42.216328	0.000152	1.520045	0.515005	-0.000061
 625	6.2088e+01	15.1440	42.111363	0.000263	2.634744	0.892676	-0.000105
 626	6.2188e+01	15.0990	42.026583	0.000213	2.128063	0.721007	-0.000085
 627	6.2287e+01	15.0493	41.970063	0.000142	1.418709	0.480671	-0.000057
 628	6.2386e+01	15.0188	41.889320	0.000203	2.026726	0.686674	-0.000081
 629	6.2486e+01	14.9707	41.784355	0.000263	2.634744	0.892676	-0.000105
 630	6.2586e+01	14.9322	41.695538	0.000223	2.229399	0.755341	-0.000089
 631	6.2685e+01	14.8953	41.639018	0.000142	1.418709	0.480671	-0.000057
 632	6.2785e+01	14.8552	41.534052	0.000263	2.634744	0.892676	-0.000105
 633	6.2884e+01	14.8071	41.477533	0.000142	1.418709	0.480671	-0.000057
 634	6.2983e+01	14.7750	41.392753	0.000213	2.128063	0.721007	-0.000085
 635	6.3083e+01	14.7317	41.287787	0.000263	2.634744	0.892676	-0.000105
 636	6.3182e+01	14.6996	41.207044	0.000203	2.026726	0.686674	-0.000081
 637	6.3282e+01	14.6579	41.134376	0.000182	1.824054	0.618006	-0.000073
 638	6.3382e+01	14.6194	41.045559	0.000223	2.229399	0.755341	-0.000089
 639	6.3481e+01	14.5632	40.989039	0.000142	1.418709	0.480671	-0.000057
 640	6.3581e+01	14.5392	40.892148	0.000243	2.432072	0.824008	-0.000097
 641	6.3680e+01	14.4926	40.815442	0.000193	1.925390	0.652340	-0.000077
 642	6.3779e+01	14.4509	40.706440	0.000274	2.736081	0.927009	-0.000110
 643	6.3879e+01	14.4188	40.649920	0.000142	1.418709	0.480671	-0.000057
 644	6.3978e+01	14.3739	40.540917	0.000274	2.736081	0.927009	-0.000110
 645	6.4078e+01	14.3306	40.492471	0.000122	1.216036	0.412004	-0.000049
 646	6.4177e+01	14.2969	40.379432	0.000284	2.837417	0.961343	-0.000114
 647	6.4277e+01	14.2616	40.306763	0.000182	1.824054	0.618006	-0.000073
 648	6.4376e+01	14.2135	40.209872	0.000243	2.432072	0.824008	-0.000097
 649	6.4476e+01	14.1846	40.104906	0.000263	2.634744	0.892676	-0.000105
 650	6.4576e+01	14.1301	40.036275	0.000172	1.722717	0.583672	-0.000069
 651	6.4675e+01	14.0948	39.951495	0.000213	2.128063	0.721007	-0.000085
 652	6.4775e+01	14.0515	39.850567	0.000253	2.533408	0.858342	-0.000101
 653	6.4874e+01	14.0146	39.781936	0.000172	1.722717	0.583672	-0.000069
 654	6.4974e+01	13.9761	39.676970	0.000263	2.634744	0.892676	-0.000105
 655	6.5073e+01	13.9408	39.608339	0.000172	1.722717	0.583672	-0.000069
 656	6.5172e+01	13.8894	39.467039	0.000355	3.546771	1.201679	-0.000142
 657	6.5272e+01	13.8654	39.438779	0.000071	0.709354	0.240336	-0.000028
 658	6.5371e+01	13.8124	39.349962	0.000223	2.229399	0.755341	-0.000089
 659	6.5471e+01	13.7836	39.228848	0.000304	3.040090	1.030010	-0.000122
 660	6.5570e+01	13.7451	39.172328	0.000142	1.418709	0.480671	-0.000057
 661	6.5670e+01	13.6905	39.067363	0.000263	2.634744	0.892676	-0.000105
 662	6.5769e+01	13.6536	39.010843	0.000142	1.418709	0.480671	-0.000057
 663	6.5869e+01	13.6167	38.938174	0.000182	1.824054	0.618006	-0.000073
 664	6.5969e+01	13.5798	38.829172	0.000274	2.736081	0.927009	-0.000110
 665	6.6068e+01	13.5397	38.728243	0.000253	2.533408	0.858342	-0.000101
 666	6.6168e+01	13.4932	38.659612	0.000172	1.722717	0.583672	-0.000069
 667	6.6267e+01	13.4563	38.538498	0.000304	3.040090	1.030010	-0.000122
 668	6.6367e+01	13.4210	38.445644	0.000233	2.330735	0.789675	-0.000093
 669	6.6466e+01	13.3825	38.381049	0.000162	1.621381	0.549339	-0.000065
 670	6.6566e+01	13.3392	38.300307	0.000203	2.026726	0.686674	-0.000081
 671	6.6665e+01	13.3007	38.215527	0.000213	2.128063	0.721007	-0.000085
 672	6.6764e+01	13.2638	38.130747	0.000213	2.128063	0.721007	-0.000085
 673	6.6864e+01	13.2141	38.017707	0.000284	2.837417	0.961343	-0.000114
 674	6.6963e+01	13.1772	37.941002	0.000193	1.925390	0.652340	-0.000077
 675	6.7063e+01	13.1419	37.848148	0.000233	2.330735	0.789675	-0.000093
 676	6.7162e+01	13.1002	37.751256	0.000243	2.432072	0.824008	-0.000097
 677	6.7262e+01	13.0520	37.666476	0.000213	2.128063	0.721007	-0.000085
 678	6.7362e+01	13.0119	37.541325	0.000314	3.141426	1.064344	-0.000126
 679	6.7461e+01	12.9815	37.488842	0.000132	1.317372	0.446338	-0.000053
 680	6.7561e+01	12.9413	37.379840	0.000274	2.736081	0.927009	-0.000110
 681	6.7660e+01	12.9109	37.319283	0.000152	1.520045	0.515005	-0.000061
 682	6.7760e+01	12.8563	37.234503	0.000213	2.128063	0.721007	-0.000085
 683	6.7859e+01	12.8194	37.113389	0.000304	3.040090	1.030010	-0.000122
 684	6.7959e+01	12.7809	37.056869	0.000142	1.418709	0.480671	-0.000057
 685	6.8058e+01	12.7408	36.976126	0.000203	2.026726	0.686674	-0.000081
 686	6.8157e+01	12.7087	36.859049	0.000294	2.938753	0.995677	-0.000118
 687	6.8257e+01	12.6654	36.770232	0.000223	2.229399	0.755341	-0.000089
 688	6.8356e+01	12.6381	36.709675	0.000152	1.520045	0.515005	-0.000061
 689	6.8456e+01	12.5900	36.600673	0.000274	2.736081	0.927009	-0.000110
 690	6.8555e+01	12.5435	36.503781	0.000243	2.432072	0.824008	-0.000097
 691	6.8655e+01	12.5034	36.427076	0.000193	1.925390	0.652340	-0.000077
 692	6.8754e+01	12.4729	36.350370	0.000193	1.925390	0.652340	-0.000077
 693	6.8854e+01	12.4216	36.257516	0.000233	2.330735	0.789675	-0.000093
 694	6.8954e+01	12.3863	36.144476	0.000284	2.837417	0.961343	-0.000114
 695	6.9053e+01	12.3414	36.075845	0.000172	1.722717	0.583672	-0.000069
 696	6.9153e+01	12.3061	35.966842	0.000274	2.736081	0.927009	-0.000110
 697	6.9252e+01	12.2660	35.869951	0.000243	2.432072	0.824008	-0.000097
 698	6.9352e+01	12.2307	35.773060	0.000243	2.432072	0.824008	-0.000097
 699	6.9451e+01	12.1890	35.696354	0.000193	1.925390	0.652340	-0.000077
 700	6.9550e+01	12.1440	35.619649	0.000193	1.925390	0.652340	-0.000077
 701	6.9650e+01	12.1087	35.506609	0.000284	2.837417	0.961343	-0.000114
 702	6.9749e+01	12.0638	35.413755	0.000233	2.330735	0.789675	-0.000093
 703	6.9849e+01	12.0189	35.333012	0.000203	2.026726	0.686674	-0.000081
 704	6.9948e+01	11.9965	35.215935	0.000294	2.938753	0.995677	-0.000118
 705	7.0048e+01	11.9435	35.143267	0.000182	1.824054	0.618006	-0.000073
 706	7.0147e+01	11.8986	35.098858	0.000111	1.114700	0.377670	-0.000045
 707	7.0247e+01	11.8617	34.949484	0.000375	3.749444	1.270346	-0.000150
 708	7.0347e+01	11.8360	34.880853	0.000172	1.722717	0.583672	-0.000069
 709	7.0446e+01	11.7895	34.751664	0.000324	3.242762	1.098678	-0.000130
 710	7.0546e+01	11.7478	34.650736	0.000253	2.533408	0.858342	-0.000101
 711	7.0645e+01	11.7029	34.586142	0.000162	1.621381	0.549339	-0.000065
 712	7.0745e+01	11.6676	34.493288	0.000233	2.330735	0.789675	-0.000093
 713	7.0844e+01	11.6307	34.376211	0.000294	2.938753	0.995677	-0.000118
 714	7.0944e+01	11.5777	34.259134	0.000294	2.938753	0.995677	-0.000118
 715	7.1043e+01	11.5505	34.194540	0.000162	1.621381	0.549339	-0.000065
 716	7.1142e+01	11.5056	34.093611	0.000253	2.533408	0.858342	-0.000101
 717	7.1242e+01	11.4735	33.992683	0.000253	2.533408	0.858342	-0.000101
 718	7.1341e+01	11.4205	33.863495	0.000324	3.242762	1.098678	-0.000130
 719	7.1441e+01	11.3884	33.798900	0.000162	1.621381	0.549339	-0.000065
 720	7.1540e+01	11.3499	33.697972	0.000253	2.533408	0.858342	-0.000101
 721	7.1640e+01	11.3018	33.613192	0.000213	2.128063	0.721007	-0.000085
 722	7.1740e+01	11.2649	33.496115	0.000294	2.938753	0.995677	-0.000118
 723	7.1839e+01	11.2344	33.427484	0.000172	1.722717	0.583672	-0.000069
 724	7.1939e+01	11.1911	33.338667	0.000223	2.229399	0.755341	-0.000089
 725	7.2038e+01	11.1526	33.217553	0.000304	3.040090	1.030010	-0.000122
 726	7.2138e+01	11.1109	33.120662	0.000243	2.432072	0.824008	-0.000097
 727	7.2237e+01	11.0660	33.027807	0.000233	2.330735	0.789675	-0.000093
 728	7.2337e+01	11.0371	32.918805	0.000274	2.736081	0.927009	-0.000110
 729	7.2436e+01	10.9938	32.817876	0.000253	2.533408	0.858342	-0.000101
 730	7.2535e+01	10.9377	32.729059	0.000223	2.229399	0.755341	-0.000089
 731	7.2635e+01	10.9072	32.595834	0.000334	3.344099	1.133011	-0.000134
 732	7.2734e+01	10.8703	32.543351	0.000132	1.317372	0.446338	-0.000053
 733	7.2834e+01	10.8286	32.446460	0.000243	2.432072	0.824008	-0.000097
 734	7.2933e+01	10.7869	32.313234	0.000334	3.344099	1.133011	-0.000134
 735	7.3033e+01	10.7468	32.240566	0.000182	1.824054	0.618006	-0.000073
 736	7.3132e+01	10.7147	32.163860	0.000193	1.925390	0.652340	-0.000077
 737	7.3232e+01	10.6714	32.014486	0.000375	3.749444	1.270346	-0.000150
 738	7.3332e+01	10.6313	31.953929	0.000152	1.520045	0.515005	-0.000061
 739	7.3431e+01	10.5911	31.869150	0.000213	2.128063	0.721007	-0.000085
 740	7.3531e+01	10.5494	31.760147	0.000274	2.736081	0.927009	-0.000110
 741	7.3630e+01	10.5174	31.655181	0.000263	2.634744	0.892676	-0.000105
 742	7.3730e+01	10.4772	31.566364	0.000223	2.229399	0.755341	-0.000089
 743	7.3829e+01	10.4259	31.473510	0.000233	2.330735	0.789675	-0.000093
 744	7.3928e+01	10.3922	31.364508	0.000274	2.736081	0.927009	-0.000110
 745	7.4028e+01	10.3537	31.271653	0.000233	2.330735	0.789675	-0.000093
 746	7.4127e+01	10.3120	31.178799	0.000233	2.330735	0.789675	-0.000093
 747	7.4227e+01	10.2655	31.057685	0.000304	3.040090	1.030010	-0.000122
 748	7.4326e+01	10.2286	30.960794	0.000243	2.432072	0.824008	-0.000097
 749	7.4426e+01	10.1821	30.831606	0.000324	3.242762	1.098678	-0.000130
 750	7.4525e+01	10.1548	30.779123	0.000132	1.317372	0.446338	-0.000053
 751	7.4625e+01	10.1179	30.690306	0.000223	2.229399	0.755341	-0.000089
 752	7.4725e+01	10.0698	30.565155	0.000314	3.141426	1.064344	-0.000126
 753	7.4824e+01	10.0361	30.460189	0.000263	2.634744	0.892676	-0.000105
 754	7.4924e+01	9.9896	30.387521	0.000182	1.824054	0.618006	-0.000073
 755	7.5023e+01	9.9639	30.270444	0.000294	2.938753	0.995677	-0.000118
 756	7.5123e+01	9.9158	30.169515	0.000253	2.533408	0.858342	-0.000101
 757	7.5222e+01	9.8692	30.092810	0.000193	1.925390	0.652340	-0.000077
 758	7.5322e+01	9.8372	29.979770	0.000284	2.837417	0.961343	-0.000114
 759	7.5421e+01	9.7922	29.886916	0.000233	2.330735	0.789675	-0.000093
 760	7.5520e+01	9.7569	29.802136	0.000213	2.128063	0.721007	-0.000085
 761	7.5620e+01	9.7056	29.713319	0.000223	2.229399	0.755341	-0.000089
 762	7.5719e+01	9.6687	29.555871	0.000395	3.952117	1.339013	-0.000158
 763	7.5819e+01	9.6366	29.483202	0.000182	1.824054	0.618006	-0.000073
 764	7.5918e+01	9.5997	29.374200	0.000274	2.736081	0.927009	-0.000110
 765	7.6018e+01	9.5532	29.289420	0.000213	2.128063	0.721007	-0.000085
 766	7.6118e+01	9.5163	29.196566	0.000233	2.330735	0.789675	-0.000093
 767	7.6217e+01	9.4778	29.067377	0.000324	3.242762	1.098678	-0.000130
 768	7.6317e+01	9.4329	28.970486	0.000243	2.432072	0.824008	-0.000097
 769	7.6416e+01	9.4024	28.869558	0.000253	2.533408	0.858342	-0.000101
 770	7.6516e+01	9.3575	28.776704	0.000233	2.330735	0.789675	-0.000093
 771	7.6615e+01	9.3190	28.655589	0.000304	3.040090	1.030010	-0.000122
 772	7.6715e+01	9.2821	28.546587	0.000274	2.736081	0.927009	-0.000110
 773	7.6814e+01	9.2340	28.465844	0.000203	2.026726	0.686674	-0.000081
 774	7.6913e+01	9.1971	28.381064	0.000213	2.128063	0.721007	-0.000085
 775	7.7013e+01	9.1538	28.308396	0.000182	1.824054	0.618006	-0.000073
 776	7.7112e+01	9.1120	28.126725	0.000456	4.560135	1.545015	-0.000183
 777	7.7212e+01	9.0784	28.086353	0.000101	1.013363	0.343337	-0.000041
 778	7.7311e+01	9.0415	27.920831	0.000415	4.154789	1.407681	-0.000166
 779	7.7411e+01	8.9997	27.872385	0.000122	1.216036	0.412004	-0.000049
 780	7.7510e+01	8.9596	27.735123	0.000345	3.445435	1.167345	-0.000138
 781	7.7610e+01	8.9163	27.658417	0.000193	1.925390	0.652340	-0.000077
 782	7.7710e+01	8.8794	27.557489	0.000253	2.533408	0.858342	-0.000101
 783	7.7809e+01	8.8345	27.452523	0.000263	2.634744	0.892676	-0.000105
 784	7.7909e+01	8.8008	27.339483	0.000284	2.837417	0.961343	-0.000114
 785	7.8008e+01	8.7591	27.250666	0.000223	2.229399	0.755341	-0.000089
 786	7.8108e+01	8.7206	27.121478	0.000324	3.242762	1.098678	-0.000130
 787	7.8207e+01	8.6757	27.020549	0.000253	2.533408	0.858342	-0.000101
 788	7.8306e+01	8.6372	26.943844	0.000193	1.925390	0.652340	-0.000077
 789	7.8406e+01	8.5955	26.879250	0.000162	1.621381	0.549339	-0.000065
 790	7.8505e+01	8.5522	26.721801	0.000395	3.952117	1.339013	-0.000158
 791	7.8605e+01	8.5217	26.641059	0.000203	2.026726	0.686674	-0.000081
 792	7.8704e+01	8.4848	26.499759	0.000355	3.546771	1.201679	-0.000142
 793	7.8804e+01	8.4286	26.398831	0.000253	2.533408	0.858342	-0.000101
 794	7.8903e+01	8.4078	26.370571	0.000071	0.709354	0.240336	-0.000028
 795	7.9003e+01	8.3500	26.196974	0.000436	4.357462	1.476348	-0.000174
 796	7.9103e+01	8.3324	26.144491	0.000132	1.317372	0.446338	-0.000053
 797	7.9202e+01	8.2810	26.035488	0.000274	2.736081	0.927009	-0.000110
 798	7.9302e+01	8.2458	25.914374	0.000304	3.040090	1.030010	-0.000122
 799	7.9401e+01	8.1960	25.777112	0.000345	3.445435	1.167345	-0.000138
 800	7.9501e+01	8.1575	25.732703	0.000111	1.114700	0.377670	-0.000045
 801	7.9600e+01	8.1222	25.631775	0.000253	2.533408	0.858342	-0.000101
 802	7.9700e+01	8.0725	25.518735	0.000284	2.837417	0.961343	-0.000114
 803	7.9799e+01	8.0404	25.389547	0.000324	3.242762	1.098678	-0.000130
 804	7.9898e+01	8.0035	25.337064	0.000132	1.317372	0.446338	-0.000053
 805	7.9998e+01	7.9666	25.207876	0.000324	3.242762	1.098678	-0.000130
 806	8.0097e+01	7.9169	25.062539	0.000365	3.648108	1.236012	-0.000146
 807	8.0197e+01	7.8880	24.997944	0.000162	1.621381	0.549339	-0.000065
 808	8.0296e+01	7.8399	24.909128	0.000223	2.229399	0.755341	-0.000089
 809	8.0396e+01	7.8014	24.800125	0.000274	2.736081	0.927009	-0.000110
 810	8.0496e+01	7.7661	24.674974	0.000314	3.141426	1.064344	-0.000126
 811	8.0595e+01	7.7244	24.610379	0.000162	1.621381	0.549339	-0.000065
 812	8.0695e+01	7.6714	24.533674	0.000193	1.925390	0.652340	-0.000077
 813	8.0794e+01	7.6361	24.388337	0.000365	3.648108	1.236012	-0.000146
 814	8.0894e+01	7.5993	24.295483	0.000233	2.330735	0.789675	-0.000093
 815	8.0993e+01	7.5656	24.186480	0.000274	2.736081	0.927009	-0.000110
 816	8.1093e+01	7.5271	24.081515	0.000263	2.634744	0.892676	-0.000105
 817	8.1192e+01	7.4725	23.972512	0.000274	2.736081	0.927009	-0.000110
 818	8.1291e+01	7.4388	23.859472	0.000284	2.837417	0.961343	-0.000114
 819	8.1391e+01	7.3939	23.718172	0.000355	3.546771	1.201679	-0.000142
 820	8.1490e+01	7.3634	23.649541	0.000172	1.722717	0.583672	-0.000069
 821	8.1590e+01	7.3217	23.580910	0.000172	1.722717	0.583672	-0.000069
 822	8.1689e+01	7.2944	23.427499	0.000385	3.850780	1.304680	-0.000154
 823	8.1789e+01	7.2447	23.358867	0.000172	1.722717	0.583672	-0.000069
 824	8.1888e+01	7.2046	23.257939	0.000253	2.533408	0.858342	-0.000101
 825	8.1988e+01	7.1741	23.136825	0.000304	3.040090	1.030010	-0.000122
 826	8.2088e+01	7.1148	23.011674	0.000314	3.141426	1.064344	-0.000126
 827	8.2187e+01	7.0715	22.926894	0.000213	2.128063	0.721007	-0.000085
 828	8.2287e+01	7.0490	22.789631	0.000345	3.445435	1.167345	-0.000138
 829	8.2386e+01	7.0025	22.692740	0.000243	2.432072	0.824008	-0.000097
 830	8.2486e+01	6.9640	22.579700	0.000284	2.837417	0.961343	-0.000114
 831	8.2585e+01	6.9367	22.474735	0.000263	2.634744	0.892676	-0.000105
 832	8.2684e+01	6.8773	22.377843	0.000243	2.432072	0.824008	-0.000097
 833	8.2784e+01	6.8421	22.272878	0.000263	2.634744	0.892676	-0.000105
 834	8.2883e+01	6.8036	22.184061	0.000223	2.229399	0.755341	-0.000089
 835	8.2983e+01	6.7602	22.054873	0.000324	3.242762	1.098678	-0.000130
 836	8.3082e+01	6.7314	21.945870	0.000274	2.736081	0.927009	-0.000110
 837	8.3182e+01	6.6784	21.832830	0.000284	2.837417	0.961343	-0.000114
 838	8.3281e+01	6.6415	21.719790	0.000284	2.837417	0.961343	-0.000114
 839	8.3381e+01	6.5998	21.594639	0.000314	3.141426	1.064344	-0.000126
 840	8.3481e+01	6.5661	21.497748	0.000243	2.432072	0.824008	-0.000097
 841	8.3580e+01	6.5292	21.396819	0.000253	2.533408	0.858342	-0.000101
 842	8.3680e+01	6.4843	21.263594	0.000334	3.344099	1.133011	-0.000134
 843	8.3779e+01	6.4458	21.182851	0.000203	2.026726	0.686674	-0.000081
 844	8.3879e+01	6.4105	21.098071	0.000213	2.128063	0.721007	-0.000085
 845	8.3978e+01	6.3624	20.976957	0.000304	3.040090	1.030010	-0.000122
 846	8.4078e+01	6.3239	20.892177	0.000213	2.128063	0.721007	-0.000085
 847	8.4177e+01	6.2918	20.714543	0.000446	4.458798	1.510682	-0.000179
 848	8.4276e+01	6.2453	20.629764	0.000213	2.128063	0.721007	-0.000085
 849	8.4376e+01	6.2132	20.544984	0.000213	2.128063	0.721007	-0.000085
 850	8.4475e+01	6.1683	20.415795	0.000324	3.242762	1.098678	-0.000130
 851	8.4575e+01	6.1378	20.322941	0.000233	2.330735	0.789675	-0.000093
 852	8.4674e+01	6.0913	20.201827	0.000304	3.040090	1.030010	-0.000122
 853	8.4774e+01	6.0447	20.096862	0.000263	2.634744	0.892676	-0.000105
 854	8.4874e+01	6.0111	19.991896	0.000263	2.634744	0.892676	-0.000105
 855	8.4973e+01	5.9758	19.911153	0.000203	2.026726	0.686674	-0.000081
 856	8.5073e+01	5.9244	19.765817	0.000365	3.648108	1.236012	-0.000146
 857	8.5172e+01	5.8907	19.664888	0.000253	2.533408	0.858342	-0.000101
 858	8.5272e+01	5.8506	19.507440	0.000395	3.952117	1.339013	-0.000158
 859	8.5371e+01	5.8121	19.418623	0.000223	2.229399	0.755341	-0.000089
 860	8.5471e+01	5.7720	19.349992	0.000172	1.722717	0.583672	-0.000069
 861	8.5570e+01	5.7287	19.224840	0.000314	3.141426	1.064344	-0.000126
 862	8.5669e+01	5.6934	19.119875	0.000263	2.634744	0.892676	-0.000105
 863	8.5769e+01	5.6485	18.994724	0.000314	3.141426	1.064344	-0.000126
 864	8.5868e+01	5.6068	18.877647	0.000294	2.938753	0.995677	-0.000118
 865	8.5968e+01	5.5715	18.776718	0.000253	2.533408	0.858342	-0.000101
 866	8.6067e+01	5.5346	18.635419	0.000355	3.546771	1.201679	-0.000142
 867	8.6167e+01	5.4945	18.582936	0.000132	1.317372	0.446338	-0.000053
 868	8.6266e+01	5.4528	18.457785	0.000314	3.141426	1.064344	-0.000126
 869	8.6366e+01	5.4191	18.364930	0.000233	2.330735	0.789675	-0.000093
 870	8.6466e+01	5.3662	18.211519	0.000385	3.850780	1.304680	-0.000154
 871	8.6565e+01	5.3357	18.118665	0.000233	2.330735	0.789675	-0.000093
 872	8.6665e+01	5.2876	17.977365	0.000355	3.546771	1.201679	-0.000142
 873	8.6764e+01	5.2490	17.932957	0.000111	1.114700	0.377670	-0.000045
 874	8.6864e+01	5.2105	17.767434	0.000415	4.154789	1.407681	-0.000166
 875	8.6963e+01	5.1672	17.630172	0.000345	3.445435	1.167345	-0.000138
 876	8.7063e+01	5.1287	17.525206	0.000263	2.634744	0.892676	-0.000105
 877	8.7162e+01	5.0854	17.408129	0.000294	2.938753	0.995677	-0.000118
 878	8.7261e+01	5.0517	17.278941	0.000324	3.242762	1.098678	-0.000130
 879	8.7361e+01	5.0180	17.206273	0.000182	1.824054	0.618006	-0.000073
 880	8.7460e+01	4.9747	17.048824	0.000395	3.952117	1.339013	-0.000158
 881	8.7560e+01	4.9410	16.931747	0.000294	2.938753	0.995677	-0.000118
 882	8.7659e+01	4.8961	16.826782	0.000263	2.634744	0.892676	-0.000105
 883	8.7759e+01	4.8528	16.693556	0.000334	3.344099	1.133011	-0.000134
 884	8.7859e+01	4.8159	16.612814	0.000203	2.026726	0.686674	-0.000081
 885	8.7958e+01	4.7646	16.487662	0.000314	3.141426	1.064344	-0.000126
 886	8.8058e+01	4.7325	16.358474	0.000324	3.242762	1.098678	-0.000130
 887	8.8157e+01	4.7004	16.217174	0.000355	3.546771	1.201679	-0.000142
 888	8.8257e+01	4.6491	16.124320	0.000233	2.330735	0.789675	-0.000093
 889	8.8356e+01	4.6106	15.995132	0.000324	3.242762	1.098678	-0.000130
 890	8.8456e+01	4.5753	15.869981	0.000314	3.141426	1.064344	-0.000126
 891	8.8555e+01	4.5432	15.781164	0.000223	2.229399	0.755341	-0.000089
 892	8.8654e+01	4.4967	15.651975	0.000324	3.242762	1.098678	-0.000130
 893	8.8754e+01	4.4469	15.510676	0.000355	3.546771	1.201679	-0.000142
 894	8.8853e+01	4.4181	15.413784	0.000243	2.432072	0.824008	-0.000097
 895	8.8953e+01	4.3763	15.276522	0.000345	3.445435	1.167345	-0.000138
 896	8.9052e+01	4.3298	15.151370	0.000314	3.141426	1.064344	-0.000126
 897	8.9152e+01	4.3074	15.054479	0.000243	2.432072	0.824008	-0.000097
 898	8.9251e+01	4.2576	14.953551	0.000253	2.533408	0.858342	-0.000101
 899	8.9351e+01	4.2175	14.804177	0.000375	3.749444	1.270346	-0.000150
 900	8.9451e+01	4.1806	14.695174	0.000274	2.736081	0.927009	-0.000110
 901	8.9550e+01	4.1357	14.549837	0.000365	3.648108	1.236012	-0.000146
 902	8.9650e+01	4.0924	14.489280	0.000152	1.520045	0.515005	-0.000061
 903	8.9749e+01	4.0539	14.360092	0.000324	3.242762	1.098678	-0.000130
 904	8.9849e+01	4.0170	14.190532	0.000426	4.256126	1.442014	-0.000170
 905	8.9948e+01	3.9737	14.109789	0.000203	2.026726	0.686674	-0.000081
 906	9.0047e+01	3.9336	13.956378	0.000385	3.850780	1.304680	-0.000154
 907	9.0147e+01	3.8903	13.831227	0.000314	3.141426	1.064344	-0.000126
 908	9.0246e+01	3.8566	13.738373	0.000233	2.330735	0.789675	-0.000093
 909	9.0346e+01	3.8245	13.645519	0.000233	2.330735	0.789675	-0.000093
 910	9.0445e+01	3.7812	13.488071	0.000395	3.952117	1.339013	-0.000158
 911	9.0545e+01	3.7314	13.399254	0.000223	2.229399	0.755341	-0.000089
 912	9.0644e+01	3.6994	13.245842	0.000385	3.850780	1.304680	-0.000154
 913	9.0744e+01	3.6625	13.173174	0.000182	1.824054	0.618006	-0.000073
 914	9.0844e+01	3.6111	13.027837	0.000365	3.648108	1.236012	-0.000146
 915	9.0943e+01	3.5774	12.934983	0.000233	2.330735	0.789675	-0.000093
 916	9.1043e+01	3.5405	12.793683	0.000355	3.546771	1.201679	-0.000142
 917	9.1142e+01	3.5004	12.668532	0.000314	3.141426	1.064344	-0.000126
 918	9.1242e+01	3.4555	12.503009	0.000415	4.154789	1.407681	-0.000166
 919	9.1341e+01	3.4186	12.398044	0.000263	2.634744	0.892676	-0.000105
 920	9.1441e+01	3.3817	12.289041	0.000274	2.736081	0.927009	-0.000110
 921	9.1540e+01	3.3288	12.184076	0.000263	2.634744	0.892676	-0.000105
 922	9.1639e+01	3.2967	12.050850	0.000334	3.344099	1.133011	-0.000134
 923	9.1739e+01	3.2598	11.957996	0.000233	2.330735	0.789675	-0.000093
 924	9.1838e+01	3.2181	11.808622	0.000375	3.749444	1.270346	-0.000150
 925	9.1938e+01	3.1828	11.695582	0.000284	2.837417	0.961343	-0.000114
 926	9.2037e+01	3.1331	11.562357	0.000334	3.344099	1.133011	-0.000134
 927	9.2137e+01	3.0994	11.437206	0.000314	3.141426	1.064344	-0.000126
 928	9.2237e+01	3.0673	11.320129	0.000294	2.938753	0.995677	-0.000118
 929	9.2336e+01	3.0144	11.199015	0.000304	3.040090	1.030010	-0.000122
 930	9.2436e+01	2.9662	11.098086	0.000253	2.533408	0.858342	-0.000101
 931	9.2535e+01	2.9341	10.940638	0.000395	3.952117	1.339013	-0.000158
 932	9.2635e+01	2.9069	10.851821	0.000223	2.229399	0.755341	-0.000089
 933	9.2734e+01	2.8539	10.694373	0.000395	3.952117	1.339013	-0.000158
 934	9.2834e+01	2.8138	10.589407	0.000263	2.634744	0.892676	-0.000105
 935	9.2933e+01	2.7849	10.431959	0.000395	3.952117	1.339013	-0.000158
 936	9.3032e+01	2.7384	10.335067	0.000243	2.432072	0.824008	-0.000097
 937	9.3132e+01	2.6999	10.230102	0.000263	2.634744	0.892676	-0.000105
 938	9.3231e+01	2.6614	10.100914	0.000324	3.242762	1.098678	-0.000130
 939	9.3331e+01	2.6245	9.975762	0.000314	3.141426	1.064344	-0.000126
 940	9.3430e+01	2.5796	9.850611	0.000314	3.141426	1.064344	-0.000126
 941	9.3530e+01	2.5347	9.737571	0.000284	2.837417	0.961343	-0.000114
 942	9.3629e+01	2.5010	9.580123	0.000395	3.952117	1.339013	-0.000158
 943	9.3729e+01	2.4593	9.446898	0.000334	3.344099	1.133011	-0.000134
 944	9.3829e+01	2.4272	9.354044	0.000233	2.330735	0.789675	-0.000093
 945	9.3928e+01	2.3791	9.232929	0.000304	3.040090	1.030010	-0.000122
 946	9.4028e+01	2.3390	9.103741	0.000324	3.242762	1.098678	-0.000130
 947	9.4127e+01	2.3069	8.954367	0.000375	3.749444	1.270346	-0.000150
 948	9.4227e+01	2.2684	8.776733	0.000446	4.458798	1.510682	-0.000179
 949	9.4326e+01	2.2219	8.732325	0.000111	1.114700	0.377670	-0.000045
 950	9.4425e+01	2.1802	8.619285	0.000284	2.837417	0.961343	-0.000114
 951	9.4525e+01	2.1433	8.441651	0.000446	4.458798	1.510682	-0.000179
 952	9.4624e+01	2.1015	8.304388	0.000345	3.445435	1.167345	-0.000138
 953	9.4724e+01	2.0646	8.191348	0.000284	2.837417	0.961343	-0.000114
 954	9.4823e+01	2.0229	8.082346	0.000274	2.736081	0.927009	-0.000110
 955	9.4923e+01	1.9876	7.949120	0.000334	3.344099	1.133011	-0.000134
 956	9.5022e+01	1.9411	7.844155	0.000263	2.634744	0.892676	-0.000105
 957	9.5122e+01	1.9026	7.666521	0.000446	4.458798	1.510682	-0.000179
 958	9.5222e+01	1.8609	7.573667	0.000233	2.330735	0.789675	-0.000093
 959	9.5321e+01	1.8208	7.432367	0.000355	3.546771	1.201679	-0.000142
 960	9.5421e+01	1.7855	7.291067	0.000355	3.546771	1.201679	-0.000142
 961	9.5520e+01	1.7454	7.182064	0.000274	2.736081	0.927009	-0.000110
 962	9.5620e+01	1.7069	7.073062	0.000274	2.736081	0.927009	-0.000110
 963	9.5719e+01	1.6684	6.915614	0.000395	3.952117	1.339013	-0.000158
 964	9.5819e+01	1.6299	6.822759	0.000233	2.330735	0.789675	-0.000093
 965	9.5918e+01	1.5898	6.685497	0.000345	3.445435	1.167345	-0.000138
 966	9.6017e+01	1.5449	6.568420	0.000294	2.938753	0.995677	-0.000118
 967	9.6117e+01	1.5080	6.439232	0.000324	3.242762	1.098678	-0.000130
 968	9.6216e+01	1.4663	6.318117	0.000304	3.040090	1.030010	-0.000122
 969	9.6316e+01	1.4262	6.184892	0.000334	3.344099	1.133011	-0.000134
 970	9.6415e+01	1.3909	6.075889	0.000274	2.736081	0.927009	-0.000110
 971	9.6515e+01	1.3331	5.946701	0.000324	3.242762	1.098678	-0.000130
 972	9.6615e+01	1.3091	5.789253	0.000395	3.952117	1.339013	-0.000158
 973	9.6714e+01	1.2657	5.704473	0.000213	2.128063	0.721007	-0.000085
 974	9.6814e+01	1.2208	5.591433	0.000284	2.837417	0.961343	-0.000114
 975	9.6913e+01	1.1871	5.417836	0.000436	4.357462	1.476348	-0.000174
 976	9.7013e+01	1.1486	5.333056	0.000213	2.128063	0.721007	-0.000085
 977	9.7112e+01	1.1069	5.155422	0.000446	4.458798	1.510682	-0.000179
 978	9.7212e+01	1.0684	5.034308	0.000304	3.040090	1.030010	-0.000122
 979	9.7311e+01	1.0267	4.945491	0.000223	2.229399	0.755341	-0.000089
 980	9.7410e+01	0.9898	4.820340	0.000314	3.141426	1.064344	-0.000126
 981	9.7510e+01	0.9497	4.666929	0.000385	3.850780	1.304680	-0.000154
 982	9.7609e+01	0.9112	4.529666	0.000345	3.445435	1.167345	-0.000138
 983	9.7709e+01	0.8759	4.444886	0.000213	2.128063	0.721007	-0.000085
 984	9.7808e+01	0.8294	4.275327	0.000426	4.256126	1.442014	-0.000170
 985	9.7908e+01	0.7893	4.117878	0.000395	3.952117	1.339013	-0.000158
 986	9.8007e+01	0.7524	4.025024	0.000233	2.330735	0.789675	-0.000093
 987	9.8107e+01	0.7043	3.895836	0.000324	3.242762	1.098678	-0.000130
 988	9.8207e+01	0.6658	3.778759	0.000294	2.938753	0.995677	-0.000118
 989	9.8306e+01	0.6273	3.645534	0.000334	3.344099	1.133011	-0.000134
 990	9.8406e+01	0.5952	3.475974	0.000426	4.256126	1.442014	-0.000170
 991	9.8505e+01	0.5503	3.387157	0.000223	2.229399	0.755341	-0.000089
 992	9.8605e+01	0.5037	3.233746	0.000385	3.850780	1.304680	-0.000154
 993	9.8704e+01	0.4668	3.104557	0.000324	3.242762	1.098678	-0.000130
 994	9.8803e+01	0.4347	2.979406	0.000314	3.141426	1.064344	-0.000126
 995	9.8903e+01	0.3946	2.813884	0.000415	4.154789	1.407681	-0.000166
 996	9.9002e+01	0.3481	2.688732	0.000314	3.141426	1.064344	-0.000126
 997	9.9102e+01	0.3096	2.587804	0.000253	2.533408	0.858342	-0.000101
 998	9.9201e+01	0.2711	2.462653	0.000314	3.141426	1.064344	-0.000126
 999	9.9301e+01	0.2294	2.353650	0.000274	2.736081	0.927009	-0.000110
1000	9.9400e+01	0.1893	2.228499	0.000314	3.141426	1.064344	-0.000126
1001	9.9500e+01	0.1492	2.079125	0.000375	3.749444	1.270346	-0.000150
1002	9.9600e+01	0.1107	1.958011	0.000304	3.040090	1.030010	-0.000122
1003	9.9699e+01	0.0722	1.812674	0.000365	3.648108	1.236012	-0.000146
1004	9.9799e+01	0.0289	1.703671	0.000274	2.736081	0.927009	-0.000110
1005	9.9898e+01	-0.0016	1.550260	0.000385	3.850780	1.304680	-0.000154
1006	9.9998e+01	-0.0289	1.457406	0.000233	2.330735	0.789675	-0.000093
1007	1.0010e+02	-0.0738	1.308032	0.000375	3.749444	1.270346	-0.000150
1008	1.0020e+02	-0.1203	1.170769	0.000345	3.445435	1.167345	-0.000138
1009	1.0030e+02	-0.1604	1.029470	0.000355	3.546771	1.201679	-0.000142
1010	1.0040e+02	-0.2118	0.924504	0.000263	2.634744	0.892676	-0.000105
1011	1.0050e+02	-0.2438	0.819539	0.000263	2.634744	0.892676	-0.000105
1012	1.0059e+02	-0.2727	0.649979	0.000426	4.256126	1.442014	-0.000170
1013	1.0069e+02	-0.3305	0.528865	0.000304	3.040090	1.030010	-0.000122
1014	1.0079e+02	-0.3610	0.379491	0.000375	3.749444	1.270346	-0.000150
1015	1.0089e+02	-0.4043	0.230117	0.000375	3.749444	1.270346	-0.000150
1016	1.0099e+02	-0.4380	0.121114	0.000274	2.736081	0.927009	-0.000110
1017	1.0109e+02	-0.4749	0.008074	0.000284	2.837417	0.961343	-0.000114
1018	1.0119e+02	-0.5262	-0.153411	0.000405	4.053453	1.373347	-0.000162
1019	1.0129e+02	-0.5519	-0.242228	0.000223	2.229399	0.755341	-0.000089
1020	1.0139e+02	-0.6016	-0.355268	0.000284	2.837417	0.961343	-0.000114
1021	1.0149e+02	-0.6417	-0.512716	0.000395	3.952117	1.339013	-0.000158
1022	1.0159e+02	-0.6882	-0.645942	0.000334	3.344099	1.133011	-0.000134
1023	1.0169e+02	-0.7219	-0.771093	0.000314	3.141426	1.064344	-0.000126
1024	1.0179e+02	-0.7572	-0.932578	0.000405	4.053453	1.373347	-0.000162
1025	1.0189e+02	-0.7973	-1.005247	0.000182	1.824054	0.618006	-0.000073
1026	1.0199e+02	-0.8390	-1.194992	0.000476	4.762807	1.613683	-0.000191
1027	1.0209e+02	-0.8759	-1.299958	0.000263	2.634744	0.892676	-0.000105
1028	1.0219e+02	-0.9176	-1.457406	0.000395	3.952117	1.339013	-0.000158
1029	1.0229e+02	-0.9625	-1.546223	0.000223	2.229399	0.755341	-0.000089
1030	1.0239e+02	-0.9978	-1.683486	0.000345	3.445435	1.167345	-0.000138
1031	1.0248e+02	-1.0411	-1.816711	0.000334	3.344099	1.133011	-0.000134
1032	1.0258e+02	-1.0780	-1.974159	0.000395	3.952117	1.339013	-0.000158
1033	1.0268e+02	-1.1165	-2.107385	0.000334	3.344099	1.133011	-0.000134
1034	1.0278e+02	-1.1454	-2.208313	0.000253	2.533408	0.858342	-0.000101
1035	1.0288e+02	-1.1968	-2.349613	0.000355	3.546771	1.201679	-0.000142
1036	1.0298e+02	-1.2288	-2.450541	0.000253	2.533408	0.858342	-0.000101
1037	1.0308e+02	-1.2882	-2.603953	0.000385	3.850780	1.304680	-0.000154
1038	1.0318e+02	-1.3219	-2.749289	0.000365	3.648108	1.236012	-0.000146
1039	1.0328e+02	-1.3476	-2.874441	0.000314	3.141426	1.064344	-0.000126
1040	1.0338e+02	-1.3941	-3.015740	0.000355	3.546771	1.201679	-0.000142
1041	1.0348e+02	-1.4374	-3.120706	0.000263	2.634744	0.892676	-0.000105
1042	1.0358e+02	-1.4759	-3.245857	0.000314	3.141426	1.064344	-0.000126
1043	1.0368e+02	-1.5192	-3.387157	0.000355	3.546771	1.201679	-0.000142
1044	1.0378e+02	-1.5673	-3.500197	0.000284	2.837417	0.961343	-0.000114
1045	1.0388e+02	-1.5946	-3.685905	0.000466	4.661471	1.579349	-0.000187
1046	1.0398e+02	-1.6299	-3.770685	0.000213	2.128063	0.721007	-0.000085
1047	1.0408e+02	-1.6780	-3.932170	0.000405	4.053453	1.373347	-0.000162
1048	1.0418e+02	-1.7165	-4.057321	0.000314	3.141426	1.064344	-0.000126
1049	1.0428e+02	-1.7550	-4.174398	0.000294	2.938753	0.995677	-0.000118
1050	1.0438e+02	-1.7919	-4.307624	0.000334	3.344099	1.133011	-0.000134
1051	1.0447e+02	-1.8385	-4.444886	0.000345	3.445435	1.167345	-0.000138
1052	1.0457e+02	-1.8721	-4.553889	0.000274	2.736081	0.927009	-0.000110
1053	1.0467e+02	-1.9122	-4.739597	0.000466	4.661471	1.579349	-0.000187
1054	1.0477e+02	-1.9572	-4.824377	0.000213	2.128063	0.721007	-0.000085
1055	1.0487e+02	-1.9876	-4.965677	0.000355	3.546771	1.201679	-0.000142
1056	1.0497e+02	-2.0342	-5.119088	0.000385	3.850780	1.304680	-0.000154
1057	1.0507e+02	-2.0759	-5.268462	0.000375	3.749444	1.270346	-0.000150
1058	1.0517e+02	-2.1192	-5.381502	0.000284	2.837417	0.961343	-0.000114
1059	1.0527e+02	-2.1529	-5.466282	0.000213	2.128063	0.721007	-0.000085
1060	1.0537e+02	-2.1962	-5.615656	0.000375	3.749444	1.270346	-0.000150
1061	1.0547e+02	-2.2411	-5.748881	0.000334	3.344099	1.133011	-0.000134
1062	1.0557e+02	-2.2716	-5.918441	0.000426	4.256126	1.442014	-0.000170
1063	1.0567e+02	-2.3181	-5.999184	0.000203	2.026726	0.686674	-0.000081
1064	1.0577e+02	-2.3518	-6.136446	0.000345	3.445435	1.167345	-0.000138
1065	1.0587e+02	-2.3967	-6.233338	0.000243	2.432072	0.824008	-0.000097
1066	1.0597e+02	-2.4384	-6.366563	0.000334	3.344099	1.133011	-0.000134
1067	1.0607e+02	-2.4657	-6.503826	0.000345	3.445435	1.167345	-0.000138
1068	1.0617e+02	-2.5074	-6.653200	0.000375	3.749444	1.270346	-0.000150
1069	1.0627e+02	-2.5523	-6.766239	0.000284	2.837417	0.961343	-0.000114
1070	1.0637e+02	-2.5940	-6.935799	0.000426	4.256126	1.442014	-0.000170
1071	1.0647e+02	-2.6325	-7.004431	0.000172	1.722717	0.583672	-0.000069
1072	1.0656e+02	-2.6678	-7.145730	0.000355	3.546771	1.201679	-0.000142
1073	1.0666e+02	-2.7031	-7.262807	0.000294	2.938753	0.995677	-0.000118
1074	1.0676e+02	-2.7497	-7.408144	0.000365	3.648108	1.236012	-0.000146
1075	1.0686e+02	-2.7930	-7.537332	0.000324	3.242762	1.098678	-0.000130
1076	1.0696e+02	-2.8267	-7.662484	0.000314	3.141426	1.064344	-0.000126
1077	1.0706e+02	-2.8620	-7.783598	0.000304	3.040090	1.030010	-0.000122
1078	1.0716e+02	-2.9101	-7.953157	0.000426	4.256126	1.442014	-0.000170
1079	1.0726e+02	-2.9502	-8.037937	0.000213	2.128063	0.721007	-0.000085
1080	1.0736e+02	-2.9887	-8.171163	0.000334	3.344099	1.133011	-0.000134
1081	1.0746e+02	-3.0288	-8.312462	0.000355	3.546771	1.201679	-0.000142
1082	1.0756e+02	-3.0705	-8.417428	0.000263	2.634744	0.892676	-0.000105
1083	1.0766e+02	-3.0994	-8.586988	0.000426	4.256126	1.442014	-0.000170
1084	1.0776e+02	-3.1523	-8.623322	0.000091	0.912027	0.309003	-0.000037
1085	1.0786e+02	-3.1908	-8.764622	0.000355	3.546771	1.201679	-0.000142
1086	1.0796e+02	-3.2309	-8.913996	0.000375	3.749444	1.270346	-0.000150
1087	1.0806e+02	-3.2598	-9.035110	0.000304	3.040090	1.030010	-0.000122
1088	1.0816e+02	-3.3143	-9.148150	0.000284	2.837417	0.961343	-0.000114
1089	1.0826e+02	-3.3464	-9.301561	0.000385	3.850780	1.304680	-0.000154
1090	1.0836e+02	-3.3881	-9.442860	0.000355	3.546771	1.201679	-0.000142
1091	1.0845e+02	-3.4411	-9.551863	0.000274	2.736081	0.927009	-0.000110
1092	1.0855e+02	-3.4635	-9.656829	0.000263	2.634744	0.892676	-0.000105
1093	1.0865e+02	-3.5117	-9.749683	0.000233	2.330735	0.789675	-0.000093
1094	1.0875e+02	-3.5486	-9.890983	0.000355	3.546771	1.201679	-0.000142
1095	1.0885e+02	-3.5919	-10.024208	0.000334	3.344099	1.133011	-0.000134
1096	1.0895e+02	-3.6224	-10.137248	0.000284	2.837417	0.961343	-0.000114
1097	1.0905e+02	-3.6689	-10.282585	0.000365	3.648108	1.236012	-0.000146
1098	1.0915e+02	-3.7042	-10.379476	0.000243	2.432072	0.824008	-0.000097
1099	1.0925e+02	-3.7587	-10.480404	0.000253	2.533408	0.858342	-0.000101
1100	1.0935e+02	-3.7876	-10.649964	0.000426	4.256126	1.442014	-0.000170
1101	1.0945e+02	-3.8325	-10.783190	0.000334	3.344099	1.133011	-0.000134
1102	1.0955e+02	-3.8710	-10.863932	0.000203	2.026726	0.686674	-0.000081
1103	1.0965e+02	-3.9047	-10.972935	0.000274	2.736081	0.927009	-0.000110
1104	1.0975e+02	-3.9432	-11.122309	0.000375	3.749444	1.270346	-0.000150
1105	1.0985e+02	-3.9881	-11.215163	0.000233	2.330735	0.789675	-0.000093
1106	1.0995e+02	-4.0282	-11.388760	0.000436	4.357462	1.476348	-0.000174
1107	1.1005e+02	-4.0667	-11.465465	0.000193	1.925390	0.652340	-0.000077
1108	1.1015e+02	-4.1004	-11.626951	0.000405	4.053453	1.373347	-0.000162
1109	1.1025e+02	-4.1453	-11.731916	0.000263	2.634744	0.892676	-0.000105
1110	1.1035e+02	-4.1806	-11.828808	0.000243	2.432072	0.824008	-0.000097
1111	1.1044e+02	-4.2255	-11.941848	0.000284	2.837417	0.961343	-0.000114
1112	1.1054e+02	-4.2608	-12.083147	0.000355	3.546771	1.201679	-0.000142
1113	1.1064e+02	-4.3090	-12.236558	0.000385	3.850780	1.304680	-0.000154
1114	1.1074e+02	-4.3459	-12.317301	0.000203	2.026726	0.686674	-0.000081
1115	1.1084e+02	-4.3860	-12.486861	0.000426	4.256126	1.442014	-0.000170
1116	1.1094e+02	-4.4197	-12.563566	0.000193	1.925390	0.652340	-0.000077
1117	1.1104e+02	-4.4614	-12.680643	0.000294	2.938753	0.995677	-0.000118
1118	1.1114e+02	-4.5031	-12.825980	0.000365	3.648108	1.236012	-0.000146
1119	1.1124e+02	-4.5496	-12.971317	0.000365	3.648108	1.236012	-0.000146
1120	1.1134e+02	-4.5897	-13.043986	0.000182	1.824054	0.618006	-0.000073
1121	1.1144e+02	-4.6218	-13.157025	0.000284	2.837417	0.961343	-0.000114
1122	1.1154e+02	-4.6747	-13.261991	0.000263	2.634744	0.892676	-0.000105
1123	1.1164e+02	-4.6988	-13.387142	0.000314	3.141426	1.064344	-0.000126
1124	1.1174e+02	-4.7421	-13.524405	0.000345	3.445435	1.167345	-0.000138
1125	1.1184e+02	-4.7758	-13.584962	0.000152	1.520045	0.515005	-0.000061
1126	1.1194e+02	-4.8255	-13.750484	0.000415	4.154789	1.407681	-0.000166
1127	1.1204e+02	-4.8688	-13.835264	0.000213	2.128063	0.721007	-0.000085
1128	1.1214e+02	-4.9106	-13.976564	0.000355	3.546771	1.201679	-0.000142
1129	1.1224e+02	-4.9426	-14.081529	0.000263	2.634744	0.892676	-0.000105
1130	1.1234e+02	-4.9860	-14.214755	0.000334	3.344099	1.133011	-0.000134
1131	1.1244e+02	-5.0293	-14.295498	0.000203	2.026726	0.686674	-0.000081
1132	1.1253e+02	-5.0598	-14.420649	0.000314	3.141426	1.064344	-0.000126
1133	1.1263e+02	-5.1047	-14.537726	0.000294	2.938753	0.995677	-0.000118
1134	1.1273e+02	-5.1400	-14.646728	0.000274	2.736081	0.927009	-0.000110
1135	1.1283e+02	-5.1817	-14.771880	0.000314	3.141426	1.064344	-0.000126
1136	1.1293e+02	-5.2250	-14.884919	0.000284	2.837417	0.961343	-0.000114
1137	1.1303e+02	-5.2555	-14.985848	0.000253	2.533408	0.858342	-0.000101
1138	1.1313e+02	-5.3036	-15.102925	0.000294	2.938753	0.995677	-0.000118
1139	1.1323e+02	-5.3453	-15.228076	0.000314	3.141426	1.064344	-0.000126
1140	1.1333e+02	-5.3854	-15.345153	0.000294	2.938753	0.995677	-0.000118
1141	1.1343e+02	-5.4239	-15.458193	0.000284	2.837417	0.961343	-0.000114
1142	1.1353e+02	-5.4608	-15.559121	0.000253	2.533408	0.858342	-0.000101
1143	1.1363e+02	-5.4977	-15.668124	0.000274	2.736081	0.927009	-0.000110
1144	1.1373e+02	-5.5426	-15.777126	0.000274	2.736081	0.927009	-0.000110
1145	1.1383e+02	-5.5779	-15.890166	0.000284	2.837417	0.961343	-0.000114
1146	1.1393e+02	-5.6228	-15.999169	0.000274	2.736081	0.927009	-0.000110
1147	1.1403e+02	-5.6613	-16.092023	0.000233	2.330735	0.789675	-0.000093
1148	1.1413e+02	-5.6966	-16.217174	0.000314	3.141426	1.064344	-0.000126
1149	1.1423e+02	-5.7432	-16.350400	0.000334	3.344099	1.133011	-0.000134
1150	1.1433e+02	-5.7752	-16.443254	0.000233	2.330735	0.789675	-0.000093
1151	1.1442e+02	-5.8234	-16.548219	0.000263	2.634744	0.892676	-0.000105
1152	1.1452e+02	-5.8651	-16.661259	0.000284	2.837417	0.961343	-0.000114
1153	1.1462e+02	-5.9116	-16.806596	0.000365	3.648108	1.236012	-0.000146
1154	1.1472e+02	-5.9437	-16.855042	0.000122	1.216036	0.412004	-0.000049
1155	1.1482e+02	-5.9854	-16.984230	0.000324	3.242762	1.098678	-0.000130
1156	1.1492e+02	-6.0271	-17.133604	0.000375	3.749444	1.270346	-0.000150
1157	1.1502e+02	-6.0592	-17.226458	0.000233	2.330735	0.789675	-0.000093
1158	1.1512e+02	-6.1025	-17.359684	0.000334	3.344099	1.133011	-0.000134
1159	1.1522e+02	-6.1410	-17.444464	0.000213	2.128063	0.721007	-0.000085
1160	1.1532e+02	-6.1779	-17.577689	0.000334	3.344099	1.133011	-0.000134
1161	1.1542e+02	-6.2132	-17.682655	0.000263	2.634744	0.892676	-0.000105
1162	1.1552e+02	-6.2549	-17.767434	0.000213	2.128063	0.721007	-0.000085
1163	1.1562e+02	-6.3030	-17.916808	0.000375	3.749444	1.270346	-0.000150
1164	1.1572e+02	-6.3399	-18.009663	0.000233	2.330735	0.789675	-0.000093
1165	1.1582e+02	-6.3784	-18.082331	0.000182	1.824054	0.618006	-0.000073
1166	1.1592e+02	-6.4153	-18.227668	0.000365	3.648108	1.236012	-0.000146
1167	1.1602e+02	-6.4570	-18.296299	0.000172	1.722717	0.583672	-0.000069
1168	1.1612e+02	-6.4891	-18.453747	0.000395	3.952117	1.339013	-0.000158
1169	1.1622e+02	-6.5356	-18.566787	0.000284	2.837417	0.961343	-0.000114
1170	1.1632e+02	-6.5645	-18.651567	0.000213	2.128063	0.721007	-0.000085
1171	1.1642e+02	-6.6046	-18.748458	0.000243	2.432072	0.824008	-0.000097
1172	1.1651e+02	-6.6576	-18.881684	0.000334	3.344099	1.133011	-0.000134
1173	1.1661e+02	-6.6880	-18.978575	0.000243	2.432072	0.824008	-0.000097
1174	1.1671e+02	-6.7346	-19.055281	0.000193	1.925390	0.652340	-0.000077
1175	1.1681e+02	-6.7699	-19.188506	0.000334	3.344099	1.133011	-0.000134
1176	1.1691e+02	-6.8180	-19.297509	0.000274	2.736081	0.927009	-0.000110
1177	1.1701e+02	-6.8597	-19.402474	0.000263	2.634744	0.892676	-0.000105
1178	1.1711e+02	-6.8870	-19.515514	0.000284	2.837417	0.961343	-0.000114
1179	1.1721e+02	-6.9319	-19.672962	0.000395	3.952117	1.339013	-0.000158
1180	1.1731e+02	-6.9736	-19.765817	0.000233	2.330735	0.789675	-0.000093
1181	1.1741e+02	-7.0105	-19.870782	0.000263	2.634744	0.892676	-0.000105
1182	1.1751e+02	-7.0538	-19.983822	0.000284	2.837417	0.961343	-0.000114
1183	1.1761e+02	-7.1003	-20.117047	0.000334	3.344099	1.133011	-0.000134
1184	1.1771e+02	-7.1404	-20.173567	0.000142	1.418709	0.480671	-0.000057
1185	1.1781e+02	-7.1709	-20.302756	0.000324	3.242762	1.098678	-0.000130
1186	1.1791e+02	-7.2126	-20.440018	0.000345	3.445435	1.167345	-0.000138
1187	1.1801e+02	-7.2527	-20.528835	0.000223	2.229399	0.755341	-0.000089
1188	1.1811e+02	-7.3025	-20.609578	0.000203	2.026726	0.686674	-0.000081
1189	1.1821e+02	-7.3346	-20.726655	0.000294	2.938753	0.995677	-0.000118
1190	1.1831e+02	-7.3634	-20.839695	0.000284	2.837417	0.961343	-0.000114
1191	1.1841e+02	-7.4164	-20.952734	0.000284	2.837417	0.961343	-0.000114
1192	1.1850e+02	-7.4485	-21.061737	0.000274	2.736081	0.927009	-0.000110
1193	1.1860e+02	-7.4902	-21.166703	0.000263	2.634744	0.892676	-0.000105
1194	1.1870e+02	-7.5255	-21.239371	0.000182	1.824054	0.618006	-0.000073
1195	1.1880e+02	-7.5575	-21.392782	0.000385	3.850780	1.304680	-0.000154
1196	1.1890e+02	-7.6169	-21.469488	0.000193	1.925390	0.652340	-0.000077
1197	1.1900e+02	-7.6618	-21.570416	0.000253	2.533408	0.858342	-0.000101
1198	1.1910e+02	-7.6891	-21.699605	0.000324	3.242762	1.098678	-0.000130
1199	1.1920e+02	-7.7228	-21.768236	0.000172	1.722717	0.583672	-0.000069
1200	1.1930e+02	-7.7741	-21.881276	0.000284	2.837417	0.961343	-0.000114
1201	1.1940e+02	-7.8062	-21.982204	0.000253	2.533408	0.858342	-0.000101
1202	1.1950e+02	-7.8527	-22.123504	0.000355	3.546771	1.201679	-0.000142
1203	1.1960e+02	-7.8864	-22.196172	0.000182	1.824054	0.618006	-0.000073
1204	1.1970e+02	-7.9249	-22.317286	0.000304	3.040090	1.030010	-0.000122
1205	1.1980e+02	-7.9666	-22.442438	0.000314	3.141426	1.064344	-0.000126
1206	1.1990e+02	-8.0164	-22.523180	0.000203	2.026726	0.686674	-0.000081
1207	1.2000e+02	-8.0500	-22.644294	0.000304	3.040090	1.030010	-0.000122
1208	1.2010e+02	-8.0950	-22.733111	0.000223	2.229399	0.755341	-0.000089
1209	1.2020e+02	-8.1303	-22.858263	0.000314	3.141426	1.064344	-0.000126
1210	1.2030e+02	-8.1639	-22.943042	0.000213	2.128063	0.721007	-0.000085
1211	1.2039e+02	-8.2137	-23.048008	0.000263	2.634744	0.892676	-0.000105
1212	1.2049e+02	-8.2506	-23.161048	0.000284	2.837417	0.961343	-0.000114
1213	1.2059e+02	-8.2810	-23.306385	0.000365	3.648108	1.236012	-0.000146
1214	1.2069e+02	-8.3308	-23.391164	0.000213	2.128063	0.721007	-0.000085
1215	1.2079e+02	-8.3661	-23.492093	0.000253	2.533408	0.858342	-0.000101
1216	1.2089e+02	-8.4110	-23.605133	0.000284	2.837417	0.961343	-0.000114
1217	1.2099e+02	-8.4415	-23.702024	0.000243	2.432072	0.824008	-0.000097
1218	1.2109e+02	-8.4912	-23.794878	0.000233	2.330735	0.789675	-0.000093
1219	1.2119e+02	-8.5361	-23.920029	0.000314	3.141426	1.064344	-0.000126
1220	1.2129e+02	-8.5698	-24.024995	0.000263	2.634744	0.892676	-0.000105
1221	1.2139e+02	-8.6051	-24.133997	0.000274	2.736081	0.927009	-0.000110
1222	1.2149e+02	-8.6436	-24.255112	0.000304	3.040090	1.030010	-0.000122
1223	1.2159e+02	-8.6853	-24.319706	0.000162	1.621381	0.549339	-0.000065
1224	1.2169e+02	-8.7286	-24.501377	0.000456	4.560135	1.545015	-0.000183
1225	1.2179e+02	-8.7607	-24.574045	0.000182	1.824054	0.618006	-0.000073
1226	1.2189e+02	-8.8008	-24.662862	0.000223	2.229399	0.755341	-0.000089
1227	1.2199e+02	-8.8409	-24.792051	0.000324	3.242762	1.098678	-0.000130
1228	1.2209e+02	-8.8842	-24.864719	0.000182	1.824054	0.618006	-0.000073
1229	1.2219e+02	-8.9276	-24.985833	0.000304	3.040090	1.030010	-0.000122
1230	1.2229e+02	-8.9661	-25.106947	0.000304	3.040090	1.030010	-0.000122
1231	1.2239e+02	-9.0030	-25.232098	0.000314	3.141426	1.064344	-0.000126
1232	1.2248e+02	-9.0447	-25.324952	0.000233	2.330735	0.789675	-0.000093
1233	1.2258e+02	-9.0848	-25.429918	0.000263	2.634744	0.892676	-0.000105
1234	1.2268e+02	-9.1265	-25.494512	0.000162	1.621381	0.549339	-0.000065
1235	1.2278e+02	-9.1714	-25.583329	0.000223	2.229399	0.755341	-0.000089
1236	1.2288e+02	-9.1987	-25.720592	0.000345	3.445435	1.167345	-0.000138
1237	1.2298e+02	-9.2580	-25.837669	0.000294	2.938753	0.995677	-0.000118
1238	1.2308e+02	-9.2853	-25.978968	0.000355	3.546771	1.201679	-0.000142
1239	1.2318e+02	-9.3286	-26.035488	0.000142	1.418709	0.480671	-0.000057
1240	1.2328e+02	-9.3655	-26.144491	0.000274	2.736081	0.927009	-0.000110
1241	1.2338e+02	-9.4120	-26.249457	0.000263	2.634744	0.892676	-0.000105
1242	1.2348e+02	-9.4441	-26.366534	0.000294	2.938753	0.995677	-0.000118
1243	1.2358e+02	-9.4810	-26.447276	0.000203	2.026726	0.686674	-0.000081
1244	1.2368e+02	-9.5243	-26.584539	0.000345	3.445435	1.167345	-0.000138
1245	1.2378e+02	-9.5596	-26.632984	0.000122	1.216036	0.412004	-0.000049
1246	1.2388e+02	-9.5997	-26.786396	0.000385	3.850780	1.304680	-0.000154
1247	1.2398e+02	-9.6463	-26.855027	0.000172	1.722717	0.583672	-0.000069
1248	1.2408e+02	-9.6864	-26.988252	0.000334	3.344099	1.133011	-0.000134
1249	1.2418e+02	-9.7265	-27.085144	0.000243	2.432072	0.824008	-0.000097
1250	1.2428e+02	-9.7569	-27.165886	0.000203	2.026726	0.686674	-0.000081
1251	1.2438e+02	-9.8163	-27.299112	0.000334	3.344099	1.133011	-0.000134
1252	1.2447e+02	-9.8452	-27.387929	0.000223	2.229399	0.755341	-0.000089
1253	1.2457e+02	-9.8885	-27.468672	0.000203	2.026726	0.686674	-0.000081
1254	1.2467e+02	-9.9206	-27.597860	0.000324	3.242762	1.098678	-0.000130
1255	1.2477e+02	-9.9607	-27.686677	0.000223	2.229399	0.755341	-0.000089
1256	1.2487e+02	-9.9960	-27.783568	0.000243	2.432072	0.824008	-0.000097
1257	1.2497e+02	-10.0377	-27.868348	0.000213	2.128063	0.721007	-0.000085
1258	1.2507e+02	-10.0810	-28.001573	0.000334	3.344099	1.133011	-0.000134
1259	1.2517e+02	-10.1259	-28.078279	0.000193	1.925390	0.652340	-0.000077
1260	1.2527e+02	-10.1692	-28.175170	0.000243	2.432072	0.824008	-0.000097
1261	1.2537e+02	-10.1901	-28.296284	0.000304	3.040090	1.030010	-0.000122
1262	1.2547e+02	-10.2430	-28.413361	0.000294	2.938753	0.995677	-0.000118
1263	1.2557e+02	-10.2751	-28.530438	0.000294	2.938753	0.995677	-0.000118
1264	1.2567e+02	-10.3264	-28.627330	0.000243	2.432072	0.824008	-0.000097
1265	1.2577e+02	-10.3553	-28.724221	0.000243	2.432072	0.824008	-0.000097
1266	1.2587e+02	-10.3922	-28.804963	0.000203	2.026726	0.686674	-0.000081
1267	1.2597e+02	-10.4355	-28.897818	0.000233	2.330735	0.789675	-0.000093
1268	1.2607e+02	-10.4788	-29.010857	0.000284	2.837417	0.961343	-0.000114
1269	1.2617e+02	-10.5109	-29.091600	0.000203	2.026726	0.686674	-0.000081
1270	1.2627e+02	-10.5639	-29.220788	0.000324	3.242762	1.098678	-0.000130
1271	1.2636e+02	-10.6008	-29.293457	0.000182	1.824054	0.618006	-0.000073
1272	1.2646e+02	-10.6409	-29.422645	0.000324	3.242762	1.098678	-0.000130
1273	1.2656e+02	-10.6746	-29.523574	0.000253	2.533408	0.858342	-0.000101
1274	1.2666e+02	-10.7163	-29.640651	0.000294	2.938753	0.995677	-0.000118
1275	1.2676e+02	-10.7612	-29.709282	0.000172	1.722717	0.583672	-0.000069
1276	1.2686e+02	-10.7997	-29.830396	0.000304	3.040090	1.030010	-0.000122
1277	1.2696e+02	-10.8414	-29.927287	0.000243	2.432072	0.824008	-0.000097
1278	1.2706e+02	-10.8863	-30.003993	0.000193	1.925390	0.652340	-0.000077
1279	1.2716e+02	-10.9136	-30.129144	0.000314	3.141426	1.064344	-0.000126
1280	1.2726e+02	-10.9505	-30.193738	0.000162	1.621381	0.549339	-0.000065
1281	1.2736e+02	-10.9938	-30.351186	0.000395	3.952117	1.339013	-0.000158
1282	1.2746e+02	-11.0339	-30.472301	0.000304	3.040090	1.030010	-0.000122
1283	1.2756e+02	-11.0836	-30.565155	0.000233	2.330735	0.789675	-0.000093
1284	1.2766e+02	-11.1238	-30.682232	0.000294	2.938753	0.995677	-0.000118
1285	1.2776e+02	-11.1526	-30.738752	0.000142	1.418709	0.480671	-0.000057
1286	1.2786e+02	-11.1943	-30.855828	0.000294	2.938753	0.995677	-0.000118
1287	1.2796e+02	-11.2425	-30.936571	0.000203	2.026726	0.686674	-0.000081
1288	1.2806e+02	-11.2842	-31.057685	0.000304	3.040090	1.030010	-0.000122
1289	1.2816e+02	-11.3211	-31.142465	0.000213	2.128063	0.721007	-0.000085
1290	1.2826e+02	-11.3516	-31.211096	0.000172	1.722717	0.583672	-0.000069
1291	1.2835e+02	-11.3917	-31.316062	0.000263	2.634744	0.892676	-0.000105
1292	1.2845e+02	-11.4430	-31.425065	0.000274	2.736081	0.927009	-0.000110
1293	1.2855e+02	-11.4783	-31.497733	0.000182	1.824054	0.618006	-0.000073
1294	1.2865e+02	-11.5216	-31.643070	0.000365	3.648108	1.236012	-0.000146
1295	1.2875e+02	-11.5569	-31.739961	0.000243	2.432072	0.824008	-0.000097
1296	1.2885e+02	-11.5890	-31.804555	0.000162	1.621381	0.549339	-0.000065
1297	1.2895e+02	-11.6387	-31.885298	0.000203	2.026726	0.686674	-0.000081
1298	1.2905e+02	-11.6740	-32.034672	0.000375	3.749444	1.270346	-0.000150
1299	1.2915e+02	-11.7189	-32.083118	0.000122	1.216036	0.412004	-0.000049
1300	1.2925e+02	-11.7526	-32.208269	0.000314	3.141426	1.064344	-0.000126
1301	1.2935e+02	-11.7943	-32.337457	0.000324	3.242762	1.098678	-0.000130
1302	1.2945e+02	-11.8312	-32.385903	0.000122	1.216036	0.412004	-0.000049
1303	1.2955e+02	-11.8713	-32.482794	0.000243	2.432072	0.824008	-0.000097
1304	1.2965e+02	-11.9162	-32.583723	0.000253	2.533408	0.858342	-0.000101
1305	1.2975e+02	-11.9515	-32.684651	0.000253	2.533408	0.858342	-0.000101
1306	1.2985e+02	-11.9997	-32.793654	0.000274	2.736081	0.927009	-0.000110
1307	1.2995e+02	-12.0398	-32.870359	0.000193	1.925390	0.652340	-0.000077
1308	1.3005e+02	-12.0751	-32.995510	0.000314	3.141426	1.064344	-0.000126
1309	1.3015e+02	-12.1071	-33.031845	0.000091	0.912027	0.309003	-0.000037
1310	1.3025e+02	-12.1569	-33.165070	0.000334	3.344099	1.133011	-0.000134
1311	1.3034e+02	-12.1938	-33.225627	0.000152	1.520045	0.515005	-0.000061
1312	1.3044e+02	-12.2451	-33.334630	0.000274	2.736081	0.927009	-0.000110
1313	1.3054e+02	-12.2772	-33.459781	0.000314	3.141426	1.064344	-0.000126
1314	1.3064e+02	-12.3173	-33.540524	0.000203	2.026726	0.686674	-0.000081
1315	1.3074e+02	-12.3542	-33.597044	0.000142	1.418709	0.480671	-0.000057
1316	1.3084e+02	-12.3895	-33.689898	0.000233	2.330735	0.789675	-0.000093
1317	1.3094e+02	-12.4344	-33.782752	0.000233	2.330735	0.789675	-0.000093
1318	1.3104e+02	-12.4777	-33.903866	0.000304	3.040090	1.030010	-0.000122
1319	1.3114e+02	-12.5114	-34.004794	0.000253	2.533408	0.858342	-0.000101
1320	1.3124e+02	-12.5515	-34.133983	0.000324	3.242762	1.098678	-0.000130
1321	1.3134e+02	-12.5836	-34.190503	0.000142	1.418709	0.480671	-0.000057
1322	1.3144e+02	-12.6301	-34.279320	0.000223	2.229399	0.755341	-0.000089
1323	1.3154e+02	-12.6718	-34.368137	0.000223	2.229399	0.755341	-0.000089
1324	1.3164e+02	-12.7151	-34.489251	0.000304	3.040090	1.030010	-0.000122
1325	1.3174e+02	-12.7585	-34.582105	0.000233	2.330735	0.789675	-0.000093
1326	1.3184e+02	-12.7889	-34.678996	0.000243	2.432072	0.824008	-0.000097
1327	1.3194e+02	-12.8290	-34.775887	0.000243	2.432072	0.824008	-0.000097
1328	1.3204e+02	-12.8724	-34.840481	0.000162	1.621381	0.549339	-0.000065
1329	1.3214e+02	-12.9077	-34.949484	0.000274	2.736081	0.927009	-0.000110
1330	1.3224e+02	-12.9494	-35.042338	0.000233	2.330735	0.789675	-0.000093
1331	1.3234e+02	-12.9831	-35.147304	0.000263	2.634744	0.892676	-0.000105
1332	1.3243e+02	-13.0232	-35.236121	0.000223	2.229399	0.755341	-0.000089
1333	1.3253e+02	-13.0697	-35.337049	0.000253	2.533408	0.858342	-0.000101
1334	1.3263e+02	-13.1178	-35.425866	0.000223	2.229399	0.755341	-0.000089
1335	1.3273e+02	-13.1467	-35.522757	0.000243	2.432072	0.824008	-0.000097
1336	1.3283e+02	-13.1868	-35.599463	0.000193	1.925390	0.652340	-0.000077
1337	1.3293e+02	-13.2333	-35.728651	0.000324	3.242762	1.098678	-0.000130
1338	1.3303e+02	-13.2718	-35.809394	0.000203	2.026726	0.686674	-0.000081
1339	1.3313e+02	-13.3119	-35.922434	0.000284	2.837417	0.961343	-0.000114
1340	1.3323e+02	-13.3601	-36.003177	0.000203	2.026726	0.686674	-0.000081
1341	1.3333e+02	-13.3921	-36.100068	0.000243	2.432072	0.824008	-0.000097
1342	1.3343e+02	-13.4338	-36.172736	0.000182	1.824054	0.618006	-0.000073
1343	1.3353e+02	-13.4659	-36.261553	0.000223	2.229399	0.755341	-0.000089
1344	1.3363e+02	-13.5157	-36.390742	0.000324	3.242762	1.098678	-0.000130
1345	1.3373e+02	-13.5445	-36.443224	0.000132	1.317372	0.446338	-0.000053
1346	1.3383e+02	-13.5862	-36.560301	0.000294	2.938753	0.995677	-0.000118
1347	1.3393e+02	-13.6215	-36.693527	0.000334	3.344099	1.133011	-0.000134
1348	1.3403e+02	-13.6616	-36.778307	0.000213	2.128063	0.721007	-0.000085
1349	1.3413e+02	-13.7082	-36.830789	0.000132	1.317372	0.446338	-0.000053
1350	1.3423e+02	-13.7483	-36.976126	0.000365	3.648108	1.236012	-0.000146
1351	1.3432e+02	-13.7820	-37.052832	0.000193	1.925390	0.652340	-0.000077
1352	1.3442e+02	-13.8269	-37.137612	0.000213	2.128063	0.721007	-0.000085
1353	1.3452e+02	-13.8622	-37.230466	0.000233	2.330735	0.789675	-0.000093
1354	1.3462e+02	-13.9055	-37.323320	0.000233	2.330735	0.789675	-0.000093
1355	1.3472e+02	-13.9424	-37.428285	0.000263	2.634744	0.892676	-0.000105
1356	1.3482e+02	-13.9921	-37.521140	0.000233	2.330735	0.789675	-0.000093
1357	1.3492e+02	-14.0226	-37.593808	0.000182	1.824054	0.618006	-0.000073
1358	1.3502e+02	-14.0595	-37.662439	0.000172	1.722717	0.583672	-0.000069
1359	1.3512e+02	-14.1060	-37.759331	0.000243	2.432072	0.824008	-0.000097
1360	1.3522e+02	-14.1509	-37.868333	0.000274	2.736081	0.927009	-0.000110
1361	1.3532e+02	-14.1959	-37.969262	0.000253	2.533408	0.858342	-0.000101
1362	1.3542e+02	-14.2247	-38.041930	0.000182	1.824054	0.618006	-0.000073
1363	1.3552e+02	-14.2616	-38.106524	0.000162	1.621381	0.549339	-0.000065
1364	1.3562e+02	-14.3082	-38.215527	0.000274	2.736081	0.927009	-0.000110
1365	1.3572e+02	-14.3499	-38.308381	0.000233	2.330735	0.789675	-0.000093
1366	1.3582e+02	-14.3819	-38.421421	0.000284	2.837417	0.961343	-0.000114
1367	1.3592e+02	-14.4269	-38.506201	0.000213	2.128063	0.721007	-0.000085
1368	1.3602e+02	-14.4638	-38.607129	0.000253	2.533408	0.858342	-0.000101
1369	1.3612e+02	-14.5167	-38.691909	0.000213	2.128063	0.721007	-0.000085
1370	1.3622e+02	-14.5488	-38.764577	0.000182	1.824054	0.618006	-0.000073
1371	1.3631e+02	-14.5825	-38.857431	0.000233	2.330735	0.789675	-0.000093
1372	1.3641e+02	-14.6210	-38.962397	0.000263	2.634744	0.892676	-0.000105
1373	1.3651e+02	-14.6707	-39.043140	0.000203	2.026726	0.686674	-0.000081
1374	1.3661e+02	-14.7044	-39.123882	0.000203	2.026726	0.686674	-0.000081
1375	1.3671e+02	-14.7477	-39.253071	0.000324	3.242762	1.098678	-0.000130
1376	1.3681e+02	-14.7766	-39.321702	0.000172	1.722717	0.583672	-0.000069
1377	1.3691e+02	-14.8263	-39.398408	0.000193	1.925390	0.652340	-0.000077
1378	1.3701e+02	-14.8616	-39.527596	0.000324	3.242762	1.098678	-0.000130
1379	1.3711e+02	-14.9033	-39.608339	0.000203	2.026726	0.686674	-0.000081
1380	1.3721e+02	-14.9258	-39.705230	0.000243	2.432072	0.824008	-0.000097
1381	1.3731e+02	-14.9755	-39.806158	0.000253	2.533408	0.858342	-0.000101
1382	1.3741e+02	-15.0172	-39.915161	0.000274	2.736081	0.927009	-0.000110
1383	1.3751e+02	-15.0654	-39.995904	0.000203	2.026726	0.686674	-0.000081
1384	1.3761e+02	-15.0942	-40.060498	0.000162	1.621381	0.549339	-0.000065
1385	1.3771e+02	-15.1407	-40.197761	0.000345	3.445435	1.167345	-0.000138
1386	1.3781e+02	-15.1776	-40.278503	0.000203	2.026726	0.686674	-0.000081
1387	1.3791e+02	-15.2274	-40.399617	0.000304	3.040090	1.030010	-0.000122
1388	1.3801e+02	-15.2595	-40.500546	0.000253	2.533408	0.858342	-0.000101
1389	1.3811e+02	-15.2915	-40.557066	0.000142	1.418709	0.480671	-0.000057
1390	1.3821e+02	-15.3349	-40.678180	0.000304	3.040090	1.030010	-0.000122
1391	1.3831e+02	-15.3830	-40.775071	0.000243	2.432072	0.824008	-0.000097
1392	1.3840e+02	-15.4215	-40.831591	0.000142	1.418709	0.480671	-0.000057
1393	1.3850e+02	-15.4520	-40.980965	0.000375	3.749444	1.270346	-0.000150
1394	1.3860e+02	-15.5081	-41.021336	0.000101	1.013363	0.343337	-0.000041
1395	1.3870e+02	-15.5402	-41.106116	0.000213	2.128063	0.721007	-0.000085
1396	1.3880e+02	-15.5739	-41.215119	0.000274	2.736081	0.927009	-0.000110
1397	1.3890e+02	-15.6188	-41.336233	0.000304	3.040090	1.030010	-0.000122
1398	1.3900e+02	-15.6605	-41.441198	0.000263	2.634744	0.892676	-0.000105
1399	1.3910e+02	-15.6926	-41.534052	0.000233	2.330735	0.789675	-0.000093
1400	1.3920e+02	-15.7359	-41.594610	0.000152	1.520045	0.515005	-0.000061
1401	1.3930e+02	-15.7760	-41.727835	0.000334	3.344099	1.133011	-0.000134
1402	1.3940e+02	-15.8225	-41.784355	0.000142	1.418709	0.480671	-0.000057
1403	1.3950e+02	-15.8562	-41.885283	0.000253	2.533408	0.858342	-0.000101
1404	1.3960e+02	-15.8979	-42.014472	0.000324	3.242762	1.098678	-0.000130
1405	1.3970e+02	-15.9461	-42.095214	0.000203	2.026726	0.686674	-0.000081
1406	1.3980e+02	-15.9750	-42.159809	0.000162	1.621381	0.549339	-0.000065
1407	1.3990e+02	-16.0151	-42.228440	0.000172	1.722717	0.583672	-0.000069
1408	1.4000e+02	-16.0520	-42.313220	0.000213	2.128063	0.721007	-0.000085
1409	1.4010e+02	-16.1081	-42.446445	0.000334	3.344099	1.133011	-0.000134
1410	1.4020e+02	-16.1370	-42.519114	0.000182	1.824054	0.618006	-0.000073
1411	1.4029e+02	-16.1691	-42.624079	0.000263	2.634744	0.892676	-0.000105
1412	1.4039e+02	-16.2188	-42.741156	0.000294	2.938753	0.995677	-0.000118
1413	1.4049e+02	-16.2621	-42.785565	0.000111	1.114700	0.377670	-0.000045
1414	1.4059e+02	-16.3022	-42.906679	0.000304	3.040090	1.030010	-0.000122
1415	1.4069e+02	-16.3407	-42.999533	0.000233	2.330735	0.789675	-0.000093
1416	1.4079e+02	-16.3776	-43.112573	0.000284	2.837417	0.961343	-0.000114
1417	1.4089e+02	-16.4209	-43.156981	0.000111	1.114700	0.377670	-0.000045
1418	1.4099e+02	-16.4546	-43.265984	0.000274	2.736081	0.927009	-0.000110
1419	1.4109e+02	-16.5011	-43.346726	0.000203	2.026726	0.686674	-0.000081
1420	1.4119e+02	-16.5364	-43.455729	0.000274	2.736081	0.927009	-0.000110
1421	1.4129e+02	-16.5749	-43.548583	0.000233	2.330735	0.789675	-0.000093
1422	1.4139e+02	-16.6166	-43.625289	0.000193	1.925390	0.652340	-0.000077
1423	1.4149e+02	-16.6471	-43.710069	0.000213	2.128063	0.721007	-0.000085
1424	1.4159e+02	-16.6888	-43.819071	0.000274	2.736081	0.927009	-0.000110
1425	1.4169e+02	-16.7354	-43.895777	0.000193	1.925390	0.652340	-0.000077
1426	1.4179e+02	-16.7803	-44.004780	0.000274	2.736081	0.927009	-0.000110
1427	1.4189e+02	-16.8156	-44.085522	0.000203	2.026726	0.686674	-0.000081
1428	1.4199e+02	-16.8557	-44.206636	0.000304	3.040090	1.030010	-0.000122
1429	1.4209e+02	-16.8926	-44.259119	0.000132	1.317372	0.446338	-0.000053
1430	1.4219e+02	-16.9311	-44.380233	0.000304	3.040090	1.030010	-0.000122
1431	1.4228e+02	-16.9744	-44.448864	0.000172	1.722717	0.583672	-0.000069
1432	1.4238e+02	-17.0097	-44.565941	0.000294	2.938753	0.995677	-0.000118
1433	1.4248e+02	-17.0578	-44.650721	0.000213	2.128063	0.721007	-0.000085
1434	1.4258e+02	-17.0979	-44.739538	0.000223	2.229399	0.755341	-0.000089
1435	1.4268e+02	-17.1364	-44.804132	0.000162	1.621381	0.549339	-0.000065
1436	1.4278e+02	-17.1781	-44.905061	0.000253	2.533408	0.858342	-0.000101
1437	1.4288e+02	-17.2118	-45.014063	0.000274	2.736081	0.927009	-0.000110
1438	1.4298e+02	-17.2535	-45.090769	0.000193	1.925390	0.652340	-0.000077
1439	1.4308e+02	-17.2920	-45.171512	0.000203	2.026726	0.686674	-0.000081
1440	1.4318e+02	-17.3289	-45.316849	0.000365	3.648108	1.236012	-0.000146
1441	1.4328e+02	-17.3754	-45.389517	0.000182	1.824054	0.618006	-0.000073
1442	1.4338e+02	-17.4172	-45.458148	0.000172	1.722717	0.583672	-0.000069
1443	1.4348e+02	-17.4669	-45.575225	0.000294	2.938753	0.995677	-0.000118
1444	1.4358e+02	-17.4926	-45.643857	0.000172	1.722717	0.583672	-0.000069
1445	1.4368e+02	-17.5375	-45.781119	0.000345	3.445435	1.167345	-0.000138
1446	1.4378e+02	-17.5744	-45.829565	0.000122	1.216036	0.412004	-0.000049
1447	1.4388e+02	-17.6065	-45.914345	0.000213	2.128063	0.721007	-0.000085
1448	1.4398e+02	-17.6498	-46.039496	0.000314	3.141426	1.064344	-0.000126
1449	1.4408e+02	-17.6963	-46.156573	0.000294	2.938753	0.995677	-0.000118
1450	1.4418e+02	-17.7316	-46.160610	0.000010	0.101336	0.034334	-0.000004
1451	1.4428e+02	-17.7797	-46.318058	0.000395	3.952117	1.339013	-0.000158
1452	1.4437e+02	-17.8134	-46.443210	0.000314	3.141426	1.064344	-0.000126
1453	1.4447e+02	-17.8535	-46.519915	0.000193	1.925390	0.652340	-0.000077
1454	1.4457e+02	-17.8920	-46.544138	0.000061	0.608018	0.206002	-0.000024
1455	1.4467e+02	-17.9241	-46.677363	0.000334	3.344099	1.133011	-0.000134
1456	1.4477e+02	-17.9770	-46.798477	0.000304	3.040090	1.030010	-0.000122
1457	1.4487e+02	-18.0075	-46.879220	0.000203	2.026726	0.686674	-0.000081
1458	1.4497e+02	-18.0460	-46.939777	0.000152	1.520045	0.515005	-0.000061
1459	1.4507e+02	-18.0974	-47.020520	0.000203	2.026726	0.686674	-0.000081
1460	1.4517e+02	-18.1294	-47.133560	0.000284	2.837417	0.961343	-0.000114
1461	1.4527e+02	-18.1711	-47.230451	0.000243	2.432072	0.824008	-0.000097
1462	1.4537e+02	-18.2177	-47.307157	0.000193	1.925390	0.652340	-0.000077
1463	1.4547e+02	-18.2465	-47.379825	0.000182	1.824054	0.618006	-0.000073
1464	1.4557e+02	-18.2883	-47.476716	0.000243	2.432072	0.824008	-0.000097
1465	1.4567e+02	-18.3235	-47.573608	0.000243	2.432072	0.824008	-0.000097
1466	1.4577e+02	-18.3733	-47.698759	0.000314	3.141426	1.064344	-0.000126
1467	1.4587e+02	-18.4134	-47.755279	0.000142	1.418709	0.480671	-0.000057
1468	1.4597e+02	-18.4519	-47.864281	0.000274	2.736081	0.927009	-0.000110
1469	1.4607e+02	-18.4904	-47.949061	0.000213	2.128063	0.721007	-0.000085
1470	1.4617e+02	-18.5337	-48.021730	0.000182	1.824054	0.618006	-0.000073
1471	1.4626e+02	-18.5786	-48.106509	0.000213	2.128063	0.721007	-0.000085
1472	1.4636e+02	-18.6171	-48.223586	0.000294	2.938753	0.995677	-0.000118
1473	1.4646e+02	-18.6508	-48.308366	0.000213	2.128063	0.721007	-0.000085
1474	1.4656e+02	-18.6861	-48.389109	0.000203	2.026726	0.686674	-0.000081
1475	1.4666e+02	-18.7326	-48.469852	0.000203	2.026726	0.686674	-0.000081
1476	1.4676e+02	-18.7711	-48.546557	0.000193	1.925390	0.652340	-0.000077
1477	1.4686e+02	-18.8112	-48.675746	0.000324	3.242762	1.098678	-0.000130
1478	1.4696e+02	-18.8529	-48.732265	0.000142	1.418709	0.480671	-0.000057
1479	1.4706e+02	-18.8866	-48.833194	0.000253	2.533408	0.858342	-0.000101
1480	1.4716e+02	-18.9267	-48.950271	0.000294	2.938753	0.995677	-0.000118
1481	1.4726e+02	-18.9652	-49.051199	0.000253	2.533408	0.858342	-0.000101
1482	1.4736e+02	-19.0086	-49.148090	0.000243	2.432072	0.824008	-0.000097
1483	1.4746e+02	-19.0487	-49.180388	0.000081	0.810691	0.274669	-0.000032
1484	1.4756e+02	-19.0872	-49.305539	0.000314	3.141426	1.064344	-0.000126
1485	1.4766e+02	-19.1257	-49.374170	0.000172	1.722717	0.583672	-0.000069
1486	1.4776e+02	-19.1658	-49.507396	0.000334	3.344099	1.133011	-0.000134
1487	1.4786e+02	-19.1962	-49.567953	0.000152	1.520045	0.515005	-0.000061
1488	1.4796e+02	-19.2524	-49.672918	0.000263	2.634744	0.892676	-0.000105
1489	1.4806e+02	-19.2877	-49.769809	0.000243	2.432072	0.824008	-0.000097
1490	1.4816e+02	-19.3198	-49.834404	0.000162	1.621381	0.549339	-0.000065
1491	1.4825e+02	-19.3695	-49.935332	0.000253	2.533408	0.858342	-0.000101
1492	1.4835e+02	-19.3968	-50.032223	0.000243	2.432072	0.824008	-0.000097
1493	1.4845e+02	-19.4449	-50.137189	0.000263	2.634744	0.892676	-0.000105
1494	1.4855e+02	-19.4930	-50.226006	0.000223	2.229399	0.755341	-0.000089
1495	1.4865e+02	-19.5219	-50.363268	0.000345	3.445435	1.167345	-0.000138
1496	1.4875e+02	-19.5620	-50.403640	0.000101	1.013363	0.343337	-0.000041
1497	1.4885e+02	-19.5909	-50.504568	0.000253	2.533408	0.858342	-0.000101
1498	1.4895e+02	-19.6438	-50.561088	0.000142	1.418709	0.480671	-0.000057
1499	1.4905e+02	-19.6823	-50.694313	0.000334	3.344099	1.133011	-0.000134
1500	1.4915e+02	-19.7224	-50.815428	0.000304	3.040090	1.030010	-0.000122
1501	1.4925e+02	-19.7641	-50.859836	0.000111	1.114700	0.377670	-0.000045
1502	1.4935e+02	-19.8075	-50.964802	0.000263	2.634744	0.892676	-0.000105
1503	1.4945e+02	-19.8428	-51.065730	0.000253	2.533408	0.858342	-0.000101
1504	1.4955e+02	-19.8813	-51.198955	0.000334	3.344099	1.133011	-0.000134
1505	1.4965e+02	-19.9214	-51.239327	0.000101	1.013363	0.343337	-0.000041
1506	1.4975e+02	-19.9647	-51.348329	0.000274	2.736081	0.927009	-0.000110
1507	1.4985e+02	-20.0000	-51.469444	0.000304	3.040090	1.030010	-0.000122
1508	1.4995e+02	-19.9567	-51.392738	0.000193	1.925390	0.652340	0.000077
1509	1.5005e+02	-19.9230	-51.336218	0.000142	1.418709	0.480671	0.000057
1510	1.5015e+02	-19.8877	-51.267587	0.000172	1.722717	0.583672	0.000069
1511	1.5025e+02	-19.8428	-51.231253	0.000091	0.912027	0.309003	0.000037
1512	1.5034e+02	-19.7994	-51.166658	0.000162	1.621381	0.549339	0.000065
1513	1.5044e+02	-19.7609	-51.126287	0.000101	1.013363	0.343337	0.000041
1514	1.5054e+02	-19.7273	-51.085916	0.000101	1.013363	0.343337	0.000041
1515	1.5064e+02	-19.6791	-51.009210	0.000193	1.925390	0.652340	0.000077
1516	1.5074e+02	-19.6486	-50.924430	0.000213	2.128063	0.721007	0.000085
1517	1.5084e+02	-19.6134	-50.892133	0.000081	0.810691	0.274669	0.000032
1518	1.5094e+02	-19.5652	-50.831576	0.000152	1.520045	0.515005	0.000061
1519	1.5104e+02	-19.5219	-50.787168	0.000111	1.114700	0.377670	0.000045
1520	1.5114e+02	-19.4786	-50.702388	0.000213	2.128063	0.721007	0.000085
1521	1.5124e+02	-19.4481	-50.613571	0.000223	2.229399	0.755341	0.000089
1522	1.5134e+02	-19.3984	-50.532828	0.000203	2.026726	0.686674	0.000081
1523	1.5144e+02	-19.3631	-50.496494	0.000091	0.912027	0.309003	0.000037
1524	1.5154e+02	-19.3230	-50.399603	0.000243	2.432072	0.824008	0.000097
1525	1.5164e+02	-19.2829	-50.383454	0.000041	0.405345	0.137335	0.000016
1526	1.5174e+02	-19.2444	-50.306748	0.000193	1.925390	0.652340	0.000077
1527	1.5184e+02	-19.2059	-50.250229	0.000142	1.418709	0.480671	0.000057
1528	1.5194e+02	-19.1690	-50.173523	0.000193	1.925390	0.652340	0.000077
1529	1.5204e+02	-19.1273	-50.121040	0.000132	1.317372	0.446338	0.000053
1530	1.5214e+02	-19.0904	-50.028186	0.000233	2.330735	0.789675	0.000093
1531	1.5224e+02	-19.0455	-49.963592	0.000162	1.621381	0.549339	0.000065
1532	1.5233e+02	-19.0037	-49.894961	0.000172	1.722717	0.583672	0.000069
1533	1.5243e+02	-18.9668	-49.830366	0.000162	1.621381	0.549339	0.000065
1534	1.5253e+02	-18.9235	-49.765772	0.000162	1.621381	0.549339	0.000065
1535	1.5263e+02	-18.8770	-49.664844	0.000253	2.533408	0.858342	0.000101
1536	1.5273e+02	-18.8562	-49.652732	0.000030	0.304009	0.103001	0.000012
1537	1.5283e+02	-18.8080	-49.539693	0.000284	2.837417	0.961343	0.000114
1538	1.5293e+02	-18.7695	-49.454913	0.000213	2.128063	0.721007	0.000085
1539	1.5303e+02	-18.7278	-49.410504	0.000111	1.114700	0.377670	0.000045
1540	1.5313e+02	-18.6909	-49.341873	0.000172	1.722717	0.583672	0.000069
1541	1.5323e+02	-18.6428	-49.265167	0.000193	1.925390	0.652340	0.000077
1542	1.5333e+02	-18.6139	-49.216722	0.000122	1.216036	0.412004	0.000049
1543	1.5343e+02	-18.5658	-49.168276	0.000122	1.216036	0.412004	0.000049
1544	1.5353e+02	-18.5257	-49.051199	0.000294	2.938753	0.995677	0.000118
1545	1.5363e+02	-18.4904	-49.031014	0.000051	0.506682	0.171668	0.000020
1546	1.5373e+02	-18.4503	-48.934122	0.000243	2.432072	0.824008	0.000097
1547	1.5383e+02	-18.4182	-48.877602	0.000142	1.418709	0.480671	0.000057
1548	1.5393e+02	-18.3653	-48.829157	0.000122	1.216036	0.412004	0.000049
1549	1.5403e+02	-18.3316	-48.724191	0.000263	2.634744	0.892676	0.000105
1550	1.5413e+02	-18.2899	-48.679783	0.000111	1.114700	0.377670	0.000045
1551	1.5422e+02	-18.2530	-48.570780	0.000274	2.736081	0.927009	0.000110
1552	1.5432e+02	-18.2161	-48.534446	0.000091	0.912027	0.309003	0.000037
1553	1.5442e+02	-18.1776	-48.477926	0.000142	1.418709	0.480671	0.000057
1554	1.5452e+02	-18.1278	-48.393146	0.000213	2.128063	0.721007	0.000085
1555	1.5462e+02	-18.0957	-48.340663	0.000132	1.317372	0.446338	0.000053
1556	1.5472e+02	-18.0540	-48.247809	0.000233	2.330735	0.789675	0.000093
1557	1.5482e+02	-17.9995	-48.191289	0.000142	1.418709	0.480671	0.000057
1558	1.5492e+02	-17.9786	-48.122658	0.000172	1.722717	0.583672	0.000069
1559	1.5502e+02	-17.9353	-48.033841	0.000223	2.229399	0.755341	0.000089
1560	1.5512e+02	-17.8920	-47.973284	0.000152	1.520045	0.515005	0.000061
1561	1.5522e+02	-17.8583	-47.961173	0.000030	0.304009	0.103001	0.000012
1562	1.5532e+02	-17.8166	-47.840058	0.000304	3.040090	1.030010	0.000122
1563	1.5542e+02	-17.7749	-47.799687	0.000101	1.013363	0.343337	0.000041
1564	1.5552e+02	-17.7412	-47.702796	0.000243	2.432072	0.824008	0.000097
1565	1.5562e+02	-17.7011	-47.654350	0.000122	1.216036	0.412004	0.000049
1566	1.5572e+02	-17.6562	-47.549385	0.000263	2.634744	0.892676	0.000105
1567	1.5582e+02	-17.6081	-47.488828	0.000152	1.520045	0.515005	0.000061
1568	1.5592e+02	-17.5760	-47.432308	0.000142	1.418709	0.480671	0.000057
1569	1.5602e+02	-17.5455	-47.351565	0.000203	2.026726	0.686674	0.000081
1570	1.5612e+02	-17.4926	-47.291008	0.000152	1.520045	0.515005	0.000061
1571	1.5622e+02	-17.4492	-47.169894	0.000304	3.040090	1.030010	0.000122
1572	1.5631e+02	-17.4091	-47.093188	0.000193	1.925390	0.652340	0.000077
1573	1.5641e+02	-17.3835	-47.024557	0.000172	1.722717	0.583672	0.000069
1574	1.5651e+02	-17.3402	-46.980149	0.000111	1.114700	0.377670	0.000045
1575	1.5661e+02	-17.2952	-46.927666	0.000132	1.317372	0.446338	0.000053
1576	1.5671e+02	-17.2551	-46.842886	0.000213	2.128063	0.721007	0.000085
1577	1.5681e+02	-17.2166	-46.750032	0.000233	2.330735	0.789675	0.000093
1578	1.5691e+02	-17.1669	-46.705623	0.000111	1.114700	0.377670	0.000045
1579	1.5701e+02	-17.1348	-46.612769	0.000233	2.330735	0.789675	0.000093
1580	1.5711e+02	-17.0899	-46.548175	0.000162	1.621381	0.549339	0.000065
1581	1.5721e+02	-17.0514	-46.483581	0.000162	1.621381	0.549339	0.000065
1582	1.5731e+02	-17.0145	-46.386690	0.000243	2.432072	0.824008	0.000097
1583	1.5741e+02	-16.9744	-46.305947	0.000203	2.026726	0.686674	0.000081
1584	1.5751e+02	-16.9359	-46.225204	0.000203	2.026726	0.686674	0.000081
1585	1.5761e+02	-16.8910	-46.144461	0.000203	2.026726	0.686674	0.000081
1586	1.5771e+02	-16.8557	-46.071793	0.000182	1.824054	0.618006	0.000073
1587	1.5781e+02	-16.8172	-45.991050	0.000203	2.026726	0.686674	0.000081
1588	1.5791e+02	-16.7739	-45.918382	0.000182	1.824054	0.618006	0.000073
1589	1.5801e+02	-16.7289	-45.809379	0.000274	2.736081	0.927009	0.000110
1590	1.5811e+02	-16.7017	-45.773045	0.000091	0.912027	0.309003	0.000037
1591	1.5821e+02	-16.6455	-45.692302	0.000203	2.026726	0.686674	0.000081
1592	1.5830e+02	-16.6166	-45.607522	0.000213	2.128063	0.721007	0.000085
1593	1.5840e+02	-16.5765	-45.555040	0.000132	1.317372	0.446338	0.000053
1594	1.5850e+02	-16.5364	-45.470260	0.000213	2.128063	0.721007	0.000085
1595	1.5860e+02	-16.5043	-45.421814	0.000122	1.216036	0.412004	0.000049
1596	1.5870e+02	-16.4642	-45.332997	0.000223	2.229399	0.755341	0.000089
1597	1.5880e+02	-16.4241	-45.240143	0.000233	2.330735	0.789675	0.000093
1598	1.5890e+02	-16.3760	-45.175549	0.000162	1.621381	0.549339	0.000065
1599	1.5900e+02	-16.3439	-45.082695	0.000233	2.330735	0.789675	0.000093
1600	1.5910e+02	-16.3006	-44.997915	0.000213	2.128063	0.721007	0.000085
1601	1.5920e+02	-16.2605	-44.917172	0.000203	2.026726	0.686674	0.000081
1602	1.5930e+02	-16.2220	-44.844504	0.000182	1.824054	0.618006	0.000073
1603	1.5940e+02	-16.1755	-44.763761	0.000203	2.026726	0.686674	0.000081
1604	1.5950e+02	-16.1402	-44.670907	0.000233	2.330735	0.789675	0.000093
1605	1.5960e+02	-16.1065	-44.646684	0.000061	0.608018	0.206002	0.000024
1606	1.5970e+02	-16.0552	-44.574016	0.000182	1.824054	0.618006	0.000073
1607	1.5980e+02	-16.0199	-44.452902	0.000304	3.040090	1.030010	0.000122
1608	1.5990e+02	-15.9846	-44.380233	0.000182	1.824054	0.618006	0.000073
1609	1.6000e+02	-15.9397	-44.331788	0.000122	1.216036	0.412004	0.000049
1610	1.6010e+02	-15.9044	-44.222785	0.000274	2.736081	0.927009	0.000110
1611	1.6019e+02	-15.8546	-44.162228	0.000152	1.520045	0.515005	0.000061
1612	1.6029e+02	-15.8242	-44.093597	0.000172	1.722717	0.583672	0.000069
1613	1.6039e+02	-15.7857	-44.008817	0.000213	2.128063	0.721007	0.000085
1614	1.6049e+02	-15.7359	-43.932111	0.000193	1.925390	0.652340	0.000077
1615	1.6059e+02	-15.7022	-43.827146	0.000263	2.634744	0.892676	0.000105
1616	1.6069e+02	-15.6621	-43.815034	0.000030	0.304009	0.103001	0.000012
1617	1.6079e+02	-15.6236	-43.689883	0.000314	3.141426	1.064344	0.000126
1618	1.6089e+02	-15.5787	-43.629326	0.000152	1.520045	0.515005	0.000061
1619	1.6099e+02	-15.5498	-43.512249	0.000294	2.938753	0.995677	0.000118
1620	1.6109e+02	-15.4953	-43.475915	0.000091	0.912027	0.309003	0.000037
1621	1.6119e+02	-15.4664	-43.350764	0.000314	3.141426	1.064344	0.000126
1622	1.6129e+02	-15.4183	-43.290207	0.000152	1.520045	0.515005	0.000061
1623	1.6139e+02	-15.3750	-43.233687	0.000142	1.418709	0.480671	0.000057
1624	1.6149e+02	-15.3413	-43.120647	0.000284	2.837417	0.961343	0.000114
1625	1.6159e+02	-15.3060	-43.072201	0.000122	1.216036	0.412004	0.000049
1626	1.6169e+02	-15.2627	-42.983384	0.000223	2.229399	0.755341	0.000089
1627	1.6179e+02	-15.2210	-42.902641	0.000203	2.026726	0.686674	0.000081
1628	1.6189e+02	-15.1793	-42.809787	0.000233	2.330735	0.789675	0.000093
1629	1.6199e+02	-15.1327	-42.757305	0.000132	1.317372	0.446338	0.000053
1630	1.6209e+02	-15.1103	-42.680599	0.000193	1.925390	0.652340	0.000077
1631	1.6219e+02	-15.0637	-42.571596	0.000274	2.736081	0.927009	0.000110
1632	1.6228e+02	-15.0252	-42.478742	0.000233	2.330735	0.789675	0.000093
1633	1.6238e+02	-14.9900	-42.365702	0.000284	2.837417	0.961343	0.000114
1634	1.6248e+02	-14.9531	-42.345517	0.000051	0.506682	0.171668	0.000020
1635	1.6258e+02	-14.9081	-42.240551	0.000263	2.634744	0.892676	0.000105
1636	1.6268e+02	-14.8680	-42.171920	0.000172	1.722717	0.583672	0.000069
1637	1.6278e+02	-14.8183	-42.050806	0.000304	3.040090	1.030010	0.000122
1638	1.6288e+02	-14.7718	-41.974100	0.000193	1.925390	0.652340	0.000077
1639	1.6298e+02	-14.7541	-41.921618	0.000132	1.317372	0.446338	0.000053
1640	1.6308e+02	-14.7044	-41.808578	0.000284	2.837417	0.961343	0.000114
1641	1.6318e+02	-14.6595	-41.743984	0.000162	1.621381	0.549339	0.000065
1642	1.6328e+02	-14.6226	-41.622869	0.000304	3.040090	1.030010	0.000122
1643	1.6338e+02	-14.5873	-41.558275	0.000162	1.621381	0.549339	0.000065
1644	1.6348e+02	-14.5408	-41.461384	0.000243	2.432072	0.824008	0.000097
1645	1.6358e+02	-14.4958	-41.388716	0.000182	1.824054	0.618006	0.000073
1646	1.6368e+02	-14.4734	-41.287787	0.000253	2.533408	0.858342	0.000101
1647	1.6378e+02	-14.4237	-41.243379	0.000111	1.114700	0.377670	0.000045
1648	1.6388e+02	-14.3964	-41.138413	0.000263	2.634744	0.892676	0.000105
1649	1.6398e+02	-14.3354	-41.045559	0.000233	2.330735	0.789675	0.000093
1650	1.6408e+02	-14.3065	-40.972891	0.000182	1.824054	0.618006	0.000073
1651	1.6418e+02	-14.2680	-40.892148	0.000203	2.026726	0.686674	0.000081
1652	1.6427e+02	-14.2279	-40.799294	0.000233	2.330735	0.789675	0.000093
1653	1.6437e+02	-14.1830	-40.710477	0.000223	2.229399	0.755341	0.000089
1654	1.6447e+02	-14.1541	-40.657994	0.000132	1.317372	0.446338	0.000053
1655	1.6457e+02	-14.1060	-40.524769	0.000334	3.344099	1.133011	0.000134
1656	1.6467e+02	-14.0643	-40.472286	0.000132	1.317372	0.446338	0.000053
1657	1.6477e+02	-14.0274	-40.391543	0.000203	2.026726	0.686674	0.000081
1658	1.6487e+02	-13.9889	-40.246206	0.000365	3.648108	1.236012	0.000146
1659	1.6497e+02	-13.9568	-40.238132	0.000020	0.202673	0.068667	0.000008
1660	1.6507e+02	-13.9103	-40.096832	0.000355	3.546771	1.201679	0.000142
1661	1.6517e+02	-13.8654	-40.024164	0.000182	1.824054	0.618006	0.000073
1662	1.6527e+02	-13.8253	-39.935347	0.000223	2.229399	0.755341	0.000089
1663	1.6537e+02	-13.7836	-39.810196	0.000314	3.141426	1.064344	0.000126
1664	1.6547e+02	-13.7467	-39.777898	0.000081	0.810691	0.274669	0.000032
1665	1.6557e+02	-13.7050	-39.713304	0.000162	1.621381	0.549339	0.000065
1666	1.6567e+02	-13.6665	-39.604302	0.000274	2.736081	0.927009	0.000110
1667	1.6577e+02	-13.6215	-39.515485	0.000223	2.229399	0.755341	0.000089
1668	1.6587e+02	-13.5814	-39.454928	0.000152	1.520045	0.515005	0.000061
1669	1.6597e+02	-13.5494	-39.353999	0.000253	2.533408	0.858342	0.000101
1670	1.6607e+02	-13.5108	-39.232885	0.000304	3.040090	1.030010	0.000122
1671	1.6616e+02	-13.4643	-39.204625	0.000071	0.709354	0.240336	0.000028
1672	1.6626e+02	-13.4274	-39.111771	0.000233	2.330735	0.789675	0.000093
1673	1.6636e+02	-13.3793	-39.026991	0.000213	2.128063	0.721007	0.000085
1674	1.6646e+02	-13.3472	-38.905877	0.000304	3.040090	1.030010	0.000122
1675	1.6656e+02	-13.3151	-38.833209	0.000182	1.824054	0.618006	0.000073
1676	1.6666e+02	-13.2734	-38.740355	0.000233	2.330735	0.789675	0.000093
1677	1.6676e+02	-13.2221	-38.679798	0.000152	1.520045	0.515005	0.000061
1678	1.6686e+02	-13.1868	-38.599055	0.000203	2.026726	0.686674	0.000081
1679	1.6696e+02	-13.1499	-38.477941	0.000304	3.040090	1.030010	0.000122
1680	1.6706e+02	-13.1098	-38.401235	0.000193	1.925390	0.652340	0.000077
1681	1.6716e+02	-13.0745	-38.328567	0.000182	1.824054	0.618006	0.000073
1682	1.6726e+02	-13.0296	-38.263973	0.000162	1.621381	0.549339	0.000065
1683	1.6736e+02	-12.9927	-38.171118	0.000233	2.330735	0.789675	0.000093
1684	1.6746e+02	-12.9446	-38.054041	0.000294	2.938753	0.995677	0.000118
1685	1.6756e+02	-12.9044	-37.969262	0.000213	2.128063	0.721007	0.000085
1686	1.6766e+02	-12.8788	-37.892556	0.000193	1.925390	0.652340	0.000077
1687	1.6776e+02	-12.8307	-37.827962	0.000162	1.621381	0.549339	0.000065
1688	1.6786e+02	-12.7970	-37.702811	0.000314	3.141426	1.064344	0.000126
1689	1.6796e+02	-12.7537	-37.638216	0.000162	1.621381	0.549339	0.000065
1690	1.6806e+02	-12.7264	-37.549399	0.000223	2.229399	0.755341	0.000089
1691	1.6816e+02	-12.6734	-37.416174	0.000334	3.344099	1.133011	0.000134
1692	1.6825e+02	-12.6285	-37.351580	0.000162	1.621381	0.549339	0.000065
1693	1.6835e+02	-12.5948	-37.270837	0.000203	2.026726	0.686674	0.000081
1694	1.6845e+02	-12.5483	-37.182020	0.000223	2.229399	0.755341	0.000089
1695	1.6855e+02	-12.5066	-37.068980	0.000284	2.837417	0.961343	0.000114
1696	1.6865e+02	-12.4681	-37.008423	0.000152	1.520045	0.515005	0.000061
1697	1.6875e+02	-12.4392	-36.919606	0.000223	2.229399	0.755341	0.000089
1698	1.6885e+02	-12.3943	-36.822715	0.000243	2.432072	0.824008	0.000097
1699	1.6895e+02	-12.3606	-36.737935	0.000213	2.128063	0.721007	0.000085
1700	1.6905e+02	-12.3109	-36.616821	0.000304	3.040090	1.030010	0.000122
1701	1.6915e+02	-12.2836	-36.552227	0.000162	1.621381	0.549339	0.000065
1702	1.6925e+02	-12.2371	-36.447261	0.000263	2.634744	0.892676	0.000105
1703	1.6935e+02	-12.1986	-36.402853	0.000111	1.114700	0.377670	0.000045
1704	1.6945e+02	-12.1553	-36.257516	0.000365	3.648108	1.236012	0.000146
1705	1.6955e+02	-12.1071	-36.200996	0.000142	1.418709	0.480671	0.000057
1706	1.6965e+02	-12.0783	-36.128328	0.000182	1.824054	0.618006	0.000073
1707	1.6975e+02	-12.0398	-36.031436	0.000243	2.432072	0.824008	0.000097
1708	1.6985e+02	-11.9932	-35.910322	0.000304	3.040090	1.030010	0.000122
1709	1.6995e+02	-11.9515	-35.821505	0.000223	2.229399	0.755341	0.000089
1710	1.7005e+02	-11.9162	-35.805357	0.000041	0.405345	0.137335	0.000016
1711	1.7015e+02	-11.8777	-35.660020	0.000365	3.648108	1.236012	0.000146
1712	1.7024e+02	-11.8264	-35.551017	0.000274	2.736081	0.927009	0.000110
1713	1.7034e+02	-11.7895	-35.490460	0.000152	1.520045	0.515005	0.000061
1714	1.7044e+02	-11.7574	-35.429903	0.000152	1.520045	0.515005	0.000061
1715	1.7054e+02	-11.7221	-35.316863	0.000284	2.837417	0.961343	0.000114
1716	1.7064e+02	-11.6692	-35.264381	0.000132	1.317372	0.446338	0.000053
1717	1.7074e+02	-11.6483	-35.135192	0.000324	3.242762	1.098678	0.000130
1718	1.7084e+02	-11.6034	-35.050412	0.000213	2.128063	0.721007	0.000085
1719	1.7094e+02	-11.5553	-34.997930	0.000132	1.317372	0.446338	0.000053
1720	1.7104e+02	-11.5104	-34.897001	0.000253	2.533408	0.858342	0.000101
1721	1.7114e+02	-11.4815	-34.783962	0.000284	2.837417	0.961343	0.000114
1722	1.7124e+02	-11.4398	-34.707256	0.000193	1.925390	0.652340	0.000077
1723	1.7134e+02	-11.3917	-34.610365	0.000243	2.432072	0.824008	0.000097
1724	1.7144e+02	-11.3516	-34.513473	0.000243	2.432072	0.824008	0.000097
1725	1.7154e+02	-11.3195	-34.452916	0.000152	1.520045	0.515005	0.000061
1726	1.7164e+02	-11.2810	-34.347951	0.000263	2.634744	0.892676	0.000105
1727	1.7174e+02	-11.2441	-34.263171	0.000213	2.128063	0.721007	0.000085
1728	1.7184e+02	-11.1879	-34.166280	0.000243	2.432072	0.824008	0.000097
1729	1.7194e+02	-11.1687	-34.089574	0.000193	1.925390	0.652340	0.000077
1730	1.7204e+02	-11.1221	-34.000757	0.000223	2.229399	0.755341	0.000089
1731	1.7213e+02	-11.0692	-33.936163	0.000162	1.621381	0.549339	0.000065
1732	1.7223e+02	-11.0339	-33.847346	0.000223	2.229399	0.755341	0.000089
1733	1.7233e+02	-11.0034	-33.750455	0.000243	2.432072	0.824008	0.000097
1734	1.7243e+02	-10.9713	-33.625304	0.000314	3.141426	1.064344	0.000126
1735	1.7253e+02	-10.9168	-33.544561	0.000203	2.026726	0.686674	0.000081
1736	1.7263e+02	-10.8863	-33.492078	0.000132	1.317372	0.446338	0.000053
1737	1.7273e+02	-10.8366	-33.383075	0.000274	2.736081	0.927009	0.000110
1738	1.7283e+02	-10.8077	-33.298296	0.000213	2.128063	0.721007	0.000085
1739	1.7293e+02	-10.7516	-33.201404	0.000243	2.432072	0.824008	0.000097
1740	1.7303e+02	-10.7147	-33.068179	0.000334	3.344099	1.133011	0.000134
1741	1.7313e+02	-10.6858	-33.011659	0.000142	1.418709	0.480671	0.000057
1742	1.7323e+02	-10.6329	-32.886508	0.000314	3.141426	1.064344	0.000126
1743	1.7333e+02	-10.5944	-32.813839	0.000182	1.824054	0.618006	0.000073
1744	1.7343e+02	-10.5575	-32.704837	0.000274	2.736081	0.927009	0.000110
1745	1.7353e+02	-10.5190	-32.628131	0.000193	1.925390	0.652340	0.000077
1746	1.7363e+02	-10.4869	-32.595834	0.000081	0.810691	0.274669	0.000032
1747	1.7373e+02	-10.4339	-32.482794	0.000284	2.837417	0.961343	0.000114
1748	1.7383e+02	-10.3858	-32.353606	0.000324	3.242762	1.098678	0.000130
1749	1.7393e+02	-10.3553	-32.260752	0.000233	2.330735	0.789675	0.000093
1750	1.7403e+02	-10.3329	-32.184046	0.000193	1.925390	0.652340	0.000077
1751	1.7413e+02	-10.2831	-32.111378	0.000182	1.824054	0.618006	0.000073
1752	1.7422e+02	-10.2430	-32.006412	0.000263	2.634744	0.892676	0.000105
1753	1.7432e+02	-10.1997	-31.937781	0.000172	1.722717	0.583672	0.000069
1754	1.7442e+02	-10.1548	-31.832815	0.000263	2.634744	0.892676	0.000105
1755	1.7452e+02	-10.1275	-31.699590	0.000334	3.344099	1.133011	0.000134
1756	1.7462e+02	-10.0810	-31.651144	0.000122	1.216036	0.412004	0.000049
1757	1.7472e+02	-10.0441	-31.493696	0.000395	3.952117	1.339013	0.000158
1758	1.7482e+02	-10.0040	-31.412953	0.000203	2.026726	0.686674	0.000081
1759	1.7492e+02	-9.9639	-31.348359	0.000162	1.621381	0.549339	0.000065
1760	1.7502e+02	-9.9174	-31.239356	0.000274	2.736081	0.927009	0.000110
1761	1.7512e+02	-9.8773	-31.142465	0.000243	2.432072	0.824008	0.000097
1762	1.7522e+02	-9.8436	-31.061722	0.000203	2.026726	0.686674	0.000081
1763	1.7532e+02	-9.8067	-30.997128	0.000162	1.621381	0.549339	0.000065
1764	1.7542e+02	-9.7585	-30.912348	0.000213	2.128063	0.721007	0.000085
1765	1.7552e+02	-9.7297	-30.742789	0.000426	4.256126	1.442014	0.000170
1766	1.7562e+02	-9.6751	-30.674157	0.000172	1.722717	0.583672	0.000069
1767	1.7572e+02	-9.6430	-30.565155	0.000274	2.736081	0.927009	0.000110
1768	1.7582e+02	-9.5997	-30.476338	0.000223	2.229399	0.755341	0.000089
1769	1.7592e+02	-9.5692	-30.411744	0.000162	1.621381	0.549339	0.000065
1770	1.7602e+02	-9.5404	-30.294667	0.000294	2.938753	0.995677	0.000118
1771	1.7612e+02	-9.4794	-30.185664	0.000274	2.736081	0.927009	0.000110
1772	1.7621e+02	-9.4505	-30.104921	0.000203	2.026726	0.686674	0.000081
1773	1.7631e+02	-9.4040	-30.003993	0.000253	2.533408	0.858342	0.000101
1774	1.7641e+02	-9.3655	-29.894990	0.000274	2.736081	0.927009	0.000110
1775	1.7651e+02	-9.3222	-29.826359	0.000172	1.722717	0.583672	0.000069
1776	1.7661e+02	-9.2853	-29.745616	0.000203	2.026726	0.686674	0.000081
1777	1.7671e+02	-9.2484	-29.628539	0.000294	2.938753	0.995677	0.000118
1778	1.7681e+02	-9.2147	-29.531648	0.000243	2.432072	0.824008	0.000097
1779	1.7691e+02	-9.1698	-29.499351	0.000081	0.810691	0.274669	0.000032
1780	1.7701e+02	-9.1120	-29.337865	0.000405	4.053453	1.373347	0.000162
1781	1.7711e+02	-9.0832	-29.277308	0.000152	1.520045	0.515005	0.000061
1782	1.7721e+02	-9.0415	-29.204640	0.000182	1.824054	0.618006	0.000073
1783	1.7731e+02	-9.0046	-29.051229	0.000385	3.850780	1.304680	0.000154
1784	1.7741e+02	-8.9693	-28.966449	0.000213	2.128063	0.721007	0.000085
1785	1.7751e+02	-8.9227	-28.926078	0.000101	1.013363	0.343337	0.000041
1786	1.7761e+02	-8.8907	-28.821112	0.000263	2.634744	0.892676	0.000105
1787	1.7771e+02	-8.8489	-28.724221	0.000243	2.432072	0.824008	0.000097
1788	1.7781e+02	-8.8121	-28.582921	0.000355	3.546771	1.201679	0.000142
1789	1.7791e+02	-8.7703	-28.518327	0.000162	1.621381	0.549339	0.000065
1790	1.7801e+02	-8.7270	-28.409324	0.000274	2.736081	0.927009	0.000110
1791	1.7810e+02	-8.6869	-28.308396	0.000253	2.533408	0.858342	0.000101
1792	1.7820e+02	-8.6548	-28.203430	0.000263	2.634744	0.892676	0.000105
1793	1.7830e+02	-8.6003	-28.098465	0.000263	2.634744	0.892676	0.000105
1794	1.7840e+02	-8.5650	-27.981388	0.000294	2.938753	0.995677	0.000118
1795	1.7850e+02	-8.5201	-27.928905	0.000132	1.317372	0.446338	0.000053
1796	1.7860e+02	-8.4944	-27.803754	0.000314	3.141426	1.064344	0.000126
1797	1.7870e+02	-8.4495	-27.690714	0.000284	2.837417	0.961343	0.000114
1798	1.7880e+02	-8.4126	-27.622083	0.000172	1.722717	0.583672	0.000069
1799	1.7890e+02	-8.3645	-27.496932	0.000314	3.141426	1.064344	0.000126
1800	1.7900e+02	-8.3372	-27.404077	0.000233	2.330735	0.789675	0.000093
1801	1.7910e+02	-8.2907	-27.311223	0.000233	2.330735	0.789675	0.000093
1802	1.7920e+02	-8.2570	-27.206258	0.000263	2.634744	0.892676	0.000105
1803	1.7930e+02	-8.2057	-27.121478	0.000213	2.128063	0.721007	0.000085
1804	1.7940e+02	-8.1704	-26.988252	0.000334	3.344099	1.133011	0.000134
1805	1.7950e+02	-8.1351	-26.891361	0.000243	2.432072	0.824008	0.000097
1806	1.7960e+02	-8.0918	-26.786396	0.000263	2.634744	0.892676	0.000105
1807	1.7970e+02	-8.0549	-26.729876	0.000142	1.418709	0.480671	0.000057
1808	1.7980e+02	-8.0115	-26.580502	0.000375	3.749444	1.270346	0.000150
1809	1.7990e+02	-7.9730	-26.463425	0.000294	2.938753	0.995677	0.000118
1810	1.8000e+02	-7.9297	-26.382682	0.000203	2.026726	0.686674	0.000081
1811	1.8009e+02	-7.8864	-26.281754	0.000253	2.533408	0.858342	0.000101
1812	1.8019e+02	-7.8399	-26.172751	0.000274	2.736081	0.927009	0.000110
1813	1.8029e+02	-7.8110	-26.100083	0.000182	1.824054	0.618006	0.000073
1814	1.8039e+02	-7.7741	-25.978968	0.000304	3.040090	1.030010	0.000122
1815	1.8049e+02	-7.7356	-25.886114	0.000233	2.330735	0.789675	0.000093
1816	1.8059e+02	-7.6907	-25.756926	0.000324	3.242762	1.098678	0.000130
1817	1.8069e+02	-7.6490	-25.651960	0.000263	2.634744	0.892676	0.000105
1818	1.8079e+02	-7.6073	-25.575255	0.000193	1.925390	0.652340	0.000077
1819	1.8089e+02	-7.5672	-25.466252	0.000274	2.736081	0.927009	0.000110
1820	1.8099e+02	-7.5287	-25.365324	0.000253	2.533408	0.858342	0.000101
1821	1.8109e+02	-7.4950	-25.296693	0.000172	1.722717	0.583672	0.000069
1822	1.8119e+02	-7.4468	-25.151356	0.000365	3.648108	1.236012	0.000146
1823	1.8129e+02	-7.4132	-25.054464	0.000243	2.432072	0.824008	0.000097
1824	1.8139e+02	-7.3650	-24.937387	0.000294	2.938753	0.995677	0.000118
1825	1.8149e+02	-7.3281	-24.888942	0.000122	1.216036	0.412004	0.000049
1826	1.8159e+02	-7.2928	-24.759753	0.000324	3.242762	1.098678	0.000130
1827	1.8169e+02	-7.2543	-24.634602	0.000314	3.141426	1.064344	0.000126
1828	1.8179e+02	-7.2062	-24.549822	0.000213	2.128063	0.721007	0.000085
1829	1.8189e+02	-7.1629	-24.424671	0.000314	3.141426	1.064344	0.000126
1830	1.8199e+02	-7.1340	-24.315669	0.000274	2.736081	0.927009	0.000110
1831	1.8209e+02	-7.0891	-24.186480	0.000324	3.242762	1.098678	0.000130
1832	1.8218e+02	-7.0474	-24.142072	0.000111	1.114700	0.377670	0.000045
1833	1.8228e+02	-7.0073	-24.012883	0.000324	3.242762	1.098678	0.000130
1834	1.8238e+02	-6.9624	-23.907918	0.000263	2.634744	0.892676	0.000105
1835	1.8248e+02	-6.9335	-23.831212	0.000193	1.925390	0.652340	0.000077
1836	1.8258e+02	-6.8966	-23.714135	0.000294	2.938753	0.995677	0.000118
1837	1.8268e+02	-6.8581	-23.588984	0.000314	3.141426	1.064344	0.000126
1838	1.8278e+02	-6.8019	-23.479981	0.000274	2.736081	0.927009	0.000110
1839	1.8288e+02	-6.7763	-23.375016	0.000263	2.634744	0.892676	0.000105
1840	1.8298e+02	-6.7265	-23.322533	0.000132	1.317372	0.446338	0.000053
1841	1.8308e+02	-6.6800	-23.213530	0.000274	2.736081	0.927009	0.000110
1842	1.8318e+02	-6.6592	-23.084342	0.000324	3.242762	1.098678	0.000130
1843	1.8328e+02	-6.6159	-22.963228	0.000304	3.040090	1.030010	0.000122
1844	1.8338e+02	-6.5758	-22.862300	0.000253	2.533408	0.858342	0.000101
1845	1.8348e+02	-6.5324	-22.761371	0.000253	2.533408	0.858342	0.000101
1846	1.8358e+02	-6.4987	-22.660443	0.000253	2.533408	0.858342	0.000101
1847	1.8368e+02	-6.4602	-22.571626	0.000223	2.229399	0.755341	0.000089
1848	1.8378e+02	-6.4201	-22.474735	0.000243	2.432072	0.824008	0.000097
1849	1.8388e+02	-6.3848	-22.365732	0.000274	2.736081	0.927009	0.000110
1850	1.8398e+02	-6.3415	-22.228469	0.000345	3.445435	1.167345	0.000138
1851	1.8407e+02	-6.2950	-22.131578	0.000243	2.432072	0.824008	0.000097
1852	1.8417e+02	-6.2597	-22.046798	0.000213	2.128063	0.721007	0.000085
1853	1.8427e+02	-6.2308	-21.909536	0.000345	3.445435	1.167345	0.000138
1854	1.8437e+02	-6.1827	-21.820719	0.000223	2.229399	0.755341	0.000089
1855	1.8447e+02	-6.1410	-21.719790	0.000253	2.533408	0.858342	0.000101
1856	1.8457e+02	-6.0945	-21.643085	0.000193	1.925390	0.652340	0.000077
1857	1.8467e+02	-6.0576	-21.493711	0.000375	3.749444	1.270346	0.000150
1858	1.8477e+02	-6.0127	-21.388745	0.000263	2.634744	0.892676	0.000105
1859	1.8487e+02	-5.9806	-21.283780	0.000263	2.634744	0.892676	0.000105
1860	1.8497e+02	-5.9373	-21.150554	0.000334	3.344099	1.133011	0.000134
1861	1.8507e+02	-5.9020	-21.077886	0.000182	1.824054	0.618006	0.000073
1862	1.8517e+02	-5.8683	-20.956772	0.000304	3.040090	1.030010	0.000122
1863	1.8527e+02	-5.8218	-20.847769	0.000274	2.736081	0.927009	0.000110
1864	1.8537e+02	-5.7817	-20.750878	0.000243	2.432072	0.824008	0.000097
1865	1.8547e+02	-5.7367	-20.637838	0.000284	2.837417	0.961343	0.000114
1866	1.8557e+02	-5.6966	-20.500575	0.000345	3.445435	1.167345	0.000138
1867	1.8567e+02	-5.6597	-20.435981	0.000162	1.621381	0.549339	0.000065
1868	1.8577e+02	-5.6148	-20.298718	0.000345	3.445435	1.167345	0.000138
1869	1.8587e+02	-5.5811	-20.209902	0.000223	2.229399	0.755341	0.000089
1870	1.8597e+02	-5.5474	-20.117047	0.000233	2.330735	0.789675	0.000093
1871	1.8606e+02	-5.5041	-19.975748	0.000355	3.546771	1.201679	0.000142
1872	1.8616e+02	-5.4576	-19.882894	0.000233	2.330735	0.789675	0.000093
1873	1.8626e+02	-5.4239	-19.749668	0.000334	3.344099	1.133011	0.000134
1874	1.8636e+02	-5.3806	-19.656814	0.000233	2.330735	0.789675	0.000093
1875	1.8646e+02	-5.3453	-19.539737	0.000294	2.938753	0.995677	0.000118
1876	1.8656e+02	-5.3004	-19.467069	0.000182	1.824054	0.618006	0.000073
1877	1.8666e+02	-5.2587	-19.337880	0.000324	3.242762	1.098678	0.000130
1878	1.8676e+02	-5.2218	-19.208692	0.000324	3.242762	1.098678	0.000130
1879	1.8686e+02	-5.1833	-19.091615	0.000294	2.938753	0.995677	0.000118
1880	1.8696e+02	-5.1368	-19.002798	0.000223	2.229399	0.755341	0.000089
1881	1.8706e+02	-5.1047	-18.885721	0.000294	2.938753	0.995677	0.000118
1882	1.8716e+02	-5.0630	-18.768644	0.000294	2.938753	0.995677	0.000118
1883	1.8726e+02	-5.0261	-18.712124	0.000142	1.418709	0.480671	0.000057
1884	1.8736e+02	-4.9795	-18.566787	0.000365	3.648108	1.236012	0.000146
1885	1.8746e+02	-4.9475	-18.437599	0.000324	3.242762	1.098678	0.000130
1886	1.8756e+02	-4.9138	-18.356856	0.000203	2.026726	0.686674	0.000081
1887	1.8766e+02	-4.8656	-18.247854	0.000274	2.736081	0.927009	0.000110
1888	1.8776e+02	-4.8287	-18.179222	0.000172	1.722717	0.583672	0.000069
1889	1.8786e+02	-4.7742	-18.054071	0.000314	3.141426	1.064344	0.000126
1890	1.8796e+02	-4.7357	-17.912771	0.000355	3.546771	1.201679	0.000142
1891	1.8806e+02	-4.7052	-17.823954	0.000223	2.229399	0.755341	0.000089
1892	1.8815e+02	-4.6635	-17.739174	0.000213	2.128063	0.721007	0.000085
1893	1.8825e+02	-4.6186	-17.605949	0.000334	3.344099	1.133011	0.000134
1894	1.8835e+02	-4.5849	-17.476761	0.000324	3.242762	1.098678	0.000130
1895	1.8845e+02	-4.5480	-17.379869	0.000243	2.432072	0.824008	0.000097
1896	1.8855e+02	-4.5047	-17.291052	0.000223	2.229399	0.755341	0.000089
1897	1.8865e+02	-4.4630	-17.190124	0.000253	2.533408	0.858342	0.000101
1898	1.8875e+02	-4.4293	-17.064973	0.000314	3.141426	1.064344	0.000126
1899	1.8885e+02	-4.3812	-16.927710	0.000345	3.445435	1.167345	0.000138
1900	1.8895e+02	-4.3459	-16.814670	0.000284	2.837417	0.961343	0.000114
1901	1.8905e+02	-4.3042	-16.754113	0.000152	1.520045	0.515005	0.000061
1902	1.8915e+02	-4.2673	-16.584554	0.000426	4.256126	1.442014	0.000170
1903	1.8925e+02	-4.2320	-16.487662	0.000243	2.432072	0.824008	0.000097
1904	1.8935e+02	-4.1870	-16.386734	0.000253	2.533408	0.858342	0.000101
1905	1.8945e+02	-4.1518	-16.289843	0.000243	2.432072	0.824008	0.000097
1906	1.8955e+02	-4.1004	-16.180840	0.000274	2.736081	0.927009	0.000110
1907	1.8965e+02	-4.0715	-16.035503	0.000365	3.648108	1.236012	0.000146
1908	1.8975e+02	-4.0266	-15.954760	0.000203	2.026726	0.686674	0.000081
1909	1.8985e+02	-3.9881	-15.781164	0.000436	4.357462	1.476348	0.000174
1910	1.8995e+02	-3.9480	-15.696384	0.000213	2.128063	0.721007	0.000085
1911	1.9004e+02	-3.9031	-15.599492	0.000243	2.432072	0.824008	0.000097
1912	1.9014e+02	-3.8662	-15.498564	0.000253	2.533408	0.858342	0.000101
1913	1.9024e+02	-3.8373	-15.369376	0.000324	3.242762	1.098678	0.000130
1914	1.9034e+02	-3.7812	-15.272484	0.000243	2.432072	0.824008	0.000097
1915	1.9044e+02	-3.7507	-15.155408	0.000294	2.938753	0.995677	0.000118
1916	1.9054e+02	-3.7042	-15.026219	0.000324	3.242762	1.098678	0.000130
1917	1.9064e+02	-3.6625	-14.937402	0.000223	2.229399	0.755341	0.000089
1918	1.9074e+02	-3.6191	-14.804177	0.000334	3.344099	1.133011	0.000134
1919	1.9084e+02	-3.5919	-14.691137	0.000284	2.837417	0.961343	0.000114
1920	1.9094e+02	-3.5550	-14.549837	0.000355	3.546771	1.201679	0.000142
1921	1.9104e+02	-3.5133	-14.436797	0.000284	2.837417	0.961343	0.000114
1922	1.9114e+02	-3.4684	-14.319720	0.000294	2.938753	0.995677	0.000118
1923	1.9124e+02	-3.4298	-14.190532	0.000324	3.242762	1.098678	0.000130
1924	1.9134e+02	-3.3865	-14.142086	0.000122	1.216036	0.412004	0.000049
1925	1.9144e+02	-3.3528	-13.992712	0.000375	3.749444	1.270346	0.000150
1926	1.9154e+02	-3.3095	-13.859487	0.000334	3.344099	1.133011	0.000134
1927	1.9164e+02	-3.2662	-13.754521	0.000263	2.634744	0.892676	0.000105
1928	1.9174e+02	-3.2325	-13.629370	0.000314	3.141426	1.064344	0.000126
1929	1.9184e+02	-3.1972	-13.532479	0.000243	2.432072	0.824008	0.000097
1930	1.9194e+02	-3.1555	-13.391179	0.000355	3.546771	1.201679	0.000142
1931	1.9203e+02	-3.1106	-13.306399	0.000213	2.128063	0.721007	0.000085
1932	1.9213e+02	-3.0705	-13.181248	0.000314	3.141426	1.064344	0.000126
1933	1.9223e+02	-3.0288	-13.039948	0.000355	3.546771	1.201679	0.000142
1934	1.9233e+02	-2.9951	-12.910760	0.000324	3.242762	1.098678	0.000130
1935	1.9243e+02	-2.9582	-12.825980	0.000213	2.128063	0.721007	0.000085
1936	1.9253e+02	-2.9133	-12.684680	0.000355	3.546771	1.201679	0.000142
1937	1.9263e+02	-2.8748	-12.539344	0.000365	3.648108	1.236012	0.000146
1938	1.9273e+02	-2.8363	-12.490898	0.000122	1.216036	0.412004	0.000049
1939	1.9283e+02	-2.7930	-12.325375	0.000415	4.154789	1.407681	0.000166
1940	1.9293e+02	-2.7545	-12.240596	0.000213	2.128063	0.721007	0.000085
1941	1.9303e+02	-2.7208	-12.111407	0.000324	3.242762	1.098678	0.000130
1942	1.9313e+02	-2.6759	-11.974145	0.000345	3.445435	1.167345	0.000138
1943	1.9323e+02	-2.6293	-11.865142	0.000274	2.736081	0.927009	0.000110
1944	1.9333e+02	-2.5844	-11.768251	0.000243	2.432072	0.824008	0.000097
1945	1.9343e+02	-2.5588	-11.643099	0.000314	3.141426	1.064344	0.000126
1946	1.9353e+02	-2.5138	-11.485651	0.000395	3.952117	1.339013	0.000158
1947	1.9363e+02	-2.4577	-11.412983	0.000182	1.824054	0.618006	0.000073
1948	1.9373e+02	-2.4368	-11.239386	0.000436	4.357462	1.476348	0.000174
1949	1.9383e+02	-2.4015	-11.158643	0.000203	2.026726	0.686674	0.000081
1950	1.9393e+02	-2.3470	-11.045603	0.000284	2.837417	0.961343	0.000114
1951	1.9403e+02	-2.3117	-10.867969	0.000446	4.458798	1.510682	0.000179
1952	1.9412e+02	-2.2748	-10.779152	0.000223	2.229399	0.755341	0.000089
1953	1.9422e+02	-2.2283	-10.710521	0.000172	1.722717	0.583672	0.000069
1954	1.9432e+02	-2.1882	-10.577296	0.000334	3.344099	1.133011	0.000134
1955	1.9442e+02	-2.1481	-10.440033	0.000345	3.445435	1.167345	0.000138
1956	1.9452e+02	-2.1160	-10.331030	0.000274	2.736081	0.927009	0.000110
1957	1.9462e+02	-2.0727	-10.181656	0.000375	3.749444	1.270346	0.000150
1958	1.9472e+02	-2.0342	-10.084765	0.000243	2.432072	0.824008	0.000097
1959	1.9482e+02	-2.0021	-9.947502	0.000345	3.445435	1.167345	0.000138
1960	1.9492e+02	-1.9556	-9.798128	0.000375	3.749444	1.270346	0.000150
1961	1.9502e+02	-1.9203	-9.697200	0.000253	2.533408	0.858342	0.000101
1962	1.9512e+02	-1.8705	-9.563975	0.000334	3.344099	1.133011	0.000134
1963	1.9522e+02	-1.8352	-9.442860	0.000304	3.040090	1.030010	0.000122
1964	1.9532e+02	-1.7919	-9.321746	0.000304	3.040090	1.030010	0.000122
1965	1.9542e+02	-1.7550	-9.172372	0.000375	3.749444	1.270346	0.000150
1966	1.9552e+02	-1.7149	-9.059333	0.000284	2.837417	0.961343	0.000114
1967	1.9562e+02	-1.6764	-8.930144	0.000324	3.242762	1.098678	0.000130
1968	1.9572e+02	-1.6379	-8.792882	0.000345	3.445435	1.167345	0.000138
1969	1.9582e+02	-1.5946	-8.691953	0.000253	2.533408	0.858342	0.000101
1970	1.9592e+02	-1.5529	-8.566802	0.000314	3.141426	1.064344	0.000126
1971	1.9601e+02	-1.5224	-8.413391	0.000385	3.850780	1.304680	0.000154
1972	1.9611e+02	-1.4775	-8.268054	0.000365	3.648108	1.236012	0.000146
1973	1.9621e+02	-1.4374	-8.155014	0.000284	2.837417	0.961343	0.000114
1974	1.9631e+02	-1.4053	-8.025826	0.000324	3.242762	1.098678	0.000130
1975	1.9641e+02	-1.3508	-7.904712	0.000304	3.040090	1.030010	0.000122
1976	1.9651e+02	-1.3251	-7.747263	0.000395	3.952117	1.339013	0.000158
1977	1.9661e+02	-1.2802	-7.650372	0.000243	2.432072	0.824008	0.000097
1978	1.9671e+02	-1.2288	-7.521184	0.000324	3.242762	1.098678	0.000130
1979	1.9681e+02	-1.1952	-7.432367	0.000223	2.229399	0.755341	0.000089
1980	1.9691e+02	-1.1518	-7.242622	0.000476	4.762807	1.613683	0.000191
1981	1.9701e+02	-1.1182	-7.109396	0.000334	3.344099	1.133011	0.000134
1982	1.9711e+02	-1.0732	-7.040765	0.000172	1.722717	0.583672	0.000069
1983	1.9721e+02	-1.0411	-6.863131	0.000446	4.458798	1.510682	0.000179
1984	1.9731e+02	-0.9914	-6.770277	0.000233	2.330735	0.789675	0.000093
1985	1.9741e+02	-0.9593	-6.604754	0.000415	4.154789	1.407681	0.000166
1986	1.9751e+02	-0.9128	-6.443269	0.000405	4.053453	1.373347	0.000162
1987	1.9761e+02	-0.8727	-6.301969	0.000355	3.546771	1.201679	0.000142
1988	1.9771e+02	-0.8358	-6.221226	0.000203	2.026726	0.686674	0.000081
1989	1.9781e+02	-0.7925	-6.083964	0.000345	3.445435	1.167345	0.000138
1990	1.9791e+02	-0.7572	-5.938627	0.000365	3.648108	1.236012	0.000146
1991	1.9800e+02	-0.7187	-5.817513	0.000304	3.040090	1.030010	0.000122
1992	1.9810e+02	-0.6834	-5.708510	0.000274	2.736081	0.927009	0.000110
1993	1.9820e+02	-0.6449	-5.575284	0.000334	3.344099	1.133011	0.000134
1994	1.9830e+02	-0.6048	-5.417836	0.000395	3.952117	1.339013	0.000158
1995	1.9840e+02	-0.5599	-5.288648	0.000324	3.242762	1.098678	0.000130
1996	1.9850e+02	-0.5166	-5.159459	0.000324	3.242762	1.098678	0.000130
1997	1.9860e+02	-0.4813	-5.038345	0.000304	3.040090	1.030010	0.000122
1998	1.9870e+02	-0.4412	-4.897046	0.000355	3.546771	1.201679	0.000142
1999	1.9880e+02	-0.3978	-4.784006	0.000284	2.837417	0.961343	0.000114
2000	1.9890e+02	-0.3497	-4.646743	0.000345	3.445435	1.167345	0.000138
2001	1.9900e+02	-0.3176	-4.513518	0.000334	3.344099	1.133011	0.000134
2002	1.9910e+02	-0.2936	-4.372218	0.000355	3.546771	1.201679	0.000142
2003	1.9920e+02	-0.2342	-4.263215	0.000274	2.736081	0.927009	0.000110
2004	1.9930e+02	-0.1989	-4.113841	0.000375	3.749444	1.270346	0.000150
2005	1.9940e+02	-0.1524	-3.984653	0.000324	3.242762	1.098678	0.000130
2006	1.9950e+02	-0.1283	-3.835279	0.000375	3.749444	1.270346	0.000150
2007	1.9960e+02	-0.0850	-3.698016	0.000345	3.445435	1.167345	0.000138
2008	1.9970e+02	-0.0497	-3.580939	0.000294	2.938753	0.995677	0.000118
2009	1.9980e+02	0.0016	-3.467900	0.000294	2.938753	0.995677	0.000114

Center data before PMax,+/-Pr and +/-Vc Calc.

PMax (uC/cm2):	5.15e+01
Pr (uC/cm2):	1.56e+00
-Pr (uC/cm2):	-3.47e+00
PLoss (uC/cm2):	-1.15e+00
Vc:	7.63e-01
-Vc:	-4.77e-01
C (Max-Eff) (nF):	2.57e-01
K (Eff):	8.72e+02
Vert. (+/-Pr) Shift (uC/cm2):	-9.55e-01
Horiz. Shift (+/-Vc):	1.43e-01
Offset (uC/cm2):	2.32e+00

A (Loop Area - uC/cm2·Volts):	2.16e-02



Hysteresis Version: 5.48.1 - Radiant Technologies, Inc., 1999 - 9/12/24

