»»»»»»»»»»»»»»»»»»»»»»»»»»»»»»»»»»»» Hysteresis ««««««««««««««««««««««««««««««««««««
»»»  Executed Version:	5.48.1
»»»  Vision Version:	5.48.4 (R)
»»»  Vision Compiled:	9/18/24
»»»  Driver Version:	5.47.0
»»»  Windows Version:	Windows 8 or 8.1
»»»  Processor Information:	x86 (AMD or Intel) - 32 Processors
»»»  Tester Name:	PMF21124-494 (100V)
»»»  Tester S/N:	PMF21124-494
»»»  Internal Amp Type:	100V RevK 270k
»»»  Internal Amp S/N:	iAB2-596/K     
»»»  Execution Count:	1
»»»»»»»»»»»»»»»»»»»»»»»»»»»»»»»»»»»»»»»»»»««««««««««««««««««««««««««««««««««««««««««

Stored:	6/9/2025 - 16:0:20
Configured:	06/09/25 02:47:45 PM
Executed:	06/09/25 03:59:44 PM

»»»»»»»»»»»»»»»»»»»»»»»»»»»»»»»»»»» Sample Info ««««««««««««««««««««««««««««««««««««
Sample Name:	
Lot Name:	
Wafer Name:	
Die Row/Column:	0/0
Capacitor Number:	0
Sample Area (cm2):	1.00e-04
Sample Thickness (microns):	3.00e-01

Amplifier:	Internal

»»»»»»»»»»»»»»»»»»»»»»»»»»»»»»»»»»» Tester Info «««««««««««««««««««««««««««««««««««
Tester Name:	PMF21124-494 (100V)
Tester Serial Number:	PMF21124-494
Return Signal Amp. Level:	0.19 [Index: 3]

»»»»»»»»»»»»»»»»»»»»»»»»»»»»»»»» Hysteresis Info ««««««««««««««««««««««««««««««««««
Task Name:	Hyst-927
Volts:	20.00
Field:	666.67 (kV/cm)
DCBias:	0.00
DCField:	0.00 (kV/cm)
Hysteresis Period (ms):	2.00e+02
Preset:	Enabled
Preset Delay (ms):	1.00e+03
Profile:	Standard Bipolar

»»»»»»»»»»»»»»»»»»»»»»»»»»»»»»»»»»»»»» Data «««««««««««««««««««««««««««««««««««««««
Points:	2009

Valid Data

Point	Time (ms)	Drive Voltage	Measured Polarization (uC/cm2)	Capacitance (uF)	Normalized Capacitance (uF/cm2)	Dielectric Constant	Instantaneous Current (mA)
   1	0.0000e+00	-0.0064	-1.933788	0.000233	2.330642	0.789643	0.000093
   2	9.9500e-02	0.0241	-1.840934	0.000233	2.330642	0.789643	0.000093
   3	1.9900e-01	0.0690	-1.687523	0.000385	3.850626	1.304627	0.000154
   4	2.9850e-01	0.0995	-1.610817	0.000193	1.925313	0.652314	0.000077
   5	3.9800e-01	0.1476	-1.501814	0.000274	2.735971	0.926972	0.000110
   6	4.9750e-01	0.1989	-1.360515	0.000355	3.546629	1.201630	0.000142
   7	5.9700e-01	0.2374	-1.235364	0.000314	3.141300	1.064301	0.000126
   8	6.9650e-01	0.2743	-1.110212	0.000314	3.141300	1.064301	0.000126
   9	7.9600e-01	0.3064	-1.029470	0.000203	2.026645	0.686646	0.000081
  10	8.9550e-01	0.3481	-0.859910	0.000426	4.255955	1.441957	0.000170
  11	9.9500e-01	0.3850	-0.758982	0.000253	2.533306	0.858307	0.000101
  12	1.0945e+00	0.4203	-0.613645	0.000365	3.647961	1.235963	0.000146
  13	1.1940e+00	0.4749	-0.488493	0.000314	3.141300	1.064301	0.000126
  14	1.2935e+00	0.5101	-0.379491	0.000274	2.735971	0.926972	0.000110
  15	1.3930e+00	0.5454	-0.262414	0.000294	2.938635	0.995637	0.000118
  16	1.4925e+00	0.5920	-0.088817	0.000436	4.357287	1.476289	0.000174
  17	1.5920e+00	0.6257	0.032297	0.000304	3.039968	1.029969	0.000122
  18	1.6915e+00	0.6722	0.129188	0.000243	2.431974	0.823975	0.000097
  19	1.7910e+00	0.6994	0.266451	0.000345	3.445297	1.167298	0.000138
  20	1.8905e+00	0.7508	0.399676	0.000334	3.343965	1.132966	0.000134
  21	1.9900e+00	0.7893	0.512716	0.000284	2.837303	0.961304	0.000114
  22	2.0895e+00	0.8310	0.666127	0.000385	3.850626	1.304627	0.000154
  23	2.1890e+00	0.8727	0.746870	0.000203	2.026645	0.686646	0.000081
  24	2.2885e+00	0.9096	0.904318	0.000395	3.951958	1.338960	0.000158
  25	2.3880e+00	0.9497	1.049655	0.000365	3.647961	1.235963	0.000146
  26	2.4875e+00	0.9866	1.190955	0.000355	3.546629	1.201630	0.000142
  27	2.5870e+00	1.0219	1.303995	0.000284	2.837303	0.961304	0.000114
  28	2.6865e+00	1.0636	1.421072	0.000294	2.938635	0.995637	0.000118
  29	2.7860e+00	1.0893	1.522000	0.000253	2.533306	0.858307	0.000101
  30	2.8855e+00	1.1550	1.687523	0.000415	4.154623	1.407624	0.000166
  31	2.9850e+00	1.1855	1.844971	0.000395	3.951958	1.338960	0.000158
  32	3.0845e+00	1.2288	1.990308	0.000365	3.647961	1.235963	0.000146
  33	3.1840e+00	1.2657	2.091236	0.000253	2.533306	0.858307	0.000101
  34	3.2835e+00	1.3123	2.236573	0.000365	3.647961	1.235963	0.000146
  35	3.3830e+00	1.3476	2.337502	0.000253	2.533306	0.858307	0.000101
  36	3.4825e+00	1.3780	2.462653	0.000314	3.141300	1.064301	0.000126
  37	3.5820e+00	1.4085	2.591841	0.000324	3.242632	1.098634	0.000130
  38	3.6815e+00	1.4582	2.745252	0.000385	3.850626	1.304627	0.000154
  39	3.7810e+00	1.5096	2.870404	0.000314	3.141300	1.064301	0.000126
  40	3.8805e+00	1.5385	3.007666	0.000345	3.445297	1.167298	0.000138
  41	3.9800e+00	1.5786	3.136854	0.000324	3.242632	1.098634	0.000130
  42	4.0795e+00	1.6283	3.221634	0.000213	2.127977	0.720978	0.000085
  43	4.1790e+00	1.6668	3.391194	0.000426	4.255955	1.441957	0.000170
  44	4.2785e+00	1.7005	3.576902	0.000466	4.661284	1.579286	0.000187
  45	4.3780e+00	1.7502	3.665719	0.000223	2.229310	0.755311	0.000089
  46	4.4775e+00	1.7807	3.782796	0.000294	2.938635	0.995637	0.000118
  47	4.5770e+00	1.8256	3.916022	0.000334	3.343965	1.132966	0.000134
  48	4.6765e+00	1.8673	4.012913	0.000243	2.431974	0.823975	0.000097
  49	4.7760e+00	1.9106	4.158250	0.000365	3.647961	1.235963	0.000146
  50	4.8755e+00	1.9395	4.275327	0.000294	2.938635	0.995637	0.000118
  51	4.9750e+00	1.9764	4.448924	0.000436	4.357287	1.476289	0.000174
  52	5.0745e+00	2.0181	4.553889	0.000263	2.634639	0.892640	0.000105
  53	5.1740e+00	2.0646	4.699226	0.000365	3.647961	1.235963	0.000146
  54	5.2735e+00	2.1015	4.856674	0.000395	3.951958	1.338960	0.000158
  55	5.3730e+00	2.1417	4.981826	0.000314	3.141300	1.064301	0.000126
  56	5.4725e+00	2.1882	5.115051	0.000334	3.343965	1.132966	0.000134
  57	5.5720e+00	2.2331	5.260388	0.000365	3.647961	1.235963	0.000146
  58	5.6715e+00	2.2652	5.365353	0.000263	2.634639	0.892640	0.000105
  59	5.7710e+00	2.3101	5.514727	0.000375	3.749294	1.270295	0.000150
  60	5.8705e+00	2.3406	5.643916	0.000324	3.242632	1.098634	0.000130
  61	5.9700e+00	2.3839	5.801364	0.000395	3.951958	1.338960	0.000158
  62	6.0695e+00	2.4224	5.898255	0.000243	2.431974	0.823975	0.000097
  63	6.1690e+00	2.4641	6.011295	0.000284	2.837303	0.961304	0.000114
  64	6.2685e+00	2.5058	6.116261	0.000263	2.634639	0.892640	0.000105
  65	6.3680e+00	2.5379	6.257560	0.000355	3.546629	1.201630	0.000142
  66	6.4675e+00	2.5844	6.443269	0.000466	4.661284	1.579286	0.000187
  67	6.5670e+00	2.6229	6.576494	0.000334	3.343965	1.132966	0.000134
  68	6.6665e+00	2.6727	6.693571	0.000294	2.938635	0.995637	0.000118
  69	6.7660e+00	2.6919	6.778351	0.000213	2.127977	0.720978	0.000085
  70	6.8655e+00	2.7400	6.980208	0.000507	5.066613	1.716615	0.000203
  71	6.9650e+00	2.7769	7.097285	0.000294	2.938635	0.995637	0.000118
  72	7.0645e+00	2.8218	7.242622	0.000365	3.647961	1.235963	0.000146
  73	7.1640e+00	2.8603	7.331439	0.000223	2.229310	0.755311	0.000089
  74	7.2635e+00	2.8988	7.484850	0.000385	3.850626	1.304627	0.000154
  75	7.3630e+00	2.9325	7.626149	0.000355	3.546629	1.201630	0.000142
  76	7.4625e+00	2.9807	7.771486	0.000365	3.647961	1.235963	0.000146
  77	7.5620e+00	3.0224	7.876452	0.000263	2.634639	0.892640	0.000105
  78	7.6615e+00	3.0609	8.033900	0.000395	3.951958	1.338960	0.000158
  79	7.7610e+00	3.0946	8.155014	0.000304	3.039968	1.029969	0.000122
  80	7.8605e+00	3.1475	8.284203	0.000324	3.242632	1.098634	0.000130
  81	7.9600e+00	3.1892	8.413391	0.000324	3.242632	1.098634	0.000130
  82	8.0595e+00	3.2133	8.566802	0.000385	3.850626	1.304627	0.000154
  83	8.1590e+00	3.2694	8.695990	0.000324	3.242632	1.098634	0.000130
  84	8.2585e+00	3.3015	8.845364	0.000375	3.749294	1.270295	0.000150
  85	8.3580e+00	3.3352	8.946293	0.000253	2.533306	0.858307	0.000101
  86	8.4575e+00	3.3753	9.115852	0.000426	4.255955	1.441957	0.000170
  87	8.5570e+00	3.4138	9.261189	0.000365	3.647961	1.235963	0.000146
  88	8.6565e+00	3.4635	9.422675	0.000405	4.053290	1.373292	0.000162
  89	8.7560e+00	3.5004	9.515529	0.000233	2.330642	0.789643	0.000093
  90	8.8555e+00	3.5389	9.636643	0.000304	3.039968	1.029969	0.000122
  91	8.9550e+00	3.5758	9.765831	0.000324	3.242632	1.098634	0.000130
  92	9.0545e+00	3.6191	9.919243	0.000385	3.850626	1.304627	0.000154
  93	9.1540e+00	3.6609	10.048431	0.000324	3.242632	1.098634	0.000130
  94	9.2535e+00	3.7026	10.165508	0.000294	2.938635	0.995637	0.000118
  95	9.3530e+00	3.7298	10.322956	0.000395	3.951958	1.338960	0.000158
  96	9.4525e+00	3.7635	10.431959	0.000274	2.735971	0.926972	0.000110
  97	9.5520e+00	3.8181	10.540961	0.000274	2.735971	0.926972	0.000110
  98	9.6515e+00	3.8550	10.670150	0.000324	3.242632	1.098634	0.000130
  99	9.7510e+00	3.9063	10.799338	0.000324	3.242632	1.098634	0.000130
 100	9.8505e+00	3.9368	10.932564	0.000334	3.343965	1.132966	0.000134
 101	9.9500e+00	3.9785	11.090012	0.000395	3.951958	1.338960	0.000158
 102	1.0050e+01	4.0122	11.203052	0.000284	2.837303	0.961304	0.000114
 103	1.0149e+01	4.0555	11.336277	0.000334	3.343965	1.132966	0.000134
 104	1.0248e+01	4.0876	11.477577	0.000355	3.546629	1.201630	0.000142
 105	1.0348e+01	4.1341	11.578505	0.000253	2.533306	0.858307	0.000101
 106	1.0447e+01	4.1694	11.703657	0.000314	3.141300	1.064301	0.000126
 107	1.0547e+01	4.2207	11.853031	0.000375	3.749294	1.270295	0.000150
 108	1.0646e+01	4.2528	11.998367	0.000365	3.647961	1.235963	0.000146
 109	1.0746e+01	4.2929	12.058924	0.000152	1.519984	0.514984	0.000061
 110	1.0845e+01	4.3346	12.240596	0.000456	4.559952	1.544953	0.000183
 111	1.0945e+01	4.3812	12.337487	0.000243	2.431974	0.823975	0.000097
 112	1.1044e+01	4.4100	12.454564	0.000294	2.938635	0.995637	0.000118
 113	1.1144e+01	4.4566	12.575678	0.000304	3.039968	1.029969	0.000122
 114	1.1243e+01	4.5015	12.716978	0.000355	3.546629	1.201630	0.000142
 115	1.1343e+01	4.5416	12.874426	0.000395	3.951958	1.338960	0.000158
 116	1.1443e+01	4.5721	12.955169	0.000203	2.026645	0.686646	0.000081
 117	1.1542e+01	4.6154	13.076283	0.000304	3.039968	1.029969	0.000122
 118	1.1642e+01	4.6587	13.237768	0.000405	4.053290	1.373292	0.000162
 119	1.1741e+01	4.6972	13.350808	0.000284	2.837303	0.961304	0.000114
 120	1.1841e+01	4.7389	13.492108	0.000355	3.546629	1.201630	0.000142
 121	1.1940e+01	4.7790	13.597073	0.000263	2.634639	0.892640	0.000105
 122	1.2040e+01	4.8175	13.722224	0.000314	3.141300	1.064301	0.000126
 123	1.2139e+01	4.8544	13.847376	0.000314	3.141300	1.064301	0.000126
 124	1.2239e+01	4.8993	13.996750	0.000375	3.749294	1.270295	0.000150
 125	1.2338e+01	4.9394	14.125938	0.000324	3.242632	1.098634	0.000130
 126	1.2438e+01	4.9731	14.206681	0.000203	2.026645	0.686646	0.000081
 127	1.2537e+01	5.0180	14.335869	0.000324	3.242632	1.098634	0.000130
 128	1.2636e+01	5.0485	14.440835	0.000263	2.634639	0.892640	0.000105
 129	1.2736e+01	5.0950	14.557911	0.000294	2.938635	0.995637	0.000118
 130	1.2835e+01	5.1400	14.723434	0.000415	4.154623	1.407624	0.000166
 131	1.2935e+01	5.1720	14.796102	0.000182	1.823981	0.617981	0.000073
 132	1.3034e+01	5.2170	14.989885	0.000486	4.863948	1.647950	0.000195
 133	1.3134e+01	5.2555	15.110999	0.000304	3.039968	1.029969	0.000122
 134	1.3233e+01	5.2908	15.203853	0.000233	2.330642	0.789643	0.000093
 135	1.3333e+01	5.3389	15.333042	0.000324	3.242632	1.098634	0.000130
 136	1.3432e+01	5.3726	15.458193	0.000314	3.141300	1.064301	0.000126
 137	1.3532e+01	5.4143	15.595455	0.000345	3.445297	1.167298	0.000138
 138	1.3632e+01	5.4512	15.664087	0.000172	1.722648	0.583649	0.000069
 139	1.3731e+01	5.4977	15.809424	0.000365	3.647961	1.235963	0.000146
 140	1.3831e+01	5.5250	15.978983	0.000426	4.255955	1.441957	0.000170
 141	1.3930e+01	5.5635	16.071837	0.000233	2.330642	0.789643	0.000093
 142	1.4030e+01	5.6116	16.192951	0.000304	3.039968	1.029969	0.000122
 143	1.4129e+01	5.6485	16.318103	0.000314	3.141300	1.064301	0.000126
 144	1.4229e+01	5.6886	16.427105	0.000274	2.735971	0.926972	0.000110
 145	1.4328e+01	5.7335	16.544182	0.000294	2.938635	0.995637	0.000118
 146	1.4428e+01	5.7752	16.697593	0.000385	3.850626	1.304627	0.000154
 147	1.4527e+01	5.8057	16.806596	0.000274	2.735971	0.926972	0.000110
 148	1.4627e+01	5.8538	16.931747	0.000314	3.141300	1.064301	0.000126
 149	1.4726e+01	5.8940	17.081121	0.000375	3.749294	1.270295	0.000150
 150	1.4825e+01	5.9341	17.153790	0.000182	1.823981	0.617981	0.000073
 151	1.4925e+01	5.9726	17.282978	0.000324	3.242632	1.098634	0.000130
 152	1.5024e+01	6.0079	17.400055	0.000294	2.938635	0.995637	0.000118
 153	1.5124e+01	6.0528	17.517132	0.000294	2.938635	0.995637	0.000118
 154	1.5223e+01	6.0945	17.630172	0.000284	2.837303	0.961304	0.000114
 155	1.5323e+01	6.1314	17.759360	0.000324	3.242632	1.098634	0.000130
 156	1.5422e+01	6.1651	17.864326	0.000263	2.634639	0.892640	0.000105
 157	1.5522e+01	6.2084	17.997551	0.000334	3.343965	1.132966	0.000134
 158	1.5621e+01	6.2421	18.126739	0.000324	3.242632	1.098634	0.000130
 159	1.5721e+01	6.2918	18.199408	0.000182	1.823981	0.617981	0.000073
 160	1.5820e+01	6.3271	18.320522	0.000304	3.039968	1.029969	0.000122
 161	1.5920e+01	6.3768	18.449710	0.000324	3.242632	1.098634	0.000130
 162	1.6020e+01	6.4121	18.586973	0.000345	3.445297	1.167298	0.000138
 163	1.6119e+01	6.4410	18.704050	0.000294	2.938635	0.995637	0.000118
 164	1.6218e+01	6.4779	18.768644	0.000162	1.621316	0.549317	0.000065
 165	1.6318e+01	6.5292	18.934167	0.000415	4.154623	1.407624	0.000166
 166	1.6418e+01	6.5693	19.059318	0.000314	3.141300	1.064301	0.000126
 167	1.6517e+01	6.6094	19.164283	0.000263	2.634639	0.892640	0.000105
 168	1.6616e+01	6.6415	19.265212	0.000253	2.533306	0.858307	0.000101
 169	1.6716e+01	6.6880	19.378252	0.000284	2.837303	0.961304	0.000114
 170	1.6816e+01	6.7265	19.515514	0.000345	3.445297	1.167298	0.000138
 171	1.6915e+01	6.7618	19.636628	0.000304	3.039968	1.029969	0.000122
 172	1.7015e+01	6.8003	19.737557	0.000253	2.533306	0.858307	0.000101
 173	1.7114e+01	6.8404	19.850596	0.000284	2.837303	0.961304	0.000114
 174	1.7213e+01	6.8822	19.979785	0.000324	3.242632	1.098634	0.000130
 175	1.7313e+01	6.9239	20.064565	0.000213	2.127977	0.720978	0.000085
 176	1.7413e+01	6.9592	20.173567	0.000274	2.735971	0.926972	0.000110
 177	1.7512e+01	7.0025	20.270459	0.000243	2.431974	0.823975	0.000097
 178	1.7611e+01	7.0410	20.431944	0.000405	4.053290	1.373292	0.000162
 179	1.7711e+01	7.0795	20.536909	0.000263	2.634639	0.892640	0.000105
 180	1.7811e+01	7.1212	20.649949	0.000284	2.837303	0.961304	0.000114
 181	1.7910e+01	7.1677	20.807398	0.000395	3.951958	1.338960	0.000158
 182	1.8009e+01	7.2094	20.948697	0.000355	3.546629	1.201630	0.000142
 183	1.8109e+01	7.2415	21.013292	0.000162	1.621316	0.549317	0.000065
 184	1.8209e+01	7.2720	21.154591	0.000355	3.546629	1.201630	0.000142
 185	1.8308e+01	7.3281	21.259557	0.000263	2.634639	0.892640	0.000105
 186	1.8407e+01	7.3570	21.376634	0.000294	2.938635	0.995637	0.000118
 187	1.8507e+01	7.4035	21.489674	0.000284	2.837303	0.961304	0.000114
 188	1.8607e+01	7.4356	21.630973	0.000355	3.546629	1.201630	0.000142
 189	1.8706e+01	7.4773	21.735939	0.000263	2.634639	0.892640	0.000105
 190	1.8805e+01	7.5206	21.869164	0.000334	3.343965	1.132966	0.000134
 191	1.8905e+01	7.5575	21.962018	0.000233	2.330642	0.789643	0.000093
 192	1.9005e+01	7.6121	22.083132	0.000304	3.039968	1.029969	0.000122
 193	1.9104e+01	7.6426	22.188098	0.000263	2.634639	0.892640	0.000105
 194	1.9203e+01	7.6827	22.321323	0.000334	3.343965	1.132966	0.000134
 195	1.9303e+01	7.7260	22.446475	0.000314	3.141300	1.064301	0.000126
 196	1.9402e+01	7.7629	22.579700	0.000334	3.343965	1.132966	0.000134
 197	1.9502e+01	7.7886	22.704851	0.000314	3.141300	1.064301	0.000126
 198	1.9602e+01	7.8399	22.805780	0.000253	2.533306	0.858307	0.000101
 199	1.9701e+01	7.8832	22.934968	0.000324	3.242632	1.098634	0.000130
 200	1.9800e+01	7.9121	23.039934	0.000263	2.634639	0.892640	0.000105
 201	1.9900e+01	7.9602	23.132788	0.000233	2.330642	0.789643	0.000093
 202	2.0000e+01	8.0019	23.278125	0.000365	3.647961	1.235963	0.000146
 203	2.0099e+01	8.0372	23.391164	0.000284	2.837303	0.961304	0.000114
 204	2.0198e+01	8.0757	23.516316	0.000314	3.141300	1.064301	0.000126
 205	2.0298e+01	8.1319	23.593021	0.000193	1.925313	0.652314	0.000077
 206	2.0398e+01	8.1575	23.746432	0.000385	3.850626	1.304627	0.000154
 207	2.0497e+01	8.2105	23.875621	0.000324	3.242632	1.098634	0.000130
 208	2.0596e+01	8.2329	23.988661	0.000284	2.837303	0.961304	0.000114
 209	2.0696e+01	8.2891	24.117849	0.000324	3.242632	1.098634	0.000130
 210	2.0796e+01	8.3260	24.238963	0.000304	3.039968	1.029969	0.000122
 211	2.0895e+01	8.3516	24.327780	0.000223	2.229310	0.755311	0.000089
 212	2.0994e+01	8.4062	24.452931	0.000314	3.141300	1.064301	0.000126
 213	2.1094e+01	8.4383	24.570008	0.000294	2.938635	0.995637	0.000118
 214	2.1194e+01	8.4768	24.711308	0.000355	3.546629	1.201630	0.000142
 215	2.1293e+01	8.5233	24.816273	0.000263	2.634639	0.892640	0.000105
 216	2.1392e+01	8.5618	24.945462	0.000324	3.242632	1.098634	0.000130
 217	2.1492e+01	8.5939	25.058502	0.000284	2.837303	0.961304	0.000114
 218	2.1591e+01	8.6388	25.143281	0.000213	2.127977	0.720978	0.000085
 219	2.1691e+01	8.6805	25.260358	0.000294	2.938635	0.995637	0.000118
 220	2.1791e+01	8.7142	25.377435	0.000294	2.938635	0.995637	0.000118
 221	2.1890e+01	8.7495	25.498549	0.000304	3.039968	1.029969	0.000122
 222	2.1989e+01	8.7960	25.651960	0.000385	3.850626	1.304627	0.000154
 223	2.2089e+01	8.8345	25.704443	0.000132	1.317319	0.446320	0.000053
 224	2.2189e+01	8.8778	25.849780	0.000365	3.647961	1.235963	0.000146
 225	2.2288e+01	8.9131	25.970894	0.000304	3.039968	1.029969	0.000122
 226	2.2387e+01	8.9596	26.132380	0.000405	4.053290	1.373292	0.000162
 227	2.2487e+01	8.9917	26.201011	0.000172	1.722648	0.583649	0.000069
 228	2.2587e+01	9.0350	26.330199	0.000324	3.242632	1.098634	0.000130
 229	2.2686e+01	9.0735	26.427091	0.000243	2.431974	0.823975	0.000097
 230	2.2785e+01	9.1120	26.560316	0.000334	3.343965	1.132966	0.000134
 231	2.2885e+01	9.1586	26.673356	0.000284	2.837303	0.961304	0.000114
 232	2.2985e+01	9.2035	26.737950	0.000162	1.621316	0.549317	0.000065
 233	2.3084e+01	9.2324	26.887324	0.000375	3.749294	1.270295	0.000150
 234	2.3183e+01	9.2789	27.016512	0.000324	3.242632	1.098634	0.000130
 235	2.3283e+01	9.3110	27.153775	0.000345	3.445297	1.167298	0.000138
 236	2.3383e+01	9.3447	27.254703	0.000253	2.533306	0.858307	0.000101
 237	2.3482e+01	9.3944	27.371780	0.000294	2.938635	0.995637	0.000118
 238	2.3581e+01	9.4393	27.488857	0.000294	2.938635	0.995637	0.000118
 239	2.3681e+01	9.4778	27.601897	0.000284	2.837303	0.961304	0.000114
 240	2.3780e+01	9.5083	27.710900	0.000274	2.735971	0.926972	0.000110
 241	2.3880e+01	9.5628	27.827977	0.000294	2.938635	0.995637	0.000118
 242	2.3980e+01	9.5917	27.989462	0.000405	4.053290	1.373292	0.000162
 243	2.4079e+01	9.6382	28.070205	0.000203	2.026645	0.686646	0.000081
 244	2.4178e+01	9.6751	28.195356	0.000314	3.141300	1.064301	0.000126
 245	2.4278e+01	9.7217	28.296284	0.000253	2.533306	0.858307	0.000101
 246	2.4378e+01	9.7569	28.453733	0.000395	3.951958	1.338960	0.000158
 247	2.4477e+01	9.8003	28.578884	0.000314	3.141300	1.064301	0.000126
 248	2.4576e+01	9.8339	28.627330	0.000122	1.215987	0.411988	0.000049
 249	2.4676e+01	9.8757	28.736332	0.000274	2.735971	0.926972	0.000110
 250	2.4776e+01	9.9206	28.918003	0.000456	4.559952	1.544953	0.000183
 251	2.4875e+01	9.9511	29.006820	0.000223	2.229310	0.755311	0.000089
 252	2.4974e+01	9.9896	29.131971	0.000314	3.141300	1.064301	0.000126
 253	2.5074e+01	10.0361	29.289420	0.000395	3.951958	1.338960	0.000158
 254	2.5174e+01	10.0762	29.362088	0.000182	1.823981	0.617981	0.000073
 255	2.5273e+01	10.1147	29.515499	0.000385	3.850626	1.304627	0.000154
 256	2.5372e+01	10.1468	29.588168	0.000182	1.823981	0.617981	0.000073
 257	2.5472e+01	10.1981	29.676985	0.000223	2.229310	0.755311	0.000089
 258	2.5572e+01	10.2334	29.834433	0.000395	3.951958	1.338960	0.000158
 259	2.5671e+01	10.2831	29.951510	0.000294	2.938635	0.995637	0.000118
 260	2.5770e+01	10.3120	30.016104	0.000162	1.621316	0.549317	0.000065
 261	2.5870e+01	10.3505	30.197775	0.000456	4.559952	1.544953	0.000183
 262	2.5970e+01	10.3970	30.294667	0.000243	2.431974	0.823975	0.000097
 263	2.6069e+01	10.4355	30.395595	0.000253	2.533306	0.858307	0.000101
 264	2.6169e+01	10.4724	30.524783	0.000324	3.242632	1.098634	0.000130
 265	2.6268e+01	10.5141	30.633786	0.000274	2.735971	0.926972	0.000110
 266	2.6367e+01	10.5478	30.710492	0.000193	1.925313	0.652314	0.000077
 267	2.6467e+01	10.5831	30.839680	0.000324	3.242632	1.098634	0.000130
 268	2.6567e+01	10.6296	30.920423	0.000203	2.026645	0.686646	0.000081
 269	2.6666e+01	10.6698	31.057685	0.000345	3.445297	1.167298	0.000138
 270	2.6765e+01	10.7227	31.130354	0.000182	1.823981	0.617981	0.000073
 271	2.6865e+01	10.7516	31.312025	0.000456	4.559952	1.544953	0.000183
 272	2.6965e+01	10.7901	31.421027	0.000274	2.735971	0.926972	0.000110
 273	2.7064e+01	10.8318	31.501770	0.000203	2.026645	0.686646	0.000081
 274	2.7163e+01	10.8735	31.614810	0.000284	2.837303	0.961304	0.000114
 275	2.7263e+01	10.9008	31.719775	0.000263	2.634639	0.892640	0.000105
 276	2.7363e+01	10.9521	31.828778	0.000274	2.735971	0.926972	0.000110
 277	2.7462e+01	10.9938	31.937781	0.000274	2.735971	0.926972	0.000110
 278	2.7561e+01	11.0243	32.038709	0.000253	2.533306	0.858307	0.000101
 279	2.7661e+01	11.0644	32.171935	0.000334	3.343965	1.132966	0.000134
 280	2.7761e+01	11.1125	32.280937	0.000274	2.735971	0.926972	0.000110
 281	2.7860e+01	11.1382	32.357643	0.000193	1.925313	0.652314	0.000077
 282	2.7959e+01	11.1943	32.466646	0.000274	2.735971	0.926972	0.000110
 283	2.8059e+01	11.2296	32.587760	0.000304	3.039968	1.029969	0.000122
 284	2.8159e+01	11.2729	32.680614	0.000233	2.330642	0.789643	0.000093
 285	2.8258e+01	11.3082	32.813839	0.000334	3.343965	1.132966	0.000134
 286	2.8358e+01	11.3403	32.906693	0.000233	2.330642	0.789643	0.000093
 287	2.8457e+01	11.3868	33.003585	0.000243	2.431974	0.823975	0.000097
 288	2.8556e+01	11.4286	33.108550	0.000263	2.634639	0.892640	0.000105
 289	2.8656e+01	11.4703	33.233701	0.000314	3.141300	1.064301	0.000126
 290	2.8756e+01	11.5120	33.342704	0.000274	2.735971	0.926972	0.000110
 291	2.8855e+01	11.5425	33.431521	0.000223	2.229310	0.755311	0.000089
 292	2.8954e+01	11.5858	33.548598	0.000294	2.938635	0.995637	0.000118
 293	2.9054e+01	11.6339	33.621266	0.000182	1.823981	0.617981	0.000073
 294	2.9154e+01	11.6692	33.754492	0.000334	3.343965	1.132966	0.000134
 295	2.9253e+01	11.7093	33.867532	0.000284	2.837303	0.961304	0.000114
 296	2.9352e+01	11.7462	33.976534	0.000274	2.735971	0.926972	0.000110
 297	2.9452e+01	11.7895	34.085537	0.000274	2.735971	0.926972	0.000110
 298	2.9552e+01	11.8296	34.198577	0.000284	2.837303	0.961304	0.000114
 299	2.9651e+01	11.8649	34.307580	0.000274	2.735971	0.926972	0.000110
 300	2.9750e+01	11.9066	34.404471	0.000243	2.431974	0.823975	0.000097
 301	2.9850e+01	11.9451	34.497325	0.000233	2.330642	0.789643	0.000093
 302	2.9950e+01	11.9836	34.565956	0.000172	1.722648	0.583649	0.000069
 303	3.0049e+01	12.0157	34.703219	0.000345	3.445297	1.167298	0.000138
 304	3.0148e+01	12.0638	34.824333	0.000304	3.039968	1.029969	0.000122
 305	3.0248e+01	12.1055	34.957558	0.000334	3.343965	1.132966	0.000134
 306	3.0348e+01	12.1505	35.038301	0.000203	2.026645	0.686646	0.000081
 307	3.0447e+01	12.1793	35.143267	0.000263	2.634639	0.892640	0.000105
 308	3.0547e+01	12.2226	35.228046	0.000213	2.127977	0.720978	0.000085
 309	3.0646e+01	12.2628	35.369346	0.000355	3.546629	1.201630	0.000142
 310	3.0745e+01	12.3013	35.421829	0.000132	1.317319	0.446320	0.000053
 311	3.0845e+01	12.3510	35.559092	0.000345	3.445297	1.167298	0.000138
 312	3.0945e+01	12.3879	35.635797	0.000193	1.925313	0.652314	0.000077
 313	3.1044e+01	12.4152	35.781134	0.000365	3.647961	1.235963	0.000146
 314	3.1143e+01	12.4633	35.873988	0.000233	2.330642	0.789643	0.000093
 315	3.1243e+01	12.5034	35.982991	0.000274	2.735971	0.926972	0.000110
 316	3.1343e+01	12.5515	36.079882	0.000243	2.431974	0.823975	0.000097
 317	3.1442e+01	12.5836	36.176773	0.000243	2.431974	0.823975	0.000097
 318	3.1541e+01	12.6237	36.273665	0.000243	2.431974	0.823975	0.000097
 319	3.1641e+01	12.6718	36.390742	0.000294	2.938635	0.995637	0.000118
 320	3.1741e+01	12.6927	36.515893	0.000314	3.141300	1.064301	0.000126
 321	3.1840e+01	12.7392	36.576450	0.000152	1.519984	0.514984	0.000061
 322	3.1939e+01	12.7873	36.685452	0.000274	2.735971	0.926972	0.000110
 323	3.2039e+01	12.8162	36.741972	0.000142	1.418652	0.480652	0.000057
 324	3.2139e+01	12.8676	36.935755	0.000486	4.863948	1.647950	0.000195
 325	3.2238e+01	12.8980	37.000349	0.000162	1.621316	0.549317	0.000065
 326	3.2337e+01	12.9478	37.101277	0.000253	2.533306	0.858307	0.000101
 327	3.2437e+01	12.9895	37.145686	0.000111	1.114655	0.377655	0.000045
 328	3.2536e+01	13.0167	37.274874	0.000324	3.242632	1.098634	0.000130
 329	3.2636e+01	13.0552	37.400025	0.000314	3.141300	1.064301	0.000126
 330	3.2736e+01	13.0970	37.444434	0.000111	1.114655	0.377655	0.000045
 331	3.2835e+01	13.1387	37.573622	0.000324	3.242632	1.098634	0.000130
 332	3.2934e+01	13.1788	37.646291	0.000182	1.823981	0.617981	0.000073
 333	3.3034e+01	13.2237	37.731071	0.000213	2.127977	0.720978	0.000085
 334	3.3133e+01	13.2606	37.876407	0.000365	3.647961	1.235963	0.000146
 335	3.3233e+01	13.2975	37.977336	0.000253	2.533306	0.858307	0.000101
 336	3.3333e+01	13.3472	38.078264	0.000253	2.533306	0.858307	0.000101
 337	3.3432e+01	13.3729	38.163044	0.000213	2.127977	0.720978	0.000085
 338	3.3532e+01	13.4178	38.243787	0.000203	2.026645	0.686646	0.000081
 339	3.3631e+01	13.4579	38.397198	0.000385	3.850626	1.304627	0.000154
 340	3.3730e+01	13.4948	38.486015	0.000223	2.229310	0.755311	0.000089
 341	3.3830e+01	13.5333	38.530423	0.000111	1.114655	0.377655	0.000045
 342	3.3929e+01	13.5830	38.651538	0.000304	3.039968	1.029969	0.000122
 343	3.4029e+01	13.6199	38.756503	0.000263	2.634639	0.892640	0.000105
 344	3.4129e+01	13.6520	38.881654	0.000314	3.141300	1.064301	0.000126
 345	3.4228e+01	13.6969	38.990657	0.000274	2.735971	0.926972	0.000110
 346	3.4328e+01	13.7386	39.071400	0.000203	2.026645	0.686646	0.000081
 347	3.4427e+01	13.7707	39.172328	0.000253	2.533306	0.858307	0.000101
 348	3.4526e+01	13.8108	39.281331	0.000274	2.735971	0.926972	0.000110
 349	3.4626e+01	13.8590	39.390333	0.000274	2.735971	0.926972	0.000110
 350	3.4725e+01	13.8991	39.483188	0.000233	2.330642	0.789643	0.000093
 351	3.4825e+01	13.9376	39.580079	0.000243	2.431974	0.823975	0.000097
 352	3.4925e+01	13.9825	39.701193	0.000304	3.039968	1.029969	0.000122
 353	3.5024e+01	14.0210	39.806158	0.000263	2.634639	0.892640	0.000105
 354	3.5123e+01	14.0499	39.899012	0.000233	2.330642	0.789643	0.000093
 355	3.5223e+01	14.0996	39.971681	0.000182	1.823981	0.617981	0.000073
 356	3.5322e+01	14.1333	40.092795	0.000304	3.039968	1.029969	0.000122
 357	3.5422e+01	14.1814	40.201798	0.000274	2.735971	0.926972	0.000110
 358	3.5522e+01	14.2151	40.294652	0.000233	2.330642	0.789643	0.000093
 359	3.5621e+01	14.2504	40.387506	0.000233	2.330642	0.789643	0.000093
 360	3.5721e+01	14.2953	40.492471	0.000263	2.634639	0.892640	0.000105
 361	3.5820e+01	14.3354	40.577251	0.000213	2.127977	0.720978	0.000085
 362	3.5919e+01	14.3691	40.738737	0.000405	4.053290	1.373292	0.000162
 363	3.6019e+01	14.4060	40.811405	0.000182	1.823981	0.617981	0.000073
 364	3.6118e+01	14.4509	40.896185	0.000213	2.127977	0.720978	0.000085
 365	3.6218e+01	14.4926	41.037485	0.000355	3.546629	1.201630	0.000142
 366	3.6318e+01	14.5247	41.130339	0.000233	2.330642	0.789643	0.000093
 367	3.6417e+01	14.5664	41.239342	0.000274	2.735971	0.926972	0.000110
 368	3.6517e+01	14.6178	41.344307	0.000263	2.634639	0.892640	0.000105
 369	3.6616e+01	14.6499	41.441198	0.000243	2.431974	0.823975	0.000097
 370	3.6715e+01	14.6964	41.554238	0.000284	2.837303	0.961304	0.000114
 371	3.6815e+01	14.7317	41.639018	0.000213	2.127977	0.720978	0.000085
 372	3.6914e+01	14.7702	41.768206	0.000324	3.242632	1.098634	0.000130
 373	3.7014e+01	14.8087	41.816652	0.000122	1.215987	0.411988	0.000049
 374	3.7114e+01	14.8536	41.953915	0.000345	3.445297	1.167298	0.000138
 375	3.7213e+01	14.8889	42.070992	0.000294	2.938635	0.995637	0.000118
 376	3.7313e+01	14.9402	42.139623	0.000172	1.722648	0.583649	0.000069
 377	3.7412e+01	14.9835	42.236514	0.000243	2.431974	0.823975	0.000097
 378	3.7511e+01	15.0124	42.333405	0.000243	2.431974	0.823975	0.000097
 379	3.7611e+01	15.0605	42.454519	0.000304	3.039968	1.029969	0.000122
 380	3.7711e+01	15.0766	42.559485	0.000263	2.634639	0.892640	0.000105
 381	3.7810e+01	15.1295	42.692710	0.000334	3.343965	1.132966	0.000134
 382	3.7910e+01	15.1760	42.789602	0.000243	2.431974	0.823975	0.000097
 383	3.8009e+01	15.2113	42.850159	0.000152	1.519984	0.514984	0.000061
 384	3.8108e+01	15.2579	42.971273	0.000304	3.039968	1.029969	0.000122
 385	3.8208e+01	15.2883	43.072201	0.000253	2.533306	0.858307	0.000101
 386	3.8307e+01	15.3252	43.221575	0.000375	3.749294	1.270295	0.000150
 387	3.8407e+01	15.3750	43.270021	0.000122	1.215987	0.411988	0.000049
 388	3.8507e+01	15.4103	43.387098	0.000294	2.938635	0.995637	0.000118
 389	3.8606e+01	15.4552	43.479952	0.000233	2.330642	0.789643	0.000093
 390	3.8706e+01	15.4873	43.576843	0.000243	2.431974	0.823975	0.000097
 391	3.8805e+01	15.5338	43.710069	0.000334	3.343965	1.132966	0.000134
 392	3.8904e+01	15.5707	43.778700	0.000172	1.722648	0.583649	0.000069
 393	3.9004e+01	15.5980	43.903851	0.000314	3.141300	1.064301	0.000126
 394	3.9103e+01	15.6477	43.992668	0.000223	2.229310	0.755311	0.000089
 395	3.9203e+01	15.6830	44.105708	0.000284	2.837303	0.961304	0.000114
 396	3.9303e+01	15.7311	44.198562	0.000233	2.330642	0.789643	0.000093
 397	3.9402e+01	15.7680	44.331788	0.000334	3.343965	1.132966	0.000134
 398	3.9502e+01	15.8065	44.436753	0.000263	2.634639	0.892640	0.000105
 399	3.9601e+01	15.8530	44.505384	0.000172	1.722648	0.583649	0.000069
 400	3.9700e+01	15.8867	44.606313	0.000253	2.533306	0.858307	0.000101
 401	3.9800e+01	15.9284	44.699167	0.000233	2.330642	0.789643	0.000093
 402	3.9900e+01	15.9701	44.796058	0.000243	2.431974	0.823975	0.000097
 403	3.9999e+01	16.0102	44.909098	0.000284	2.837303	0.961304	0.000114
 404	4.0099e+01	16.0520	45.054435	0.000365	3.647961	1.235963	0.000146
 405	4.0198e+01	16.0889	45.106918	0.000132	1.317319	0.446320	0.000053
 406	4.0297e+01	16.1177	45.207846	0.000253	2.533306	0.858307	0.000101
 407	4.0397e+01	16.1691	45.308774	0.000253	2.533306	0.858307	0.000101
 408	4.0496e+01	16.2092	45.442000	0.000334	3.343965	1.132966	0.000134
 409	4.0596e+01	16.2461	45.482371	0.000101	1.013323	0.343323	0.000041
 410	4.0696e+01	16.2942	45.599448	0.000294	2.938635	0.995637	0.000118
 411	4.0795e+01	16.3295	45.736711	0.000345	3.445297	1.167298	0.000138
 412	4.0895e+01	16.3664	45.817453	0.000203	2.026645	0.686646	0.000081
 413	4.0994e+01	16.4065	45.926456	0.000274	2.735971	0.926972	0.000110
 414	4.1093e+01	16.4498	46.047570	0.000304	3.039968	1.029969	0.000122
 415	4.1193e+01	16.4819	46.140424	0.000233	2.330642	0.789643	0.000093
 416	4.1292e+01	16.5252	46.261538	0.000304	3.039968	1.029969	0.000122
 417	4.1392e+01	16.5685	46.350355	0.000223	2.229310	0.755311	0.000089
 418	4.1492e+01	16.6070	46.479544	0.000324	3.242632	1.098634	0.000130
 419	4.1591e+01	16.6343	46.576435	0.000243	2.431974	0.823975	0.000097
 420	4.1691e+01	16.6856	46.645066	0.000172	1.722648	0.583649	0.000069
 421	4.1790e+01	16.7241	46.762143	0.000294	2.938635	0.995637	0.000118
 422	4.1889e+01	16.7674	46.867109	0.000263	2.634639	0.892640	0.000105
 423	4.1989e+01	16.8140	46.980149	0.000284	2.837303	0.961304	0.000114
 424	4.2089e+01	16.8509	47.097226	0.000294	2.938635	0.995637	0.000118
 425	4.2188e+01	16.8894	47.222377	0.000314	3.141300	1.064301	0.000126
 426	4.2288e+01	16.9166	47.254674	0.000081	0.810658	0.274658	0.000032
 427	4.2387e+01	16.9583	47.375788	0.000304	3.039968	1.029969	0.000122
 428	4.2486e+01	17.0161	47.448456	0.000182	1.823981	0.617981	0.000073
 429	4.2586e+01	17.0450	47.569570	0.000304	3.039968	1.029969	0.000122
 430	4.2685e+01	17.0819	47.686647	0.000294	2.938635	0.995637	0.000118
 431	4.2785e+01	17.1236	47.763353	0.000193	1.925313	0.652314	0.000077
 432	4.2885e+01	17.1637	47.884467	0.000304	3.039968	1.029969	0.000122
 433	4.2984e+01	17.2006	47.981358	0.000243	2.431974	0.823975	0.000097
 434	4.3084e+01	17.2423	48.098435	0.000294	2.938635	0.995637	0.000118
 435	4.3183e+01	17.2792	48.171104	0.000182	1.823981	0.617981	0.000073
 436	4.3282e+01	17.3273	48.267995	0.000243	2.431974	0.823975	0.000097
 437	4.3382e+01	17.3706	48.336626	0.000172	1.722648	0.583649	0.000069
 438	4.3481e+01	17.4091	48.449666	0.000284	2.837303	0.961304	0.000114
 439	4.3581e+01	17.4396	48.538483	0.000223	2.229310	0.755311	0.000089
 440	4.3681e+01	17.4877	48.659597	0.000304	3.039968	1.029969	0.000122
 441	4.3780e+01	17.5327	48.776674	0.000294	2.938635	0.995637	0.000118
 442	4.3880e+01	17.5599	48.821082	0.000111	1.114655	0.377655	0.000045
 443	4.3979e+01	17.6081	48.938159	0.000294	2.938635	0.995637	0.000118
 444	4.4078e+01	17.6401	49.010828	0.000182	1.823981	0.617981	0.000073
 445	4.4178e+01	17.6802	49.156165	0.000365	3.647961	1.235963	0.000146
 446	4.4278e+01	17.7155	49.232870	0.000193	1.925313	0.652314	0.000077
 447	4.4377e+01	17.7653	49.313613	0.000203	2.026645	0.686646	0.000081
 448	4.4477e+01	17.8006	49.434727	0.000304	3.039968	1.029969	0.000122
 449	4.4576e+01	17.8439	49.471061	0.000091	0.911990	0.308991	0.000037
 450	4.4675e+01	17.8904	49.576027	0.000263	2.634639	0.892640	0.000105
 451	4.4775e+01	17.9241	49.693104	0.000294	2.938635	0.995637	0.000118
 452	4.4874e+01	17.9610	49.773847	0.000203	2.026645	0.686646	0.000081
 453	4.4974e+01	17.9947	49.854589	0.000203	2.026645	0.686646	0.000081
 454	4.5074e+01	18.0412	49.995889	0.000355	3.546629	1.201630	0.000142
 455	4.5173e+01	18.0861	50.084706	0.000223	2.229310	0.755311	0.000089
 456	4.5273e+01	18.1198	50.177560	0.000233	2.330642	0.789643	0.000093
 457	4.5372e+01	18.1615	50.266377	0.000223	2.229310	0.755311	0.000089
 458	4.5471e+01	18.2000	50.359231	0.000233	2.330642	0.789643	0.000093
 459	4.5571e+01	18.2433	50.464197	0.000263	2.634639	0.892640	0.000105
 460	4.5670e+01	18.2834	50.532828	0.000172	1.722648	0.583649	0.000069
 461	4.5770e+01	18.3187	50.694313	0.000405	4.053290	1.373292	0.000162
 462	4.5870e+01	18.3556	50.706425	0.000030	0.303997	0.102997	0.000012
 463	4.5969e+01	18.4022	50.843687	0.000345	3.445297	1.167298	0.000138
 464	4.6069e+01	18.4407	50.920393	0.000193	1.925313	0.652314	0.000077
 465	4.6168e+01	18.4792	51.005173	0.000213	2.127977	0.720978	0.000085
 466	4.6267e+01	18.5209	51.093990	0.000223	2.229310	0.755311	0.000089
 467	4.6367e+01	18.5578	51.178770	0.000213	2.127977	0.720978	0.000085
 468	4.6467e+01	18.5898	51.287772	0.000274	2.735971	0.926972	0.000110
 469	4.6566e+01	18.6332	51.368515	0.000203	2.026645	0.686646	0.000081
 470	4.6666e+01	18.6813	51.477518	0.000274	2.735971	0.926972	0.000110
 471	4.6765e+01	18.7246	51.602669	0.000314	3.141300	1.064301	0.000126
 472	4.6864e+01	18.7631	51.651115	0.000122	1.215987	0.411988	0.000049
 473	4.6964e+01	18.7984	51.764154	0.000284	2.837303	0.961304	0.000114
 474	4.7063e+01	18.8369	51.836823	0.000182	1.823981	0.617981	0.000073
 475	4.7163e+01	18.8786	51.937751	0.000253	2.533306	0.858307	0.000101
 476	4.7263e+01	18.9107	52.030605	0.000233	2.330642	0.789643	0.000093
 477	4.7362e+01	18.9524	52.103274	0.000182	1.823981	0.617981	0.000073
 478	4.7462e+01	18.9957	52.200165	0.000243	2.431974	0.823975	0.000097
 479	4.7561e+01	19.0390	52.305131	0.000263	2.634639	0.892640	0.000105
 480	4.7660e+01	19.0807	52.406059	0.000253	2.533306	0.858307	0.000101
 481	4.7760e+01	19.1128	52.482765	0.000193	1.925313	0.652314	0.000077
 482	4.7859e+01	19.1561	52.603879	0.000304	3.039968	1.029969	0.000122
 483	4.7959e+01	19.1930	52.688659	0.000213	2.127977	0.720978	0.000085
 484	4.8059e+01	19.2428	52.789587	0.000253	2.533306	0.858307	0.000101
 485	4.8158e+01	19.2797	52.846107	0.000142	1.418652	0.480652	0.000057
 486	4.8258e+01	19.3198	52.930887	0.000213	2.127977	0.720978	0.000085
 487	4.8357e+01	19.3487	53.047964	0.000294	2.938635	0.995637	0.000118
 488	4.8456e+01	19.3984	53.136781	0.000223	2.229310	0.755311	0.000089
 489	4.8556e+01	19.4273	53.213486	0.000193	1.925313	0.652314	0.000077
 490	4.8656e+01	19.4754	53.302303	0.000223	2.229310	0.755311	0.000089
 491	4.8755e+01	19.5187	53.379009	0.000193	1.925313	0.652314	0.000077
 492	4.8855e+01	19.5556	53.496086	0.000294	2.938635	0.995637	0.000118
 493	4.8954e+01	19.6021	53.576828	0.000203	2.026645	0.686646	0.000081
 494	4.9053e+01	19.6294	53.637385	0.000152	1.519984	0.514984	0.000061
 495	4.9153e+01	19.6743	53.726202	0.000223	2.229310	0.755311	0.000089
 496	4.9252e+01	19.7096	53.827131	0.000253	2.533306	0.858307	0.000101
 497	4.9352e+01	19.7513	53.899799	0.000182	1.823981	0.617981	0.000073
 498	4.9452e+01	19.8026	53.980542	0.000203	2.026645	0.686646	0.000081
 499	4.9551e+01	19.8363	54.097619	0.000294	2.938635	0.995637	0.000118
 500	4.9651e+01	19.8620	54.194510	0.000243	2.431974	0.823975	0.000097
 501	4.9750e+01	19.9085	54.271216	0.000193	1.925313	0.652314	0.000077
 502	4.9849e+01	19.9438	54.368107	0.000243	2.431974	0.823975	0.000097
 503	4.9949e+01	19.9919	54.440775	0.000182	1.823981	0.617981	0.000073
 504	5.0048e+01	19.9551	54.355996	0.000213	2.127977	0.720978	-0.000085
 505	5.0148e+01	19.9101	54.347921	0.000020	0.202665	0.068665	-0.000008
 506	5.0248e+01	19.8684	54.214696	0.000334	3.343965	1.132966	-0.000134
 507	5.0347e+01	19.8331	54.133953	0.000203	2.026645	0.686646	-0.000081
 508	5.0447e+01	19.7930	54.073396	0.000152	1.519984	0.514984	-0.000061
 509	5.0546e+01	19.7561	53.980542	0.000233	2.330642	0.789643	-0.000093
 510	5.0645e+01	19.7128	53.932096	0.000122	1.215987	0.411988	-0.000049
 511	5.0745e+01	19.6823	53.839242	0.000233	2.330642	0.789643	-0.000093
 512	5.0844e+01	19.6294	53.774648	0.000162	1.621316	0.549317	-0.000065
 513	5.0944e+01	19.5877	53.665645	0.000274	2.735971	0.926972	-0.000110
 514	5.1044e+01	19.5492	53.592977	0.000182	1.823981	0.617981	-0.000073
 515	5.1143e+01	19.5187	53.528383	0.000162	1.621316	0.549317	-0.000065
 516	5.1242e+01	19.4722	53.431491	0.000243	2.431974	0.823975	-0.000097
 517	5.1342e+01	19.4353	53.387083	0.000111	1.114655	0.377655	-0.000045
 518	5.1441e+01	19.3952	53.282117	0.000263	2.634639	0.892640	-0.000105
 519	5.1541e+01	19.3599	53.237709	0.000111	1.114655	0.377655	-0.000045
 520	5.1641e+01	19.3150	53.116595	0.000304	3.039968	1.029969	-0.000122
 521	5.1740e+01	19.2781	53.056038	0.000152	1.519984	0.514984	-0.000061
 522	5.1840e+01	19.2380	52.999518	0.000142	1.418652	0.480652	-0.000057
 523	5.1939e+01	19.1930	52.886478	0.000284	2.837303	0.961304	-0.000114
 524	5.2038e+01	19.1545	52.833995	0.000132	1.317319	0.446320	-0.000053
 525	5.2138e+01	19.1144	52.757290	0.000193	1.925313	0.652314	-0.000077
 526	5.2237e+01	19.0727	52.668473	0.000223	2.229310	0.755311	-0.000089
 527	5.2337e+01	19.0246	52.579656	0.000223	2.229310	0.755311	-0.000089
 528	5.2437e+01	19.0021	52.531210	0.000122	1.215987	0.411988	-0.000049
 529	5.2536e+01	18.9524	52.410096	0.000304	3.039968	1.029969	-0.000122
 530	5.2636e+01	18.9171	52.357613	0.000132	1.317319	0.446320	-0.000053
 531	5.2735e+01	18.8738	52.260722	0.000243	2.431974	0.823975	-0.000097
 532	5.2834e+01	18.8353	52.184017	0.000193	1.925313	0.652314	-0.000077
 533	5.2934e+01	18.8016	52.087125	0.000243	2.431974	0.823975	-0.000097
 534	5.3033e+01	18.7535	52.030605	0.000142	1.418652	0.480652	-0.000057
 535	5.3133e+01	18.7246	51.933714	0.000243	2.431974	0.823975	-0.000097
 536	5.3233e+01	18.6829	51.852971	0.000203	2.026645	0.686646	-0.000081
 537	5.3332e+01	18.6300	51.776266	0.000193	1.925313	0.652314	-0.000077
 538	5.3431e+01	18.5995	51.756080	0.000051	0.506661	0.171661	-0.000020
 539	5.3531e+01	18.5674	51.618818	0.000345	3.445297	1.167298	-0.000138
 540	5.3630e+01	18.5209	51.582483	0.000091	0.911990	0.308991	-0.000037
 541	5.3730e+01	18.4743	51.477518	0.000263	2.634639	0.892640	-0.000105
 542	5.3830e+01	18.4487	51.412924	0.000162	1.621316	0.549317	-0.000065
 543	5.3929e+01	18.4086	51.328144	0.000213	2.127977	0.720978	-0.000085
 544	5.4029e+01	18.3556	51.247401	0.000203	2.026645	0.686646	-0.000081
 545	5.4128e+01	18.3043	51.198955	0.000122	1.215987	0.411988	-0.000049
 546	5.4227e+01	18.2802	51.065730	0.000334	3.343965	1.132966	-0.000134
 547	5.4327e+01	18.2449	51.009210	0.000142	1.418652	0.480652	-0.000057
 548	5.4426e+01	18.2016	50.896170	0.000284	2.837303	0.961304	-0.000114
 549	5.4526e+01	18.1615	50.855799	0.000101	1.013323	0.343323	-0.000041
 550	5.4626e+01	18.1262	50.742759	0.000284	2.837303	0.961304	-0.000114
 551	5.4725e+01	18.0813	50.682202	0.000152	1.519984	0.514984	-0.000061
 552	5.4825e+01	18.0348	50.597422	0.000213	2.127977	0.720978	-0.000085
 553	5.4924e+01	17.9995	50.504568	0.000233	2.330642	0.789643	-0.000093
 554	5.5023e+01	17.9514	50.411714	0.000233	2.330642	0.789643	-0.000093
 555	5.5123e+01	17.9193	50.355194	0.000142	1.418652	0.480652	-0.000057
 556	5.5222e+01	17.8695	50.262340	0.000233	2.330642	0.789643	-0.000093
 557	5.5322e+01	17.8423	50.169486	0.000233	2.330642	0.789643	-0.000093
 558	5.5422e+01	17.8038	50.084706	0.000213	2.127977	0.720978	-0.000085
 559	5.5521e+01	17.7556	50.028186	0.000142	1.418652	0.480652	-0.000057
 560	5.5620e+01	17.7236	49.931295	0.000243	2.431974	0.823975	-0.000097
 561	5.5720e+01	17.6786	49.826329	0.000263	2.634639	0.892640	-0.000105
 562	5.5819e+01	17.6417	49.777884	0.000122	1.215987	0.411988	-0.000049
 563	5.5919e+01	17.5984	49.676955	0.000253	2.533306	0.858307	-0.000101
 564	5.6019e+01	17.5615	49.624472	0.000132	1.317319	0.446320	-0.000053
 565	5.6118e+01	17.5230	49.523544	0.000253	2.533306	0.858307	-0.000101
 566	5.6218e+01	17.4893	49.450876	0.000182	1.823981	0.617981	-0.000073
 567	5.6317e+01	17.4508	49.345910	0.000263	2.634639	0.892640	-0.000105
 568	5.6416e+01	17.3979	49.289390	0.000142	1.418652	0.480652	-0.000057
 569	5.6516e+01	17.3594	49.180388	0.000274	2.735971	0.926972	-0.000110
 570	5.6615e+01	17.3177	49.095608	0.000213	2.127977	0.720978	-0.000085
 571	5.6715e+01	17.2872	49.018902	0.000193	1.925313	0.652314	-0.000077
 572	5.6815e+01	17.2439	48.950271	0.000172	1.722648	0.583649	-0.000069
 573	5.6914e+01	17.1958	48.897788	0.000132	1.317319	0.446320	-0.000053
 574	5.7014e+01	17.1685	48.792823	0.000263	2.634639	0.892640	-0.000105
 575	5.7113e+01	17.1284	48.708043	0.000213	2.127977	0.720978	-0.000085
 576	5.7212e+01	17.0819	48.623263	0.000213	2.127977	0.720978	-0.000085
 577	5.7312e+01	17.0466	48.518297	0.000263	2.634639	0.892640	-0.000105
 578	5.7411e+01	17.0033	48.469852	0.000122	1.215987	0.411988	-0.000049
 579	5.7511e+01	16.9583	48.332589	0.000345	3.445297	1.167298	-0.000138
 580	5.7611e+01	16.9247	48.304329	0.000071	0.709326	0.240326	-0.000028
 581	5.7710e+01	16.8749	48.195326	0.000274	2.735971	0.926972	-0.000110
 582	5.7809e+01	16.8460	48.134769	0.000152	1.519984	0.514984	-0.000061
 583	5.7909e+01	16.8043	48.049990	0.000213	2.127977	0.720978	-0.000085
 584	5.8008e+01	16.7690	47.981358	0.000172	1.722648	0.583649	-0.000069
 585	5.8108e+01	16.7193	47.872356	0.000274	2.735971	0.926972	-0.000110
 586	5.8208e+01	16.6856	47.783539	0.000223	2.229310	0.755311	-0.000089
 587	5.8307e+01	16.6487	47.727019	0.000142	1.418652	0.480652	-0.000057
 588	5.8407e+01	16.6006	47.650313	0.000193	1.925313	0.652314	-0.000077
 589	5.8506e+01	16.5669	47.545348	0.000263	2.634639	0.892640	-0.000105
 590	5.8605e+01	16.5188	47.480753	0.000162	1.621316	0.549317	-0.000065
 591	5.8705e+01	16.4915	47.404048	0.000193	1.925313	0.652314	-0.000077
 592	5.8804e+01	16.4450	47.327342	0.000193	1.925313	0.652314	-0.000077
 593	5.8904e+01	16.4225	47.246600	0.000203	2.026645	0.686646	-0.000081
 594	5.9004e+01	16.3696	47.157783	0.000223	2.229310	0.755311	-0.000089
 595	5.9103e+01	16.3295	47.073003	0.000213	2.127977	0.720978	-0.000085
 596	5.9203e+01	16.2910	46.955926	0.000294	2.938635	0.995637	-0.000118
 597	5.9302e+01	16.2493	46.883257	0.000182	1.823981	0.617981	-0.000073
 598	5.9401e+01	16.2124	46.766180	0.000294	2.938635	0.995637	-0.000118
 599	5.9501e+01	16.1723	46.725809	0.000101	1.013323	0.343323	-0.000041
 600	5.9600e+01	16.1193	46.641029	0.000213	2.127977	0.720978	-0.000085
 601	5.9700e+01	16.0856	46.548175	0.000233	2.330642	0.789643	-0.000093
 602	5.9800e+01	16.0503	46.459358	0.000223	2.229310	0.755311	-0.000089
 603	5.9899e+01	16.0054	46.382652	0.000193	1.925313	0.652314	-0.000077
 604	5.9998e+01	15.9637	46.273650	0.000274	2.735971	0.926972	-0.000110
 605	6.0098e+01	15.9316	46.168684	0.000263	2.634639	0.892640	-0.000105
 606	6.0197e+01	15.8899	46.087942	0.000203	2.026645	0.686646	-0.000081
 607	6.0297e+01	15.8514	45.987013	0.000253	2.533306	0.858307	-0.000101
 608	6.0397e+01	15.8113	45.914345	0.000182	1.823981	0.617981	-0.000073
 609	6.0496e+01	15.7760	45.825528	0.000223	2.229310	0.755311	-0.000089
 610	6.0596e+01	15.7295	45.712488	0.000284	2.837303	0.961304	-0.000114
 611	6.0695e+01	15.6798	45.643857	0.000172	1.722648	0.583649	-0.000069
 612	6.0794e+01	15.6541	45.583300	0.000152	1.519984	0.514984	-0.000061
 613	6.0894e+01	15.6092	45.433926	0.000375	3.749294	1.270295	-0.000150
 614	6.0993e+01	15.5707	45.397591	0.000091	0.911990	0.308991	-0.000037
 615	6.1093e+01	15.5322	45.300700	0.000243	2.431974	0.823975	-0.000097
 616	6.1193e+01	15.4889	45.219957	0.000203	2.026645	0.686646	-0.000081
 617	6.1292e+01	15.4504	45.114992	0.000263	2.634639	0.892640	-0.000105
 618	6.1392e+01	15.4038	45.046361	0.000172	1.722648	0.583649	-0.000069
 619	6.1491e+01	15.3669	44.921209	0.000314	3.141300	1.064301	-0.000126
 620	6.1590e+01	15.3397	44.852578	0.000172	1.722648	0.583649	-0.000069
 621	6.1690e+01	15.2883	44.739538	0.000284	2.837303	0.961304	-0.000114
 622	6.1789e+01	15.2482	44.691093	0.000122	1.215987	0.411988	-0.000049
 623	6.1889e+01	15.2081	44.565941	0.000314	3.141300	1.064301	-0.000126
 624	6.1989e+01	15.1680	44.465013	0.000253	2.533306	0.858307	-0.000101
 625	6.2088e+01	15.1279	44.368122	0.000243	2.431974	0.823975	-0.000097
 626	6.2188e+01	15.0942	44.307565	0.000152	1.519984	0.514984	-0.000061
 627	6.2287e+01	15.0541	44.186451	0.000304	3.039968	1.029969	-0.000122
 628	6.2386e+01	15.0140	44.105708	0.000203	2.026645	0.686646	-0.000081
 629	6.2486e+01	14.9627	44.016891	0.000223	2.229310	0.755311	-0.000089
 630	6.2586e+01	14.9322	43.903851	0.000284	2.837303	0.961304	-0.000114
 631	6.2685e+01	14.8857	43.839257	0.000162	1.621316	0.549317	-0.000065
 632	6.2785e+01	14.8472	43.734291	0.000263	2.634639	0.892640	-0.000105
 633	6.2884e+01	14.8103	43.669697	0.000162	1.621316	0.549317	-0.000065
 634	6.2983e+01	14.7798	43.568769	0.000253	2.533306	0.858307	-0.000101
 635	6.3083e+01	14.7349	43.483989	0.000213	2.127977	0.720978	-0.000085
 636	6.3182e+01	14.7060	43.346726	0.000345	3.445297	1.167298	-0.000138
 637	6.3282e+01	14.6547	43.229649	0.000294	2.938635	0.995637	-0.000118
 638	6.3382e+01	14.6178	43.148907	0.000203	2.026645	0.686646	-0.000081
 639	6.3481e+01	14.5745	43.092387	0.000142	1.418652	0.480652	-0.000057
 640	6.3581e+01	14.5360	42.995496	0.000243	2.431974	0.823975	-0.000097
 641	6.3680e+01	14.4894	42.862270	0.000334	3.343965	1.132966	-0.000134
 642	6.3779e+01	14.4509	42.793639	0.000172	1.722648	0.583649	-0.000069
 643	6.3879e+01	14.4124	42.708859	0.000213	2.127977	0.720978	-0.000085
 644	6.3978e+01	14.3771	42.620042	0.000223	2.229310	0.755311	-0.000089
 645	6.4078e+01	14.3290	42.511039	0.000274	2.735971	0.926972	-0.000110
 646	6.4177e+01	14.2953	42.434334	0.000193	1.925313	0.652314	-0.000077
 647	6.4277e+01	14.2632	42.264774	0.000426	4.255955	1.441957	-0.000170
 648	6.4376e+01	14.2135	42.244588	0.000051	0.506661	0.171661	-0.000020
 649	6.4476e+01	14.1782	42.147697	0.000243	2.431974	0.823975	-0.000097
 650	6.4576e+01	14.1397	42.022546	0.000314	3.141300	1.064301	-0.000126
 651	6.4675e+01	14.0980	41.933729	0.000223	2.229310	0.755311	-0.000089
 652	6.4775e+01	14.0547	41.832801	0.000253	2.533306	0.858307	-0.000101
 653	6.4874e+01	14.0162	41.760132	0.000182	1.823981	0.617981	-0.000073
 654	6.4974e+01	13.9729	41.659204	0.000253	2.533306	0.858307	-0.000101
 655	6.5073e+01	13.9328	41.558275	0.000253	2.533306	0.858307	-0.000101
 656	6.5172e+01	13.8991	41.461384	0.000243	2.431974	0.823975	-0.000097
 657	6.5272e+01	13.8542	41.360456	0.000253	2.533306	0.858307	-0.000101
 658	6.5371e+01	13.8205	41.247416	0.000284	2.837303	0.961304	-0.000114
 659	6.5471e+01	13.7707	41.194933	0.000132	1.317319	0.446320	-0.000053
 660	6.5570e+01	13.7354	41.089968	0.000263	2.634639	0.892640	-0.000105
 661	6.5670e+01	13.6969	40.993076	0.000243	2.431974	0.823975	-0.000097
 662	6.5769e+01	13.6504	40.839665	0.000385	3.850626	1.304627	-0.000154
 663	6.5869e+01	13.6135	40.775071	0.000162	1.621316	0.549317	-0.000065
 664	6.5969e+01	13.5814	40.657994	0.000294	2.938635	0.995637	-0.000118
 665	6.6068e+01	13.5445	40.569177	0.000223	2.229310	0.755311	-0.000089
 666	6.6168e+01	13.5044	40.439989	0.000324	3.242632	1.098634	-0.000130
 667	6.6267e+01	13.4515	40.355209	0.000213	2.127977	0.720978	-0.000085
 668	6.6367e+01	13.4210	40.286578	0.000172	1.722648	0.583649	-0.000069
 669	6.6466e+01	13.3793	40.189686	0.000243	2.431974	0.823975	-0.000097
 670	6.6566e+01	13.3408	40.068572	0.000304	3.039968	1.029969	-0.000122
 671	6.6665e+01	13.3007	39.971681	0.000243	2.431974	0.823975	-0.000097
 672	6.6764e+01	13.2638	39.846530	0.000314	3.141300	1.064301	-0.000126
 673	6.6864e+01	13.2109	39.765787	0.000203	2.026645	0.686646	-0.000081
 674	6.6963e+01	13.1772	39.652747	0.000284	2.837303	0.961304	-0.000114
 675	6.7063e+01	13.1355	39.580079	0.000182	1.823981	0.617981	-0.000073
 676	6.7162e+01	13.1002	39.458965	0.000304	3.039968	1.029969	-0.000122
 677	6.7262e+01	13.0536	39.337851	0.000304	3.039968	1.029969	-0.000122
 678	6.7362e+01	13.0232	39.249034	0.000223	2.229310	0.755311	-0.000089
 679	6.7461e+01	12.9831	39.152142	0.000243	2.431974	0.823975	-0.000097
 680	6.7561e+01	12.9397	39.026991	0.000314	3.141300	1.064301	-0.000126
 681	6.7660e+01	12.8964	38.946248	0.000203	2.026645	0.686646	-0.000081
 682	6.7760e+01	12.8659	38.849357	0.000243	2.431974	0.823975	-0.000097
 683	6.7859e+01	12.8258	38.776689	0.000182	1.823981	0.617981	-0.000073
 684	6.7959e+01	12.7857	38.651538	0.000314	3.141300	1.064301	-0.000126
 685	6.8058e+01	12.7312	38.603092	0.000122	1.215987	0.411988	-0.000049
 686	6.8157e+01	12.7007	38.506201	0.000243	2.431974	0.823975	-0.000097
 687	6.8257e+01	12.6654	38.377012	0.000324	3.242632	1.098634	-0.000130
 688	6.8356e+01	12.6189	38.288195	0.000223	2.229310	0.755311	-0.000089
 689	6.8456e+01	12.5820	38.207453	0.000203	2.026645	0.686646	-0.000081
 690	6.8555e+01	12.5499	38.102487	0.000263	2.634639	0.892640	-0.000105
 691	6.8655e+01	12.5018	37.993484	0.000274	2.735971	0.926972	-0.000110
 692	6.8754e+01	12.4617	37.872370	0.000304	3.039968	1.029969	-0.000122
 693	6.8854e+01	12.4248	37.799702	0.000182	1.823981	0.617981	-0.000073
 694	6.8954e+01	12.3879	37.718959	0.000203	2.026645	0.686646	-0.000081
 695	6.9053e+01	12.3510	37.630142	0.000223	2.229310	0.755311	-0.000089
 696	6.9153e+01	12.2980	37.480768	0.000375	3.749294	1.270295	-0.000150
 697	6.9252e+01	12.2660	37.408100	0.000182	1.823981	0.617981	-0.000073
 698	6.9352e+01	12.2226	37.295060	0.000284	2.837303	0.961304	-0.000114
 699	6.9451e+01	12.1906	37.206243	0.000223	2.229310	0.755311	-0.000089
 700	6.9550e+01	12.1408	37.129537	0.000193	1.925313	0.652314	-0.000077
 701	6.9650e+01	12.1007	37.016498	0.000284	2.837303	0.961304	-0.000114
 702	6.9749e+01	12.0670	36.923643	0.000233	2.330642	0.789643	-0.000093
 703	6.9849e+01	12.0253	36.830789	0.000233	2.330642	0.789643	-0.000093
 704	6.9948e+01	11.9884	36.758121	0.000182	1.823981	0.617981	-0.000073
 705	7.0048e+01	11.9355	36.645081	0.000284	2.837303	0.961304	-0.000114
 706	7.0147e+01	11.9050	36.515893	0.000324	3.242632	1.098634	-0.000130
 707	7.0247e+01	11.8697	36.463410	0.000132	1.317319	0.446320	-0.000053
 708	7.0347e+01	11.8200	36.309999	0.000385	3.850626	1.304627	-0.000154
 709	7.0446e+01	11.7831	36.225219	0.000213	2.127977	0.720978	-0.000085
 710	7.0546e+01	11.7494	36.152551	0.000182	1.823981	0.617981	-0.000073
 711	7.0645e+01	11.7045	36.035474	0.000294	2.938635	0.995637	-0.000118
 712	7.0745e+01	11.6660	35.950694	0.000213	2.127977	0.720978	-0.000085
 713	7.0844e+01	11.6243	35.805357	0.000365	3.647961	1.235963	-0.000146
 714	7.0944e+01	11.5810	35.732688	0.000182	1.823981	0.617981	-0.000073
 715	7.1043e+01	11.5441	35.639834	0.000233	2.330642	0.789643	-0.000093
 716	7.1142e+01	11.4991	35.559092	0.000203	2.026645	0.686646	-0.000081
 717	7.1242e+01	11.4638	35.425866	0.000334	3.343965	1.132966	-0.000134
 718	7.1341e+01	11.4302	35.357235	0.000172	1.722648	0.583649	-0.000069
 719	7.1441e+01	11.3852	35.244195	0.000284	2.837303	0.961304	-0.000114
 720	7.1540e+01	11.3467	35.147304	0.000243	2.431974	0.823975	-0.000097
 721	7.1640e+01	11.3163	35.046375	0.000253	2.533306	0.858307	-0.000101
 722	7.1740e+01	11.2665	34.953521	0.000233	2.330642	0.789643	-0.000093
 723	7.1839e+01	11.2312	34.828370	0.000314	3.141300	1.064301	-0.000126
 724	7.1939e+01	11.1863	34.759739	0.000172	1.722648	0.583649	-0.000069
 725	7.2038e+01	11.1526	34.630550	0.000324	3.242632	1.098634	-0.000130
 726	7.2138e+01	11.1061	34.529622	0.000253	2.533306	0.858307	-0.000101
 727	7.2237e+01	11.0724	34.424656	0.000263	2.634639	0.892640	-0.000105
 728	7.2337e+01	11.0307	34.351988	0.000182	1.823981	0.617981	-0.000073
 729	7.2436e+01	10.9810	34.251060	0.000253	2.533306	0.858307	-0.000101
 730	7.2535e+01	10.9553	34.186465	0.000162	1.621316	0.549317	-0.000065
 731	7.2635e+01	10.9072	34.049203	0.000345	3.445297	1.167298	-0.000138
 732	7.2734e+01	10.8719	33.936163	0.000284	2.837303	0.961304	-0.000114
 733	7.2834e+01	10.8286	33.843309	0.000233	2.330642	0.789643	-0.000093
 734	7.2933e+01	10.7901	33.762566	0.000203	2.026645	0.686646	-0.000081
 735	7.3033e+01	10.7419	33.641452	0.000304	3.039968	1.029969	-0.000122
 736	7.3132e+01	10.7147	33.572821	0.000172	1.722648	0.583649	-0.000069
 737	7.3232e+01	10.6681	33.439595	0.000334	3.343965	1.132966	-0.000134
 738	7.3332e+01	10.6264	33.338667	0.000253	2.533306	0.858307	-0.000101
 739	7.3431e+01	10.5911	33.245813	0.000233	2.330642	0.789643	-0.000093
 740	7.3531e+01	10.5510	33.144884	0.000253	2.533306	0.858307	-0.000101
 741	7.3630e+01	10.5157	33.092402	0.000132	1.317319	0.446320	-0.000053
 742	7.3730e+01	10.4676	32.971288	0.000304	3.039968	1.029969	-0.000122
 743	7.3829e+01	10.4291	32.854211	0.000294	2.938635	0.995637	-0.000118
 744	7.3928e+01	10.3890	32.769431	0.000213	2.127977	0.720978	-0.000085
 745	7.4028e+01	10.3441	32.656391	0.000284	2.837303	0.961304	-0.000114
 746	7.4127e+01	10.3152	32.543351	0.000284	2.837303	0.961304	-0.000114
 747	7.4227e+01	10.2687	32.470683	0.000182	1.823981	0.617981	-0.000073
 748	7.4326e+01	10.2302	32.377829	0.000233	2.330642	0.789643	-0.000093
 749	7.4426e+01	10.1917	32.228455	0.000375	3.749294	1.270295	-0.000150
 750	7.4525e+01	10.1548	32.192120	0.000091	0.911990	0.308991	-0.000037
 751	7.4625e+01	10.1067	32.099266	0.000233	2.330642	0.789643	-0.000093
 752	7.4725e+01	10.0730	31.966041	0.000334	3.343965	1.132966	-0.000134
 753	7.4824e+01	10.0393	31.873187	0.000233	2.330642	0.789643	-0.000093
 754	7.4924e+01	9.9960	31.764184	0.000274	2.735971	0.926972	-0.000110
 755	7.5023e+01	9.9575	31.695553	0.000172	1.722648	0.583649	-0.000069
 756	7.5123e+01	9.9110	31.538104	0.000395	3.951958	1.338960	-0.000158
 757	7.5222e+01	9.8692	31.445250	0.000233	2.330642	0.789643	-0.000093
 758	7.5322e+01	9.8356	31.384693	0.000152	1.519984	0.514984	-0.000061
 759	7.5421e+01	9.7938	31.295876	0.000223	2.229310	0.755311	-0.000089
 760	7.5520e+01	9.7537	31.186874	0.000274	2.735971	0.926972	-0.000110
 761	7.5620e+01	9.7184	31.106131	0.000203	2.026645	0.686646	-0.000081
 762	7.5719e+01	9.6687	30.972905	0.000334	3.343965	1.132966	-0.000134
 763	7.5819e+01	9.6382	30.876014	0.000243	2.431974	0.823975	-0.000097
 764	7.5918e+01	9.5965	30.758937	0.000294	2.938635	0.995637	-0.000118
 765	7.6018e+01	9.5500	30.653972	0.000263	2.634639	0.892640	-0.000105
 766	7.6118e+01	9.5195	30.536895	0.000294	2.938635	0.995637	-0.000118
 767	7.6217e+01	9.4730	30.452115	0.000213	2.127977	0.720978	-0.000085
 768	7.6317e+01	9.4377	30.355224	0.000243	2.431974	0.823975	-0.000097
 769	7.6416e+01	9.3944	30.266407	0.000223	2.229310	0.755311	-0.000089
 770	7.6516e+01	9.3639	30.117033	0.000375	3.749294	1.270295	-0.000150
 771	7.6615e+01	9.3062	30.040327	0.000193	1.925313	0.652314	-0.000077
 772	7.6715e+01	9.2853	29.927287	0.000284	2.837303	0.961304	-0.000114
 773	7.6814e+01	9.2340	29.794062	0.000334	3.343965	1.132966	-0.000134
 774	7.6913e+01	9.1987	29.733505	0.000152	1.519984	0.514984	-0.000061
 775	7.7013e+01	9.1634	29.636613	0.000243	2.431974	0.823975	-0.000097
 776	7.7112e+01	9.1169	29.503388	0.000334	3.343965	1.132966	-0.000134
 777	7.7212e+01	9.0800	29.382274	0.000304	3.039968	1.029969	-0.000122
 778	7.7311e+01	9.0366	29.289420	0.000233	2.330642	0.789643	-0.000093
 779	7.7411e+01	8.9965	29.164269	0.000314	3.141300	1.064301	-0.000126
 780	7.7510e+01	8.9645	29.063340	0.000253	2.533306	0.858307	-0.000101
 781	7.7610e+01	8.9163	28.922040	0.000355	3.546629	1.201630	-0.000142
 782	7.7710e+01	8.8794	28.881669	0.000101	1.013323	0.343323	-0.000041
 783	7.7809e+01	8.8313	28.708072	0.000436	4.357287	1.476289	-0.000174
 784	7.7909e+01	8.8072	28.607144	0.000253	2.533306	0.858307	-0.000101
 785	7.8008e+01	8.7559	28.514290	0.000233	2.330642	0.789643	-0.000093
 786	7.8108e+01	8.7174	28.405287	0.000274	2.735971	0.926972	-0.000110
 787	7.8207e+01	8.6789	28.324544	0.000203	2.026645	0.686646	-0.000081
 788	7.8306e+01	8.6308	28.219579	0.000263	2.634639	0.892640	-0.000105
 789	7.8406e+01	8.5826	28.090390	0.000324	3.242632	1.098634	-0.000130
 790	7.8505e+01	8.5586	27.965239	0.000314	3.141300	1.064301	-0.000126
 791	7.8605e+01	8.5137	27.892571	0.000182	1.823981	0.617981	-0.000073
 792	7.8704e+01	8.4848	27.795680	0.000243	2.431974	0.823975	-0.000097
 793	7.8804e+01	8.4415	27.642268	0.000385	3.850626	1.304627	-0.000154
 794	7.8903e+01	8.3966	27.537303	0.000263	2.634639	0.892640	-0.000105
 795	7.9003e+01	8.3629	27.440412	0.000243	2.431974	0.823975	-0.000097
 796	7.9103e+01	8.3083	27.315260	0.000314	3.141300	1.064301	-0.000126
 797	7.9202e+01	8.2794	27.214332	0.000253	2.533306	0.858307	-0.000101
 798	7.9302e+01	8.2474	27.081107	0.000334	3.343965	1.132966	-0.000134
 799	7.9401e+01	8.1992	26.955955	0.000314	3.141300	1.064301	-0.000126
 800	7.9501e+01	8.1591	26.830804	0.000314	3.141300	1.064301	-0.000126
 801	7.9600e+01	8.1190	26.762173	0.000172	1.722648	0.583649	-0.000069
 802	7.9700e+01	8.0757	26.657207	0.000263	2.634639	0.892640	-0.000105
 803	7.9799e+01	8.0372	26.532056	0.000314	3.141300	1.064301	-0.000126
 804	7.9898e+01	7.9971	26.402868	0.000324	3.242632	1.098634	-0.000130
 805	7.9998e+01	7.9618	26.318088	0.000213	2.127977	0.720978	-0.000085
 806	8.0097e+01	7.9169	26.180825	0.000345	3.445297	1.167298	-0.000138
 807	8.0197e+01	7.8800	26.092008	0.000223	2.229310	0.755311	-0.000089
 808	8.0296e+01	7.8383	25.983006	0.000274	2.735971	0.926972	-0.000110
 809	8.0396e+01	7.8046	25.837669	0.000365	3.647961	1.235963	-0.000146
 810	8.0496e+01	7.7629	25.760963	0.000193	1.925313	0.652314	-0.000077
 811	8.0595e+01	7.7276	25.623701	0.000345	3.445297	1.167298	-0.000138
 812	8.0695e+01	7.6779	25.506624	0.000294	2.938635	0.995637	-0.000118
 813	8.0794e+01	7.6345	25.381472	0.000314	3.141300	1.064301	-0.000126
 814	8.0894e+01	7.5944	25.272470	0.000274	2.735971	0.926972	-0.000110
 815	8.0993e+01	7.5624	25.187690	0.000213	2.127977	0.720978	-0.000085
 816	8.1093e+01	7.5255	25.074650	0.000284	2.837303	0.961304	-0.000114
 817	8.1192e+01	7.4902	24.961610	0.000284	2.837303	0.961304	-0.000114
 818	8.1291e+01	7.4436	24.804162	0.000395	3.951958	1.338960	-0.000158
 819	8.1391e+01	7.4003	24.691122	0.000284	2.837303	0.961304	-0.000114
 820	8.1490e+01	7.3634	24.598268	0.000233	2.330642	0.789643	-0.000093
 821	8.1590e+01	7.3249	24.477154	0.000304	3.039968	1.029969	-0.000122
 822	8.1689e+01	7.2768	24.327780	0.000375	3.749294	1.270295	-0.000150
 823	8.1789e+01	7.2303	24.271260	0.000142	1.418652	0.480652	-0.000057
 824	8.1888e+01	7.2014	24.158220	0.000284	2.837303	0.961304	-0.000114
 825	8.1988e+01	7.1709	24.029032	0.000324	3.242632	1.098634	-0.000130
 826	8.2088e+01	7.1276	23.887732	0.000355	3.546629	1.201630	-0.000142
 827	8.2187e+01	7.0699	23.794878	0.000233	2.330642	0.789643	-0.000093
 828	8.2287e+01	7.0410	23.689913	0.000263	2.634639	0.892640	-0.000105
 829	8.2386e+01	7.0009	23.528427	0.000405	4.053290	1.373292	-0.000162
 830	8.2486e+01	6.9624	23.467870	0.000152	1.519984	0.514984	-0.000061
 831	8.2585e+01	6.9239	23.334645	0.000334	3.343965	1.132966	-0.000134
 832	8.2684e+01	6.8822	23.189308	0.000365	3.647961	1.235963	-0.000146
 833	8.2784e+01	6.8421	23.076268	0.000284	2.837303	0.961304	-0.000114
 834	8.2883e+01	6.8132	22.959191	0.000294	2.938635	0.995637	-0.000118
 835	8.2983e+01	6.7683	22.838077	0.000304	3.039968	1.029969	-0.000122
 836	8.3082e+01	6.7249	22.733111	0.000263	2.634639	0.892640	-0.000105
 837	8.3182e+01	6.6768	22.587774	0.000365	3.647961	1.235963	-0.000146
 838	8.3281e+01	6.6399	22.474735	0.000284	2.837303	0.961304	-0.000114
 839	8.3381e+01	6.5998	22.329398	0.000365	3.647961	1.235963	-0.000146
 840	8.3481e+01	6.5613	22.236544	0.000233	2.330642	0.789643	-0.000093
 841	8.3580e+01	6.5244	22.123504	0.000284	2.837303	0.961304	-0.000114
 842	8.3680e+01	6.4811	21.994316	0.000324	3.242632	1.098634	-0.000130
 843	8.3779e+01	6.4442	21.869164	0.000314	3.141300	1.064301	-0.000126
 844	8.3879e+01	6.4009	21.756124	0.000284	2.837303	0.961304	-0.000114
 845	8.3978e+01	6.3688	21.663270	0.000233	2.330642	0.789643	-0.000093
 846	8.4078e+01	6.3319	21.521971	0.000355	3.546629	1.201630	-0.000142
 847	8.4177e+01	6.2902	21.425079	0.000243	2.431974	0.823975	-0.000097
 848	8.4276e+01	6.2421	21.316077	0.000274	2.735971	0.926972	-0.000110
 849	8.4376e+01	6.2116	21.138443	0.000446	4.458619	1.510621	-0.000179
 850	8.4475e+01	6.1699	21.053663	0.000213	2.127977	0.720978	-0.000085
 851	8.4575e+01	6.1314	20.908326	0.000365	3.647961	1.235963	-0.000146
 852	8.4674e+01	6.0897	20.807398	0.000253	2.533306	0.858307	-0.000101
 853	8.4774e+01	6.0512	20.674172	0.000334	3.343965	1.132966	-0.000134
 854	8.4874e+01	6.0046	20.593429	0.000203	2.026645	0.686646	-0.000081
 855	8.4973e+01	5.9549	20.464241	0.000324	3.242632	1.098634	-0.000130
 856	8.5073e+01	5.9325	20.367350	0.000243	2.431974	0.823975	-0.000097
 857	8.5172e+01	5.8907	20.234124	0.000334	3.343965	1.132966	-0.000134
 858	8.5272e+01	5.8506	20.113010	0.000304	3.039968	1.029969	-0.000122
 859	8.5371e+01	5.8009	19.991896	0.000304	3.039968	1.029969	-0.000122
 860	8.5471e+01	5.7592	19.862708	0.000324	3.242632	1.098634	-0.000130
 861	8.5570e+01	5.7287	19.769854	0.000233	2.330642	0.789643	-0.000093
 862	8.5669e+01	5.6886	19.628554	0.000355	3.546629	1.201630	-0.000142
 863	8.5769e+01	5.6501	19.547811	0.000203	2.026645	0.686646	-0.000081
 864	8.5868e+01	5.6164	19.434771	0.000284	2.837303	0.961304	-0.000114
 865	8.5968e+01	5.5667	19.285397	0.000375	3.749294	1.270295	-0.000150
 866	8.6067e+01	5.5250	19.168320	0.000294	2.938635	0.995637	-0.000118
 867	8.6167e+01	5.4929	19.051244	0.000294	2.938635	0.995637	-0.000118
 868	8.6266e+01	5.4464	18.946278	0.000263	2.634639	0.892640	-0.000105
 869	8.6366e+01	5.4095	18.813053	0.000334	3.343965	1.132966	-0.000134
 870	8.6466e+01	5.3806	18.683864	0.000324	3.242632	1.098634	-0.000130
 871	8.6565e+01	5.3309	18.578899	0.000263	2.634639	0.892640	-0.000105
 872	8.6665e+01	5.2811	18.469896	0.000274	2.735971	0.926972	-0.000110
 873	8.6764e+01	5.2507	18.336671	0.000334	3.343965	1.132966	-0.000134
 874	8.6864e+01	5.2122	18.207482	0.000324	3.242632	1.098634	-0.000130
 875	8.6963e+01	5.1688	18.118665	0.000223	2.229310	0.755311	-0.000089
 876	8.7063e+01	5.1351	17.969291	0.000375	3.749294	1.270295	-0.000150
 877	8.7162e+01	5.0870	17.868363	0.000253	2.533306	0.858307	-0.000101
 878	8.7261e+01	5.0485	17.763397	0.000263	2.634639	0.892640	-0.000105
 879	8.7361e+01	5.0052	17.601912	0.000405	4.053290	1.373292	-0.000162
 880	8.7460e+01	4.9667	17.513095	0.000223	2.229310	0.755311	-0.000089
 881	8.7560e+01	4.9202	17.387944	0.000314	3.141300	1.064301	-0.000126
 882	8.7659e+01	4.8961	17.254718	0.000334	3.343965	1.132966	-0.000134
 883	8.7759e+01	4.8544	17.137641	0.000294	2.938635	0.995637	-0.000118
 884	8.7859e+01	4.8063	17.024601	0.000284	2.837303	0.961304	-0.000114
 885	8.7958e+01	4.7694	16.911562	0.000284	2.837303	0.961304	-0.000114
 886	8.8058e+01	4.7341	16.778336	0.000334	3.343965	1.132966	-0.000134
 887	8.8157e+01	4.7036	16.677408	0.000253	2.533306	0.858307	-0.000101
 888	8.8257e+01	4.6523	16.544182	0.000334	3.343965	1.132966	-0.000134
 889	8.8356e+01	4.6170	16.427105	0.000294	2.938635	0.995637	-0.000118
 890	8.8456e+01	4.5737	16.322140	0.000263	2.634639	0.892640	-0.000105
 891	8.8555e+01	4.5287	16.172766	0.000375	3.749294	1.270295	-0.000150
 892	8.8654e+01	4.4983	16.063763	0.000274	2.735971	0.926972	-0.000110
 893	8.8754e+01	4.4534	15.954760	0.000274	2.735971	0.926972	-0.000110
 894	8.8853e+01	4.4165	15.805386	0.000375	3.749294	1.270295	-0.000150
 895	8.8953e+01	4.3731	15.736755	0.000172	1.722648	0.583649	-0.000069
 896	8.9052e+01	4.3362	15.607567	0.000324	3.242632	1.098634	-0.000130
 897	8.9152e+01	4.2961	15.474341	0.000334	3.343965	1.132966	-0.000134
 898	8.9251e+01	4.2528	15.357264	0.000294	2.938635	0.995637	-0.000118
 899	8.9351e+01	4.2159	15.211927	0.000365	3.647961	1.235963	-0.000146
 900	8.9451e+01	4.1694	15.102925	0.000274	2.735971	0.926972	-0.000110
 901	8.9550e+01	4.1341	14.985848	0.000294	2.938635	0.995637	-0.000118
 902	8.9650e+01	4.0956	14.848585	0.000345	3.445297	1.167298	-0.000138
 903	8.9749e+01	4.0523	14.739583	0.000274	2.735971	0.926972	-0.000110
 904	8.9849e+01	4.0138	14.630580	0.000274	2.735971	0.926972	-0.000110
 905	8.9948e+01	3.9721	14.505429	0.000314	3.141300	1.064301	-0.000126
 906	9.0047e+01	3.9304	14.343943	0.000405	4.053290	1.373292	-0.000162
 907	9.0147e+01	3.8903	14.267238	0.000193	1.925313	0.652314	-0.000077
 908	9.0246e+01	3.8534	14.101715	0.000415	4.154623	1.407624	-0.000166
 909	9.0346e+01	3.8165	14.000787	0.000253	2.533306	0.858307	-0.000101
 910	9.0445e+01	3.7732	13.895821	0.000263	2.634639	0.892640	-0.000105
 911	9.0545e+01	3.7363	13.770670	0.000314	3.141300	1.064301	-0.000126
 912	9.0644e+01	3.6881	13.661667	0.000274	2.735971	0.926972	-0.000110
 913	9.0744e+01	3.6560	13.516330	0.000365	3.647961	1.235963	-0.000146
 914	9.0844e+01	3.6224	13.415402	0.000253	2.533306	0.858307	-0.000101
 915	9.0943e+01	3.5806	13.282177	0.000334	3.343965	1.132966	-0.000134
 916	9.1043e+01	3.5389	13.217582	0.000162	1.621316	0.549317	-0.000065
 917	9.1142e+01	3.4988	13.048023	0.000426	4.255955	1.441957	-0.000170
 918	9.1242e+01	3.4539	12.975354	0.000182	1.823981	0.617981	-0.000073
 919	9.1341e+01	3.4218	12.765423	0.000527	5.269277	1.785280	-0.000211
 920	9.1441e+01	3.3673	12.668532	0.000243	2.431974	0.823975	-0.000097
 921	9.1540e+01	3.3384	12.583752	0.000213	2.127977	0.720978	-0.000085
 922	9.1639e+01	3.2935	12.442452	0.000355	3.546629	1.201630	-0.000142
 923	9.1739e+01	3.2566	12.321338	0.000304	3.039968	1.029969	-0.000122
 924	9.1838e+01	3.2245	12.212336	0.000274	2.735971	0.926972	-0.000110
 925	9.1938e+01	3.1732	12.050850	0.000405	4.053290	1.373292	-0.000162
 926	9.2037e+01	3.1411	11.974145	0.000193	1.925313	0.652314	-0.000077
 927	9.2137e+01	3.1010	11.824771	0.000375	3.749294	1.270295	-0.000150
 928	9.2237e+01	3.0625	11.723842	0.000253	2.533306	0.858307	-0.000101
 929	9.2336e+01	3.0111	11.598691	0.000314	3.141300	1.064301	-0.000126
 930	9.2436e+01	2.9791	11.461428	0.000345	3.445297	1.167298	-0.000138
 931	9.2535e+01	2.9422	11.328203	0.000334	3.343965	1.132966	-0.000134
 932	9.2635e+01	2.9037	11.231312	0.000243	2.431974	0.823975	-0.000097
 933	9.2734e+01	2.8603	11.090012	0.000355	3.546629	1.201630	-0.000142
 934	9.2834e+01	2.8154	10.976972	0.000284	2.837303	0.961304	-0.000114
 935	9.2933e+01	2.7849	10.819524	0.000395	3.951958	1.338960	-0.000158
 936	9.3032e+01	2.7481	10.726670	0.000233	2.330642	0.789643	-0.000093
 937	9.3132e+01	2.6967	10.557110	0.000426	4.255955	1.441957	-0.000170
 938	9.3231e+01	2.6566	10.399662	0.000395	3.951958	1.338960	-0.000158
 939	9.3331e+01	2.6213	10.306808	0.000233	2.330642	0.789643	-0.000093
 940	9.3430e+01	2.5860	10.173582	0.000334	3.343965	1.132966	-0.000134
 941	9.3530e+01	2.5395	10.040357	0.000334	3.343965	1.132966	-0.000134
 942	9.3629e+01	2.5026	9.895020	0.000365	3.647961	1.235963	-0.000146
 943	9.3729e+01	2.4545	9.794091	0.000253	2.533306	0.858307	-0.000101
 944	9.3829e+01	2.4208	9.628569	0.000415	4.154623	1.407624	-0.000166
 945	9.3928e+01	2.3823	9.543789	0.000213	2.127977	0.720978	-0.000085
 946	9.4028e+01	2.3486	9.402489	0.000355	3.546629	1.201630	-0.000142
 947	9.4127e+01	2.3037	9.293486	0.000274	2.735971	0.926972	-0.000110
 948	9.4227e+01	2.2604	9.156224	0.000345	3.445297	1.167298	-0.000138
 949	9.4326e+01	2.2379	9.018961	0.000345	3.445297	1.167298	-0.000138
 950	9.4425e+01	2.1785	8.877661	0.000355	3.546629	1.201630	-0.000142
 951	9.4525e+01	2.1368	8.728287	0.000375	3.749294	1.270295	-0.000150
 952	9.4624e+01	2.1080	8.562765	0.000415	4.154623	1.407624	-0.000166
 953	9.4724e+01	2.0646	8.469911	0.000233	2.330642	0.789643	-0.000093
 954	9.4823e+01	2.0229	8.328611	0.000355	3.546629	1.201630	-0.000142
 955	9.4923e+01	1.9732	8.207497	0.000304	3.039968	1.029969	-0.000122
 956	9.5022e+01	1.9443	8.098494	0.000274	2.735971	0.926972	-0.000110
 957	9.5122e+01	1.8946	7.945083	0.000385	3.850626	1.304627	-0.000154
 958	9.5222e+01	1.8593	7.823969	0.000304	3.039968	1.029969	-0.000122
 959	9.5321e+01	1.8192	7.658446	0.000415	4.154623	1.407624	-0.000166
 960	9.5421e+01	1.7759	7.537332	0.000304	3.039968	1.029969	-0.000122
 961	9.5520e+01	1.7502	7.416218	0.000304	3.039968	1.029969	-0.000122
 962	9.5620e+01	1.7101	7.299141	0.000294	2.938635	0.995637	-0.000118
 963	9.5719e+01	1.6700	7.105359	0.000486	4.863948	1.647950	-0.000195
 964	9.5819e+01	1.6203	7.000393	0.000263	2.634639	0.892640	-0.000105
 965	9.5918e+01	1.5818	6.867168	0.000334	3.343965	1.132966	-0.000134
 966	9.6017e+01	1.5433	6.786425	0.000203	2.026645	0.686646	-0.000081
 967	9.6117e+01	1.5000	6.608791	0.000446	4.458619	1.510621	-0.000179
 968	9.6216e+01	1.4615	6.455380	0.000385	3.850626	1.304627	-0.000154
 969	9.6316e+01	1.4230	6.314080	0.000355	3.546629	1.201630	-0.000142
 970	9.6415e+01	1.3893	6.209115	0.000263	2.634639	0.892640	-0.000105
 971	9.6515e+01	1.3476	6.063778	0.000365	3.647961	1.235963	-0.000146
 972	9.6615e+01	1.3074	5.938627	0.000314	3.141300	1.064301	-0.000126
 973	9.6714e+01	1.2625	5.809438	0.000324	3.242632	1.098634	-0.000130
 974	9.6814e+01	1.2224	5.639879	0.000426	4.255955	1.441957	-0.000170
 975	9.6913e+01	1.1855	5.551062	0.000223	2.229310	0.755311	-0.000089
 976	9.7013e+01	1.1518	5.393613	0.000395	3.951958	1.338960	-0.000158
 977	9.7112e+01	1.1053	5.256351	0.000345	3.445297	1.167298	-0.000138
 978	9.7212e+01	1.0588	5.123125	0.000334	3.343965	1.132966	-0.000134
 979	9.7311e+01	1.0251	4.969714	0.000385	3.850626	1.304627	-0.000154
 980	9.7410e+01	0.9882	4.868786	0.000253	2.533306	0.858307	-0.000101
 981	9.7510e+01	0.9433	4.719412	0.000375	3.749294	1.270295	-0.000150
 982	9.7609e+01	0.9016	4.586186	0.000334	3.343965	1.132966	-0.000134
 983	9.7709e+01	0.8663	4.452961	0.000334	3.343965	1.132966	-0.000134
 984	9.7808e+01	0.8278	4.319735	0.000334	3.343965	1.132966	-0.000134
 985	9.7908e+01	0.7877	4.142101	0.000446	4.458619	1.510621	-0.000179
 986	9.8007e+01	0.7540	4.008876	0.000334	3.343965	1.132966	-0.000134
 987	9.8107e+01	0.7059	3.899873	0.000274	2.735971	0.926972	-0.000110
 988	9.8207e+01	0.6625	3.754536	0.000365	3.647961	1.235963	-0.000146
 989	9.8306e+01	0.6289	3.589014	0.000415	4.154623	1.407624	-0.000166
 990	9.8406e+01	0.5888	3.492122	0.000243	2.431974	0.823975	-0.000097
 991	9.8505e+01	0.5470	3.318526	0.000436	4.357287	1.476289	-0.000174
 992	9.8605e+01	0.5134	3.185300	0.000334	3.343965	1.132966	-0.000134
 993	9.8704e+01	0.4668	3.056112	0.000324	3.242632	1.098634	-0.000130
 994	9.8803e+01	0.4203	2.886552	0.000426	4.255955	1.441957	-0.000170
 995	9.8903e+01	0.3898	2.777549	0.000274	2.735971	0.926972	-0.000110
 996	9.9002e+01	0.3433	2.672584	0.000263	2.634639	0.892640	-0.000105
 997	9.9102e+01	0.3112	2.466690	0.000517	5.167945	1.750947	-0.000207
 998	9.9201e+01	0.2695	2.313279	0.000385	3.850626	1.304627	-0.000154
 999	9.9301e+01	0.2246	2.192165	0.000304	3.039968	1.029969	-0.000122
1000	9.9400e+01	0.1909	2.083162	0.000274	2.735971	0.926972	-0.000110
1001	9.9500e+01	0.1492	1.958011	0.000314	3.141300	1.064301	-0.000126
1002	9.9600e+01	0.1091	1.768265	0.000476	4.762616	1.613618	-0.000191
1003	9.9699e+01	0.0658	1.659263	0.000274	2.735971	0.926972	-0.000110
1004	9.9799e+01	0.0401	1.497777	0.000405	4.053290	1.373292	-0.000162
1005	9.9898e+01	-0.0064	1.421072	0.000193	1.925313	0.652314	-0.000077
1006	9.9998e+01	-0.0369	1.251512	0.000426	4.255955	1.441957	-0.000170
1007	1.0010e+02	-0.0770	1.134435	0.000294	2.938635	0.995637	-0.000118
1008	1.0020e+02	-0.1187	0.985061	0.000375	3.749294	1.270295	-0.000150
1009	1.0030e+02	-0.1636	0.863947	0.000304	3.039968	1.029969	-0.000122
1010	1.0040e+02	-0.2150	0.682276	0.000456	4.559952	1.544953	-0.000183
1011	1.0050e+02	-0.2406	0.500605	0.000456	4.559952	1.544953	-0.000183
1012	1.0059e+02	-0.2807	0.395639	0.000263	2.634639	0.892640	-0.000105
1013	1.0069e+02	-0.3208	0.238191	0.000395	3.951958	1.338960	-0.000158
1014	1.0079e+02	-0.3593	0.133225	0.000263	2.634639	0.892640	-0.000105
1015	1.0089e+02	-0.4011	-0.016149	0.000375	3.749294	1.270295	-0.000150
1016	1.0099e+02	-0.4380	-0.157448	0.000355	3.546629	1.201630	-0.000142
1017	1.0109e+02	-0.4861	-0.270488	0.000284	2.837303	0.961304	-0.000114
1018	1.0119e+02	-0.5230	-0.423899	0.000385	3.850626	1.304627	-0.000154
1019	1.0129e+02	-0.5567	-0.601533	0.000446	4.458619	1.510621	-0.000179
1020	1.0139e+02	-0.6000	-0.682276	0.000203	2.026645	0.686646	-0.000081
1021	1.0149e+02	-0.6353	-0.851836	0.000426	4.255955	1.441957	-0.000170
1022	1.0159e+02	-0.6866	-0.976987	0.000314	3.141300	1.064301	-0.000126
1023	1.0169e+02	-0.7203	-1.094064	0.000294	2.938635	0.995637	-0.000118
1024	1.0179e+02	-0.7604	-1.227289	0.000334	3.343965	1.132966	-0.000134
1025	1.0189e+02	-0.8053	-1.376663	0.000375	3.749294	1.270295	-0.000150
1026	1.0199e+02	-0.8422	-1.517963	0.000355	3.546629	1.201630	-0.000142
1027	1.0209e+02	-0.8647	-1.655226	0.000345	3.445297	1.167298	-0.000138
1028	1.0219e+02	-0.9112	-1.772303	0.000294	2.938635	0.995637	-0.000118
1029	1.0229e+02	-0.9609	-1.917639	0.000365	3.647961	1.235963	-0.000146
1030	1.0239e+02	-1.0010	-2.079125	0.000405	4.053290	1.373292	-0.000162
1031	1.0248e+02	-1.0444	-2.196202	0.000294	2.938635	0.995637	-0.000118
1032	1.0258e+02	-1.0780	-2.313279	0.000294	2.938635	0.995637	-0.000118
1033	1.0268e+02	-1.1165	-2.486876	0.000436	4.357287	1.476289	-0.000174
1034	1.0278e+02	-1.1663	-2.620101	0.000334	3.343965	1.132966	-0.000134
1035	1.0288e+02	-1.1968	-2.753327	0.000334	3.343965	1.132966	-0.000134
1036	1.0298e+02	-1.2353	-2.854255	0.000253	2.533306	0.858307	-0.000101
1037	1.0308e+02	-1.2802	-2.999592	0.000365	3.647961	1.235963	-0.000146
1038	1.0318e+02	-1.3139	-3.124743	0.000314	3.141300	1.064301	-0.000126
1039	1.0328e+02	-1.3668	-3.298340	0.000436	4.357287	1.476289	-0.000174
1040	1.0338e+02	-1.4053	-3.387157	0.000223	2.229310	0.755311	-0.000089
1041	1.0348e+02	-1.4294	-3.528457	0.000355	3.546629	1.201630	-0.000142
1042	1.0358e+02	-1.4743	-3.649571	0.000304	3.039968	1.029969	-0.000122
1043	1.0368e+02	-1.5192	-3.794908	0.000365	3.647961	1.235963	-0.000146
1044	1.0378e+02	-1.5625	-3.932170	0.000345	3.445297	1.167298	-0.000138
1045	1.0388e+02	-1.5994	-4.029061	0.000243	2.431974	0.823975	-0.000097
1046	1.0398e+02	-1.6315	-4.226881	0.000497	4.965281	1.682283	-0.000199
1047	1.0408e+02	-1.6828	-4.339921	0.000284	2.837303	0.961304	-0.000114
1048	1.0418e+02	-1.7181	-4.436812	0.000243	2.431974	0.823975	-0.000097
1049	1.0428e+02	-1.7598	-4.553889	0.000294	2.938635	0.995637	-0.000118
1050	1.0438e+02	-1.8048	-4.723449	0.000426	4.255955	1.441957	-0.000170
1051	1.0447e+02	-1.8401	-4.836489	0.000284	2.837303	0.961304	-0.000114
1052	1.0457e+02	-1.8673	-4.957603	0.000304	3.039968	1.029969	-0.000122
1053	1.0467e+02	-1.9138	-5.135237	0.000446	4.458619	1.510621	-0.000179
1054	1.0477e+02	-1.9540	-5.240202	0.000263	2.634639	0.892640	-0.000105
1055	1.0487e+02	-1.9941	-5.381502	0.000355	3.546629	1.201630	-0.000142
1056	1.0497e+02	-2.0326	-5.502616	0.000304	3.039968	1.029969	-0.000122
1057	1.0507e+02	-2.0807	-5.635841	0.000334	3.343965	1.132966	-0.000134
1058	1.0517e+02	-2.1208	-5.769067	0.000334	3.343965	1.132966	-0.000134
1059	1.0527e+02	-2.1577	-5.898255	0.000324	3.242632	1.098634	-0.000130
1060	1.0537e+02	-2.1962	-6.055704	0.000395	3.951958	1.338960	-0.000158
1061	1.0547e+02	-2.2267	-6.172781	0.000294	2.938635	0.995637	-0.000118
1062	1.0557e+02	-2.2732	-6.281783	0.000274	2.735971	0.926972	-0.000110
1063	1.0567e+02	-2.3101	-6.406934	0.000314	3.141300	1.064301	-0.000126
1064	1.0577e+02	-2.3534	-6.556308	0.000375	3.749294	1.270295	-0.000150
1065	1.0587e+02	-2.3935	-6.665311	0.000274	2.735971	0.926972	-0.000110
1066	1.0597e+02	-2.4368	-6.822759	0.000395	3.951958	1.338960	-0.000158
1067	1.0607e+02	-2.4753	-6.927725	0.000263	2.634639	0.892640	-0.000105
1068	1.0617e+02	-2.5122	-7.093247	0.000415	4.154623	1.407624	-0.000166
1069	1.0627e+02	-2.5571	-7.222436	0.000324	3.242632	1.098634	-0.000130
1070	1.0637e+02	-2.5908	-7.331439	0.000274	2.735971	0.926972	-0.000110
1071	1.0647e+02	-2.6358	-7.464664	0.000334	3.343965	1.132966	-0.000134
1072	1.0656e+02	-2.6646	-7.626149	0.000405	4.053290	1.373292	-0.000162
1073	1.0666e+02	-2.7128	-7.702855	0.000193	1.925313	0.652314	-0.000077
1074	1.0676e+02	-2.7609	-7.832043	0.000324	3.242632	1.098634	-0.000130
1075	1.0686e+02	-2.7914	-7.977380	0.000365	3.647961	1.235963	-0.000146
1076	1.0696e+02	-2.8299	-8.082346	0.000263	2.634639	0.892640	-0.000105
1077	1.0706e+02	-2.8636	-8.231720	0.000375	3.749294	1.270295	-0.000150
1078	1.0716e+02	-2.9101	-8.356871	0.000314	3.141300	1.064301	-0.000126
1079	1.0726e+02	-2.9518	-8.502208	0.000365	3.647961	1.235963	-0.000146
1080	1.0736e+02	-2.9887	-8.631396	0.000324	3.242632	1.098634	-0.000130
1081	1.0746e+02	-3.0224	-8.716176	0.000213	2.127977	0.720978	-0.000085
1082	1.0756e+02	-3.0721	-8.845364	0.000324	3.242632	1.098634	-0.000130
1083	1.0766e+02	-3.1122	-8.966478	0.000304	3.039968	1.029969	-0.000122
1084	1.0776e+02	-3.1475	-9.091630	0.000314	3.141300	1.064301	-0.000126
1085	1.0786e+02	-3.1924	-9.245041	0.000385	3.850626	1.304627	-0.000154
1086	1.0796e+02	-3.2293	-9.370192	0.000314	3.141300	1.064301	-0.000126
1087	1.0806e+02	-3.2726	-9.422675	0.000132	1.317319	0.446320	-0.000053
1088	1.0816e+02	-3.3079	-9.592235	0.000426	4.255955	1.441957	-0.000170
1089	1.0826e+02	-3.3561	-9.745646	0.000385	3.850626	1.304627	-0.000154
1090	1.0836e+02	-3.3913	-9.866760	0.000304	3.039968	1.029969	-0.000122
1091	1.0845e+02	-3.4250	-9.939428	0.000182	1.823981	0.617981	-0.000073
1092	1.0855e+02	-3.4716	-10.092839	0.000385	3.850626	1.304627	-0.000154
1093	1.0865e+02	-3.5020	-10.230102	0.000345	3.445297	1.167298	-0.000138
1094	1.0875e+02	-3.5470	-10.314882	0.000213	2.127977	0.720978	-0.000085
1095	1.0885e+02	-3.5871	-10.452144	0.000345	3.445297	1.167298	-0.000138
1096	1.0895e+02	-3.6320	-10.569221	0.000294	2.938635	0.995637	-0.000118
1097	1.0905e+02	-3.6737	-10.666113	0.000243	2.431974	0.823975	-0.000097
1098	1.0915e+02	-3.7122	-10.827598	0.000405	4.053290	1.373292	-0.000162
1099	1.0925e+02	-3.7443	-10.964861	0.000345	3.445297	1.167298	-0.000138
1100	1.0935e+02	-3.7796	-11.049641	0.000213	2.127977	0.720978	-0.000085
1101	1.0945e+02	-3.8309	-11.186903	0.000345	3.445297	1.167298	-0.000138
1102	1.0955e+02	-3.8694	-11.312054	0.000314	3.141300	1.064301	-0.000126
1103	1.0965e+02	-3.9063	-11.437206	0.000314	3.141300	1.064301	-0.000126
1104	1.0975e+02	-3.9528	-11.598691	0.000405	4.053290	1.373292	-0.000162
1105	1.0985e+02	-3.9801	-11.711731	0.000284	2.837303	0.961304	-0.000114
1106	1.0995e+02	-4.0266	-11.824771	0.000284	2.837303	0.961304	-0.000114
1107	1.1005e+02	-4.0667	-11.925699	0.000253	2.533306	0.858307	-0.000101
1108	1.1015e+02	-4.1116	-12.071036	0.000365	3.647961	1.235963	-0.000146
1109	1.1025e+02	-4.1485	-12.176001	0.000263	2.634639	0.892640	-0.000105
1110	1.1035e+02	-4.1903	-12.309227	0.000334	3.343965	1.132966	-0.000134
1111	1.1044e+02	-4.2320	-12.450527	0.000355	3.546629	1.201630	-0.000142
1112	1.1054e+02	-4.2737	-12.563566	0.000284	2.837303	0.961304	-0.000114
1113	1.1064e+02	-4.3106	-12.692755	0.000324	3.242632	1.098634	-0.000130
1114	1.1074e+02	-4.3507	-12.817906	0.000314	3.141300	1.064301	-0.000126
1115	1.1084e+02	-4.3860	-12.910760	0.000233	2.330642	0.789643	-0.000093
1116	1.1094e+02	-4.4229	-13.084357	0.000436	4.357287	1.476289	-0.000174
1117	1.1104e+02	-4.4630	-13.193360	0.000274	2.735971	0.926972	-0.000110
1118	1.1114e+02	-4.5127	-13.294288	0.000253	2.533306	0.858307	-0.000101
1119	1.1124e+02	-4.5448	-13.411365	0.000294	2.938635	0.995637	-0.000118
1120	1.1134e+02	-4.5833	-13.532479	0.000304	3.039968	1.029969	-0.000122
1121	1.1144e+02	-4.6282	-13.722224	0.000476	4.762616	1.613618	-0.000191
1122	1.1154e+02	-4.6715	-13.811041	0.000223	2.229310	0.755311	-0.000089
1123	1.1164e+02	-4.7004	-13.911970	0.000253	2.533306	0.858307	-0.000101
1124	1.1174e+02	-4.7421	-14.061344	0.000375	3.749294	1.270295	-0.000150
1125	1.1184e+02	-4.7934	-14.134012	0.000182	1.823981	0.617981	-0.000073
1126	1.1194e+02	-4.8255	-14.291461	0.000395	3.951958	1.338960	-0.000158
1127	1.1204e+02	-4.8737	-14.420649	0.000324	3.242632	1.098634	-0.000130
1128	1.1214e+02	-4.9106	-14.541763	0.000304	3.039968	1.029969	-0.000122
1129	1.1224e+02	-4.9458	-14.650766	0.000274	2.735971	0.926972	-0.000110
1130	1.1234e+02	-4.9860	-14.763805	0.000284	2.837303	0.961304	-0.000114
1131	1.1244e+02	-5.0212	-14.913179	0.000375	3.749294	1.270295	-0.000150
1132	1.1253e+02	-5.0694	-15.034293	0.000304	3.039968	1.029969	-0.000122
1133	1.1263e+02	-5.1079	-15.171556	0.000345	3.445297	1.167298	-0.000138
1134	1.1273e+02	-5.1400	-15.296707	0.000314	3.141300	1.064301	-0.000126
1135	1.1283e+02	-5.1881	-15.369376	0.000182	1.823981	0.617981	-0.000073
1136	1.1293e+02	-5.2250	-15.506638	0.000345	3.445297	1.167298	-0.000138
1137	1.1303e+02	-5.2683	-15.635827	0.000324	3.242632	1.098634	-0.000130
1138	1.1313e+02	-5.3036	-15.765015	0.000324	3.242632	1.098634	-0.000130
1139	1.1323e+02	-5.3453	-15.894203	0.000324	3.242632	1.098634	-0.000130
1140	1.1333e+02	-5.3838	-15.987058	0.000233	2.330642	0.789643	-0.000093
1141	1.1343e+02	-5.4191	-16.124320	0.000345	3.445297	1.167298	-0.000138
1142	1.1353e+02	-5.4528	-16.245434	0.000304	3.039968	1.029969	-0.000122
1143	1.1363e+02	-5.5089	-16.362511	0.000294	2.938635	0.995637	-0.000118
1144	1.1373e+02	-5.5362	-16.487662	0.000314	3.141300	1.064301	-0.000126
1145	1.1383e+02	-5.5699	-16.632999	0.000365	3.647961	1.235963	-0.000146
1146	1.1393e+02	-5.6276	-16.750076	0.000294	2.938635	0.995637	-0.000118
1147	1.1403e+02	-5.6565	-16.867153	0.000294	2.938635	0.995637	-0.000118
1148	1.1413e+02	-5.6966	-16.943859	0.000193	1.925313	0.652314	-0.000077
1149	1.1423e+02	-5.7464	-17.113418	0.000426	4.255955	1.441957	-0.000170
1150	1.1433e+02	-5.7801	-17.202235	0.000223	2.229310	0.755311	-0.000089
1151	1.1442e+02	-5.8186	-17.367758	0.000415	4.154623	1.407624	-0.000166
1152	1.1452e+02	-5.8683	-17.460612	0.000233	2.330642	0.789643	-0.000093
1153	1.1462e+02	-5.8972	-17.593838	0.000334	3.343965	1.132966	-0.000134
1154	1.1472e+02	-5.9437	-17.658432	0.000162	1.621316	0.549317	-0.000065
1155	1.1482e+02	-5.9822	-17.836066	0.000446	4.458619	1.510621	-0.000179
1156	1.1492e+02	-6.0223	-17.941031	0.000263	2.634639	0.892640	-0.000105
1157	1.1502e+02	-6.0592	-18.041960	0.000253	2.533306	0.858307	-0.000101
1158	1.1512e+02	-6.0945	-18.219594	0.000446	4.458619	1.510621	-0.000179
1159	1.1522e+02	-6.1378	-18.292262	0.000182	1.823981	0.617981	-0.000073
1160	1.1532e+02	-6.1795	-18.421450	0.000324	3.242632	1.098634	-0.000130
1161	1.1542e+02	-6.2212	-18.538527	0.000294	2.938635	0.995637	-0.000118
1162	1.1552e+02	-6.2645	-18.679827	0.000355	3.546629	1.201630	-0.000142
1163	1.1562e+02	-6.2966	-18.825164	0.000365	3.647961	1.235963	-0.000146
1164	1.1572e+02	-6.3335	-18.901870	0.000193	1.925313	0.652314	-0.000077
1165	1.1582e+02	-6.3816	-19.051244	0.000375	3.749294	1.270295	-0.000150
1166	1.1592e+02	-6.4314	-19.212729	0.000405	4.053290	1.373292	-0.000162
1167	1.1602e+02	-6.4570	-19.257137	0.000111	1.114655	0.377655	-0.000045
1168	1.1612e+02	-6.4939	-19.374214	0.000294	2.938635	0.995637	-0.000118
1169	1.1622e+02	-6.5324	-19.499366	0.000314	3.141300	1.064301	-0.000126
1170	1.1632e+02	-6.5790	-19.652777	0.000385	3.850626	1.304627	-0.000154
1171	1.1642e+02	-6.6271	-19.745631	0.000233	2.330642	0.789643	-0.000093
1172	1.1651e+02	-6.6656	-19.874819	0.000324	3.242632	1.098634	-0.000130
1173	1.1661e+02	-6.7057	-20.024193	0.000375	3.749294	1.270295	-0.000150
1174	1.1671e+02	-6.7378	-20.125122	0.000253	2.533306	0.858307	-0.000101
1175	1.1681e+02	-6.7747	-20.213939	0.000223	2.229310	0.755311	-0.000089
1176	1.1691e+02	-6.8116	-20.371387	0.000395	3.951958	1.338960	-0.000158
1177	1.1701e+02	-6.8533	-20.496538	0.000314	3.141300	1.064301	-0.000126
1178	1.1711e+02	-6.8966	-20.569207	0.000182	1.823981	0.617981	-0.000073
1179	1.1721e+02	-6.9287	-20.718581	0.000375	3.749294	1.270295	-0.000150
1180	1.1731e+02	-6.9736	-20.815472	0.000243	2.431974	0.823975	-0.000097
1181	1.1741e+02	-7.0153	-20.940623	0.000314	3.141300	1.064301	-0.000126
1182	1.1751e+02	-7.0522	-21.085960	0.000365	3.647961	1.235963	-0.000146
1183	1.1761e+02	-7.0955	-21.162666	0.000193	1.925313	0.652314	-0.000077
1184	1.1771e+02	-7.1324	-21.303965	0.000355	3.546629	1.201630	-0.000142
1185	1.1781e+02	-7.1789	-21.400857	0.000243	2.431974	0.823975	-0.000097
1186	1.1791e+02	-7.2142	-21.562342	0.000405	4.053290	1.373292	-0.000162
1187	1.1801e+02	-7.2511	-21.602713	0.000101	1.013323	0.343323	-0.000041
1188	1.1811e+02	-7.2977	-21.788422	0.000466	4.661284	1.579286	-0.000187
1189	1.1821e+02	-7.3378	-21.865127	0.000193	1.925313	0.652314	-0.000077
1190	1.1831e+02	-7.3714	-21.986241	0.000304	3.039968	1.029969	-0.000122
1191	1.1841e+02	-7.4116	-22.123504	0.000345	3.445297	1.167298	-0.000138
1192	1.1850e+02	-7.4581	-22.208284	0.000213	2.127977	0.720978	-0.000085
1193	1.1860e+02	-7.4918	-22.317286	0.000274	2.735971	0.926972	-0.000110
1194	1.1870e+02	-7.5271	-22.410140	0.000233	2.330642	0.789643	-0.000093
1195	1.1880e+02	-7.5720	-22.579700	0.000426	4.255955	1.441957	-0.000170
1196	1.1890e+02	-7.6153	-22.684666	0.000263	2.634639	0.892640	-0.000105
1197	1.1900e+02	-7.6570	-22.757334	0.000182	1.823981	0.617981	-0.000073
1198	1.1910e+02	-7.6923	-22.906708	0.000375	3.749294	1.270295	-0.000150
1199	1.1920e+02	-7.7340	-23.015711	0.000274	2.735971	0.926972	-0.000110
1200	1.1930e+02	-7.7757	-23.076268	0.000152	1.519984	0.514984	-0.000061
1201	1.1940e+02	-7.8158	-23.241790	0.000415	4.154623	1.407624	-0.000166
1202	1.1950e+02	-7.8447	-23.298310	0.000142	1.418652	0.480652	-0.000057
1203	1.1960e+02	-7.8928	-23.455759	0.000395	3.951958	1.338960	-0.000158
1204	1.1970e+02	-7.9426	-23.572836	0.000294	2.938635	0.995637	-0.000118
1205	1.1980e+02	-7.9746	-23.677801	0.000263	2.634639	0.892640	-0.000105
1206	1.1990e+02	-8.0019	-23.794878	0.000294	2.938635	0.995637	-0.000118
1207	1.2000e+02	-8.0500	-23.903881	0.000274	2.735971	0.926972	-0.000110
1208	1.2010e+02	-8.1030	-24.024995	0.000304	3.039968	1.029969	-0.000122
1209	1.2020e+02	-8.1270	-24.101700	0.000193	1.925313	0.652314	-0.000077
1210	1.2030e+02	-8.1720	-24.226852	0.000314	3.141300	1.064301	-0.000126
1211	1.2039e+02	-8.2249	-24.339891	0.000284	2.837303	0.961304	-0.000114
1212	1.2049e+02	-8.2506	-24.477154	0.000345	3.445297	1.167298	-0.000138
1213	1.2059e+02	-8.2891	-24.545785	0.000172	1.722648	0.583649	-0.000069
1214	1.2069e+02	-8.3324	-24.666899	0.000304	3.039968	1.029969	-0.000122
1215	1.2079e+02	-8.3709	-24.775902	0.000274	2.735971	0.926972	-0.000110
1216	1.2089e+02	-8.4062	-24.888942	0.000284	2.837303	0.961304	-0.000114
1217	1.2099e+02	-8.4527	-25.006019	0.000294	2.938635	0.995637	-0.000118
1218	1.2109e+02	-8.4816	-25.123096	0.000294	2.938635	0.995637	-0.000118
1219	1.2119e+02	-8.5345	-25.232098	0.000274	2.735971	0.926972	-0.000110
1220	1.2129e+02	-8.5698	-25.365324	0.000334	3.343965	1.132966	-0.000134
1221	1.2139e+02	-8.6083	-25.417807	0.000132	1.317319	0.446320	-0.000053
1222	1.2149e+02	-8.6468	-25.530846	0.000284	2.837303	0.961304	-0.000114
1223	1.2159e+02	-8.6821	-25.607552	0.000193	1.925313	0.652314	-0.000077
1224	1.2169e+02	-8.7286	-25.765000	0.000395	3.951958	1.338960	-0.000158
1225	1.2179e+02	-8.7607	-25.890151	0.000314	3.141300	1.064301	-0.000126
1226	1.2189e+02	-8.8104	-25.950709	0.000152	1.519984	0.514984	-0.000061
1227	1.2199e+02	-8.8441	-26.079897	0.000324	3.242632	1.098634	-0.000130
1228	1.2209e+02	-8.8778	-26.188900	0.000274	2.735971	0.926972	-0.000110
1229	1.2219e+02	-8.9227	-26.273679	0.000213	2.127977	0.720978	-0.000085
1230	1.2229e+02	-8.9645	-26.410942	0.000345	3.445297	1.167298	-0.000138
1231	1.2239e+02	-8.9981	-26.519945	0.000274	2.735971	0.926972	-0.000110
1232	1.2248e+02	-9.0511	-26.645096	0.000314	3.141300	1.064301	-0.000126
1233	1.2258e+02	-9.0848	-26.762173	0.000294	2.938635	0.995637	-0.000118
1234	1.2268e+02	-9.1329	-26.818693	0.000142	1.418652	0.480652	-0.000057
1235	1.2278e+02	-9.1570	-26.955955	0.000345	3.445297	1.167298	-0.000138
1236	1.2288e+02	-9.2099	-27.052847	0.000243	2.431974	0.823975	-0.000097
1237	1.2298e+02	-9.2436	-27.173961	0.000304	3.039968	1.029969	-0.000122
1238	1.2308e+02	-9.2885	-27.266815	0.000233	2.330642	0.789643	-0.000093
1239	1.2318e+02	-9.3222	-27.371780	0.000263	2.634639	0.892640	-0.000105
1240	1.2328e+02	-9.3735	-27.521154	0.000375	3.749294	1.270295	-0.000150
1241	1.2338e+02	-9.4088	-27.593823	0.000182	1.823981	0.617981	-0.000073
1242	1.2348e+02	-9.4441	-27.698788	0.000263	2.634639	0.892640	-0.000105
1243	1.2358e+02	-9.4938	-27.803754	0.000263	2.634639	0.892640	-0.000105
1244	1.2368e+02	-9.5163	-27.888534	0.000213	2.127977	0.720978	-0.000085
1245	1.2378e+02	-9.5500	-28.005611	0.000294	2.938635	0.995637	-0.000118
1246	1.2388e+02	-9.6110	-28.118650	0.000284	2.837303	0.961304	-0.000114
1247	1.2398e+02	-9.6382	-28.223616	0.000263	2.634639	0.892640	-0.000105
1248	1.2408e+02	-9.6799	-28.320507	0.000243	2.431974	0.823975	-0.000097
1249	1.2418e+02	-9.7281	-28.405287	0.000213	2.127977	0.720978	-0.000085
1250	1.2428e+02	-9.7618	-28.526401	0.000304	3.039968	1.029969	-0.000122
1251	1.2438e+02	-9.8019	-28.623292	0.000243	2.431974	0.823975	-0.000097
1252	1.2447e+02	-9.8436	-28.736332	0.000284	2.837303	0.961304	-0.000114
1253	1.2457e+02	-9.8885	-28.833223	0.000243	2.431974	0.823975	-0.000097
1254	1.2467e+02	-9.9174	-28.897818	0.000162	1.621316	0.549317	-0.000065
1255	1.2477e+02	-9.9575	-29.043154	0.000365	3.647961	1.235963	-0.000146
1256	1.2487e+02	-10.0040	-29.131971	0.000223	2.229310	0.755311	-0.000089
1257	1.2497e+02	-10.0409	-29.220788	0.000223	2.229310	0.755311	-0.000089
1258	1.2507e+02	-10.0826	-29.370162	0.000375	3.749294	1.270295	-0.000150
1259	1.2517e+02	-10.1195	-29.454942	0.000213	2.127977	0.720978	-0.000085
1260	1.2527e+02	-10.1708	-29.531648	0.000193	1.925313	0.652314	-0.000077
1261	1.2537e+02	-10.1965	-29.660836	0.000324	3.242632	1.098634	-0.000130
1262	1.2547e+02	-10.2414	-29.769839	0.000274	2.735971	0.926972	-0.000110
1263	1.2557e+02	-10.2671	-29.846545	0.000193	1.925313	0.652314	-0.000077
1264	1.2567e+02	-10.3232	-29.943436	0.000243	2.431974	0.823975	-0.000097
1265	1.2577e+02	-10.3585	-30.084736	0.000355	3.546629	1.201630	-0.000142
1266	1.2587e+02	-10.4067	-30.149330	0.000162	1.621316	0.549317	-0.000065
1267	1.2597e+02	-10.4403	-30.266407	0.000294	2.938635	0.995637	-0.000118
1268	1.2607e+02	-10.4805	-30.383484	0.000294	2.938635	0.995637	-0.000118
1269	1.2617e+02	-10.5254	-30.440003	0.000142	1.418652	0.480652	-0.000057
1270	1.2627e+02	-10.5607	-30.561118	0.000304	3.039968	1.029969	-0.000122
1271	1.2636e+02	-10.6040	-30.706454	0.000365	3.647961	1.235963	-0.000146
1272	1.2646e+02	-10.6489	-30.775086	0.000172	1.722648	0.583649	-0.000069
1273	1.2656e+02	-10.6778	-30.908311	0.000334	3.343965	1.132966	-0.000134
1274	1.2666e+02	-10.7147	-31.025388	0.000294	2.938635	0.995637	-0.000118
1275	1.2676e+02	-10.7628	-31.106131	0.000203	2.026645	0.686646	-0.000081
1276	1.2686e+02	-10.8029	-31.235319	0.000324	3.242632	1.098634	-0.000130
1277	1.2696e+02	-10.8398	-31.348359	0.000284	2.837303	0.961304	-0.000114
1278	1.2706e+02	-10.8815	-31.433139	0.000213	2.127977	0.720978	-0.000085
1279	1.2716e+02	-10.9088	-31.558290	0.000314	3.141300	1.064301	-0.000126
1280	1.2726e+02	-10.9489	-31.647107	0.000223	2.229310	0.755311	-0.000089
1281	1.2736e+02	-11.0018	-31.735924	0.000223	2.229310	0.755311	-0.000089
1282	1.2746e+02	-11.0403	-31.853001	0.000294	2.938635	0.995637	-0.000118
1283	1.2756e+02	-11.0804	-31.953929	0.000253	2.533306	0.858307	-0.000101
1284	1.2766e+02	-11.1205	-32.066969	0.000284	2.837303	0.961304	-0.000114
1285	1.2776e+02	-11.1671	-32.159823	0.000233	2.330642	0.789643	-0.000093
1286	1.2786e+02	-11.1975	-32.297086	0.000345	3.445297	1.167298	-0.000138
1287	1.2796e+02	-11.2360	-32.381866	0.000213	2.127977	0.720978	-0.000085
1288	1.2806e+02	-11.2874	-32.466646	0.000213	2.127977	0.720978	-0.000085
1289	1.2816e+02	-11.3163	-32.595834	0.000324	3.242632	1.098634	-0.000130
1290	1.2826e+02	-11.3628	-32.696762	0.000253	2.533306	0.858307	-0.000101
1291	1.2835e+02	-11.3965	-32.793654	0.000243	2.431974	0.823975	-0.000097
1292	1.2845e+02	-11.4382	-32.870359	0.000193	1.925313	0.652314	-0.000077
1293	1.2855e+02	-11.4815	-32.971288	0.000253	2.533306	0.858307	-0.000101
1294	1.2865e+02	-11.5216	-33.112587	0.000355	3.546629	1.201630	-0.000142
1295	1.2875e+02	-11.5617	-33.213516	0.000253	2.533306	0.858307	-0.000101
1296	1.2885e+02	-11.5970	-33.318481	0.000263	2.634639	0.892640	-0.000105
1297	1.2895e+02	-11.6355	-33.455744	0.000345	3.445297	1.167298	-0.000138
1298	1.2905e+02	-11.6740	-33.492078	0.000091	0.911990	0.308991	-0.000037
1299	1.2915e+02	-11.7125	-33.609155	0.000294	2.938635	0.995637	-0.000118
1300	1.2925e+02	-11.7526	-33.734306	0.000314	3.141300	1.064301	-0.000126
1301	1.2935e+02	-11.7863	-33.863495	0.000324	3.242632	1.098634	-0.000130
1302	1.2945e+02	-11.8392	-33.932126	0.000172	1.722648	0.583649	-0.000069
1303	1.2955e+02	-11.8777	-34.061314	0.000324	3.242632	1.098634	-0.000130
1304	1.2965e+02	-11.9114	-34.158205	0.000243	2.431974	0.823975	-0.000097
1305	1.2975e+02	-11.9499	-34.291431	0.000334	3.343965	1.132966	-0.000134
1306	1.2985e+02	-12.0013	-34.347951	0.000142	1.418652	0.480652	-0.000057
1307	1.2995e+02	-12.0414	-34.412545	0.000162	1.621316	0.549317	-0.000065
1308	1.3005e+02	-12.0735	-34.565956	0.000385	3.850626	1.304627	-0.000154
1309	1.3015e+02	-12.1184	-34.691107	0.000314	3.141300	1.064301	-0.000126
1310	1.3025e+02	-12.1521	-34.775887	0.000213	2.127977	0.720978	-0.000085
1311	1.3034e+02	-12.1970	-34.884890	0.000274	2.735971	0.926972	-0.000110
1312	1.3044e+02	-12.2387	-35.026190	0.000355	3.546629	1.201630	-0.000142
1313	1.3054e+02	-12.2644	-35.078672	0.000132	1.317319	0.446320	-0.000053
1314	1.3064e+02	-12.3125	-35.171527	0.000233	2.330642	0.789643	-0.000093
1315	1.3074e+02	-12.3494	-35.304752	0.000334	3.343965	1.132966	-0.000134
1316	1.3084e+02	-12.3911	-35.421829	0.000294	2.938635	0.995637	-0.000118
1317	1.3094e+02	-12.4296	-35.514683	0.000233	2.330642	0.789643	-0.000093
1318	1.3104e+02	-12.4761	-35.619649	0.000263	2.634639	0.892640	-0.000105
1319	1.3114e+02	-12.5082	-35.744800	0.000314	3.141300	1.064301	-0.000126
1320	1.3124e+02	-12.5627	-35.841691	0.000243	2.431974	0.823975	-0.000097
1321	1.3134e+02	-12.5900	-35.910322	0.000172	1.722648	0.583649	-0.000069
1322	1.3144e+02	-12.6333	-36.051622	0.000355	3.546629	1.201630	-0.000142
1323	1.3154e+02	-12.6734	-36.164662	0.000284	2.837303	0.961304	-0.000114
1324	1.3164e+02	-12.7055	-36.196959	0.000081	0.810658	0.274658	-0.000032
1325	1.3174e+02	-12.7649	-36.297887	0.000253	2.533306	0.858307	-0.000101
1326	1.3184e+02	-12.7889	-36.467447	0.000426	4.255955	1.441957	-0.000170
1327	1.3194e+02	-12.8339	-36.576450	0.000274	2.735971	0.926972	-0.000110
1328	1.3204e+02	-12.8708	-36.673341	0.000243	2.431974	0.823975	-0.000097
1329	1.3214e+02	-12.9077	-36.750047	0.000193	1.925313	0.652314	-0.000077
1330	1.3224e+02	-12.9478	-36.855012	0.000263	2.634639	0.892640	-0.000105
1331	1.3234e+02	-12.9911	-37.012460	0.000395	3.951958	1.338960	-0.000158
1332	1.3243e+02	-13.0264	-37.105315	0.000233	2.330642	0.789643	-0.000093
1333	1.3253e+02	-13.0761	-37.214317	0.000274	2.735971	0.926972	-0.000110
1334	1.3263e+02	-13.1114	-37.315246	0.000253	2.533306	0.858307	-0.000101
1335	1.3273e+02	-13.1531	-37.432323	0.000294	2.938635	0.995637	-0.000118
1336	1.3283e+02	-13.1948	-37.537288	0.000263	2.634639	0.892640	-0.000105
1337	1.3293e+02	-13.2269	-37.601882	0.000162	1.621316	0.549317	-0.000065
1338	1.3303e+02	-13.2670	-37.747219	0.000365	3.647961	1.235963	-0.000146
1339	1.3313e+02	-13.3023	-37.840073	0.000233	2.330642	0.789643	-0.000093
1340	1.3323e+02	-13.3536	-37.941002	0.000253	2.533306	0.858307	-0.000101
1341	1.3333e+02	-13.3921	-38.074227	0.000334	3.343965	1.132966	-0.000134
1342	1.3343e+02	-13.4322	-38.134784	0.000152	1.519984	0.514984	-0.000061
1343	1.3353e+02	-13.4756	-38.247824	0.000284	2.837303	0.961304	-0.000114
1344	1.3363e+02	-13.5044	-38.360864	0.000284	2.837303	0.961304	-0.000114
1345	1.3373e+02	-13.5542	-38.490052	0.000324	3.242632	1.098634	-0.000130
1346	1.3383e+02	-13.5879	-38.578869	0.000223	2.229310	0.755311	-0.000089
1347	1.3393e+02	-13.6247	-38.691909	0.000284	2.837303	0.961304	-0.000114
1348	1.3403e+02	-13.6616	-38.788800	0.000243	2.431974	0.823975	-0.000097
1349	1.3413e+02	-13.7066	-38.881654	0.000233	2.330642	0.789643	-0.000093
1350	1.3423e+02	-13.7386	-39.006806	0.000314	3.141300	1.064301	-0.000126
1351	1.3432e+02	-13.7916	-39.091585	0.000213	2.127977	0.720978	-0.000085
1352	1.3442e+02	-13.8301	-39.176365	0.000213	2.127977	0.720978	-0.000085
1353	1.3452e+02	-13.8638	-39.293442	0.000294	2.938635	0.995637	-0.000118
1354	1.3462e+02	-13.8991	-39.406482	0.000284	2.837303	0.961304	-0.000114
1355	1.3472e+02	-13.9456	-39.479150	0.000182	1.823981	0.617981	-0.000073
1356	1.3482e+02	-13.9841	-39.584116	0.000263	2.634639	0.892640	-0.000105
1357	1.3492e+02	-14.0194	-39.693119	0.000274	2.735971	0.926972	-0.000110
1358	1.3502e+02	-14.0643	-39.814233	0.000304	3.039968	1.029969	-0.000122
1359	1.3512e+02	-14.1092	-39.915161	0.000253	2.533306	0.858307	-0.000101
1360	1.3522e+02	-14.1445	-39.987829	0.000182	1.823981	0.617981	-0.000073
1361	1.3532e+02	-14.1926	-40.088758	0.000253	2.533306	0.858307	-0.000101
1362	1.3542e+02	-14.2328	-40.193723	0.000263	2.634639	0.892640	-0.000105
1363	1.3552e+02	-14.2680	-40.298689	0.000263	2.634639	0.892640	-0.000105
1364	1.3562e+02	-14.3162	-40.403654	0.000263	2.634639	0.892640	-0.000105
1365	1.3572e+02	-14.3402	-40.468249	0.000162	1.621316	0.549317	-0.000065
1366	1.3582e+02	-14.3884	-40.565140	0.000243	2.431974	0.823975	-0.000097
1367	1.3592e+02	-14.4301	-40.674143	0.000274	2.735971	0.926972	-0.000110
1368	1.3602e+02	-14.4686	-40.783145	0.000274	2.735971	0.926972	-0.000110
1369	1.3612e+02	-14.5023	-40.880036	0.000243	2.431974	0.823975	-0.000097
1370	1.3622e+02	-14.5504	-41.009225	0.000324	3.242632	1.098634	-0.000130
1371	1.3631e+02	-14.5777	-41.106116	0.000243	2.431974	0.823975	-0.000097
1372	1.3641e+02	-14.6290	-41.166673	0.000152	1.519984	0.514984	-0.000061
1373	1.3651e+02	-14.6595	-41.267602	0.000253	2.533306	0.858307	-0.000101
1374	1.3661e+02	-14.7012	-41.364493	0.000243	2.431974	0.823975	-0.000097
1375	1.3671e+02	-14.7461	-41.461384	0.000243	2.431974	0.823975	-0.000097
1376	1.3681e+02	-14.7862	-41.602684	0.000355	3.546629	1.201630	-0.000142
1377	1.3691e+02	-14.8311	-41.667278	0.000162	1.621316	0.549317	-0.000065
1378	1.3701e+02	-14.8568	-41.748021	0.000203	2.026645	0.686646	-0.000081
1379	1.3711e+02	-14.9081	-41.828763	0.000203	2.026645	0.686646	-0.000081
1380	1.3721e+02	-14.9450	-41.982175	0.000385	3.850626	1.304627	-0.000154
1381	1.3731e+02	-14.9835	-42.058880	0.000193	1.925313	0.652314	-0.000077
1382	1.3741e+02	-15.0188	-42.179994	0.000304	3.039968	1.029969	-0.000122
1383	1.3751e+02	-15.0654	-42.240551	0.000152	1.519984	0.514984	-0.000061
1384	1.3761e+02	-15.0990	-42.305145	0.000162	1.621316	0.549317	-0.000065
1385	1.3771e+02	-15.1440	-42.442408	0.000345	3.445297	1.167298	-0.000138
1386	1.3781e+02	-15.1760	-42.531225	0.000223	2.229310	0.755311	-0.000089
1387	1.3791e+02	-15.2258	-42.636191	0.000263	2.634639	0.892640	-0.000105
1388	1.3801e+02	-15.2627	-42.749230	0.000284	2.837303	0.961304	-0.000114
1389	1.3811e+02	-15.2980	-42.829973	0.000203	2.026645	0.686646	-0.000081
1390	1.3821e+02	-15.3349	-42.910716	0.000203	2.026645	0.686646	-0.000081
1391	1.3831e+02	-15.3894	-43.031830	0.000304	3.039968	1.029969	-0.000122
1392	1.3840e+02	-15.4199	-43.120647	0.000223	2.229310	0.755311	-0.000089
1393	1.3850e+02	-15.4664	-43.213501	0.000233	2.330642	0.789643	-0.000093
1394	1.3860e+02	-15.5017	-43.294244	0.000203	2.026645	0.686646	-0.000081
1395	1.3870e+02	-15.5498	-43.403246	0.000274	2.735971	0.926972	-0.000110
1396	1.3880e+02	-15.5931	-43.459766	0.000142	1.418652	0.480652	-0.000057
1397	1.3890e+02	-15.6092	-43.576843	0.000294	2.938635	0.995637	-0.000118
1398	1.3900e+02	-15.6573	-43.669697	0.000233	2.330642	0.789643	-0.000093
1399	1.3910e+02	-15.6958	-43.786774	0.000294	2.938635	0.995637	-0.000118
1400	1.3920e+02	-15.7471	-43.883665	0.000243	2.431974	0.823975	-0.000097
1401	1.3930e+02	-15.7857	-43.936148	0.000132	1.317319	0.446320	-0.000053
1402	1.3940e+02	-15.8209	-44.081485	0.000365	3.647961	1.235963	-0.000146
1403	1.3950e+02	-15.8627	-44.162228	0.000203	2.026645	0.686646	-0.000081
1404	1.3960e+02	-15.9012	-44.242971	0.000203	2.026645	0.686646	-0.000081
1405	1.3970e+02	-15.9300	-44.339862	0.000243	2.431974	0.823975	-0.000097
1406	1.3980e+02	-15.9669	-44.465013	0.000314	3.141300	1.064301	-0.000126
1407	1.3990e+02	-16.0279	-44.557867	0.000233	2.330642	0.789643	-0.000093
1408	1.4000e+02	-16.0696	-44.622461	0.000162	1.621316	0.549317	-0.000065
1409	1.4010e+02	-16.1017	-44.751650	0.000324	3.242632	1.098634	-0.000130
1410	1.4020e+02	-16.1402	-44.856615	0.000263	2.634639	0.892640	-0.000105
1411	1.4029e+02	-16.1787	-44.909098	0.000132	1.317319	0.446320	-0.000053
1412	1.4039e+02	-16.2236	-45.014063	0.000263	2.634639	0.892640	-0.000105
1413	1.4049e+02	-16.2541	-45.102880	0.000223	2.229310	0.755311	-0.000089
1414	1.4059e+02	-16.3086	-45.179586	0.000193	1.925313	0.652314	-0.000077
1415	1.4069e+02	-16.3359	-45.292626	0.000284	2.837303	0.961304	-0.000114
1416	1.4079e+02	-16.3760	-45.349146	0.000142	1.418652	0.480652	-0.000057
1417	1.4089e+02	-16.4161	-45.482371	0.000334	3.343965	1.132966	-0.000134
1418	1.4099e+02	-16.4466	-45.595411	0.000284	2.837303	0.961304	-0.000114
1419	1.4109e+02	-16.4995	-45.668079	0.000182	1.823981	0.617981	-0.000073
1420	1.4119e+02	-16.5268	-45.756896	0.000223	2.229310	0.755311	-0.000089
1421	1.4129e+02	-16.5749	-45.829565	0.000182	1.823981	0.617981	-0.000073
1422	1.4139e+02	-16.6166	-45.926456	0.000243	2.431974	0.823975	-0.000097
1423	1.4149e+02	-16.6584	-45.991050	0.000162	1.621316	0.549317	-0.000065
1424	1.4159e+02	-16.6953	-46.087942	0.000243	2.431974	0.823975	-0.000097
1425	1.4169e+02	-16.7450	-46.261538	0.000436	4.357287	1.476289	-0.000174
1426	1.4179e+02	-16.7803	-46.314021	0.000132	1.317319	0.446320	-0.000053
1427	1.4189e+02	-16.8220	-46.406875	0.000233	2.330642	0.789643	-0.000093
1428	1.4199e+02	-16.8605	-46.471469	0.000162	1.621316	0.549317	-0.000065
1429	1.4209e+02	-16.9006	-46.572398	0.000253	2.533306	0.858307	-0.000101
1430	1.4219e+02	-16.9407	-46.673326	0.000253	2.533306	0.858307	-0.000101
1431	1.4228e+02	-16.9888	-46.786366	0.000284	2.837303	0.961304	-0.000114
1432	1.4238e+02	-17.0113	-46.867109	0.000203	2.026645	0.686646	-0.000081
1433	1.4248e+02	-17.0546	-46.951889	0.000213	2.127977	0.720978	-0.000085
1434	1.4258e+02	-17.0899	-47.068966	0.000294	2.938635	0.995637	-0.000118
1435	1.4268e+02	-17.1348	-47.153745	0.000213	2.127977	0.720978	-0.000085
1436	1.4278e+02	-17.1829	-47.258711	0.000263	2.634639	0.892640	-0.000105
1437	1.4288e+02	-17.2150	-47.371751	0.000284	2.837303	0.961304	-0.000114
1438	1.4298e+02	-17.2455	-47.428271	0.000142	1.418652	0.480652	-0.000057
1439	1.4308e+02	-17.2952	-47.504976	0.000193	1.925313	0.652314	-0.000077
1440	1.4318e+02	-17.3418	-47.601867	0.000243	2.431974	0.823975	-0.000097
1441	1.4328e+02	-17.3738	-47.714907	0.000284	2.837303	0.961304	-0.000114
1442	1.4338e+02	-17.4139	-47.783539	0.000172	1.722648	0.583649	-0.000069
1443	1.4348e+02	-17.4605	-47.876393	0.000233	2.330642	0.789643	-0.000093
1444	1.4358e+02	-17.4958	-48.037878	0.000405	4.053290	1.373292	-0.000162
1445	1.4368e+02	-17.5246	-48.106509	0.000172	1.722648	0.583649	-0.000069
1446	1.4378e+02	-17.5728	-48.187252	0.000203	2.026645	0.686646	-0.000081
1447	1.4388e+02	-17.6049	-48.296255	0.000274	2.735971	0.926972	-0.000110
1448	1.4398e+02	-17.6562	-48.421406	0.000314	3.141300	1.064301	-0.000126
1449	1.4408e+02	-17.6915	-48.518297	0.000243	2.431974	0.823975	-0.000097
1450	1.4418e+02	-17.7364	-48.574817	0.000142	1.418652	0.480652	-0.000057
1451	1.4428e+02	-17.7829	-48.724191	0.000375	3.749294	1.270295	-0.000150
1452	1.4437e+02	-17.8086	-48.817045	0.000233	2.330642	0.789643	-0.000093
1453	1.4447e+02	-17.8519	-48.873565	0.000142	1.418652	0.480652	-0.000057
1454	1.4457e+02	-17.8824	-49.031014	0.000395	3.951958	1.338960	-0.000158
1455	1.4467e+02	-17.9385	-49.087533	0.000142	1.418652	0.480652	-0.000057
1456	1.4477e+02	-17.9818	-49.184425	0.000243	2.431974	0.823975	-0.000097
1457	1.4487e+02	-18.0123	-49.285353	0.000253	2.533306	0.858307	-0.000101
1458	1.4497e+02	-18.0556	-49.353984	0.000172	1.722648	0.583649	-0.000069
1459	1.4507e+02	-18.0974	-49.479136	0.000314	3.141300	1.064301	-0.000126
1460	1.4517e+02	-18.1262	-49.580064	0.000253	2.533306	0.858307	-0.000101
1461	1.4527e+02	-18.1695	-49.689067	0.000274	2.735971	0.926972	-0.000110
1462	1.4537e+02	-18.2193	-49.765772	0.000193	1.925313	0.652314	-0.000077
1463	1.4547e+02	-18.2514	-49.890923	0.000314	3.141300	1.064301	-0.000126
1464	1.4557e+02	-18.2979	-49.975703	0.000213	2.127977	0.720978	-0.000085
1465	1.4567e+02	-18.3316	-50.080669	0.000263	2.634639	0.892640	-0.000105
1466	1.4577e+02	-18.3733	-50.201783	0.000304	3.039968	1.029969	-0.000122
1467	1.4587e+02	-18.4118	-50.290600	0.000223	2.229310	0.755311	-0.000089
1468	1.4597e+02	-18.4503	-50.371343	0.000203	2.026645	0.686646	-0.000081
1469	1.4607e+02	-18.4872	-50.508605	0.000345	3.445297	1.167298	-0.000138
1470	1.4617e+02	-18.5305	-50.577237	0.000172	1.722648	0.583649	-0.000069
1471	1.4626e+02	-18.5786	-50.674128	0.000243	2.431974	0.823975	-0.000097
1472	1.4636e+02	-18.6091	-50.787168	0.000284	2.837303	0.961304	-0.000114
1473	1.4646e+02	-18.6556	-50.908282	0.000304	3.039968	1.029969	-0.000122
1474	1.4656e+02	-18.6973	-50.980950	0.000182	1.823981	0.617981	-0.000073
1475	1.4666e+02	-18.7310	-51.122250	0.000355	3.546629	1.201630	-0.000142
1476	1.4676e+02	-18.7599	-51.211067	0.000223	2.229310	0.755311	-0.000089
1477	1.4686e+02	-18.8160	-51.275661	0.000162	1.621316	0.549317	-0.000065
1478	1.4696e+02	-18.8481	-51.408886	0.000334	3.343965	1.132966	-0.000134
1479	1.4706e+02	-18.8834	-51.489629	0.000203	2.026645	0.686646	-0.000081
1480	1.4716e+02	-18.9235	-51.626892	0.000345	3.445297	1.167298	-0.000138
1481	1.4726e+02	-18.9701	-51.707635	0.000203	2.026645	0.686646	-0.000081
1482	1.4736e+02	-19.0053	-51.808563	0.000253	2.533306	0.858307	-0.000101
1483	1.4746e+02	-19.0438	-51.893343	0.000213	2.127977	0.720978	-0.000085
1484	1.4756e+02	-19.0888	-52.030605	0.000345	3.445297	1.167298	-0.000138
1485	1.4766e+02	-19.1160	-52.139608	0.000274	2.735971	0.926972	-0.000110
1486	1.4776e+02	-19.1722	-52.220351	0.000203	2.026645	0.686646	-0.000081
1487	1.4786e+02	-19.2107	-52.313205	0.000233	2.330642	0.789643	-0.000093
1488	1.4796e+02	-19.2444	-52.422208	0.000274	2.735971	0.926972	-0.000110
1489	1.4806e+02	-19.2861	-52.535247	0.000284	2.837303	0.961304	-0.000114
1490	1.4816e+02	-19.3166	-52.579656	0.000111	1.114655	0.377655	-0.000045
1491	1.4825e+02	-19.3711	-52.737104	0.000395	3.951958	1.338960	-0.000158
1492	1.4835e+02	-19.4112	-52.817847	0.000203	2.026645	0.686646	-0.000081
1493	1.4845e+02	-19.4449	-52.910701	0.000233	2.330642	0.789643	-0.000093
1494	1.4855e+02	-19.4850	-53.031815	0.000304	3.039968	1.029969	-0.000122
1495	1.4865e+02	-19.5331	-53.128706	0.000243	2.431974	0.823975	-0.000097
1496	1.4875e+02	-19.5588	-53.241746	0.000284	2.837303	0.961304	-0.000114
1497	1.4885e+02	-19.5989	-53.362860	0.000304	3.039968	1.029969	-0.000122
1498	1.4895e+02	-19.6374	-53.467826	0.000263	2.634639	0.892640	-0.000105
1499	1.4905e+02	-19.6823	-53.576828	0.000274	2.735971	0.926972	-0.000110
1500	1.4915e+02	-19.7224	-53.685831	0.000274	2.735971	0.926972	-0.000110
1501	1.4925e+02	-19.7625	-53.782722	0.000243	2.431974	0.823975	-0.000097
1502	1.4935e+02	-19.8075	-53.899799	0.000294	2.938635	0.995637	-0.000118
1503	1.4945e+02	-19.8460	-53.976505	0.000193	1.925313	0.652314	-0.000077
1504	1.4955e+02	-19.8780	-54.109730	0.000334	3.343965	1.132966	-0.000134
1505	1.4965e+02	-19.9278	-54.214696	0.000263	2.634639	0.892640	-0.000105
1506	1.4975e+02	-19.9567	-54.372144	0.000395	3.951958	1.338960	-0.000158
1507	1.4985e+02	-20.0016	-54.440775	0.000172	1.722648	0.583649	-0.000069
1508	1.4995e+02	-19.9647	-54.396367	0.000111	1.114655	0.377655	0.000045
1509	1.5005e+02	-19.9214	-54.335810	0.000152	1.519984	0.514984	0.000061
1510	1.5015e+02	-19.8797	-54.295439	0.000101	1.013323	0.343323	0.000041
1511	1.5025e+02	-19.8492	-54.267179	0.000071	0.709326	0.240326	0.000028
1512	1.5034e+02	-19.8091	-54.186436	0.000203	2.026645	0.686646	0.000081
1513	1.5044e+02	-19.7690	-54.109730	0.000193	1.925313	0.652314	0.000077
1514	1.5054e+02	-19.7192	-54.069359	0.000101	1.013323	0.343323	0.000041
1515	1.5064e+02	-19.6887	-54.020913	0.000122	1.215987	0.411988	0.000049
1516	1.5074e+02	-19.6470	-53.960356	0.000152	1.519984	0.514984	0.000061
1517	1.5084e+02	-19.6021	-53.887688	0.000182	1.823981	0.617981	0.000073
1518	1.5094e+02	-19.5636	-53.863465	0.000061	0.607994	0.205994	0.000024
1519	1.5104e+02	-19.5235	-53.734277	0.000324	3.242632	1.098634	0.000130
1520	1.5114e+02	-19.4834	-53.726202	0.000020	0.202665	0.068665	0.000008
1521	1.5124e+02	-19.4481	-53.629311	0.000243	2.431974	0.823975	0.000097
1522	1.5134e+02	-19.4096	-53.548568	0.000203	2.026645	0.686646	0.000081
1523	1.5144e+02	-19.3615	-53.504160	0.000111	1.114655	0.377655	0.000045
1524	1.5154e+02	-19.3310	-53.451677	0.000132	1.317319	0.446320	0.000053
1525	1.5164e+02	-19.2765	-53.399194	0.000132	1.317319	0.446320	0.000053
1526	1.5174e+02	-19.2460	-53.318452	0.000203	2.026645	0.686646	0.000081
1527	1.5184e+02	-19.2139	-53.286155	0.000081	0.810658	0.274658	0.000032
1528	1.5194e+02	-19.1642	-53.169078	0.000294	2.938635	0.995637	0.000118
1529	1.5204e+02	-19.1385	-53.096409	0.000182	1.823981	0.617981	0.000073
1530	1.5214e+02	-19.0920	-53.064112	0.000081	0.810658	0.274658	0.000032
1531	1.5224e+02	-19.0535	-52.971258	0.000233	2.330642	0.789643	0.000093
1532	1.5233e+02	-19.0005	-52.886478	0.000213	2.127977	0.720978	0.000085
1533	1.5243e+02	-18.9668	-52.825921	0.000152	1.519984	0.514984	0.000061
1534	1.5253e+02	-18.9412	-52.737104	0.000223	2.229310	0.755311	0.000089
1535	1.5263e+02	-18.8963	-52.668473	0.000172	1.722648	0.583649	0.000069
1536	1.5273e+02	-18.8417	-52.583693	0.000213	2.127977	0.720978	0.000085
1537	1.5283e+02	-18.8096	-52.519099	0.000162	1.621316	0.549317	0.000065
1538	1.5293e+02	-18.7727	-52.438356	0.000203	2.026645	0.686646	0.000081
1539	1.5303e+02	-18.7246	-52.389910	0.000122	1.215987	0.411988	0.000049
1540	1.5313e+02	-18.6861	-52.297056	0.000233	2.330642	0.789643	0.000093
1541	1.5323e+02	-18.6524	-52.240536	0.000142	1.418652	0.480652	0.000057
1542	1.5333e+02	-18.6171	-52.192091	0.000122	1.215987	0.411988	0.000049
1543	1.5343e+02	-18.5674	-52.115385	0.000193	1.925313	0.652314	0.000077
1544	1.5353e+02	-18.5321	-52.038680	0.000193	1.925313	0.652314	0.000077
1545	1.5363e+02	-18.5000	-51.937751	0.000253	2.533306	0.858307	0.000101
1546	1.5373e+02	-18.4535	-51.844897	0.000233	2.330642	0.789643	0.000093
1547	1.5383e+02	-18.4150	-51.804526	0.000101	1.013323	0.343323	0.000041
1548	1.5393e+02	-18.3749	-51.731857	0.000182	1.823981	0.617981	0.000073
1549	1.5403e+02	-18.3284	-51.659189	0.000182	1.823981	0.617981	0.000073
1550	1.5413e+02	-18.2818	-51.574409	0.000213	2.127977	0.720978	0.000085
1551	1.5422e+02	-18.2530	-51.441184	0.000334	3.343965	1.132966	0.000134
1552	1.5432e+02	-18.2129	-51.412924	0.000071	0.709326	0.240326	0.000028
1553	1.5442e+02	-18.1663	-51.324107	0.000223	2.229310	0.755311	0.000089
1554	1.5452e+02	-18.1294	-51.263550	0.000152	1.519984	0.514984	0.000061
1555	1.5462e+02	-18.0957	-51.154547	0.000274	2.735971	0.926972	0.000110
1556	1.5472e+02	-18.0605	-51.069767	0.000213	2.127977	0.720978	0.000085
1557	1.5482e+02	-18.0091	-51.017284	0.000132	1.317319	0.446320	0.000053
1558	1.5492e+02	-17.9658	-50.952690	0.000162	1.621316	0.549317	0.000065
1559	1.5502e+02	-17.9353	-50.847725	0.000263	2.634639	0.892640	0.000105
1560	1.5512e+02	-17.8904	-50.783130	0.000162	1.621316	0.549317	0.000065
1561	1.5522e+02	-17.8503	-50.726611	0.000142	1.418652	0.480652	0.000057
1562	1.5532e+02	-17.8102	-50.645868	0.000203	2.026645	0.686646	0.000081
1563	1.5542e+02	-17.7765	-50.528791	0.000294	2.938635	0.995637	0.000118
1564	1.5552e+02	-17.7300	-50.448048	0.000203	2.026645	0.686646	0.000081
1565	1.5562e+02	-17.6867	-50.375380	0.000182	1.823981	0.617981	0.000073
1566	1.5572e+02	-17.6546	-50.294637	0.000203	2.026645	0.686646	0.000081
1567	1.5582e+02	-17.6193	-50.250229	0.000111	1.114655	0.377655	0.000045
1568	1.5592e+02	-17.5728	-50.141226	0.000274	2.735971	0.926972	0.000110
1569	1.5602e+02	-17.5375	-50.028186	0.000284	2.837303	0.961304	0.000114
1570	1.5612e+02	-17.4958	-50.008000	0.000051	0.506661	0.171661	0.000020
1571	1.5622e+02	-17.4557	-49.919183	0.000223	2.229310	0.755311	0.000089
1572	1.5631e+02	-17.4139	-49.822292	0.000243	2.431974	0.823975	0.000097
1573	1.5641e+02	-17.3754	-49.721364	0.000253	2.533306	0.858307	0.000101
1574	1.5651e+02	-17.3321	-49.648695	0.000182	1.823981	0.617981	0.000073
1575	1.5661e+02	-17.3017	-49.571990	0.000193	1.925313	0.652314	0.000077
1576	1.5671e+02	-17.2567	-49.511433	0.000152	1.519984	0.514984	0.000061
1577	1.5681e+02	-17.2182	-49.402430	0.000274	2.735971	0.926972	0.000110
1578	1.5691e+02	-17.1765	-49.325724	0.000193	1.925313	0.652314	0.000077
1579	1.5701e+02	-17.1364	-49.257093	0.000172	1.722648	0.583649	0.000069
1580	1.5711e+02	-17.0883	-49.140016	0.000294	2.938635	0.995637	0.000118
1581	1.5721e+02	-17.0594	-49.111756	0.000071	0.709326	0.240326	0.000028
1582	1.5731e+02	-17.0193	-48.962382	0.000375	3.749294	1.270295	0.000150
1583	1.5741e+02	-16.9712	-48.865491	0.000243	2.431974	0.823975	0.000097
1584	1.5751e+02	-16.9375	-48.825120	0.000101	1.013323	0.343323	0.000041
1585	1.5761e+02	-16.8974	-48.695931	0.000324	3.242632	1.098634	0.000130
1586	1.5771e+02	-16.8525	-48.655560	0.000101	1.013323	0.343323	0.000041
1587	1.5781e+02	-16.8124	-48.607114	0.000122	1.215987	0.411988	0.000049
1588	1.5791e+02	-16.7851	-48.461777	0.000365	3.647961	1.235963	0.000146
1589	1.5801e+02	-16.7338	-48.372960	0.000223	2.229310	0.755311	0.000089
1590	1.5811e+02	-16.6969	-48.316441	0.000142	1.418652	0.480652	0.000057
1591	1.5821e+02	-16.6551	-48.207438	0.000274	2.735971	0.926972	0.000110
1592	1.5830e+02	-16.6215	-48.106509	0.000253	2.533306	0.858307	0.000101
1593	1.5840e+02	-16.5733	-48.029804	0.000193	1.925313	0.652314	0.000077
1594	1.5850e+02	-16.5284	-47.920801	0.000274	2.735971	0.926972	0.000110
1595	1.5860e+02	-16.4867	-47.827947	0.000233	2.330642	0.789643	0.000093
1596	1.5870e+02	-16.4610	-47.775464	0.000132	1.317319	0.446320	0.000053
1597	1.5880e+02	-16.4161	-47.678573	0.000243	2.431974	0.823975	0.000097
1598	1.5890e+02	-16.3808	-47.622053	0.000142	1.418652	0.480652	0.000057
1599	1.5900e+02	-16.3423	-47.549385	0.000182	1.823981	0.617981	0.000073
1600	1.5910e+02	-16.3006	-47.448456	0.000253	2.533306	0.858307	0.000101
1601	1.5920e+02	-16.2541	-47.351565	0.000243	2.431974	0.823975	0.000097
1602	1.5930e+02	-16.2140	-47.274859	0.000193	1.925313	0.652314	0.000077
1603	1.5940e+02	-16.1755	-47.198154	0.000193	1.925313	0.652314	0.000077
1604	1.5950e+02	-16.1466	-47.081077	0.000294	2.938635	0.995637	0.000118
1605	1.5960e+02	-16.0985	-47.028594	0.000132	1.317319	0.446320	0.000053
1606	1.5970e+02	-16.0584	-46.927666	0.000253	2.533306	0.858307	0.000101
1607	1.5980e+02	-16.0231	-46.838849	0.000223	2.229310	0.755311	0.000089
1608	1.5990e+02	-15.9862	-46.709660	0.000324	3.242632	1.098634	0.000130
1609	1.6000e+02	-15.9445	-46.701586	0.000020	0.202665	0.068665	0.000008
1610	1.6010e+02	-15.8996	-46.604695	0.000243	2.431974	0.823975	0.000097
1611	1.6019e+02	-15.8610	-46.519915	0.000213	2.127977	0.720978	0.000085
1612	1.6029e+02	-15.8193	-46.447247	0.000182	1.823981	0.617981	0.000073
1613	1.6039e+02	-15.7776	-46.358430	0.000223	2.229310	0.755311	0.000089
1614	1.6049e+02	-15.7471	-46.253464	0.000263	2.634639	0.892640	0.000105
1615	1.6059e+02	-15.6894	-46.176759	0.000193	1.925313	0.652314	0.000077
1616	1.6069e+02	-15.6621	-46.075830	0.000253	2.533306	0.858307	0.000101
1617	1.6079e+02	-15.6268	-46.011236	0.000162	1.621316	0.549317	0.000065
1618	1.6089e+02	-15.5915	-45.946642	0.000162	1.621316	0.549317	0.000065
1619	1.6099e+02	-15.5402	-45.817453	0.000324	3.242632	1.098634	0.000130
1620	1.6109e+02	-15.5017	-45.748822	0.000172	1.722648	0.583649	0.000069
1621	1.6119e+02	-15.4696	-45.672117	0.000193	1.925313	0.652314	0.000077
1622	1.6129e+02	-15.4183	-45.611560	0.000152	1.519984	0.514984	0.000061
1623	1.6139e+02	-15.3814	-45.486408	0.000314	3.141300	1.064301	0.000126
1624	1.6149e+02	-15.3445	-45.442000	0.000111	1.114655	0.377655	0.000045
1625	1.6159e+02	-15.2980	-45.320886	0.000304	3.039968	1.029969	0.000122
1626	1.6169e+02	-15.2579	-45.228032	0.000233	2.330642	0.789643	0.000093
1627	1.6179e+02	-15.2274	-45.179586	0.000122	1.215987	0.411988	0.000049
1628	1.6189e+02	-15.1809	-45.086732	0.000233	2.330642	0.789643	0.000093
1629	1.6199e+02	-15.1440	-44.989841	0.000243	2.431974	0.823975	0.000097
1630	1.6209e+02	-15.1006	-44.884875	0.000263	2.634639	0.892640	0.000105
1631	1.6219e+02	-15.0670	-44.804132	0.000203	2.026645	0.686646	0.000081
1632	1.6228e+02	-15.0268	-44.755687	0.000122	1.215987	0.411988	0.000049
1633	1.6238e+02	-14.9787	-44.658796	0.000243	2.431974	0.823975	0.000097
1634	1.6248e+02	-14.9434	-44.582090	0.000193	1.925313	0.652314	0.000077
1635	1.6258e+02	-14.9081	-44.469050	0.000284	2.837303	0.961304	0.000114
1636	1.6268e+02	-14.8664	-44.408493	0.000152	1.519984	0.514984	0.000061
1637	1.6278e+02	-14.8215	-44.331788	0.000193	1.925313	0.652314	0.000077
1638	1.6288e+02	-14.7814	-44.230859	0.000253	2.533306	0.858307	0.000101
1639	1.6298e+02	-14.7509	-44.158191	0.000182	1.823981	0.617981	0.000073
1640	1.6308e+02	-14.7092	-44.049188	0.000274	2.735971	0.926972	0.000110
1641	1.6318e+02	-14.6643	-44.008817	0.000101	1.013323	0.343323	0.000041
1642	1.6328e+02	-14.6226	-43.879628	0.000324	3.242632	1.098634	0.000130
1643	1.6338e+02	-14.5825	-43.819071	0.000152	1.519984	0.514984	0.000061
1644	1.6348e+02	-14.5520	-43.714106	0.000263	2.634639	0.892640	0.000105
1645	1.6358e+02	-14.5007	-43.621252	0.000233	2.330642	0.789643	0.000093
1646	1.6368e+02	-14.4622	-43.564732	0.000142	1.418652	0.480652	0.000057
1647	1.6378e+02	-14.4301	-43.479952	0.000213	2.127977	0.720978	0.000085
1648	1.6388e+02	-14.3916	-43.399209	0.000203	2.026645	0.686646	0.000081
1649	1.6398e+02	-14.3450	-43.310392	0.000223	2.229310	0.755311	0.000089
1650	1.6408e+02	-14.3049	-43.189278	0.000304	3.039968	1.029969	0.000122
1651	1.6418e+02	-14.2680	-43.104498	0.000213	2.127977	0.720978	0.000085
1652	1.6427e+02	-14.2247	-43.039904	0.000162	1.621316	0.549317	0.000065
1653	1.6437e+02	-14.1878	-42.987421	0.000132	1.317319	0.446320	0.000053
1654	1.6447e+02	-14.1493	-42.834010	0.000385	3.850626	1.304627	0.000154
1655	1.6457e+02	-14.1012	-42.745193	0.000223	2.229310	0.755311	0.000089
1656	1.6467e+02	-14.0643	-42.660413	0.000213	2.127977	0.720978	0.000085
1657	1.6477e+02	-14.0274	-42.611968	0.000122	1.215987	0.411988	0.000049
1658	1.6487e+02	-13.9825	-42.519114	0.000233	2.330642	0.789643	0.000093
1659	1.6497e+02	-13.9456	-42.398000	0.000304	3.039968	1.029969	0.000122
1660	1.6507e+02	-13.9135	-42.317257	0.000203	2.026645	0.686646	0.000081
1661	1.6517e+02	-13.8654	-42.256700	0.000152	1.519984	0.514984	0.000061
1662	1.6527e+02	-13.8301	-42.155771	0.000253	2.533306	0.858307	0.000101
1663	1.6537e+02	-13.7948	-42.123474	0.000081	0.810658	0.274658	0.000032
1664	1.6547e+02	-13.7547	-42.010434	0.000284	2.837303	0.961304	0.000114
1665	1.6557e+02	-13.7130	-41.949877	0.000152	1.519984	0.514984	0.000061
1666	1.6567e+02	-13.6777	-41.869135	0.000203	2.026645	0.686646	0.000081
1667	1.6577e+02	-13.6264	-41.756095	0.000284	2.837303	0.961304	0.000114
1668	1.6587e+02	-13.5879	-41.651129	0.000263	2.634639	0.892640	0.000105
1669	1.6597e+02	-13.5510	-41.570387	0.000203	2.026645	0.686646	0.000081
1670	1.6607e+02	-13.5076	-41.469458	0.000253	2.533306	0.858307	0.000101
1671	1.6616e+02	-13.4707	-41.384678	0.000213	2.127977	0.720978	0.000085
1672	1.6626e+02	-13.4274	-41.307973	0.000193	1.925313	0.652314	0.000077
1673	1.6636e+02	-13.3841	-41.215119	0.000233	2.330642	0.789643	0.000093
1674	1.6646e+02	-13.3520	-41.110153	0.000263	2.634639	0.892640	0.000105
1675	1.6656e+02	-13.3119	-41.045559	0.000162	1.621316	0.549317	0.000065
1676	1.6666e+02	-13.2734	-40.980965	0.000162	1.621316	0.549317	0.000065
1677	1.6676e+02	-13.2333	-40.888111	0.000233	2.330642	0.789643	0.000093
1678	1.6686e+02	-13.1948	-40.819479	0.000172	1.722648	0.583649	0.000069
1679	1.6696e+02	-13.1467	-40.706440	0.000284	2.837303	0.961304	0.000114
1680	1.6706e+02	-13.1066	-40.662031	0.000111	1.114655	0.377655	0.000045
1681	1.6716e+02	-13.0633	-40.593400	0.000172	1.722648	0.583649	0.000069
1682	1.6726e+02	-13.0216	-40.480360	0.000284	2.837303	0.961304	0.000114
1683	1.6736e+02	-12.9895	-40.359246	0.000304	3.039968	1.029969	0.000122
1684	1.6746e+02	-12.9590	-40.274466	0.000213	2.127977	0.720978	0.000085
1685	1.6756e+02	-12.8996	-40.169501	0.000263	2.634639	0.892640	0.000105
1686	1.6766e+02	-12.8756	-40.088758	0.000203	2.026645	0.686646	0.000081
1687	1.6776e+02	-12.8274	-40.016089	0.000182	1.823981	0.617981	0.000073
1688	1.6786e+02	-12.8002	-39.947458	0.000172	1.722648	0.583649	0.000069
1689	1.6796e+02	-12.7601	-39.834418	0.000284	2.837303	0.961304	0.000114
1690	1.6806e+02	-12.7151	-39.697156	0.000345	3.445297	1.167298	0.000138
1691	1.6816e+02	-12.6783	-39.656784	0.000101	1.013323	0.343323	0.000041
1692	1.6825e+02	-12.6365	-39.543745	0.000284	2.837303	0.961304	0.000114
1693	1.6835e+02	-12.5916	-39.479150	0.000162	1.621316	0.549317	0.000065
1694	1.6845e+02	-12.5547	-39.362073	0.000294	2.938635	0.995637	0.000118
1695	1.6855e+02	-12.5098	-39.281331	0.000203	2.026645	0.686646	0.000081
1696	1.6865e+02	-12.4777	-39.200588	0.000203	2.026645	0.686646	0.000081
1697	1.6875e+02	-12.4408	-39.103697	0.000243	2.431974	0.823975	0.000097
1698	1.6885e+02	-12.4007	-39.035065	0.000172	1.722648	0.583649	0.000069
1699	1.6895e+02	-12.3606	-38.909914	0.000314	3.141300	1.064301	0.000126
1700	1.6905e+02	-12.3125	-38.796874	0.000284	2.837303	0.961304	0.000114
1701	1.6915e+02	-12.2772	-38.687872	0.000274	2.735971	0.926972	0.000110
1702	1.6925e+02	-12.2483	-38.659612	0.000071	0.709326	0.240326	0.000028
1703	1.6935e+02	-12.1954	-38.510238	0.000375	3.749294	1.270295	0.000150
1704	1.6945e+02	-12.1553	-38.429495	0.000203	2.026645	0.686646	0.000081
1705	1.6955e+02	-12.1104	-38.308381	0.000304	3.039968	1.029969	0.000122
1706	1.6965e+02	-12.0799	-38.239750	0.000172	1.722648	0.583649	0.000069
1707	1.6975e+02	-12.0398	-38.171118	0.000172	1.722648	0.583649	0.000069
1708	1.6985e+02	-11.9965	-38.037893	0.000334	3.343965	1.132966	0.000134
1709	1.6995e+02	-11.9499	-37.977336	0.000152	1.519984	0.514984	0.000061
1710	1.7005e+02	-11.9146	-37.860259	0.000294	2.938635	0.995637	0.000118
1711	1.7015e+02	-11.8777	-37.755293	0.000263	2.634639	0.892640	0.000105
1712	1.7024e+02	-11.8296	-37.666476	0.000223	2.229310	0.755311	0.000089
1713	1.7034e+02	-11.8039	-37.553437	0.000284	2.837303	0.961304	0.000114
1714	1.7044e+02	-11.7574	-37.496917	0.000142	1.418652	0.480652	0.000057
1715	1.7054e+02	-11.7141	-37.404063	0.000233	2.330642	0.789643	0.000093
1716	1.7064e+02	-11.6660	-37.307171	0.000243	2.431974	0.823975	0.000097
1717	1.7074e+02	-11.6387	-37.198169	0.000274	2.735971	0.926972	0.000110
1718	1.7084e+02	-11.5922	-37.101277	0.000243	2.431974	0.823975	0.000097
1719	1.7094e+02	-11.5569	-37.016498	0.000213	2.127977	0.720978	0.000085
1720	1.7104e+02	-11.5120	-36.891346	0.000314	3.141300	1.064301	0.000126
1721	1.7114e+02	-11.4863	-36.778307	0.000284	2.837303	0.961304	0.000114
1722	1.7124e+02	-11.4398	-36.661230	0.000294	2.938635	0.995637	0.000118
1723	1.7134e+02	-11.3997	-36.616821	0.000111	1.114655	0.377655	0.000045
1724	1.7144e+02	-11.3644	-36.515893	0.000253	2.533306	0.858307	0.000101
1725	1.7154e+02	-11.3179	-36.402853	0.000284	2.837303	0.961304	0.000114
1726	1.7164e+02	-11.2890	-36.293850	0.000274	2.735971	0.926972	0.000110
1727	1.7174e+02	-11.2457	-36.192922	0.000253	2.533306	0.858307	0.000101
1728	1.7184e+02	-11.1959	-36.132365	0.000152	1.519984	0.514984	0.000061
1729	1.7194e+02	-11.1606	-36.011251	0.000304	3.039968	1.029969	0.000122
1730	1.7204e+02	-11.1270	-35.942619	0.000172	1.722648	0.583649	0.000069
1731	1.7213e+02	-11.0885	-35.833617	0.000274	2.735971	0.926972	0.000110
1732	1.7223e+02	-11.0435	-35.744800	0.000223	2.229310	0.755311	0.000089
1733	1.7233e+02	-10.9922	-35.660020	0.000213	2.127977	0.720978	0.000085
1734	1.7243e+02	-10.9569	-35.526794	0.000334	3.343965	1.132966	0.000134
1735	1.7253e+02	-10.9184	-35.425866	0.000253	2.533306	0.858307	0.000101
1736	1.7263e+02	-10.8831	-35.300715	0.000314	3.141300	1.064301	0.000126
1737	1.7273e+02	-10.8366	-35.248232	0.000132	1.317319	0.446320	0.000053
1738	1.7283e+02	-10.8013	-35.119044	0.000324	3.242632	1.098634	0.000130
1739	1.7293e+02	-10.7628	-35.018115	0.000253	2.533306	0.858307	0.000101
1740	1.7303e+02	-10.7147	-34.957558	0.000152	1.519984	0.514984	0.000061
1741	1.7313e+02	-10.6810	-34.828370	0.000324	3.242632	1.098634	0.000130
1742	1.7323e+02	-10.6457	-34.727442	0.000253	2.533306	0.858307	0.000101
1743	1.7333e+02	-10.5976	-34.638625	0.000223	2.229310	0.755311	0.000089
1744	1.7343e+02	-10.5575	-34.509436	0.000324	3.242632	1.098634	0.000130
1745	1.7353e+02	-10.5190	-34.408508	0.000253	2.533306	0.858307	0.000101
1746	1.7363e+02	-10.4740	-34.327765	0.000203	2.026645	0.686646	0.000081
1747	1.7373e+02	-10.4371	-34.238948	0.000223	2.229310	0.755311	0.000089
1748	1.7383e+02	-10.3954	-34.117834	0.000304	3.039968	1.029969	0.000122
1749	1.7393e+02	-10.3617	-34.012869	0.000263	2.634639	0.892640	0.000105
1750	1.7403e+02	-10.3264	-33.932126	0.000203	2.026645	0.686646	0.000081
1751	1.7413e+02	-10.2783	-33.794863	0.000345	3.445297	1.167298	0.000138
1752	1.7422e+02	-10.2366	-33.697972	0.000243	2.431974	0.823975	0.000097
1753	1.7432e+02	-10.1917	-33.588969	0.000274	2.735971	0.926972	0.000110
1754	1.7442e+02	-10.1612	-33.479967	0.000274	2.735971	0.926972	0.000110
1755	1.7452e+02	-10.1211	-33.403261	0.000193	1.925313	0.652314	0.000077
1756	1.7462e+02	-10.0826	-33.290221	0.000284	2.837303	0.961304	0.000114
1757	1.7472e+02	-10.0425	-33.144884	0.000365	3.647961	1.235963	0.000146
1758	1.7482e+02	-9.9992	-33.068179	0.000193	1.925313	0.652314	0.000077
1759	1.7492e+02	-9.9703	-32.959176	0.000274	2.735971	0.926972	0.000110
1760	1.7502e+02	-9.9270	-32.854211	0.000263	2.634639	0.892640	0.000105
1761	1.7512e+02	-9.8901	-32.761357	0.000233	2.330642	0.789643	0.000093
1762	1.7522e+02	-9.8436	-32.656391	0.000263	2.634639	0.892640	0.000105
1763	1.7532e+02	-9.8067	-32.559500	0.000243	2.431974	0.823975	0.000097
1764	1.7542e+02	-9.7698	-32.462608	0.000243	2.431974	0.823975	0.000097
1765	1.7552e+02	-9.7233	-32.325346	0.000345	3.445297	1.167298	0.000138
1766	1.7562e+02	-9.6864	-32.248640	0.000193	1.925313	0.652314	0.000077
1767	1.7572e+02	-9.6318	-32.135600	0.000284	2.837303	0.961304	0.000114
1768	1.7582e+02	-9.6013	-32.018524	0.000294	2.938635	0.995637	0.000118
1769	1.7592e+02	-9.5628	-31.937781	0.000203	2.026645	0.686646	0.000081
1770	1.7602e+02	-9.5179	-31.804555	0.000334	3.343965	1.132966	0.000134
1771	1.7612e+02	-9.4810	-31.695553	0.000274	2.735971	0.926972	0.000110
1772	1.7621e+02	-9.4505	-31.602699	0.000233	2.330642	0.789643	0.000093
1773	1.7631e+02	-9.4056	-31.493696	0.000274	2.735971	0.926972	0.000110
1774	1.7641e+02	-9.3655	-31.408916	0.000213	2.127977	0.720978	0.000085
1775	1.7651e+02	-9.3366	-31.328173	0.000203	2.026645	0.686646	0.000081
1776	1.7661e+02	-9.2901	-31.227245	0.000253	2.533306	0.858307	0.000101
1777	1.7671e+02	-9.2516	-31.138428	0.000223	2.229310	0.755311	0.000089
1778	1.7681e+02	-9.2115	-31.033462	0.000263	2.634639	0.892640	0.000105
1779	1.7691e+02	-9.1746	-30.900237	0.000334	3.343965	1.132966	0.000134
1780	1.7701e+02	-9.1265	-30.815457	0.000213	2.127977	0.720978	0.000085
1781	1.7711e+02	-9.0928	-30.726640	0.000223	2.229310	0.755311	0.000089
1782	1.7721e+02	-9.0366	-30.605526	0.000304	3.039968	1.029969	0.000122
1783	1.7731e+02	-9.0094	-30.500561	0.000263	2.634639	0.892640	0.000105
1784	1.7741e+02	-8.9500	-30.355224	0.000365	3.647961	1.235963	0.000146
1785	1.7751e+02	-8.9324	-30.298704	0.000142	1.418652	0.480652	0.000057
1786	1.7761e+02	-8.8907	-30.209887	0.000223	2.229310	0.755311	0.000089
1787	1.7771e+02	-8.8425	-30.068587	0.000355	3.546629	1.201630	0.000142
1788	1.7781e+02	-8.8104	-29.987844	0.000203	2.026645	0.686646	0.000081
1789	1.7791e+02	-8.7671	-29.886916	0.000253	2.533306	0.858307	0.000101
1790	1.7801e+02	-8.7399	-29.745616	0.000355	3.546629	1.201630	0.000142
1791	1.7810e+02	-8.6821	-29.644688	0.000253	2.533306	0.858307	0.000101
1792	1.7820e+02	-8.6436	-29.592205	0.000132	1.317319	0.446320	0.000053
1793	1.7830e+02	-8.6115	-29.471091	0.000304	3.039968	1.029969	0.000122
1794	1.7840e+02	-8.5618	-29.378237	0.000233	2.330642	0.789643	0.000093
1795	1.7850e+02	-8.5249	-29.253086	0.000314	3.141300	1.064301	0.000126
1796	1.7860e+02	-8.4912	-29.156194	0.000243	2.431974	0.823975	0.000097
1797	1.7870e+02	-8.4431	-29.047192	0.000274	2.735971	0.926972	0.000110
1798	1.7880e+02	-8.4094	-28.994709	0.000132	1.317319	0.446320	0.000053
1799	1.7890e+02	-8.3661	-28.877632	0.000294	2.938635	0.995637	0.000118
1800	1.7900e+02	-8.3356	-28.716147	0.000405	4.053290	1.373292	0.000162
1801	1.7910e+02	-8.2907	-28.607144	0.000274	2.735971	0.926972	0.000110
1802	1.7920e+02	-8.2522	-28.562735	0.000111	1.114655	0.377655	0.000045
1803	1.7930e+02	-8.2008	-28.445658	0.000294	2.938635	0.995637	0.000118
1804	1.7940e+02	-8.1671	-28.332619	0.000284	2.837303	0.961304	0.000114
1805	1.7950e+02	-8.1254	-28.207467	0.000314	3.141300	1.064301	0.000126
1806	1.7960e+02	-8.0853	-28.134799	0.000182	1.823981	0.617981	0.000073
1807	1.7970e+02	-8.0549	-28.017722	0.000294	2.938635	0.995637	0.000118
1808	1.7980e+02	-8.0099	-27.916794	0.000253	2.533306	0.858307	0.000101
1809	1.7990e+02	-7.9778	-27.840088	0.000193	1.925313	0.652314	0.000077
1810	1.8000e+02	-7.9313	-27.686677	0.000385	3.850626	1.304627	0.000154
1811	1.8009e+02	-7.8896	-27.634194	0.000132	1.317319	0.446320	0.000053
1812	1.8019e+02	-7.8495	-27.488857	0.000365	3.647961	1.235963	0.000146
1813	1.8029e+02	-7.8142	-27.391966	0.000243	2.431974	0.823975	0.000097
1814	1.8039e+02	-7.7645	-27.303149	0.000223	2.229310	0.755311	0.000089
1815	1.8049e+02	-7.7260	-27.186072	0.000294	2.938635	0.995637	0.000118
1816	1.8059e+02	-7.6875	-27.068995	0.000294	2.938635	0.995637	0.000118
1817	1.8069e+02	-7.6554	-26.959992	0.000274	2.735971	0.926972	0.000110
1818	1.8079e+02	-7.6105	-26.911547	0.000122	1.215987	0.411988	0.000049
1819	1.8089e+02	-7.5752	-26.770247	0.000355	3.546629	1.201630	0.000142
1820	1.8099e+02	-7.5303	-26.681430	0.000223	2.229310	0.755311	0.000089
1821	1.8109e+02	-7.5014	-26.592613	0.000223	2.229310	0.755311	0.000089
1822	1.8119e+02	-7.4533	-26.467462	0.000314	3.141300	1.064301	0.000126
1823	1.8129e+02	-7.4180	-26.342311	0.000314	3.141300	1.064301	0.000126
1824	1.8139e+02	-7.3682	-26.253494	0.000223	2.229310	0.755311	0.000089
1825	1.8149e+02	-7.3313	-26.132380	0.000304	3.039968	1.029969	0.000122
1826	1.8159e+02	-7.2993	-26.007228	0.000314	3.141300	1.064301	0.000126
1827	1.8169e+02	-7.2543	-25.918411	0.000223	2.229310	0.755311	0.000089
1828	1.8179e+02	-7.2126	-25.809409	0.000274	2.735971	0.926972	0.000110
1829	1.8189e+02	-7.1773	-25.740777	0.000172	1.722648	0.583649	0.000069
1830	1.8199e+02	-7.1356	-25.623701	0.000294	2.938635	0.995637	0.000118
1831	1.8209e+02	-7.0971	-25.502586	0.000304	3.039968	1.029969	0.000122
1832	1.8218e+02	-7.0522	-25.401658	0.000253	2.533306	0.858307	0.000101
1833	1.8228e+02	-7.0169	-25.304767	0.000243	2.431974	0.823975	0.000097
1834	1.8238e+02	-6.9752	-25.219987	0.000213	2.127977	0.720978	0.000085
1835	1.8248e+02	-6.9415	-25.106947	0.000284	2.837303	0.961304	0.000114
1836	1.8258e+02	-6.8950	-25.006019	0.000253	2.533306	0.858307	0.000101
1837	1.8268e+02	-6.8613	-24.901053	0.000263	2.634639	0.892640	0.000105
1838	1.8278e+02	-6.8100	-24.771865	0.000324	3.242632	1.098634	0.000130
1839	1.8288e+02	-6.7699	-24.719382	0.000132	1.317319	0.446320	0.000053
1840	1.8298e+02	-6.7314	-24.582120	0.000345	3.445297	1.167298	0.000138
1841	1.8308e+02	-6.6945	-24.477154	0.000263	2.634639	0.892640	0.000105
1842	1.8318e+02	-6.6511	-24.368151	0.000274	2.735971	0.926972	0.000110
1843	1.8328e+02	-6.6207	-24.251074	0.000294	2.938635	0.995637	0.000118
1844	1.8338e+02	-6.5790	-24.158220	0.000233	2.330642	0.789643	0.000093
1845	1.8348e+02	-6.5372	-24.073440	0.000213	2.127977	0.720978	0.000085
1846	1.8358e+02	-6.4955	-23.960401	0.000284	2.837303	0.961304	0.000114
1847	1.8368e+02	-6.4570	-23.851398	0.000274	2.735971	0.926972	0.000110
1848	1.8378e+02	-6.4201	-23.766618	0.000213	2.127977	0.720978	0.000085
1849	1.8388e+02	-6.3784	-23.621281	0.000365	3.647961	1.235963	0.000146
1850	1.8398e+02	-6.3447	-23.504204	0.000294	2.938635	0.995637	0.000118
1851	1.8407e+02	-6.2966	-23.427499	0.000193	1.925313	0.652314	0.000077
1852	1.8417e+02	-6.2629	-23.334645	0.000233	2.330642	0.789643	0.000093
1853	1.8427e+02	-6.2196	-23.217568	0.000294	2.938635	0.995637	0.000118
1854	1.8437e+02	-6.1811	-23.100491	0.000294	2.938635	0.995637	0.000118
1855	1.8447e+02	-6.1442	-22.963228	0.000345	3.445297	1.167298	0.000138
1856	1.8457e+02	-6.1057	-22.890560	0.000182	1.823981	0.617981	0.000073
1857	1.8467e+02	-6.0656	-22.741186	0.000375	3.749294	1.270295	0.000150
1858	1.8477e+02	-6.0207	-22.676591	0.000162	1.621316	0.549317	0.000065
1859	1.8487e+02	-5.9822	-22.527217	0.000375	3.749294	1.270295	0.000150
1860	1.8497e+02	-5.9357	-22.434363	0.000233	2.330642	0.789643	0.000093
1861	1.8507e+02	-5.8988	-22.329398	0.000263	2.634639	0.892640	0.000105
1862	1.8517e+02	-5.8651	-22.208284	0.000304	3.039968	1.029969	0.000122
1863	1.8527e+02	-5.8121	-22.111392	0.000243	2.431974	0.823975	0.000097
1864	1.8537e+02	-5.7833	-21.962018	0.000375	3.749294	1.270295	0.000150
1865	1.8547e+02	-5.7480	-21.885313	0.000193	1.925313	0.652314	0.000077
1866	1.8557e+02	-5.7014	-21.760162	0.000314	3.141300	1.064301	0.000126
1867	1.8567e+02	-5.6581	-21.663270	0.000243	2.431974	0.823975	0.000097
1868	1.8577e+02	-5.6212	-21.542156	0.000304	3.039968	1.029969	0.000122
1869	1.8587e+02	-5.5859	-21.425079	0.000294	2.938635	0.995637	0.000118
1870	1.8597e+02	-5.5426	-21.295891	0.000324	3.242632	1.098634	0.000130
1871	1.8606e+02	-5.5073	-21.166703	0.000324	3.242632	1.098634	0.000130
1872	1.8616e+02	-5.4496	-21.077886	0.000223	2.229310	0.755311	0.000089
1873	1.8626e+02	-5.4159	-20.952734	0.000314	3.141300	1.064301	0.000126
1874	1.8636e+02	-5.3822	-20.859880	0.000233	2.330642	0.789643	0.000093
1875	1.8646e+02	-5.3469	-20.698395	0.000405	4.053290	1.373292	0.000162
1876	1.8656e+02	-5.2940	-20.585355	0.000284	2.837303	0.961304	0.000114
1877	1.8666e+02	-5.2603	-20.532872	0.000132	1.317319	0.446320	0.000053
1878	1.8676e+02	-5.2266	-20.395610	0.000345	3.445297	1.167298	0.000138
1879	1.8686e+02	-5.1897	-20.306793	0.000223	2.229310	0.755311	0.000089
1880	1.8696e+02	-5.1400	-20.165493	0.000355	3.546629	1.201630	0.000142
1881	1.8706e+02	-5.1063	-20.044379	0.000304	3.039968	1.029969	0.000122
1882	1.8716e+02	-5.0646	-19.899042	0.000365	3.647961	1.235963	0.000146
1883	1.8726e+02	-5.0229	-19.781965	0.000294	2.938635	0.995637	0.000118
1884	1.8736e+02	-4.9844	-19.693148	0.000223	2.229310	0.755311	0.000089
1885	1.8746e+02	-4.9458	-19.559923	0.000334	3.343965	1.132966	0.000134
1886	1.8756e+02	-4.9090	-19.446883	0.000284	2.837303	0.961304	0.000114
1887	1.8766e+02	-4.8608	-19.293472	0.000385	3.850626	1.304627	0.000154
1888	1.8776e+02	-4.8239	-19.265212	0.000071	0.709326	0.240326	0.000028
1889	1.8786e+02	-4.7870	-19.115838	0.000375	3.749294	1.270295	0.000150
1890	1.8796e+02	-4.7357	-18.974538	0.000355	3.546629	1.201630	0.000142
1891	1.8806e+02	-4.7036	-18.853424	0.000304	3.039968	1.029969	0.000122
1892	1.8815e+02	-4.6731	-18.728273	0.000314	3.141300	1.064301	0.000126
1893	1.8825e+02	-4.6250	-18.595047	0.000334	3.343965	1.132966	0.000134
1894	1.8835e+02	-4.5929	-18.506230	0.000223	2.229310	0.755311	0.000089
1895	1.8845e+02	-4.5448	-18.368968	0.000345	3.445297	1.167298	0.000138
1896	1.8855e+02	-4.4983	-18.268039	0.000253	2.533306	0.858307	0.000101
1897	1.8865e+02	-4.4742	-18.150962	0.000294	2.938635	0.995637	0.000118
1898	1.8875e+02	-4.4293	-18.025811	0.000314	3.141300	1.064301	0.000126
1899	1.8885e+02	-4.3796	-17.920846	0.000263	2.634639	0.892640	0.000105
1900	1.8895e+02	-4.3411	-17.767434	0.000385	3.850626	1.304627	0.000154
1901	1.8905e+02	-4.3090	-17.674580	0.000233	2.330642	0.789643	0.000093
1902	1.8915e+02	-4.2641	-17.557503	0.000294	2.938635	0.995637	0.000118
1903	1.8925e+02	-4.2304	-17.432352	0.000314	3.141300	1.064301	0.000126
1904	1.8935e+02	-4.1903	-17.291052	0.000355	3.546629	1.201630	0.000142
1905	1.8945e+02	-4.1469	-17.190124	0.000253	2.533306	0.858307	0.000101
1906	1.8955e+02	-4.1100	-17.048824	0.000355	3.546629	1.201630	0.000142
1907	1.8965e+02	-4.0571	-16.935784	0.000284	2.837303	0.961304	0.000114
1908	1.8975e+02	-4.0250	-16.842930	0.000233	2.330642	0.789643	0.000093
1909	1.8985e+02	-3.9897	-16.701631	0.000355	3.546629	1.201630	0.000142
1910	1.8995e+02	-3.9544	-16.576479	0.000314	3.141300	1.064301	0.000126
1911	1.9004e+02	-3.9031	-16.427105	0.000375	3.749294	1.270295	0.000150
1912	1.9014e+02	-3.8678	-16.358474	0.000172	1.722648	0.583649	0.000069
1913	1.9024e+02	-3.8437	-16.192951	0.000415	4.154623	1.407624	0.000166
1914	1.9034e+02	-3.7796	-16.112209	0.000203	2.026645	0.686646	0.000081
1915	1.9044e+02	-3.7539	-15.950723	0.000405	4.053290	1.373292	0.000162
1916	1.9054e+02	-3.7170	-15.825572	0.000314	3.141300	1.064301	0.000126
1917	1.9064e+02	-3.6689	-15.716569	0.000274	2.735971	0.926972	0.000110
1918	1.9074e+02	-3.6272	-15.575270	0.000355	3.546629	1.201630	0.000142
1919	1.9084e+02	-3.5855	-15.458193	0.000294	2.938635	0.995637	0.000118
1920	1.9094e+02	-3.5518	-15.292670	0.000415	4.154623	1.407624	0.000166
1921	1.9104e+02	-3.5133	-15.187705	0.000263	2.634639	0.892640	0.000105
1922	1.9114e+02	-3.4651	-15.038331	0.000375	3.749294	1.270295	0.000150
1923	1.9124e+02	-3.4298	-14.905105	0.000334	3.343965	1.132966	0.000134
1924	1.9134e+02	-3.3817	-14.804177	0.000253	2.533306	0.858307	0.000101
1925	1.9144e+02	-3.3432	-14.695174	0.000274	2.735971	0.926972	0.000110
1926	1.9154e+02	-3.3079	-14.533689	0.000405	4.053290	1.373292	0.000162
1927	1.9164e+02	-3.2678	-14.428723	0.000263	2.634639	0.892640	0.000105
1928	1.9174e+02	-3.2422	-14.315683	0.000284	2.837303	0.961304	0.000114
1929	1.9184e+02	-3.1940	-14.170346	0.000365	3.647961	1.235963	0.000146
1930	1.9194e+02	-3.1523	-14.049232	0.000304	3.039968	1.029969	0.000122
1931	1.9203e+02	-3.1138	-13.932155	0.000294	2.938635	0.995637	0.000118
1932	1.9213e+02	-3.0785	-13.754521	0.000446	4.458619	1.510621	0.000179
1933	1.9223e+02	-3.0400	-13.605147	0.000375	3.749294	1.270295	0.000150
1934	1.9233e+02	-2.9935	-13.540553	0.000162	1.621316	0.549317	0.000065
1935	1.9243e+02	-2.9566	-13.375031	0.000415	4.154623	1.407624	0.000166
1936	1.9253e+02	-2.9149	-13.253917	0.000304	3.039968	1.029969	0.000122
1937	1.9263e+02	-2.8828	-13.185285	0.000172	1.722648	0.583649	0.000069
1938	1.9273e+02	-2.8363	-13.011688	0.000436	4.357287	1.476289	0.000174
1939	1.9283e+02	-2.7866	-12.922871	0.000223	2.229310	0.755311	0.000089
1940	1.9293e+02	-2.7577	-12.789646	0.000334	3.343965	1.132966	0.000134
1941	1.9303e+02	-2.7176	-12.624123	0.000415	4.154623	1.407624	0.000166
1942	1.9313e+02	-2.6791	-12.543381	0.000203	2.026645	0.686646	0.000081
1943	1.9323e+02	-2.6342	-12.406118	0.000345	3.445297	1.167298	0.000138
1944	1.9333e+02	-2.5973	-12.276930	0.000324	3.242632	1.098634	0.000130
1945	1.9343e+02	-2.5604	-12.127556	0.000375	3.749294	1.270295	0.000150
1946	1.9353e+02	-2.5138	-12.050850	0.000193	1.925313	0.652314	0.000077
1947	1.9363e+02	-2.4753	-11.885328	0.000415	4.154623	1.407624	0.000166
1948	1.9373e+02	-2.4449	-11.784399	0.000253	2.533306	0.858307	0.000101
1949	1.9383e+02	-2.4015	-11.651174	0.000334	3.343965	1.132966	0.000134
1950	1.9393e+02	-2.3566	-11.546208	0.000263	2.634639	0.892640	0.000105
1951	1.9403e+02	-2.3197	-11.372611	0.000436	4.357287	1.476289	0.000174
1952	1.9412e+02	-2.2780	-11.251497	0.000304	3.039968	1.029969	0.000122
1953	1.9422e+02	-2.2251	-11.158643	0.000233	2.330642	0.789643	0.000093
1954	1.9432e+02	-2.1962	-11.005232	0.000385	3.850626	1.304627	0.000154
1955	1.9442e+02	-2.1513	-10.851821	0.000385	3.850626	1.304627	0.000154
1956	1.9452e+02	-2.1112	-10.754930	0.000243	2.431974	0.823975	0.000097
1957	1.9462e+02	-2.0727	-10.621704	0.000334	3.343965	1.132966	0.000134
1958	1.9472e+02	-2.0342	-10.500590	0.000304	3.039968	1.029969	0.000122
1959	1.9482e+02	-1.9973	-10.363327	0.000345	3.445297	1.167298	0.000138
1960	1.9492e+02	-1.9459	-10.242213	0.000304	3.039968	1.029969	0.000122
1961	1.9502e+02	-1.9235	-10.092839	0.000375	3.749294	1.270295	0.000150
1962	1.9512e+02	-1.8818	-9.971725	0.000304	3.039968	1.029969	0.000122
1963	1.9522e+02	-1.8320	-9.818314	0.000385	3.850626	1.304627	0.000154
1964	1.9532e+02	-1.8048	-9.709311	0.000274	2.735971	0.926972	0.000110
1965	1.9542e+02	-1.7566	-9.576086	0.000334	3.343965	1.132966	0.000134
1966	1.9552e+02	-1.7165	-9.495343	0.000203	2.026645	0.686646	0.000081
1967	1.9562e+02	-1.6716	-9.325784	0.000426	4.255955	1.441957	0.000170
1968	1.9572e+02	-1.6315	-9.184484	0.000355	3.546629	1.201630	0.000142
1969	1.9582e+02	-1.5978	-9.067407	0.000294	2.938635	0.995637	0.000118
1970	1.9592e+02	-1.5673	-8.978590	0.000223	2.229310	0.755311	0.000089
1971	1.9601e+02	-1.5208	-8.809030	0.000426	4.255955	1.441957	0.000170
1972	1.9611e+02	-1.4775	-8.691953	0.000294	2.938635	0.995637	0.000118
1973	1.9621e+02	-1.4310	-8.546616	0.000365	3.647961	1.235963	0.000146
1974	1.9631e+02	-1.3941	-8.445688	0.000253	2.533306	0.858307	0.000101
1975	1.9641e+02	-1.3636	-8.340722	0.000263	2.634639	0.892640	0.000105
1976	1.9651e+02	-1.3123	-8.163088	0.000446	4.458619	1.510621	0.000179
1977	1.9661e+02	-1.2754	-8.029863	0.000334	3.343965	1.132966	0.000134
1978	1.9671e+02	-1.2385	-7.892600	0.000345	3.445297	1.167298	0.000138
1979	1.9681e+02	-1.2048	-7.783598	0.000274	2.735971	0.926972	0.000110
1980	1.9691e+02	-1.1615	-7.658446	0.000314	3.141300	1.064301	0.000126
1981	1.9701e+02	-1.1182	-7.521184	0.000345	3.445297	1.167298	0.000138
1982	1.9711e+02	-1.0780	-7.379884	0.000355	3.546629	1.201630	0.000142
1983	1.9721e+02	-1.0395	-7.234547	0.000365	3.647961	1.235963	0.000146
1984	1.9731e+02	-0.9946	-7.161879	0.000182	1.823981	0.617981	0.000073
1985	1.9741e+02	-0.9609	-6.992319	0.000426	4.255955	1.441957	0.000170
1986	1.9751e+02	-0.9208	-6.846982	0.000365	3.647961	1.235963	0.000146
1987	1.9761e+02	-0.8887	-6.742017	0.000263	2.634639	0.892640	0.000105
1988	1.9771e+02	-0.8438	-6.616865	0.000314	3.141300	1.064301	0.000126
1989	1.9781e+02	-0.8037	-6.475566	0.000355	3.546629	1.201630	0.000142
1990	1.9791e+02	-0.7556	-6.330229	0.000365	3.647961	1.235963	0.000146
1991	1.9800e+02	-0.7155	-6.188929	0.000355	3.546629	1.201630	0.000142
1992	1.9810e+02	-0.6786	-6.108186	0.000203	2.026645	0.686646	0.000081
1993	1.9820e+02	-0.6401	-5.914404	0.000486	4.863948	1.647950	0.000195
1994	1.9830e+02	-0.5968	-5.781178	0.000334	3.343965	1.132966	0.000134
1995	1.9840e+02	-0.5695	-5.668139	0.000284	2.837303	0.961304	0.000114
1996	1.9850e+02	-0.5166	-5.567210	0.000253	2.533306	0.858307	0.000101
1997	1.9860e+02	-0.4765	-5.425910	0.000355	3.546629	1.201630	0.000142
1998	1.9870e+02	-0.4331	-5.272499	0.000385	3.850626	1.304627	0.000154
1999	1.9880e+02	-0.3978	-5.183682	0.000223	2.229310	0.755311	0.000089
2000	1.9890e+02	-0.3561	-4.989900	0.000486	4.863948	1.647950	0.000195
2001	1.9900e+02	-0.3273	-4.929343	0.000152	1.519984	0.514984	0.000061
2002	1.9910e+02	-0.2807	-4.767857	0.000405	4.053290	1.373292	0.000162
2003	1.9920e+02	-0.2487	-4.618483	0.000375	3.749294	1.270295	0.000150
2004	1.9930e+02	-0.1989	-4.509481	0.000274	2.735971	0.926972	0.000110
2005	1.9940e+02	-0.1652	-4.331847	0.000446	4.458619	1.510621	0.000179
2006	1.9950e+02	-0.1203	-4.210733	0.000304	3.039968	1.029969	0.000122
2007	1.9960e+02	-0.0834	-4.129990	0.000203	2.026645	0.686646	0.000081
2008	1.9970e+02	-0.0369	-3.952356	0.000446	4.458619	1.510621	0.000179
2009	1.9980e+02	0.0064	-3.819130	0.000446	4.458619	1.510621	0.000134

Center data before PMax,+/-Pr and +/-Vc Calc.

PMax (uC/cm2):	5.44e+01
Pr (uC/cm2):	1.43e+00
-Pr (uC/cm2):	-3.82e+00
PLoss (uC/cm2):	-1.89e+00
Vc:	6.17e-01
-Vc:	-3.97e-01
C (Max-Eff) (nF):	2.72e-01
K (Eff):	9.23e+02
Vert. (+/-Pr) Shift (uC/cm2):	-1.19e+00
Horiz. Shift (+/-Vc):	1.10e-01
Offset (uC/cm2):	1.88e+00

A (Loop Area - uC/cm2·Volts):	2.74e-02



Hysteresis Version: 5.48.1 - Radiant Technologies, Inc., 1999 - 9/12/24

