»»»»»»»»»»»»»»»»»»»»»»»»»»»»»»»»»»»» Hysteresis ««««««««««««««««««««««««««««««««««««
»»»  Executed Version:	5.48.1
»»»  Vision Version:	5.48.4 (R)
»»»  Vision Compiled:	9/18/24
»»»  Driver Version:	5.47.0
»»»  Windows Version:	Windows 8 or 8.1
»»»  Processor Information:	x86 (AMD or Intel) - 32 Processors
»»»  Tester Name:	PMF21124-494 (100V)
»»»  Tester S/N:	PMF21124-494
»»»  Internal Amp Type:	100V RevK 270k
»»»  Internal Amp S/N:	iAB2-596/K     
»»»  Execution Count:	1
»»»»»»»»»»»»»»»»»»»»»»»»»»»»»»»»»»»»»»»»»»««««««««««««««««««««««««««««««««««««««««««

Stored:	6/9/2025 - 15:55:2
Configured:	06/09/25 02:47:45 PM
Executed:	06/09/25 03:54:10 PM

»»»»»»»»»»»»»»»»»»»»»»»»»»»»»»»»»»» Sample Info ««««««««««««««««««««««««««««««««««««
Sample Name:	
Lot Name:	
Wafer Name:	
Die Row/Column:	0/0
Capacitor Number:	0
Sample Area (cm2):	1.00e-04
Sample Thickness (microns):	3.00e-01

Amplifier:	Internal

»»»»»»»»»»»»»»»»»»»»»»»»»»»»»»»»»»» Tester Info «««««««««««««««««««««««««««««««««««
Tester Name:	PMF21124-494 (100V)
Tester Serial Number:	PMF21124-494
Return Signal Amp. Level:	0.19 [Index: 3]

»»»»»»»»»»»»»»»»»»»»»»»»»»»»»»»» Hysteresis Info ««««««««««««««««««««««««««««««««««
Task Name:	Hyst-927
Volts:	20.00
Field:	666.67 (kV/cm)
DCBias:	0.00
DCField:	0.00 (kV/cm)
Hysteresis Period (ms):	2.00e+02
Preset:	Enabled
Preset Delay (ms):	1.00e+03
Profile:	Standard Bipolar

»»»»»»»»»»»»»»»»»»»»»»»»»»»»»»»»»»»»»» Data «««««««««««««««««««««««««««««««««««««««
Points:	2009

Valid Data

Point	Time (ms)	Drive Voltage	Measured Polarization (uC/cm2)	Capacitance (uF)	Normalized Capacitance (uF/cm2)	Dielectric Constant	Instantaneous Current (mA)
   1	0.0000e+00	-0.0064	-7.490905	0.000253	2.533002	0.858204	0.000101
   2	9.9500e-02	0.0241	-7.389977	0.000253	2.533002	0.858204	0.000101
   3	1.9900e-01	0.0690	-7.293086	0.000243	2.431682	0.823876	0.000097
   4	2.9850e-01	0.1027	-7.147749	0.000365	3.647522	1.235814	0.000146
   5	3.9800e-01	0.1556	-7.042783	0.000263	2.634322	0.892532	0.000105
   6	4.9750e-01	0.1861	-6.885335	0.000395	3.951483	1.338799	0.000158
   7	5.9700e-01	0.2294	-6.792481	0.000233	2.330362	0.789548	0.000093
   8	6.9650e-01	0.2695	-6.651181	0.000355	3.546202	1.201486	0.000142
   9	7.9600e-01	0.3096	-6.521993	0.000324	3.242242	1.098501	0.000130
  10	8.9550e-01	0.3497	-6.417027	0.000263	2.634322	0.892532	0.000105
  11	9.9500e-01	0.4011	-6.291876	0.000314	3.140922	1.064173	0.000126
  12	1.0945e+00	0.4235	-6.134428	0.000395	3.951483	1.338799	0.000158
  13	1.1940e+00	0.4684	-6.005239	0.000324	3.242242	1.098501	0.000130
  14	1.2935e+00	0.5069	-5.916422	0.000223	2.229041	0.755220	0.000089
  15	1.3930e+00	0.5454	-5.730714	0.000466	4.660723	1.579096	0.000187
  16	1.4925e+00	0.5888	-5.613637	0.000294	2.938282	0.995517	0.000118
  17	1.5920e+00	0.6321	-5.460226	0.000385	3.850163	1.304470	0.000154
  18	1.6915e+00	0.6658	-5.359298	0.000253	2.533002	0.858204	0.000101
  19	1.7910e+00	0.6962	-5.246258	0.000284	2.836962	0.961189	0.000114
  20	1.8905e+00	0.7460	-5.096884	0.000375	3.748843	1.270142	0.000150
  21	1.9900e+00	0.7845	-4.935398	0.000405	4.052803	1.373127	0.000162
  22	2.0895e+00	0.8278	-4.850619	0.000213	2.127721	0.720892	0.000085
  23	2.1890e+00	0.8663	-4.681059	0.000426	4.255443	1.441783	0.000170
  24	2.2885e+00	0.9048	-4.576093	0.000263	2.634322	0.892532	0.000105
  25	2.3880e+00	0.9481	-4.450942	0.000314	3.140922	1.064173	0.000126
  26	2.4875e+00	0.9818	-4.297531	0.000385	3.850163	1.304470	0.000154
  27	2.5870e+00	1.0235	-4.156231	0.000355	3.546202	1.201486	0.000142
  28	2.6865e+00	1.0620	-4.043191	0.000284	2.836962	0.961189	0.000114
  29	2.7860e+00	1.1037	-3.869595	0.000436	4.356763	1.476111	0.000174
  30	2.8855e+00	1.1486	-3.768666	0.000253	2.533002	0.858204	0.000101
  31	2.9850e+00	1.1935	-3.659664	0.000274	2.735642	0.926861	0.000110
  32	3.0845e+00	1.2224	-3.522401	0.000344	3.444882	1.167158	0.000138
  33	3.1840e+00	1.2561	-3.381101	0.000355	3.546202	1.201486	0.000142
  34	3.2835e+00	1.3074	-3.235764	0.000365	3.647522	1.235814	0.000146
  35	3.3830e+00	1.3460	-3.106576	0.000324	3.242242	1.098501	0.000130
  36	3.4825e+00	1.3877	-3.001610	0.000263	2.634322	0.892532	0.000105
  37	3.5820e+00	1.4181	-2.856274	0.000365	3.647522	1.235814	0.000146
  38	3.6815e+00	1.4695	-2.743234	0.000284	2.836962	0.961189	0.000114
  39	3.7810e+00	1.5000	-2.597897	0.000365	3.647522	1.235814	0.000146
  40	3.8805e+00	1.5385	-2.501006	0.000243	2.431682	0.823876	0.000097
  41	3.9800e+00	1.5850	-2.307223	0.000486	4.863363	1.647752	0.000195
  42	4.0795e+00	1.6251	-2.194183	0.000284	2.836962	0.961189	0.000114
  43	4.1790e+00	1.6604	-2.073069	0.000304	3.039602	1.029845	0.000122
  44	4.2785e+00	1.7021	-1.931769	0.000355	3.546202	1.201486	0.000142
  45	4.3780e+00	1.7470	-1.814693	0.000294	2.938282	0.995517	0.000118
  46	4.4775e+00	1.7823	-1.697616	0.000294	2.938282	0.995517	0.000118
  47	4.5770e+00	1.8224	-1.556316	0.000355	3.546202	1.201486	0.000142
  48	4.6765e+00	1.8689	-1.406942	0.000375	3.748843	1.270142	0.000150
  49	4.7760e+00	1.9122	-1.318125	0.000223	2.229041	0.755220	0.000089
  50	4.8755e+00	1.9507	-1.197011	0.000304	3.039602	1.029845	0.000122
  51	4.9750e+00	1.9860	-1.039562	0.000395	3.951483	1.338799	0.000158
  52	5.0745e+00	2.0165	-0.954783	0.000213	2.127721	0.720892	0.000085
  53	5.1740e+00	2.0614	-0.789260	0.000415	4.154123	1.407455	0.000166
  54	5.2735e+00	2.1064	-0.708517	0.000203	2.026401	0.686563	0.000081
  55	5.3730e+00	2.1400	-0.538958	0.000426	4.255443	1.441783	0.000170
  56	5.4725e+00	2.1721	-0.381509	0.000395	3.951483	1.338799	0.000158
  57	5.5720e+00	2.2203	-0.276544	0.000263	2.634322	0.892532	0.000105
  58	5.6715e+00	2.2636	-0.123133	0.000385	3.850163	1.304470	0.000154
  59	5.7710e+00	2.2957	-0.018167	0.000263	2.634322	0.892532	0.000105
  60	5.8705e+00	2.3438	0.111021	0.000324	3.242242	1.098501	0.000130
  61	5.9700e+00	2.3823	0.228098	0.000294	2.938282	0.995517	0.000118
  62	6.0695e+00	2.4256	0.409769	0.000456	4.559403	1.544768	0.000183
  63	6.1690e+00	2.4593	0.486475	0.000193	1.925081	0.652235	0.000077
  64	6.2685e+00	2.4978	0.623737	0.000344	3.444882	1.167158	0.000138
  65	6.3680e+00	2.5475	0.744852	0.000304	3.039602	1.029845	0.000122
  66	6.4675e+00	2.5796	0.906337	0.000405	4.052803	1.373127	0.000162
  67	6.5670e+00	2.6229	1.027451	0.000304	3.039602	1.029845	0.000122
  68	6.6665e+00	2.6662	1.160677	0.000334	3.343562	1.132830	0.000134
  69	6.7660e+00	2.6999	1.269679	0.000274	2.735642	0.926861	0.000110
  70	6.8655e+00	2.7432	1.370608	0.000253	2.533002	0.858204	0.000101
  71	6.9650e+00	2.7849	1.524019	0.000385	3.850163	1.304470	0.000154
  72	7.0645e+00	2.8283	1.637059	0.000284	2.836962	0.961189	0.000114
  73	7.1640e+00	2.8555	1.794507	0.000395	3.951483	1.338799	0.000158
  74	7.2635e+00	2.8988	1.903510	0.000274	2.735642	0.926861	0.000110
  75	7.3630e+00	2.9374	2.077106	0.000436	4.356763	1.476111	0.000174
  76	7.4625e+00	2.9791	2.186109	0.000274	2.735642	0.926861	0.000110
  77	7.5620e+00	3.0095	2.299149	0.000284	2.836962	0.961189	0.000114
  78	7.6615e+00	3.0641	2.424300	0.000314	3.140922	1.064173	0.000126
  79	7.7610e+00	3.1026	2.553488	0.000324	3.242242	1.098501	0.000130
  80	7.8605e+00	3.1427	2.710937	0.000395	3.951483	1.338799	0.000158
  81	7.9600e+00	3.1764	2.807828	0.000243	2.431682	0.823876	0.000097
  82	8.0595e+00	3.2245	2.949128	0.000355	3.546202	1.201486	0.000142
  83	8.1590e+00	3.2598	3.054093	0.000263	2.634322	0.892532	0.000105
  84	8.2585e+00	3.3063	3.187319	0.000334	3.343562	1.132830	0.000134
  85	8.3580e+00	3.3416	3.316507	0.000324	3.242242	1.098501	0.000130
  86	8.4575e+00	3.3769	3.429547	0.000284	2.836962	0.961189	0.000114
  87	8.5570e+00	3.4122	3.574884	0.000365	3.647522	1.235814	0.000146
  88	8.6565e+00	3.4539	3.708109	0.000334	3.343562	1.132830	0.000134
  89	8.7560e+00	3.4924	3.813075	0.000263	2.634322	0.892532	0.000105
  90	8.8555e+00	3.5357	3.954374	0.000355	3.546202	1.201486	0.000142
  91	8.9550e+00	3.5758	4.099711	0.000365	3.647522	1.235814	0.000146
  92	9.0545e+00	3.6256	4.204677	0.000263	2.634322	0.892532	0.000105
  93	9.1540e+00	3.6609	4.309642	0.000263	2.634322	0.892532	0.000105
  94	9.2535e+00	3.6962	4.418645	0.000274	2.735642	0.926861	0.000110
  95	9.3530e+00	3.7347	4.588205	0.000426	4.255443	1.441783	0.000170
  96	9.4525e+00	3.7828	4.689133	0.000253	2.533002	0.858204	0.000101
  97	9.5520e+00	3.8197	4.830433	0.000355	3.546202	1.201486	0.000142
  98	9.6515e+00	3.8598	4.939436	0.000274	2.735642	0.926861	0.000110
  99	9.7510e+00	3.9031	5.068624	0.000324	3.242242	1.098501	0.000130
 100	9.8505e+00	3.9336	5.169552	0.000253	2.533002	0.858204	0.000101
 101	9.9500e+00	3.9689	5.310852	0.000355	3.546202	1.201486	0.000142
 102	1.0050e+01	4.0202	5.423892	0.000284	2.836962	0.961189	0.000114
 103	1.0149e+01	4.0667	5.540969	0.000294	2.938282	0.995517	0.000118
 104	1.0248e+01	4.0924	5.706491	0.000415	4.154123	1.407455	0.000166
 105	1.0348e+01	4.1421	5.775123	0.000172	1.722441	0.583579	0.000069
 106	1.0447e+01	4.1758	5.896237	0.000304	3.039602	1.029845	0.000122
 107	1.0547e+01	4.2079	6.049648	0.000385	3.850163	1.304470	0.000154
 108	1.0646e+01	4.2496	6.166725	0.000294	2.938282	0.995517	0.000118
 109	1.0746e+01	4.2945	6.279765	0.000284	2.836962	0.961189	0.000114
 110	1.0845e+01	4.3314	6.453361	0.000436	4.356763	1.476111	0.000174
 111	1.0945e+01	4.3715	6.513919	0.000152	1.519801	0.514923	0.000061
 112	1.1044e+01	4.4100	6.699627	0.000466	4.660723	1.579096	0.000187
 113	1.1144e+01	4.4614	6.780369	0.000203	2.026401	0.686563	0.000081
 114	1.1243e+01	4.4935	6.881298	0.000253	2.533002	0.858204	0.000101
 115	1.1343e+01	4.5320	7.054895	0.000436	4.356763	1.476111	0.000174
 116	1.1443e+01	4.5753	7.196194	0.000355	3.546202	1.201486	0.000142
 117	1.1542e+01	4.6090	7.321346	0.000314	3.140922	1.064173	0.000126
 118	1.1642e+01	4.6603	7.422274	0.000253	2.533002	0.858204	0.000101
 119	1.1741e+01	4.7036	7.555500	0.000334	3.343562	1.132830	0.000134
 120	1.1841e+01	4.7357	7.656428	0.000253	2.533002	0.858204	0.000101
 121	1.1940e+01	4.7726	7.753319	0.000243	2.431682	0.823876	0.000097
 122	1.2040e+01	4.8079	7.943065	0.000476	4.762043	1.613424	0.000191
 123	1.2139e+01	4.8544	8.080327	0.000344	3.444882	1.167158	0.000138
 124	1.2239e+01	4.8897	8.169144	0.000223	2.229041	0.755220	0.000089
 125	1.2338e+01	4.9346	8.290258	0.000304	3.039602	1.029845	0.000122
 126	1.2438e+01	4.9763	8.423484	0.000334	3.343562	1.132830	0.000134
 127	1.2537e+01	5.0148	8.556709	0.000334	3.343562	1.132830	0.000134
 128	1.2636e+01	5.0469	8.677823	0.000304	3.039602	1.029845	0.000122
 129	1.2736e+01	5.0886	8.807012	0.000324	3.242242	1.098501	0.000130
 130	1.2835e+01	5.1368	8.936200	0.000324	3.242242	1.098501	0.000130
 131	1.2935e+01	5.1737	9.061351	0.000314	3.140922	1.064173	0.000126
 132	1.3034e+01	5.2122	9.210725	0.000375	3.748843	1.270142	0.000150
 133	1.3134e+01	5.2507	9.319728	0.000274	2.735642	0.926861	0.000110
 134	1.3233e+01	5.2908	9.444879	0.000314	3.140922	1.064173	0.000126
 135	1.3333e+01	5.3277	9.541770	0.000243	2.431682	0.823876	0.000097
 136	1.3432e+01	5.3662	9.695181	0.000385	3.850163	1.304470	0.000154
 137	1.3532e+01	5.4175	9.804184	0.000274	2.735642	0.926861	0.000110
 138	1.3632e+01	5.4496	9.957595	0.000385	3.850163	1.304470	0.000154
 139	1.3731e+01	5.4881	10.090821	0.000334	3.343562	1.132830	0.000134
 140	1.3831e+01	5.5346	10.224046	0.000334	3.343562	1.132830	0.000134
 141	1.3930e+01	5.5747	10.341123	0.000294	2.938282	0.995517	0.000118
 142	1.4030e+01	5.6148	10.458200	0.000294	2.938282	0.995517	0.000118
 143	1.4129e+01	5.6485	10.599500	0.000355	3.546202	1.201486	0.000142
 144	1.4229e+01	5.6902	10.684280	0.000213	2.127721	0.720892	0.000085
 145	1.4328e+01	5.7367	10.817505	0.000334	3.343562	1.132830	0.000134
 146	1.4428e+01	5.7720	10.926508	0.000274	2.735642	0.926861	0.000110
 147	1.4527e+01	5.8057	11.051659	0.000314	3.140922	1.064173	0.000126
 148	1.4627e+01	5.8522	11.201033	0.000375	3.748843	1.270142	0.000150
 149	1.4726e+01	5.8907	11.305999	0.000263	2.634322	0.892532	0.000105
 150	1.4825e+01	5.9308	11.443261	0.000344	3.444882	1.167158	0.000138
 151	1.4925e+01	5.9677	11.564375	0.000304	3.039602	1.029845	0.000122
 152	1.5024e+01	6.0030	11.705675	0.000355	3.546202	1.201486	0.000142
 153	1.5124e+01	6.0447	11.814678	0.000274	2.735642	0.926861	0.000110
 154	1.5223e+01	6.0929	11.931755	0.000294	2.938282	0.995517	0.000118
 155	1.5323e+01	6.1378	12.089203	0.000395	3.951483	1.338799	0.000158
 156	1.5422e+01	6.1763	12.206280	0.000294	2.938282	0.995517	0.000118
 157	1.5522e+01	6.2084	12.282985	0.000193	1.925081	0.652235	0.000077
 158	1.5621e+01	6.2549	12.496954	0.000537	5.369964	1.819393	0.000215
 159	1.5721e+01	6.2838	12.609993	0.000284	2.836962	0.961189	0.000114
 160	1.5820e+01	6.3303	12.723033	0.000284	2.836962	0.961189	0.000114
 161	1.5920e+01	6.3544	12.827999	0.000263	2.634322	0.892532	0.000105
 162	1.6020e+01	6.4009	12.981410	0.000385	3.850163	1.304470	0.000154
 163	1.6119e+01	6.4394	13.074264	0.000233	2.330362	0.789548	0.000093
 164	1.6218e+01	6.4795	13.175192	0.000253	2.533002	0.858204	0.000101
 165	1.6318e+01	6.5276	13.344752	0.000426	4.255443	1.441783	0.000170
 166	1.6418e+01	6.5565	13.425495	0.000203	2.026401	0.686563	0.000081
 167	1.6517e+01	6.5998	13.595055	0.000426	4.255443	1.441783	0.000170
 168	1.6616e+01	6.6383	13.700020	0.000263	2.634322	0.892532	0.000105
 169	1.6716e+01	6.6848	13.809023	0.000274	2.735642	0.926861	0.000110
 170	1.6816e+01	6.7298	13.905914	0.000243	2.431682	0.823876	0.000097
 171	1.6915e+01	6.7554	14.063362	0.000395	3.951483	1.338799	0.000158
 172	1.7015e+01	6.8068	14.212736	0.000375	3.748843	1.270142	0.000150
 173	1.7114e+01	6.8404	14.313665	0.000253	2.533002	0.858204	0.000101
 174	1.7213e+01	6.8854	14.442853	0.000324	3.242242	1.098501	0.000130
 175	1.7313e+01	6.9223	14.543781	0.000253	2.533002	0.858204	0.000101
 176	1.7413e+01	6.9640	14.685081	0.000355	3.546202	1.201486	0.000142
 177	1.7512e+01	7.0153	14.814270	0.000324	3.242242	1.098501	0.000130
 178	1.7611e+01	7.0426	14.939421	0.000314	3.140922	1.064173	0.000126
 179	1.7711e+01	7.0811	15.068609	0.000324	3.242242	1.098501	0.000130
 180	1.7811e+01	7.1228	15.177612	0.000274	2.735642	0.926861	0.000110
 181	1.7910e+01	7.1581	15.302763	0.000314	3.140922	1.064173	0.000126
 182	1.8009e+01	7.1966	15.399654	0.000243	2.431682	0.823876	0.000097
 183	1.8109e+01	7.2511	15.536917	0.000344	3.444882	1.167158	0.000138
 184	1.8209e+01	7.2880	15.682254	0.000365	3.647522	1.235814	0.000146
 185	1.8308e+01	7.3217	15.803368	0.000304	3.039602	1.029845	0.000122
 186	1.8407e+01	7.3618	15.940630	0.000344	3.444882	1.167158	0.000138
 187	1.8507e+01	7.4067	16.061745	0.000304	3.039602	1.029845	0.000122
 188	1.8607e+01	7.4420	16.154599	0.000233	2.330362	0.789548	0.000093
 189	1.8706e+01	7.4918	16.336270	0.000456	4.559403	1.544768	0.000183
 190	1.8805e+01	7.5239	16.396827	0.000152	1.519801	0.514923	0.000061
 191	1.8905e+01	7.5511	16.558312	0.000405	4.052803	1.373127	0.000162
 192	1.9005e+01	7.6025	16.679426	0.000304	3.039602	1.029845	0.000122
 193	1.9104e+01	7.6394	16.788429	0.000274	2.735642	0.926861	0.000110
 194	1.9203e+01	7.6795	16.945877	0.000395	3.951483	1.338799	0.000158
 195	1.9303e+01	7.7115	17.050843	0.000263	2.634322	0.892532	0.000105
 196	1.9402e+01	7.7549	17.135623	0.000213	2.127721	0.720892	0.000085
 197	1.9502e+01	7.7966	17.301145	0.000415	4.154123	1.407455	0.000166
 198	1.9602e+01	7.8367	17.385925	0.000213	2.127721	0.720892	0.000085
 199	1.9701e+01	7.8800	17.523188	0.000344	3.444882	1.167158	0.000138
 200	1.9800e+01	7.9249	17.660450	0.000344	3.444882	1.167158	0.000138
 201	1.9900e+01	7.9586	17.789639	0.000324	3.242242	1.098501	0.000130
 202	2.0000e+01	7.9971	17.902678	0.000284	2.836962	0.961189	0.000114
 203	2.0099e+01	8.0372	18.031867	0.000324	3.242242	1.098501	0.000130
 204	2.0198e+01	8.0709	18.173167	0.000355	3.546202	1.201486	0.000142
 205	2.0298e+01	8.1206	18.253909	0.000203	2.026401	0.686563	0.000081
 206	2.0398e+01	8.1543	18.358875	0.000263	2.634322	0.892532	0.000105
 207	2.0497e+01	8.1960	18.467877	0.000274	2.735642	0.926861	0.000110
 208	2.0596e+01	8.2329	18.625326	0.000395	3.951483	1.338799	0.000158
 209	2.0696e+01	8.2682	18.750477	0.000314	3.140922	1.064173	0.000126
 210	2.0796e+01	8.3131	18.851405	0.000253	2.533002	0.858204	0.000101
 211	2.0895e+01	8.3597	18.980594	0.000324	3.242242	1.098501	0.000130
 212	2.0994e+01	8.3982	19.093633	0.000284	2.836962	0.961189	0.000114
 213	2.1094e+01	8.4399	19.206673	0.000284	2.836962	0.961189	0.000114
 214	2.1194e+01	8.4832	19.291453	0.000213	2.127721	0.720892	0.000085
 215	2.1293e+01	8.5105	19.436790	0.000365	3.647522	1.235814	0.000146
 216	2.1392e+01	8.5634	19.561941	0.000314	3.140922	1.064173	0.000126
 217	2.1492e+01	8.5923	19.662870	0.000253	2.533002	0.858204	0.000101
 218	2.1591e+01	8.6436	19.812244	0.000375	3.748843	1.270142	0.000150
 219	2.1691e+01	8.6805	19.921246	0.000274	2.735642	0.926861	0.000110
 220	2.1791e+01	8.7174	20.038323	0.000294	2.938282	0.995517	0.000118
 221	2.1890e+01	8.7559	20.127140	0.000223	2.229041	0.755220	0.000089
 222	2.1989e+01	8.7976	20.232106	0.000263	2.634322	0.892532	0.000105
 223	2.2089e+01	8.8281	20.353220	0.000304	3.039602	1.029845	0.000122
 224	2.2189e+01	8.8762	20.478371	0.000314	3.140922	1.064173	0.000126
 225	2.2288e+01	8.9227	20.538928	0.000152	1.519801	0.514923	0.000061
 226	2.2387e+01	8.9596	20.676191	0.000344	3.444882	1.167158	0.000138
 227	2.2487e+01	8.9965	20.797305	0.000304	3.039602	1.029845	0.000122
 228	2.2587e+01	9.0286	20.958790	0.000405	4.052803	1.373127	0.000162
 229	2.2686e+01	9.0784	21.039533	0.000203	2.026401	0.686563	0.000081
 230	2.2785e+01	9.1040	21.148536	0.000274	2.735642	0.926861	0.000110
 231	2.2885e+01	9.1521	21.281761	0.000334	3.343562	1.132830	0.000134
 232	2.2985e+01	9.1971	21.386727	0.000263	2.634322	0.892532	0.000105
 233	2.3084e+01	9.2340	21.519952	0.000334	3.343562	1.132830	0.000134
 234	2.3183e+01	9.2741	21.624918	0.000263	2.634322	0.892532	0.000105
 235	2.3283e+01	9.3238	21.733920	0.000274	2.735642	0.926861	0.000110
 236	2.3383e+01	9.3591	21.830812	0.000243	2.431682	0.823876	0.000097
 237	2.3482e+01	9.3944	21.960000	0.000324	3.242242	1.098501	0.000130
 238	2.3581e+01	9.4281	22.085151	0.000314	3.140922	1.064173	0.000126
 239	2.3681e+01	9.4778	22.169931	0.000213	2.127721	0.720892	0.000085
 240	2.3780e+01	9.5211	22.287008	0.000294	2.938282	0.995517	0.000118
 241	2.3880e+01	9.5500	22.404085	0.000294	2.938282	0.995517	0.000118
 242	2.3980e+01	9.5981	22.545385	0.000355	3.546202	1.201486	0.000142
 243	2.4079e+01	9.6366	22.626127	0.000203	2.026401	0.686563	0.000081
 244	2.4178e+01	9.6703	22.739167	0.000284	2.836962	0.961189	0.000114
 245	2.4278e+01	9.7136	22.832021	0.000233	2.330362	0.789548	0.000093
 246	2.4378e+01	9.7553	22.953135	0.000304	3.039602	1.029845	0.000122
 247	2.4477e+01	9.7874	23.041952	0.000223	2.229041	0.755220	0.000089
 248	2.4576e+01	9.8339	23.187289	0.000365	3.647522	1.235814	0.000146
 249	2.4676e+01	9.8660	23.272069	0.000213	2.127721	0.720892	0.000085
 250	2.4776e+01	9.9158	23.433554	0.000405	4.052803	1.373127	0.000162
 251	2.4875e+01	9.9495	23.530446	0.000243	2.431682	0.823876	0.000097
 252	2.4974e+01	9.9912	23.639448	0.000274	2.735642	0.926861	0.000110
 253	2.5074e+01	10.0345	23.744414	0.000263	2.634322	0.892532	0.000105
 254	2.5174e+01	10.0650	23.853417	0.000274	2.735642	0.926861	0.000110
 255	2.5273e+01	10.1083	23.970493	0.000294	2.938282	0.995517	0.000118
 256	2.5372e+01	10.1500	24.067385	0.000243	2.431682	0.823876	0.000097
 257	2.5472e+01	10.1917	24.156202	0.000223	2.229041	0.755220	0.000089
 258	2.5572e+01	10.2318	24.293464	0.000344	3.444882	1.167158	0.000138
 259	2.5671e+01	10.2703	24.414578	0.000304	3.039602	1.029845	0.000122
 260	2.5770e+01	10.3136	24.503395	0.000223	2.229041	0.755220	0.000089
 261	2.5870e+01	10.3441	24.567990	0.000162	1.621121	0.549251	0.000065
 262	2.5970e+01	10.3954	24.701215	0.000334	3.343562	1.132830	0.000134
 263	2.6069e+01	10.4339	24.874812	0.000436	4.356763	1.476111	0.000174
 264	2.6169e+01	10.4724	24.975740	0.000253	2.533002	0.858204	0.000101
 265	2.6268e+01	10.4997	25.068594	0.000233	2.330362	0.789548	0.000093
 266	2.6367e+01	10.5494	25.141263	0.000182	1.823761	0.617907	0.000073
 267	2.6467e+01	10.5863	25.282563	0.000355	3.546202	1.201486	0.000142
 268	2.6567e+01	10.6313	25.347157	0.000162	1.621121	0.549251	0.000065
 269	2.6666e+01	10.6617	25.423862	0.000193	1.925081	0.652235	0.000077
 270	2.6765e+01	10.7115	25.532865	0.000274	2.735642	0.926861	0.000110
 271	2.6865e+01	10.7516	25.678202	0.000365	3.647522	1.235814	0.000146
 272	2.6965e+01	10.7949	25.779130	0.000253	2.533002	0.858204	0.000101
 273	2.7064e+01	10.8382	25.908319	0.000324	3.242242	1.098501	0.000130
 274	2.7163e+01	10.8767	26.001173	0.000233	2.330362	0.789548	0.000093
 275	2.7263e+01	10.9072	26.138435	0.000344	3.444882	1.167158	0.000138
 276	2.7363e+01	10.9457	26.247438	0.000274	2.735642	0.926861	0.000110
 277	2.7462e+01	10.9986	26.344329	0.000243	2.431682	0.823876	0.000097
 278	2.7561e+01	11.0291	26.445258	0.000253	2.533002	0.858204	0.000101
 279	2.7661e+01	11.0756	26.542149	0.000243	2.431682	0.823876	0.000097
 280	2.7761e+01	11.1077	26.667300	0.000314	3.140922	1.064173	0.000126
 281	2.7860e+01	11.1526	26.776303	0.000274	2.735642	0.926861	0.000110
 282	2.7959e+01	11.2008	26.881268	0.000263	2.634322	0.892532	0.000105
 283	2.8059e+01	11.2296	26.982197	0.000253	2.533002	0.858204	0.000101
 284	2.8159e+01	11.2617	27.099274	0.000294	2.938282	0.995517	0.000118
 285	2.8258e+01	11.3018	27.204239	0.000263	2.634322	0.892532	0.000105
 286	2.8358e+01	11.3483	27.321316	0.000294	2.938282	0.995517	0.000118
 287	2.8457e+01	11.3933	27.430319	0.000274	2.735642	0.926861	0.000110
 288	2.8556e+01	11.4350	27.482802	0.000132	1.317161	0.446266	0.000053
 289	2.8656e+01	11.4638	27.656398	0.000436	4.356763	1.476111	0.000174
 290	2.8756e+01	11.5072	27.737141	0.000203	2.026401	0.686563	0.000081
 291	2.8855e+01	11.5489	27.850181	0.000284	2.836962	0.961189	0.000114
 292	2.8954e+01	11.5810	27.955146	0.000263	2.634322	0.892532	0.000105
 293	2.9054e+01	11.6275	28.100483	0.000365	3.647522	1.235814	0.000146
 294	2.9154e+01	11.6596	28.157003	0.000142	1.418481	0.480594	0.000057
 295	2.9253e+01	11.7077	28.270043	0.000284	2.836962	0.961189	0.000114
 296	2.9352e+01	11.7430	28.411343	0.000355	3.546202	1.201486	0.000142
 297	2.9452e+01	11.7847	28.532457	0.000304	3.039602	1.029845	0.000122
 298	2.9552e+01	11.8296	28.629348	0.000243	2.431682	0.823876	0.000097
 299	2.9651e+01	11.8713	28.722202	0.000233	2.330362	0.789548	0.000093
 300	2.9750e+01	11.9018	28.802945	0.000203	2.026401	0.686563	0.000081
 301	2.9850e+01	11.9483	28.972505	0.000426	4.255443	1.441783	0.000170
 302	2.9950e+01	11.9836	29.024987	0.000132	1.317161	0.446266	0.000053
 303	3.0049e+01	12.0269	29.214733	0.000476	4.762043	1.613424	0.000191
 304	3.0148e+01	12.0590	29.291438	0.000193	1.925081	0.652235	0.000077
 305	3.0248e+01	12.1039	29.368144	0.000193	1.925081	0.652235	0.000077
 306	3.0348e+01	12.1408	29.497332	0.000324	3.242242	1.098501	0.000130
 307	3.0447e+01	12.1793	29.590186	0.000233	2.330362	0.789548	0.000093
 308	3.0547e+01	12.2275	29.707263	0.000294	2.938282	0.995517	0.000118
 309	3.0646e+01	12.2579	29.812229	0.000263	2.634322	0.892532	0.000105
 310	3.0745e+01	12.3029	29.977751	0.000415	4.154123	1.407455	0.000166
 311	3.0845e+01	12.3462	30.038308	0.000152	1.519801	0.514923	0.000061
 312	3.0945e+01	12.3879	30.159423	0.000304	3.039602	1.029845	0.000122
 313	3.1044e+01	12.4264	30.260351	0.000253	2.533002	0.858204	0.000101
 314	3.1143e+01	12.4665	30.377428	0.000294	2.938282	0.995517	0.000118
 315	3.1243e+01	12.5034	30.490468	0.000284	2.836962	0.961189	0.000114
 316	3.1343e+01	12.5467	30.591396	0.000253	2.533002	0.858204	0.000101
 317	3.1442e+01	12.5788	30.712510	0.000304	3.039602	1.029845	0.000122
 318	3.1541e+01	12.6269	30.797290	0.000213	2.127721	0.720892	0.000085
 319	3.1641e+01	12.6574	30.918404	0.000304	3.039602	1.029845	0.000122
 320	3.1741e+01	12.7023	31.039518	0.000304	3.039602	1.029845	0.000122
 321	3.1840e+01	12.7504	31.156595	0.000294	2.938282	0.995517	0.000118
 322	3.1939e+01	12.7809	31.253486	0.000243	2.431682	0.823876	0.000097
 323	3.2039e+01	12.8194	31.374600	0.000304	3.039602	1.029845	0.000122
 324	3.2139e+01	12.8579	31.483603	0.000274	2.735642	0.926861	0.000110
 325	3.2238e+01	12.9012	31.604717	0.000304	3.039602	1.029845	0.000122
 326	3.2337e+01	12.9397	31.669311	0.000162	1.621121	0.549251	0.000065
 327	3.2437e+01	12.9782	31.786388	0.000294	2.938282	0.995517	0.000118
 328	3.2536e+01	13.0183	31.931725	0.000365	3.647522	1.235814	0.000146
 329	3.2636e+01	13.0649	32.028616	0.000243	2.431682	0.823876	0.000097
 330	3.2736e+01	13.1082	32.121470	0.000233	2.330362	0.789548	0.000093
 331	3.2835e+01	13.1403	32.262770	0.000355	3.546202	1.201486	0.000142
 332	3.2934e+01	13.1788	32.351587	0.000223	2.229041	0.755220	0.000089
 333	3.3034e+01	13.2173	32.444441	0.000233	2.330362	0.789548	0.000093
 334	3.3133e+01	13.2622	32.569593	0.000314	3.140922	1.064173	0.000126
 335	3.3233e+01	13.2975	32.670521	0.000253	2.533002	0.858204	0.000101
 336	3.3333e+01	13.3456	32.775486	0.000263	2.634322	0.892532	0.000105
 337	3.3432e+01	13.3745	32.888526	0.000284	2.836962	0.961189	0.000114
 338	3.3532e+01	13.4210	33.021752	0.000334	3.343562	1.132830	0.000134
 339	3.3631e+01	13.4627	33.150940	0.000324	3.242242	1.098501	0.000130
 340	3.3730e+01	13.4916	33.183237	0.000081	0.810561	0.274625	0.000032
 341	3.3830e+01	13.5413	33.320500	0.000344	3.444882	1.167158	0.000138
 342	3.3929e+01	13.5670	33.465837	0.000365	3.647522	1.235814	0.000146
 343	3.4029e+01	13.6280	33.546579	0.000203	2.026401	0.686563	0.000081
 344	3.4129e+01	13.6552	33.663656	0.000294	2.938282	0.995517	0.000118
 345	3.4228e+01	13.6969	33.772659	0.000274	2.735642	0.926861	0.000110
 346	3.4328e+01	13.7306	33.905884	0.000334	3.343562	1.132830	0.000134
 347	3.4427e+01	13.7804	34.002776	0.000243	2.431682	0.823876	0.000097
 348	3.4526e+01	13.8157	34.095630	0.000233	2.330362	0.789548	0.000093
 349	3.4626e+01	13.8606	34.220781	0.000314	3.140922	1.064173	0.000126
 350	3.4725e+01	13.8975	34.313635	0.000233	2.330362	0.789548	0.000093
 351	3.4825e+01	13.9344	34.463009	0.000375	3.748843	1.270142	0.000150
 352	3.4925e+01	13.9809	34.576049	0.000284	2.836962	0.961189	0.000114
 353	3.5024e+01	14.0226	34.656792	0.000203	2.026401	0.686563	0.000081
 354	3.5123e+01	14.0499	34.798091	0.000355	3.546202	1.201486	0.000142
 355	3.5223e+01	14.0980	34.923243	0.000314	3.140922	1.064173	0.000126
 356	3.5322e+01	14.1333	35.012060	0.000223	2.229041	0.755220	0.000089
 357	3.5422e+01	14.1766	35.133174	0.000304	3.039602	1.029845	0.000122
 358	3.5522e+01	14.2215	35.197768	0.000162	1.621121	0.549251	0.000065
 359	3.5621e+01	14.2536	35.302733	0.000263	2.634322	0.892532	0.000105
 360	3.5721e+01	14.2969	35.468256	0.000415	4.154123	1.407455	0.000166
 361	3.5820e+01	14.3338	35.553036	0.000213	2.127721	0.720892	0.000085
 362	3.5919e+01	14.3643	35.702410	0.000375	3.748843	1.270142	0.000150
 363	3.6019e+01	14.4204	35.803338	0.000253	2.533002	0.858204	0.000101
 364	3.6118e+01	14.4557	35.920415	0.000294	2.938282	0.995517	0.000118
 365	3.6218e+01	14.4894	35.997121	0.000193	1.925081	0.652235	0.000077
 366	3.6318e+01	14.5311	36.114198	0.000294	2.938282	0.995517	0.000118
 367	3.6417e+01	14.5712	36.247423	0.000334	3.343562	1.132830	0.000134
 368	3.6517e+01	14.6178	36.368537	0.000304	3.039602	1.029845	0.000122
 369	3.6616e+01	14.6482	36.481577	0.000284	2.836962	0.961189	0.000114
 370	3.6715e+01	14.6932	36.594617	0.000284	2.836962	0.961189	0.000114
 371	3.6815e+01	14.7285	36.663248	0.000172	1.722441	0.583579	0.000069
 372	3.6914e+01	14.7718	36.800511	0.000344	3.444882	1.167158	0.000138
 373	3.7014e+01	14.8087	36.925662	0.000314	3.140922	1.064173	0.000126
 374	3.7114e+01	14.8616	37.058888	0.000334	3.343562	1.132830	0.000134
 375	3.7213e+01	14.8841	37.123482	0.000162	1.621121	0.549251	0.000065
 376	3.7313e+01	14.9322	37.256707	0.000334	3.343562	1.132830	0.000134
 377	3.7412e+01	14.9627	37.341487	0.000213	2.127721	0.720892	0.000085
 378	3.7511e+01	15.0092	37.474712	0.000334	3.343562	1.132830	0.000134
 379	3.7611e+01	15.0525	37.575641	0.000253	2.533002	0.858204	0.000101
 380	3.7711e+01	15.0766	37.656384	0.000203	2.026401	0.686563	0.000081
 381	3.7810e+01	15.1295	37.777498	0.000304	3.039602	1.029845	0.000122
 382	3.7910e+01	15.1696	37.890537	0.000284	2.836962	0.961189	0.000114
 383	3.8009e+01	15.2161	37.979354	0.000223	2.229041	0.755220	0.000089
 384	3.8108e+01	15.2514	38.096431	0.000294	2.938282	0.995517	0.000118
 385	3.8208e+01	15.2883	38.237731	0.000355	3.546202	1.201486	0.000142
 386	3.8307e+01	15.3333	38.366919	0.000324	3.242242	1.098501	0.000130
 387	3.8407e+01	15.3686	38.467848	0.000253	2.533002	0.858204	0.000101
 388	3.8507e+01	15.4135	38.544553	0.000193	1.925081	0.652235	0.000077
 389	3.8606e+01	15.4520	38.681816	0.000344	3.444882	1.167158	0.000138
 390	3.8706e+01	15.4921	38.786782	0.000263	2.634322	0.892532	0.000105
 391	3.8805e+01	15.5322	38.924044	0.000344	3.444882	1.167158	0.000138
 392	3.8904e+01	15.5659	39.008824	0.000213	2.127721	0.720892	0.000085
 393	3.9004e+01	15.6044	39.097641	0.000223	2.229041	0.755220	0.000089
 394	3.9103e+01	15.6445	39.234904	0.000344	3.444882	1.167158	0.000138
 395	3.9203e+01	15.6910	39.327758	0.000233	2.330362	0.789548	0.000093
 396	3.9303e+01	15.7295	39.473095	0.000365	3.647522	1.235814	0.000146
 397	3.9402e+01	15.7680	39.586134	0.000284	2.836962	0.961189	0.000114
 398	3.9502e+01	15.8081	39.662840	0.000193	1.925081	0.652235	0.000077
 399	3.9601e+01	15.8418	39.808177	0.000365	3.647522	1.235814	0.000146
 400	3.9700e+01	15.8851	39.929291	0.000304	3.039602	1.029845	0.000122
 401	3.9800e+01	15.9316	40.042331	0.000284	2.836962	0.961189	0.000114
 402	3.9900e+01	15.9685	40.183631	0.000355	3.546202	1.201486	0.000142
 403	3.9999e+01	16.0054	40.252262	0.000172	1.722441	0.583579	0.000069
 404	4.0099e+01	16.0391	40.413747	0.000405	4.052803	1.373127	0.000162
 405	4.0198e+01	16.0905	40.518713	0.000263	2.634322	0.892532	0.000105
 406	4.0297e+01	16.1257	40.643864	0.000314	3.140922	1.064173	0.000126
 407	4.0397e+01	16.1707	40.748830	0.000263	2.634322	0.892532	0.000105
 408	4.0496e+01	16.2044	40.861869	0.000284	2.836962	0.961189	0.000114
 409	4.0596e+01	16.2509	40.987021	0.000314	3.140922	1.064173	0.000126
 410	4.0696e+01	16.2894	41.087949	0.000253	2.533002	0.858204	0.000101
 411	4.0795e+01	16.3295	41.225212	0.000344	3.444882	1.167158	0.000138
 412	4.0895e+01	16.3696	41.318066	0.000233	2.330362	0.789548	0.000093
 413	4.0994e+01	16.4033	41.503774	0.000466	4.660723	1.579096	0.000187
 414	4.1093e+01	16.4546	41.560294	0.000142	1.418481	0.480594	0.000057
 415	4.1193e+01	16.4867	41.729854	0.000426	4.255443	1.441783	0.000170
 416	4.1292e+01	16.5252	41.826745	0.000243	2.431682	0.823876	0.000097
 417	4.1392e+01	16.5589	41.927673	0.000253	2.533002	0.858204	0.000101
 418	4.1492e+01	16.6150	42.060899	0.000334	3.343562	1.132830	0.000134
 419	4.1591e+01	16.6551	42.177976	0.000294	2.938282	0.995517	0.000118
 420	4.1691e+01	16.6920	42.295053	0.000294	2.938282	0.995517	0.000118
 421	4.1790e+01	16.7145	42.355610	0.000152	1.519801	0.514923	0.000061
 422	4.1889e+01	16.7642	42.517095	0.000405	4.052803	1.373127	0.000162
 423	4.1989e+01	16.8011	42.622061	0.000263	2.634322	0.892532	0.000105
 424	4.2089e+01	16.8412	42.751249	0.000324	3.242242	1.098501	0.000130
 425	4.2188e+01	16.8813	42.848140	0.000243	2.431682	0.823876	0.000097
 426	4.2288e+01	16.9279	42.961180	0.000284	2.836962	0.961189	0.000114
 427	4.2387e+01	16.9648	43.098443	0.000344	3.444882	1.167158	0.000138
 428	4.2486e+01	17.0049	43.175148	0.000193	1.925081	0.652235	0.000077
 429	4.2586e+01	17.0450	43.268002	0.000233	2.330362	0.789548	0.000093
 430	4.2685e+01	17.0867	43.389116	0.000304	3.039602	1.029845	0.000122
 431	4.2785e+01	17.1236	43.502156	0.000284	2.836962	0.961189	0.000114
 432	4.2885e+01	17.1653	43.615196	0.000284	2.836962	0.961189	0.000114
 433	4.2984e+01	17.1990	43.720161	0.000263	2.634322	0.892532	0.000105
 434	4.3084e+01	17.2439	43.829164	0.000274	2.735642	0.926861	0.000110
 435	4.3183e+01	17.2760	43.938167	0.000274	2.735642	0.926861	0.000110
 436	4.3282e+01	17.3241	44.043132	0.000263	2.634322	0.892532	0.000105
 437	4.3382e+01	17.3626	44.144061	0.000253	2.533002	0.858204	0.000101
 438	4.3481e+01	17.4059	44.249026	0.000263	2.634322	0.892532	0.000105
 439	4.3581e+01	17.4444	44.362066	0.000284	2.836962	0.961189	0.000114
 440	4.3681e+01	17.4861	44.450883	0.000223	2.229041	0.755220	0.000089
 441	4.3780e+01	17.5198	44.588146	0.000344	3.444882	1.167158	0.000138
 442	4.3880e+01	17.5615	44.681000	0.000233	2.330362	0.789548	0.000093
 443	4.3979e+01	17.6032	44.834411	0.000385	3.850163	1.304470	0.000154
 444	4.4078e+01	17.6482	44.927265	0.000233	2.330362	0.789548	0.000093
 445	4.4178e+01	17.6883	45.024156	0.000243	2.431682	0.823876	0.000097
 446	4.4278e+01	17.7252	45.133159	0.000274	2.735642	0.926861	0.000110
 447	4.4377e+01	17.7685	45.258310	0.000314	3.140922	1.064173	0.000126
 448	4.4477e+01	17.8006	45.326941	0.000172	1.722441	0.583579	0.000069
 449	4.4576e+01	17.8391	45.460167	0.000334	3.343562	1.132830	0.000134
 450	4.4675e+01	17.8679	45.569170	0.000274	2.735642	0.926861	0.000110
 451	4.4775e+01	17.9225	45.694321	0.000314	3.140922	1.064173	0.000126
 452	4.4874e+01	17.9626	45.803324	0.000274	2.735642	0.926861	0.000110
 453	4.4974e+01	18.0091	45.928475	0.000314	3.140922	1.064173	0.000126
 454	4.5074e+01	18.0492	46.017292	0.000223	2.229041	0.755220	0.000089
 455	4.5173e+01	18.0797	46.138406	0.000304	3.039602	1.029845	0.000122
 456	4.5273e+01	18.1182	46.235297	0.000243	2.431682	0.823876	0.000097
 457	4.5372e+01	18.1647	46.388708	0.000385	3.850163	1.304470	0.000154
 458	4.5471e+01	18.2016	46.473488	0.000213	2.127721	0.720892	0.000085
 459	4.5571e+01	18.2353	46.590565	0.000294	2.938282	0.995517	0.000118
 460	4.5670e+01	18.2786	46.739939	0.000375	3.748843	1.270142	0.000150
 461	4.5770e+01	18.3139	46.828756	0.000223	2.229041	0.755220	0.000089
 462	4.5870e+01	18.3620	46.941796	0.000284	2.836962	0.961189	0.000114
 463	4.5969e+01	18.4038	47.026576	0.000213	2.127721	0.720892	0.000085
 464	4.6069e+01	18.4407	47.147690	0.000304	3.039602	1.029845	0.000122
 465	4.6168e+01	18.4808	47.284952	0.000344	3.444882	1.167158	0.000138
 466	4.6267e+01	18.5193	47.414141	0.000324	3.242242	1.098501	0.000130
 467	4.6367e+01	18.5578	47.519106	0.000263	2.634322	0.892532	0.000105
 468	4.6467e+01	18.6011	47.607923	0.000223	2.229041	0.755220	0.000089
 469	4.6566e+01	18.6364	47.757297	0.000375	3.748843	1.270142	0.000150
 470	4.6666e+01	18.6749	47.862263	0.000263	2.634322	0.892532	0.000105
 471	4.6765e+01	18.7166	47.971265	0.000274	2.735642	0.926861	0.000110
 472	4.6864e+01	18.7647	48.112565	0.000355	3.546202	1.201486	0.000142
 473	4.6964e+01	18.7984	48.209456	0.000243	2.431682	0.823876	0.000097
 474	4.7063e+01	18.8369	48.322496	0.000284	2.836962	0.961189	0.000114
 475	4.7163e+01	18.8834	48.467833	0.000365	3.647522	1.235814	0.000146
 476	4.7263e+01	18.9267	48.540502	0.000182	1.823761	0.617907	0.000073
 477	4.7362e+01	18.9540	48.661616	0.000304	3.039602	1.029845	0.000122
 478	4.7462e+01	19.0021	48.802915	0.000355	3.546202	1.201486	0.000142
 479	4.7561e+01	19.0342	48.932104	0.000324	3.242242	1.098501	0.000130
 480	4.7660e+01	19.0727	49.041106	0.000274	2.735642	0.926861	0.000110
 481	4.7760e+01	19.1128	49.142035	0.000253	2.533002	0.858204	0.000101
 482	4.7859e+01	19.1497	49.263149	0.000304	3.039602	1.029845	0.000122
 483	4.7959e+01	19.1914	49.380226	0.000294	2.938282	0.995517	0.000118
 484	4.8059e+01	19.2348	49.497303	0.000294	2.938282	0.995517	0.000118
 485	4.8158e+01	19.2716	49.638602	0.000355	3.546202	1.201486	0.000142
 486	4.8258e+01	19.3246	49.747605	0.000274	2.735642	0.926861	0.000110
 487	4.8357e+01	19.3535	49.876793	0.000324	3.242242	1.098501	0.000130
 488	4.8456e+01	19.3952	50.022130	0.000365	3.647522	1.235814	0.000146
 489	4.8556e+01	19.4369	50.106910	0.000213	2.127721	0.720892	0.000085
 490	4.8656e+01	19.4738	50.215913	0.000274	2.735642	0.926861	0.000110
 491	4.8755e+01	19.5155	50.369324	0.000385	3.850163	1.304470	0.000154
 492	4.8855e+01	19.5652	50.514661	0.000365	3.647522	1.235814	0.000146
 493	4.8954e+01	19.5973	50.619626	0.000263	2.634322	0.892532	0.000105
 494	4.9053e+01	19.6374	50.740741	0.000304	3.039602	1.029845	0.000122
 495	4.9153e+01	19.6743	50.853780	0.000284	2.836962	0.961189	0.000114
 496	4.9252e+01	19.7128	50.974894	0.000304	3.039602	1.029845	0.000122
 497	4.9352e+01	19.7577	51.087934	0.000284	2.836962	0.961189	0.000114
 498	4.9452e+01	19.7962	51.241345	0.000385	3.850163	1.304470	0.000154
 499	4.9551e+01	19.8283	51.346311	0.000263	2.634322	0.892532	0.000105
 500	4.9651e+01	19.8668	51.499722	0.000385	3.850163	1.304470	0.000154
 501	4.9750e+01	19.9246	51.588539	0.000223	2.229041	0.755220	0.000089
 502	4.9849e+01	19.9518	51.709653	0.000304	3.039602	1.029845	0.000122
 503	4.9949e+01	19.9968	51.895361	0.000466	4.660723	1.579096	0.000187
 504	5.0048e+01	19.9567	51.830767	0.000162	1.621121	0.549251	-0.000065
 505	5.0148e+01	19.9085	51.786359	0.000111	1.114521	0.377610	-0.000045
 506	5.0248e+01	19.8684	51.733876	0.000132	1.317161	0.446266	-0.000053
 507	5.0347e+01	19.8347	51.713690	0.000051	0.506600	0.171641	-0.000020
 508	5.0447e+01	19.7994	51.657170	0.000142	1.418481	0.480594	-0.000057
 509	5.0546e+01	19.7545	51.612762	0.000111	1.114521	0.377610	-0.000045
 510	5.0645e+01	19.7112	51.560279	0.000132	1.317161	0.446266	-0.000053
 511	5.0745e+01	19.6711	51.544131	0.000041	0.405280	0.137313	-0.000016
 512	5.0844e+01	19.6262	51.507796	0.000091	0.911881	0.308954	-0.000037
 513	5.0944e+01	19.5909	51.443202	0.000162	1.621121	0.549251	-0.000065
 514	5.1044e+01	19.5508	51.402831	0.000101	1.013201	0.343282	-0.000041
 515	5.1143e+01	19.5139	51.394757	0.000020	0.202640	0.068656	-0.000008
 516	5.1242e+01	19.4674	51.326125	0.000172	1.722441	0.583579	-0.000069
 517	5.1342e+01	19.4369	51.281717	0.000111	1.114521	0.377610	-0.000045
 518	5.1441e+01	19.3952	51.229234	0.000132	1.317161	0.446266	-0.000053
 519	5.1541e+01	19.3599	51.217123	0.000030	0.303960	0.102985	-0.000012
 520	5.1641e+01	19.3150	51.144454	0.000182	1.823761	0.617907	-0.000073
 521	5.1740e+01	19.2765	51.079860	0.000162	1.621121	0.549251	-0.000065
 522	5.1840e+01	19.2412	51.055637	0.000061	0.607920	0.205969	-0.000024
 523	5.1939e+01	19.1946	51.027377	0.000071	0.709240	0.240297	-0.000028
 524	5.2038e+01	19.1529	50.982969	0.000111	1.114521	0.377610	-0.000045
 525	5.2138e+01	19.1128	50.970857	0.000030	0.303960	0.102985	-0.000012
 526	5.2237e+01	19.0775	50.857817	0.000284	2.836962	0.961189	-0.000114
 527	5.2337e+01	19.0342	50.821483	0.000091	0.911881	0.308954	-0.000037
 528	5.2437e+01	18.9909	50.805335	0.000041	0.405280	0.137313	-0.000016
 529	5.2536e+01	18.9508	50.744778	0.000152	1.519801	0.514923	-0.000061
 530	5.2636e+01	18.9219	50.704406	0.000101	1.013201	0.343282	-0.000041
 531	5.2735e+01	18.8866	50.643849	0.000152	1.519801	0.514923	-0.000061
 532	5.2834e+01	18.8433	50.619626	0.000061	0.607920	0.205969	-0.000024
 533	5.2934e+01	18.7936	50.522735	0.000243	2.431682	0.823876	-0.000097
 534	5.3033e+01	18.7631	50.502550	0.000051	0.506600	0.171641	-0.000020
 535	5.3133e+01	18.7182	50.433918	0.000172	1.722441	0.583579	-0.000069
 536	5.3233e+01	18.6685	50.369324	0.000162	1.621121	0.549251	-0.000065
 537	5.3332e+01	18.6364	50.357213	0.000030	0.303960	0.102985	-0.000012
 538	5.3431e+01	18.5915	50.296656	0.000152	1.519801	0.514923	-0.000061
 539	5.3531e+01	18.5594	50.244173	0.000132	1.317161	0.446266	-0.000053
 540	5.3630e+01	18.5193	50.187653	0.000142	1.418481	0.480594	-0.000057
 541	5.3730e+01	18.4679	50.151319	0.000091	0.911881	0.308954	-0.000037
 542	5.3830e+01	18.4391	50.078650	0.000182	1.823761	0.617907	-0.000073
 543	5.3929e+01	18.3973	50.038279	0.000101	1.013201	0.343282	-0.000041
 544	5.4029e+01	18.3604	50.005982	0.000081	0.810561	0.274625	-0.000032
 545	5.4128e+01	18.3203	49.913128	0.000233	2.330362	0.789548	-0.000093
 546	5.4227e+01	18.2754	49.868719	0.000111	1.114521	0.377610	-0.000045
 547	5.4327e+01	18.2385	49.836422	0.000081	0.810561	0.274625	-0.000032
 548	5.4426e+01	18.2080	49.775865	0.000152	1.519801	0.514923	-0.000061
 549	5.4526e+01	18.1535	49.699160	0.000193	1.925081	0.652235	-0.000077
 550	5.4626e+01	18.1230	49.695122	0.000010	0.101320	0.034328	-0.000004
 551	5.4725e+01	18.0829	49.630528	0.000162	1.621121	0.549251	-0.000065
 552	5.4825e+01	18.0380	49.561897	0.000172	1.722441	0.583579	-0.000069
 553	5.4924e+01	18.0027	49.541711	0.000051	0.506600	0.171641	-0.000020
 554	5.5023e+01	17.9562	49.473080	0.000172	1.722441	0.583579	-0.000069
 555	5.5123e+01	17.9145	49.416560	0.000142	1.418481	0.480594	-0.000057
 556	5.5222e+01	17.8631	49.327743	0.000223	2.229041	0.755220	-0.000089
 557	5.5322e+01	17.8391	49.323706	0.000010	0.101320	0.034328	-0.000004
 558	5.5422e+01	17.8006	49.238926	0.000213	2.127721	0.720892	-0.000085
 559	5.5521e+01	17.7653	49.182406	0.000142	1.418481	0.480594	-0.000057
 560	5.5620e+01	17.7171	49.178369	0.000010	0.101320	0.034328	-0.000004
 561	5.5720e+01	17.6915	49.113775	0.000162	1.621121	0.549251	-0.000065
 562	5.5819e+01	17.6401	49.024958	0.000223	2.229041	0.755220	-0.000089
 563	5.5919e+01	17.6065	48.940178	0.000213	2.127721	0.720892	-0.000085
 564	5.6019e+01	17.5647	48.924029	0.000041	0.405280	0.137313	-0.000016
 565	5.6118e+01	17.5262	48.859435	0.000162	1.621121	0.549251	-0.000065
 566	5.6218e+01	17.4861	48.774655	0.000213	2.127721	0.720892	-0.000085
 567	5.6317e+01	17.4444	48.762544	0.000030	0.303960	0.102985	-0.000012
 568	5.6416e+01	17.4059	48.657578	0.000263	2.634322	0.892532	-0.000105
 569	5.6516e+01	17.3642	48.617207	0.000101	1.013201	0.343282	-0.000041
 570	5.6615e+01	17.3225	48.564724	0.000132	1.317161	0.446266	-0.000053
 571	5.6715e+01	17.2776	48.508204	0.000142	1.418481	0.480594	-0.000057
 572	5.6815e+01	17.2503	48.443610	0.000162	1.621121	0.549251	-0.000065
 573	5.6914e+01	17.2006	48.370942	0.000182	1.823761	0.617907	-0.000073
 574	5.7014e+01	17.1653	48.310385	0.000152	1.519801	0.514923	-0.000061
 575	5.7113e+01	17.1236	48.261939	0.000122	1.215841	0.411938	-0.000049
 576	5.7212e+01	17.0819	48.189271	0.000182	1.823761	0.617907	-0.000073
 577	5.7312e+01	17.0353	48.128714	0.000152	1.519801	0.514923	-0.000061
 578	5.7411e+01	17.0001	48.084305	0.000111	1.114521	0.377610	-0.000045
 579	5.7511e+01	16.9696	48.031822	0.000132	1.317161	0.446266	-0.000053
 580	5.7611e+01	16.9214	47.955117	0.000193	1.925081	0.652235	-0.000077
 581	5.7710e+01	16.8862	47.886486	0.000172	1.722441	0.583579	-0.000069
 582	5.7809e+01	16.8380	47.874374	0.000030	0.303960	0.102985	-0.000012
 583	5.7909e+01	16.8059	47.777483	0.000243	2.431682	0.823876	-0.000097
 584	5.8008e+01	16.7658	47.708852	0.000172	1.722441	0.583579	-0.000069
 585	5.8108e+01	16.7161	47.628109	0.000203	2.026401	0.686563	-0.000081
 586	5.8208e+01	16.6840	47.579663	0.000122	1.215841	0.411938	-0.000049
 587	5.8307e+01	16.6471	47.527180	0.000132	1.317161	0.446266	-0.000053
 588	5.8407e+01	16.6006	47.498921	0.000071	0.709240	0.240297	-0.000028
 589	5.8506e+01	16.5717	47.377806	0.000304	3.039602	1.029845	-0.000122
 590	5.8605e+01	16.5284	47.321287	0.000142	1.418481	0.480594	-0.000057
 591	5.8705e+01	16.4803	47.224395	0.000243	2.431682	0.823876	-0.000097
 592	5.8804e+01	16.4546	47.179987	0.000111	1.114521	0.377610	-0.000045
 593	5.8904e+01	16.4017	47.107318	0.000182	1.823761	0.617907	-0.000073
 594	5.9004e+01	16.3648	47.058873	0.000122	1.215841	0.411938	-0.000049
 595	5.9103e+01	16.3247	46.998316	0.000152	1.519801	0.514923	-0.000061
 596	5.9203e+01	16.2830	46.941796	0.000142	1.418481	0.480594	-0.000057
 597	5.9302e+01	16.2525	46.836830	0.000263	2.634322	0.892532	-0.000105
 598	5.9401e+01	16.2076	46.808570	0.000071	0.709240	0.240297	-0.000028
 599	5.9501e+01	16.1707	46.715716	0.000233	2.330362	0.789548	-0.000093
 600	5.9600e+01	16.1177	46.679382	0.000091	0.911881	0.308954	-0.000037
 601	5.9700e+01	16.0872	46.582491	0.000243	2.431682	0.823876	-0.000097
 602	5.9800e+01	16.0487	46.521934	0.000152	1.519801	0.514923	-0.000061
 603	5.9899e+01	16.0118	46.425042	0.000243	2.431682	0.823876	-0.000097
 604	5.9998e+01	15.9685	46.364485	0.000152	1.519801	0.514923	-0.000061
 605	6.0098e+01	15.9284	46.279706	0.000213	2.127721	0.720892	-0.000085
 606	6.0197e+01	15.8899	46.235297	0.000111	1.114521	0.377610	-0.000045
 607	6.0297e+01	15.8498	46.162629	0.000182	1.823761	0.617907	-0.000073
 608	6.0397e+01	15.8081	46.073812	0.000223	2.229041	0.755220	-0.000089
 609	6.0496e+01	15.7664	46.017292	0.000142	1.418481	0.480594	-0.000057
 610	6.0596e+01	15.7263	45.960772	0.000142	1.418481	0.480594	-0.000057
 611	6.0695e+01	15.6846	45.888103	0.000182	1.823761	0.617907	-0.000073
 612	6.0794e+01	15.6637	45.815435	0.000182	1.823761	0.617907	-0.000073
 613	6.0894e+01	15.6060	45.758915	0.000142	1.418481	0.480594	-0.000057
 614	6.0993e+01	15.5771	45.698358	0.000152	1.519801	0.514923	-0.000061
 615	6.1093e+01	15.5354	45.649912	0.000122	1.215841	0.411938	-0.000049
 616	6.1193e+01	15.4825	45.524761	0.000314	3.140922	1.064173	-0.000126
 617	6.1292e+01	15.4488	45.476316	0.000122	1.215841	0.411938	-0.000049
 618	6.1392e+01	15.4183	45.419796	0.000142	1.418481	0.480594	-0.000057
 619	6.1491e+01	15.3702	45.359239	0.000152	1.519801	0.514923	-0.000061
 620	6.1590e+01	15.3349	45.326941	0.000081	0.810561	0.274625	-0.000032
 621	6.1690e+01	15.2851	45.213902	0.000284	2.836962	0.961189	-0.000114
 622	6.1789e+01	15.2482	45.197753	0.000041	0.405280	0.137313	-0.000016
 623	6.1889e+01	15.2129	45.104899	0.000233	2.330362	0.789548	-0.000093
 624	6.1989e+01	15.1760	45.032231	0.000182	1.823761	0.617907	-0.000073
 625	6.2088e+01	15.1327	44.979748	0.000132	1.317161	0.446266	-0.000053
 626	6.2188e+01	15.0846	44.907079	0.000182	1.823761	0.617907	-0.000073
 627	6.2287e+01	15.0493	44.878819	0.000071	0.709240	0.240297	-0.000028
 628	6.2386e+01	15.0092	44.794040	0.000213	2.127721	0.720892	-0.000085
 629	6.2486e+01	14.9707	44.705223	0.000223	2.229041	0.755220	-0.000089
 630	6.2586e+01	14.9290	44.644666	0.000152	1.519801	0.514923	-0.000061
 631	6.2685e+01	14.8937	44.563923	0.000203	2.026401	0.686563	-0.000081
 632	6.2785e+01	14.8488	44.487217	0.000193	1.925081	0.652235	-0.000077
 633	6.2884e+01	14.8119	44.483180	0.000010	0.101320	0.034328	-0.000004
 634	6.2983e+01	14.7750	44.353992	0.000324	3.242242	1.098501	-0.000130
 635	6.3083e+01	14.7301	44.333806	0.000051	0.506600	0.171641	-0.000020
 636	6.3182e+01	14.6884	44.285360	0.000122	1.215841	0.411938	-0.000049
 637	6.3282e+01	14.6499	44.188469	0.000243	2.431682	0.823876	-0.000097
 638	6.3382e+01	14.6146	44.103689	0.000213	2.127721	0.720892	-0.000085
 639	6.3481e+01	14.5761	44.059281	0.000111	1.114521	0.377610	-0.000045
 640	6.3581e+01	14.5376	43.966427	0.000233	2.330362	0.789548	-0.000093
 641	6.3680e+01	14.4894	43.913944	0.000132	1.317161	0.446266	-0.000053
 642	6.3779e+01	14.4654	43.845313	0.000172	1.722441	0.583579	-0.000069
 643	6.3879e+01	14.4156	43.788793	0.000142	1.418481	0.480594	-0.000057
 644	6.3978e+01	14.3739	43.699976	0.000223	2.229041	0.755220	-0.000089
 645	6.4078e+01	14.3370	43.663642	0.000091	0.911881	0.308954	-0.000037
 646	6.4177e+01	14.2889	43.558676	0.000263	2.634322	0.892532	-0.000105
 647	6.4277e+01	14.2520	43.481970	0.000193	1.925081	0.652235	-0.000077
 648	6.4376e+01	14.2151	43.401228	0.000203	2.026401	0.686563	-0.000081
 649	6.4476e+01	14.1734	43.381042	0.000051	0.506600	0.171641	-0.000020
 650	6.4576e+01	14.1365	43.280114	0.000253	2.533002	0.858204	-0.000101
 651	6.4675e+01	14.0980	43.195334	0.000213	2.127721	0.720892	-0.000085
 652	6.4775e+01	14.0531	43.142851	0.000132	1.317161	0.446266	-0.000053
 653	6.4874e+01	14.0066	43.070183	0.000182	1.823761	0.617907	-0.000073
 654	6.4974e+01	13.9713	42.993477	0.000193	1.925081	0.652235	-0.000077
 655	6.5073e+01	13.9312	42.949069	0.000111	1.114521	0.377610	-0.000045
 656	6.5172e+01	13.8959	42.844103	0.000263	2.634322	0.892532	-0.000105
 657	6.5272e+01	13.8509	42.799695	0.000111	1.114521	0.377610	-0.000045
 658	6.5371e+01	13.8140	42.694729	0.000263	2.634322	0.892532	-0.000105
 659	6.5471e+01	13.7707	42.666469	0.000071	0.709240	0.240297	-0.000028
 660	6.5570e+01	13.7322	42.573615	0.000233	2.330362	0.789548	-0.000093
 661	6.5670e+01	13.7018	42.480761	0.000233	2.330362	0.789548	-0.000093
 662	6.5769e+01	13.6472	42.428278	0.000132	1.317161	0.446266	-0.000053
 663	6.5869e+01	13.6167	42.359647	0.000172	1.722441	0.583579	-0.000069
 664	6.5969e+01	13.5782	42.246607	0.000284	2.836962	0.961189	-0.000114
 665	6.6068e+01	13.5461	42.194124	0.000132	1.317161	0.446266	-0.000053
 666	6.6168e+01	13.4980	42.133567	0.000152	1.519801	0.514923	-0.000061
 667	6.6267e+01	13.4627	42.036676	0.000243	2.431682	0.823876	-0.000097
 668	6.6367e+01	13.4130	41.976119	0.000152	1.519801	0.514923	-0.000061
 669	6.6466e+01	13.3681	41.907488	0.000172	1.722441	0.583579	-0.000069
 670	6.6566e+01	13.3248	41.830782	0.000193	1.925081	0.652235	-0.000077
 671	6.6665e+01	13.2975	41.725816	0.000263	2.634322	0.892532	-0.000105
 672	6.6764e+01	13.2654	41.645074	0.000203	2.026401	0.686563	-0.000081
 673	6.6864e+01	13.2076	41.580480	0.000162	1.621121	0.549251	-0.000065
 674	6.6963e+01	13.1740	41.483588	0.000243	2.431682	0.823876	-0.000097
 675	6.7063e+01	13.1387	41.439180	0.000111	1.114521	0.377610	-0.000045
 676	6.7162e+01	13.1018	41.382660	0.000142	1.418481	0.480594	-0.000057
 677	6.7262e+01	13.0681	41.265583	0.000294	2.938282	0.995517	-0.000118
 678	6.7362e+01	13.0167	41.200989	0.000162	1.621121	0.549251	-0.000065
 679	6.7461e+01	12.9734	41.120246	0.000203	2.026401	0.686563	-0.000081
 680	6.7561e+01	12.9430	41.043540	0.000193	1.925081	0.652235	-0.000077
 681	6.7660e+01	12.8948	40.978946	0.000162	1.621121	0.549251	-0.000065
 682	6.7760e+01	12.8627	40.918389	0.000152	1.519801	0.514923	-0.000061
 683	6.7859e+01	12.8242	40.825535	0.000233	2.330362	0.789548	-0.000093
 684	6.7959e+01	12.7809	40.744792	0.000203	2.026401	0.686563	-0.000081
 685	6.8058e+01	12.7360	40.704421	0.000101	1.013201	0.343282	-0.000041
 686	6.8157e+01	12.7023	40.571196	0.000334	3.343562	1.132830	-0.000134
 687	6.8257e+01	12.6606	40.482379	0.000223	2.229041	0.755220	-0.000089
 688	6.8356e+01	12.6221	40.409710	0.000182	1.823761	0.617907	-0.000073
 689	6.8456e+01	12.5756	40.385487	0.000061	0.607920	0.205969	-0.000024
 690	6.8555e+01	12.5387	40.300708	0.000213	2.127721	0.720892	-0.000085
 691	6.8655e+01	12.4954	40.191705	0.000274	2.735642	0.926861	-0.000110
 692	6.8754e+01	12.4665	40.127111	0.000162	1.621121	0.549251	-0.000065
 693	6.8854e+01	12.4280	40.034257	0.000233	2.330362	0.789548	-0.000093
 694	6.8954e+01	12.3927	39.997922	0.000091	0.911881	0.308954	-0.000037
 695	6.9053e+01	12.3526	39.896994	0.000253	2.533002	0.858204	-0.000101
 696	6.9153e+01	12.3077	39.792028	0.000263	2.634322	0.892532	-0.000105
 697	6.9252e+01	12.2660	39.739546	0.000132	1.317161	0.446266	-0.000053
 698	6.9352e+01	12.2259	39.642654	0.000243	2.431682	0.823876	-0.000097
 699	6.9451e+01	12.1745	39.590172	0.000132	1.317161	0.446266	-0.000053
 700	6.9550e+01	12.1521	39.505392	0.000213	2.127721	0.720892	-0.000085
 701	6.9650e+01	12.1039	39.408501	0.000243	2.431682	0.823876	-0.000097
 702	6.9749e+01	12.0670	39.347943	0.000152	1.519801	0.514923	-0.000061
 703	6.9849e+01	12.0317	39.255089	0.000233	2.330362	0.789548	-0.000093
 704	6.9948e+01	11.9916	39.166272	0.000223	2.229041	0.755220	-0.000089
 705	7.0048e+01	11.9419	39.049195	0.000294	2.938282	0.995517	-0.000118
 706	7.0147e+01	11.9066	39.004787	0.000111	1.114521	0.377610	-0.000045
 707	7.0247e+01	11.8697	38.915970	0.000223	2.229041	0.755220	-0.000089
 708	7.0347e+01	11.8136	38.839264	0.000193	1.925081	0.652235	-0.000077
 709	7.0446e+01	11.7943	38.730262	0.000274	2.735642	0.926861	-0.000110
 710	7.0546e+01	11.7494	38.637408	0.000233	2.330362	0.789548	-0.000093
 711	7.0645e+01	11.7109	38.580888	0.000142	1.418481	0.480594	-0.000057
 712	7.0745e+01	11.6564	38.451699	0.000324	3.242242	1.098501	-0.000130
 713	7.0844e+01	11.6291	38.399217	0.000132	1.317161	0.446266	-0.000053
 714	7.0944e+01	11.5826	38.302325	0.000243	2.431682	0.823876	-0.000097
 715	7.1043e+01	11.5457	38.169100	0.000334	3.343562	1.132830	-0.000134
 716	7.1142e+01	11.5056	38.112580	0.000142	1.418481	0.480594	-0.000057
 717	7.1242e+01	11.4703	38.027800	0.000213	2.127721	0.720892	-0.000085
 718	7.1341e+01	11.4318	37.951095	0.000193	1.925081	0.652235	-0.000077
 719	7.1441e+01	11.3884	37.866315	0.000213	2.127721	0.720892	-0.000085
 720	7.1540e+01	11.3467	37.781535	0.000213	2.127721	0.720892	-0.000085
 721	7.1640e+01	11.2922	37.652346	0.000324	3.242242	1.098501	-0.000130
 722	7.1740e+01	11.2681	37.599864	0.000132	1.317161	0.446266	-0.000053
 723	7.1839e+01	11.2296	37.498935	0.000253	2.533002	0.858204	-0.000101
 724	7.1939e+01	11.1943	37.373784	0.000314	3.140922	1.064173	-0.000126
 725	7.2038e+01	11.1334	37.313227	0.000152	1.519801	0.514923	-0.000061
 726	7.2138e+01	11.1061	37.208262	0.000263	2.634322	0.892532	-0.000105
 727	7.2237e+01	11.0580	37.103296	0.000263	2.634322	0.892532	-0.000105
 728	7.2337e+01	11.0371	37.030628	0.000182	1.823761	0.617907	-0.000073
 729	7.2436e+01	10.9906	36.925662	0.000263	2.634322	0.892532	-0.000105
 730	7.2535e+01	10.9521	36.877216	0.000122	1.215841	0.411938	-0.000049
 731	7.2635e+01	10.9120	36.735917	0.000355	3.546202	1.201486	-0.000142
 732	7.2734e+01	10.8735	36.671322	0.000162	1.621121	0.549251	-0.000065
 733	7.2834e+01	10.8382	36.578468	0.000233	2.330362	0.789548	-0.000093
 734	7.2933e+01	10.7949	36.477540	0.000253	2.533002	0.858204	-0.000101
 735	7.3033e+01	10.7516	36.372574	0.000263	2.634322	0.892532	-0.000105
 736	7.3132e+01	10.7066	36.267609	0.000263	2.634322	0.892532	-0.000105
 737	7.3232e+01	10.6730	36.190903	0.000193	1.925081	0.652235	-0.000077
 738	7.3332e+01	10.6361	36.110161	0.000203	2.026401	0.686563	-0.000081
 739	7.3431e+01	10.5911	35.972898	0.000344	3.444882	1.167158	-0.000138
 740	7.3531e+01	10.5430	35.900230	0.000182	1.823761	0.617907	-0.000073
 741	7.3630e+01	10.5061	35.843710	0.000142	1.418481	0.480594	-0.000057
 742	7.3730e+01	10.4756	35.750856	0.000233	2.330362	0.789548	-0.000093
 743	7.3829e+01	10.4323	35.617630	0.000334	3.343562	1.132830	-0.000134
 744	7.3928e+01	10.3874	35.540924	0.000193	1.925081	0.652235	-0.000077
 745	7.4028e+01	10.3457	35.411736	0.000324	3.242242	1.098501	-0.000130
 746	7.4127e+01	10.3136	35.306771	0.000263	2.634322	0.892532	-0.000105
 747	7.4227e+01	10.2735	35.246214	0.000152	1.519801	0.514923	-0.000061
 748	7.4326e+01	10.2366	35.157397	0.000223	2.229041	0.755220	-0.000089
 749	7.4426e+01	10.1933	35.048394	0.000274	2.735642	0.926861	-0.000110
 750	7.4525e+01	10.1516	34.939391	0.000274	2.735642	0.926861	-0.000110
 751	7.4625e+01	10.1051	34.846537	0.000233	2.330362	0.789548	-0.000093
 752	7.4725e+01	10.0682	34.757720	0.000223	2.229041	0.755220	-0.000089
 753	7.4824e+01	10.0313	34.640643	0.000294	2.938282	0.995517	-0.000118
 754	7.4924e+01	9.9912	34.580086	0.000152	1.519801	0.514923	-0.000061
 755	7.5023e+01	9.9478	34.450898	0.000324	3.242242	1.098501	-0.000130
 756	7.5123e+01	9.9142	34.354007	0.000243	2.431682	0.823876	-0.000097
 757	7.5222e+01	9.8628	34.277301	0.000193	1.925081	0.652235	-0.000077
 758	7.5322e+01	9.8339	34.176373	0.000253	2.533002	0.858204	-0.000101
 759	7.5421e+01	9.7922	34.079481	0.000243	2.431682	0.823876	-0.000097
 760	7.5520e+01	9.7585	33.970479	0.000274	2.735642	0.926861	-0.000110
 761	7.5620e+01	9.7120	33.889736	0.000203	2.026401	0.686563	-0.000081
 762	7.5719e+01	9.6719	33.732288	0.000395	3.951483	1.338799	-0.000158
 763	7.5819e+01	9.6318	33.667693	0.000162	1.621121	0.549251	-0.000065
 764	7.5918e+01	9.5885	33.578877	0.000223	2.229041	0.755220	-0.000089
 765	7.6018e+01	9.5564	33.473911	0.000263	2.634322	0.892532	-0.000105
 766	7.6118e+01	9.5147	33.381057	0.000233	2.330362	0.789548	-0.000093
 767	7.6217e+01	9.4794	33.251869	0.000324	3.242242	1.098501	-0.000130
 768	7.6317e+01	9.4313	33.134792	0.000294	2.938282	0.995517	-0.000118
 769	7.6416e+01	9.3992	33.086346	0.000122	1.215841	0.411938	-0.000049
 770	7.6516e+01	9.3543	32.953120	0.000334	3.343562	1.132830	-0.000134
 771	7.6615e+01	9.3190	32.836044	0.000294	2.938282	0.995517	-0.000118
 772	7.6715e+01	9.2741	32.767412	0.000172	1.722441	0.583579	-0.000069
 773	7.6814e+01	9.2356	32.650335	0.000294	2.938282	0.995517	-0.000118
 774	7.6913e+01	9.2019	32.565555	0.000213	2.127721	0.720892	-0.000085
 775	7.7013e+01	9.1586	32.428293	0.000344	3.444882	1.167158	-0.000138
 776	7.7112e+01	9.1153	32.347550	0.000203	2.026401	0.686563	-0.000081
 777	7.7212e+01	9.0767	32.222399	0.000314	3.140922	1.064173	-0.000126
 778	7.7311e+01	9.0302	32.105322	0.000294	2.938282	0.995517	-0.000118
 779	7.7411e+01	9.0014	32.036691	0.000172	1.722441	0.583579	-0.000069
 780	7.7510e+01	8.9596	31.919614	0.000294	2.938282	0.995517	-0.000118
 781	7.7610e+01	8.9211	31.838871	0.000203	2.026401	0.686563	-0.000081
 782	7.7710e+01	8.8698	31.689497	0.000375	3.748843	1.270142	-0.000150
 783	7.7809e+01	8.8425	31.592606	0.000243	2.431682	0.823876	-0.000097
 784	7.7909e+01	8.7976	31.532049	0.000152	1.519801	0.514923	-0.000061
 785	7.8008e+01	8.7479	31.402860	0.000324	3.242242	1.098501	-0.000130
 786	7.8108e+01	8.7158	31.277709	0.000314	3.140922	1.064173	-0.000126
 787	7.8207e+01	8.6757	31.184855	0.000233	2.330362	0.789548	-0.000093
 788	7.8306e+01	8.6228	31.087964	0.000243	2.431682	0.823876	-0.000097
 789	7.8406e+01	8.5987	30.962813	0.000314	3.140922	1.064173	-0.000126
 790	7.8505e+01	8.5602	30.853810	0.000274	2.735642	0.926861	-0.000110
 791	7.8605e+01	8.5121	30.805364	0.000122	1.215841	0.411938	-0.000049
 792	7.8704e+01	8.4768	30.684250	0.000304	3.039602	1.029845	-0.000122
 793	7.8804e+01	8.4351	30.538913	0.000365	3.647522	1.235814	-0.000146
 794	7.8903e+01	8.4046	30.462208	0.000193	1.925081	0.652235	-0.000077
 795	7.9003e+01	8.3468	30.373391	0.000223	2.229041	0.755220	-0.000089
 796	7.9103e+01	8.3228	30.272462	0.000253	2.533002	0.858204	-0.000101
 797	7.9202e+01	8.2794	30.155385	0.000294	2.938282	0.995517	-0.000118
 798	7.9302e+01	8.2361	30.018123	0.000344	3.444882	1.167158	-0.000138
 799	7.9401e+01	8.1960	29.933343	0.000213	2.127721	0.720892	-0.000085
 800	7.9501e+01	8.1623	29.824340	0.000274	2.735642	0.926861	-0.000110
 801	7.9600e+01	8.1238	29.715338	0.000274	2.735642	0.926861	-0.000110
 802	7.9700e+01	8.0885	29.606335	0.000274	2.735642	0.926861	-0.000110
 803	7.9799e+01	8.0452	29.529629	0.000193	1.925081	0.652235	-0.000077
 804	7.9898e+01	8.0083	29.424664	0.000263	2.634322	0.892532	-0.000105
 805	7.9998e+01	7.9634	29.315661	0.000274	2.735642	0.926861	-0.000110
 806	8.0097e+01	7.9217	29.182436	0.000334	3.343562	1.132830	-0.000134
 807	8.0197e+01	7.8736	29.093619	0.000223	2.229041	0.755220	-0.000089
 808	8.0296e+01	7.8335	28.980579	0.000284	2.836962	0.961189	-0.000114
 809	8.0396e+01	7.8094	28.911948	0.000172	1.722441	0.583579	-0.000069
 810	8.0496e+01	7.7613	28.798908	0.000284	2.836962	0.961189	-0.000114
 811	8.0595e+01	7.7260	28.669719	0.000324	3.242242	1.098501	-0.000130
 812	8.0695e+01	7.6730	28.597051	0.000182	1.823761	0.617907	-0.000073
 813	8.0794e+01	7.6474	28.496123	0.000253	2.533002	0.858204	-0.000101
 814	8.0894e+01	7.6041	28.350786	0.000365	3.647522	1.235814	-0.000146
 815	8.0993e+01	7.5527	28.286192	0.000162	1.621121	0.549251	-0.000065
 816	8.1093e+01	7.5110	28.185263	0.000253	2.533002	0.858204	-0.000101
 817	8.1192e+01	7.4757	28.068186	0.000294	2.938282	0.995517	-0.000118
 818	8.1291e+01	7.4468	27.947072	0.000304	3.039602	1.029845	-0.000122
 819	8.1391e+01	7.3955	27.846144	0.000253	2.533002	0.858204	-0.000101
 820	8.1490e+01	7.3554	27.745215	0.000253	2.533002	0.858204	-0.000101
 821	8.1590e+01	7.3201	27.676584	0.000172	1.722441	0.583579	-0.000069
 822	8.1689e+01	7.2768	27.563544	0.000284	2.836962	0.961189	-0.000114
 823	8.1789e+01	7.2383	27.466653	0.000243	2.431682	0.823876	-0.000097
 824	8.1888e+01	7.2014	27.365725	0.000253	2.533002	0.858204	-0.000101
 825	8.1988e+01	7.1661	27.240573	0.000314	3.140922	1.064173	-0.000126
 826	8.2088e+01	7.1196	27.087162	0.000385	3.850163	1.304470	-0.000154
 827	8.2187e+01	7.0763	27.018531	0.000172	1.722441	0.583579	-0.000069
 828	8.2287e+01	7.0506	26.893380	0.000314	3.140922	1.064173	-0.000126
 829	8.2386e+01	7.0009	26.764191	0.000324	3.242242	1.098501	-0.000130
 830	8.2486e+01	6.9656	26.667300	0.000243	2.431682	0.823876	-0.000097
 831	8.2585e+01	6.9287	26.550223	0.000294	2.938282	0.995517	-0.000118
 832	8.2684e+01	6.8870	26.433146	0.000294	2.938282	0.995517	-0.000118
 833	8.2784e+01	6.8453	26.312032	0.000304	3.039602	1.029845	-0.000122
 834	8.2883e+01	6.8052	26.215141	0.000243	2.431682	0.823876	-0.000097
 835	8.2983e+01	6.7634	26.069804	0.000365	3.647522	1.235814	-0.000146
 836	8.3082e+01	6.7201	25.960801	0.000274	2.735642	0.926861	-0.000110
 837	8.3182e+01	6.6800	25.892170	0.000172	1.722441	0.583579	-0.000069
 838	8.3281e+01	6.6560	25.791242	0.000253	2.533002	0.858204	-0.000101
 839	8.3381e+01	6.6030	25.674165	0.000294	2.938282	0.995517	-0.000118
 840	8.3481e+01	6.5645	25.540939	0.000334	3.343562	1.132830	-0.000134
 841	8.3580e+01	6.5244	25.431937	0.000274	2.735642	0.926861	-0.000110
 842	8.3680e+01	6.4827	25.314860	0.000294	2.938282	0.995517	-0.000118
 843	8.3779e+01	6.4410	25.209894	0.000263	2.634322	0.892532	-0.000105
 844	8.3879e+01	6.4121	25.084743	0.000314	3.140922	1.064173	-0.000126
 845	8.3978e+01	6.3592	25.020149	0.000162	1.621121	0.549251	-0.000065
 846	8.4078e+01	6.3271	24.866738	0.000385	3.850163	1.304470	-0.000154
 847	8.4177e+01	6.2966	24.794069	0.000182	1.823761	0.617907	-0.000073
 848	8.4276e+01	6.2437	24.664881	0.000324	3.242242	1.098501	-0.000130
 849	8.4376e+01	6.2100	24.543767	0.000304	3.039602	1.029845	-0.000122
 850	8.4475e+01	6.1619	24.410541	0.000334	3.343562	1.132830	-0.000134
 851	8.4575e+01	6.1330	24.337873	0.000182	1.823761	0.617907	-0.000073
 852	8.4674e+01	6.0881	24.208684	0.000324	3.242242	1.098501	-0.000130
 853	8.4774e+01	6.0512	24.091608	0.000294	2.938282	0.995517	-0.000118
 854	8.4874e+01	6.0079	23.990679	0.000253	2.533002	0.858204	-0.000101
 855	8.4973e+01	5.9677	23.881676	0.000274	2.735642	0.926861	-0.000110
 856	8.5073e+01	5.9389	23.772674	0.000274	2.735642	0.926861	-0.000110
 857	8.5172e+01	5.8875	23.671745	0.000253	2.533002	0.858204	-0.000101
 858	8.5272e+01	5.8506	23.574854	0.000243	2.431682	0.823876	-0.000097
 859	8.5371e+01	5.8057	23.417406	0.000395	3.951483	1.338799	-0.000158
 860	8.5471e+01	5.7656	23.336663	0.000203	2.026401	0.686563	-0.000081
 861	8.5570e+01	5.7351	23.231698	0.000263	2.634322	0.892532	-0.000105
 862	8.5669e+01	5.6950	23.098472	0.000334	3.343562	1.132830	-0.000134
 863	8.5769e+01	5.6421	22.981395	0.000294	2.938282	0.995517	-0.000118
 864	8.5868e+01	5.6068	22.860281	0.000304	3.039602	1.029845	-0.000122
 865	8.5968e+01	5.5715	22.771464	0.000223	2.229041	0.755220	-0.000089
 866	8.6067e+01	5.5314	22.650350	0.000304	3.039602	1.029845	-0.000122
 867	8.6167e+01	5.4849	22.521162	0.000324	3.242242	1.098501	-0.000130
 868	8.6266e+01	5.4560	22.432345	0.000223	2.229041	0.755220	-0.000089
 869	8.6366e+01	5.4111	22.339491	0.000233	2.330362	0.789548	-0.000093
 870	8.6466e+01	5.3630	22.178005	0.000405	4.052803	1.373127	-0.000162
 871	8.6565e+01	5.3244	22.064965	0.000284	2.836962	0.961189	-0.000114
 872	8.6665e+01	5.2924	21.972111	0.000233	2.330362	0.789548	-0.000093
 873	8.6764e+01	5.2507	21.834849	0.000344	3.444882	1.167158	-0.000138
 874	8.6864e+01	5.2234	21.697586	0.000344	3.444882	1.167158	-0.000138
 875	8.6963e+01	5.1737	21.576472	0.000304	3.039602	1.029845	-0.000122
 876	8.7063e+01	5.1384	21.463432	0.000284	2.836962	0.961189	-0.000114
 877	8.7162e+01	5.0934	21.366541	0.000243	2.431682	0.823876	-0.000097
 878	8.7261e+01	5.0533	21.253501	0.000284	2.836962	0.961189	-0.000114
 879	8.7361e+01	5.0116	21.075867	0.000446	4.458083	1.510439	-0.000179
 880	8.7460e+01	4.9699	21.019347	0.000142	1.418481	0.480594	-0.000057
 881	8.7560e+01	4.9250	20.906307	0.000284	2.836962	0.961189	-0.000114
 882	8.7659e+01	4.8897	20.736748	0.000426	4.255443	1.441783	-0.000170
 883	8.7759e+01	4.8576	20.611597	0.000314	3.140922	1.064173	-0.000126
 884	8.7859e+01	4.8191	20.538928	0.000182	1.823761	0.617907	-0.000073
 885	8.7958e+01	4.7726	20.389554	0.000375	3.748843	1.270142	-0.000150
 886	8.8058e+01	4.7325	20.236143	0.000385	3.850163	1.304470	-0.000154
 887	8.8157e+01	4.6924	20.163474	0.000182	1.823761	0.617907	-0.000073
 888	8.8257e+01	4.6555	20.066583	0.000243	2.431682	0.823876	-0.000097
 889	8.8356e+01	4.6025	19.901061	0.000415	4.154123	1.407455	-0.000166
 890	8.8456e+01	4.5753	19.759761	0.000355	3.546202	1.201486	-0.000142
 891	8.8555e+01	4.5400	19.642684	0.000294	2.938282	0.995517	-0.000118
 892	8.8654e+01	4.4999	19.570015	0.000182	1.823761	0.617907	-0.000073
 893	8.8754e+01	4.4646	19.380270	0.000476	4.762043	1.613424	-0.000191
 894	8.8853e+01	4.4148	19.243007	0.000344	3.444882	1.167158	-0.000138
 895	8.8953e+01	4.3651	19.162265	0.000203	2.026401	0.686563	-0.000081
 896	8.9052e+01	4.3298	19.061336	0.000253	2.533002	0.858204	-0.000101
 897	8.9152e+01	4.2785	18.867554	0.000486	4.863363	1.647752	-0.000195
 898	8.9251e+01	4.2560	18.766625	0.000253	2.533002	0.858204	-0.000101
 899	8.9351e+01	4.2127	18.669734	0.000243	2.431682	0.823876	-0.000097
 900	8.9451e+01	4.1742	18.520360	0.000375	3.748843	1.270142	-0.000150
 901	8.9550e+01	4.1405	18.415395	0.000263	2.634322	0.892532	-0.000105
 902	8.9650e+01	4.1020	18.286206	0.000324	3.242242	1.098501	-0.000130
 903	8.9749e+01	4.0555	18.193352	0.000233	2.330362	0.789548	-0.000093
 904	8.9849e+01	4.0138	18.027830	0.000415	4.154123	1.407455	-0.000166
 905	8.9948e+01	3.9721	17.918827	0.000274	2.735642	0.926861	-0.000110
 906	9.0047e+01	3.9336	17.797713	0.000304	3.039602	1.029845	-0.000122
 907	9.0147e+01	3.8935	17.660450	0.000344	3.444882	1.167158	-0.000138
 908	9.0246e+01	3.8550	17.490891	0.000426	4.255443	1.441783	-0.000170
 909	9.0346e+01	3.8213	17.406111	0.000213	2.127721	0.720892	-0.000085
 910	9.0445e+01	3.7748	17.268848	0.000344	3.444882	1.167158	-0.000138
 911	9.0545e+01	3.7395	17.131586	0.000344	3.444882	1.167158	-0.000138
 912	9.0644e+01	3.6881	17.018546	0.000284	2.836962	0.961189	-0.000114
 913	9.0744e+01	3.6560	16.901469	0.000294	2.938282	0.995517	-0.000118
 914	9.0844e+01	3.6143	16.788429	0.000284	2.836962	0.961189	-0.000114
 915	9.0943e+01	3.5790	16.626944	0.000405	4.052803	1.373127	-0.000162
 916	9.1043e+01	3.5405	16.513904	0.000284	2.836962	0.961189	-0.000114
 917	9.1142e+01	3.5052	16.368567	0.000365	3.647522	1.235814	-0.000146
 918	9.1242e+01	3.4523	16.255527	0.000284	2.836962	0.961189	-0.000114
 919	9.1341e+01	3.4202	16.102116	0.000385	3.850163	1.304470	-0.000154
 920	9.1441e+01	3.3737	15.985039	0.000294	2.938282	0.995517	-0.000118
 921	9.1540e+01	3.3368	15.880073	0.000263	2.634322	0.892532	-0.000105
 922	9.1639e+01	3.3031	15.730699	0.000375	3.748843	1.270142	-0.000150
 923	9.1739e+01	3.2550	15.629771	0.000253	2.533002	0.858204	-0.000101
 924	9.1838e+01	3.2181	15.444063	0.000466	4.660723	1.579096	-0.000187
 925	9.1938e+01	3.1780	15.363320	0.000203	2.026401	0.686563	-0.000081
 926	9.2037e+01	3.1363	15.209909	0.000385	3.850163	1.304470	-0.000154
 927	9.2137e+01	3.0978	15.092832	0.000294	2.938282	0.995517	-0.000118
 928	9.2237e+01	3.0641	14.939421	0.000385	3.850163	1.304470	-0.000154
 929	9.2336e+01	3.0208	14.814270	0.000314	3.140922	1.064173	-0.000126
 930	9.2436e+01	2.9807	14.668933	0.000365	3.647522	1.235814	-0.000146
 931	9.2535e+01	2.9390	14.563967	0.000263	2.634322	0.892532	-0.000105
 932	9.2635e+01	2.9021	14.402482	0.000405	4.052803	1.373127	-0.000162
 933	9.2734e+01	2.8620	14.313665	0.000223	2.229041	0.755220	-0.000089
 934	9.2834e+01	2.8186	14.140068	0.000436	4.356763	1.476111	-0.000174
 935	9.2933e+01	2.7785	14.043177	0.000243	2.431682	0.823876	-0.000097
 936	9.3032e+01	2.7384	13.885728	0.000395	3.951483	1.338799	-0.000158
 937	9.3132e+01	2.6935	13.772689	0.000284	2.836962	0.961189	-0.000114
 938	9.3231e+01	2.6662	13.639463	0.000334	3.343562	1.132830	-0.000134
 939	9.3331e+01	2.6117	13.490089	0.000375	3.748843	1.270142	-0.000150
 940	9.3430e+01	2.5796	13.348789	0.000355	3.546202	1.201486	-0.000142
 941	9.3530e+01	2.5315	13.239787	0.000274	2.735642	0.926861	-0.000110
 942	9.3629e+01	2.4994	13.070227	0.000426	4.255443	1.441783	-0.000170
 943	9.3729e+01	2.4593	12.912779	0.000395	3.951483	1.338799	-0.000158
 944	9.3829e+01	2.4288	12.807813	0.000263	2.634322	0.892532	-0.000105
 945	9.3928e+01	2.3855	12.662476	0.000365	3.647522	1.235814	-0.000146
 946	9.4028e+01	2.3454	12.545399	0.000294	2.938282	0.995517	-0.000118
 947	9.4127e+01	2.3021	12.416211	0.000324	3.242242	1.098501	-0.000130
 948	9.4227e+01	2.2588	12.278948	0.000344	3.444882	1.167158	-0.000138
 949	9.4326e+01	2.2251	12.153797	0.000314	3.140922	1.064173	-0.000126
 950	9.4425e+01	2.1818	12.012497	0.000355	3.546202	1.201486	-0.000142
 951	9.4525e+01	2.1352	11.842938	0.000426	4.255443	1.441783	-0.000170
 952	9.4624e+01	2.1048	11.750084	0.000233	2.330362	0.789548	-0.000093
 953	9.4724e+01	2.0679	11.600710	0.000375	3.748843	1.270142	-0.000150
 954	9.4823e+01	2.0213	11.475558	0.000314	3.140922	1.064173	-0.000126
 955	9.4923e+01	1.9812	11.350407	0.000314	3.140922	1.064173	-0.000126
 956	9.5022e+01	1.9395	11.192959	0.000395	3.951483	1.338799	-0.000158
 957	9.5122e+01	1.9010	11.059733	0.000334	3.343562	1.132830	-0.000134
 958	9.5222e+01	1.8625	10.950731	0.000274	2.735642	0.926861	-0.000110
 959	9.5321e+01	1.8320	10.797320	0.000385	3.850163	1.304470	-0.000154
 960	9.5421e+01	1.7791	10.684280	0.000284	2.836962	0.961189	-0.000114
 961	9.5520e+01	1.7422	10.530869	0.000385	3.850163	1.304470	-0.000154
 962	9.5620e+01	1.6973	10.446089	0.000213	2.127721	0.720892	-0.000085
 963	9.5719e+01	1.6684	10.276529	0.000426	4.255443	1.441783	-0.000170
 964	9.5819e+01	1.6251	10.123118	0.000385	3.850163	1.304470	-0.000154
 965	9.5918e+01	1.5866	10.026227	0.000243	2.431682	0.823876	-0.000097
 966	9.6017e+01	1.5593	9.876853	0.000375	3.748843	1.270142	-0.000150
 967	9.6117e+01	1.4967	9.775924	0.000253	2.533002	0.858204	-0.000101
 968	9.6216e+01	1.4599	9.610402	0.000415	4.154123	1.407455	-0.000166
 969	9.6316e+01	1.4197	9.465065	0.000365	3.647522	1.235814	-0.000146
 970	9.6415e+01	1.3877	9.335876	0.000324	3.242242	1.098501	-0.000130
 971	9.6515e+01	1.3427	9.178428	0.000395	3.951483	1.338799	-0.000158
 972	9.6615e+01	1.3155	9.105760	0.000182	1.823761	0.617907	-0.000073
 973	9.6714e+01	1.2706	8.948311	0.000395	3.951483	1.338799	-0.000158
 974	9.6814e+01	1.2256	8.807012	0.000355	3.546202	1.201486	-0.000142
 975	9.6913e+01	1.1807	8.702046	0.000263	2.634322	0.892532	-0.000105
 976	9.7013e+01	1.1534	8.544598	0.000395	3.951483	1.338799	-0.000158
 977	9.7112e+01	1.1005	8.415409	0.000324	3.242242	1.098501	-0.000130
 978	9.7212e+01	1.0572	8.266035	0.000375	3.748843	1.270142	-0.000150
 979	9.7311e+01	1.0283	8.157033	0.000274	2.735642	0.926861	-0.000110
 980	9.7410e+01	0.9898	8.039956	0.000294	2.938282	0.995517	-0.000118
 981	9.7510e+01	0.9513	7.898656	0.000355	3.546202	1.201486	-0.000142
 982	9.7609e+01	0.8984	7.761393	0.000344	3.444882	1.167158	-0.000138
 983	9.7709e+01	0.8631	7.664502	0.000243	2.431682	0.823876	-0.000097
 984	9.7808e+01	0.8278	7.507054	0.000395	3.951483	1.338799	-0.000158
 985	9.7908e+01	0.7813	7.406126	0.000253	2.533002	0.858204	-0.000101
 986	9.8007e+01	0.7508	7.309234	0.000243	2.431682	0.823876	-0.000097
 987	9.8107e+01	0.7043	7.212343	0.000243	2.431682	0.823876	-0.000097
 988	9.8207e+01	0.6706	7.046820	0.000415	4.154123	1.407455	-0.000166
 989	9.8306e+01	0.6240	6.941855	0.000263	2.634322	0.892532	-0.000105
 990	9.8406e+01	0.5904	6.756147	0.000466	4.660723	1.579096	-0.000187
 991	9.8505e+01	0.5503	6.594661	0.000405	4.052803	1.373127	-0.000162
 992	9.8605e+01	0.5134	6.485659	0.000274	2.735642	0.926861	-0.000110
 993	9.8704e+01	0.4604	6.344359	0.000355	3.546202	1.201486	-0.000142
 994	9.8803e+01	0.4331	6.207096	0.000344	3.444882	1.167158	-0.000138
 995	9.8903e+01	0.3770	6.069834	0.000344	3.444882	1.167158	-0.000138
 996	9.9002e+01	0.3449	5.916422	0.000385	3.850163	1.304470	-0.000154
 997	9.9102e+01	0.3064	5.726677	0.000476	4.762043	1.613424	-0.000191
 998	9.9201e+01	0.2663	5.633823	0.000233	2.330362	0.789548	-0.000093
 999	9.9301e+01	0.2294	5.472337	0.000405	4.052803	1.373127	-0.000162
1000	9.9400e+01	0.1845	5.327001	0.000365	3.647522	1.235814	-0.000146
1001	9.9500e+01	0.1444	5.201849	0.000314	3.140922	1.064173	-0.000126
1002	9.9600e+01	0.1091	5.076698	0.000314	3.140922	1.064173	-0.000126
1003	9.9699e+01	0.0658	4.959621	0.000294	2.938282	0.995517	-0.000118
1004	9.9799e+01	0.0305	4.765839	0.000486	4.863363	1.647752	-0.000195
1005	9.9898e+01	0.0080	4.717393	0.000122	1.215841	0.411938	-0.000049
1006	9.9998e+01	-0.0417	4.555908	0.000405	4.052803	1.373127	-0.000162
1007	1.0010e+02	-0.0802	4.430756	0.000314	3.140922	1.064173	-0.000126
1008	1.0020e+02	-0.1283	4.281382	0.000375	3.748843	1.270142	-0.000150
1009	1.0030e+02	-0.1668	4.168343	0.000284	2.836962	0.961189	-0.000114
1010	1.0040e+02	-0.2069	4.010894	0.000395	3.951483	1.338799	-0.000158
1011	1.0050e+02	-0.2294	3.922077	0.000223	2.229041	0.755220	-0.000089
1012	1.0059e+02	-0.2807	3.756555	0.000415	4.154123	1.407455	-0.000166
1013	1.0069e+02	-0.3160	3.647552	0.000274	2.735642	0.926861	-0.000110
1014	1.0079e+02	-0.3674	3.494141	0.000385	3.850163	1.304470	-0.000154
1015	1.0089e+02	-0.3946	3.364953	0.000324	3.242242	1.098501	-0.000130
1016	1.0099e+02	-0.4347	3.207504	0.000395	3.951483	1.338799	-0.000158
1017	1.0109e+02	-0.4749	3.138873	0.000172	1.722441	0.583579	-0.000069
1018	1.0119e+02	-0.5198	2.945091	0.000486	4.863363	1.647752	-0.000195
1019	1.0129e+02	-0.5631	2.868385	0.000193	1.925081	0.652235	-0.000077
1020	1.0139e+02	-0.6080	2.690751	0.000446	4.458083	1.510439	-0.000179
1021	1.0149e+02	-0.6433	2.557525	0.000334	3.343562	1.132830	-0.000134
1022	1.0159e+02	-0.6850	2.456597	0.000253	2.533002	0.858204	-0.000101
1023	1.0169e+02	-0.7251	2.291075	0.000415	4.154123	1.407455	-0.000166
1024	1.0179e+02	-0.7556	2.222443	0.000172	1.722441	0.583579	-0.000069
1025	1.0189e+02	-0.8021	2.085181	0.000344	3.444882	1.167158	-0.000138
1026	1.0199e+02	-0.8470	1.947918	0.000344	3.444882	1.167158	-0.000138
1027	1.0209e+02	-0.8855	1.778358	0.000426	4.255443	1.441783	-0.000170
1028	1.0219e+02	-0.9192	1.697616	0.000203	2.026401	0.686563	-0.000081
1029	1.0229e+02	-0.9545	1.548242	0.000375	3.748843	1.270142	-0.000150
1030	1.0239e+02	-0.9946	1.423090	0.000314	3.140922	1.064173	-0.000126
1031	1.0248e+02	-1.0363	1.285828	0.000344	3.444882	1.167158	-0.000138
1032	1.0258e+02	-1.0796	1.156639	0.000324	3.242242	1.098501	-0.000130
1033	1.0268e+02	-1.1198	1.027451	0.000324	3.242242	1.098501	-0.000130
1034	1.0278e+02	-1.1550	0.886151	0.000355	3.546202	1.201486	-0.000142
1035	1.0288e+02	-1.2016	0.720629	0.000415	4.154123	1.407455	-0.000166
1036	1.0298e+02	-1.2353	0.647960	0.000182	1.823761	0.617907	-0.000073
1037	1.0308e+02	-1.2802	0.478401	0.000426	4.255443	1.441783	-0.000170
1038	1.0318e+02	-1.3283	0.349212	0.000324	3.242242	1.098501	-0.000130
1039	1.0328e+02	-1.3556	0.215987	0.000334	3.343562	1.132830	-0.000134
1040	1.0338e+02	-1.4021	0.070650	0.000365	3.647522	1.235814	-0.000146
1041	1.0348e+02	-1.4358	-0.054501	0.000314	3.140922	1.064173	-0.000126
1042	1.0358e+02	-1.4791	-0.175615	0.000304	3.039602	1.029845	-0.000122
1043	1.0368e+02	-1.5128	-0.296729	0.000304	3.039602	1.029845	-0.000122
1044	1.0378e+02	-1.5465	-0.429955	0.000334	3.343562	1.132830	-0.000134
1045	1.0388e+02	-1.5994	-0.579329	0.000375	3.748843	1.270142	-0.000150
1046	1.0398e+02	-1.6331	-0.736777	0.000395	3.951483	1.338799	-0.000158
1047	1.0408e+02	-1.6764	-0.845780	0.000274	2.735642	0.926861	-0.000110
1048	1.0418e+02	-1.7149	-0.962857	0.000294	2.938282	0.995517	-0.000118
1049	1.0428e+02	-1.7582	-1.088008	0.000314	3.140922	1.064173	-0.000126
1050	1.0438e+02	-1.7935	-1.281791	0.000486	4.863363	1.647752	-0.000195
1051	1.0447e+02	-1.8240	-1.394830	0.000284	2.836962	0.961189	-0.000114
1052	1.0457e+02	-1.8818	-1.483647	0.000223	2.229041	0.755220	-0.000089
1053	1.0467e+02	-1.9235	-1.677430	0.000486	4.863363	1.647752	-0.000195
1054	1.0477e+02	-1.9572	-1.786433	0.000274	2.735642	0.926861	-0.000110
1055	1.0487e+02	-1.9925	-1.947918	0.000405	4.052803	1.373127	-0.000162
1056	1.0497e+02	-2.0422	-2.077106	0.000324	3.242242	1.098501	-0.000130
1057	1.0507e+02	-2.0791	-2.190146	0.000284	2.836962	0.961189	-0.000114
1058	1.0517e+02	-2.1176	-2.347594	0.000395	3.951483	1.338799	-0.000158
1059	1.0527e+02	-2.1593	-2.468709	0.000304	3.039602	1.029845	-0.000122
1060	1.0537e+02	-2.1978	-2.597897	0.000324	3.242242	1.098501	-0.000130
1061	1.0547e+02	-2.2427	-2.719011	0.000304	3.039602	1.029845	-0.000122
1062	1.0557e+02	-2.2780	-2.864348	0.000365	3.647522	1.235814	-0.000146
1063	1.0567e+02	-2.3117	-2.969313	0.000263	2.634322	0.892532	-0.000105
1064	1.0577e+02	-2.3486	-3.146947	0.000446	4.458083	1.510439	-0.000179
1065	1.0587e+02	-2.3951	-3.288247	0.000355	3.546202	1.201486	-0.000142
1066	1.0597e+02	-2.4288	-3.397250	0.000274	2.735642	0.926861	-0.000110
1067	1.0607e+02	-2.4737	-3.518364	0.000304	3.039602	1.029845	-0.000122
1068	1.0617e+02	-2.5122	-3.647552	0.000324	3.242242	1.098501	-0.000130
1069	1.0627e+02	-2.5555	-3.825186	0.000446	4.458083	1.510439	-0.000179
1070	1.0637e+02	-2.5876	-3.942263	0.000294	2.938282	0.995517	-0.000118
1071	1.0647e+02	-2.6374	-4.067414	0.000314	3.140922	1.064173	-0.000126
1072	1.0656e+02	-2.6807	-4.200640	0.000334	3.343562	1.132830	-0.000134
1073	1.0666e+02	-2.7128	-4.317717	0.000294	2.938282	0.995517	-0.000118
1074	1.0676e+02	-2.7561	-4.446905	0.000324	3.242242	1.098501	-0.000130
1075	1.0686e+02	-2.7978	-4.600316	0.000385	3.850163	1.304470	-0.000154
1076	1.0696e+02	-2.8379	-4.713356	0.000284	2.836962	0.961189	-0.000114
1077	1.0706e+02	-2.8700	-4.874841	0.000405	4.052803	1.373127	-0.000162
1078	1.0716e+02	-2.9053	-4.975770	0.000253	2.533002	0.858204	-0.000101
1079	1.0726e+02	-2.9534	-5.141292	0.000415	4.154123	1.407455	-0.000166
1080	1.0736e+02	-2.9871	-5.258369	0.000294	2.938282	0.995517	-0.000118
1081	1.0746e+02	-3.0352	-5.383521	0.000314	3.140922	1.064173	-0.000126
1082	1.0756e+02	-3.0721	-5.496560	0.000284	2.836962	0.961189	-0.000114
1083	1.0766e+02	-3.1106	-5.649971	0.000385	3.850163	1.304470	-0.000154
1084	1.0776e+02	-3.1619	-5.787234	0.000344	3.444882	1.167158	-0.000138
1085	1.0786e+02	-3.1924	-5.900274	0.000284	2.836962	0.961189	-0.000114
1086	1.0796e+02	-3.2261	-6.013314	0.000284	2.836962	0.961189	-0.000114
1087	1.0806e+02	-3.2646	-6.134428	0.000304	3.039602	1.029845	-0.000122
1088	1.0816e+02	-3.3079	-6.275728	0.000355	3.546202	1.201486	-0.000142
1089	1.0826e+02	-3.3464	-6.408953	0.000334	3.343562	1.132830	-0.000134
1090	1.0836e+02	-3.3913	-6.538141	0.000324	3.242242	1.098501	-0.000130
1091	1.0845e+02	-3.4331	-6.687515	0.000375	3.748843	1.270142	-0.000150
1092	1.0855e+02	-3.4587	-6.808629	0.000304	3.039602	1.029845	-0.000122
1093	1.0865e+02	-3.5181	-6.933781	0.000314	3.140922	1.064173	-0.000126
1094	1.0875e+02	-3.5486	-7.087192	0.000385	3.850163	1.304470	-0.000154
1095	1.0885e+02	-3.5855	-7.196194	0.000274	2.735642	0.926861	-0.000110
1096	1.0895e+02	-3.6272	-7.353643	0.000395	3.951483	1.338799	-0.000158
1097	1.0905e+02	-3.6641	-7.462645	0.000274	2.735642	0.926861	-0.000110
1098	1.0915e+02	-3.7138	-7.612019	0.000375	3.748843	1.270142	-0.000150
1099	1.0925e+02	-3.7459	-7.721022	0.000274	2.735642	0.926861	-0.000110
1100	1.0935e+02	-3.7924	-7.874433	0.000385	3.850163	1.304470	-0.000154
1101	1.0945e+02	-3.8277	-7.999584	0.000314	3.140922	1.064173	-0.000126
1102	1.0955e+02	-3.8742	-8.072253	0.000182	1.823761	0.617907	-0.000073
1103	1.0965e+02	-3.9095	-8.266035	0.000486	4.863363	1.647752	-0.000195
1104	1.0975e+02	-3.9464	-8.379075	0.000284	2.836962	0.961189	-0.000114
1105	1.0985e+02	-3.9929	-8.467892	0.000223	2.229041	0.755220	-0.000089
1106	1.0995e+02	-4.0266	-8.677823	0.000527	5.268644	1.785065	-0.000211
1107	1.1005e+02	-4.0748	-8.778752	0.000253	2.533002	0.858204	-0.000101
1108	1.1015e+02	-4.1020	-8.916014	0.000344	3.444882	1.167158	-0.000138
1109	1.1025e+02	-4.1453	-9.025017	0.000274	2.735642	0.926861	-0.000110
1110	1.1035e+02	-4.1870	-9.174391	0.000375	3.748843	1.270142	-0.000150
1111	1.1044e+02	-4.2272	-9.299542	0.000314	3.140922	1.064173	-0.000126
1112	1.1054e+02	-4.2753	-9.465065	0.000415	4.154123	1.407455	-0.000166
1113	1.1064e+02	-4.3074	-9.582142	0.000294	2.938282	0.995517	-0.000118
1114	1.1074e+02	-4.3507	-9.707293	0.000314	3.140922	1.064173	-0.000126
1115	1.1084e+02	-4.3892	-9.800147	0.000233	2.330362	0.789548	-0.000093
1116	1.1094e+02	-4.4261	-9.917224	0.000294	2.938282	0.995517	-0.000118
1117	1.1104e+02	-4.4678	-10.066598	0.000375	3.748843	1.270142	-0.000150
1118	1.1114e+02	-4.5015	-10.183675	0.000294	2.938282	0.995517	-0.000118
1119	1.1124e+02	-4.5384	-10.316900	0.000334	3.343562	1.132830	-0.000134
1120	1.1134e+02	-4.5945	-10.425903	0.000274	2.735642	0.926861	-0.000110
1121	1.1144e+02	-4.6234	-10.587388	0.000405	4.052803	1.373127	-0.000162
1122	1.1154e+02	-4.6667	-10.684280	0.000243	2.431682	0.823876	-0.000097
1123	1.1164e+02	-4.7020	-10.813468	0.000324	3.242242	1.098501	-0.000130
1124	1.1174e+02	-4.7389	-10.995139	0.000456	4.559403	1.544768	-0.000183
1125	1.1184e+02	-4.7870	-11.067808	0.000182	1.823761	0.617907	-0.000073
1126	1.1194e+02	-4.8239	-11.176810	0.000274	2.735642	0.926861	-0.000110
1127	1.1204e+02	-4.8592	-11.330221	0.000385	3.850163	1.304470	-0.000154
1128	1.1214e+02	-4.9009	-11.439224	0.000274	2.735642	0.926861	-0.000110
1129	1.1224e+02	-4.9426	-11.524004	0.000213	2.127721	0.720892	-0.000085
1130	1.1234e+02	-4.9876	-11.673378	0.000375	3.748843	1.270142	-0.000150
1131	1.1244e+02	-5.0245	-11.818715	0.000365	3.647522	1.235814	-0.000146
1132	1.1253e+02	-5.0614	-11.947903	0.000324	3.242242	1.098501	-0.000130
1133	1.1263e+02	-5.1191	-12.064980	0.000294	2.938282	0.995517	-0.000118
1134	1.1273e+02	-5.1351	-12.169946	0.000263	2.634322	0.892532	-0.000105
1135	1.1283e+02	-5.1881	-12.291060	0.000304	3.039602	1.029845	-0.000122
1136	1.1293e+02	-5.2218	-12.420248	0.000324	3.242242	1.098501	-0.000130
1137	1.1303e+02	-5.2667	-12.545399	0.000314	3.140922	1.064173	-0.000126
1138	1.1313e+02	-5.3068	-12.650365	0.000263	2.634322	0.892532	-0.000105
1139	1.1323e+02	-5.3405	-12.795702	0.000365	3.647522	1.235814	-0.000146
1140	1.1333e+02	-5.3934	-12.900667	0.000263	2.634322	0.892532	-0.000105
1141	1.1343e+02	-5.4223	-13.066190	0.000415	4.154123	1.407455	-0.000166
1142	1.1353e+02	-5.4560	-13.110598	0.000111	1.114521	0.377610	-0.000045
1143	1.1363e+02	-5.5057	-13.264009	0.000385	3.850163	1.304470	-0.000154
1144	1.1373e+02	-5.5426	-13.381086	0.000294	2.938282	0.995517	-0.000118
1145	1.1383e+02	-5.5811	-13.510275	0.000324	3.242242	1.098501	-0.000130
1146	1.1393e+02	-5.6164	-13.615240	0.000263	2.634322	0.892532	-0.000105
1147	1.1403e+02	-5.6694	-13.740391	0.000314	3.140922	1.064173	-0.000126
1148	1.1413e+02	-5.7047	-13.861506	0.000304	3.039602	1.029845	-0.000122
1149	1.1423e+02	-5.7399	-13.978582	0.000294	2.938282	0.995517	-0.000118
1150	1.1433e+02	-5.7784	-14.103734	0.000314	3.140922	1.064173	-0.000126
1151	1.1442e+02	-5.8202	-14.192551	0.000223	2.229041	0.755220	-0.000089
1152	1.1452e+02	-5.8538	-14.329813	0.000344	3.444882	1.167158	-0.000138
1153	1.1462e+02	-5.9148	-14.454965	0.000314	3.140922	1.064173	-0.000126
1154	1.1472e+02	-5.9437	-14.588190	0.000334	3.343562	1.132830	-0.000134
1155	1.1482e+02	-5.9838	-14.701230	0.000284	2.836962	0.961189	-0.000114
1156	1.1492e+02	-6.0287	-14.830418	0.000324	3.242242	1.098501	-0.000130
1157	1.1502e+02	-6.0592	-14.947495	0.000294	2.938282	0.995517	-0.000118
1158	1.1512e+02	-6.1025	-15.040349	0.000233	2.330362	0.789548	-0.000093
1159	1.1522e+02	-6.1378	-15.169538	0.000324	3.242242	1.098501	-0.000130
1160	1.1532e+02	-6.1859	-15.274503	0.000263	2.634322	0.892532	-0.000105
1161	1.1542e+02	-6.2228	-15.375431	0.000253	2.533002	0.858204	-0.000101
1162	1.1552e+02	-6.2549	-15.508657	0.000334	3.343562	1.132830	-0.000134
1163	1.1562e+02	-6.3094	-15.649957	0.000355	3.546202	1.201486	-0.000142
1164	1.1572e+02	-6.3303	-15.762996	0.000284	2.836962	0.961189	-0.000114
1165	1.1582e+02	-6.3800	-15.847776	0.000213	2.127721	0.720892	-0.000085
1166	1.1592e+02	-6.4201	-15.960816	0.000284	2.836962	0.961189	-0.000114
1167	1.1602e+02	-6.4602	-16.094042	0.000334	3.343562	1.132830	-0.000134
1168	1.1612e+02	-6.4891	-16.178821	0.000213	2.127721	0.720892	-0.000085
1169	1.1622e+02	-6.5308	-16.299936	0.000304	3.039602	1.029845	-0.000122
1170	1.1632e+02	-6.5790	-16.412975	0.000284	2.836962	0.961189	-0.000114
1171	1.1642e+02	-6.6175	-16.521978	0.000274	2.735642	0.926861	-0.000110
1172	1.1651e+02	-6.6528	-16.663278	0.000355	3.546202	1.201486	-0.000142
1173	1.1661e+02	-6.6961	-16.748058	0.000213	2.127721	0.720892	-0.000085
1174	1.1671e+02	-6.7394	-16.861097	0.000284	2.836962	0.961189	-0.000114
1175	1.1681e+02	-6.7715	-16.970100	0.000274	2.735642	0.926861	-0.000110
1176	1.1691e+02	-6.8100	-17.066991	0.000243	2.431682	0.823876	-0.000097
1177	1.1701e+02	-6.8485	-17.212328	0.000365	3.647522	1.235814	-0.000146
1178	1.1711e+02	-6.8950	-17.313257	0.000253	2.533002	0.858204	-0.000101
1179	1.1721e+02	-6.9335	-17.398036	0.000213	2.127721	0.720892	-0.000085
1180	1.1731e+02	-6.9736	-17.539336	0.000355	3.546202	1.201486	-0.000142
1181	1.1741e+02	-7.0105	-17.632190	0.000233	2.330362	0.789548	-0.000093
1182	1.1751e+02	-7.0442	-17.729082	0.000243	2.431682	0.823876	-0.000097
1183	1.1761e+02	-7.0939	-17.862307	0.000334	3.343562	1.132830	-0.000134
1184	1.1771e+02	-7.1372	-18.003607	0.000355	3.546202	1.201486	-0.000142
1185	1.1781e+02	-7.1693	-18.096461	0.000233	2.330362	0.789548	-0.000093
1186	1.1791e+02	-7.2126	-18.233724	0.000344	3.444882	1.167158	-0.000138
1187	1.1801e+02	-7.2511	-18.322541	0.000223	2.229041	0.755220	-0.000089
1188	1.1811e+02	-7.2912	-18.423469	0.000253	2.533002	0.858204	-0.000101
1189	1.1821e+02	-7.3410	-18.528434	0.000263	2.634322	0.892532	-0.000105
1190	1.1831e+02	-7.3731	-18.653586	0.000314	3.140922	1.064173	-0.000126
1191	1.1841e+02	-7.4180	-18.734328	0.000203	2.026401	0.686563	-0.000081
1192	1.1850e+02	-7.4661	-18.887740	0.000385	3.850163	1.304470	-0.000154
1193	1.1860e+02	-7.4918	-18.972519	0.000213	2.127721	0.720892	-0.000085
1194	1.1870e+02	-7.5367	-19.069411	0.000243	2.431682	0.823876	-0.000097
1195	1.1880e+02	-7.5736	-19.210710	0.000355	3.546202	1.201486	-0.000142
1196	1.1890e+02	-7.6249	-19.299527	0.000223	2.229041	0.755220	-0.000089
1197	1.1900e+02	-7.6458	-19.432753	0.000334	3.343562	1.132830	-0.000134
1198	1.1910e+02	-7.6955	-19.557904	0.000314	3.140922	1.064173	-0.000126
1199	1.1920e+02	-7.7324	-19.658832	0.000253	2.533002	0.858204	-0.000101
1200	1.1930e+02	-7.7645	-19.767835	0.000274	2.735642	0.926861	-0.000110
1201	1.1940e+02	-7.8030	-19.860689	0.000233	2.330362	0.789548	-0.000093
1202	1.1950e+02	-7.8479	-19.969692	0.000274	2.735642	0.926861	-0.000110
1203	1.1960e+02	-7.8912	-20.078695	0.000274	2.735642	0.926861	-0.000110
1204	1.1970e+02	-7.9265	-20.183660	0.000263	2.634322	0.892532	-0.000105
1205	1.1980e+02	-7.9714	-20.341108	0.000395	3.951483	1.338799	-0.000158
1206	1.1990e+02	-8.0292	-20.429925	0.000223	2.229041	0.755220	-0.000089
1207	1.2000e+02	-8.0565	-20.530854	0.000253	2.533002	0.858204	-0.000101
1208	1.2010e+02	-8.0950	-20.660042	0.000324	3.242242	1.098501	-0.000130
1209	1.2020e+02	-8.1319	-20.760971	0.000253	2.533002	0.858204	-0.000101
1210	1.2030e+02	-8.1768	-20.886122	0.000314	3.140922	1.064173	-0.000126
1211	1.2039e+02	-8.2137	-20.991087	0.000263	2.634322	0.892532	-0.000105
1212	1.2049e+02	-8.2538	-21.108164	0.000294	2.938282	0.995517	-0.000118
1213	1.2059e+02	-8.2891	-21.176796	0.000172	1.722441	0.583579	-0.000069
1214	1.2069e+02	-8.3340	-21.318095	0.000355	3.546202	1.201486	-0.000142
1215	1.2079e+02	-8.3677	-21.431135	0.000284	2.836962	0.961189	-0.000114
1216	1.2089e+02	-8.4126	-21.540138	0.000274	2.735642	0.926861	-0.000110
1217	1.2099e+02	-8.4543	-21.653178	0.000284	2.836962	0.961189	-0.000114
1218	1.2109e+02	-8.4848	-21.770254	0.000294	2.938282	0.995517	-0.000118
1219	1.2119e+02	-8.5265	-21.907517	0.000344	3.444882	1.167158	-0.000138
1220	1.2129e+02	-8.5650	-22.036705	0.000324	3.242242	1.098501	-0.000130
1221	1.2139e+02	-8.6083	-22.141671	0.000263	2.634322	0.892532	-0.000105
1222	1.2149e+02	-8.6516	-22.182042	0.000101	1.013201	0.343282	-0.000041
1223	1.2159e+02	-8.6805	-22.299119	0.000294	2.938282	0.995517	-0.000118
1224	1.2169e+02	-8.7206	-22.432345	0.000334	3.343562	1.132830	-0.000134
1225	1.2179e+02	-8.7655	-22.561533	0.000324	3.242242	1.098501	-0.000130
1226	1.2189e+02	-8.8104	-22.694759	0.000334	3.343562	1.132830	-0.000134
1227	1.2199e+02	-8.8377	-22.799724	0.000263	2.634322	0.892532	-0.000105
1228	1.2209e+02	-8.8858	-22.932950	0.000334	3.343562	1.132830	-0.000134
1229	1.2219e+02	-8.9324	-23.025804	0.000233	2.330362	0.789548	-0.000093
1230	1.2229e+02	-8.9580	-23.142881	0.000294	2.938282	0.995517	-0.000118
1231	1.2239e+02	-9.0190	-23.280143	0.000344	3.444882	1.167158	-0.000138
1232	1.2248e+02	-9.0495	-23.372997	0.000233	2.330362	0.789548	-0.000093
1233	1.2258e+02	-9.0928	-23.473926	0.000253	2.533002	0.858204	-0.000101
1234	1.2268e+02	-9.1249	-23.574854	0.000253	2.533002	0.858204	-0.000101
1235	1.2278e+02	-9.1570	-23.736340	0.000405	4.052803	1.373127	-0.000162
1236	1.2288e+02	-9.2019	-23.817082	0.000203	2.026401	0.686563	-0.000081
1237	1.2298e+02	-9.2436	-23.926085	0.000274	2.735642	0.926861	-0.000110
1238	1.2308e+02	-9.2805	-24.047199	0.000304	3.039602	1.029845	-0.000122
1239	1.2318e+02	-9.3286	-24.172350	0.000314	3.140922	1.064173	-0.000126
1240	1.2328e+02	-9.3591	-24.309613	0.000344	3.444882	1.167158	-0.000138
1241	1.2338e+02	-9.4008	-24.394393	0.000213	2.127721	0.720892	-0.000085
1242	1.2348e+02	-9.4409	-24.499358	0.000263	2.634322	0.892532	-0.000105
1243	1.2358e+02	-9.4794	-24.612398	0.000284	2.836962	0.961189	-0.000114
1244	1.2368e+02	-9.5307	-24.717364	0.000263	2.634322	0.892532	-0.000105
1245	1.2378e+02	-9.5644	-24.822329	0.000263	2.634322	0.892532	-0.000105
1246	1.2388e+02	-9.6029	-24.983815	0.000405	4.052803	1.373127	-0.000162
1247	1.2398e+02	-9.6511	-25.056483	0.000182	1.823761	0.617907	-0.000073
1248	1.2408e+02	-9.6864	-25.173560	0.000294	2.938282	0.995517	-0.000118
1249	1.2418e+02	-9.7249	-25.278525	0.000263	2.634322	0.892532	-0.000105
1250	1.2428e+02	-9.7666	-25.411751	0.000334	3.343562	1.132830	-0.000134
1251	1.2438e+02	-9.7938	-25.468271	0.000142	1.418481	0.480594	-0.000057
1252	1.2447e+02	-9.8372	-25.597459	0.000324	3.242242	1.098501	-0.000130
1253	1.2457e+02	-9.8789	-25.746833	0.000375	3.748843	1.270142	-0.000150
1254	1.2467e+02	-9.9238	-25.839687	0.000233	2.330362	0.789548	-0.000093
1255	1.2477e+02	-9.9639	-25.960801	0.000304	3.039602	1.029845	-0.000122
1256	1.2487e+02	-10.0008	-26.106138	0.000365	3.647522	1.235814	-0.000146
1257	1.2497e+02	-10.0473	-26.174770	0.000172	1.722441	0.583579	-0.000069
1258	1.2507e+02	-10.0794	-26.295884	0.000304	3.039602	1.029845	-0.000122
1259	1.2517e+02	-10.1275	-26.404886	0.000274	2.735642	0.926861	-0.000110
1260	1.2527e+02	-10.1644	-26.538112	0.000334	3.343562	1.132830	-0.000134
1261	1.2537e+02	-10.1981	-26.643077	0.000263	2.634322	0.892532	-0.000105
1262	1.2547e+02	-10.2494	-26.715746	0.000182	1.823761	0.617907	-0.000073
1263	1.2557e+02	-10.2879	-26.869157	0.000385	3.850163	1.304470	-0.000154
1264	1.2567e+02	-10.3264	-26.953937	0.000213	2.127721	0.720892	-0.000085
1265	1.2577e+02	-10.3569	-27.079088	0.000314	3.140922	1.064173	-0.000126
1266	1.2587e+02	-10.4051	-27.188091	0.000274	2.735642	0.926861	-0.000110
1267	1.2597e+02	-10.4403	-27.301130	0.000284	2.836962	0.961189	-0.000114
1268	1.2607e+02	-10.4805	-27.414170	0.000284	2.836962	0.961189	-0.000114
1269	1.2617e+02	-10.5190	-27.531247	0.000294	2.938282	0.995517	-0.000118
1270	1.2627e+02	-10.5542	-27.660436	0.000324	3.242242	1.098501	-0.000130
1271	1.2636e+02	-10.5992	-27.749252	0.000223	2.229041	0.755220	-0.000089
1272	1.2646e+02	-10.6457	-27.866329	0.000294	2.938282	0.995517	-0.000118
1273	1.2656e+02	-10.6826	-27.995518	0.000324	3.242242	1.098501	-0.000130
1274	1.2666e+02	-10.7066	-28.092409	0.000243	2.431682	0.823876	-0.000097
1275	1.2676e+02	-10.7612	-28.181226	0.000223	2.229041	0.755220	-0.000089
1276	1.2686e+02	-10.8013	-28.330600	0.000375	3.748843	1.270142	-0.000150
1277	1.2696e+02	-10.8366	-28.423454	0.000233	2.330362	0.789548	-0.000093
1278	1.2706e+02	-10.8863	-28.564754	0.000355	3.546202	1.201486	-0.000142
1279	1.2716e+02	-10.9264	-28.649534	0.000213	2.127721	0.720892	-0.000085
1280	1.2726e+02	-10.9521	-28.790834	0.000355	3.546202	1.201486	-0.000142
1281	1.2736e+02	-10.9906	-28.863502	0.000182	1.823761	0.617907	-0.000073
1282	1.2746e+02	-11.0387	-28.972505	0.000274	2.735642	0.926861	-0.000110
1283	1.2756e+02	-11.0804	-29.085544	0.000284	2.836962	0.961189	-0.000114
1284	1.2766e+02	-11.1205	-29.218770	0.000334	3.343562	1.132830	-0.000134
1285	1.2776e+02	-11.1623	-29.343921	0.000314	3.140922	1.064173	-0.000126
1286	1.2786e+02	-11.1959	-29.460998	0.000294	2.938282	0.995517	-0.000118
1287	1.2796e+02	-11.2409	-29.521555	0.000152	1.519801	0.514923	-0.000061
1288	1.2806e+02	-11.2778	-29.662855	0.000355	3.546202	1.201486	-0.000142
1289	1.2816e+02	-11.3275	-29.731486	0.000172	1.722441	0.583579	-0.000069
1290	1.2826e+02	-11.3644	-29.848563	0.000294	2.938282	0.995517	-0.000118
1291	1.2835e+02	-11.3933	-29.949491	0.000253	2.533002	0.858204	-0.000101
1292	1.2845e+02	-11.4318	-30.070606	0.000304	3.039602	1.029845	-0.000122
1293	1.2855e+02	-11.4799	-30.207868	0.000344	3.444882	1.167158	-0.000138
1294	1.2865e+02	-11.5248	-30.312834	0.000263	2.634322	0.892532	-0.000105
1295	1.2875e+02	-11.5601	-30.413762	0.000253	2.533002	0.858204	-0.000101
1296	1.2885e+02	-11.5890	-30.502579	0.000223	2.229041	0.755220	-0.000089
1297	1.2895e+02	-11.6371	-30.619656	0.000294	2.938282	0.995517	-0.000118
1298	1.2905e+02	-11.6820	-30.692324	0.000182	1.823761	0.617907	-0.000073
1299	1.2915e+02	-11.7141	-30.878033	0.000466	4.660723	1.579096	-0.000187
1300	1.2925e+02	-11.7558	-30.938590	0.000152	1.519801	0.514923	-0.000061
1301	1.2935e+02	-11.7927	-31.027407	0.000223	2.229041	0.755220	-0.000089
1302	1.2945e+02	-11.8408	-31.152558	0.000314	3.140922	1.064173	-0.000126
1303	1.2955e+02	-11.8874	-31.229264	0.000193	1.925081	0.652235	-0.000077
1304	1.2965e+02	-11.9194	-31.338266	0.000274	2.735642	0.926861	-0.000110
1305	1.2975e+02	-11.9483	-31.439195	0.000253	2.533002	0.858204	-0.000101
1306	1.2985e+02	-11.9948	-31.564346	0.000314	3.140922	1.064173	-0.000126
1307	1.2995e+02	-12.0414	-31.653163	0.000223	2.229041	0.755220	-0.000089
1308	1.3005e+02	-12.0783	-31.750054	0.000243	2.431682	0.823876	-0.000097
1309	1.3015e+02	-12.1136	-31.879242	0.000324	3.242242	1.098501	-0.000130
1310	1.3025e+02	-12.1553	-31.976134	0.000243	2.431682	0.823876	-0.000097
1311	1.3034e+02	-12.1922	-32.117433	0.000355	3.546202	1.201486	-0.000142
1312	1.3044e+02	-12.2275	-32.202213	0.000213	2.127721	0.720892	-0.000085
1313	1.3054e+02	-12.2692	-32.307179	0.000263	2.634322	0.892532	-0.000105
1314	1.3064e+02	-12.3157	-32.395996	0.000223	2.229041	0.755220	-0.000089
1315	1.3074e+02	-12.3462	-32.488850	0.000233	2.330362	0.789548	-0.000093
1316	1.3084e+02	-12.3847	-32.601890	0.000284	2.836962	0.961189	-0.000114
1317	1.3094e+02	-12.4392	-32.723004	0.000304	3.039602	1.029845	-0.000122
1318	1.3104e+02	-12.4713	-32.771449	0.000122	1.215841	0.411938	-0.000049
1319	1.3114e+02	-12.5162	-32.920823	0.000375	3.748843	1.270142	-0.000150
1320	1.3124e+02	-12.5515	-33.021752	0.000253	2.533002	0.858204	-0.000101
1321	1.3134e+02	-12.6012	-33.142866	0.000304	3.039602	1.029845	-0.000122
1322	1.3144e+02	-12.6365	-33.247831	0.000263	2.634322	0.892532	-0.000105
1323	1.3154e+02	-12.6766	-33.348760	0.000253	2.533002	0.858204	-0.000101
1324	1.3164e+02	-12.7087	-33.437577	0.000223	2.229041	0.755220	-0.000089
1325	1.3174e+02	-12.7601	-33.477948	0.000101	1.013201	0.343282	-0.000041
1326	1.3184e+02	-12.8034	-33.607136	0.000324	3.242242	1.098501	-0.000130
1327	1.3194e+02	-12.8323	-33.752473	0.000365	3.647522	1.235814	-0.000146
1328	1.3204e+02	-12.8692	-33.837253	0.000213	2.127721	0.720892	-0.000085
1329	1.3214e+02	-12.8996	-33.954330	0.000294	2.938282	0.995517	-0.000118
1330	1.3224e+02	-12.9478	-34.079481	0.000314	3.140922	1.064173	-0.000126
1331	1.3234e+02	-12.9927	-34.140038	0.000152	1.519801	0.514923	-0.000061
1332	1.3243e+02	-13.0280	-34.249041	0.000274	2.735642	0.926861	-0.000110
1333	1.3253e+02	-13.0697	-34.301524	0.000132	1.317161	0.446266	-0.000053
1334	1.3263e+02	-13.1162	-34.438786	0.000344	3.444882	1.167158	-0.000138
1335	1.3273e+02	-13.1499	-34.531641	0.000233	2.330362	0.789548	-0.000093
1336	1.3283e+02	-13.1900	-34.656792	0.000314	3.140922	1.064173	-0.000126
1337	1.3293e+02	-13.2397	-34.777906	0.000304	3.039602	1.029845	-0.000122
1338	1.3303e+02	-13.2766	-34.854611	0.000193	1.925081	0.652235	-0.000077
1339	1.3313e+02	-13.3055	-34.963614	0.000274	2.735642	0.926861	-0.000110
1340	1.3323e+02	-13.3440	-35.056468	0.000233	2.330362	0.789548	-0.000093
1341	1.3333e+02	-13.3809	-35.181619	0.000314	3.140922	1.064173	-0.000126
1342	1.3343e+02	-13.4322	-35.274474	0.000233	2.330362	0.789548	-0.000093
1343	1.3353e+02	-13.4707	-35.359253	0.000213	2.127721	0.720892	-0.000085
1344	1.3363e+02	-13.5028	-35.468256	0.000274	2.735642	0.926861	-0.000110
1345	1.3373e+02	-13.5542	-35.593407	0.000314	3.140922	1.064173	-0.000126
1346	1.3383e+02	-13.5879	-35.658001	0.000162	1.621121	0.549251	-0.000065
1347	1.3393e+02	-13.6376	-35.754893	0.000243	2.431682	0.823876	-0.000097
1348	1.3403e+02	-13.6681	-35.831598	0.000193	1.925081	0.652235	-0.000077
1349	1.3413e+02	-13.7130	-35.985009	0.000385	3.850163	1.304470	-0.000154
1350	1.3423e+02	-13.7547	-36.061715	0.000193	1.925081	0.652235	-0.000077
1351	1.3432e+02	-13.7900	-36.154569	0.000233	2.330362	0.789548	-0.000093
1352	1.3442e+02	-13.8285	-36.231275	0.000193	1.925081	0.652235	-0.000077
1353	1.3452e+02	-13.8686	-36.348352	0.000294	2.938282	0.995517	-0.000118
1354	1.3462e+02	-13.8991	-36.453317	0.000263	2.634322	0.892532	-0.000105
1355	1.3472e+02	-13.9520	-36.538097	0.000213	2.127721	0.720892	-0.000085
1356	1.3482e+02	-13.9809	-36.618840	0.000203	2.026401	0.686563	-0.000081
1357	1.3492e+02	-14.0386	-36.719768	0.000253	2.533002	0.858204	-0.000101
1358	1.3502e+02	-14.0739	-36.848956	0.000324	3.242242	1.098501	-0.000130
1359	1.3512e+02	-14.1108	-36.961996	0.000284	2.836962	0.961189	-0.000114
1360	1.3522e+02	-14.1461	-36.990256	0.000071	0.709240	0.240297	-0.000028
1361	1.3532e+02	-14.1894	-37.155779	0.000415	4.154123	1.407455	-0.000166
1362	1.3542e+02	-14.2279	-37.212299	0.000142	1.418481	0.480594	-0.000057
1363	1.3552e+02	-14.2600	-37.313227	0.000253	2.533002	0.858204	-0.000101
1364	1.3562e+02	-14.3065	-37.393970	0.000203	2.026401	0.686563	-0.000081
1365	1.3572e+02	-14.3515	-37.502972	0.000274	2.735642	0.926861	-0.000110
1366	1.3582e+02	-14.3916	-37.616012	0.000284	2.836962	0.961189	-0.000114
1367	1.3592e+02	-14.4301	-37.692718	0.000193	1.925081	0.652235	-0.000077
1368	1.3602e+02	-14.4670	-37.805758	0.000284	2.836962	0.961189	-0.000114
1369	1.3612e+02	-14.5023	-37.926872	0.000304	3.039602	1.029845	-0.000122
1370	1.3622e+02	-14.5552	-38.019726	0.000233	2.330362	0.789548	-0.000093
1371	1.3631e+02	-14.5777	-38.096431	0.000193	1.925081	0.652235	-0.000077
1372	1.3641e+02	-14.6242	-38.193323	0.000243	2.431682	0.823876	-0.000097
1373	1.3651e+02	-14.6707	-38.302325	0.000274	2.735642	0.926861	-0.000110
1374	1.3661e+02	-14.7044	-38.403254	0.000253	2.533002	0.858204	-0.000101
1375	1.3671e+02	-14.7413	-38.512256	0.000274	2.735642	0.926861	-0.000110
1376	1.3681e+02	-14.7862	-38.564739	0.000132	1.317161	0.446266	-0.000053
1377	1.3691e+02	-14.8263	-38.722187	0.000395	3.951483	1.338799	-0.000158
1378	1.3701e+02	-14.8728	-38.790819	0.000172	1.722441	0.583579	-0.000069
1379	1.3711e+02	-14.9065	-38.920007	0.000324	3.242242	1.098501	-0.000130
1380	1.3721e+02	-14.9386	-39.020935	0.000253	2.533002	0.858204	-0.000101
1381	1.3731e+02	-14.9803	-39.105715	0.000213	2.127721	0.720892	-0.000085
1382	1.3741e+02	-15.0301	-39.218755	0.000284	2.836962	0.961189	-0.000114
1383	1.3751e+02	-15.0718	-39.311609	0.000233	2.330362	0.789548	-0.000093
1384	1.3761e+02	-15.1022	-39.408501	0.000243	2.431682	0.823876	-0.000097
1385	1.3771e+02	-15.1424	-39.497317	0.000223	2.229041	0.755220	-0.000089
1386	1.3781e+02	-15.1744	-39.598246	0.000253	2.533002	0.858204	-0.000101
1387	1.3791e+02	-15.2161	-39.735509	0.000344	3.444882	1.167158	-0.000138
1388	1.3801e+02	-15.2755	-39.832400	0.000243	2.431682	0.823876	-0.000097
1389	1.3811e+02	-15.3108	-39.925254	0.000233	2.330362	0.789548	-0.000093
1390	1.3821e+02	-15.3429	-39.993885	0.000172	1.722441	0.583579	-0.000069
1391	1.3831e+02	-15.3734	-40.139222	0.000365	3.647522	1.235814	-0.000146
1392	1.3840e+02	-15.4247	-40.240150	0.000253	2.533002	0.858204	-0.000101
1393	1.3850e+02	-15.4664	-40.316856	0.000193	1.925081	0.652235	-0.000077
1394	1.3860e+02	-15.4985	-40.433933	0.000294	2.938282	0.995517	-0.000118
1395	1.3870e+02	-15.5466	-40.546973	0.000284	2.836962	0.961189	-0.000114
1396	1.3880e+02	-15.5899	-40.635790	0.000223	2.229041	0.755220	-0.000089
1397	1.3890e+02	-15.6236	-40.736718	0.000253	2.533002	0.858204	-0.000101
1398	1.3900e+02	-15.6653	-40.837647	0.000253	2.533002	0.858204	-0.000101
1399	1.3910e+02	-15.7086	-40.958761	0.000304	3.039602	1.029845	-0.000122
1400	1.3920e+02	-15.7407	-41.015281	0.000142	1.418481	0.480594	-0.000057
1401	1.3930e+02	-15.7840	-41.140432	0.000314	3.140922	1.064173	-0.000126
1402	1.3940e+02	-15.8290	-41.245397	0.000263	2.634322	0.892532	-0.000105
1403	1.3950e+02	-15.8643	-41.346326	0.000253	2.533002	0.858204	-0.000101
1404	1.3960e+02	-15.8996	-41.406883	0.000152	1.519801	0.514923	-0.000061
1405	1.3970e+02	-15.9461	-41.532034	0.000314	3.140922	1.064173	-0.000126
1406	1.3980e+02	-15.9814	-41.632962	0.000253	2.533002	0.858204	-0.000101
1407	1.3990e+02	-16.0215	-41.737928	0.000263	2.634322	0.892532	-0.000105
1408	1.4000e+02	-16.0568	-41.842893	0.000263	2.634322	0.892532	-0.000105
1409	1.4010e+02	-16.1001	-41.947859	0.000263	2.634322	0.892532	-0.000105
1410	1.4020e+02	-16.1290	-42.060899	0.000284	2.836962	0.961189	-0.000114
1411	1.4029e+02	-16.1771	-42.161827	0.000253	2.533002	0.858204	-0.000101
1412	1.4039e+02	-16.2172	-42.254681	0.000233	2.330362	0.789548	-0.000093
1413	1.4049e+02	-16.2493	-42.363684	0.000274	2.735642	0.926861	-0.000110
1414	1.4059e+02	-16.3038	-42.436352	0.000182	1.823761	0.617907	-0.000073
1415	1.4069e+02	-16.3391	-42.545355	0.000274	2.735642	0.926861	-0.000110
1416	1.4079e+02	-16.3728	-42.634172	0.000223	2.229041	0.755220	-0.000089
1417	1.4089e+02	-16.4193	-42.763360	0.000324	3.242242	1.098501	-0.000130
1418	1.4099e+02	-16.4610	-42.868326	0.000263	2.634322	0.892532	-0.000105
1419	1.4109e+02	-16.4995	-42.940994	0.000182	1.823761	0.617907	-0.000073
1420	1.4119e+02	-16.5364	-43.078257	0.000344	3.444882	1.167158	-0.000138
1421	1.4129e+02	-16.5797	-43.138814	0.000152	1.519801	0.514923	-0.000061
1422	1.4139e+02	-16.6182	-43.239742	0.000253	2.533002	0.858204	-0.000101
1423	1.4149e+02	-16.6616	-43.348745	0.000274	2.735642	0.926861	-0.000110
1424	1.4159e+02	-16.7001	-43.481970	0.000334	3.343562	1.132830	-0.000134
1425	1.4169e+02	-16.7370	-43.619233	0.000344	3.444882	1.167158	-0.000138
1426	1.4179e+02	-16.7706	-43.643456	0.000061	0.607920	0.205969	-0.000024
1427	1.4189e+02	-16.8156	-43.744384	0.000253	2.533002	0.858204	-0.000101
1428	1.4199e+02	-16.8605	-43.873573	0.000324	3.242242	1.098501	-0.000130
1429	1.4209e+02	-16.8894	-43.950278	0.000193	1.925081	0.652235	-0.000077
1430	1.4219e+02	-16.9359	-44.067355	0.000294	2.938282	0.995517	-0.000118
1431	1.4228e+02	-16.9760	-44.176358	0.000274	2.735642	0.926861	-0.000110
1432	1.4238e+02	-17.0097	-44.265175	0.000223	2.229041	0.755220	-0.000089
1433	1.4248e+02	-17.0594	-44.386289	0.000304	3.039602	1.029845	-0.000122
1434	1.4258e+02	-17.0947	-44.483180	0.000243	2.431682	0.823876	-0.000097
1435	1.4268e+02	-17.1252	-44.604294	0.000304	3.039602	1.029845	-0.000122
1436	1.4278e+02	-17.1861	-44.705223	0.000253	2.533002	0.858204	-0.000101
1437	1.4288e+02	-17.2182	-44.785965	0.000203	2.026401	0.686563	-0.000081
1438	1.4298e+02	-17.2503	-44.878819	0.000233	2.330362	0.789548	-0.000093
1439	1.4308e+02	-17.3000	-44.991859	0.000284	2.836962	0.961189	-0.000114
1440	1.4318e+02	-17.3402	-45.104899	0.000284	2.836962	0.961189	-0.000114
1441	1.4328e+02	-17.3770	-45.221976	0.000294	2.938282	0.995517	-0.000118
1442	1.4338e+02	-17.4172	-45.322904	0.000253	2.533002	0.858204	-0.000101
1443	1.4348e+02	-17.4573	-45.423833	0.000253	2.533002	0.858204	-0.000101
1444	1.4358e+02	-17.5006	-45.548984	0.000314	3.140922	1.064173	-0.000126
1445	1.4368e+02	-17.5295	-45.601467	0.000132	1.317161	0.446266	-0.000053
1446	1.4378e+02	-17.5760	-45.771026	0.000426	4.255443	1.441783	-0.000170
1447	1.4388e+02	-17.6209	-45.863881	0.000233	2.330362	0.789548	-0.000093
1448	1.4398e+02	-17.6642	-45.928475	0.000162	1.621121	0.549251	-0.000065
1449	1.4408e+02	-17.6995	-46.049589	0.000304	3.039602	1.029845	-0.000122
1450	1.4418e+02	-17.7316	-46.174740	0.000314	3.140922	1.064173	-0.000126
1451	1.4428e+02	-17.7717	-46.243371	0.000172	1.722441	0.583579	-0.000069
1452	1.4437e+02	-17.8150	-46.303928	0.000152	1.519801	0.514923	-0.000061
1453	1.4447e+02	-17.8535	-46.481562	0.000446	4.458083	1.510439	-0.000179
1454	1.4457e+02	-17.8952	-46.574416	0.000233	2.330362	0.789548	-0.000093
1455	1.4467e+02	-17.9289	-46.679382	0.000263	2.634322	0.892532	-0.000105
1456	1.4477e+02	-17.9674	-46.756088	0.000193	1.925081	0.652235	-0.000077
1457	1.4487e+02	-18.0155	-46.857016	0.000253	2.533002	0.858204	-0.000101
1458	1.4497e+02	-18.0653	-46.937759	0.000203	2.026401	0.686563	-0.000081
1459	1.4507e+02	-18.0893	-47.075021	0.000344	3.444882	1.167158	-0.000138
1460	1.4517e+02	-18.1310	-47.147690	0.000182	1.823761	0.617907	-0.000073
1461	1.4527e+02	-18.1760	-47.248618	0.000253	2.533002	0.858204	-0.000101
1462	1.4537e+02	-18.2129	-47.385881	0.000344	3.444882	1.167158	-0.000138
1463	1.4547e+02	-18.2562	-47.410104	0.000061	0.607920	0.205969	-0.000024
1464	1.4557e+02	-18.2979	-47.563515	0.000385	3.850163	1.304470	-0.000154
1465	1.4567e+02	-18.3348	-47.664443	0.000253	2.533002	0.858204	-0.000101
1466	1.4577e+02	-18.3685	-47.769409	0.000263	2.634322	0.892532	-0.000105
1467	1.4587e+02	-18.4102	-47.858226	0.000223	2.229041	0.755220	-0.000089
1468	1.4597e+02	-18.4407	-47.934931	0.000193	1.925081	0.652235	-0.000077
1469	1.4607e+02	-18.4872	-48.052008	0.000294	2.938282	0.995517	-0.000118
1470	1.4617e+02	-18.5273	-48.165048	0.000284	2.836962	0.961189	-0.000114
1471	1.4626e+02	-18.5722	-48.241754	0.000193	1.925081	0.652235	-0.000077
1472	1.4636e+02	-18.6107	-48.354793	0.000284	2.836962	0.961189	-0.000114
1473	1.4646e+02	-18.6588	-48.427462	0.000182	1.823761	0.617907	-0.000073
1474	1.4656e+02	-18.6893	-48.532427	0.000263	2.634322	0.892532	-0.000105
1475	1.4666e+02	-18.7310	-48.673727	0.000355	3.546202	1.201486	-0.000142
1476	1.4676e+02	-18.7727	-48.738321	0.000162	1.621121	0.549251	-0.000065
1477	1.4686e+02	-18.8096	-48.855398	0.000294	2.938282	0.995517	-0.000118
1478	1.4696e+02	-18.8513	-48.980549	0.000314	3.140922	1.064173	-0.000126
1479	1.4706e+02	-18.8866	-49.077441	0.000243	2.431682	0.823876	-0.000097
1480	1.4716e+02	-18.9348	-49.174332	0.000243	2.431682	0.823876	-0.000097
1481	1.4726e+02	-18.9717	-49.247000	0.000182	1.823761	0.617907	-0.000073
1482	1.4736e+02	-19.0118	-49.335817	0.000223	2.229041	0.755220	-0.000089
1483	1.4746e+02	-19.0503	-49.481154	0.000365	3.647522	1.235814	-0.000146
1484	1.4756e+02	-19.0952	-49.549785	0.000172	1.722441	0.583579	-0.000069
1485	1.4766e+02	-19.1385	-49.666862	0.000294	2.938282	0.995517	-0.000118
1486	1.4776e+02	-19.1722	-49.775865	0.000274	2.735642	0.926861	-0.000110
1487	1.4786e+02	-19.2139	-49.888905	0.000284	2.836962	0.961189	-0.000114
1488	1.4796e+02	-19.2428	-50.005982	0.000294	2.938282	0.995517	-0.000118
1489	1.4806e+02	-19.2957	-50.054427	0.000122	1.215841	0.411938	-0.000049
1490	1.4816e+02	-19.3230	-50.139207	0.000213	2.127721	0.720892	-0.000085
1491	1.4825e+02	-19.3711	-50.248210	0.000274	2.735642	0.926861	-0.000110
1492	1.4835e+02	-19.3968	-50.349138	0.000253	2.533002	0.858204	-0.000101
1493	1.4845e+02	-19.4465	-50.458141	0.000274	2.735642	0.926861	-0.000110
1494	1.4855e+02	-19.4898	-50.583292	0.000314	3.140922	1.064173	-0.000126
1495	1.4865e+02	-19.5315	-50.668072	0.000213	2.127721	0.720892	-0.000085
1496	1.4875e+02	-19.5668	-50.769000	0.000253	2.533002	0.858204	-0.000101
1497	1.4885e+02	-19.5989	-50.890115	0.000304	3.039602	1.029845	-0.000122
1498	1.4895e+02	-19.6486	-50.970857	0.000203	2.026401	0.686563	-0.000081
1499	1.4905e+02	-19.6839	-51.063711	0.000233	2.330362	0.789548	-0.000093
1500	1.4915e+02	-19.7256	-51.184825	0.000304	3.039602	1.029845	-0.000122
1501	1.4925e+02	-19.7706	-51.269605	0.000213	2.127721	0.720892	-0.000085
1502	1.4935e+02	-19.8107	-51.346311	0.000193	1.925081	0.652235	-0.000077
1503	1.4945e+02	-19.8428	-51.499722	0.000385	3.850163	1.304470	-0.000154
1504	1.4955e+02	-19.8861	-51.580465	0.000203	2.026401	0.686563	-0.000081
1505	1.4965e+02	-19.9342	-51.653133	0.000182	1.823761	0.617907	-0.000073
1506	1.4975e+02	-19.9583	-51.786359	0.000334	3.343562	1.132830	-0.000134
1507	1.4985e+02	-20.0032	-51.895361	0.000274	2.735642	0.926861	-0.000110
1508	1.4995e+02	-19.9534	-51.838841	0.000142	1.418481	0.480594	0.000057
1509	1.5005e+02	-19.9214	-51.758099	0.000203	2.026401	0.686563	0.000081
1510	1.5015e+02	-19.8780	-51.750024	0.000020	0.202640	0.068656	0.000008
1511	1.5025e+02	-19.8460	-51.669282	0.000203	2.026401	0.686563	0.000081
1512	1.5034e+02	-19.8043	-51.604688	0.000162	1.621121	0.549251	0.000065
1513	1.5044e+02	-19.7658	-51.536056	0.000172	1.722441	0.583579	0.000069
1514	1.5054e+02	-19.7208	-51.455314	0.000203	2.026401	0.686563	0.000081
1515	1.5064e+02	-19.6775	-51.402831	0.000132	1.317161	0.446266	0.000053
1516	1.5074e+02	-19.6502	-51.326125	0.000193	1.925081	0.652235	0.000077
1517	1.5084e+02	-19.6085	-51.277680	0.000122	1.215841	0.411938	0.000049
1518	1.5094e+02	-19.5604	-51.225197	0.000132	1.317161	0.446266	0.000053
1519	1.5104e+02	-19.5299	-51.152528	0.000182	1.823761	0.617907	0.000073
1520	1.5114e+02	-19.4882	-51.035451	0.000294	2.938282	0.995517	0.000118
1521	1.5124e+02	-19.4385	-51.015266	0.000051	0.506600	0.171641	0.000020
1522	1.5134e+02	-19.4032	-50.914337	0.000253	2.533002	0.858204	0.000101
1523	1.5144e+02	-19.3695	-50.865892	0.000122	1.215841	0.411938	0.000049
1524	1.5154e+02	-19.3246	-50.777075	0.000223	2.229041	0.755220	0.000089
1525	1.5164e+02	-19.2877	-50.696332	0.000203	2.026401	0.686563	0.000081
1526	1.5174e+02	-19.2428	-50.623664	0.000182	1.823761	0.617907	0.000073
1527	1.5184e+02	-19.2043	-50.563107	0.000152	1.519801	0.514923	0.000061
1528	1.5194e+02	-19.1706	-50.494475	0.000172	1.722441	0.583579	0.000069
1529	1.5204e+02	-19.1385	-50.393547	0.000253	2.533002	0.858204	0.000101
1530	1.5214e+02	-19.0888	-50.357213	0.000091	0.911881	0.308954	0.000037
1531	1.5224e+02	-19.0503	-50.268396	0.000223	2.229041	0.755220	0.000089
1532	1.5233e+02	-19.0118	-50.183616	0.000213	2.127721	0.720892	0.000085
1533	1.5243e+02	-18.9701	-50.151319	0.000081	0.810561	0.274625	0.000032
1534	1.5253e+02	-18.9283	-50.014056	0.000344	3.444882	1.167158	0.000138
1535	1.5263e+02	-18.8898	-49.933313	0.000203	2.026401	0.686563	0.000081
1536	1.5273e+02	-18.8481	-49.888905	0.000111	1.114521	0.377610	0.000045
1537	1.5283e+02	-18.8096	-49.836422	0.000132	1.317161	0.446266	0.000053
1538	1.5293e+02	-18.7775	-49.727419	0.000274	2.735642	0.926861	0.000110
1539	1.5303e+02	-18.7310	-49.683011	0.000111	1.114521	0.377610	0.000045
1540	1.5313e+02	-18.6925	-49.610343	0.000182	1.823761	0.617907	0.000073
1541	1.5323e+02	-18.6428	-49.529600	0.000203	2.026401	0.686563	0.000081
1542	1.5333e+02	-18.6059	-49.428671	0.000253	2.533002	0.858204	0.000101
1543	1.5343e+02	-18.5738	-49.356003	0.000182	1.823761	0.617907	0.000073
1544	1.5353e+02	-18.5337	-49.279297	0.000193	1.925081	0.652235	0.000077
1545	1.5363e+02	-18.4952	-49.218740	0.000152	1.519801	0.514923	0.000061
1546	1.5373e+02	-18.4423	-49.150109	0.000172	1.722441	0.583579	0.000069
1547	1.5383e+02	-18.4102	-49.077441	0.000182	1.823761	0.617907	0.000073
1548	1.5393e+02	-18.3717	-48.980549	0.000243	2.431682	0.823876	0.000097
1549	1.5403e+02	-18.3284	-48.867510	0.000284	2.836962	0.961189	0.000114
1550	1.5413e+02	-18.2899	-48.827138	0.000101	1.013201	0.343282	0.000041
1551	1.5422e+02	-18.2530	-48.754470	0.000182	1.823761	0.617907	0.000073
1552	1.5432e+02	-18.2113	-48.653541	0.000253	2.533002	0.858204	0.000101
1553	1.5442e+02	-18.1679	-48.633356	0.000051	0.506600	0.171641	0.000020
1554	1.5452e+02	-18.1230	-48.496093	0.000344	3.444882	1.167158	0.000138
1555	1.5462e+02	-18.0925	-48.415350	0.000203	2.026401	0.686563	0.000081
1556	1.5472e+02	-18.0524	-48.362868	0.000132	1.317161	0.446266	0.000053
1557	1.5482e+02	-18.0123	-48.302311	0.000152	1.519801	0.514923	0.000061
1558	1.5492e+02	-17.9802	-48.229642	0.000182	1.823761	0.617907	0.000073
1559	1.5502e+02	-17.9289	-48.169085	0.000152	1.519801	0.514923	0.000061
1560	1.5512e+02	-17.8984	-48.056045	0.000284	2.836962	0.961189	0.000114
1561	1.5522e+02	-17.8551	-48.007600	0.000122	1.215841	0.411938	0.000049
1562	1.5532e+02	-17.8150	-47.918783	0.000223	2.229041	0.755220	0.000089
1563	1.5542e+02	-17.7685	-47.842077	0.000193	1.925081	0.652235	0.000077
1564	1.5552e+02	-17.7332	-47.753260	0.000223	2.229041	0.755220	0.000089
1565	1.5562e+02	-17.6899	-47.648295	0.000263	2.634322	0.892532	0.000105
1566	1.5572e+02	-17.6498	-47.620035	0.000071	0.709240	0.240297	0.000028
1567	1.5582e+02	-17.6193	-47.527180	0.000233	2.330362	0.789548	0.000093
1568	1.5592e+02	-17.5728	-47.434326	0.000233	2.330362	0.789548	0.000093
1569	1.5602e+02	-17.5359	-47.393955	0.000101	1.013201	0.343282	0.000041
1570	1.5612e+02	-17.4926	-47.305138	0.000223	2.229041	0.755220	0.000089
1571	1.5622e+02	-17.4541	-47.220358	0.000213	2.127721	0.720892	0.000085
1572	1.5631e+02	-17.4139	-47.147690	0.000182	1.823761	0.617907	0.000073
1573	1.5641e+02	-17.3738	-47.087133	0.000152	1.519801	0.514923	0.000061
1574	1.5651e+02	-17.3305	-46.994279	0.000233	2.330362	0.789548	0.000093
1575	1.5661e+02	-17.2920	-46.909499	0.000213	2.127721	0.720892	0.000085
1576	1.5671e+02	-17.2599	-46.832793	0.000193	1.925081	0.652235	0.000077
1577	1.5681e+02	-17.2182	-46.752050	0.000203	2.026401	0.686563	0.000081
1578	1.5691e+02	-17.1749	-46.711679	0.000101	1.013201	0.343282	0.000041
1579	1.5701e+02	-17.1380	-46.582491	0.000324	3.242242	1.098501	0.000130
1580	1.5711e+02	-17.1091	-46.513859	0.000172	1.722441	0.583579	0.000069
1581	1.5721e+02	-17.0466	-46.392745	0.000304	3.039602	1.029845	0.000122
1582	1.5731e+02	-17.0113	-46.320077	0.000182	1.823761	0.617907	0.000073
1583	1.5741e+02	-16.9776	-46.279706	0.000101	1.013201	0.343282	0.000041
1584	1.5751e+02	-16.9327	-46.223186	0.000142	1.418481	0.480594	0.000057
1585	1.5761e+02	-16.8974	-46.106109	0.000294	2.938282	0.995517	0.000118
1586	1.5771e+02	-16.8428	-46.013255	0.000233	2.330362	0.789548	0.000093
1587	1.5781e+02	-16.8204	-45.984995	0.000071	0.709240	0.240297	0.000028
1588	1.5791e+02	-16.7771	-45.875992	0.000274	2.735642	0.926861	0.000110
1589	1.5801e+02	-16.7386	-45.726618	0.000375	3.748843	1.270142	0.000150
1590	1.5811e+02	-16.6936	-45.726618	0.000000	0.000000	0.000000	0.000000
1591	1.5821e+02	-16.6487	-45.637801	0.000223	2.229041	0.755220	0.000089
1592	1.5830e+02	-16.6199	-45.548984	0.000223	2.229041	0.755220	0.000089
1593	1.5840e+02	-16.5621	-45.472278	0.000193	1.925081	0.652235	0.000077
1594	1.5850e+02	-16.5445	-45.387499	0.000213	2.127721	0.720892	0.000085
1595	1.5860e+02	-16.5060	-45.310793	0.000193	1.925081	0.652235	0.000077
1596	1.5870e+02	-16.4642	-45.221976	0.000223	2.229041	0.755220	0.000089
1597	1.5880e+02	-16.4161	-45.125085	0.000243	2.431682	0.823876	0.000097
1598	1.5890e+02	-16.3728	-45.084713	0.000101	1.013201	0.343282	0.000041
1599	1.5900e+02	-16.3391	-44.991859	0.000233	2.330362	0.789548	0.000093
1600	1.5910e+02	-16.3006	-44.890931	0.000253	2.533002	0.858204	0.000101
1601	1.5920e+02	-16.2557	-44.826337	0.000162	1.621121	0.549251	0.000065
1602	1.5930e+02	-16.2188	-44.729445	0.000243	2.431682	0.823876	0.000097
1603	1.5940e+02	-16.1851	-44.644666	0.000213	2.127721	0.720892	0.000085
1604	1.5950e+02	-16.1466	-44.588146	0.000142	1.418481	0.480594	0.000057
1605	1.5960e+02	-16.1033	-44.503366	0.000213	2.127721	0.720892	0.000085
1606	1.5970e+02	-16.0552	-44.442809	0.000152	1.519801	0.514923	0.000061
1607	1.5980e+02	-16.0263	-44.358029	0.000213	2.127721	0.720892	0.000085
1608	1.5990e+02	-15.9750	-44.281323	0.000193	1.925081	0.652235	0.000077
1609	1.6000e+02	-15.9332	-44.216729	0.000162	1.621121	0.549251	0.000065
1610	1.6010e+02	-15.8915	-44.115801	0.000253	2.533002	0.858204	0.000101
1611	1.6019e+02	-15.8578	-44.067355	0.000122	1.215841	0.411938	0.000049
1612	1.6029e+02	-15.8177	-43.966427	0.000253	2.533002	0.858204	0.000101
1613	1.6039e+02	-15.7808	-43.909907	0.000142	1.418481	0.480594	0.000057
1614	1.6049e+02	-15.7391	-43.808978	0.000253	2.533002	0.858204	0.000101
1615	1.6059e+02	-15.7070	-43.720161	0.000223	2.229041	0.755220	0.000089
1616	1.6069e+02	-15.6541	-43.639419	0.000203	2.026401	0.686563	0.000081
1617	1.6079e+02	-15.6284	-43.595010	0.000111	1.114521	0.377610	0.000045
1618	1.6089e+02	-15.5819	-43.477933	0.000294	2.938282	0.995517	0.000118
1619	1.6099e+02	-15.5498	-43.397191	0.000203	2.026401	0.686563	0.000081
1620	1.6109e+02	-15.5001	-43.320485	0.000193	1.925081	0.652235	0.000077
1621	1.6119e+02	-15.4600	-43.207445	0.000284	2.836962	0.961189	0.000114
1622	1.6129e+02	-15.4167	-43.150925	0.000142	1.418481	0.480594	0.000057
1623	1.6139e+02	-15.3798	-43.094405	0.000142	1.418481	0.480594	0.000057
1624	1.6149e+02	-15.3397	-42.965217	0.000324	3.242242	1.098501	0.000130
1625	1.6159e+02	-15.3044	-42.916771	0.000122	1.215841	0.411938	0.000049
1626	1.6169e+02	-15.2659	-42.803732	0.000284	2.836962	0.961189	0.000114
1627	1.6179e+02	-15.2194	-42.714915	0.000223	2.229041	0.755220	0.000089
1628	1.6189e+02	-15.1873	-42.638209	0.000193	1.925081	0.652235	0.000077
1629	1.6199e+02	-15.1424	-42.537281	0.000253	2.533002	0.858204	0.000101
1630	1.6209e+02	-15.1039	-42.460575	0.000193	1.925081	0.652235	0.000077
1631	1.6219e+02	-15.0637	-42.404055	0.000142	1.418481	0.480594	0.000057
1632	1.6228e+02	-15.0204	-42.295053	0.000274	2.735642	0.926861	0.000110
1633	1.6238e+02	-14.9787	-42.198161	0.000243	2.431682	0.823876	0.000097
1634	1.6248e+02	-14.9482	-42.093196	0.000263	2.634322	0.892532	0.000105
1635	1.6258e+02	-14.9001	-42.020527	0.000182	1.823761	0.617907	0.000073
1636	1.6268e+02	-14.8600	-41.976119	0.000111	1.114521	0.377610	0.000045
1637	1.6278e+02	-14.8215	-41.867116	0.000274	2.735642	0.926861	0.000110
1638	1.6288e+02	-14.7926	-41.729854	0.000344	3.444882	1.167158	0.000138
1639	1.6298e+02	-14.7381	-41.657185	0.000182	1.823761	0.617907	0.000073
1640	1.6308e+02	-14.7076	-41.632962	0.000061	0.607920	0.205969	0.000024
1641	1.6318e+02	-14.6643	-41.511848	0.000304	3.039602	1.029845	0.000122
1642	1.6328e+02	-14.6354	-41.443217	0.000172	1.722441	0.583579	0.000069
1643	1.6338e+02	-14.5761	-41.354400	0.000223	2.229041	0.755220	0.000089
1644	1.6348e+02	-14.5408	-41.200989	0.000385	3.850163	1.304470	0.000154
1645	1.6358e+02	-14.5007	-41.128320	0.000182	1.823761	0.617907	0.000073
1646	1.6368e+02	-14.4718	-41.059689	0.000172	1.722441	0.583579	0.000069
1647	1.6378e+02	-14.4301	-40.970872	0.000223	2.229041	0.755220	0.000089
1648	1.6388e+02	-14.3900	-40.861869	0.000274	2.735642	0.926861	0.000110
1649	1.6398e+02	-14.3515	-40.760941	0.000253	2.533002	0.858204	0.000101
1650	1.6408e+02	-14.3065	-40.684235	0.000193	1.925081	0.652235	0.000077
1651	1.6418e+02	-14.2648	-40.607530	0.000193	1.925081	0.652235	0.000077
1652	1.6427e+02	-14.2328	-40.518713	0.000223	2.229041	0.755220	0.000089
1653	1.6437e+02	-14.1926	-40.429896	0.000223	2.229041	0.755220	0.000089
1654	1.6447e+02	-14.1477	-40.345116	0.000213	2.127721	0.720892	0.000085
1655	1.6457e+02	-14.1124	-40.272448	0.000182	1.823761	0.617907	0.000073
1656	1.6467e+02	-14.0627	-40.199779	0.000182	1.823761	0.617907	0.000073
1657	1.6477e+02	-14.0194	-40.078665	0.000304	3.039602	1.029845	0.000122
1658	1.6487e+02	-13.9873	-39.953514	0.000314	3.140922	1.064173	0.000126
1659	1.6497e+02	-13.9616	-39.864697	0.000223	2.229041	0.755220	0.000089
1660	1.6507e+02	-13.9023	-39.792028	0.000182	1.823761	0.617907	0.000073
1661	1.6517e+02	-13.8638	-39.731471	0.000152	1.519801	0.514923	0.000061
1662	1.6527e+02	-13.8253	-39.598246	0.000334	3.343562	1.132830	0.000134
1663	1.6537e+02	-13.7900	-39.493280	0.000263	2.634322	0.892532	0.000105
1664	1.6547e+02	-13.7531	-39.428686	0.000162	1.621121	0.549251	0.000065
1665	1.6557e+02	-13.7162	-39.307572	0.000304	3.039602	1.029845	0.000122
1666	1.6567e+02	-13.6697	-39.218755	0.000223	2.229041	0.755220	0.000089
1667	1.6577e+02	-13.6328	-39.158198	0.000152	1.519801	0.514923	0.000061
1668	1.6587e+02	-13.5991	-39.069381	0.000223	2.229041	0.755220	0.000089
1669	1.6597e+02	-13.5510	-38.948267	0.000304	3.039602	1.029845	0.000122
1670	1.6607e+02	-13.5157	-38.891747	0.000142	1.418481	0.480594	0.000057
1671	1.6616e+02	-13.4707	-38.778707	0.000284	2.836962	0.961189	0.000114
1672	1.6626e+02	-13.4258	-38.657593	0.000304	3.039602	1.029845	0.000122
1673	1.6636e+02	-13.3986	-38.617222	0.000101	1.013201	0.343282	0.000041
1674	1.6646e+02	-13.3472	-38.504182	0.000284	2.836962	0.961189	0.000114
1675	1.6656e+02	-13.3135	-38.419402	0.000213	2.127721	0.720892	0.000085
1676	1.6666e+02	-13.2686	-38.318474	0.000253	2.533002	0.858204	0.000101
1677	1.6676e+02	-13.2205	-38.209471	0.000274	2.735642	0.926861	0.000110
1678	1.6686e+02	-13.1852	-38.120654	0.000223	2.229041	0.755220	0.000089
1679	1.6696e+02	-13.1515	-38.031837	0.000223	2.229041	0.755220	0.000089
1680	1.6706e+02	-13.1066	-37.930909	0.000253	2.533002	0.858204	0.000101
1681	1.6716e+02	-13.0681	-37.789609	0.000355	3.546202	1.201486	0.000142
1682	1.6726e+02	-13.0344	-37.733089	0.000142	1.418481	0.480594	0.000057
1683	1.6736e+02	-12.9895	-37.624087	0.000274	2.735642	0.926861	0.000110
1684	1.6746e+02	-12.9510	-37.535270	0.000223	2.229041	0.755220	0.000089
1685	1.6756e+02	-12.9109	-37.462601	0.000182	1.823761	0.617907	0.000073
1686	1.6766e+02	-12.8692	-37.353598	0.000274	2.735642	0.926861	0.000110
1687	1.6776e+02	-12.8339	-37.260744	0.000233	2.330362	0.789548	0.000093
1688	1.6786e+02	-12.7954	-37.171927	0.000223	2.229041	0.755220	0.000089
1689	1.6796e+02	-12.7633	-37.054850	0.000294	2.938282	0.995517	0.000118
1690	1.6806e+02	-12.7055	-36.945848	0.000274	2.735642	0.926861	0.000110
1691	1.6816e+02	-12.6702	-36.869142	0.000193	1.925081	0.652235	0.000077
1692	1.6825e+02	-12.6349	-36.808585	0.000152	1.519801	0.514923	0.000061
1693	1.6835e+02	-12.5916	-36.683434	0.000314	3.140922	1.064173	0.000126
1694	1.6845e+02	-12.5660	-36.590580	0.000233	2.330362	0.789548	0.000093
1695	1.6855e+02	-12.5178	-36.469466	0.000304	3.039602	1.029845	0.000122
1696	1.6865e+02	-12.4777	-36.396797	0.000182	1.823761	0.617907	0.000073
1697	1.6875e+02	-12.4537	-36.267609	0.000324	3.242242	1.098501	0.000130
1698	1.6885e+02	-12.3975	-36.186866	0.000203	2.026401	0.686563	0.000081
1699	1.6895e+02	-12.3542	-36.094012	0.000233	2.330362	0.789548	0.000093
1700	1.6905e+02	-12.3189	-35.997121	0.000243	2.431682	0.823876	0.000097
1701	1.6915e+02	-12.2692	-35.847747	0.000375	3.748843	1.270142	0.000150
1702	1.6925e+02	-12.2371	-35.783153	0.000162	1.621121	0.549251	0.000065
1703	1.6935e+02	-12.1970	-35.698373	0.000213	2.127721	0.720892	0.000085
1704	1.6945e+02	-12.1537	-35.585333	0.000284	2.836962	0.961189	0.000114
1705	1.6955e+02	-12.1184	-35.476330	0.000274	2.735642	0.926861	0.000110
1706	1.6965e+02	-12.0735	-35.435959	0.000101	1.013201	0.343282	0.000041
1707	1.6975e+02	-12.0398	-35.306771	0.000324	3.242242	1.098501	0.000130
1708	1.6985e+02	-11.9932	-35.173545	0.000334	3.343562	1.132830	0.000134
1709	1.6995e+02	-11.9580	-35.108951	0.000162	1.621121	0.549251	0.000065
1710	1.7005e+02	-11.9243	-35.016097	0.000233	2.330362	0.789548	0.000093
1711	1.7015e+02	-11.8745	-34.907094	0.000274	2.735642	0.926861	0.000110
1712	1.7024e+02	-11.8344	-34.777906	0.000324	3.242242	1.098501	0.000130
1713	1.7034e+02	-11.7863	-34.709275	0.000172	1.722441	0.583579	0.000069
1714	1.7044e+02	-11.7526	-34.612383	0.000243	2.431682	0.823876	0.000097
1715	1.7054e+02	-11.7093	-34.483195	0.000324	3.242242	1.098501	0.000130
1716	1.7064e+02	-11.6740	-34.434749	0.000122	1.215841	0.411938	0.000049
1717	1.7074e+02	-11.6435	-34.305561	0.000324	3.242242	1.098501	0.000130
1718	1.7084e+02	-11.6098	-34.249041	0.000142	1.418481	0.480594	0.000057
1719	1.7094e+02	-11.5601	-34.152150	0.000243	2.431682	0.823876	0.000097
1720	1.7104e+02	-11.5136	-34.035073	0.000294	2.938282	0.995517	0.000118
1721	1.7114e+02	-11.4815	-33.958367	0.000193	1.925081	0.652235	0.000077
1722	1.7124e+02	-11.4414	-33.857439	0.000253	2.533002	0.858204	0.000101
1723	1.7134e+02	-11.3981	-33.764585	0.000233	2.330362	0.789548	0.000093
1724	1.7144e+02	-11.3596	-33.651545	0.000284	2.836962	0.961189	0.000114
1725	1.7154e+02	-11.3243	-33.599062	0.000132	1.317161	0.446266	0.000053
1726	1.7164e+02	-11.2778	-33.465837	0.000334	3.343562	1.132830	0.000134
1727	1.7174e+02	-11.2377	-33.348760	0.000294	2.938282	0.995517	0.000118
1728	1.7184e+02	-11.1911	-33.292240	0.000142	1.418481	0.480594	0.000057
1729	1.7194e+02	-11.1655	-33.163052	0.000324	3.242242	1.098501	0.000130
1730	1.7204e+02	-11.1173	-33.066160	0.000243	2.431682	0.823876	0.000097
1731	1.7213e+02	-11.0756	-32.949083	0.000294	2.938282	0.995517	0.000118
1732	1.7223e+02	-11.0419	-32.912749	0.000091	0.911881	0.308954	0.000037
1733	1.7233e+02	-10.9922	-32.779524	0.000334	3.343562	1.132830	0.000134
1734	1.7243e+02	-10.9665	-32.702818	0.000193	1.925081	0.652235	0.000077
1735	1.7253e+02	-10.9152	-32.605927	0.000243	2.431682	0.823876	0.000097
1736	1.7263e+02	-10.8767	-32.468664	0.000344	3.444882	1.167158	0.000138
1737	1.7273e+02	-10.8510	-32.400033	0.000172	1.722441	0.583579	0.000069
1738	1.7283e+02	-10.7981	-32.282956	0.000294	2.938282	0.995517	0.000118
1739	1.7293e+02	-10.7628	-32.210287	0.000182	1.823761	0.617907	0.000073
1740	1.7303e+02	-10.7291	-32.089173	0.000304	3.039602	1.029845	0.000122
1741	1.7313e+02	-10.6842	-32.040728	0.000122	1.215841	0.411938	0.000049
1742	1.7323e+02	-10.6473	-31.915577	0.000314	3.140922	1.064173	0.000126
1743	1.7333e+02	-10.6024	-31.790425	0.000314	3.140922	1.064173	0.000126
1744	1.7343e+02	-10.5575	-31.737943	0.000132	1.317161	0.446266	0.000053
1745	1.7353e+02	-10.5206	-31.628940	0.000274	2.735642	0.926861	0.000110
1746	1.7363e+02	-10.4837	-31.536086	0.000233	2.330362	0.789548	0.000093
1747	1.7373e+02	-10.4420	-31.423046	0.000284	2.836962	0.961189	0.000114
1748	1.7383e+02	-10.3986	-31.318080	0.000263	2.634322	0.892532	0.000105
1749	1.7393e+02	-10.3633	-31.225226	0.000233	2.330362	0.789548	0.000093
1750	1.7403e+02	-10.3232	-31.140447	0.000213	2.127721	0.720892	0.000085
1751	1.7413e+02	-10.2783	-31.035481	0.000263	2.634322	0.892532	0.000105
1752	1.7422e+02	-10.2382	-30.926478	0.000274	2.735642	0.926861	0.000110
1753	1.7432e+02	-10.2013	-30.817476	0.000274	2.735642	0.926861	0.000110
1754	1.7442e+02	-10.1612	-30.756919	0.000152	1.519801	0.514923	0.000061
1755	1.7452e+02	-10.1243	-30.635805	0.000304	3.039602	1.029845	0.000122
1756	1.7462e+02	-10.0810	-30.514690	0.000304	3.039602	1.029845	0.000122
1757	1.7472e+02	-10.0473	-30.462208	0.000132	1.317161	0.446266	0.000053
1758	1.7482e+02	-10.0008	-30.345131	0.000294	2.938282	0.995517	0.000118
1759	1.7492e+02	-9.9687	-30.244202	0.000253	2.533002	0.858204	0.000101
1760	1.7502e+02	-9.9174	-30.094828	0.000375	3.748843	1.270142	0.000150
1761	1.7512e+02	-9.8821	-30.018123	0.000193	1.925081	0.652235	0.000077
1762	1.7522e+02	-9.8516	-29.953529	0.000162	1.621121	0.549251	0.000065
1763	1.7532e+02	-9.8051	-29.844526	0.000274	2.735642	0.926861	0.000110
1764	1.7542e+02	-9.7618	-29.743598	0.000253	2.533002	0.858204	0.000101
1765	1.7552e+02	-9.7249	-29.662855	0.000203	2.026401	0.686563	0.000081
1766	1.7562e+02	-9.6783	-29.586149	0.000193	1.925081	0.652235	0.000077
1767	1.7572e+02	-9.6350	-29.473109	0.000284	2.836962	0.961189	0.000114
1768	1.7582e+02	-9.6045	-29.380255	0.000233	2.330362	0.789548	0.000093
1769	1.7592e+02	-9.5741	-29.242993	0.000344	3.444882	1.167158	0.000138
1770	1.7602e+02	-9.5275	-29.146101	0.000243	2.431682	0.823876	0.000097
1771	1.7612e+02	-9.4858	-29.069396	0.000193	1.925081	0.652235	0.000077
1772	1.7621e+02	-9.4505	-28.968467	0.000253	2.533002	0.858204	0.000101
1773	1.7631e+02	-9.4056	-28.851391	0.000294	2.938282	0.995517	0.000118
1774	1.7641e+02	-9.3655	-28.738351	0.000284	2.836962	0.961189	0.000114
1775	1.7651e+02	-9.3318	-28.710091	0.000071	0.709240	0.240297	0.000028
1776	1.7661e+02	-9.2933	-28.641459	0.000172	1.722441	0.583579	0.000069
1777	1.7671e+02	-9.2420	-28.479974	0.000405	4.052803	1.373127	0.000162
1778	1.7681e+02	-9.2035	-28.399231	0.000203	2.026401	0.686563	0.000081
1779	1.7691e+02	-9.1682	-28.306377	0.000233	2.330362	0.789548	0.000093
1780	1.7701e+02	-9.1185	-28.213523	0.000233	2.330362	0.789548	0.000093
1781	1.7711e+02	-9.0928	-28.068186	0.000365	3.647522	1.235814	0.000146
1782	1.7721e+02	-9.0431	-28.007629	0.000152	1.519801	0.514923	0.000061
1783	1.7731e+02	-9.0094	-27.866329	0.000355	3.546202	1.201486	0.000142
1784	1.7741e+02	-8.9677	-27.797698	0.000172	1.722441	0.583579	0.000069
1785	1.7751e+02	-8.9388	-27.712918	0.000213	2.127721	0.720892	0.000085
1786	1.7761e+02	-8.8826	-27.575656	0.000344	3.444882	1.167158	0.000138
1787	1.7771e+02	-8.8425	-27.474727	0.000253	2.533002	0.858204	0.000101
1788	1.7781e+02	-8.8040	-27.385910	0.000223	2.229041	0.755220	0.000089
1789	1.7791e+02	-8.7703	-27.305168	0.000203	2.026401	0.686563	0.000081
1790	1.7801e+02	-8.7318	-27.228462	0.000193	1.925081	0.652235	0.000077
1791	1.7810e+02	-8.6821	-27.111385	0.000294	2.938282	0.995517	0.000118
1792	1.7820e+02	-8.6468	-26.949900	0.000405	4.052803	1.373127	0.000162
1793	1.7830e+02	-8.6163	-26.901454	0.000122	1.215841	0.411938	0.000049
1794	1.7840e+02	-8.5698	-26.808600	0.000233	2.330362	0.789548	0.000093
1795	1.7850e+02	-8.5265	-26.699597	0.000274	2.735642	0.926861	0.000110
1796	1.7860e+02	-8.4848	-26.574446	0.000314	3.140922	1.064173	0.000126
1797	1.7870e+02	-8.4431	-26.473518	0.000253	2.533002	0.858204	0.000101
1798	1.7880e+02	-8.4078	-26.348366	0.000314	3.140922	1.064173	0.000126
1799	1.7890e+02	-8.3645	-26.275698	0.000182	1.823761	0.617907	0.000073
1800	1.7900e+02	-8.3276	-26.170732	0.000263	2.634322	0.892532	0.000105
1801	1.7910e+02	-8.2891	-26.049618	0.000304	3.039602	1.029845	0.000122
1802	1.7920e+02	-8.2506	-25.932541	0.000294	2.938282	0.995517	0.000118
1803	1.7930e+02	-8.2137	-25.855836	0.000193	1.925081	0.652235	0.000077
1804	1.7940e+02	-8.1784	-25.706462	0.000375	3.748843	1.270142	0.000150
1805	1.7950e+02	-8.1286	-25.621682	0.000213	2.127721	0.720892	0.000085
1806	1.7960e+02	-8.0837	-25.500568	0.000304	3.039602	1.029845	0.000122
1807	1.7970e+02	-8.0452	-25.431937	0.000172	1.722441	0.583579	0.000069
1808	1.7980e+02	-8.0131	-25.298711	0.000334	3.343562	1.132830	0.000134
1809	1.7990e+02	-7.9714	-25.185671	0.000284	2.836962	0.961189	0.000114
1810	1.8000e+02	-7.9329	-25.117040	0.000172	1.722441	0.583579	0.000069
1811	1.8009e+02	-7.8864	-24.975740	0.000355	3.546202	1.201486	0.000142
1812	1.8019e+02	-7.8511	-24.854626	0.000304	3.039602	1.029845	0.000122
1813	1.8029e+02	-7.8206	-24.769846	0.000213	2.127721	0.720892	0.000085
1814	1.8039e+02	-7.7709	-24.652769	0.000294	2.938282	0.995517	0.000118
1815	1.8049e+02	-7.7324	-24.531655	0.000304	3.039602	1.029845	0.000122
1816	1.8059e+02	-7.6955	-24.458987	0.000182	1.823761	0.617907	0.000073
1817	1.8069e+02	-7.6602	-24.325761	0.000334	3.343562	1.132830	0.000134
1818	1.8079e+02	-7.6201	-24.240982	0.000213	2.127721	0.720892	0.000085
1819	1.8089e+02	-7.5624	-24.107756	0.000334	3.343562	1.132830	0.000134
1820	1.8099e+02	-7.5271	-23.962419	0.000365	3.647522	1.235814	0.000146
1821	1.8109e+02	-7.4998	-23.897825	0.000162	1.621121	0.549251	0.000065
1822	1.8119e+02	-7.4629	-23.780748	0.000294	2.938282	0.995517	0.000118
1823	1.8129e+02	-7.4132	-23.667708	0.000284	2.836962	0.961189	0.000114
1824	1.8139e+02	-7.3650	-23.554668	0.000284	2.836962	0.961189	0.000114
1825	1.8149e+02	-7.3394	-23.457777	0.000243	2.431682	0.823876	0.000097
1826	1.8159e+02	-7.2912	-23.324552	0.000334	3.343562	1.132830	0.000134
1827	1.8169e+02	-7.2559	-23.223623	0.000253	2.533002	0.858204	0.000101
1828	1.8179e+02	-7.2158	-23.122695	0.000253	2.533002	0.858204	0.000101
1829	1.8189e+02	-7.1805	-23.013692	0.000274	2.735642	0.926861	0.000110
1830	1.8199e+02	-7.1276	-22.880467	0.000334	3.343562	1.132830	0.000134
1831	1.8209e+02	-7.0907	-22.791650	0.000223	2.229041	0.755220	0.000089
1832	1.8218e+02	-7.0506	-22.678610	0.000284	2.836962	0.961189	0.000114
1833	1.8228e+02	-7.0217	-22.565570	0.000284	2.836962	0.961189	0.000114
1834	1.8238e+02	-6.9656	-22.456568	0.000274	2.735642	0.926861	0.000110
1835	1.8248e+02	-6.9319	-22.355639	0.000253	2.533002	0.858204	0.000101
1836	1.8258e+02	-6.8950	-22.238562	0.000294	2.938282	0.995517	0.000118
1837	1.8268e+02	-6.8517	-22.105337	0.000334	3.343562	1.132830	0.000134
1838	1.8278e+02	-6.8180	-22.028631	0.000193	1.925081	0.652235	0.000077
1839	1.8288e+02	-6.7747	-21.871183	0.000395	3.951483	1.338799	0.000158
1840	1.8298e+02	-6.7362	-21.766217	0.000263	2.634322	0.892532	0.000105
1841	1.8308e+02	-6.6913	-21.665289	0.000253	2.533002	0.858204	0.000101
1842	1.8318e+02	-6.6511	-21.568398	0.000243	2.431682	0.823876	0.000097
1843	1.8328e+02	-6.6094	-21.443246	0.000314	3.140922	1.064173	0.000126
1844	1.8338e+02	-6.5758	-21.334244	0.000274	2.735642	0.926861	0.000110
1845	1.8348e+02	-6.5340	-21.225241	0.000274	2.735642	0.926861	0.000110
1846	1.8358e+02	-6.5004	-21.100090	0.000314	3.140922	1.064173	0.000126
1847	1.8368e+02	-6.4538	-20.978976	0.000304	3.039602	1.029845	0.000122
1848	1.8378e+02	-6.4314	-20.922456	0.000142	1.418481	0.480594	0.000057
1849	1.8388e+02	-6.3720	-20.756933	0.000415	4.154123	1.407455	0.000166
1850	1.8398e+02	-6.3367	-20.643894	0.000284	2.836962	0.961189	0.000114
1851	1.8407e+02	-6.2998	-20.547002	0.000243	2.431682	0.823876	0.000097
1852	1.8417e+02	-6.2661	-20.438000	0.000274	2.735642	0.926861	0.000110
1853	1.8427e+02	-6.2116	-20.320923	0.000294	2.938282	0.995517	0.000118
1854	1.8437e+02	-6.1795	-20.211920	0.000274	2.735642	0.926861	0.000110
1855	1.8447e+02	-6.1362	-20.147326	0.000162	1.621121	0.549251	0.000065
1856	1.8457e+02	-6.0929	-19.969692	0.000446	4.458083	1.510439	0.000179
1857	1.8467e+02	-6.0656	-19.880875	0.000223	2.229041	0.755220	0.000089
1858	1.8477e+02	-6.0239	-19.739575	0.000355	3.546202	1.201486	0.000142
1859	1.8487e+02	-5.9838	-19.622498	0.000294	2.938282	0.995517	0.000118
1860	1.8497e+02	-5.9533	-19.505421	0.000294	2.938282	0.995517	0.000118
1861	1.8507e+02	-5.9036	-19.360084	0.000365	3.647522	1.235814	0.000146
1862	1.8517e+02	-5.8619	-19.275305	0.000213	2.127721	0.720892	0.000085
1863	1.8527e+02	-5.8202	-19.158228	0.000294	2.938282	0.995517	0.000118
1864	1.8537e+02	-5.7897	-18.992705	0.000415	4.154123	1.407455	0.000166
1865	1.8547e+02	-5.7319	-18.875628	0.000294	2.938282	0.995517	0.000118
1866	1.8557e+02	-5.6998	-18.798923	0.000193	1.925081	0.652235	0.000077
1867	1.8567e+02	-5.6565	-18.669734	0.000324	3.242242	1.098501	0.000130
1868	1.8577e+02	-5.6244	-18.536509	0.000334	3.343562	1.132830	0.000134
1869	1.8587e+02	-5.5924	-18.447692	0.000223	2.229041	0.755220	0.000089
1870	1.8597e+02	-5.5458	-18.318503	0.000324	3.242242	1.098501	0.000130
1871	1.8606e+02	-5.5025	-18.169129	0.000375	3.748843	1.270142	0.000150
1872	1.8616e+02	-5.4640	-18.080312	0.000223	2.229041	0.755220	0.000089
1873	1.8626e+02	-5.4303	-17.991495	0.000223	2.229041	0.755220	0.000089
1874	1.8636e+02	-5.3742	-17.830010	0.000405	4.052803	1.373127	0.000162
1875	1.8646e+02	-5.3389	-17.741193	0.000223	2.229041	0.755220	0.000089
1876	1.8656e+02	-5.3020	-17.599893	0.000355	3.546202	1.201486	0.000142
1877	1.8666e+02	-5.2651	-17.478779	0.000304	3.039602	1.029845	0.000122
1878	1.8676e+02	-5.2234	-17.426296	0.000132	1.317161	0.446266	0.000053
1879	1.8686e+02	-5.1817	-17.252700	0.000436	4.356763	1.476111	0.000174
1880	1.8696e+02	-5.1432	-17.188105	0.000162	1.621121	0.549251	0.000065
1881	1.8706e+02	-5.0999	-17.002397	0.000466	4.660723	1.579096	0.000187
1882	1.8716e+02	-5.0662	-16.893394	0.000274	2.735642	0.926861	0.000110
1883	1.8726e+02	-5.0180	-16.832837	0.000152	1.519801	0.514923	0.000061
1884	1.8736e+02	-4.9827	-16.699612	0.000334	3.343562	1.132830	0.000134
1885	1.8746e+02	-4.9426	-16.602721	0.000243	2.431682	0.823876	0.000097
1886	1.8756e+02	-4.9025	-16.445272	0.000395	3.951483	1.338799	0.000158
1887	1.8766e+02	-4.8656	-16.348381	0.000243	2.431682	0.823876	0.000097
1888	1.8776e+02	-4.8255	-16.186896	0.000405	4.052803	1.373127	0.000162
1889	1.8786e+02	-4.7838	-16.130376	0.000142	1.418481	0.480594	0.000057
1890	1.8796e+02	-4.7469	-15.981002	0.000375	3.748843	1.270142	0.000150
1891	1.8806e+02	-4.7068	-15.884111	0.000243	2.431682	0.823876	0.000097
1892	1.8815e+02	-4.6571	-15.787219	0.000243	2.431682	0.823876	0.000097
1893	1.8825e+02	-4.6250	-15.637845	0.000375	3.748843	1.270142	0.000150
1894	1.8835e+02	-4.5865	-15.496546	0.000355	3.546202	1.201486	0.000142
1895	1.8845e+02	-4.5416	-15.411766	0.000213	2.127721	0.720892	0.000085
1896	1.8855e+02	-4.5063	-15.278540	0.000334	3.343562	1.132830	0.000134
1897	1.8865e+02	-4.4646	-15.149352	0.000324	3.242242	1.098501	0.000130
1898	1.8875e+02	-4.4357	-15.052461	0.000243	2.431682	0.823876	0.000097
1899	1.8885e+02	-4.3924	-14.895012	0.000395	3.951483	1.338799	0.000158
1900	1.8895e+02	-4.3619	-14.842530	0.000132	1.317161	0.446266	0.000053
1901	1.8905e+02	-4.3009	-14.729490	0.000284	2.836962	0.961189	0.000114
1902	1.8915e+02	-4.2721	-14.555893	0.000436	4.356763	1.476111	0.000174
1903	1.8925e+02	-4.2320	-14.463039	0.000233	2.330362	0.789548	0.000093
1904	1.8935e+02	-4.1838	-14.325776	0.000344	3.444882	1.167158	0.000138
1905	1.8945e+02	-4.1437	-14.208699	0.000294	2.938282	0.995517	0.000118
1906	1.8955e+02	-4.1133	-14.103734	0.000263	2.634322	0.892532	0.000105
1907	1.8965e+02	-4.0619	-13.994731	0.000274	2.735642	0.926861	0.000110
1908	1.8975e+02	-4.0314	-13.913988	0.000203	2.026401	0.686563	0.000081
1909	1.8985e+02	-3.9785	-13.724243	0.000476	4.762043	1.613424	0.000191
1910	1.8995e+02	-3.9480	-13.607166	0.000294	2.938282	0.995517	0.000118
1911	1.9004e+02	-3.9079	-13.550646	0.000142	1.418481	0.480594	0.000057
1912	1.9014e+02	-3.8774	-13.429532	0.000304	3.039602	1.029845	0.000122
1913	1.9024e+02	-3.8293	-13.288232	0.000355	3.546202	1.201486	0.000142
1914	1.9034e+02	-3.7908	-13.130784	0.000395	3.951483	1.338799	0.000158
1915	1.9044e+02	-3.7539	-13.041967	0.000223	2.229041	0.755220	0.000089
1916	1.9054e+02	-3.7010	-12.941039	0.000253	2.533002	0.858204	0.000101
1917	1.9064e+02	-3.6753	-12.815887	0.000314	3.140922	1.064173	0.000126
1918	1.9074e+02	-3.6191	-12.690736	0.000314	3.140922	1.064173	0.000126
1919	1.9084e+02	-3.5903	-12.569622	0.000304	3.039602	1.029845	0.000122
1920	1.9094e+02	-3.5470	-12.464657	0.000263	2.634322	0.892532	0.000105
1921	1.9104e+02	-3.5165	-12.315283	0.000375	3.748843	1.270142	0.000150
1922	1.9114e+02	-3.4780	-12.202243	0.000284	2.836962	0.961189	0.000114
1923	1.9124e+02	-3.4347	-12.064980	0.000344	3.444882	1.167158	0.000138
1924	1.9134e+02	-3.3897	-11.923680	0.000355	3.546202	1.201486	0.000142
1925	1.9144e+02	-3.3512	-11.798529	0.000314	3.140922	1.064173	0.000126
1926	1.9154e+02	-3.3127	-11.689527	0.000274	2.735642	0.926861	0.000110
1927	1.9164e+02	-3.2726	-11.596672	0.000233	2.330362	0.789548	0.000093
1928	1.9174e+02	-3.2293	-11.495744	0.000253	2.533002	0.858204	0.000101
1929	1.9184e+02	-3.1924	-11.354444	0.000355	3.546202	1.201486	0.000142
1930	1.9194e+02	-3.1523	-11.241404	0.000284	2.836962	0.961189	0.000114
1931	1.9203e+02	-3.1234	-11.096068	0.000365	3.647522	1.235814	0.000146
1932	1.9213e+02	-3.0721	-10.983028	0.000284	2.836962	0.961189	0.000114
1933	1.9223e+02	-3.0256	-10.878062	0.000263	2.634322	0.892532	0.000105
1934	1.9233e+02	-2.9919	-10.756948	0.000304	3.039602	1.029845	0.000122
1935	1.9243e+02	-2.9502	-10.668131	0.000223	2.229041	0.755220	0.000089
1936	1.9253e+02	-2.9085	-10.534906	0.000334	3.343562	1.132830	0.000134
1937	1.9263e+02	-2.8652	-10.401680	0.000334	3.343562	1.132830	0.000134
1938	1.9273e+02	-2.8283	-10.256343	0.000365	3.647522	1.235814	0.000146
1939	1.9283e+02	-2.7994	-10.151378	0.000263	2.634322	0.892532	0.000105
1940	1.9293e+02	-2.7513	-10.042375	0.000274	2.735642	0.926861	0.000110
1941	1.9303e+02	-2.7144	-9.917224	0.000314	3.140922	1.064173	0.000126
1942	1.9313e+02	-2.6759	-9.779961	0.000344	3.444882	1.167158	0.000138
1943	1.9323e+02	-2.6309	-9.691144	0.000223	2.229041	0.755220	0.000089
1944	1.9333e+02	-2.5924	-9.586179	0.000263	2.634322	0.892532	0.000105
1945	1.9343e+02	-2.5539	-9.420656	0.000415	4.154123	1.407455	0.000166
1946	1.9353e+02	-2.5138	-9.347988	0.000182	1.823761	0.617907	0.000073
1947	1.9363e+02	-2.4689	-9.170354	0.000446	4.458083	1.510439	0.000179
1948	1.9373e+02	-2.4400	-9.033091	0.000344	3.444882	1.167158	0.000138
1949	1.9383e+02	-2.3919	-8.940237	0.000233	2.330362	0.789548	0.000093
1950	1.9393e+02	-2.3470	-8.847383	0.000233	2.330362	0.789548	0.000093
1951	1.9403e+02	-2.3197	-8.730306	0.000294	2.938282	0.995517	0.000118
1952	1.9412e+02	-2.2844	-8.621303	0.000274	2.735642	0.926861	0.000110
1953	1.9422e+02	-2.2331	-8.447707	0.000436	4.356763	1.476111	0.000174
1954	1.9432e+02	-2.1946	-8.326592	0.000304	3.039602	1.029845	0.000122
1955	1.9442e+02	-2.1561	-8.185293	0.000355	3.546202	1.201486	0.000142
1956	1.9452e+02	-2.1224	-8.056104	0.000324	3.242242	1.098501	0.000130
1957	1.9462e+02	-2.0807	-7.934990	0.000304	3.039602	1.029845	0.000122
1958	1.9472e+02	-2.0261	-7.838099	0.000243	2.431682	0.823876	0.000097
1959	1.9482e+02	-1.9925	-7.676614	0.000405	4.052803	1.373127	0.000162
1960	1.9492e+02	-1.9572	-7.547425	0.000324	3.242242	1.098501	0.000130
1961	1.9502e+02	-1.9138	-7.442460	0.000263	2.634322	0.892532	0.000105
1962	1.9512e+02	-1.8737	-7.309234	0.000334	3.343562	1.132830	0.000134
1963	1.9522e+02	-1.8385	-7.184083	0.000314	3.140922	1.064173	0.000126
1964	1.9532e+02	-1.7999	-7.054895	0.000324	3.242242	1.098501	0.000130
1965	1.9542e+02	-1.7582	-6.877261	0.000446	4.458083	1.510439	0.000179
1966	1.9552e+02	-1.7117	-6.760184	0.000294	2.938282	0.995517	0.000118
1967	1.9562e+02	-1.6812	-6.651181	0.000274	2.735642	0.926861	0.000110
1968	1.9572e+02	-1.6363	-6.538141	0.000284	2.836962	0.961189	0.000114
1969	1.9582e+02	-1.6090	-6.396842	0.000355	3.546202	1.201486	0.000142
1970	1.9592e+02	-1.5561	-6.291876	0.000263	2.634322	0.892532	0.000105
1971	1.9601e+02	-1.5176	-6.142502	0.000375	3.748843	1.270142	0.000150
1972	1.9611e+02	-1.4791	-5.989091	0.000385	3.850163	1.304470	0.000154
1973	1.9621e+02	-1.4358	-5.884125	0.000263	2.634322	0.892532	0.000105
1974	1.9631e+02	-1.4005	-5.738788	0.000365	3.647522	1.235814	0.000146
1975	1.9641e+02	-1.3604	-5.637860	0.000253	2.533002	0.858204	0.000101
1976	1.9651e+02	-1.3235	-5.468300	0.000426	4.255443	1.441783	0.000170
1977	1.9661e+02	-1.2834	-5.383521	0.000213	2.127721	0.720892	0.000085
1978	1.9671e+02	-1.2288	-5.234146	0.000375	3.748843	1.270142	0.000150
1979	1.9681e+02	-1.1968	-5.113032	0.000304	3.039602	1.029845	0.000122
1980	1.9691e+02	-1.1534	-4.999993	0.000284	2.836962	0.961189	0.000114
1981	1.9701e+02	-1.1214	-4.834470	0.000415	4.154123	1.407455	0.000166
1982	1.9711e+02	-1.0829	-4.701245	0.000334	3.343562	1.132830	0.000134
1983	1.9721e+02	-1.0363	-4.576093	0.000314	3.140922	1.064173	0.000126
1984	1.9731e+02	-0.9946	-4.438831	0.000344	3.444882	1.167158	0.000138
1985	1.9741e+02	-0.9593	-4.301568	0.000344	3.444882	1.167158	0.000138
1986	1.9751e+02	-0.9144	-4.156231	0.000365	3.647522	1.235814	0.000146
1987	1.9761e+02	-0.8807	-3.998783	0.000395	3.951483	1.338799	0.000158
1988	1.9771e+02	-0.8422	-3.926115	0.000182	1.823761	0.617907	0.000073
1989	1.9781e+02	-0.7989	-3.772703	0.000385	3.850163	1.304470	0.000154
1990	1.9791e+02	-0.7636	-3.619292	0.000385	3.850163	1.304470	0.000154
1991	1.9800e+02	-0.7187	-3.465881	0.000385	3.850163	1.304470	0.000154
1992	1.9810e+02	-0.6786	-3.373027	0.000233	2.330362	0.789548	0.000093
1993	1.9820e+02	-0.6337	-3.251913	0.000304	3.039602	1.029845	0.000122
1994	1.9830e+02	-0.5968	-3.070242	0.000456	4.559403	1.544768	0.000183
1995	1.9840e+02	-0.5615	-2.949128	0.000304	3.039602	1.029845	0.000122
1996	1.9850e+02	-0.5262	-2.811865	0.000344	3.444882	1.167158	0.000138
1997	1.9860e+02	-0.4829	-2.666528	0.000365	3.647522	1.235814	0.000146
1998	1.9870e+02	-0.4380	-2.537340	0.000324	3.242242	1.098501	0.000130
1999	1.9880e+02	-0.3995	-2.371817	0.000415	4.154123	1.407455	0.000166
2000	1.9890e+02	-0.3642	-2.242629	0.000324	3.242242	1.098501	0.000130
2001	1.9900e+02	-0.3176	-2.113441	0.000324	3.242242	1.098501	0.000130
2002	1.9910e+02	-0.2823	-1.992326	0.000304	3.039602	1.029845	0.000122
2003	1.9920e+02	-0.2406	-1.887361	0.000263	2.634322	0.892532	0.000105
2004	1.9930e+02	-0.1957	-1.725876	0.000405	4.052803	1.373127	0.000162
2005	1.9940e+02	-0.1588	-1.568427	0.000395	3.951483	1.338799	0.000158
2006	1.9950e+02	-0.1171	-1.423090	0.000365	3.647522	1.235814	0.000146
2007	1.9960e+02	-0.0754	-1.326199	0.000243	2.431682	0.823876	0.000097
2008	1.9970e+02	-0.0417	-1.184899	0.000355	3.546202	1.201486	0.000142
2009	1.9980e+02	0.0032	-1.035525	0.000355	3.546202	1.201486	0.000150

Center data before PMax,+/-Pr and +/-Vc Calc.

PMax (uC/cm2):	5.19e+01
Pr (uC/cm2):	4.69e+00
-Pr (uC/cm2):	-1.04e+00
PLoss (uC/cm2):	6.46e+00
Vc:	2.30e+00
-Vc:	-1.42e+00
C (Max-Eff) (nF):	2.60e-01
K (Eff):	8.79e+02
Vert. (+/-Pr) Shift (uC/cm2):	1.83e+00
Horiz. Shift (+/-Vc):	4.41e-01
Offset (uC/cm2):	7.52e+00

A (Loop Area - uC/cm2·Volts):	-3.98e-01



Hysteresis Version: 5.48.1 - Radiant Technologies, Inc., 1999 - 9/12/24

