»»»»»»»»»»»»»»»»»»»»»»»»»»»»»»»»»»»» Hysteresis ««««««««««««««««««««««««««««««««««««
»»»  Executed Version:	5.48.1
»»»  Vision Version:	5.48.4 (R)
»»»  Vision Compiled:	9/18/24
»»»  Driver Version:	5.47.0
»»»  Windows Version:	Windows 8 or 8.1
»»»  Processor Information:	x86 (AMD or Intel) - 32 Processors
»»»  Tester Name:	PMF21124-494 (100V)
»»»  Tester S/N:	PMF21124-494
»»»  Internal Amp Type:	100V RevK 270k
»»»  Internal Amp S/N:	iAB2-596/K     
»»»  Execution Count:	1
»»»»»»»»»»»»»»»»»»»»»»»»»»»»»»»»»»»»»»»»»»««««««««««««««««««««««««««««««««««««««««««

Stored:	6/9/2025 - 15:48:15
Configured:	06/09/25 02:47:45 PM
Executed:	06/09/25 03:47:35 PM

»»»»»»»»»»»»»»»»»»»»»»»»»»»»»»»»»»» Sample Info ««««««««««««««««««««««««««««««««««««
Sample Name:	
Lot Name:	
Wafer Name:	
Die Row/Column:	0/0
Capacitor Number:	0
Sample Area (cm2):	1.00e-04
Sample Thickness (microns):	3.00e-01

Amplifier:	Internal

»»»»»»»»»»»»»»»»»»»»»»»»»»»»»»»»»»» Tester Info «««««««««««««««««««««««««««««««««««
Tester Name:	PMF21124-494 (100V)
Tester Serial Number:	PMF21124-494
Return Signal Amp. Level:	0.19 [Index: 3]

»»»»»»»»»»»»»»»»»»»»»»»»»»»»»»»» Hysteresis Info ««««««««««««««««««««««««««««««««««
Task Name:	Hyst-927
Volts:	20.00
Field:	666.67 (kV/cm)
DCBias:	0.00
DCField:	0.00 (kV/cm)
Hysteresis Period (ms):	2.00e+02
Preset:	Enabled
Preset Delay (ms):	1.00e+03
Profile:	Standard Bipolar

»»»»»»»»»»»»»»»»»»»»»»»»»»»»»»»»»»»»»» Data «««««««««««««««««««««««««««««««««««««««
Points:	2009

Valid Data

Point	Time (ms)	Drive Voltage	Measured Polarization (uC/cm2)	Capacitance (uF)	Normalized Capacitance (uF/cm2)	Dielectric Constant	Instantaneous Current (mA)
   1	0.0000e+00	-0.0016	-126.152418	0.000355	3.547056	1.201775	0.000142
   2	9.9500e-02	0.0305	-126.011118	0.000355	3.547056	1.201775	0.000142
   3	1.9900e-01	0.0674	-125.898078	0.000284	2.837645	0.961420	0.000114
   4	2.9850e-01	0.1091	-125.772927	0.000314	3.141678	1.064429	0.000126
   5	3.9800e-01	0.1428	-125.655850	0.000294	2.938989	0.995756	0.000118
   6	4.9750e-01	0.1893	-125.530699	0.000314	3.141678	1.064429	0.000126
   7	5.9700e-01	0.2262	-125.441882	0.000223	2.229578	0.755401	0.000089
   8	6.9650e-01	0.2679	-125.324805	0.000294	2.938989	0.995756	0.000118
   9	7.9600e-01	0.3128	-125.207728	0.000294	2.938989	0.995756	0.000118
  10	8.9550e-01	0.3481	-125.050279	0.000395	3.952434	1.339121	0.000158
  11	9.9500e-01	0.3818	-124.933203	0.000294	2.938989	0.995756	0.000118
  12	1.0945e+00	0.4315	-124.828237	0.000263	2.634956	0.892747	0.000105
  13	1.1940e+00	0.4684	-124.695012	0.000334	3.344367	1.133102	0.000134
  14	1.2935e+00	0.4989	-124.561786	0.000334	3.344367	1.133102	0.000134
  15	1.3930e+00	0.5503	-124.440672	0.000304	3.040334	1.030093	0.000122
  16	1.4925e+00	0.5888	-124.319558	0.000304	3.040334	1.030093	0.000122
  17	1.5920e+00	0.6224	-124.178258	0.000355	3.547056	1.201775	0.000142
  18	1.6915e+00	0.6738	-124.073293	0.000263	2.634956	0.892747	0.000105
  19	1.7910e+00	0.6962	-123.984476	0.000223	2.229578	0.755401	0.000089
  20	1.8905e+00	0.7379	-123.851250	0.000334	3.344367	1.133102	0.000134
  21	1.9900e+00	0.7845	-123.758396	0.000233	2.330922	0.789738	0.000093
  22	2.0895e+00	0.8326	-123.584799	0.000436	4.357811	1.476466	0.000174
  23	2.1890e+00	0.8759	-123.431388	0.000385	3.851089	1.304784	0.000154
  24	2.2885e+00	0.9096	-123.354682	0.000193	1.925545	0.652392	0.000077
  25	2.3880e+00	0.9465	-123.209346	0.000365	3.648400	1.236111	0.000146
  26	2.4875e+00	0.9866	-123.084194	0.000314	3.141678	1.064429	0.000126
  27	2.5870e+00	1.0363	-122.942895	0.000355	3.547056	1.201775	0.000142
  28	2.6865e+00	1.0652	-122.841966	0.000253	2.533611	0.858411	0.000101
  29	2.7860e+00	1.1037	-122.696629	0.000365	3.648400	1.236111	0.000146
  30	2.8855e+00	1.1470	-122.595701	0.000253	2.533611	0.858411	0.000101
  31	2.9850e+00	1.1855	-122.450364	0.000365	3.648400	1.236111	0.000146
  32	3.0845e+00	1.2224	-122.325213	0.000314	3.141678	1.064429	0.000126
  33	3.1840e+00	1.2657	-122.224284	0.000253	2.533611	0.858411	0.000101
  34	3.2835e+00	1.3010	-122.087022	0.000345	3.445711	1.167439	0.000138
  35	3.3830e+00	1.3476	-121.941685	0.000365	3.648400	1.236111	0.000146
  36	3.4825e+00	1.3812	-121.812497	0.000324	3.243022	1.098766	0.000130
  37	3.5820e+00	1.4310	-121.671197	0.000355	3.547056	1.201775	0.000142
  38	3.6815e+00	1.4663	-121.550083	0.000304	3.040334	1.030093	0.000122
  39	3.7810e+00	1.5048	-121.449154	0.000253	2.533611	0.858411	0.000101
  40	3.8805e+00	1.5385	-121.315929	0.000334	3.344367	1.133102	0.000134
  41	3.9800e+00	1.5834	-121.198852	0.000294	2.938989	0.995756	0.000118
  42	4.0795e+00	1.6267	-121.053515	0.000365	3.648400	1.236111	0.000146
  43	4.1790e+00	1.6716	-120.944512	0.000274	2.736300	0.927084	0.000110
  44	4.2785e+00	1.7101	-120.811287	0.000334	3.344367	1.133102	0.000134
  45	4.3780e+00	1.7422	-120.653839	0.000395	3.952434	1.339121	0.000158
  46	4.4775e+00	1.7775	-120.560985	0.000233	2.330922	0.789738	0.000093
  47	4.5770e+00	1.8240	-120.383351	0.000446	4.459156	1.510803	0.000179
  48	4.6765e+00	1.8577	-120.290496	0.000233	2.330922	0.789738	0.000093
  49	4.7760e+00	1.9074	-120.145160	0.000365	3.648400	1.236111	0.000146
  50	4.8755e+00	1.9427	-120.076528	0.000172	1.722856	0.583719	0.000069
  51	4.9750e+00	1.9796	-119.882746	0.000486	4.864534	1.648149	0.000195
  52	5.0745e+00	2.0181	-119.781817	0.000253	2.533611	0.858411	0.000101
  53	5.1740e+00	2.0711	-119.636480	0.000365	3.648400	1.236111	0.000146
  54	5.2735e+00	2.1031	-119.543626	0.000233	2.330922	0.789738	0.000093
  55	5.3730e+00	2.1433	-119.430587	0.000284	2.837645	0.961420	0.000114
  56	5.4725e+00	2.1802	-119.261027	0.000426	4.256467	1.442130	0.000170
  57	5.5720e+00	2.2187	-119.131838	0.000324	3.243022	1.098766	0.000130
  58	5.6715e+00	2.2716	-119.026873	0.000263	2.634956	0.892747	0.000105
  59	5.7710e+00	2.2973	-118.929982	0.000243	2.432267	0.824074	0.000097
  60	5.8705e+00	2.3454	-118.772533	0.000395	3.952434	1.339121	0.000158
  61	5.9700e+00	2.3775	-118.631234	0.000355	3.547056	1.201775	0.000142
  62	6.0695e+00	2.4240	-118.510120	0.000304	3.040334	1.030093	0.000122
  63	6.1690e+00	2.4577	-118.384968	0.000314	3.141678	1.064429	0.000126
  64	6.2685e+00	2.4914	-118.231557	0.000385	3.851089	1.304784	0.000154
  65	6.3680e+00	2.5443	-118.130629	0.000253	2.533611	0.858411	0.000101
  66	6.4675e+00	2.5876	-117.969143	0.000405	4.053778	1.373457	0.000162
  67	6.5670e+00	2.6181	-117.872252	0.000243	2.432267	0.824074	0.000097
  68	6.6665e+00	2.6582	-117.734990	0.000345	3.445711	1.167439	0.000138
  69	6.7660e+00	2.6903	-117.638098	0.000243	2.432267	0.824074	0.000097
  70	6.8655e+00	2.7384	-117.492761	0.000365	3.648400	1.236111	0.000146
  71	6.9650e+00	2.7721	-117.351462	0.000355	3.547056	1.201775	0.000142
  72	7.0645e+00	2.8218	-117.230348	0.000304	3.040334	1.030093	0.000122
  73	7.1640e+00	2.8684	-117.101159	0.000324	3.243022	1.098766	0.000130
  74	7.2635e+00	2.8940	-116.992157	0.000274	2.736300	0.927084	0.000110
  75	7.3630e+00	2.9518	-116.867005	0.000314	3.141678	1.064429	0.000126
  76	7.4625e+00	2.9678	-116.725706	0.000355	3.547056	1.201775	0.000142
  77	7.5620e+00	3.0208	-116.560183	0.000416	4.155123	1.407794	0.000166
  78	7.6615e+00	3.0609	-116.475403	0.000213	2.128233	0.721065	0.000085
  79	7.7610e+00	3.0898	-116.370438	0.000263	2.634956	0.892747	0.000105
  80	7.8605e+00	3.1379	-116.208952	0.000405	4.053778	1.373457	0.000162
  81	7.9600e+00	3.1828	-116.075727	0.000334	3.344367	1.133102	0.000134
  82	8.0595e+00	3.2069	-115.946538	0.000324	3.243022	1.098766	0.000130
  83	8.1590e+00	3.2566	-115.837536	0.000274	2.736300	0.927084	0.000110
  84	8.2585e+00	3.2999	-115.712385	0.000314	3.141678	1.064429	0.000126
  85	8.3580e+00	3.3368	-115.550899	0.000405	4.053778	1.373457	0.000162
  86	8.4575e+00	3.3593	-115.445934	0.000263	2.634956	0.892747	0.000105
  87	8.5570e+00	3.4138	-115.328857	0.000294	2.938989	0.995756	0.000118
  88	8.6565e+00	3.4571	-115.175445	0.000385	3.851089	1.304784	0.000154
  89	8.7560e+00	3.4988	-115.054331	0.000304	3.040334	1.030093	0.000122
  90	8.8555e+00	3.5293	-114.900920	0.000385	3.851089	1.304784	0.000154
  91	8.9550e+00	3.5742	-114.779806	0.000304	3.040334	1.030093	0.000122
  92	9.0545e+00	3.6111	-114.662729	0.000294	2.938989	0.995756	0.000118
  93	9.1540e+00	3.6625	-114.549689	0.000284	2.837645	0.961420	0.000114
  94	9.2535e+00	3.6833	-114.396278	0.000385	3.851089	1.304784	0.000154
  95	9.3530e+00	3.7314	-114.254979	0.000355	3.547056	1.201775	0.000142
  96	9.4525e+00	3.7764	-114.129827	0.000314	3.141678	1.064429	0.000126
  97	9.5520e+00	3.8101	-114.020825	0.000274	2.736300	0.927084	0.000110
  98	9.6515e+00	3.8550	-113.895673	0.000314	3.141678	1.064429	0.000126
  99	9.7510e+00	3.8967	-113.738225	0.000395	3.952434	1.339121	0.000158
 100	9.8505e+00	3.9223	-113.625185	0.000284	2.837645	0.961420	0.000114
 101	9.9500e+00	3.9737	-113.508108	0.000294	2.938989	0.995756	0.000118
 102	1.0050e+01	4.0186	-113.318363	0.000476	4.763189	1.613812	0.000191
 103	1.0149e+01	4.0571	-113.237620	0.000203	2.026889	0.686729	0.000081
 104	1.0248e+01	4.0892	-113.140729	0.000243	2.432267	0.824074	0.000097
 105	1.0348e+01	4.1373	-112.967132	0.000436	4.357811	1.476466	0.000174
 106	1.0447e+01	4.1678	-112.866204	0.000253	2.533611	0.858411	0.000101
 107	1.0547e+01	4.2143	-112.753164	0.000284	2.837645	0.961420	0.000114
 108	1.0646e+01	4.2592	-112.575530	0.000446	4.459156	1.510803	0.000179
 109	1.0746e+01	4.2993	-112.478639	0.000243	2.432267	0.824074	0.000097
 110	1.0845e+01	4.3314	-112.321191	0.000395	3.952434	1.339121	0.000158
 111	1.0945e+01	4.3715	-112.208151	0.000284	2.837645	0.961420	0.000114
 112	1.1044e+01	4.4052	-112.127408	0.000203	2.026889	0.686729	0.000081
 113	1.1144e+01	4.4485	-111.961885	0.000416	4.155123	1.407794	0.000166
 114	1.1243e+01	4.4983	-111.808474	0.000385	3.851089	1.304784	0.000154
 115	1.1343e+01	4.5271	-111.671212	0.000345	3.445711	1.167439	0.000138
 116	1.1443e+01	4.5576	-111.542023	0.000324	3.243022	1.098766	0.000130
 117	1.1542e+01	4.6058	-111.420909	0.000304	3.040334	1.030093	0.000122
 118	1.1642e+01	4.6491	-111.275572	0.000365	3.648400	1.236111	0.000146
 119	1.1741e+01	4.6812	-111.210978	0.000162	1.621511	0.549383	0.000065
 120	1.1841e+01	4.7389	-111.069678	0.000355	3.547056	1.201775	0.000142
 121	1.1940e+01	4.7646	-110.883970	0.000466	4.661845	1.579476	0.000187
 122	1.2040e+01	4.8223	-110.811302	0.000182	1.824200	0.618056	0.000073
 123	1.2139e+01	4.8608	-110.670002	0.000355	3.547056	1.201775	0.000142
 124	1.2239e+01	4.8929	-110.492368	0.000446	4.459156	1.510803	0.000179
 125	1.2338e+01	4.9298	-110.363180	0.000324	3.243022	1.098766	0.000130
 126	1.2438e+01	4.9715	-110.262251	0.000253	2.533611	0.858411	0.000101
 127	1.2537e+01	5.0116	-110.052320	0.000527	5.269911	1.785494	0.000211
 128	1.2636e+01	5.0485	-109.983689	0.000172	1.722856	0.583719	0.000069
 129	1.2736e+01	5.0854	-109.846426	0.000345	3.445711	1.167439	0.000138
 130	1.2835e+01	5.1287	-109.688978	0.000395	3.952434	1.339121	0.000158
 131	1.2935e+01	5.1656	-109.584012	0.000263	2.634956	0.892747	0.000105
 132	1.3034e+01	5.2105	-109.438676	0.000365	3.648400	1.236111	0.000146
 133	1.3134e+01	5.2571	-109.297376	0.000355	3.547056	1.201775	0.000142
 134	1.3233e+01	5.2940	-109.164150	0.000334	3.344367	1.133102	0.000134
 135	1.3333e+01	5.3325	-109.014776	0.000375	3.749745	1.270448	0.000150
 136	1.3432e+01	5.3710	-108.893662	0.000304	3.040334	1.030093	0.000122
 137	1.3532e+01	5.4079	-108.724103	0.000426	4.256467	1.442130	0.000170
 138	1.3632e+01	5.4480	-108.598951	0.000314	3.141678	1.064429	0.000126
 139	1.3731e+01	5.4801	-108.473800	0.000314	3.141678	1.064429	0.000126
 140	1.3831e+01	5.5266	-108.328463	0.000365	3.648400	1.236111	0.000146
 141	1.3930e+01	5.5731	-108.191201	0.000345	3.445711	1.167439	0.000138
 142	1.4030e+01	5.6068	-108.062012	0.000324	3.243022	1.098766	0.000130
 143	1.4129e+01	5.6485	-107.928787	0.000334	3.344367	1.133102	0.000134
 144	1.4229e+01	5.6886	-107.747116	0.000456	4.560500	1.545139	0.000183
 145	1.4328e+01	5.7319	-107.670410	0.000193	1.925545	0.652392	0.000077
 146	1.4428e+01	5.7640	-107.533148	0.000345	3.445711	1.167439	0.000138
 147	1.4527e+01	5.8073	-107.383773	0.000375	3.749745	1.270448	0.000150
 148	1.4627e+01	5.8442	-107.254585	0.000324	3.243022	1.098766	0.000130
 149	1.4726e+01	5.8956	-107.125397	0.000324	3.243022	1.098766	0.000130
 150	1.4825e+01	5.9244	-106.947763	0.000446	4.459156	1.510803	0.000179
 151	1.4925e+01	5.9645	-106.802426	0.000365	3.648400	1.236111	0.000146
 152	1.5024e+01	6.0046	-106.677275	0.000314	3.141678	1.064429	0.000126
 153	1.5124e+01	6.0431	-106.527901	0.000375	3.749745	1.270448	0.000150
 154	1.5223e+01	6.0816	-106.390638	0.000345	3.445711	1.167439	0.000138
 155	1.5323e+01	6.1218	-106.225116	0.000416	4.155123	1.407794	0.000166
 156	1.5422e+01	6.1667	-106.124187	0.000253	2.533611	0.858411	0.000101
 157	1.5522e+01	6.2084	-105.966739	0.000395	3.952434	1.339121	0.000158
 158	1.5621e+01	6.2453	-105.813328	0.000385	3.851089	1.304784	0.000154
 159	1.5721e+01	6.2870	-105.680102	0.000334	3.344367	1.133102	0.000134
 160	1.5820e+01	6.3303	-105.526691	0.000385	3.851089	1.304784	0.000154
 161	1.5920e+01	6.3608	-105.405577	0.000304	3.040334	1.030093	0.000122
 162	1.6020e+01	6.4057	-105.260240	0.000365	3.648400	1.236111	0.000146
 163	1.6119e+01	6.4410	-105.098755	0.000405	4.053778	1.373457	0.000162
 164	1.6218e+01	6.4875	-104.969566	0.000324	3.243022	1.098766	0.000130
 165	1.6318e+01	6.5260	-104.828267	0.000355	3.547056	1.201775	0.000142
 166	1.6418e+01	6.5597	-104.630447	0.000497	4.965878	1.682485	0.000199
 167	1.6517e+01	6.6014	-104.533556	0.000243	2.432267	0.824074	0.000097
 168	1.6616e+01	6.6415	-104.372070	0.000405	4.053778	1.373457	0.000162
 169	1.6716e+01	6.6897	-104.230770	0.000355	3.547056	1.201775	0.000142
 170	1.6816e+01	6.7265	-104.073322	0.000395	3.952434	1.339121	0.000158
 171	1.6915e+01	6.7586	-103.915874	0.000395	3.952434	1.339121	0.000158
 172	1.7015e+01	6.8052	-103.794760	0.000304	3.040334	1.030093	0.000122
 173	1.7114e+01	6.8356	-103.641349	0.000385	3.851089	1.304784	0.000154
 174	1.7213e+01	6.8950	-103.564643	0.000193	1.925545	0.652392	0.000077
 175	1.7313e+01	6.9207	-103.370861	0.000486	4.864534	1.648149	0.000195
 176	1.7413e+01	6.9560	-103.217449	0.000385	3.851089	1.304784	0.000154
 177	1.7512e+01	6.9929	-103.055964	0.000405	4.053778	1.373457	0.000162
 178	1.7611e+01	7.0394	-102.914664	0.000355	3.547056	1.201775	0.000142
 179	1.7711e+01	7.0747	-102.801624	0.000284	2.837645	0.961420	0.000114
 180	1.7811e+01	7.1228	-102.579582	0.000557	5.573945	1.888504	0.000223
 181	1.7910e+01	7.1597	-102.450394	0.000324	3.243022	1.098766	0.000130
 182	1.8009e+01	7.1934	-102.365614	0.000213	2.128233	0.721065	0.000085
 183	1.8109e+01	7.2367	-102.139534	0.000568	5.675289	1.922840	0.000227
 184	1.8209e+01	7.2800	-101.986123	0.000385	3.851089	1.304784	0.000154
 185	1.8308e+01	7.3233	-101.873083	0.000284	2.837645	0.961420	0.000114
 186	1.8407e+01	7.3538	-101.711598	0.000405	4.053778	1.373457	0.000162
 187	1.8507e+01	7.3971	-101.562224	0.000375	3.749745	1.270448	0.000150
 188	1.8607e+01	7.4404	-101.404775	0.000395	3.952434	1.339121	0.000158
 189	1.8706e+01	7.4837	-101.271550	0.000334	3.344367	1.133102	0.000134
 190	1.8805e+01	7.5222	-101.081805	0.000476	4.763189	1.613812	0.000191
 191	1.8905e+01	7.5543	-100.964728	0.000294	2.938989	0.995756	0.000118
 192	1.9005e+01	7.5993	-100.799205	0.000416	4.155123	1.407794	0.000166
 193	1.9104e+01	7.6442	-100.625608	0.000436	4.357811	1.476466	0.000174
 194	1.9203e+01	7.6907	-100.439900	0.000466	4.661845	1.579476	0.000187
 195	1.9303e+01	7.7180	-100.314749	0.000314	3.141678	1.064429	0.000126
 196	1.9402e+01	7.7645	-100.181523	0.000334	3.344367	1.133102	0.000134
 197	1.9502e+01	7.7886	-99.987741	0.000486	4.864534	1.648149	0.000195
 198	1.9602e+01	7.8351	-99.842404	0.000365	3.648400	1.236111	0.000146
 199	1.9701e+01	7.8768	-99.693030	0.000375	3.749745	1.270448	0.000150
 200	1.9800e+01	7.9233	-99.519433	0.000436	4.357811	1.476466	0.000174
 201	1.9900e+01	7.9538	-99.357948	0.000405	4.053778	1.373457	0.000162
 202	2.0000e+01	7.9955	-99.248945	0.000274	2.736300	0.927084	0.000110
 203	2.0099e+01	8.0404	-99.055162	0.000486	4.864534	1.648149	0.000195
 204	2.0198e+01	8.0757	-98.865417	0.000476	4.763189	1.613812	0.000191
 205	2.0298e+01	8.1158	-98.724117	0.000355	3.547056	1.201775	0.000142
 206	2.0398e+01	8.1559	-98.546483	0.000446	4.459156	1.510803	0.000179
 207	2.0497e+01	8.1960	-98.417295	0.000324	3.243022	1.098766	0.000130
 208	2.0596e+01	8.2409	-98.223513	0.000486	4.864534	1.648149	0.000195
 209	2.0696e+01	8.2794	-98.053953	0.000426	4.256467	1.442130	0.000170
 210	2.0796e+01	8.3228	-97.872282	0.000456	4.560500	1.545139	0.000183
 211	2.0895e+01	8.3597	-97.726945	0.000365	3.648400	1.236111	0.000146
 212	2.0994e+01	8.3966	-97.561422	0.000416	4.155123	1.407794	0.000166
 213	2.1094e+01	8.4270	-97.367640	0.000486	4.864534	1.648149	0.000195
 214	2.1194e+01	8.4736	-97.250563	0.000294	2.938989	0.995756	0.000118
 215	2.1293e+01	8.5169	-97.036595	0.000537	5.371256	1.819831	0.000215
 216	2.1392e+01	8.5522	-96.895295	0.000355	3.547056	1.201775	0.000142
 217	2.1492e+01	8.5875	-96.717661	0.000446	4.459156	1.510803	0.000179
 218	2.1591e+01	8.6388	-96.540027	0.000446	4.459156	1.510803	0.000179
 219	2.1691e+01	8.6741	-96.398727	0.000355	3.547056	1.201775	0.000142
 220	2.1791e+01	8.7142	-96.192833	0.000517	5.168567	1.751158	0.000207
 221	2.1890e+01	8.7575	-96.055571	0.000345	3.445711	1.167439	0.000138
 222	2.1989e+01	8.8088	-95.873900	0.000456	4.560500	1.545139	0.000183
 223	2.2089e+01	8.8313	-95.668006	0.000517	5.168567	1.751158	0.000207
 224	2.2189e+01	8.8730	-95.534780	0.000334	3.344367	1.133102	0.000134
 225	2.2288e+01	8.9115	-95.357146	0.000446	4.459156	1.510803	0.000179
 226	2.2387e+01	8.9532	-95.167401	0.000476	4.763189	1.613812	0.000191
 227	2.2487e+01	8.9885	-95.022064	0.000365	3.648400	1.236111	0.000146
 228	2.2587e+01	9.0447	-94.840393	0.000456	4.560500	1.545139	0.000183
 229	2.2686e+01	9.0800	-94.686982	0.000385	3.851089	1.304784	0.000154
 230	2.2785e+01	9.1120	-94.473013	0.000537	5.371256	1.819831	0.000215
 231	2.2885e+01	9.1586	-94.271157	0.000507	5.067223	1.716821	0.000203
 232	2.2985e+01	9.2003	-94.154080	0.000294	2.938989	0.995756	0.000118
 233	2.3084e+01	9.2308	-93.948186	0.000517	5.168567	1.751158	0.000207
 234	2.3183e+01	9.2773	-93.770552	0.000446	4.459156	1.510803	0.000179
 235	2.3283e+01	9.3126	-93.633289	0.000345	3.445711	1.167439	0.000138
 236	2.3383e+01	9.3495	-93.407210	0.000568	5.675289	1.922840	0.000227
 237	2.3482e+01	9.3848	-93.213427	0.000486	4.864534	1.648149	0.000195
 238	2.3581e+01	9.4329	-93.047904	0.000416	4.155123	1.407794	0.000166
 239	2.3681e+01	9.4682	-92.866233	0.000456	4.560500	1.545139	0.000183
 240	2.3780e+01	9.5147	-92.652265	0.000537	5.371256	1.819831	0.000215
 241	2.3880e+01	9.5452	-92.486743	0.000416	4.155123	1.407794	0.000166
 242	2.3980e+01	9.5965	-92.296997	0.000476	4.763189	1.613812	0.000191
 243	2.4079e+01	9.6382	-92.155697	0.000355	3.547056	1.201775	0.000142
 244	2.4178e+01	9.6799	-91.978064	0.000446	4.459156	1.510803	0.000179
 245	2.4278e+01	9.7168	-91.756021	0.000557	5.573945	1.888504	0.000223
 246	2.4378e+01	9.7618	-91.554164	0.000507	5.067223	1.716821	0.000203
 247	2.4477e+01	9.7874	-91.404790	0.000375	3.749745	1.270448	0.000150
 248	2.4576e+01	9.8147	-91.198896	0.000517	5.168567	1.751158	0.000207
 249	2.4676e+01	9.8773	-91.013188	0.000466	4.661845	1.579476	0.000187
 250	2.4776e+01	9.9142	-90.803257	0.000527	5.269911	1.785494	0.000211
 251	2.4875e+01	9.9495	-90.629660	0.000436	4.357811	1.476466	0.000174
 252	2.4974e+01	9.9863	-90.468175	0.000405	4.053778	1.373457	0.000162
 253	2.5074e+01	10.0393	-90.258244	0.000527	5.269911	1.785494	0.000211
 254	2.5174e+01	10.0714	-90.064461	0.000486	4.864534	1.648149	0.000195
 255	2.5273e+01	10.1227	-89.850493	0.000537	5.371256	1.819831	0.000215
 256	2.5372e+01	10.1484	-89.701119	0.000375	3.749745	1.270448	0.000150
 257	2.5472e+01	10.1885	-89.479076	0.000557	5.573945	1.888504	0.000223
 258	2.5572e+01	10.2286	-89.297405	0.000456	4.560500	1.545139	0.000183
 259	2.5671e+01	10.2703	-89.115734	0.000456	4.560500	1.545139	0.000183
 260	2.5770e+01	10.3120	-88.905803	0.000527	5.269911	1.785494	0.000211
 261	2.5870e+01	10.3553	-88.736244	0.000426	4.256467	1.442130	0.000170
 262	2.5970e+01	10.3922	-88.453644	0.000709	7.094112	2.403550	0.000284
 263	2.6069e+01	10.4307	-88.288121	0.000416	4.155123	1.407794	0.000166
 264	2.6169e+01	10.4644	-88.082228	0.000517	5.168567	1.751158	0.000207
 265	2.6268e+01	10.5141	-87.904594	0.000446	4.459156	1.510803	0.000179
 266	2.6367e+01	10.5526	-87.674477	0.000578	5.776634	1.957176	0.000231
 267	2.6467e+01	10.5879	-87.537214	0.000345	3.445711	1.167439	0.000138
 268	2.6567e+01	10.6248	-87.274800	0.000659	6.587389	2.231868	0.000264
 269	2.6666e+01	10.6730	-87.052758	0.000557	5.573945	1.888504	0.000223
 270	2.6765e+01	10.7050	-86.871087	0.000456	4.560500	1.545139	0.000183
 271	2.6865e+01	10.7468	-86.649044	0.000557	5.573945	1.888504	0.000223
 272	2.6965e+01	10.7853	-86.459299	0.000476	4.763189	1.613812	0.000191
 273	2.7064e+01	10.8270	-86.245331	0.000537	5.371256	1.819831	0.000215
 274	2.7163e+01	10.8655	-86.059623	0.000466	4.661845	1.579476	0.000187
 275	2.7263e+01	10.9184	-85.825469	0.000588	5.877978	1.991513	0.000235
 276	2.7363e+01	10.9489	-85.587278	0.000598	5.979323	2.025849	0.000239
 277	2.7462e+01	10.9922	-85.381384	0.000517	5.168567	1.751158	0.000207
 278	2.7561e+01	11.0275	-85.159341	0.000557	5.573945	1.888504	0.000223
 279	2.7661e+01	11.0708	-84.937299	0.000557	5.573945	1.888504	0.000223
 280	2.7761e+01	11.1093	-84.739479	0.000497	4.965878	1.682485	0.000199
 281	2.7860e+01	11.1478	-84.545697	0.000486	4.864534	1.648149	0.000195
 282	2.7959e+01	11.1879	-84.283283	0.000659	6.587389	2.231868	0.000264
 283	2.8059e+01	11.2216	-84.061240	0.000557	5.573945	1.888504	0.000223
 284	2.8159e+01	11.2649	-83.827086	0.000588	5.877978	1.991513	0.000235
 285	2.8258e+01	11.3050	-83.613118	0.000537	5.371256	1.819831	0.000215
 286	2.8358e+01	11.3339	-83.399150	0.000537	5.371256	1.819831	0.000215
 287	2.8457e+01	11.3917	-83.164996	0.000588	5.877978	1.991513	0.000235
 288	2.8556e+01	11.4221	-82.926805	0.000598	5.979323	2.025849	0.000239
 289	2.8656e+01	11.4638	-82.704763	0.000557	5.573945	1.888504	0.000223
 290	2.8756e+01	11.5040	-82.482720	0.000557	5.573945	1.888504	0.000223
 291	2.8855e+01	11.5521	-82.264715	0.000547	5.472600	1.854167	0.000219
 292	2.8954e+01	11.5954	-82.002301	0.000659	6.587389	2.231868	0.000264
 293	2.9054e+01	11.6211	-81.776222	0.000568	5.675289	1.922840	0.000227
 294	2.9154e+01	11.6708	-81.521882	0.000638	6.384700	2.163195	0.000256
 295	2.9253e+01	11.7141	-81.283691	0.000598	5.979323	2.025849	0.000239
 296	2.9352e+01	11.7366	-81.069723	0.000537	5.371256	1.819831	0.000215
 297	2.9452e+01	11.7799	-80.811346	0.000649	6.486045	2.197532	0.000260
 298	2.9552e+01	11.8232	-80.565081	0.000618	6.182012	2.094522	0.000248
 299	2.9651e+01	11.8617	-80.334964	0.000578	5.776634	1.957176	0.000231
 300	2.9750e+01	11.9114	-80.116959	0.000547	5.472600	1.854167	0.000219
 301	2.9850e+01	11.9515	-79.862619	0.000638	6.384700	2.163195	0.000256
 302	2.9950e+01	11.9804	-79.588094	0.000689	6.891423	2.334877	0.000276
 303	3.0049e+01	12.0269	-79.390274	0.000497	4.965878	1.682485	0.000199
 304	3.0148e+01	12.0606	-79.103638	0.000720	7.195456	2.437887	0.000288
 305	3.0248e+01	12.1104	-78.853335	0.000628	6.283356	2.128859	0.000252
 306	3.0348e+01	12.1376	-78.627256	0.000568	5.675289	1.922840	0.000227
 307	3.0447e+01	12.1841	-78.385027	0.000608	6.080667	2.060186	0.000243
 308	3.0547e+01	12.2275	-78.066094	0.000801	8.006212	2.712578	0.000321
 309	3.0646e+01	12.2708	-77.835977	0.000578	5.776634	1.957176	0.000231
 310	3.0745e+01	12.3029	-77.605860	0.000578	5.776634	1.957176	0.000231
 311	3.0845e+01	12.3349	-77.335372	0.000679	6.790078	2.300541	0.000272
 312	3.0945e+01	12.3831	-77.060847	0.000689	6.891423	2.334877	0.000276
 313	3.1044e+01	12.4232	-76.818619	0.000608	6.080667	2.060186	0.000243
 314	3.1143e+01	12.4617	-76.560242	0.000649	6.486045	2.197532	0.000260
 315	3.1243e+01	12.5002	-76.277643	0.000709	7.094112	2.403550	0.000284
 316	3.1343e+01	12.5435	-76.031377	0.000618	6.182012	2.094522	0.000248
 317	3.1442e+01	12.5788	-75.781075	0.000628	6.283356	2.128859	0.000252
 318	3.1541e+01	12.6205	-75.486364	0.000740	7.398145	2.506559	0.000296
 319	3.1641e+01	12.6686	-75.219913	0.000669	6.688734	2.266204	0.000268
 320	3.1741e+01	12.7023	-74.949425	0.000679	6.790078	2.300541	0.000272
 321	3.1840e+01	12.7376	-74.646640	0.000760	7.600834	2.575232	0.000304
 322	3.1939e+01	12.7745	-74.404412	0.000608	6.080667	2.060186	0.000243
 323	3.2039e+01	12.8162	-74.137961	0.000669	6.688734	2.266204	0.000268
 324	3.2139e+01	12.8627	-73.819027	0.000801	8.006212	2.712578	0.000321
 325	3.2238e+01	12.9044	-73.548539	0.000679	6.790078	2.300541	0.000272
 326	3.2337e+01	12.9397	-73.290162	0.000649	6.486045	2.197532	0.000260
 327	3.2437e+01	12.9718	-73.011600	0.000699	6.992767	2.369214	0.000280
 328	3.2536e+01	13.0248	-72.704778	0.000770	7.702178	2.609569	0.000308
 329	3.2636e+01	13.0552	-72.377770	0.000821	8.208901	2.781251	0.000329
 330	3.2736e+01	13.0970	-72.079021	0.000750	7.499489	2.540896	0.000300
 331	3.2835e+01	13.1371	-71.784311	0.000740	7.398145	2.506559	0.000296
 332	3.2934e+01	13.1691	-71.534008	0.000628	6.283356	2.128859	0.000252
 333	3.3034e+01	13.2157	-71.178740	0.000892	8.918312	3.021606	0.000357
 334	3.3133e+01	13.2574	-70.900178	0.000699	6.992767	2.369214	0.000280
 335	3.3233e+01	13.3007	-70.573170	0.000821	8.208901	2.781251	0.000329
 336	3.3333e+01	13.3328	-70.290570	0.000709	7.094112	2.403550	0.000284
 337	3.3432e+01	13.3793	-69.955488	0.000841	8.411589	2.849924	0.000337
 338	3.3532e+01	13.4114	-69.660777	0.000740	7.398145	2.506559	0.000296
 339	3.3631e+01	13.4563	-69.349918	0.000780	7.803523	2.643905	0.000312
 340	3.3730e+01	13.4948	-69.035021	0.000790	7.904867	2.678242	0.000316
 341	3.3830e+01	13.5381	-68.744347	0.000730	7.296801	2.472223	0.000292
 342	3.3929e+01	13.5734	-68.401191	0.000861	8.614278	2.918597	0.000345
 343	3.4029e+01	13.6215	-68.049960	0.000882	8.816967	2.987269	0.000353
 344	3.4129e+01	13.6520	-67.743138	0.000770	7.702178	2.609569	0.000308
 345	3.4228e+01	13.6873	-67.416130	0.000821	8.208901	2.781251	0.000329
 346	3.4328e+01	13.7322	-67.105270	0.000780	7.803523	2.643905	0.000312
 347	3.4427e+01	13.7755	-66.741928	0.000912	9.121001	3.090279	0.000365
 348	3.4526e+01	13.8221	-66.418957	0.000811	8.107556	2.746914	0.000325
 349	3.4626e+01	13.8606	-66.087912	0.000831	8.310245	2.815587	0.000333
 350	3.4725e+01	13.8943	-65.764941	0.000811	8.107556	2.746914	0.000325
 351	3.4825e+01	13.9263	-65.409673	0.000892	8.918312	3.021606	0.000357
 352	3.4925e+01	13.9681	-65.090740	0.000801	8.006212	2.712578	0.000321
 353	3.5024e+01	14.0098	-64.727397	0.000912	9.121001	3.090279	0.000365
 354	3.5123e+01	14.0547	-64.412501	0.000790	7.904867	2.678242	0.000316
 355	3.5223e+01	14.0964	-64.033010	0.000953	9.526378	3.227624	0.000381
 356	3.5322e+01	14.1333	-63.718113	0.000790	7.904867	2.678242	0.000316
 357	3.5422e+01	14.1782	-63.342660	0.000943	9.425034	3.193288	0.000377
 358	3.5522e+01	14.2071	-62.967206	0.000943	9.425034	3.193288	0.000377
 359	3.5621e+01	14.2456	-62.636161	0.000831	8.310245	2.815587	0.000333
 360	3.5721e+01	14.2953	-62.248596	0.000973	9.729067	3.296297	0.000390
 361	3.5820e+01	14.3354	-61.885254	0.000912	9.121001	3.090279	0.000365
 362	3.5919e+01	14.3723	-61.550171	0.000841	8.411589	2.849924	0.000337
 363	3.6019e+01	14.4060	-61.162606	0.000973	9.729067	3.296297	0.000390
 364	3.6118e+01	14.4557	-60.791190	0.000932	9.323690	3.158952	0.000373
 365	3.6218e+01	14.5007	-60.435922	0.000892	8.918312	3.021606	0.000357
 366	3.6318e+01	14.5311	-60.032208	0.001013	10.134445	3.433643	0.000406
 367	3.6417e+01	14.5777	-59.705200	0.000821	8.208901	2.781251	0.000329
 368	3.6517e+01	14.6097	-59.309561	0.000993	9.931756	3.364970	0.000398
 369	3.6616e+01	14.6595	-58.950256	0.000902	9.019656	3.055942	0.000361
 370	3.6715e+01	14.6835	-58.570765	0.000953	9.526378	3.227624	0.000381
 371	3.6815e+01	14.7365	-58.171089	0.001003	10.033101	3.399307	0.000402
 372	3.6914e+01	14.7798	-57.791598	0.000953	9.526378	3.227624	0.000381
 373	3.7014e+01	14.8167	-57.383847	0.001024	10.235790	3.467979	0.000410
 374	3.7114e+01	14.8488	-56.996282	0.000973	9.729067	3.296297	0.000390
 375	3.7213e+01	14.8905	-56.620829	0.000943	9.425034	3.193288	0.000377
 376	3.7313e+01	14.9322	-56.237301	0.000963	9.627723	3.261961	0.000385
 377	3.7412e+01	14.9755	-55.825513	0.001034	10.337134	3.502316	0.000414
 378	3.7511e+01	15.0076	-55.433911	0.000983	9.830412	3.330634	0.000394
 379	3.7611e+01	15.0493	-55.054420	0.000953	9.526378	3.227624	0.000381
 380	3.7711e+01	15.0830	-54.626484	0.001074	10.742512	3.639662	0.000430
 381	3.7810e+01	15.1327	-54.218733	0.001024	10.235790	3.467979	0.000410
 382	3.7910e+01	15.1728	-53.847316	0.000932	9.323690	3.158952	0.000373
 383	3.8009e+01	15.2097	-53.451677	0.000993	9.931756	3.364970	0.000398
 384	3.8108e+01	15.2579	-52.975295	0.001196	11.958645	4.051699	0.000479
 385	3.8208e+01	15.2932	-52.599842	0.000943	9.425034	3.193288	0.000377
 386	3.8307e+01	15.3204	-52.159794	0.001105	11.046545	3.742671	0.000442
 387	3.8407e+01	15.3750	-51.756080	0.001013	10.134445	3.433643	0.000406
 388	3.8507e+01	15.4151	-51.352367	0.001013	10.134445	3.433643	0.000406
 389	3.8606e+01	15.4439	-50.932504	0.001054	10.539823	3.570989	0.000422
 390	3.8706e+01	15.4889	-50.504568	0.001074	10.742512	3.639662	0.000430
 391	3.8805e+01	15.5418	-50.112966	0.000983	9.830412	3.330634	0.000394
 392	3.8904e+01	15.5691	-49.652732	0.001155	11.553267	3.914353	0.000463
 393	3.9004e+01	15.6172	-49.244982	0.001024	10.235790	3.467979	0.000410
 394	3.9103e+01	15.6477	-48.780711	0.001165	11.654612	3.948689	0.000467
 395	3.9203e+01	15.6910	-48.368923	0.001034	10.337134	3.502316	0.000414
 396	3.9303e+01	15.7343	-47.916764	0.001135	11.350579	3.845680	0.000454
 397	3.9402e+01	15.7744	-47.460568	0.001145	11.451923	3.880017	0.000458
 398	3.9502e+01	15.8129	-47.044743	0.001044	10.438479	3.536652	0.000418
 399	3.9601e+01	15.8402	-46.649103	0.000993	9.931756	3.364970	0.000398
 400	3.9700e+01	15.8835	-46.160610	0.001226	12.262679	4.154708	0.000491
 401	3.9800e+01	15.9332	-45.724599	0.001095	10.945201	3.708334	0.000438
 402	3.9900e+01	15.9669	-45.248217	0.001196	11.958645	4.051699	0.000479
 403	3.9999e+01	16.0006	-44.804132	0.001115	11.147890	3.777007	0.000446
 404	4.0099e+01	16.0503	-44.364085	0.001105	11.046545	3.742671	0.000442
 405	4.0198e+01	16.0872	-43.879628	0.001216	12.161334	4.120372	0.000487
 406	4.0297e+01	16.1209	-43.431506	0.001125	11.249234	3.811344	0.000450
 407	4.0397e+01	16.1642	-42.987421	0.001115	11.147890	3.777007	0.000446
 408	4.0496e+01	16.2011	-42.502965	0.001216	12.161334	4.120372	0.000487
 409	4.0596e+01	16.2445	-42.042732	0.001155	11.553267	3.914353	0.000463
 410	4.0696e+01	16.2782	-41.618832	0.001064	10.641167	3.605325	0.000426
 411	4.0795e+01	16.3263	-41.106116	0.001287	12.870745	4.360727	0.000515
 412	4.0895e+01	16.3616	-40.637808	0.001176	11.755956	3.983026	0.000471
 413	4.0994e+01	16.4097	-40.173538	0.001165	11.654612	3.948689	0.000467
 414	4.1093e+01	16.4450	-39.664859	0.001277	12.769401	4.326390	0.000511
 415	4.1193e+01	16.4739	-39.216737	0.001125	11.249234	3.811344	0.000450
 416	4.1292e+01	16.5236	-38.756503	0.001155	11.553267	3.914353	0.000463
 417	4.1392e+01	16.5637	-38.239750	0.001297	12.972090	4.395063	0.000519
 418	4.1492e+01	16.6054	-37.722996	0.001297	12.972090	4.395063	0.000519
 419	4.1591e+01	16.6455	-37.262763	0.001155	11.553267	3.914353	0.000463
 420	4.1691e+01	16.6824	-36.778307	0.001216	12.161334	4.120372	0.000487
 421	4.1790e+01	16.7241	-36.257516	0.001307	13.073434	4.429399	0.000523
 422	4.1889e+01	16.7642	-35.732688	0.001317	13.174779	4.463736	0.000527
 423	4.1989e+01	16.8059	-35.232084	0.001257	12.566712	4.257717	0.000503
 424	4.2089e+01	16.8444	-34.723404	0.001277	12.769401	4.326390	0.000511
 425	4.2188e+01	16.8733	-34.198577	0.001317	13.174779	4.463736	0.000527
 426	4.2288e+01	16.9247	-33.702009	0.001247	12.465368	4.223381	0.000499
 427	4.2387e+01	16.9728	-33.173144	0.001328	13.276123	4.498072	0.000532
 428	4.2486e+01	16.9985	-32.672540	0.001257	12.566712	4.257717	0.000503
 429	4.2586e+01	17.0466	-32.139638	0.001338	13.377468	4.532409	0.000536
 430	4.2685e+01	17.0851	-31.594624	0.001368	13.681501	4.635418	0.000548
 431	4.2785e+01	17.1220	-31.057685	0.001348	13.478812	4.566745	0.000540
 432	4.2885e+01	17.1605	-30.500561	0.001399	13.985534	4.738427	0.000560
 433	4.2984e+01	17.1894	-29.995919	0.001267	12.668056	4.292054	0.000507
 434	4.3084e+01	17.2407	-29.406497	0.001480	14.796290	5.013119	0.000592
 435	4.3183e+01	17.2968	-28.841298	0.001419	14.188223	4.807100	0.000568
 436	4.3282e+01	17.3225	-28.320507	0.001307	13.073434	4.429399	0.000523
 437	4.3382e+01	17.3562	-27.735123	0.001469	14.694945	4.978782	0.000588
 438	4.3481e+01	17.3963	-27.161849	0.001439	14.390912	4.875773	0.000576
 439	4.3581e+01	17.4492	-26.572427	0.001480	14.796290	5.013119	0.000592
 440	4.3681e+01	17.4717	-26.011266	0.001409	14.086879	4.772764	0.000564
 441	4.3780e+01	17.5246	-25.429918	0.001459	14.593601	4.944446	0.000584
 442	4.3880e+01	17.5663	-24.844533	0.001469	14.694945	4.978782	0.000588
 443	4.3979e+01	17.5888	-24.275297	0.001429	14.289568	4.841437	0.000572
 444	4.4078e+01	17.6401	-23.706061	0.001429	14.289568	4.841437	0.000572
 445	4.4178e+01	17.6851	-23.104528	0.001510	15.100323	5.116128	0.000605
 446	4.4278e+01	17.7188	-22.502995	0.001510	15.100323	5.116128	0.000605
 447	4.4377e+01	17.7605	-21.970093	0.001338	13.377468	4.532409	0.000536
 448	4.4477e+01	17.7974	-21.320114	0.001632	16.316457	5.528165	0.000653
 449	4.4576e+01	17.8359	-20.730692	0.001480	14.796290	5.013119	0.000592
 450	4.4675e+01	17.8792	-20.133196	0.001500	14.998979	5.081792	0.000600
 451	4.4775e+01	17.9193	-19.515514	0.001551	15.505701	5.253474	0.000621
 452	4.4874e+01	17.9594	-18.865535	0.001632	16.316457	5.528165	0.000653
 453	4.4974e+01	17.9931	-18.251891	0.001540	15.404357	5.219137	0.000617
 454	4.5074e+01	18.0396	-17.589800	0.001662	16.620490	5.631174	0.000665
 455	4.5173e+01	18.0861	-16.972119	0.001551	15.505701	5.253474	0.000621
 456	4.5273e+01	18.1214	-16.322140	0.001632	16.316457	5.528165	0.000653
 457	4.5372e+01	18.1615	-15.676198	0.001622	16.215112	5.493829	0.000649
 458	4.5471e+01	18.1904	-15.018145	0.001652	16.519146	5.596838	0.000661
 459	4.5571e+01	18.2369	-14.360092	0.001652	16.519146	5.596838	0.000661
 460	4.5670e+01	18.2802	-13.689927	0.001682	16.823179	5.699847	0.000674
 461	4.5770e+01	18.3268	-13.023800	0.001672	16.721835	5.665511	0.000669
 462	4.5870e+01	18.3572	-12.353635	0.001682	16.823179	5.699847	0.000674
 463	4.5969e+01	18.4038	-11.659248	0.001743	17.431246	5.905866	0.000698
 464	4.6069e+01	18.4391	-11.005232	0.001642	16.417801	5.562502	0.000657
 465	4.6168e+01	18.4743	-10.355253	0.001632	16.316457	5.528165	0.000653
 466	4.6267e+01	18.5193	-9.648754	0.001774	17.735279	6.008875	0.000710
 467	4.6367e+01	18.5546	-8.966478	0.001713	17.127212	5.802857	0.000686
 468	4.6467e+01	18.5834	-8.276128	0.001733	17.329901	5.871529	0.000694
 469	4.6566e+01	18.6364	-7.573667	0.001763	17.633935	5.974539	0.000706
 470	4.6666e+01	18.6781	-6.927725	0.001622	16.215112	5.493829	0.000649
 471	4.6765e+01	18.7182	-6.184892	0.001865	18.647379	6.317903	0.000747
 472	4.6864e+01	18.7615	-5.470319	0.001794	17.937968	6.077548	0.000718
 473	4.6964e+01	18.7984	-4.796117	0.001692	16.924523	5.734184	0.000678
 474	4.7063e+01	18.8337	-4.061359	0.001844	18.444690	6.249230	0.000738
 475	4.7163e+01	18.8802	-3.342748	0.001804	18.039312	6.111884	0.000722
 476	4.7263e+01	18.9123	-2.672584	0.001682	16.823179	5.699847	0.000674
 477	4.7362e+01	18.9588	-1.913602	0.001905	19.052757	6.455249	0.000763
 478	4.7462e+01	18.9989	-1.182881	0.001834	18.343346	6.214894	0.000734
 479	4.7561e+01	19.0374	-0.444085	0.001855	18.546035	6.283567	0.000743
 480	4.7660e+01	19.0759	0.270488	0.001794	17.937968	6.077548	0.000718
 481	4.7760e+01	19.1144	0.997173	0.001824	18.242001	6.180557	0.000730
 482	4.7859e+01	19.1513	1.715783	0.001804	18.039312	6.111884	0.000722
 483	4.7959e+01	19.1914	2.442467	0.001824	18.242001	6.180557	0.000730
 484	4.8059e+01	19.2348	3.213560	0.001936	19.356790	6.558258	0.000775
 485	4.8158e+01	19.2861	3.972542	0.001905	19.052757	6.455249	0.000763
 486	4.8258e+01	19.3214	4.691152	0.001804	18.039312	6.111884	0.000722
 487	4.8357e+01	19.3503	5.458208	0.001926	19.255446	6.523922	0.000771
 488	4.8456e+01	19.3904	6.205078	0.001875	18.748724	6.352240	0.000751
 489	4.8556e+01	19.4337	6.988282	0.001966	19.660824	6.661267	0.000787
 490	4.8656e+01	19.4706	7.743226	0.001895	18.951412	6.420912	0.000759
 491	4.8755e+01	19.5203	8.522394	0.001956	19.559479	6.626931	0.000783
 492	4.8855e+01	19.5476	9.313672	0.001986	19.863513	6.729940	0.000795
 493	4.8954e+01	19.5925	10.149359	0.002098	20.978302	7.107641	0.000840
 494	4.9053e+01	19.6230	10.932564	0.001966	19.660824	6.661267	0.000787
 495	4.9153e+01	19.6711	11.731916	0.002007	20.066201	6.798613	0.000803
 496	4.9252e+01	19.7160	12.535306	0.002017	20.167546	6.832950	0.000807
 497	4.9352e+01	19.7497	13.322548	0.001976	19.762168	6.695604	0.000791
 498	4.9452e+01	19.7818	14.146124	0.002067	20.674268	7.004632	0.000828
 499	4.9551e+01	19.8363	14.977774	0.002088	20.876957	7.073305	0.000836
 500	4.9651e+01	19.8636	15.773089	0.001996	19.964857	6.764277	0.000799
 501	4.9750e+01	19.9053	16.653185	0.002209	22.093090	7.485342	0.000885
 502	4.9849e+01	19.9518	17.517132	0.002169	21.687713	7.347996	0.000868
 503	4.9949e+01	19.9887	18.348782	0.002088	20.876957	7.073305	0.000836
 504	5.0048e+01	19.9518	19.071429	-0.001814	-18.140657	-6.146221	0.000726
 505	5.0148e+01	19.9166	19.737557	-0.001672	-16.721835	-5.665511	0.000669
 506	5.0248e+01	19.8684	20.419833	-0.001713	-17.127212	-5.802857	0.000686
 507	5.0347e+01	19.8267	21.134406	-0.001794	-17.937968	-6.077548	0.000718
 508	5.0447e+01	19.7898	21.812644	-0.001703	-17.025868	-5.768520	0.000682
 509	5.0546e+01	19.7545	22.486846	-0.001692	-16.924523	-5.734184	0.000678
 510	5.0645e+01	19.7080	23.161048	-0.001692	-16.924523	-5.734184	0.000678
 511	5.0745e+01	19.6743	23.806989	-0.001622	-16.215112	-5.493829	0.000649
 512	5.0844e+01	19.6342	24.473117	-0.001672	-16.721835	-5.665511	0.000669
 513	5.0944e+01	19.5845	25.090799	-0.001551	-15.505701	-5.253474	0.000621
 514	5.1044e+01	19.5476	25.773075	-0.001713	-17.127212	-5.802857	0.000686
 515	5.1143e+01	19.5059	26.443239	-0.001682	-16.823179	-5.699847	0.000674
 516	5.1242e+01	19.4658	27.060921	-0.001551	-15.505701	-5.253474	0.000621
 517	5.1342e+01	19.4417	27.714937	-0.001642	-16.417801	-5.562502	0.000657
 518	5.1441e+01	19.3952	28.393176	-0.001703	-17.025868	-5.768520	0.000682
 519	5.1541e+01	19.3567	28.974523	-0.001459	-14.593601	-4.944446	0.000584
 520	5.1641e+01	19.3134	29.632576	-0.001652	-16.519146	-5.596838	0.000661
 521	5.1740e+01	19.2813	30.278518	-0.001622	-16.215112	-5.493829	0.000649
 522	5.1840e+01	19.2412	30.940608	-0.001662	-16.620490	-5.631174	0.000665
 523	5.1939e+01	19.1834	31.570401	-0.001581	-15.809734	-5.356483	0.000633
 524	5.2038e+01	19.1561	32.220380	-0.001632	-16.316457	-5.528165	0.000653
 525	5.2138e+01	19.1160	32.874396	-0.001642	-16.417801	-5.562502	0.000657
 526	5.2237e+01	19.0791	33.508227	-0.001591	-15.911079	-5.390819	0.000637
 527	5.2337e+01	19.0374	34.158205	-0.001632	-16.316457	-5.528165	0.000653
 528	5.2437e+01	18.9989	34.787999	-0.001581	-15.809734	-5.356483	0.000633
 529	5.2536e+01	18.9556	35.446052	-0.001652	-16.519146	-5.596838	0.000661
 530	5.2636e+01	18.9251	36.047585	-0.001510	-15.100323	-5.116128	0.000605
 531	5.2735e+01	18.8722	36.693527	-0.001622	-16.215112	-5.493829	0.000649
 532	5.2834e+01	18.8385	37.347543	-0.001642	-16.417801	-5.562502	0.000657
 533	5.2934e+01	18.7984	38.001559	-0.001642	-16.417801	-5.562502	0.000657
 534	5.3033e+01	18.7647	38.590981	-0.001480	-14.796290	-5.013119	0.000592
 535	5.3133e+01	18.7166	39.216737	-0.001571	-15.708390	-5.322147	0.000629
 536	5.3233e+01	18.6845	39.850567	-0.001591	-15.911079	-5.390819	0.000637
 537	5.3332e+01	18.6300	40.488434	-0.001601	-16.012423	-5.425156	0.000641
 538	5.3431e+01	18.5931	41.089968	-0.001510	-15.100323	-5.116128	0.000605
 539	5.3531e+01	18.5610	41.695538	-0.001520	-15.201668	-5.150464	0.000609
 540	5.3630e+01	18.5177	42.305145	-0.001530	-15.303012	-5.184801	0.000613
 541	5.3730e+01	18.4824	42.963199	-0.001652	-16.519146	-5.596838	0.000661
 542	5.3830e+01	18.4439	43.572806	-0.001530	-15.303012	-5.184801	0.000613
 543	5.3929e+01	18.3909	44.202599	-0.001581	-15.809734	-5.356483	0.000633
 544	5.4029e+01	18.3476	44.832392	-0.001581	-15.809734	-5.356483	0.000633
 545	5.4128e+01	18.3219	45.437963	-0.001520	-15.201668	-5.150464	0.000609
 546	5.4227e+01	18.2818	46.043533	-0.001520	-15.201668	-5.150464	0.000609
 547	5.4327e+01	18.2353	46.624881	-0.001459	-14.593601	-4.944446	0.000584
 548	5.4426e+01	18.2048	47.270822	-0.001622	-16.215112	-5.493829	0.000649
 549	5.4526e+01	18.1583	47.896578	-0.001571	-15.708390	-5.322147	0.000629
 550	5.4626e+01	18.1198	48.433517	-0.001348	-13.478812	-4.566745	0.000540
 551	5.4725e+01	18.0861	49.039088	-0.001520	-15.201668	-5.150464	0.000609
 552	5.4825e+01	18.0428	49.640621	-0.001510	-15.100323	-5.116128	0.000605
 553	5.4924e+01	17.9931	50.209857	-0.001429	-14.289568	-4.841437	0.000572
 554	5.5023e+01	17.9546	50.795242	-0.001469	-14.694945	-4.978782	0.000588
 555	5.5123e+01	17.9193	51.368515	-0.001439	-14.390912	-4.875773	0.000576
 556	5.5222e+01	17.8856	51.941788	-0.001439	-14.390912	-4.875773	0.000576
 557	5.5322e+01	17.8423	52.559470	-0.001551	-15.505701	-5.253474	0.000621
 558	5.5422e+01	17.8070	53.100446	-0.001358	-13.580157	-4.601082	0.000544
 559	5.5521e+01	17.7508	53.657571	-0.001399	-13.985534	-4.738427	0.000560
 560	5.5620e+01	17.7155	54.190473	-0.001338	-13.377468	-4.532409	0.000536
 561	5.5720e+01	17.6851	54.787969	-0.001500	-14.998979	-5.081792	0.000600
 562	5.5819e+01	17.6337	55.332982	-0.001368	-13.681501	-4.635418	0.000548
 563	5.5919e+01	17.6000	55.865884	-0.001338	-13.377468	-4.532409	0.000536
 564	5.6019e+01	17.5535	56.418972	-0.001388	-13.884190	-4.704091	0.000556
 565	5.6118e+01	17.5278	57.016468	-0.001500	-14.998979	-5.081792	0.000600
 566	5.6218e+01	17.4813	57.557444	-0.001358	-13.580157	-4.601082	0.000544
 567	5.6317e+01	17.4380	58.082272	-0.001317	-13.174779	-4.463736	0.000527
 568	5.6416e+01	17.3995	58.639397	-0.001399	-13.985534	-4.738427	0.000560
 569	5.6516e+01	17.3658	59.160187	-0.001307	-13.073434	-4.429399	0.000523
 570	5.6615e+01	17.3177	59.689052	-0.001328	-13.276123	-4.498072	0.000532
 571	5.6715e+01	17.2760	60.246177	-0.001399	-13.985534	-4.738427	0.000560
 572	5.6815e+01	17.2407	60.775041	-0.001328	-13.276123	-4.498072	0.000532
 573	5.6914e+01	17.1990	61.303906	-0.001328	-13.276123	-4.498072	0.000532
 574	5.7014e+01	17.1589	61.861031	-0.001399	-13.985534	-4.738427	0.000560
 575	5.7113e+01	17.1124	62.397970	-0.001348	-13.478812	-4.566745	0.000540
 576	5.7212e+01	17.0819	62.930872	-0.001338	-13.377468	-4.532409	0.000536
 577	5.7312e+01	17.0402	63.479922	-0.001378	-13.782845	-4.669754	0.000552
 578	5.7411e+01	16.9968	63.976490	-0.001247	-12.465368	-4.223381	0.000499
 579	5.7511e+01	16.9648	64.541689	-0.001419	-14.188223	-4.807100	0.000568
 580	5.7611e+01	16.9182	65.058442	-0.001297	-12.972090	-4.395063	0.000519
 581	5.7710e+01	16.8894	65.559047	-0.001257	-12.566712	-4.257717	0.000503
 582	5.7809e+01	16.8428	66.087912	-0.001328	-13.276123	-4.498072	0.000532
 583	5.7909e+01	16.8043	66.616777	-0.001328	-13.276123	-4.498072	0.000532
 584	5.8008e+01	16.7706	67.149679	-0.001338	-13.377468	-4.532409	0.000536
 585	5.8108e+01	16.7225	67.617986	-0.001176	-11.755956	-3.983026	0.000471
 586	5.8208e+01	16.6856	68.154926	-0.001348	-13.478812	-4.566745	0.000540
 587	5.8307e+01	16.6423	68.623233	-0.001176	-11.755956	-3.983026	0.000471
 588	5.8407e+01	16.6054	69.139987	-0.001297	-12.972090	-4.395063	0.000519
 589	5.8506e+01	16.5669	69.600220	-0.001155	-11.553267	-3.914353	0.000463
 590	5.8605e+01	16.5220	70.096788	-0.001247	-12.465368	-4.223381	0.000499
 591	5.8705e+01	16.4819	70.581244	-0.001216	-12.161334	-4.120372	0.000487
 592	5.8804e+01	16.4466	71.097997	-0.001297	-12.972090	-4.395063	0.000519
 593	5.8904e+01	16.3969	71.542082	-0.001115	-11.147890	-3.777007	0.000446
 594	5.9004e+01	16.3696	72.074984	-0.001338	-13.377468	-4.532409	0.000536
 595	5.9103e+01	16.3231	72.543292	-0.001176	-11.755956	-3.983026	0.000471
 596	5.9203e+01	16.2830	73.011600	-0.001176	-11.755956	-3.983026	0.000471
 597	5.9302e+01	16.2493	73.512205	-0.001257	-12.566712	-4.257717	0.000503
 598	5.9401e+01	16.2140	73.964364	-0.001135	-11.350579	-3.845680	0.000454
 599	5.9501e+01	16.1610	74.432672	-0.001176	-11.755956	-3.983026	0.000471
 600	5.9600e+01	16.1290	74.945388	-0.001287	-12.870745	-4.360727	0.000515
 601	5.9700e+01	16.0969	75.429844	-0.001216	-12.161334	-4.120372	0.000487
 602	5.9800e+01	16.0487	75.926412	-0.001247	-12.465368	-4.223381	0.000499
 603	5.9899e+01	16.0054	76.406831	-0.001206	-12.059990	-4.086035	0.000483
 604	5.9998e+01	15.9637	76.883213	-0.001196	-11.958645	-4.051699	0.000479
 605	6.0098e+01	15.9236	77.371706	-0.001226	-12.262679	-4.154708	0.000491
 606	6.0197e+01	15.8755	77.872311	-0.001257	-12.566712	-4.257717	0.000503
 607	6.0297e+01	15.8434	78.332545	-0.001155	-11.553267	-3.914353	0.000463
 608	6.0397e+01	15.8033	78.768555	-0.001095	-10.945201	-3.708334	0.000438
 609	6.0496e+01	15.7696	79.253012	-0.001216	-12.161334	-4.120372	0.000487
 610	6.0596e+01	15.7311	79.725357	-0.001186	-11.857301	-4.017362	0.000475
 611	6.0695e+01	15.6974	80.165404	-0.001105	-11.046545	-3.742671	0.000442
 612	6.0794e+01	15.6381	80.637749	-0.001186	-11.857301	-4.017362	0.000475
 613	6.0894e+01	15.6108	81.089908	-0.001135	-11.350579	-3.845680	0.000454
 614	6.0993e+01	15.5707	81.517845	-0.001074	-10.742512	-3.639662	0.000430
 615	6.1093e+01	15.5258	81.945781	-0.001074	-10.742512	-3.639662	0.000430
 616	6.1193e+01	15.4921	82.397940	-0.001135	-11.350579	-3.845680	0.000454
 617	6.1292e+01	15.4439	82.846062	-0.001125	-11.249234	-3.811344	0.000450
 618	6.1392e+01	15.4087	83.294185	-0.001125	-11.249234	-3.811344	0.000450
 619	6.1491e+01	15.3686	83.738269	-0.001115	-11.147890	-3.777007	0.000446
 620	6.1590e+01	15.3365	84.178317	-0.001105	-11.046545	-3.742671	0.000442
 621	6.1690e+01	15.2803	84.590105	-0.001034	-10.337134	-3.502316	0.000414
 622	6.1789e+01	15.2514	85.070524	-0.001206	-12.059990	-4.086035	0.000483
 623	6.1889e+01	15.2113	85.486349	-0.001044	-10.438479	-3.536652	0.000418
 624	6.1989e+01	15.1680	85.942546	-0.001145	-11.451923	-3.880017	0.000458
 625	6.2088e+01	15.1263	86.358371	-0.001044	-10.438479	-3.536652	0.000418
 626	6.2188e+01	15.0878	86.762084	-0.001013	-10.134445	-3.433643	0.000406
 627	6.2287e+01	15.0445	87.230392	-0.001176	-11.755956	-3.983026	0.000471
 628	6.2386e+01	15.0220	87.613920	-0.000963	-9.627723	-3.261961	0.000385
 629	6.2486e+01	14.9691	88.058005	-0.001115	-11.147890	-3.777007	0.000446
 630	6.2586e+01	14.9386	88.465755	-0.001024	-10.235790	-3.467979	0.000410
 631	6.2685e+01	14.8937	88.901766	-0.001095	-10.945201	-3.708334	0.000438
 632	6.2785e+01	14.8536	89.289331	-0.000973	-9.729067	-3.296297	0.000390
 633	6.2884e+01	14.8055	89.737453	-0.001125	-11.249234	-3.811344	0.000450
 634	6.2983e+01	14.7734	90.104833	-0.000922	-9.222345	-3.124615	0.000369
 635	6.3083e+01	14.7301	90.532769	-0.001074	-10.742512	-3.639662	0.000430
 636	6.3182e+01	14.6916	90.952631	-0.001054	-10.539823	-3.570989	0.000422
 637	6.3282e+01	14.6482	91.356345	-0.001013	-10.134445	-3.433643	0.000406
 638	6.3382e+01	14.6114	91.739873	-0.000963	-9.627723	-3.261961	0.000385
 639	6.3481e+01	14.5664	92.151660	-0.001034	-10.337134	-3.502316	0.000414
 640	6.3581e+01	14.5360	92.547300	-0.000993	-9.931756	-3.364970	0.000398
 641	6.3680e+01	14.4991	92.910642	-0.000912	-9.121001	-3.090279	0.000365
 642	6.3779e+01	14.4509	93.302244	-0.000983	-9.830412	-3.330634	0.000394
 643	6.3879e+01	14.4156	93.661549	-0.000902	-9.019656	-3.055942	0.000361
 644	6.3978e+01	14.3659	94.057188	-0.000993	-9.931756	-3.364970	0.000398
 645	6.4078e+01	14.3434	94.424568	-0.000922	-9.222345	-3.124615	0.000369
 646	6.4177e+01	14.2905	94.759650	-0.000841	-8.411589	-2.849924	0.000337
 647	6.4277e+01	14.2504	95.106844	-0.000872	-8.715623	-2.952933	0.000349
 648	6.4376e+01	14.2135	95.458075	-0.000882	-8.816967	-2.987269	0.000353
 649	6.4476e+01	14.1734	95.813342	-0.000892	-8.918312	-3.021606	0.000357
 650	6.4576e+01	14.1365	96.144388	-0.000831	-8.310245	-2.815587	0.000333
 651	6.4675e+01	14.0916	96.527915	-0.000963	-9.627723	-3.261961	0.000385
 652	6.4775e+01	14.0563	96.871072	-0.000861	-8.614278	-2.918597	0.000345
 653	6.4874e+01	14.0130	97.157709	-0.000720	-7.195456	-2.437887	0.000288
 654	6.4974e+01	13.9841	97.541237	-0.000963	-9.627723	-3.261961	0.000385
 655	6.5073e+01	13.9263	97.844022	-0.000760	-7.600834	-2.575232	0.000304
 656	6.5172e+01	13.9007	98.179104	-0.000841	-8.411589	-2.849924	0.000337
 657	6.5272e+01	13.8477	98.554558	-0.000943	-9.425034	-3.193288	0.000377
 658	6.5371e+01	13.8173	98.857343	-0.000760	-7.600834	-2.575232	0.000304
 659	6.5471e+01	13.7723	99.168202	-0.000780	-7.803523	-2.643905	0.000312
 660	6.5570e+01	13.7370	99.454839	-0.000720	-7.195456	-2.437887	0.000288
 661	6.5670e+01	13.6873	99.757624	-0.000760	-7.600834	-2.575232	0.000304
 662	6.5769e+01	13.6520	100.092706	-0.000841	-8.411589	-2.849924	0.000337
 663	6.5869e+01	13.6119	100.399529	-0.000770	-7.702178	-2.609569	0.000308
 664	6.5969e+01	13.5686	100.726537	-0.000821	-8.208901	-2.781251	0.000329
 665	6.6068e+01	13.5301	101.053545	-0.000821	-8.208901	-2.781251	0.000329
 666	6.6168e+01	13.4916	101.368441	-0.000790	-7.904867	-2.678242	0.000316
 667	6.6267e+01	13.4547	101.630855	-0.000659	-6.587389	-2.231868	0.000264
 668	6.6367e+01	13.4114	101.969974	-0.000851	-8.512934	-2.884260	0.000341
 669	6.6466e+01	13.3713	102.264685	-0.000740	-7.398145	-2.506559	0.000296
 670	6.6566e+01	13.3312	102.615916	-0.000882	-8.816967	-2.987269	0.000353
 671	6.6665e+01	13.3023	102.906590	-0.000730	-7.296801	-2.472223	0.000292
 672	6.6764e+01	13.2670	103.213412	-0.000770	-7.702178	-2.609569	0.000308
 673	6.6864e+01	13.2125	103.544457	-0.000831	-8.310245	-2.815587	0.000333
 674	6.6963e+01	13.1788	103.798797	-0.000638	-6.384700	-2.163195	0.000256
 675	6.7063e+01	13.1387	104.150028	-0.000882	-8.816967	-2.987269	0.000353
 676	6.7162e+01	13.0921	104.408404	-0.000649	-6.486045	-2.197532	0.000260
 677	6.7262e+01	13.0552	104.662744	-0.000638	-6.384700	-2.163195	0.000256
 678	6.7362e+01	13.0151	104.953418	-0.000730	-7.296801	-2.472223	0.000292
 679	6.7461e+01	12.9782	105.223906	-0.000679	-6.790078	-2.300541	0.000272
 680	6.7561e+01	12.9365	105.526691	-0.000760	-7.600834	-2.575232	0.000304
 681	6.7660e+01	12.9061	105.813328	-0.000720	-7.195456	-2.437887	0.000288
 682	6.7760e+01	12.8643	106.087853	-0.000689	-6.891423	-2.334877	0.000276
 683	6.7859e+01	12.8162	106.354304	-0.000669	-6.688734	-2.266204	0.000268
 684	6.7959e+01	12.7809	106.636903	-0.000709	-7.094112	-2.403550	0.000284
 685	6.8058e+01	12.7408	106.939689	-0.000760	-7.600834	-2.575232	0.000304
 686	6.8157e+01	12.6991	107.161731	-0.000557	-5.573945	-1.888504	0.000223
 687	6.8257e+01	12.6606	107.444331	-0.000709	-7.094112	-2.403550	0.000284
 688	6.8356e+01	12.6109	107.694633	-0.000628	-6.283356	-2.128859	0.000252
 689	6.8456e+01	12.5740	107.993381	-0.000750	-7.499489	-2.540896	0.000300
 690	6.8555e+01	12.5467	108.251758	-0.000649	-6.486045	-2.197532	0.000260
 691	6.8655e+01	12.5114	108.526283	-0.000689	-6.891423	-2.334877	0.000276
 692	6.8754e+01	12.4681	108.768511	-0.000608	-6.080667	-2.060186	0.000243
 693	6.8854e+01	12.4264	109.026888	-0.000649	-6.486045	-2.197532	0.000260
 694	6.8954e+01	12.3863	109.248930	-0.000557	-5.573945	-1.888504	0.000223
 695	6.9053e+01	12.3349	109.523455	-0.000689	-6.891423	-2.334877	0.000276
 696	6.9153e+01	12.3077	109.793944	-0.000679	-6.790078	-2.300541	0.000272
 697	6.9252e+01	12.2644	110.040209	-0.000618	-6.182012	-2.094522	0.000248
 698	6.9352e+01	12.2226	110.322808	-0.000709	-7.094112	-2.403550	0.000284
 699	6.9451e+01	12.1858	110.544851	-0.000557	-5.573945	-1.888504	0.000223
 700	6.9550e+01	12.1456	110.787079	-0.000608	-6.080667	-2.060186	0.000243
 701	6.9650e+01	12.0975	111.049493	-0.000659	-6.587389	-2.231868	0.000264
 702	6.9749e+01	12.0590	111.223090	-0.000436	-4.357811	-1.476466	0.000174
 703	6.9849e+01	12.0093	111.489541	-0.000669	-6.688734	-2.266204	0.000268
 704	6.9948e+01	11.9756	111.723694	-0.000588	-5.877978	-1.991513	0.000235
 705	7.0048e+01	11.9435	111.957848	-0.000588	-5.877978	-1.991513	0.000235
 706	7.0147e+01	11.9018	112.200076	-0.000608	-6.080667	-2.060186	0.000243
 707	7.0247e+01	11.8649	112.426156	-0.000568	-5.675289	-1.922840	0.000227
 708	7.0347e+01	11.8312	112.648198	-0.000557	-5.573945	-1.888504	0.000223
 709	7.0446e+01	11.7783	112.833907	-0.000466	-4.661845	-1.579476	0.000187
 710	7.0546e+01	11.7462	113.088246	-0.000638	-6.384700	-2.163195	0.000256
 711	7.0645e+01	11.7093	113.306252	-0.000547	-5.472600	-1.854167	0.000219
 712	7.0745e+01	11.6612	113.500034	-0.000486	-4.864534	-1.648149	0.000195
 713	7.0844e+01	11.6227	113.742262	-0.000608	-6.080667	-2.060186	0.000243
 714	7.0944e+01	11.5922	113.919896	-0.000446	-4.459156	-1.510803	0.000179
 715	7.1043e+01	11.5537	114.141939	-0.000557	-5.573945	-1.888504	0.000223
 716	7.1142e+01	11.5040	114.388204	-0.000618	-6.182012	-2.094522	0.000248
 717	7.1242e+01	11.4622	114.594098	-0.000517	-5.168567	-1.751158	0.000207
 718	7.1341e+01	11.4286	114.779806	-0.000466	-4.661845	-1.579476	0.000187
 719	7.1441e+01	11.3836	114.973589	-0.000486	-4.864534	-1.648149	0.000195
 720	7.1540e+01	11.3419	115.175445	-0.000507	-5.067223	-1.716821	0.000203
 721	7.1640e+01	11.3066	115.405562	-0.000578	-5.776634	-1.957176	0.000231
 722	7.1740e+01	11.2665	115.599345	-0.000486	-4.864534	-1.648149	0.000195
 723	7.1839e+01	11.2232	115.776979	-0.000446	-4.459156	-1.510803	0.000179
 724	7.1939e+01	11.1911	116.031318	-0.000638	-6.384700	-2.163195	0.000256
 725	7.2038e+01	11.1462	116.180692	-0.000375	-3.749745	-1.270448	0.000150
 726	7.2138e+01	11.1061	116.378512	-0.000497	-4.965878	-1.682485	0.000199
 727	7.2237e+01	11.0660	116.580369	-0.000507	-5.067223	-1.716821	0.000203
 728	7.2337e+01	11.0371	116.737817	-0.000395	-3.952434	-1.339121	0.000158
 729	7.2436e+01	10.9906	116.923525	-0.000466	-4.661845	-1.579476	0.000187
 730	7.2535e+01	10.9473	117.109233	-0.000466	-4.661845	-1.579476	0.000187
 731	7.2635e+01	10.9056	117.282830	-0.000436	-4.357811	-1.476466	0.000174
 732	7.2734e+01	10.8671	117.444316	-0.000405	-4.053778	-1.373457	0.000162
 733	7.2834e+01	10.8189	117.634061	-0.000476	-4.763189	-1.613812	0.000191
 734	7.2933e+01	10.7949	117.839955	-0.000517	-5.168567	-1.751158	0.000207
 735	7.3033e+01	10.7468	117.969143	-0.000324	-3.243022	-1.098766	0.000130
 736	7.3132e+01	10.7083	118.166963	-0.000497	-4.965878	-1.682485	0.000199
 737	7.3232e+01	10.6617	118.352671	-0.000466	-4.661845	-1.579476	0.000187
 738	7.3332e+01	10.6345	118.485897	-0.000334	-3.344367	-1.133102	0.000134
 739	7.3431e+01	10.5927	118.699865	-0.000537	-5.371256	-1.819831	0.000215
 740	7.3531e+01	10.5478	118.841165	-0.000355	-3.547056	-1.201775	0.000142
 741	7.3630e+01	10.5141	119.030910	-0.000476	-4.763189	-1.613812	0.000191
 742	7.3730e+01	10.4676	119.188358	-0.000395	-3.952434	-1.339121	0.000158
 743	7.3829e+01	10.4195	119.349844	-0.000405	-4.053778	-1.373457	0.000162
 744	7.3928e+01	10.3858	119.507292	-0.000395	-3.952434	-1.339121	0.000158
 745	7.4028e+01	10.3473	119.648592	-0.000355	-3.547056	-1.201775	0.000142
 746	7.4127e+01	10.3184	119.830263	-0.000456	-4.560500	-1.545139	0.000183
 747	7.4227e+01	10.2703	119.931191	-0.000253	-2.533611	-0.858411	0.000101
 748	7.4326e+01	10.2302	120.100751	-0.000426	-4.256467	-1.442130	0.000170
 749	7.4426e+01	10.1885	120.221865	-0.000304	-3.040334	-1.030093	0.000122
 750	7.4525e+01	10.1548	120.415648	-0.000486	-4.864534	-1.648149	0.000195
 751	7.4625e+01	10.1131	120.524650	-0.000274	-2.736300	-0.927084	0.000110
 752	7.4725e+01	10.0730	120.657876	-0.000334	-3.344367	-1.133102	0.000134
 753	7.4824e+01	10.0329	120.795138	-0.000345	-3.445711	-1.167439	0.000138
 754	7.4924e+01	9.9928	120.920290	-0.000314	-3.141678	-1.064429	0.000126
 755	7.5023e+01	9.9527	121.089849	-0.000426	-4.256467	-1.442130	0.000170
 756	7.5123e+01	9.9142	121.194815	-0.000263	-2.634956	-0.892747	0.000105
 757	7.5222e+01	9.8773	121.319966	-0.000314	-3.141678	-1.064429	0.000126
 758	7.5322e+01	9.8275	121.424932	-0.000263	-2.634956	-0.892747	0.000105
 759	7.5421e+01	9.7890	121.586417	-0.000405	-4.053778	-1.373457	0.000162
 760	7.5520e+01	9.7505	121.691383	-0.000263	-2.634956	-0.892747	0.000105
 761	7.5620e+01	9.7072	121.832682	-0.000355	-3.547056	-1.201775	0.000142
 762	7.5719e+01	9.6703	121.945722	-0.000284	-2.837645	-0.961420	0.000114
 763	7.5819e+01	9.6398	122.046650	-0.000253	-2.533611	-0.858411	0.000101
 764	7.5918e+01	9.5933	122.167765	-0.000304	-3.040334	-1.030093	0.000122
 765	7.6018e+01	9.5596	122.305027	-0.000345	-3.445711	-1.167439	0.000138
 766	7.6118e+01	9.5163	122.373658	-0.000172	-1.722856	-0.583719	0.000069
 767	7.6217e+01	9.4602	122.514958	-0.000355	-3.547056	-1.201775	0.000142
 768	7.6317e+01	9.4345	122.632035	-0.000294	-2.938989	-0.995756	0.000118
 769	7.6416e+01	9.3832	122.741038	-0.000274	-2.736300	-0.927084	0.000110
 770	7.6516e+01	9.3591	122.837929	-0.000243	-2.432267	-0.824074	0.000097
 771	7.6615e+01	9.3206	122.975192	-0.000345	-3.445711	-1.167439	0.000138
 772	7.6715e+01	9.2725	123.031712	-0.000142	-1.418822	-0.480710	0.000057
 773	7.6814e+01	9.2340	123.140714	-0.000274	-2.736300	-0.927084	0.000110
 774	7.6913e+01	9.1939	123.233568	-0.000233	-2.330922	-0.789738	0.000093
 775	7.7013e+01	9.1473	123.330460	-0.000243	-2.432267	-0.824074	0.000097
 776	7.7112e+01	9.1088	123.427351	-0.000243	-2.432267	-0.824074	0.000097
 777	7.7212e+01	9.0784	123.544428	-0.000294	-2.938989	-0.995756	0.000118
 778	7.7311e+01	9.0415	123.633245	-0.000223	-2.229578	-0.755401	0.000089
 779	7.7411e+01	8.9917	123.681690	-0.000122	-1.216133	-0.412037	0.000049
 780	7.7510e+01	8.9645	123.774545	-0.000233	-2.330922	-0.789738	0.000093
 781	7.7610e+01	8.9131	123.863362	-0.000223	-2.229578	-0.755401	0.000089
 782	7.7710e+01	8.8810	123.948141	-0.000213	-2.128233	-0.721065	0.000085
 783	7.7809e+01	8.8377	124.049070	-0.000253	-2.533611	-0.858411	0.000101
 784	7.7909e+01	8.7960	124.097515	-0.000122	-1.216133	-0.412037	0.000049
 785	7.8008e+01	8.7639	124.214592	-0.000294	-2.938989	-0.995756	0.000118
 786	7.8108e+01	8.7110	124.259001	-0.000111	-1.114789	-0.377701	0.000045
 787	7.8207e+01	8.6693	124.339744	-0.000203	-2.026889	-0.686729	0.000081
 788	7.8306e+01	8.6420	124.404338	-0.000162	-1.621511	-0.549383	0.000065
 789	7.8406e+01	8.5971	124.493155	-0.000223	-2.229578	-0.755401	0.000089
 790	7.8505e+01	8.5506	124.577935	-0.000213	-2.128233	-0.721065	0.000085
 791	7.8605e+01	8.5105	124.662714	-0.000213	-2.128233	-0.721065	0.000085
 792	7.8704e+01	8.4848	124.695012	-0.000081	-0.810756	-0.274691	0.000032
 793	7.8804e+01	8.4335	124.816126	-0.000304	-3.040334	-1.030093	0.000122
 794	7.8903e+01	8.4078	124.840348	-0.000061	-0.608067	-0.206019	0.000024
 795	7.9003e+01	8.3500	124.925128	-0.000213	-2.128233	-0.721065	0.000085
 796	7.9103e+01	8.3228	124.989722	-0.000162	-1.621511	-0.549383	0.000065
 797	7.9202e+01	8.2730	124.985685	0.000010	0.101344	0.034336	-0.000004
 798	7.9302e+01	8.2313	125.078539	-0.000233	-2.330922	-0.789738	0.000093
 799	7.9401e+01	8.2008	125.171394	-0.000233	-2.330922	-0.789738	0.000093
 800	7.9501e+01	8.1575	125.223876	-0.000132	-1.317478	-0.446374	0.000053
 801	7.9600e+01	8.1190	125.244062	-0.000051	-0.506722	-0.171682	0.000020
 802	7.9700e+01	8.0773	125.312693	-0.000172	-1.722856	-0.583719	0.000069
 803	7.9799e+01	8.0372	125.357102	-0.000111	-1.114789	-0.377701	0.000045
 804	7.9898e+01	7.9891	125.389399	-0.000081	-0.810756	-0.274691	0.000032
 805	7.9998e+01	7.9586	125.458030	-0.000172	-1.722856	-0.583719	0.000069
 806	8.0097e+01	7.9233	125.482253	-0.000061	-0.608067	-0.206019	0.000024
 807	8.0197e+01	7.8816	125.554921	-0.000182	-1.824200	-0.618056	0.000073
 808	8.0296e+01	7.8399	125.579144	-0.000061	-0.608067	-0.206019	0.000024
 809	8.0396e+01	7.8030	125.639701	-0.000152	-1.520167	-0.515046	0.000061
 810	8.0496e+01	7.7581	125.663924	-0.000061	-0.608067	-0.206019	0.000024
 811	8.0595e+01	7.7115	125.696221	-0.000081	-0.810756	-0.274691	0.000032
 812	8.0695e+01	7.6763	125.744667	-0.000122	-1.216133	-0.412037	0.000049
 813	8.0794e+01	7.6410	125.748704	-0.000010	-0.101344	-0.034336	0.000004
 814	8.0894e+01	7.5960	125.772927	-0.000061	-0.608067	-0.206019	0.000024
 815	8.0993e+01	7.5543	125.817335	-0.000111	-1.114789	-0.377701	0.000045
 816	8.1093e+01	7.5222	125.881929	-0.000162	-1.621511	-0.549383	0.000065
 817	8.1192e+01	7.4725	125.873855	0.000020	0.202689	0.068673	-0.000008
 818	8.1291e+01	7.4501	125.914227	-0.000101	-1.013445	-0.343364	0.000041
 819	8.1391e+01	7.4019	125.918264	-0.000010	-0.101344	-0.034336	0.000004
 820	8.1490e+01	7.3586	125.966709	-0.000122	-1.216133	-0.412037	0.000049
 821	8.1590e+01	7.3137	125.962672	0.000010	0.101344	0.034336	-0.000004
 822	8.1689e+01	7.2864	126.023229	-0.000152	-1.520167	-0.515046	0.000061
 823	8.1789e+01	7.2351	126.027266	-0.000010	-0.101344	-0.034336	0.000004
 824	8.1888e+01	7.1950	126.023229	0.000010	0.101344	0.034336	-0.000004
 825	8.1988e+01	7.1565	126.043415	-0.000051	-0.506722	-0.171682	0.000020
 826	8.2088e+01	7.1148	126.039378	0.000010	0.101344	0.034336	-0.000004
 827	8.2187e+01	7.0859	126.083786	-0.000111	-1.114789	-0.377701	0.000045
 828	8.2287e+01	7.0490	126.095898	-0.000030	-0.304033	-0.103009	0.000012
 829	8.2386e+01	7.0041	126.083786	0.000030	0.304033	0.103009	-0.000012
 830	8.2486e+01	6.9656	126.112046	-0.000071	-0.709411	-0.240355	0.000028
 831	8.2585e+01	6.9191	126.112046	-0.000000	-0.000000	-0.000000	0.000000
 832	8.2684e+01	6.8773	126.140306	-0.000071	-0.709411	-0.240355	0.000028
 833	8.2784e+01	6.8404	126.116083	0.000061	0.608067	0.206019	-0.000024
 834	8.2883e+01	6.8003	126.140306	-0.000061	-0.608067	-0.206019	0.000024
 835	8.2983e+01	6.7618	126.152418	-0.000030	-0.304033	-0.103009	0.000012
 836	8.3082e+01	6.7298	126.116083	0.000091	0.912100	0.309028	-0.000037
 837	8.3182e+01	6.6864	126.108009	0.000020	0.202689	0.068673	-0.000008
 838	8.3281e+01	6.6447	126.132232	-0.000061	-0.608067	-0.206019	0.000024
 839	8.3381e+01	6.6110	126.136269	-0.000010	-0.101344	-0.034336	0.000004
 840	8.3481e+01	6.5629	126.112046	0.000061	0.608067	0.206019	-0.000024
 841	8.3580e+01	6.5276	126.103972	0.000020	0.202689	0.068673	-0.000008
 842	8.3680e+01	6.4811	126.103972	-0.000000	-0.000000	-0.000000	0.000000
 843	8.3779e+01	6.4394	126.099935	0.000010	0.101344	0.034336	-0.000004
 844	8.3879e+01	6.4089	126.083786	0.000041	0.405378	0.137346	-0.000016
 845	8.3978e+01	6.3704	126.023229	0.000152	1.520167	0.515046	-0.000061
 846	8.4078e+01	6.3239	126.055526	-0.000081	-0.810756	-0.274691	0.000032
 847	8.4177e+01	6.2838	126.035341	0.000051	0.506722	0.171682	-0.000020
 848	8.4276e+01	6.2453	126.019192	0.000041	0.405378	0.137346	-0.000016
 849	8.4376e+01	6.2052	125.990932	0.000071	0.709411	0.240355	-0.000028
 850	8.4475e+01	6.1699	125.978821	0.000030	0.304033	0.103009	-0.000012
 851	8.4575e+01	6.1298	125.950561	0.000071	0.709411	0.240355	-0.000028
 852	8.4674e+01	6.0849	125.954598	-0.000010	-0.101344	-0.034336	0.000004
 853	8.4774e+01	6.0464	125.922301	0.000081	0.810756	0.274691	-0.000032
 854	8.4874e+01	6.0079	125.922301	-0.000000	-0.000000	-0.000000	0.000000
 855	8.4973e+01	5.9694	125.849632	0.000182	1.824200	0.618056	-0.000073
 856	8.5073e+01	5.9308	125.825410	0.000061	0.608067	0.206019	-0.000024
 857	8.5172e+01	5.8859	125.821372	0.000010	0.101344	0.034336	-0.000004
 858	8.5272e+01	5.8458	125.768890	0.000132	1.317478	0.446374	-0.000053
 859	8.5371e+01	5.8025	125.708333	0.000152	1.520167	0.515046	-0.000061
 860	8.5471e+01	5.7704	125.704295	0.000010	0.101344	0.034336	-0.000004
 861	8.5570e+01	5.7287	125.655850	0.000122	1.216133	0.412037	-0.000049
 862	8.5669e+01	5.6934	125.667961	-0.000030	-0.304033	-0.103009	0.000012
 863	8.5769e+01	5.6517	125.635664	0.000081	0.810756	0.274691	-0.000032
 864	8.5868e+01	5.6100	125.583181	0.000132	1.317478	0.446374	-0.000053
 865	8.5968e+01	5.5683	125.538773	0.000111	1.114789	0.377701	-0.000045
 866	8.6067e+01	5.5218	125.502439	0.000091	0.912100	0.309028	-0.000037
 867	8.6167e+01	5.4945	125.433807	0.000172	1.722856	0.583719	-0.000069
 868	8.6266e+01	5.4416	125.393436	0.000101	1.013445	0.343364	-0.000041
 869	8.6366e+01	5.4095	125.381325	0.000030	0.304033	0.103009	-0.000012
 870	8.6466e+01	5.3613	125.328842	0.000132	1.317478	0.446374	-0.000053
 871	8.6565e+01	5.3293	125.280396	0.000122	1.216133	0.412037	-0.000049
 872	8.6665e+01	5.2892	125.199654	0.000203	2.026889	0.686729	-0.000081
 873	8.6764e+01	5.2523	125.179468	0.000051	0.506722	0.171682	-0.000020
 874	8.6864e+01	5.2122	125.066428	0.000284	2.837645	0.961420	-0.000114
 875	8.6963e+01	5.1720	125.038168	0.000071	0.709411	0.240355	-0.000028
 876	8.7063e+01	5.1335	125.017982	0.000051	0.506722	0.171682	-0.000020
 877	8.7162e+01	5.0870	124.929165	0.000223	2.229578	0.755401	-0.000089
 878	8.7261e+01	5.0469	124.880720	0.000122	1.216133	0.412037	-0.000049
 879	8.7361e+01	5.0100	124.848423	0.000081	0.810756	0.274691	-0.000032
 880	8.7460e+01	4.9635	124.787866	0.000152	1.520167	0.515046	-0.000061
 881	8.7560e+01	4.9314	124.686937	0.000253	2.533611	0.858411	-0.000101
 882	8.7659e+01	4.8929	124.650603	0.000091	0.912100	0.309028	-0.000037
 883	8.7759e+01	4.8480	124.602157	0.000122	1.216133	0.412037	-0.000049
 884	8.7859e+01	4.8127	124.545638	0.000142	1.418822	0.480710	-0.000057
 885	8.7958e+01	4.7630	124.464895	0.000203	2.026889	0.686729	-0.000081
 886	8.8058e+01	4.7229	124.376078	0.000223	2.229578	0.755401	-0.000089
 887	8.8157e+01	4.6972	124.315521	0.000152	1.520167	0.515046	-0.000061
 888	8.8257e+01	4.6587	124.230741	0.000213	2.128233	0.721065	-0.000085
 889	8.8356e+01	4.6041	124.149998	0.000203	2.026889	0.686729	-0.000081
 890	8.8456e+01	4.5753	124.085404	0.000162	1.621511	0.549383	-0.000065
 891	8.8555e+01	4.5432	124.004661	0.000203	2.026889	0.686729	-0.000081
 892	8.8654e+01	4.4951	123.960253	0.000111	1.114789	0.377701	-0.000045
 893	8.8754e+01	4.4646	123.895659	0.000162	1.621511	0.549383	-0.000065
 894	8.8853e+01	4.4100	123.786656	0.000274	2.736300	0.927084	-0.000110
 895	8.8953e+01	4.3651	123.689765	0.000243	2.432267	0.824074	-0.000097
 896	8.9052e+01	4.3362	123.661505	0.000071	0.709411	0.240355	-0.000028
 897	8.9152e+01	4.2929	123.520205	0.000355	3.547056	1.201775	-0.000142
 898	8.9251e+01	4.2448	123.447537	0.000182	1.824200	0.618056	-0.000073
 899	8.9351e+01	4.2047	123.362757	0.000213	2.128233	0.721065	-0.000085
 900	8.9451e+01	4.1758	123.273940	0.000223	2.229578	0.755401	-0.000089
 901	8.9550e+01	4.1357	123.201271	0.000182	1.824200	0.618056	-0.000073
 902	8.9650e+01	4.0924	123.064009	0.000345	3.445711	1.167439	-0.000138
 903	8.9749e+01	4.0507	122.987303	0.000193	1.925545	0.652392	-0.000077
 904	8.9849e+01	4.0106	122.890412	0.000243	2.432267	0.824074	-0.000097
 905	8.9948e+01	3.9769	122.817743	0.000182	1.824200	0.618056	-0.000073
 906	9.0047e+01	3.9320	122.712778	0.000263	2.634956	0.892747	-0.000105
 907	9.0147e+01	3.8887	122.607812	0.000263	2.634956	0.892747	-0.000105
 908	9.0246e+01	3.8502	122.523033	0.000213	2.128233	0.721065	-0.000085
 909	9.0346e+01	3.8197	122.430178	0.000233	2.330922	0.789738	-0.000093
 910	9.0445e+01	3.7748	122.345399	0.000213	2.128233	0.721065	-0.000085
 911	9.0545e+01	3.7282	122.232359	0.000284	2.837645	0.961420	-0.000114
 912	9.0644e+01	3.6881	122.127393	0.000263	2.634956	0.892747	-0.000105
 913	9.0744e+01	3.6496	122.018391	0.000274	2.736300	0.927084	-0.000110
 914	9.0844e+01	3.6063	121.921499	0.000243	2.432267	0.824074	-0.000097
 915	9.0943e+01	3.5646	121.792311	0.000324	3.243022	1.098766	-0.000130
 916	9.1043e+01	3.5325	121.675234	0.000294	2.938989	0.995756	-0.000118
 917	9.1142e+01	3.4988	121.590454	0.000213	2.128233	0.721065	-0.000085
 918	9.1242e+01	3.4539	121.489526	0.000253	2.533611	0.858411	-0.000101
 919	9.1341e+01	3.4266	121.340152	0.000375	3.749745	1.270448	-0.000150
 920	9.1441e+01	3.3737	121.231149	0.000274	2.736300	0.927084	-0.000110
 921	9.1540e+01	3.3320	121.118109	0.000284	2.837645	0.961420	-0.000114
 922	9.1639e+01	3.2999	121.013144	0.000263	2.634956	0.892747	-0.000105
 923	9.1739e+01	3.2518	120.892030	0.000304	3.040334	1.030093	-0.000122
 924	9.1838e+01	3.2053	120.807250	0.000213	2.128233	0.721065	-0.000085
 925	9.1938e+01	3.1780	120.682099	0.000314	3.141678	1.064429	-0.000126
 926	9.2037e+01	3.1379	120.540799	0.000355	3.547056	1.201775	-0.000142
 927	9.2137e+01	3.0978	120.419685	0.000304	3.040334	1.030093	-0.000122
 928	9.2237e+01	3.0657	120.322794	0.000243	2.432267	0.824074	-0.000097
 929	9.2336e+01	3.0160	120.189568	0.000334	3.344367	1.133102	-0.000134
 930	9.2436e+01	2.9759	120.096714	0.000233	2.330922	0.789738	-0.000093
 931	9.2535e+01	2.9390	119.931191	0.000416	4.155123	1.407794	-0.000166
 932	9.2635e+01	2.8956	119.818152	0.000284	2.837645	0.961420	-0.000114
 933	9.2734e+01	2.8539	119.737409	0.000203	2.026889	0.686729	-0.000081
 934	9.2834e+01	2.8218	119.612258	0.000314	3.141678	1.064429	-0.000126
 935	9.2933e+01	2.7817	119.462884	0.000375	3.749745	1.270448	-0.000150
 936	9.3032e+01	2.7368	119.394252	0.000172	1.722856	0.583719	-0.000069
 937	9.3132e+01	2.6999	119.208544	0.000466	4.661845	1.579476	-0.000187
 938	9.3231e+01	2.6470	119.135876	0.000182	1.824200	0.618056	-0.000073
 939	9.3331e+01	2.6197	118.982464	0.000385	3.851089	1.304784	-0.000154
 940	9.3430e+01	2.5780	118.853276	0.000324	3.243022	1.098766	-0.000130
 941	9.3530e+01	2.5395	118.720051	0.000334	3.344367	1.133102	-0.000134
 942	9.3629e+01	2.4994	118.594899	0.000314	3.141678	1.064429	-0.000126
 943	9.3729e+01	2.4545	118.465711	0.000324	3.243022	1.098766	-0.000130
 944	9.3829e+01	2.4272	118.348634	0.000294	2.938989	0.995756	-0.000118
 945	9.3928e+01	2.3759	118.207334	0.000355	3.547056	1.201775	-0.000142
 946	9.4028e+01	2.3438	118.090257	0.000294	2.938989	0.995756	-0.000118
 947	9.4127e+01	2.2973	117.981255	0.000274	2.736300	0.927084	-0.000110
 948	9.4227e+01	2.2700	117.839955	0.000355	3.547056	1.201775	-0.000142
 949	9.4326e+01	2.2106	117.686544	0.000385	3.851089	1.304784	-0.000154
 950	9.4425e+01	2.1818	117.577541	0.000274	2.736300	0.927084	-0.000110
 951	9.4525e+01	2.1288	117.472576	0.000263	2.634956	0.892747	-0.000105
 952	9.4624e+01	2.1048	117.319165	0.000385	3.851089	1.304784	-0.000154
 953	9.4724e+01	2.0598	117.210162	0.000274	2.736300	0.927084	-0.000110
 954	9.4823e+01	2.0133	117.052714	0.000395	3.952434	1.339121	-0.000158
 955	9.4923e+01	1.9796	116.915451	0.000345	3.445711	1.167439	-0.000138
 956	9.5022e+01	1.9411	116.810485	0.000263	2.634956	0.892747	-0.000105
 957	9.5122e+01	1.8850	116.669186	0.000355	3.547056	1.201775	-0.000142
 958	9.5222e+01	1.8689	116.552109	0.000294	2.938989	0.995756	-0.000118
 959	9.5321e+01	1.8240	116.435032	0.000294	2.938989	0.995756	-0.000118
 960	9.5421e+01	1.7807	116.261435	0.000436	4.357811	1.476466	-0.000174
 961	9.5520e+01	1.7438	116.164544	0.000243	2.432267	0.824074	-0.000097
 962	9.5620e+01	1.6989	116.039393	0.000314	3.141678	1.064429	-0.000126
 963	9.5719e+01	1.6668	115.877907	0.000405	4.053778	1.373457	-0.000162
 964	9.5819e+01	1.6219	115.764867	0.000284	2.837645	0.961420	-0.000114
 965	9.5918e+01	1.5786	115.627605	0.000345	3.445711	1.167439	-0.000138
 966	9.6017e+01	1.5417	115.482268	0.000365	3.648400	1.236111	-0.000146
 967	9.6117e+01	1.5000	115.365191	0.000294	2.938989	0.995756	-0.000118
 968	9.6216e+01	1.4679	115.240040	0.000314	3.141678	1.064429	-0.000126
 969	9.6316e+01	1.4262	115.090666	0.000375	3.749745	1.270448	-0.000150
 970	9.6415e+01	1.3893	114.969552	0.000304	3.040334	1.030093	-0.000122
 971	9.6515e+01	1.3427	114.856512	0.000284	2.837645	0.961420	-0.000114
 972	9.6615e+01	1.2978	114.731361	0.000314	3.141678	1.064429	-0.000126
 973	9.6714e+01	1.2706	114.586024	0.000365	3.648400	1.236111	-0.000146
 974	9.6814e+01	1.2304	114.460872	0.000314	3.141678	1.064429	-0.000126
 975	9.6913e+01	1.1871	114.311498	0.000375	3.749745	1.270448	-0.000150
 976	9.7013e+01	1.1486	114.186347	0.000314	3.141678	1.064429	-0.000126
 977	9.7112e+01	1.1053	114.032936	0.000385	3.851089	1.304784	-0.000154
 978	9.7212e+01	1.0684	113.887599	0.000365	3.648400	1.236111	-0.000146
 979	9.7311e+01	1.0331	113.802819	0.000213	2.128233	0.721065	-0.000085
 980	9.7410e+01	0.9850	113.625185	0.000446	4.459156	1.510803	-0.000179
 981	9.7510e+01	0.9449	113.516183	0.000274	2.736300	0.927084	-0.000110
 982	9.7609e+01	0.9048	113.382957	0.000334	3.344367	1.133102	-0.000134
 983	9.7709e+01	0.8631	113.257806	0.000314	3.141678	1.064429	-0.000126
 984	9.7808e+01	0.8278	113.144766	0.000284	2.837645	0.961420	-0.000114
 985	9.7908e+01	0.7829	113.007504	0.000345	3.445711	1.167439	-0.000138
 986	9.8007e+01	0.7412	112.837944	0.000426	4.256467	1.442130	-0.000170
 987	9.8107e+01	0.7123	112.728941	0.000274	2.736300	0.927084	-0.000110
 988	9.8207e+01	0.6642	112.628013	0.000253	2.533611	0.858411	-0.000101
 989	9.8306e+01	0.6273	112.462490	0.000416	4.155123	1.407794	-0.000166
 990	9.8406e+01	0.5855	112.349450	0.000284	2.837645	0.961420	-0.000114
 991	9.8505e+01	0.5567	112.208151	0.000355	3.547056	1.201775	-0.000142
 992	9.8605e+01	0.5150	112.046665	0.000405	4.053778	1.373457	-0.000162
 993	9.8704e+01	0.4668	111.925551	0.000304	3.040334	1.030093	-0.000122
 994	9.8803e+01	0.4267	111.792326	0.000334	3.344367	1.133102	-0.000134
 995	9.8903e+01	0.3882	111.671212	0.000304	3.040334	1.030093	-0.000122
 996	9.9002e+01	0.3433	111.533949	0.000345	3.445711	1.167439	-0.000138
 997	9.9102e+01	0.3080	111.396686	0.000345	3.445711	1.167439	-0.000138
 998	9.9201e+01	0.2775	111.271535	0.000314	3.141678	1.064429	-0.000126
 999	9.9301e+01	0.2262	111.130235	0.000355	3.547056	1.201775	-0.000142
1000	9.9400e+01	0.1861	110.968750	0.000405	4.053778	1.373457	-0.000162
1001	9.9500e+01	0.1364	110.871859	0.000243	2.432267	0.824074	-0.000097
1002	9.9600e+01	0.1091	110.746708	0.000314	3.141678	1.064429	-0.000126
1003	9.9699e+01	0.0690	110.609445	0.000345	3.445711	1.167439	-0.000138
1004	9.9799e+01	0.0273	110.464108	0.000365	3.648400	1.236111	-0.000146
1005	9.9898e+01	0.0064	110.355105	0.000274	2.736300	0.927084	-0.000110
1006	9.9998e+01	-0.0401	110.209769	0.000365	3.648400	1.236111	-0.000146
1007	1.0010e+02	-0.0834	110.092692	0.000294	2.938989	0.995756	-0.000118
1008	1.0020e+02	-0.1219	109.975615	0.000294	2.938989	0.995756	-0.000118
1009	1.0030e+02	-0.1604	109.830278	0.000365	3.648400	1.236111	-0.000146
1010	1.0040e+02	-0.2102	109.680904	0.000375	3.749745	1.270448	-0.000150
1011	1.0050e+02	-0.2358	109.555753	0.000314	3.141678	1.064429	-0.000126
1012	1.0059e+02	-0.2952	109.382156	0.000436	4.357811	1.476466	-0.000174
1013	1.0069e+02	-0.3208	109.285264	0.000243	2.432267	0.824074	-0.000097
1014	1.0079e+02	-0.3722	109.180299	0.000263	2.634956	0.892747	-0.000105
1015	1.0089e+02	-0.4123	108.994591	0.000466	4.661845	1.579476	-0.000187
1016	1.0099e+02	-0.4444	108.885588	0.000274	2.736300	0.927084	-0.000110
1017	1.0109e+02	-0.4877	108.764474	0.000304	3.040334	1.030093	-0.000122
1018	1.0119e+02	-0.5278	108.623174	0.000355	3.547056	1.201775	-0.000142
1019	1.0129e+02	-0.5567	108.485912	0.000345	3.445711	1.167439	-0.000138
1020	1.0139e+02	-0.6064	108.348649	0.000345	3.445711	1.167439	-0.000138
1021	1.0149e+02	-0.6481	108.239646	0.000274	2.736300	0.927084	-0.000110
1022	1.0159e+02	-0.6802	108.094309	0.000365	3.648400	1.236111	-0.000146
1023	1.0169e+02	-0.7187	107.977232	0.000294	2.938989	0.995756	-0.000118
1024	1.0179e+02	-0.7716	107.819784	0.000395	3.952434	1.339121	-0.000158
1025	1.0189e+02	-0.8069	107.678484	0.000355	3.547056	1.201775	-0.000142
1026	1.0199e+02	-0.8438	107.537185	0.000355	3.547056	1.201775	-0.000142
1027	1.0209e+02	-0.8936	107.456442	0.000203	2.026889	0.686729	-0.000081
1028	1.0219e+02	-0.9240	107.290919	0.000416	4.155123	1.407794	-0.000166
1029	1.0229e+02	-0.9641	107.161731	0.000324	3.243022	1.098766	-0.000130
1030	1.0239e+02	-0.9978	107.028506	0.000334	3.344367	1.133102	-0.000134
1031	1.0248e+02	-1.0363	106.887206	0.000355	3.547056	1.201775	-0.000142
1032	1.0258e+02	-1.0684	106.753980	0.000334	3.344367	1.133102	-0.000134
1033	1.0268e+02	-1.1182	106.608643	0.000365	3.648400	1.236111	-0.000146
1034	1.0278e+02	-1.1583	106.507715	0.000253	2.533611	0.858411	-0.000101
1035	1.0288e+02	-1.2000	106.366415	0.000355	3.547056	1.201775	-0.000142
1036	1.0298e+02	-1.2288	106.237227	0.000324	3.243022	1.098766	-0.000130
1037	1.0308e+02	-1.2770	106.099964	0.000345	3.445711	1.167439	-0.000138
1038	1.0318e+02	-1.3155	105.978850	0.000304	3.040334	1.030093	-0.000122
1039	1.0328e+02	-1.3652	105.837551	0.000355	3.547056	1.201775	-0.000142
1040	1.0338e+02	-1.4005	105.728548	0.000274	2.736300	0.927084	-0.000110
1041	1.0348e+02	-1.4374	105.579174	0.000375	3.749745	1.270448	-0.000150
1042	1.0358e+02	-1.4823	105.466134	0.000284	2.837645	0.961420	-0.000114
1043	1.0368e+02	-1.5192	105.332909	0.000334	3.344367	1.133102	-0.000134
1044	1.0378e+02	-1.5481	105.171423	0.000405	4.053778	1.373457	-0.000162
1045	1.0388e+02	-1.5978	105.062420	0.000274	2.736300	0.927084	-0.000110
1046	1.0398e+02	-1.6395	104.941306	0.000304	3.040334	1.030093	-0.000122
1047	1.0408e+02	-1.6828	104.787895	0.000385	3.851089	1.304784	-0.000154
1048	1.0418e+02	-1.7262	104.674855	0.000284	2.837645	0.961420	-0.000114
1049	1.0428e+02	-1.7631	104.533556	0.000355	3.547056	1.201775	-0.000142
1050	1.0438e+02	-1.7999	104.408404	0.000314	3.141678	1.064429	-0.000126
1051	1.0447e+02	-1.8368	104.263068	0.000365	3.648400	1.236111	-0.000146
1052	1.0457e+02	-1.8786	104.154065	0.000274	2.736300	0.927084	-0.000110
1053	1.0467e+02	-1.9155	103.984505	0.000426	4.256467	1.442130	-0.000170
1054	1.0477e+02	-1.9540	103.899725	0.000213	2.128233	0.721065	-0.000085
1055	1.0487e+02	-1.9989	103.786686	0.000284	2.837645	0.961420	-0.000114
1056	1.0497e+02	-2.0342	103.617126	0.000426	4.256467	1.442130	-0.000170
1057	1.0507e+02	-2.0775	103.475826	0.000355	3.547056	1.201775	-0.000142
1058	1.0517e+02	-2.1144	103.342601	0.000334	3.344367	1.133102	-0.000134
1059	1.0527e+02	-2.1577	103.241672	0.000253	2.533611	0.858411	-0.000101
1060	1.0537e+02	-2.2010	103.080187	0.000405	4.053778	1.373457	-0.000162
1061	1.0547e+02	-2.2427	102.955036	0.000314	3.141678	1.064429	-0.000126
1062	1.0557e+02	-2.2748	102.817773	0.000345	3.445711	1.167439	-0.000138
1063	1.0567e+02	-2.3117	102.728956	0.000223	2.229578	0.755401	-0.000089
1064	1.0577e+02	-2.3550	102.603805	0.000314	3.141678	1.064429	-0.000126
1065	1.0587e+02	-2.3935	102.470579	0.000334	3.344367	1.133102	-0.000134
1066	1.0597e+02	-2.4400	102.313131	0.000395	3.952434	1.339121	-0.000158
1067	1.0607e+02	-2.4882	102.200091	0.000284	2.837645	0.961420	-0.000114
1068	1.0617e+02	-2.5170	102.054754	0.000365	3.648400	1.236111	-0.000146
1069	1.0627e+02	-2.5523	101.937677	0.000294	2.938989	0.995756	-0.000118
1070	1.0637e+02	-2.6021	101.820600	0.000294	2.938989	0.995756	-0.000118
1071	1.0647e+02	-2.6374	101.675264	0.000365	3.648400	1.236111	-0.000146
1072	1.0656e+02	-2.6710	101.558187	0.000294	2.938989	0.995756	-0.000118
1073	1.0666e+02	-2.7176	101.428998	0.000324	3.243022	1.098766	-0.000130
1074	1.0676e+02	-2.7529	101.295773	0.000334	3.344367	1.133102	-0.000134
1075	1.0686e+02	-2.7978	101.202919	0.000233	2.330922	0.789738	-0.000093
1076	1.0696e+02	-2.8315	101.037396	0.000416	4.155123	1.407794	-0.000166
1077	1.0706e+02	-2.8812	100.932431	0.000263	2.634956	0.892747	-0.000105
1078	1.0716e+02	-2.9117	100.770945	0.000405	4.053778	1.373457	-0.000162
1079	1.0726e+02	-2.9550	100.641757	0.000324	3.243022	1.098766	-0.000130
1080	1.0736e+02	-2.9935	100.528717	0.000284	2.837645	0.961420	-0.000114
1081	1.0746e+02	-3.0304	100.423751	0.000263	2.634956	0.892747	-0.000105
1082	1.0756e+02	-3.0785	100.270340	0.000385	3.851089	1.304784	-0.000154
1083	1.0766e+02	-3.1202	100.141152	0.000324	3.243022	1.098766	-0.000130
1084	1.0776e+02	-3.1523	100.028112	0.000284	2.837645	0.961420	-0.000114
1085	1.0786e+02	-3.1956	99.874701	0.000385	3.851089	1.304784	-0.000154
1086	1.0796e+02	-3.2357	99.769735	0.000263	2.634956	0.892747	-0.000105
1087	1.0806e+02	-3.2758	99.632473	0.000345	3.445711	1.167439	-0.000138
1088	1.0816e+02	-3.3063	99.507322	0.000314	3.141678	1.064429	-0.000126
1089	1.0826e+02	-3.3577	99.386208	0.000304	3.040334	1.030093	-0.000122
1090	1.0836e+02	-3.3897	99.261056	0.000314	3.141678	1.064429	-0.000126
1091	1.0845e+02	-3.4315	99.119757	0.000355	3.547056	1.201775	-0.000142
1092	1.0855e+02	-3.4748	99.047088	0.000182	1.824200	0.618056	-0.000073
1093	1.0865e+02	-3.5117	98.909826	0.000345	3.445711	1.167439	-0.000138
1094	1.0875e+02	-3.5486	98.776600	0.000334	3.344367	1.133102	-0.000134
1095	1.0885e+02	-3.5967	98.651449	0.000314	3.141678	1.064429	-0.000126
1096	1.0895e+02	-3.6240	98.554558	0.000243	2.432267	0.824074	-0.000097
1097	1.0905e+02	-3.6625	98.417295	0.000345	3.445711	1.167439	-0.000138
1098	1.0915e+02	-3.7090	98.280032	0.000345	3.445711	1.167439	-0.000138
1099	1.0925e+02	-3.7555	98.142770	0.000345	3.445711	1.167439	-0.000138
1100	1.0935e+02	-3.7860	98.017619	0.000314	3.141678	1.064429	-0.000126
1101	1.0945e+02	-3.8293	97.888430	0.000324	3.243022	1.098766	-0.000130
1102	1.0955e+02	-3.8566	97.775390	0.000284	2.837645	0.961420	-0.000114
1103	1.0965e+02	-3.9063	97.670425	0.000263	2.634956	0.892747	-0.000105
1104	1.0975e+02	-3.9544	97.512977	0.000395	3.952434	1.339121	-0.000158
1105	1.0985e+02	-3.9897	97.391863	0.000304	3.040334	1.030093	-0.000122
1106	1.0995e+02	-4.0362	97.250563	0.000355	3.547056	1.201775	-0.000142
1107	1.1005e+02	-4.0748	97.161746	0.000223	2.229578	0.755401	-0.000089
1108	1.1015e+02	-4.1100	97.040632	0.000304	3.040334	1.030093	-0.000122
1109	1.1025e+02	-4.1534	96.907406	0.000334	3.344367	1.133102	-0.000134
1110	1.1035e+02	-4.1854	96.782255	0.000314	3.141678	1.064429	-0.000126
1111	1.1044e+02	-4.2352	96.640955	0.000355	3.547056	1.201775	-0.000142
1112	1.1054e+02	-4.2689	96.544064	0.000243	2.432267	0.824074	-0.000097
1113	1.1064e+02	-4.3122	96.382579	0.000405	4.053778	1.373457	-0.000162
1114	1.1074e+02	-4.3523	96.281650	0.000253	2.533611	0.858411	-0.000101
1115	1.1084e+02	-4.3940	96.200908	0.000203	2.026889	0.686729	-0.000081
1116	1.1094e+02	-4.4229	96.043459	0.000395	3.952434	1.339121	-0.000158
1117	1.1104e+02	-4.4758	95.902159	0.000355	3.547056	1.201775	-0.000142
1118	1.1114e+02	-4.5127	95.797194	0.000263	2.634956	0.892747	-0.000105
1119	1.1124e+02	-4.5384	95.659931	0.000345	3.445711	1.167439	-0.000138
1120	1.1134e+02	-4.5897	95.522669	0.000345	3.445711	1.167439	-0.000138
1121	1.1144e+02	-4.6346	95.445963	0.000193	1.925545	0.652392	-0.000077
1122	1.1154e+02	-4.6892	95.308701	0.000345	3.445711	1.167439	-0.000138
1123	1.1164e+02	-4.7036	95.155289	0.000385	3.851089	1.304784	-0.000154
1124	1.1174e+02	-4.7453	95.078584	0.000193	1.925545	0.652392	-0.000077
1125	1.1184e+02	-4.7806	94.989767	0.000223	2.229578	0.755401	-0.000089
1126	1.1194e+02	-4.8303	94.812133	0.000446	4.459156	1.510803	-0.000179
1127	1.1204e+02	-4.8672	94.703130	0.000274	2.736300	0.927084	-0.000110
1128	1.1214e+02	-4.9106	94.553756	0.000375	3.749745	1.270448	-0.000150
1129	1.1224e+02	-4.9426	94.460902	0.000233	2.330922	0.789738	-0.000093
1130	1.1234e+02	-5.0004	94.331714	0.000324	3.243022	1.098766	-0.000130
1131	1.1244e+02	-5.0229	94.186377	0.000365	3.648400	1.236111	-0.000146
1132	1.1253e+02	-5.0646	94.101597	0.000213	2.128233	0.721065	-0.000085
1133	1.1263e+02	-5.1047	93.984520	0.000294	2.938989	0.995756	-0.000118
1134	1.1273e+02	-5.1496	93.879554	0.000263	2.634956	0.892747	-0.000105
1135	1.1283e+02	-5.1865	93.714032	0.000416	4.155123	1.407794	-0.000166
1136	1.1293e+02	-5.2266	93.617141	0.000243	2.432267	0.824074	-0.000097
1137	1.1303e+02	-5.2539	93.520249	0.000243	2.432267	0.824074	-0.000097
1138	1.1313e+02	-5.3084	93.378950	0.000355	3.547056	1.201775	-0.000142
1139	1.1323e+02	-5.3453	93.205353	0.000436	4.357811	1.476466	-0.000174
1140	1.1333e+02	-5.3790	93.144796	0.000152	1.520167	0.515046	-0.000061
1141	1.1343e+02	-5.4335	93.003496	0.000355	3.547056	1.201775	-0.000142
1142	1.1353e+02	-5.4656	92.894493	0.000274	2.736300	0.927084	-0.000110
1143	1.1363e+02	-5.4881	92.785491	0.000274	2.736300	0.927084	-0.000110
1144	1.1373e+02	-5.5426	92.672451	0.000284	2.837645	0.961420	-0.000114
1145	1.1383e+02	-5.5843	92.535188	0.000345	3.445711	1.167439	-0.000138
1146	1.1393e+02	-5.6276	92.414074	0.000304	3.040334	1.030093	-0.000122
1147	1.1403e+02	-5.6581	92.333331	0.000203	2.026889	0.686729	-0.000081
1148	1.1413e+02	-5.6998	92.208180	0.000314	3.141678	1.064429	-0.000126
1149	1.1423e+02	-5.7383	92.078992	0.000324	3.243022	1.098766	-0.000130
1150	1.1433e+02	-5.7817	91.933655	0.000365	3.648400	1.236111	-0.000146
1151	1.1442e+02	-5.8218	91.812541	0.000304	3.040334	1.030093	-0.000122
1152	1.1452e+02	-5.8619	91.695464	0.000294	2.938989	0.995756	-0.000118
1153	1.1462e+02	-5.9068	91.598573	0.000243	2.432267	0.824074	-0.000097
1154	1.1472e+02	-5.9485	91.473422	0.000314	3.141678	1.064429	-0.000126
1155	1.1482e+02	-5.9806	91.348270	0.000314	3.141678	1.064429	-0.000126
1156	1.1492e+02	-6.0191	91.255416	0.000233	2.330922	0.789738	-0.000093
1157	1.1502e+02	-6.0608	91.114116	0.000355	3.547056	1.201775	-0.000142
1158	1.1512e+02	-6.1025	91.017225	0.000243	2.432267	0.824074	-0.000097
1159	1.1522e+02	-6.1378	90.879963	0.000345	3.445711	1.167439	-0.000138
1160	1.1532e+02	-6.1779	90.774997	0.000263	2.634956	0.892747	-0.000105
1161	1.1542e+02	-6.2164	90.625623	0.000375	3.749745	1.270448	-0.000150
1162	1.1552e+02	-6.2645	90.520658	0.000263	2.634956	0.892747	-0.000105
1163	1.1562e+02	-6.3030	90.399543	0.000304	3.040334	1.030093	-0.000122
1164	1.1572e+02	-6.3383	90.306689	0.000233	2.330922	0.789738	-0.000093
1165	1.1582e+02	-6.3768	90.213835	0.000233	2.330922	0.789738	-0.000093
1166	1.1592e+02	-6.4282	90.088684	0.000314	3.141678	1.064429	-0.000126
1167	1.1602e+02	-6.4522	89.955459	0.000334	3.344367	1.133102	-0.000134
1168	1.1612e+02	-6.4939	89.854530	0.000253	2.533611	0.858411	-0.000101
1169	1.1622e+02	-6.5389	89.717268	0.000345	3.445711	1.167439	-0.000138
1170	1.1632e+02	-6.5806	89.624413	0.000233	2.330922	0.789738	-0.000093
1171	1.1642e+02	-6.6175	89.515411	0.000274	2.736300	0.927084	-0.000110
1172	1.1651e+02	-6.6544	89.394297	0.000304	3.040334	1.030093	-0.000122
1173	1.1661e+02	-6.6961	89.269145	0.000314	3.141678	1.064429	-0.000126
1174	1.1671e+02	-6.7378	89.139957	0.000324	3.243022	1.098766	-0.000130
1175	1.1681e+02	-6.7731	89.055177	0.000213	2.128233	0.721065	-0.000085
1176	1.1691e+02	-6.8180	88.934063	0.000304	3.040334	1.030093	-0.000122
1177	1.1701e+02	-6.8613	88.796801	0.000345	3.445711	1.167439	-0.000138
1178	1.1711e+02	-6.9030	88.695872	0.000253	2.533611	0.858411	-0.000101
1179	1.1721e+02	-6.9383	88.607055	0.000223	2.229578	0.755401	-0.000089
1180	1.1731e+02	-6.9832	88.457681	0.000375	3.749745	1.270448	-0.000150
1181	1.1741e+02	-7.0137	88.332530	0.000314	3.141678	1.064429	-0.000126
1182	1.1751e+02	-7.0522	88.231602	0.000253	2.533611	0.858411	-0.000101
1183	1.1761e+02	-7.0987	88.090302	0.000355	3.547056	1.201775	-0.000142
1184	1.1771e+02	-7.1324	88.029745	0.000152	1.520167	0.515046	-0.000061
1185	1.1781e+02	-7.1757	87.864222	0.000416	4.155123	1.407794	-0.000166
1186	1.1791e+02	-7.2174	87.775405	0.000223	2.229578	0.755401	-0.000089
1187	1.1801e+02	-7.2575	87.658328	0.000294	2.938989	0.995756	-0.000118
1188	1.1811e+02	-7.2944	87.529140	0.000324	3.243022	1.098766	-0.000130
1189	1.1821e+02	-7.3410	87.395914	0.000334	3.344367	1.133102	-0.000134
1190	1.1831e+02	-7.3731	87.315172	0.000203	2.026889	0.686729	-0.000081
1191	1.1841e+02	-7.4180	87.202132	0.000284	2.837645	0.961420	-0.000114
1192	1.1850e+02	-7.4501	87.044684	0.000395	3.952434	1.339121	-0.000158
1193	1.1860e+02	-7.4934	86.923570	0.000304	3.040334	1.030093	-0.000122
1194	1.1870e+02	-7.5367	86.858975	0.000162	1.621511	0.549383	-0.000065
1195	1.1880e+02	-7.5656	86.729787	0.000324	3.243022	1.098766	-0.000130
1196	1.1890e+02	-7.6041	86.624822	0.000263	2.634956	0.892747	-0.000105
1197	1.1900e+02	-7.6570	86.515819	0.000274	2.736300	0.927084	-0.000110
1198	1.1910e+02	-7.6923	86.390668	0.000314	3.141678	1.064429	-0.000126
1199	1.1920e+02	-7.7308	86.285702	0.000263	2.634956	0.892747	-0.000105
1200	1.1930e+02	-7.7693	86.188811	0.000243	2.432267	0.824074	-0.000097
1201	1.1940e+02	-7.8126	86.083845	0.000263	2.634956	0.892747	-0.000105
1202	1.1950e+02	-7.8559	85.950620	0.000334	3.344367	1.133102	-0.000134
1203	1.1960e+02	-7.9073	85.865840	0.000213	2.128233	0.721065	-0.000085
1204	1.1970e+02	-7.9233	85.777023	0.000223	2.229578	0.755401	-0.000089
1205	1.1980e+02	-7.9666	85.651872	0.000314	3.141678	1.064429	-0.000126
1206	1.1990e+02	-8.0099	85.498461	0.000385	3.851089	1.304784	-0.000154
1207	1.2000e+02	-8.0436	85.393495	0.000263	2.634956	0.892747	-0.000105
1208	1.2010e+02	-8.0934	85.284492	0.000274	2.736300	0.927084	-0.000110
1209	1.2020e+02	-8.1286	85.155304	0.000324	3.243022	1.098766	-0.000130
1210	1.2030e+02	-8.1671	85.050339	0.000263	2.634956	0.892747	-0.000105
1211	1.2039e+02	-8.2137	84.961522	0.000223	2.229578	0.755401	-0.000089
1212	1.2049e+02	-8.2586	84.876742	0.000213	2.128233	0.721065	-0.000085
1213	1.2059e+02	-8.2923	84.759665	0.000294	2.938989	0.995756	-0.000118
1214	1.2069e+02	-8.3324	84.606254	0.000385	3.851089	1.304784	-0.000154
1215	1.2079e+02	-8.3661	84.521474	0.000213	2.128233	0.721065	-0.000085
1216	1.2089e+02	-8.4126	84.388248	0.000334	3.344367	1.133102	-0.000134
1217	1.2099e+02	-8.4623	84.295394	0.000233	2.330922	0.789738	-0.000093
1218	1.2109e+02	-8.4960	84.162169	0.000334	3.344367	1.133102	-0.000134
1219	1.2119e+02	-8.5377	84.037018	0.000314	3.141678	1.064429	-0.000126
1220	1.2129e+02	-8.5698	83.936089	0.000253	2.533611	0.858411	-0.000101
1221	1.2139e+02	-8.6035	83.839198	0.000243	2.432267	0.824074	-0.000097
1222	1.2149e+02	-8.6580	83.730195	0.000274	2.736300	0.927084	-0.000110
1223	1.2159e+02	-8.6853	83.625230	0.000263	2.634956	0.892747	-0.000105
1224	1.2169e+02	-8.7238	83.524301	0.000253	2.533611	0.858411	-0.000101
1225	1.2179e+02	-8.7655	83.399150	0.000314	3.141678	1.064429	-0.000126
1226	1.2189e+02	-8.8056	83.265925	0.000334	3.344367	1.133102	-0.000134
1227	1.2199e+02	-8.8473	83.173070	0.000233	2.330922	0.789738	-0.000093
1228	1.2209e+02	-8.8923	83.064068	0.000274	2.736300	0.927084	-0.000110
1229	1.2219e+02	-8.9195	82.930842	0.000334	3.344367	1.133102	-0.000134
1230	1.2229e+02	-8.9661	82.858174	0.000182	1.824200	0.618056	-0.000073
1231	1.2239e+02	-9.0078	82.724948	0.000334	3.344367	1.133102	-0.000134
1232	1.2248e+02	-9.0463	82.607871	0.000294	2.938989	0.995756	-0.000118
1233	1.2258e+02	-9.0912	82.502906	0.000263	2.634956	0.892747	-0.000105
1234	1.2268e+02	-9.1281	82.385829	0.000294	2.938989	0.995756	-0.000118
1235	1.2278e+02	-9.1746	82.280863	0.000263	2.634956	0.892747	-0.000105
1236	1.2288e+02	-9.2083	82.179935	0.000253	2.533611	0.858411	-0.000101
1237	1.2298e+02	-9.2516	82.050747	0.000324	3.243022	1.098766	-0.000130
1238	1.2308e+02	-9.2949	81.949818	0.000253	2.533611	0.858411	-0.000101
1239	1.2318e+02	-9.3302	81.828704	0.000304	3.040334	1.030093	-0.000122
1240	1.2328e+02	-9.3703	81.731813	0.000243	2.432267	0.824074	-0.000097
1241	1.2338e+02	-9.4040	81.651070	0.000203	2.026889	0.686729	-0.000081
1242	1.2348e+02	-9.4489	81.529956	0.000304	3.040334	1.030093	-0.000122
1243	1.2358e+02	-9.4922	81.441139	0.000223	2.229578	0.755401	-0.000089
1244	1.2368e+02	-9.5195	81.291765	0.000375	3.749745	1.270448	-0.000150
1245	1.2378e+02	-9.5709	81.178725	0.000284	2.837645	0.961420	-0.000114
1246	1.2388e+02	-9.6094	81.049537	0.000324	3.243022	1.098766	-0.000130
1247	1.2398e+02	-9.6446	80.972831	0.000193	1.925545	0.652392	-0.000077
1248	1.2408e+02	-9.6880	80.859792	0.000284	2.837645	0.961420	-0.000114
1249	1.2418e+02	-9.7200	80.754826	0.000263	2.634956	0.892747	-0.000105
1250	1.2428e+02	-9.7666	80.645824	0.000274	2.736300	0.927084	-0.000110
1251	1.2438e+02	-9.8115	80.557007	0.000223	2.229578	0.755401	-0.000089
1252	1.2447e+02	-9.8468	80.423781	0.000334	3.344367	1.133102	-0.000134
1253	1.2457e+02	-9.8724	80.347075	0.000193	1.925545	0.652392	-0.000077
1254	1.2467e+02	-9.9302	80.213850	0.000334	3.344367	1.133102	-0.000134
1255	1.2477e+02	-9.9671	80.068513	0.000365	3.648400	1.236111	-0.000146
1256	1.2487e+02	-10.0008	79.987770	0.000203	2.026889	0.686729	-0.000081
1257	1.2497e+02	-10.0473	79.890879	0.000243	2.432267	0.824074	-0.000097
1258	1.2507e+02	-10.0874	79.785914	0.000263	2.634956	0.892747	-0.000105
1259	1.2517e+02	-10.1195	79.672874	0.000284	2.837645	0.961420	-0.000114
1260	1.2527e+02	-10.1628	79.547723	0.000314	3.141678	1.064429	-0.000126
1261	1.2537e+02	-10.2013	79.414497	0.000334	3.344367	1.133102	-0.000134
1262	1.2547e+02	-10.2478	79.341829	0.000182	1.824200	0.618056	-0.000073
1263	1.2557e+02	-10.2831	79.240900	0.000253	2.533611	0.858411	-0.000101
1264	1.2567e+02	-10.3297	79.103638	0.000345	3.445711	1.167439	-0.000138
1265	1.2577e+02	-10.3633	79.043081	0.000152	1.520167	0.515046	-0.000061
1266	1.2587e+02	-10.4051	78.921967	0.000304	3.040334	1.030093	-0.000122
1267	1.2597e+02	-10.4468	78.825075	0.000243	2.432267	0.824074	-0.000097
1268	1.2607e+02	-10.4837	78.712035	0.000284	2.837645	0.961420	-0.000114
1269	1.2617e+02	-10.5238	78.590921	0.000304	3.040334	1.030093	-0.000122
1270	1.2627e+02	-10.5687	78.522290	0.000172	1.722856	0.583719	-0.000069
1271	1.2636e+02	-10.5992	78.421362	0.000253	2.533611	0.858411	-0.000101
1272	1.2646e+02	-10.6473	78.280062	0.000355	3.547056	1.201775	-0.000142
1273	1.2656e+02	-10.6810	78.179134	0.000253	2.533611	0.858411	-0.000101
1274	1.2666e+02	-10.7211	78.078205	0.000253	2.533611	0.858411	-0.000101
1275	1.2676e+02	-10.7692	77.969203	0.000274	2.736300	0.927084	-0.000110
1276	1.2686e+02	-10.7965	77.868274	0.000253	2.533611	0.858411	-0.000101
1277	1.2696e+02	-10.8430	77.739086	0.000324	3.243022	1.098766	-0.000130
1278	1.2706e+02	-10.8847	77.650269	0.000223	2.229578	0.755401	-0.000089
1279	1.2716e+02	-10.9248	77.553378	0.000243	2.432267	0.824074	-0.000097
1280	1.2726e+02	-10.9601	77.436301	0.000294	2.938989	0.995756	-0.000118
1281	1.2736e+02	-11.0034	77.311149	0.000314	3.141678	1.064429	-0.000126
1282	1.2746e+02	-11.0403	77.218295	0.000233	2.330922	0.789738	-0.000093
1283	1.2756e+02	-11.0965	77.093144	0.000314	3.141678	1.064429	-0.000126
1284	1.2766e+02	-11.1221	77.000290	0.000233	2.330922	0.789738	-0.000093
1285	1.2776e+02	-11.1606	76.899362	0.000253	2.533611	0.858411	-0.000101
1286	1.2786e+02	-11.1991	76.782285	0.000294	2.938989	0.995756	-0.000118
1287	1.2796e+02	-11.2360	76.665208	0.000294	2.938989	0.995756	-0.000118
1288	1.2806e+02	-11.2794	76.588502	0.000193	1.925545	0.652392	-0.000077
1289	1.2816e+02	-11.3259	76.459314	0.000324	3.243022	1.098766	-0.000130
1290	1.2826e+02	-11.3628	76.350311	0.000274	2.736300	0.927084	-0.000110
1291	1.2835e+02	-11.3997	76.229197	0.000304	3.040334	1.030093	-0.000122
1292	1.2845e+02	-11.4478	76.168640	0.000152	1.520167	0.515046	-0.000061
1293	1.2855e+02	-11.4751	76.035414	0.000334	3.344367	1.133102	-0.000134
1294	1.2865e+02	-11.5248	75.938523	0.000243	2.432267	0.824074	-0.000097
1295	1.2875e+02	-11.5649	75.841632	0.000243	2.432267	0.824074	-0.000097
1296	1.2885e+02	-11.5938	75.744741	0.000243	2.432267	0.824074	-0.000097
1297	1.2895e+02	-11.6435	75.603441	0.000355	3.547056	1.201775	-0.000142
1298	1.2905e+02	-11.6804	75.486364	0.000294	2.938989	0.995756	-0.000118
1299	1.2915e+02	-11.7173	75.405621	0.000203	2.026889	0.686729	-0.000081
1300	1.2925e+02	-11.7622	75.280470	0.000314	3.141678	1.064429	-0.000126
1301	1.2935e+02	-11.7927	75.195690	0.000213	2.128233	0.721065	-0.000085
1302	1.2945e+02	-11.8457	75.074576	0.000304	3.040334	1.030093	-0.000122
1303	1.2955e+02	-11.8729	74.957499	0.000294	2.938989	0.995756	-0.000118
1304	1.2965e+02	-11.9243	74.852534	0.000263	2.634956	0.892747	-0.000105
1305	1.2975e+02	-11.9596	74.771791	0.000203	2.026889	0.686729	-0.000081
1306	1.2985e+02	-11.9836	74.678937	0.000233	2.330922	0.789738	-0.000093
1307	1.2995e+02	-12.0366	74.573971	0.000263	2.634956	0.892747	-0.000105
1308	1.3005e+02	-12.0767	74.448820	0.000314	3.141678	1.064429	-0.000126
1309	1.3015e+02	-12.1104	74.351929	0.000243	2.432267	0.824074	-0.000097
1310	1.3025e+02	-12.1569	74.246963	0.000263	2.634956	0.892747	-0.000105
1311	1.3034e+02	-12.2018	74.117775	0.000324	3.243022	1.098766	-0.000130
1312	1.3044e+02	-12.2419	74.041069	0.000193	1.925545	0.652392	-0.000077
1313	1.3054e+02	-12.2740	73.928030	0.000284	2.837645	0.961420	-0.000114
1314	1.3064e+02	-12.3221	73.843250	0.000213	2.128233	0.721065	-0.000085
1315	1.3074e+02	-12.3526	73.726173	0.000294	2.938989	0.995756	-0.000118
1316	1.3084e+02	-12.3959	73.613133	0.000284	2.837645	0.961420	-0.000114
1317	1.3094e+02	-12.4344	73.516242	0.000243	2.432267	0.824074	-0.000097
1318	1.3104e+02	-12.4777	73.395128	0.000304	3.040334	1.030093	-0.000122
1319	1.3114e+02	-12.5082	73.346682	0.000122	1.216133	0.412037	-0.000049
1320	1.3124e+02	-12.5531	73.201345	0.000365	3.648400	1.236111	-0.000146
1321	1.3134e+02	-12.5996	73.100417	0.000253	2.533611	0.858411	-0.000101
1322	1.3144e+02	-12.6285	72.999488	0.000253	2.533611	0.858411	-0.000101
1323	1.3154e+02	-12.6718	72.890486	0.000274	2.736300	0.927084	-0.000110
1324	1.3164e+02	-12.7119	72.781483	0.000274	2.736300	0.927084	-0.000110
1325	1.3174e+02	-12.7553	72.684592	0.000243	2.432267	0.824074	-0.000097
1326	1.3184e+02	-12.8050	72.591738	0.000233	2.330922	0.789738	-0.000093
1327	1.3194e+02	-12.8371	72.458512	0.000334	3.344367	1.133102	-0.000134
1328	1.3204e+02	-12.8692	72.377770	0.000203	2.026889	0.686729	-0.000081
1329	1.3214e+02	-12.9173	72.284915	0.000233	2.330922	0.789738	-0.000093
1330	1.3224e+02	-12.9654	72.196098	0.000223	2.229578	0.755401	-0.000089
1331	1.3234e+02	-12.9847	72.079021	0.000294	2.938989	0.995756	-0.000118
1332	1.3243e+02	-13.0312	72.002316	0.000193	1.925545	0.652392	-0.000077
1333	1.3253e+02	-13.0729	71.881202	0.000304	3.040334	1.030093	-0.000122
1334	1.3263e+02	-13.1146	71.743939	0.000345	3.445711	1.167439	-0.000138
1335	1.3273e+02	-13.1451	71.643011	0.000253	2.533611	0.858411	-0.000101
1336	1.3283e+02	-13.1980	71.529971	0.000284	2.837645	0.961420	-0.000114
1337	1.3293e+02	-13.2253	71.437117	0.000233	2.330922	0.789738	-0.000093
1338	1.3303e+02	-13.2782	71.364448	0.000182	1.824200	0.618056	-0.000073
1339	1.3313e+02	-13.3119	71.255446	0.000274	2.736300	0.927084	-0.000110
1340	1.3323e+02	-13.3440	71.182777	0.000182	1.824200	0.618056	-0.000073
1341	1.3333e+02	-13.3889	71.093960	0.000223	2.229578	0.755401	-0.000089
1342	1.3343e+02	-13.4354	70.972846	0.000304	3.040334	1.030093	-0.000122
1343	1.3353e+02	-13.4723	70.847695	0.000314	3.141678	1.064429	-0.000126
1344	1.3363e+02	-13.5125	70.758878	0.000223	2.229578	0.755401	-0.000089
1345	1.3373e+02	-13.5654	70.633727	0.000314	3.141678	1.064429	-0.000126
1346	1.3383e+02	-13.5911	70.516650	0.000294	2.938989	0.995756	-0.000118
1347	1.3393e+02	-13.6360	70.439944	0.000193	1.925545	0.652392	-0.000077
1348	1.3403e+02	-13.6713	70.290570	0.000375	3.749745	1.270448	-0.000150
1349	1.3413e+02	-13.7050	70.230013	0.000152	1.520167	0.515046	-0.000061
1350	1.3423e+02	-13.7627	70.129085	0.000253	2.533611	0.858411	-0.000101
1351	1.3432e+02	-13.7868	70.028157	0.000253	2.533611	0.858411	-0.000101
1352	1.3442e+02	-13.8269	69.903005	0.000314	3.141678	1.064429	-0.000126
1353	1.3452e+02	-13.8718	69.842448	0.000152	1.520167	0.515046	-0.000061
1354	1.3462e+02	-13.9071	69.725371	0.000294	2.938989	0.995756	-0.000118
1355	1.3472e+02	-13.9472	69.648666	0.000193	1.925545	0.652392	-0.000077
1356	1.3482e+02	-13.9857	69.519477	0.000324	3.243022	1.098766	-0.000130
1357	1.3492e+02	-14.0290	69.386252	0.000334	3.344367	1.133102	-0.000134
1358	1.3502e+02	-14.0739	69.313583	0.000182	1.824200	0.618056	-0.000073
1359	1.3512e+02	-14.1044	69.188432	0.000314	3.141678	1.064429	-0.000126
1360	1.3522e+02	-14.1477	69.131912	0.000142	1.418822	0.480710	-0.000057
1361	1.3532e+02	-14.1926	69.010798	0.000304	3.040334	1.030093	-0.000122
1362	1.3542e+02	-14.2295	68.901796	0.000274	2.736300	0.927084	-0.000110
1363	1.3552e+02	-14.2680	68.792793	0.000274	2.736300	0.927084	-0.000110
1364	1.3562e+02	-14.3114	68.703976	0.000223	2.229578	0.755401	-0.000089
1365	1.3572e+02	-14.3499	68.607085	0.000243	2.432267	0.824074	-0.000097
1366	1.3582e+02	-14.3932	68.494045	0.000284	2.837645	0.961420	-0.000114
1367	1.3592e+02	-14.4285	68.405228	0.000223	2.229578	0.755401	-0.000089
1368	1.3602e+02	-14.4686	68.352745	0.000132	1.317478	0.446374	-0.000053
1369	1.3612e+02	-14.5119	68.211445	0.000355	3.547056	1.201775	-0.000142
1370	1.3622e+02	-14.5472	68.102443	0.000274	2.736300	0.927084	-0.000110
1371	1.3631e+02	-14.5905	68.009589	0.000233	2.330922	0.789738	-0.000093
1372	1.3641e+02	-14.6242	67.892512	0.000294	2.938989	0.995756	-0.000118
1373	1.3651e+02	-14.6627	67.860215	0.000081	0.810756	0.274691	-0.000032
1374	1.3661e+02	-14.7044	67.710841	0.000375	3.749745	1.270448	-0.000150
1375	1.3671e+02	-14.7397	67.622024	0.000223	2.229578	0.755401	-0.000089
1376	1.3681e+02	-14.7862	67.533207	0.000223	2.229578	0.755401	-0.000089
1377	1.3691e+02	-14.8295	67.416130	0.000294	2.938989	0.995756	-0.000118
1378	1.3701e+02	-14.8568	67.323276	0.000233	2.330922	0.789738	-0.000093
1379	1.3711e+02	-14.9001	67.218310	0.000263	2.634956	0.892747	-0.000105
1380	1.3721e+02	-14.9466	67.097196	0.000304	3.040334	1.030093	-0.000122
1381	1.3731e+02	-14.9932	66.992230	0.000263	2.634956	0.892747	-0.000105
1382	1.3741e+02	-15.0268	66.923599	0.000172	1.722856	0.583719	-0.000069
1383	1.3751e+02	-15.0670	66.814596	0.000274	2.736300	0.927084	-0.000110
1384	1.3761e+02	-15.1022	66.758077	0.000142	1.418822	0.480710	-0.000057
1385	1.3771e+02	-15.1488	66.620814	0.000345	3.445711	1.167439	-0.000138
1386	1.3781e+02	-15.1857	66.536034	0.000213	2.128233	0.721065	-0.000085
1387	1.3791e+02	-15.2274	66.370512	0.000416	4.155123	1.407794	-0.000166
1388	1.3801e+02	-15.2627	66.305917	0.000162	1.621511	0.549383	-0.000065
1389	1.3811e+02	-15.3044	66.245360	0.000152	1.520167	0.515046	-0.000061
1390	1.3821e+02	-15.3445	66.091949	0.000385	3.851089	1.304784	-0.000154
1391	1.3831e+02	-15.3846	66.035429	0.000142	1.418822	0.480710	-0.000057
1392	1.3840e+02	-15.4311	65.914315	0.000304	3.040334	1.030093	-0.000122
1393	1.3850e+02	-15.4680	65.781090	0.000334	3.344367	1.133102	-0.000134
1394	1.3860e+02	-15.4969	65.724570	0.000142	1.418822	0.480710	-0.000057
1395	1.3870e+02	-15.5498	65.607493	0.000294	2.938989	0.995756	-0.000118
1396	1.3880e+02	-15.5819	65.506564	0.000253	2.533611	0.858411	-0.000101
1397	1.3890e+02	-15.6188	65.437933	0.000172	1.722856	0.583719	-0.000069
1398	1.3900e+02	-15.6734	65.308745	0.000324	3.243022	1.098766	-0.000130
1399	1.3910e+02	-15.7006	65.252225	0.000142	1.418822	0.480710	-0.000057
1400	1.3920e+02	-15.7471	65.139185	0.000284	2.837645	0.961420	-0.000114
1401	1.3930e+02	-15.7760	65.042294	0.000243	2.432267	0.824074	-0.000097
1402	1.3940e+02	-15.8290	64.961551	0.000203	2.026889	0.686729	-0.000081
1403	1.3950e+02	-15.8755	64.840437	0.000304	3.040334	1.030093	-0.000122
1404	1.3960e+02	-15.9028	64.703174	0.000345	3.445711	1.167439	-0.000138
1405	1.3970e+02	-15.9461	64.638580	0.000162	1.621511	0.549383	-0.000065
1406	1.3980e+02	-15.9878	64.505355	0.000334	3.344367	1.133102	-0.000134
1407	1.3990e+02	-16.0118	64.428649	0.000193	1.925545	0.652392	-0.000077
1408	1.4000e+02	-16.0600	64.319647	0.000274	2.736300	0.927084	-0.000110
1409	1.4010e+02	-16.1081	64.246978	0.000182	1.824200	0.618056	-0.000073
1410	1.4020e+02	-16.1434	64.117790	0.000324	3.243022	1.098766	-0.000130
1411	1.4029e+02	-16.1723	64.053196	0.000162	1.621511	0.549383	-0.000065
1412	1.4039e+02	-16.2204	63.911896	0.000355	3.547056	1.201775	-0.000142
1413	1.4049e+02	-16.2605	63.855376	0.000142	1.418822	0.480710	-0.000057
1414	1.4059e+02	-16.2990	63.714076	0.000355	3.547056	1.201775	-0.000142
1415	1.4069e+02	-16.3391	63.665631	0.000122	1.216133	0.412037	-0.000049
1416	1.4079e+02	-16.3840	63.548554	0.000294	2.938989	0.995756	-0.000118
1417	1.4089e+02	-16.4193	63.463774	0.000213	2.128233	0.721065	-0.000085
1418	1.4099e+02	-16.4594	63.330548	0.000334	3.344367	1.133102	-0.000134
1419	1.4109e+02	-16.4947	63.241731	0.000223	2.229578	0.755401	-0.000089
1420	1.4119e+02	-16.5428	63.156951	0.000213	2.128233	0.721065	-0.000085
1421	1.4129e+02	-16.5765	63.043912	0.000284	2.837645	0.961420	-0.000114
1422	1.4139e+02	-16.6231	62.967206	0.000193	1.925545	0.652392	-0.000077
1423	1.4149e+02	-16.6600	62.858203	0.000274	2.736300	0.927084	-0.000110
1424	1.4159e+02	-16.6904	62.777461	0.000203	2.026889	0.686729	-0.000081
1425	1.4169e+02	-16.7305	62.656347	0.000304	3.040334	1.030093	-0.000122
1426	1.4179e+02	-16.7803	62.583678	0.000182	1.824200	0.618056	-0.000073
1427	1.4189e+02	-16.8172	62.466601	0.000294	2.938989	0.995756	-0.000118
1428	1.4199e+02	-16.8701	62.341450	0.000314	3.141678	1.064429	-0.000126
1429	1.4209e+02	-16.8958	62.276856	0.000162	1.621511	0.549383	-0.000065
1430	1.4219e+02	-16.9327	62.143630	0.000334	3.344367	1.133102	-0.000134
1431	1.4228e+02	-16.9808	62.050776	0.000233	2.330922	0.789738	-0.000093
1432	1.4238e+02	-17.0161	61.970034	0.000203	2.026889	0.686729	-0.000081
1433	1.4248e+02	-17.0578	61.873142	0.000243	2.432267	0.824074	-0.000097
1434	1.4258e+02	-17.1043	61.824697	0.000122	1.216133	0.412037	-0.000049
1435	1.4268e+02	-17.1332	61.671286	0.000385	3.851089	1.304784	-0.000154
1436	1.4278e+02	-17.1749	61.590543	0.000203	2.026889	0.686729	-0.000081
1437	1.4288e+02	-17.2182	61.473466	0.000294	2.938989	0.995756	-0.000118
1438	1.4298e+02	-17.2631	61.412909	0.000152	1.520167	0.515046	-0.000061
1439	1.4308e+02	-17.2952	61.291795	0.000304	3.040334	1.030093	-0.000122
1440	1.4318e+02	-17.3402	61.182792	0.000274	2.736300	0.927084	-0.000110
1441	1.4328e+02	-17.3803	61.041492	0.000355	3.547056	1.201775	-0.000142
1442	1.4338e+02	-17.4123	60.972861	0.000172	1.722856	0.583719	-0.000069
1443	1.4348e+02	-17.4573	60.896155	0.000193	1.925545	0.652392	-0.000077
1444	1.4358e+02	-17.4829	60.783116	0.000284	2.837645	0.961420	-0.000114
1445	1.4368e+02	-17.5359	60.682187	0.000253	2.533611	0.858411	-0.000101
1446	1.4378e+02	-17.5696	60.577222	0.000263	2.634956	0.892747	-0.000105
1447	1.4388e+02	-17.6177	60.520702	0.000142	1.418822	0.480710	-0.000057
1448	1.4398e+02	-17.6546	60.403625	0.000294	2.938989	0.995756	-0.000118
1449	1.4408e+02	-17.7043	60.286548	0.000294	2.938989	0.995756	-0.000118
1450	1.4418e+02	-17.7364	60.209842	0.000193	1.925545	0.652392	-0.000077
1451	1.4428e+02	-17.7669	60.088728	0.000304	3.040334	1.030093	-0.000122
1452	1.4437e+02	-17.8166	59.967614	0.000304	3.040334	1.030093	-0.000122
1453	1.4447e+02	-17.8567	59.907057	0.000152	1.520167	0.515046	-0.000061
1454	1.4457e+02	-17.8856	59.765757	0.000355	3.547056	1.201775	-0.000142
1455	1.4467e+02	-17.9385	59.668866	0.000243	2.432267	0.824074	-0.000097
1456	1.4477e+02	-17.9690	59.592161	0.000193	1.925545	0.652392	-0.000077
1457	1.4487e+02	-18.0139	59.499307	0.000233	2.330922	0.789738	-0.000093
1458	1.4497e+02	-18.0476	59.362044	0.000345	3.445711	1.167439	-0.000138
1459	1.4507e+02	-18.0974	59.269190	0.000233	2.330922	0.789738	-0.000093
1460	1.4517e+02	-18.1326	59.184410	0.000213	2.128233	0.721065	-0.000085
1461	1.4527e+02	-18.1711	59.079444	0.000263	2.634956	0.892747	-0.000105
1462	1.4537e+02	-18.2193	58.998702	0.000203	2.026889	0.686729	-0.000081
1463	1.4547e+02	-18.2530	58.901810	0.000243	2.432267	0.824074	-0.000097
1464	1.4557e+02	-18.3027	58.776659	0.000314	3.141678	1.064429	-0.000126
1465	1.4567e+02	-18.3332	58.720139	0.000142	1.418822	0.480710	-0.000057
1466	1.4577e+02	-18.3685	58.566728	0.000385	3.851089	1.304784	-0.000154
1467	1.4587e+02	-18.4118	58.469837	0.000243	2.432267	0.824074	-0.000097
1468	1.4597e+02	-18.4583	58.397168	0.000182	1.824200	0.618056	-0.000073
1469	1.4607e+02	-18.4936	58.280092	0.000294	2.938989	0.995756	-0.000118
1470	1.4617e+02	-18.5273	58.154940	0.000314	3.141678	1.064429	-0.000126
1471	1.4626e+02	-18.5706	58.058049	0.000243	2.432267	0.824074	-0.000097
1472	1.4636e+02	-18.6203	57.997492	0.000152	1.520167	0.515046	-0.000061
1473	1.4646e+02	-18.6460	57.888489	0.000274	2.736300	0.927084	-0.000110
1474	1.4656e+02	-18.6989	57.787561	0.000253	2.533611	0.858411	-0.000101
1475	1.4666e+02	-18.7390	57.626076	0.000405	4.053778	1.373457	-0.000162
1476	1.4676e+02	-18.7759	57.577630	0.000122	1.216133	0.412037	-0.000049
1477	1.4686e+02	-18.8064	57.488813	0.000223	2.229578	0.755401	-0.000089
1478	1.4696e+02	-18.8513	57.387885	0.000253	2.533611	0.858411	-0.000101
1479	1.4706e+02	-18.8914	57.242548	0.000365	3.648400	1.236111	-0.000146
1480	1.4716e+02	-18.9283	57.169879	0.000182	1.824200	0.618056	-0.000073
1481	1.4726e+02	-18.9765	57.085099	0.000213	2.128233	0.721065	-0.000085
1482	1.4736e+02	-19.0086	57.000319	0.000213	2.128233	0.721065	-0.000085
1483	1.4746e+02	-19.0471	56.867094	0.000334	3.344367	1.133102	-0.000134
1484	1.4756e+02	-19.0904	56.794426	0.000182	1.824200	0.618056	-0.000073
1485	1.4766e+02	-19.1273	56.701571	0.000233	2.330922	0.789738	-0.000093
1486	1.4776e+02	-19.1690	56.564309	0.000345	3.445711	1.167439	-0.000138
1487	1.4786e+02	-19.2123	56.463380	0.000253	2.533611	0.858411	-0.000101
1488	1.4796e+02	-19.2476	56.326118	0.000345	3.445711	1.167439	-0.000138
1489	1.4806e+02	-19.2941	56.237301	0.000223	2.229578	0.755401	-0.000089
1490	1.4816e+02	-19.3310	56.132335	0.000263	2.634956	0.892747	-0.000105
1491	1.4825e+02	-19.3695	56.031407	0.000253	2.533611	0.858411	-0.000101
1492	1.4835e+02	-19.4080	55.938553	0.000233	2.330922	0.789738	-0.000093
1493	1.4845e+02	-19.4497	55.817439	0.000304	3.040334	1.030093	-0.000122
1494	1.4855e+02	-19.4850	55.712473	0.000263	2.634956	0.892747	-0.000105
1495	1.4865e+02	-19.5219	55.647879	0.000162	1.621511	0.549383	-0.000065
1496	1.4875e+02	-19.5684	55.510616	0.000345	3.445711	1.167439	-0.000138
1497	1.4885e+02	-19.5973	55.425837	0.000213	2.128233	0.721065	-0.000085
1498	1.4895e+02	-19.6470	55.316834	0.000274	2.736300	0.927084	-0.000110
1499	1.4905e+02	-19.6887	55.215905	0.000253	2.533611	0.858411	-0.000101
1500	1.4915e+02	-19.7240	55.119014	0.000243	2.432267	0.824074	-0.000097
1501	1.4925e+02	-19.7625	55.014049	0.000263	2.634956	0.892747	-0.000105
1502	1.4935e+02	-19.8091	54.905046	0.000274	2.736300	0.927084	-0.000110
1503	1.4945e+02	-19.8444	54.783932	0.000304	3.040334	1.030093	-0.000122
1504	1.4955e+02	-19.8813	54.695115	0.000223	2.229578	0.755401	-0.000089
1505	1.4965e+02	-19.9294	54.586112	0.000274	2.736300	0.927084	-0.000110
1506	1.4975e+02	-19.9695	54.460961	0.000314	3.141678	1.064429	-0.000126
1507	1.4985e+02	-20.0112	54.376181	0.000213	2.128233	0.721065	-0.000085
1508	1.4995e+02	-19.9663	54.412515	0.000091	0.912100	0.309028	0.000037
1509	1.5005e+02	-19.9278	54.477110	0.000162	1.621511	0.549383	0.000065
1510	1.5015e+02	-19.8845	54.537667	0.000152	1.520167	0.515046	0.000061
1511	1.5025e+02	-19.8460	54.565927	0.000071	0.709411	0.240355	0.000028
1512	1.5034e+02	-19.8187	54.642632	0.000193	1.925545	0.652392	0.000077
1513	1.5044e+02	-19.7641	54.695115	0.000132	1.317478	0.446374	0.000053
1514	1.5054e+02	-19.7273	54.755672	0.000152	1.520167	0.515046	0.000061
1515	1.5064e+02	-19.6823	54.800081	0.000111	1.114789	0.377701	0.000045
1516	1.5074e+02	-19.6438	54.876786	0.000193	1.925545	0.652392	0.000077
1517	1.5084e+02	-19.6117	54.921195	0.000111	1.114789	0.377701	0.000045
1518	1.5094e+02	-19.5588	54.993863	0.000182	1.824200	0.618056	0.000073
1519	1.5104e+02	-19.5251	55.050383	0.000142	1.418822	0.480710	0.000057
1520	1.5114e+02	-19.4850	55.110940	0.000152	1.520167	0.515046	0.000061
1521	1.5124e+02	-19.4449	55.151311	0.000101	1.013445	0.343364	0.000041
1522	1.5134e+02	-19.4032	55.236091	0.000213	2.128233	0.721065	0.000085
1523	1.5144e+02	-19.3695	55.304722	0.000172	1.722856	0.583719	0.000069
1524	1.5154e+02	-19.3326	55.345094	0.000101	1.013445	0.343364	0.000041
1525	1.5164e+02	-19.2829	55.417762	0.000182	1.824200	0.618056	0.000073
1526	1.5174e+02	-19.2524	55.478319	0.000152	1.520167	0.515046	0.000061
1527	1.5184e+02	-19.2139	55.550988	0.000182	1.824200	0.618056	0.000073
1528	1.5194e+02	-19.1690	55.635768	0.000213	2.128233	0.721065	0.000085
1529	1.5204e+02	-19.1257	55.708436	0.000182	1.824200	0.618056	0.000073
1530	1.5214e+02	-19.0904	55.764956	0.000142	1.418822	0.480710	0.000057
1531	1.5224e+02	-19.0390	55.821476	0.000142	1.418822	0.480710	0.000057
1532	1.5233e+02	-19.0134	55.882033	0.000152	1.520167	0.515046	0.000061
1533	1.5243e+02	-18.9701	55.991036	0.000274	2.736300	0.927084	0.000110
1534	1.5253e+02	-18.9364	56.027370	0.000091	0.912100	0.309028	0.000037
1535	1.5263e+02	-18.8914	56.124261	0.000243	2.432267	0.824074	0.000097
1536	1.5273e+02	-18.8626	56.192892	0.000172	1.722856	0.583719	0.000069
1537	1.5283e+02	-18.7952	56.253449	0.000152	1.520167	0.515046	0.000061
1538	1.5293e+02	-18.7727	56.330155	0.000193	1.925545	0.652392	0.000077
1539	1.5303e+02	-18.7278	56.394749	0.000162	1.621511	0.549383	0.000065
1540	1.5313e+02	-18.6973	56.467418	0.000182	1.824200	0.618056	0.000073
1541	1.5323e+02	-18.6428	56.532012	0.000162	1.621511	0.549383	0.000065
1542	1.5333e+02	-18.6123	56.612754	0.000203	2.026889	0.686729	0.000081
1543	1.5343e+02	-18.5738	56.681386	0.000172	1.722856	0.583719	0.000069
1544	1.5353e+02	-18.5369	56.766166	0.000213	2.128233	0.721065	0.000085
1545	1.5363e+02	-18.4904	56.834797	0.000172	1.722856	0.583719	0.000069
1546	1.5373e+02	-18.4519	56.891317	0.000142	1.418822	0.480710	0.000057
1547	1.5383e+02	-18.4134	56.984171	0.000233	2.330922	0.789738	0.000093
1548	1.5393e+02	-18.3797	57.077025	0.000233	2.330922	0.789738	0.000093
1549	1.5403e+02	-18.3380	57.113359	0.000091	0.912100	0.309028	0.000037
1550	1.5413e+02	-18.2818	57.181991	0.000172	1.722856	0.583719	0.000069
1551	1.5422e+02	-18.2481	57.270808	0.000223	2.229578	0.755401	0.000089
1552	1.5432e+02	-18.2096	57.339439	0.000172	1.722856	0.583719	0.000069
1553	1.5442e+02	-18.1727	57.395959	0.000142	1.418822	0.480710	0.000057
1554	1.5452e+02	-18.1294	57.500924	0.000263	2.634956	0.892747	0.000105
1555	1.5462e+02	-18.0957	57.593778	0.000233	2.330922	0.789738	0.000093
1556	1.5472e+02	-18.0556	57.666447	0.000182	1.824200	0.618056	0.000073
1557	1.5482e+02	-18.0155	57.759301	0.000233	2.330922	0.789738	0.000093
1558	1.5492e+02	-17.9770	57.783524	0.000061	0.608067	0.206019	0.000024
1559	1.5502e+02	-17.9337	57.888489	0.000263	2.634956	0.892747	0.000105
1560	1.5512e+02	-17.8904	57.953084	0.000162	1.621511	0.549383	0.000065
1561	1.5522e+02	-17.8599	58.005566	0.000132	1.317478	0.446374	0.000053
1562	1.5532e+02	-17.8102	58.086309	0.000203	2.026889	0.686729	0.000081
1563	1.5542e+02	-17.7749	58.150903	0.000162	1.621511	0.549383	0.000065
1564	1.5552e+02	-17.7364	58.251832	0.000253	2.533611	0.858411	0.000101
1565	1.5562e+02	-17.6963	58.344686	0.000233	2.330922	0.789738	0.000093
1566	1.5572e+02	-17.6530	58.413317	0.000172	1.722856	0.583719	0.000069
1567	1.5582e+02	-17.6097	58.494060	0.000203	2.026889	0.686729	0.000081
1568	1.5592e+02	-17.5760	58.566728	0.000182	1.824200	0.618056	0.000073
1569	1.5602e+02	-17.5407	58.619211	0.000132	1.317478	0.446374	0.000053
1570	1.5612e+02	-17.4910	58.708028	0.000223	2.229578	0.755401	0.000089
1571	1.5622e+02	-17.4541	58.796845	0.000223	2.229578	0.755401	0.000089
1572	1.5631e+02	-17.4220	58.889699	0.000233	2.330922	0.789738	0.000093
1573	1.5641e+02	-17.3803	58.934108	0.000111	1.114789	0.377701	0.000045
1574	1.5651e+02	-17.3418	59.047147	0.000284	2.837645	0.961420	0.000114
1575	1.5661e+02	-17.2968	59.095593	0.000122	1.216133	0.412037	0.000049
1576	1.5671e+02	-17.2423	59.200558	0.000263	2.634956	0.892747	0.000105
1577	1.5681e+02	-17.2246	59.253041	0.000132	1.317478	0.446374	0.000053
1578	1.5691e+02	-17.1797	59.345895	0.000233	2.330922	0.789738	0.000093
1579	1.5701e+02	-17.1348	59.386267	0.000101	1.013445	0.343364	0.000041
1580	1.5711e+02	-17.0979	59.491232	0.000263	2.634956	0.892747	0.000105
1581	1.5721e+02	-17.0642	59.580049	0.000223	2.229578	0.755401	0.000089
1582	1.5731e+02	-17.0193	59.668866	0.000223	2.229578	0.755401	0.000089
1583	1.5741e+02	-16.9792	59.765757	0.000243	2.432267	0.824074	0.000097
1584	1.5751e+02	-16.9391	59.814203	0.000122	1.216133	0.412037	0.000049
1585	1.5761e+02	-16.8894	59.878797	0.000162	1.621511	0.549383	0.000065
1586	1.5771e+02	-16.8685	59.983763	0.000263	2.634956	0.892747	0.000105
1587	1.5781e+02	-16.8124	60.076617	0.000233	2.330922	0.789738	0.000093
1588	1.5791e+02	-16.7835	60.133137	0.000142	1.418822	0.480710	0.000057
1589	1.5801e+02	-16.7434	60.242139	0.000274	2.736300	0.927084	0.000110
1590	1.5811e+02	-16.7017	60.286548	0.000111	1.114789	0.377701	0.000045
1591	1.5821e+02	-16.6600	60.395551	0.000274	2.736300	0.927084	0.000110
1592	1.5830e+02	-16.6215	60.456108	0.000152	1.520167	0.515046	0.000061
1593	1.5840e+02	-16.5830	60.536850	0.000203	2.026889	0.686729	0.000081
1594	1.5850e+02	-16.5461	60.645853	0.000274	2.736300	0.927084	0.000110
1595	1.5860e+02	-16.5043	60.730633	0.000213	2.128233	0.721065	0.000085
1596	1.5870e+02	-16.4626	60.803301	0.000182	1.824200	0.618056	0.000073
1597	1.5880e+02	-16.4209	60.847710	0.000111	1.114789	0.377701	0.000045
1598	1.5890e+02	-16.3808	60.924415	0.000193	1.925545	0.652392	0.000077
1599	1.5900e+02	-16.3391	61.041492	0.000294	2.938989	0.995756	0.000118
1600	1.5910e+02	-16.2990	61.093975	0.000132	1.317478	0.446374	0.000053
1601	1.5920e+02	-16.2573	61.202978	0.000274	2.736300	0.927084	0.000110
1602	1.5930e+02	-16.2172	61.279683	0.000193	1.925545	0.652392	0.000077
1603	1.5940e+02	-16.1803	61.364463	0.000213	2.128233	0.721065	0.000085
1604	1.5950e+02	-16.1418	61.441169	0.000193	1.925545	0.652392	0.000077
1605	1.5960e+02	-16.1017	61.525949	0.000213	2.128233	0.721065	0.000085
1606	1.5970e+02	-16.0728	61.634951	0.000274	2.736300	0.927084	0.000110
1607	1.5980e+02	-16.0247	61.699545	0.000162	1.621511	0.549383	0.000065
1608	1.5990e+02	-15.9798	61.776251	0.000193	1.925545	0.652392	0.000077
1609	1.6000e+02	-15.9445	61.840845	0.000162	1.621511	0.549383	0.000065
1610	1.6010e+02	-15.9028	61.937736	0.000243	2.432267	0.824074	0.000097
1611	1.6019e+02	-15.8610	62.018479	0.000203	2.026889	0.686729	0.000081
1612	1.6029e+02	-15.8274	62.099222	0.000203	2.026889	0.686729	0.000081
1613	1.6039e+02	-15.7744	62.188039	0.000223	2.229578	0.755401	0.000089
1614	1.6049e+02	-15.7359	62.268782	0.000203	2.026889	0.686729	0.000081
1615	1.6059e+02	-15.6990	62.333376	0.000162	1.621511	0.549383	0.000065
1616	1.6069e+02	-15.6589	62.442378	0.000274	2.736300	0.927084	0.000110
1617	1.6079e+02	-15.6236	62.506973	0.000162	1.621511	0.549383	0.000065
1618	1.6089e+02	-15.5819	62.611938	0.000263	2.634956	0.892747	0.000105
1619	1.6099e+02	-15.5482	62.676532	0.000162	1.621511	0.549383	0.000065
1620	1.6109e+02	-15.5033	62.749201	0.000182	1.824200	0.618056	0.000073
1621	1.6119e+02	-15.4744	62.854166	0.000263	2.634956	0.892747	0.000105
1622	1.6129e+02	-15.4231	62.918760	0.000162	1.621511	0.549383	0.000065
1623	1.6139e+02	-15.3862	63.027763	0.000274	2.736300	0.927084	0.000110
1624	1.6149e+02	-15.3413	63.128692	0.000253	2.533611	0.858411	0.000101
1625	1.6159e+02	-15.2980	63.177137	0.000122	1.216133	0.412037	0.000049
1626	1.6169e+02	-15.2707	63.261917	0.000213	2.128233	0.721065	0.000085
1627	1.6179e+02	-15.2194	63.354771	0.000233	2.330922	0.789738	0.000093
1628	1.6189e+02	-15.1873	63.467811	0.000284	2.837645	0.961420	0.000114
1629	1.6199e+02	-15.1343	63.528368	0.000152	1.520167	0.515046	0.000061
1630	1.6209e+02	-15.1006	63.649482	0.000304	3.040334	1.030093	0.000122
1631	1.6219e+02	-15.0654	63.673705	0.000061	0.608067	0.206019	0.000024
1632	1.6228e+02	-15.0204	63.778670	0.000263	2.634956	0.892747	0.000105
1633	1.6238e+02	-14.9964	63.863450	0.000213	2.128233	0.721065	0.000085
1634	1.6248e+02	-14.9482	63.932082	0.000172	1.722856	0.583719	0.000069
1635	1.6258e+02	-14.9033	64.028973	0.000243	2.432267	0.824074	0.000097
1636	1.6268e+02	-14.8648	64.113753	0.000213	2.128233	0.721065	0.000085
1637	1.6278e+02	-14.8263	64.182384	0.000172	1.722856	0.583719	0.000069
1638	1.6288e+02	-14.7878	64.291387	0.000274	2.736300	0.927084	0.000110
1639	1.6298e+02	-14.7493	64.388278	0.000243	2.432267	0.824074	0.000097
1640	1.6308e+02	-14.7124	64.452872	0.000162	1.621511	0.549383	0.000065
1641	1.6318e+02	-14.6691	64.573986	0.000304	3.040334	1.030093	0.000122
1642	1.6328e+02	-14.6226	64.634543	0.000152	1.520167	0.515046	0.000061
1643	1.6338e+02	-14.5921	64.751620	0.000294	2.938989	0.995756	0.000118
1644	1.6348e+02	-14.5456	64.820251	0.000172	1.722856	0.583719	0.000069
1645	1.6358e+02	-14.5087	64.909068	0.000223	2.229578	0.755401	0.000089
1646	1.6368e+02	-14.4686	64.969625	0.000152	1.520167	0.515046	0.000061
1647	1.6378e+02	-14.4269	65.058442	0.000223	2.229578	0.755401	0.000089
1648	1.6388e+02	-14.3900	65.143222	0.000213	2.128233	0.721065	0.000085
1649	1.6398e+02	-14.3627	65.252225	0.000274	2.736300	0.927084	0.000110
1650	1.6408e+02	-14.3065	65.324893	0.000182	1.824200	0.618056	0.000073
1651	1.6418e+02	-14.2648	65.413710	0.000223	2.229578	0.755401	0.000089
1652	1.6427e+02	-14.2247	65.506564	0.000233	2.330922	0.789738	0.000093
1653	1.6437e+02	-14.1926	65.550973	0.000111	1.114789	0.377701	0.000045
1654	1.6447e+02	-14.1509	65.672087	0.000304	3.040334	1.030093	0.000122
1655	1.6457e+02	-14.1092	65.760904	0.000223	2.229578	0.755401	0.000089
1656	1.6467e+02	-14.0739	65.857795	0.000243	2.432267	0.824074	0.000097
1657	1.6477e+02	-14.0322	65.938538	0.000203	2.026889	0.686729	0.000081
1658	1.6487e+02	-13.9937	66.059652	0.000304	3.040334	1.030093	0.000122
1659	1.6497e+02	-13.9552	66.108098	0.000122	1.216133	0.412037	0.000049
1660	1.6507e+02	-13.9023	66.233249	0.000314	3.141678	1.064429	0.000126
1661	1.6517e+02	-13.8670	66.305917	0.000182	1.824200	0.618056	0.000073
1662	1.6527e+02	-13.8237	66.406846	0.000253	2.533611	0.858411	0.000101
1663	1.6537e+02	-13.7884	66.495663	0.000223	2.229578	0.755401	0.000089
1664	1.6547e+02	-13.7531	66.531997	0.000091	0.912100	0.309028	0.000037
1665	1.6557e+02	-13.7114	66.632925	0.000253	2.533611	0.858411	0.000101
1666	1.6567e+02	-13.6649	66.733854	0.000253	2.533611	0.858411	0.000101
1667	1.6577e+02	-13.6360	66.810559	0.000193	1.925545	0.652392	0.000077
1668	1.6587e+02	-13.5975	66.919562	0.000274	2.736300	0.927084	0.000110
1669	1.6597e+02	-13.5558	66.992230	0.000182	1.824200	0.618056	0.000073
1670	1.6607e+02	-13.5060	67.117382	0.000314	3.141678	1.064429	0.000126
1671	1.6616e+02	-13.4659	67.165827	0.000122	1.216133	0.412037	0.000049
1672	1.6626e+02	-13.4354	67.246570	0.000203	2.026889	0.686729	0.000081
1673	1.6636e+02	-13.3969	67.343461	0.000243	2.432267	0.824074	0.000097
1674	1.6646e+02	-13.3520	67.432278	0.000223	2.229578	0.755401	0.000089
1675	1.6656e+02	-13.3103	67.561467	0.000324	3.243022	1.098766	0.000130
1676	1.6666e+02	-13.2670	67.630098	0.000172	1.722856	0.583719	0.000069
1677	1.6676e+02	-13.2301	67.706803	0.000193	1.925545	0.652392	0.000077
1678	1.6686e+02	-13.1916	67.787546	0.000203	2.026889	0.686729	0.000081
1679	1.6696e+02	-13.1563	67.884437	0.000243	2.432267	0.824074	0.000097
1680	1.6706e+02	-13.1050	67.981329	0.000243	2.432267	0.824074	0.000097
1681	1.6716e+02	-13.0777	68.086294	0.000263	2.634956	0.892747	0.000105
1682	1.6726e+02	-13.0280	68.199334	0.000284	2.837645	0.961420	0.000114
1683	1.6736e+02	-13.0007	68.235668	0.000091	0.912100	0.309028	0.000037
1684	1.6746e+02	-12.9558	68.308337	0.000182	1.824200	0.618056	0.000073
1685	1.6756e+02	-12.9141	68.449636	0.000355	3.547056	1.201775	0.000142
1686	1.6766e+02	-12.8676	68.494045	0.000111	1.114789	0.377701	0.000045
1687	1.6776e+02	-12.8290	68.647456	0.000385	3.851089	1.304784	0.000154
1688	1.6786e+02	-12.7986	68.679753	0.000081	0.810756	0.274691	0.000032
1689	1.6796e+02	-12.7633	68.800867	0.000304	3.040334	1.030093	0.000122
1690	1.6806e+02	-12.7216	68.885647	0.000213	2.128233	0.721065	0.000085
1691	1.6816e+02	-12.6654	69.010798	0.000314	3.141678	1.064429	0.000126
1692	1.6825e+02	-12.6301	69.083467	0.000182	1.824200	0.618056	0.000073
1693	1.6835e+02	-12.5964	69.180358	0.000243	2.432267	0.824074	0.000097
1694	1.6845e+02	-12.5595	69.273212	0.000233	2.330922	0.789738	0.000093
1695	1.6855e+02	-12.5226	69.349918	0.000193	1.925545	0.652392	0.000077
1696	1.6865e+02	-12.4825	69.458920	0.000274	2.736300	0.927084	0.000110
1697	1.6875e+02	-12.4344	69.515440	0.000142	1.418822	0.480710	0.000057
1698	1.6885e+02	-12.4039	69.628480	0.000284	2.837645	0.961420	0.000114
1699	1.6895e+02	-12.3542	69.717297	0.000223	2.229578	0.755401	0.000089
1700	1.6905e+02	-12.3317	69.834374	0.000294	2.938989	0.995756	0.000118
1701	1.6915e+02	-12.2724	69.903005	0.000172	1.722856	0.583719	0.000069
1702	1.6925e+02	-12.2371	70.007971	0.000263	2.634956	0.892747	0.000105
1703	1.6935e+02	-12.1825	70.080639	0.000182	1.824200	0.618056	0.000073
1704	1.6945e+02	-12.1489	70.153308	0.000182	1.824200	0.618056	0.000073
1705	1.6955e+02	-12.1200	70.282496	0.000324	3.243022	1.098766	0.000130
1706	1.6965e+02	-12.0767	70.379387	0.000243	2.432267	0.824074	0.000097
1707	1.6975e+02	-12.0462	70.488390	0.000274	2.736300	0.927084	0.000110
1708	1.6985e+02	-12.0013	70.561058	0.000182	1.824200	0.618056	0.000073
1709	1.6995e+02	-11.9660	70.641801	0.000203	2.026889	0.686729	0.000081
1710	1.7005e+02	-11.9130	70.766952	0.000314	3.141678	1.064429	0.000126
1711	1.7015e+02	-11.8697	70.888066	0.000304	3.040334	1.030093	0.000122
1712	1.7024e+02	-11.8392	70.932475	0.000111	1.114789	0.377701	0.000045
1713	1.7034e+02	-11.7975	71.049552	0.000294	2.938989	0.995756	0.000118
1714	1.7044e+02	-11.7542	71.114146	0.000162	1.621511	0.549383	0.000065
1715	1.7054e+02	-11.7285	71.227186	0.000284	2.837645	0.961420	0.000114
1716	1.7064e+02	-11.6772	71.295817	0.000172	1.722856	0.583719	0.000069
1717	1.7074e+02	-11.6419	71.404820	0.000274	2.736300	0.927084	0.000110
1718	1.7084e+02	-11.6066	71.489600	0.000213	2.128233	0.721065	0.000085
1719	1.7094e+02	-11.5601	71.578417	0.000223	2.229578	0.755401	0.000089
1720	1.7104e+02	-11.5264	71.687419	0.000274	2.736300	0.927084	0.000110
1721	1.7114e+02	-11.4799	71.796422	0.000274	2.736300	0.927084	0.000110
1722	1.7124e+02	-11.4414	71.852942	0.000142	1.418822	0.480710	0.000057
1723	1.7134e+02	-11.4029	71.965982	0.000284	2.837645	0.961420	0.000114
1724	1.7144e+02	-11.3483	72.087096	0.000304	3.040334	1.030093	0.000122
1725	1.7154e+02	-11.3227	72.139579	0.000132	1.317478	0.446374	0.000053
1726	1.7164e+02	-11.2778	72.232433	0.000233	2.330922	0.789738	0.000093
1727	1.7174e+02	-11.2344	72.353547	0.000304	3.040334	1.030093	0.000122
1728	1.7184e+02	-11.2024	72.438327	0.000213	2.128233	0.721065	0.000085
1729	1.7194e+02	-11.1558	72.559441	0.000304	3.040334	1.030093	0.000122
1730	1.7204e+02	-11.1189	72.668443	0.000274	2.736300	0.927084	0.000110
1731	1.7213e+02	-11.0836	72.745149	0.000193	1.925545	0.652392	0.000077
1732	1.7223e+02	-11.0419	72.862226	0.000294	2.938989	0.995756	0.000118
1733	1.7233e+02	-11.0098	72.955080	0.000233	2.330922	0.789738	0.000093
1734	1.7243e+02	-10.9585	73.039860	0.000213	2.128233	0.721065	0.000085
1735	1.7253e+02	-10.9184	73.124640	0.000213	2.128233	0.721065	0.000085
1736	1.7263e+02	-10.8831	73.253828	0.000324	3.243022	1.098766	0.000130
1737	1.7273e+02	-10.8398	73.346682	0.000233	2.330922	0.789738	0.000093
1738	1.7283e+02	-10.7981	73.443573	0.000243	2.432267	0.824074	0.000097
1739	1.7293e+02	-10.7644	73.504130	0.000152	1.520167	0.515046	0.000061
1740	1.7303e+02	-10.7195	73.596985	0.000233	2.330922	0.789738	0.000093
1741	1.7313e+02	-10.6826	73.697913	0.000253	2.533611	0.858411	0.000101
1742	1.7323e+02	-10.6473	73.806916	0.000274	2.736300	0.927084	0.000110
1743	1.7333e+02	-10.6072	73.915918	0.000274	2.736300	0.927084	0.000110
1744	1.7343e+02	-10.5655	74.008772	0.000233	2.330922	0.789738	0.000093
1745	1.7353e+02	-10.5190	74.117775	0.000274	2.736300	0.927084	0.000110
1746	1.7363e+02	-10.4821	74.202555	0.000213	2.128233	0.721065	0.000085
1747	1.7373e+02	-10.4452	74.311558	0.000274	2.736300	0.927084	0.000110
1748	1.7383e+02	-10.4018	74.364040	0.000132	1.317478	0.446374	0.000053
1749	1.7393e+02	-10.3698	74.497266	0.000334	3.344367	1.133102	0.000134
1750	1.7403e+02	-10.3281	74.598194	0.000253	2.533611	0.858411	0.000101
1751	1.7413e+02	-10.2799	74.695085	0.000243	2.432267	0.824074	0.000097
1752	1.7422e+02	-10.2430	74.783902	0.000223	2.229578	0.755401	0.000089
1753	1.7432e+02	-10.1917	74.848497	0.000162	1.621511	0.549383	0.000065
1754	1.7442e+02	-10.1612	74.969611	0.000304	3.040334	1.030093	0.000122
1755	1.7452e+02	-10.1243	75.058428	0.000223	2.229578	0.755401	0.000089
1756	1.7462e+02	-10.0858	75.171467	0.000284	2.837645	0.961420	0.000114
1757	1.7472e+02	-10.0489	75.316804	0.000365	3.648400	1.236111	0.000146
1758	1.7482e+02	-10.0024	75.349101	0.000081	0.810756	0.274691	0.000032
1759	1.7492e+02	-9.9607	75.458104	0.000274	2.736300	0.927084	0.000110
1760	1.7502e+02	-9.9254	75.559032	0.000253	2.533611	0.858411	0.000101
1761	1.7512e+02	-9.8821	75.672072	0.000284	2.837645	0.961420	0.000114
1762	1.7522e+02	-9.8420	75.764926	0.000233	2.330922	0.789738	0.000093
1763	1.7532e+02	-9.7970	75.857781	0.000233	2.330922	0.789738	0.000093
1764	1.7542e+02	-9.7521	75.946598	0.000223	2.229578	0.755401	0.000089
1765	1.7552e+02	-9.7233	76.075786	0.000324	3.243022	1.098766	0.000130
1766	1.7562e+02	-9.6912	76.176714	0.000253	2.533611	0.858411	0.000101
1767	1.7572e+02	-9.6479	76.289754	0.000284	2.837645	0.961420	0.000114
1768	1.7582e+02	-9.6061	76.390682	0.000253	2.533611	0.858411	0.000101
1769	1.7592e+02	-9.5709	76.479499	0.000223	2.229578	0.755401	0.000089
1770	1.7602e+02	-9.5211	76.588502	0.000274	2.736300	0.927084	0.000110
1771	1.7612e+02	-9.4842	76.689430	0.000253	2.533611	0.858411	0.000101
1772	1.7621e+02	-9.4393	76.774210	0.000213	2.128233	0.721065	0.000085
1773	1.7631e+02	-9.4088	76.875139	0.000253	2.533611	0.858411	0.000101
1774	1.7641e+02	-9.3687	76.984141	0.000274	2.736300	0.927084	0.000110
1775	1.7651e+02	-9.3254	77.048736	0.000162	1.621511	0.549383	0.000065
1776	1.7661e+02	-9.2949	77.177924	0.000324	3.243022	1.098766	0.000130
1777	1.7671e+02	-9.2420	77.282889	0.000263	2.634956	0.892747	0.000105
1778	1.7681e+02	-9.2067	77.395929	0.000284	2.837645	0.961420	0.000114
1779	1.7691e+02	-9.1634	77.472635	0.000193	1.925545	0.652392	0.000077
1780	1.7701e+02	-9.1297	77.605860	0.000334	3.344367	1.133102	0.000134
1781	1.7711e+02	-9.0976	77.690640	0.000213	2.128233	0.721065	0.000085
1782	1.7721e+02	-9.0543	77.787531	0.000243	2.432267	0.824074	0.000097
1783	1.7731e+02	-9.0046	77.888460	0.000253	2.533611	0.858411	0.000101
1784	1.7741e+02	-8.9677	77.977277	0.000223	2.229578	0.755401	0.000089
1785	1.7751e+02	-8.9324	78.078205	0.000253	2.533611	0.858411	0.000101
1786	1.7761e+02	-8.8891	78.183171	0.000263	2.634956	0.892747	0.000105
1787	1.7771e+02	-8.8457	78.263913	0.000203	2.026889	0.686729	0.000081
1788	1.7781e+02	-8.8121	78.372916	0.000274	2.736300	0.927084	0.000110
1789	1.7791e+02	-8.7607	78.494030	0.000304	3.040334	1.030093	0.000122
1790	1.7801e+02	-8.7350	78.607070	0.000284	2.837645	0.961420	0.000114
1791	1.7810e+02	-8.6901	78.687813	0.000203	2.026889	0.686729	0.000081
1792	1.7820e+02	-8.6516	78.776630	0.000223	2.229578	0.755401	0.000089
1793	1.7830e+02	-8.6099	78.926004	0.000375	3.749745	1.270448	0.000150
1794	1.7840e+02	-8.5698	78.966375	0.000101	1.013445	0.343364	0.000041
1795	1.7850e+02	-8.5361	79.111712	0.000365	3.648400	1.236111	0.000146
1796	1.7860e+02	-8.4928	79.196492	0.000213	2.128233	0.721065	0.000085
1797	1.7870e+02	-8.4575	79.329717	0.000334	3.344367	1.133102	0.000134
1798	1.7880e+02	-8.4078	79.426609	0.000243	2.432267	0.824074	0.000097
1799	1.7890e+02	-8.3741	79.475054	0.000122	1.216133	0.412037	0.000049
1800	1.7900e+02	-8.3260	79.596168	0.000304	3.040334	1.030093	0.000122
1801	1.7910e+02	-8.2827	79.693059	0.000243	2.432267	0.824074	0.000097
1802	1.7920e+02	-8.2474	79.830322	0.000345	3.445711	1.167439	0.000138
1803	1.7930e+02	-8.2153	79.947399	0.000294	2.938989	0.995756	0.000118
1804	1.7940e+02	-8.1704	80.032179	0.000213	2.128233	0.721065	0.000085
1805	1.7950e+02	-8.1303	80.125033	0.000233	2.330922	0.789738	0.000093
1806	1.7960e+02	-8.0918	80.234036	0.000274	2.736300	0.927084	0.000110
1807	1.7970e+02	-8.0581	80.343038	0.000274	2.736300	0.927084	0.000110
1808	1.7980e+02	-8.0115	80.476264	0.000334	3.344367	1.133102	0.000134
1809	1.7990e+02	-7.9746	80.520672	0.000111	1.114789	0.377701	0.000045
1810	1.8000e+02	-7.9345	80.645824	0.000314	3.141678	1.064429	0.000126
1811	1.8009e+02	-7.8976	80.730603	0.000213	2.128233	0.721065	0.000085
1812	1.8019e+02	-7.8495	80.851717	0.000304	3.040334	1.030093	0.000122
1813	1.8029e+02	-7.8142	80.940534	0.000223	2.229578	0.755401	0.000089
1814	1.8039e+02	-7.7709	81.049537	0.000274	2.736300	0.927084	0.000110
1815	1.8049e+02	-7.7324	81.190837	0.000355	3.547056	1.201775	0.000142
1816	1.8059e+02	-7.6971	81.315988	0.000314	3.141678	1.064429	0.000126
1817	1.8069e+02	-7.6458	81.400768	0.000213	2.128233	0.721065	0.000085
1818	1.8079e+02	-7.6153	81.501696	0.000253	2.533611	0.858411	0.000101
1819	1.8089e+02	-7.5768	81.630885	0.000324	3.243022	1.098766	0.000130
1820	1.8099e+02	-7.5383	81.687405	0.000142	1.418822	0.480710	0.000057
1821	1.8109e+02	-7.4854	81.800444	0.000284	2.837645	0.961420	0.000114
1822	1.8119e+02	-7.4517	81.889261	0.000223	2.229578	0.755401	0.000089
1823	1.8129e+02	-7.4180	81.998264	0.000274	2.736300	0.927084	0.000110
1824	1.8139e+02	-7.3714	82.119378	0.000304	3.040334	1.030093	0.000122
1825	1.8149e+02	-7.3281	82.228381	0.000274	2.736300	0.927084	0.000110
1826	1.8159e+02	-7.2848	82.341421	0.000284	2.837645	0.961420	0.000114
1827	1.8169e+02	-7.2543	82.442349	0.000253	2.533611	0.858411	0.000101
1828	1.8179e+02	-7.2126	82.559426	0.000294	2.938989	0.995756	0.000118
1829	1.8189e+02	-7.1677	82.656317	0.000243	2.432267	0.824074	0.000097
1830	1.8199e+02	-7.1356	82.757245	0.000253	2.533611	0.858411	0.000101
1831	1.8209e+02	-7.0971	82.898545	0.000355	3.547056	1.201775	0.000142
1832	1.8218e+02	-7.0602	82.999474	0.000253	2.533611	0.858411	0.000101
1833	1.8228e+02	-7.0105	83.108476	0.000274	2.736300	0.927084	0.000110
1834	1.8238e+02	-6.9816	83.201330	0.000233	2.330922	0.789738	0.000093
1835	1.8248e+02	-6.9303	83.302259	0.000253	2.533611	0.858411	0.000101
1836	1.8258e+02	-6.8918	83.403187	0.000253	2.533611	0.858411	0.000101
1837	1.8268e+02	-6.8485	83.500078	0.000243	2.432267	0.824074	0.000097
1838	1.8278e+02	-6.8116	83.665601	0.000416	4.155123	1.407794	0.000166
1839	1.8288e+02	-6.7843	83.746344	0.000203	2.026889	0.686729	0.000081
1840	1.8298e+02	-6.7346	83.831124	0.000213	2.128233	0.721065	0.000085
1841	1.8308e+02	-6.7025	83.960312	0.000324	3.243022	1.098766	0.000130
1842	1.8318e+02	-6.6656	84.089500	0.000324	3.243022	1.098766	0.000130
1843	1.8328e+02	-6.6207	84.146020	0.000142	1.418822	0.480710	0.000057
1844	1.8338e+02	-6.5758	84.279246	0.000334	3.344367	1.133102	0.000134
1845	1.8348e+02	-6.5308	84.396323	0.000294	2.938989	0.995756	0.000118
1846	1.8358e+02	-6.5004	84.497251	0.000253	2.533611	0.858411	0.000101
1847	1.8368e+02	-6.4602	84.622402	0.000314	3.141678	1.064429	0.000126
1848	1.8378e+02	-6.4250	84.711219	0.000223	2.229578	0.755401	0.000089
1849	1.8388e+02	-6.3865	84.787925	0.000193	1.925545	0.652392	0.000077
1850	1.8398e+02	-6.3431	84.933262	0.000365	3.648400	1.236111	0.000146
1851	1.8407e+02	-6.3143	85.038227	0.000263	2.634956	0.892747	0.000105
1852	1.8417e+02	-6.2597	85.135118	0.000243	2.432267	0.824074	0.000097
1853	1.8427e+02	-6.2244	85.240084	0.000263	2.634956	0.892747	0.000105
1854	1.8437e+02	-6.1795	85.304678	0.000162	1.621511	0.549383	0.000065
1855	1.8447e+02	-6.1394	85.478275	0.000436	4.357811	1.476466	0.000174
1856	1.8457e+02	-6.0993	85.579203	0.000253	2.533611	0.858411	0.000101
1857	1.8467e+02	-6.0608	85.647835	0.000172	1.722856	0.583719	0.000069
1858	1.8477e+02	-6.0143	85.801246	0.000385	3.851089	1.304784	0.000154
1859	1.8487e+02	-5.9838	85.869877	0.000172	1.722856	0.583719	0.000069
1860	1.8497e+02	-5.9373	85.999065	0.000324	3.243022	1.098766	0.000130
1861	1.8507e+02	-5.9004	86.104031	0.000263	2.634956	0.892747	0.000105
1862	1.8517e+02	-5.8603	86.249368	0.000365	3.648400	1.236111	0.000146
1863	1.8527e+02	-5.8266	86.358371	0.000274	2.736300	0.927084	0.000110
1864	1.8537e+02	-5.7913	86.483522	0.000314	3.141678	1.064429	0.000126
1865	1.8547e+02	-5.7432	86.568302	0.000213	2.128233	0.721065	0.000085
1866	1.8557e+02	-5.7014	86.689416	0.000304	3.040334	1.030093	0.000122
1867	1.8567e+02	-5.6501	86.774196	0.000213	2.128233	0.721065	0.000085
1868	1.8577e+02	-5.6276	86.883198	0.000274	2.736300	0.927084	0.000110
1869	1.8587e+02	-5.5875	87.032572	0.000375	3.749745	1.270448	0.000150
1870	1.8597e+02	-5.5458	87.125426	0.000233	2.330922	0.789738	0.000093
1871	1.8606e+02	-5.5009	87.246540	0.000304	3.040334	1.030093	0.000122
1872	1.8616e+02	-5.4656	87.379766	0.000334	3.344367	1.133102	0.000134
1873	1.8626e+02	-5.4255	87.456471	0.000193	1.925545	0.652392	0.000077
1874	1.8636e+02	-5.3854	87.589697	0.000334	3.344367	1.133102	0.000134
1875	1.8646e+02	-5.3421	87.690625	0.000253	2.533611	0.858411	0.000101
1876	1.8656e+02	-5.3100	87.860185	0.000426	4.256467	1.442130	0.000170
1877	1.8666e+02	-5.2699	87.961113	0.000253	2.533611	0.858411	0.000101
1878	1.8676e+02	-5.2170	88.041856	0.000203	2.026889	0.686729	0.000081
1879	1.8686e+02	-5.1865	88.154896	0.000284	2.837645	0.961420	0.000114
1880	1.8696e+02	-5.1496	88.255824	0.000253	2.533611	0.858411	0.000101
1881	1.8706e+02	-5.0999	88.389050	0.000334	3.344367	1.133102	0.000134
1882	1.8716e+02	-5.0678	88.510164	0.000304	3.040334	1.030093	0.000122
1883	1.8726e+02	-5.0341	88.651464	0.000355	3.547056	1.201775	0.000142
1884	1.8736e+02	-4.9892	88.699909	0.000122	1.216133	0.412037	0.000049
1885	1.8746e+02	-4.9507	88.825061	0.000314	3.141678	1.064429	0.000126
1886	1.8756e+02	-4.9122	88.938100	0.000284	2.837645	0.961420	0.000114
1887	1.8766e+02	-4.8672	89.055177	0.000294	2.938989	0.995756	0.000118
1888	1.8776e+02	-4.8255	89.180328	0.000314	3.141678	1.064429	0.000126
1889	1.8786e+02	-4.7918	89.289331	0.000274	2.736300	0.927084	0.000110
1890	1.8796e+02	-4.7501	89.406408	0.000294	2.938989	0.995756	0.000118
1891	1.8806e+02	-4.7020	89.503299	0.000243	2.432267	0.824074	0.000097
1892	1.8815e+02	-4.6667	89.628451	0.000314	3.141678	1.064429	0.000126
1893	1.8825e+02	-4.6282	89.765713	0.000345	3.445711	1.167439	0.000138
1894	1.8835e+02	-4.5897	89.850493	0.000213	2.128233	0.721065	0.000085
1895	1.8845e+02	-4.5480	89.979681	0.000324	3.243022	1.098766	0.000130
1896	1.8855e+02	-4.5063	90.120981	0.000355	3.547056	1.201775	0.000142
1897	1.8865e+02	-4.4646	90.205761	0.000213	2.128233	0.721065	0.000085
1898	1.8875e+02	-4.4229	90.351098	0.000365	3.648400	1.236111	0.000146
1899	1.8885e+02	-4.3844	90.447989	0.000243	2.432267	0.824074	0.000097
1900	1.8895e+02	-4.3523	90.548917	0.000253	2.533611	0.858411	0.000101
1901	1.8905e+02	-4.3074	90.714440	0.000416	4.155123	1.407794	0.000166
1902	1.8915e+02	-4.2624	90.815368	0.000253	2.533611	0.858411	0.000101
1903	1.8925e+02	-4.2239	90.916297	0.000253	2.533611	0.858411	0.000101
1904	1.8935e+02	-4.1903	90.993002	0.000193	1.925545	0.652392	0.000077
1905	1.8945e+02	-4.1518	91.154488	0.000405	4.053778	1.373457	0.000162
1906	1.8955e+02	-4.1116	91.259453	0.000263	2.634956	0.892747	0.000105
1907	1.8965e+02	-4.0667	91.408827	0.000375	3.749745	1.270448	0.000150
1908	1.8975e+02	-4.0346	91.497644	0.000223	2.229578	0.755401	0.000089
1909	1.8985e+02	-3.9897	91.602610	0.000263	2.634956	0.892747	0.000105
1910	1.8995e+02	-3.9480	91.715650	0.000284	2.837645	0.961420	0.000114
1911	1.9004e+02	-3.9095	91.848875	0.000334	3.344367	1.133102	0.000134
1912	1.9014e+02	-3.8678	91.941729	0.000233	2.330922	0.789738	0.000093
1913	1.9024e+02	-3.8181	92.091103	0.000375	3.749745	1.270448	0.000150
1914	1.9034e+02	-3.7812	92.220292	0.000324	3.243022	1.098766	0.000130
1915	1.9044e+02	-3.7475	92.321220	0.000253	2.533611	0.858411	0.000101
1916	1.9054e+02	-3.7106	92.430223	0.000274	2.736300	0.927084	0.000110
1917	1.9064e+02	-3.6705	92.555374	0.000314	3.141678	1.064429	0.000126
1918	1.9074e+02	-3.6272	92.692637	0.000345	3.445711	1.167439	0.000138
1919	1.9084e+02	-3.5903	92.813751	0.000304	3.040334	1.030093	0.000122
1920	1.9094e+02	-3.5566	92.942939	0.000324	3.243022	1.098766	0.000130
1921	1.9104e+02	-3.5085	93.060016	0.000294	2.938989	0.995756	0.000118
1922	1.9114e+02	-3.4780	93.173056	0.000284	2.837645	0.961420	0.000114
1923	1.9124e+02	-3.4266	93.278021	0.000263	2.634956	0.892747	0.000105
1924	1.9134e+02	-3.3946	93.415284	0.000345	3.445711	1.167439	0.000138
1925	1.9144e+02	-3.3512	93.487952	0.000182	1.824200	0.618056	0.000073
1926	1.9154e+02	-3.3127	93.645401	0.000395	3.952434	1.339121	0.000158
1927	1.9164e+02	-3.2646	93.750366	0.000263	2.634956	0.892747	0.000105
1928	1.9174e+02	-3.2277	93.875517	0.000314	3.141678	1.064429	0.000126
1929	1.9184e+02	-3.2004	94.008743	0.000334	3.344367	1.133102	0.000134
1930	1.9194e+02	-3.1491	94.117745	0.000274	2.736300	0.927084	0.000110
1931	1.9203e+02	-3.1154	94.234822	0.000294	2.938989	0.995756	0.000118
1932	1.9213e+02	-3.0721	94.364011	0.000324	3.243022	1.098766	0.000130
1933	1.9223e+02	-3.0336	94.489162	0.000314	3.141678	1.064429	0.000126
1934	1.9233e+02	-2.9983	94.598165	0.000274	2.736300	0.927084	0.000110
1935	1.9243e+02	-2.9566	94.719279	0.000304	3.040334	1.030093	0.000122
1936	1.9253e+02	-2.9197	94.884801	0.000416	4.155123	1.407794	0.000166
1937	1.9263e+02	-2.8748	94.961507	0.000193	1.925545	0.652392	0.000077
1938	1.9273e+02	-2.8363	95.118955	0.000395	3.952434	1.339121	0.000158
1939	1.9283e+02	-2.7849	95.199698	0.000203	2.026889	0.686729	0.000081
1940	1.9293e+02	-2.7689	95.312738	0.000284	2.837645	0.961420	0.000114
1941	1.9303e+02	-2.7112	95.470186	0.000395	3.952434	1.339121	0.000158
1942	1.9313e+02	-2.6662	95.607449	0.000345	3.445711	1.167439	0.000138
1943	1.9323e+02	-2.6390	95.708377	0.000253	2.533611	0.858411	0.000101
1944	1.9333e+02	-2.5940	95.821417	0.000284	2.837645	0.961420	0.000114
1945	1.9343e+02	-2.5491	95.978865	0.000395	3.952434	1.339121	0.000158
1946	1.9353e+02	-2.5235	96.075756	0.000243	2.432267	0.824074	0.000097
1947	1.9363e+02	-2.4785	96.233205	0.000395	3.952434	1.339121	0.000158
1948	1.9373e+02	-2.4320	96.301836	0.000172	1.722856	0.583719	0.000069
1949	1.9383e+02	-2.3967	96.455247	0.000385	3.851089	1.304784	0.000154
1950	1.9393e+02	-2.3518	96.564250	0.000274	2.736300	0.927084	0.000110
1951	1.9403e+02	-2.3197	96.701512	0.000345	3.445711	1.167439	0.000138
1952	1.9412e+02	-2.2780	96.798404	0.000243	2.432267	0.824074	0.000097
1953	1.9422e+02	-2.2379	96.951815	0.000385	3.851089	1.304784	0.000154
1954	1.9432e+02	-2.1994	97.072929	0.000304	3.040334	1.030093	0.000122
1955	1.9442e+02	-2.1545	97.185969	0.000284	2.837645	0.961420	0.000114
1956	1.9452e+02	-2.1080	97.299008	0.000284	2.837645	0.961420	0.000114
1957	1.9462e+02	-2.0775	97.432234	0.000334	3.344367	1.133102	0.000134
1958	1.9472e+02	-2.0358	97.561422	0.000324	3.243022	1.098766	0.000130
1959	1.9482e+02	-2.0021	97.702722	0.000355	3.547056	1.201775	0.000142
1960	1.9492e+02	-1.9540	97.771353	0.000172	1.722856	0.583719	0.000069
1961	1.9502e+02	-1.9155	97.936876	0.000416	4.155123	1.407794	0.000166
1962	1.9512e+02	-1.8866	98.070101	0.000334	3.344367	1.133102	0.000134
1963	1.9522e+02	-1.8352	98.203327	0.000334	3.344367	1.133102	0.000134
1964	1.9532e+02	-1.7999	98.308292	0.000263	2.634956	0.892747	0.000105
1965	1.9542e+02	-1.7598	98.473815	0.000416	4.155123	1.407794	0.000166
1966	1.9552e+02	-1.7117	98.566669	0.000233	2.330922	0.789738	0.000093
1967	1.9562e+02	-1.6780	98.703932	0.000345	3.445711	1.167439	0.000138
1968	1.9572e+02	-1.6363	98.816971	0.000284	2.837645	0.961420	0.000114
1969	1.9582e+02	-1.5946	98.925974	0.000274	2.736300	0.927084	0.000110
1970	1.9592e+02	-1.5545	99.099571	0.000436	4.357811	1.476466	0.000174
1971	1.9601e+02	-1.5144	99.236834	0.000345	3.445711	1.167439	0.000138
1972	1.9611e+02	-1.4759	99.321613	0.000213	2.128233	0.721065	0.000085
1973	1.9621e+02	-1.4358	99.475025	0.000385	3.851089	1.304784	0.000154
1974	1.9631e+02	-1.3909	99.604213	0.000324	3.243022	1.098766	0.000130
1975	1.9641e+02	-1.3572	99.713216	0.000274	2.736300	0.927084	0.000110
1976	1.9651e+02	-1.3219	99.830293	0.000294	2.938989	0.995756	0.000118
1977	1.9661e+02	-1.2722	99.975629	0.000365	3.648400	1.236111	0.000146
1978	1.9671e+02	-1.2433	100.100781	0.000314	3.141678	1.064429	0.000126
1979	1.9681e+02	-1.2000	100.217858	0.000294	2.938989	0.995756	0.000118
1980	1.9691e+02	-1.1550	100.355120	0.000345	3.445711	1.167439	0.000138
1981	1.9701e+02	-1.1278	100.496420	0.000355	3.547056	1.201775	0.000142
1982	1.9711e+02	-1.0764	100.609460	0.000284	2.837645	0.961420	0.000114
1983	1.9721e+02	-1.0444	100.742685	0.000334	3.344367	1.133102	0.000134
1984	1.9731e+02	-0.9914	100.883985	0.000355	3.547056	1.201775	0.000142
1985	1.9741e+02	-0.9577	100.997025	0.000284	2.837645	0.961420	0.000114
1986	1.9751e+02	-0.9160	101.110065	0.000284	2.837645	0.961420	0.000114
1987	1.9761e+02	-0.8823	101.255401	0.000365	3.648400	1.236111	0.000146
1988	1.9771e+02	-0.8438	101.384590	0.000324	3.243022	1.098766	0.000130
1989	1.9781e+02	-0.8037	101.501667	0.000294	2.938989	0.995756	0.000118
1990	1.9791e+02	-0.7588	101.651041	0.000375	3.749745	1.270448	0.000150
1991	1.9800e+02	-0.7299	101.780229	0.000324	3.243022	1.098766	0.000130
1992	1.9810e+02	-0.6866	101.897306	0.000294	2.938989	0.995756	0.000118
1993	1.9820e+02	-0.6545	102.054754	0.000395	3.952434	1.339121	0.000158
1994	1.9830e+02	-0.6032	102.155683	0.000253	2.533611	0.858411	0.000101
1995	1.9840e+02	-0.5535	102.301020	0.000365	3.648400	1.236111	0.000146
1996	1.9850e+02	-0.5262	102.422134	0.000304	3.040334	1.030093	0.000122
1997	1.9860e+02	-0.4813	102.599768	0.000446	4.459156	1.510803	0.000179
1998	1.9870e+02	-0.4347	102.716845	0.000294	2.938989	0.995756	0.000118
1999	1.9880e+02	-0.4043	102.829884	0.000284	2.837645	0.961420	0.000114
2000	1.9890e+02	-0.3577	102.971184	0.000355	3.547056	1.201775	0.000142
2001	1.9900e+02	-0.3208	103.084224	0.000284	2.837645	0.961420	0.000114
2002	1.9910e+02	-0.2823	103.225524	0.000355	3.547056	1.201775	0.000142
2003	1.9920e+02	-0.2438	103.358749	0.000334	3.344367	1.133102	0.000134
2004	1.9930e+02	-0.2134	103.496012	0.000345	3.445711	1.167439	0.000138
2005	1.9940e+02	-0.1620	103.633274	0.000345	3.445711	1.167439	0.000138
2006	1.9950e+02	-0.1171	103.738240	0.000263	2.634956	0.892747	0.000105
2007	1.9960e+02	-0.0866	103.887614	0.000375	3.749745	1.270448	0.000150
2008	1.9970e+02	-0.0481	104.024877	0.000345	3.445711	1.167439	0.000138
2009	1.9980e+02	-0.0112	104.182325	0.000345	3.445711	1.167439	0.000158

Center data before PMax,+/-Pr and +/-Vc Calc.

PMax (uC/cm2):	1.83e+01
Pr (uC/cm2):	1.10e+02
-Pr (uC/cm2):	1.04e+02
PLoss (uC/cm2):	2.30e+02
Vc:	1.91e+01
C (Max-Eff) (nF):	9.18e-02
K (Eff):	3.11e+02
Vert. (+/-Pr) Shift (uC/cm2):	1.07e+02
Offset (uC/cm2):	1.26e+02

A (Loop Area - uC/cm2·Volts):	-1.02e+01



Hysteresis Version: 5.48.1 - Radiant Technologies, Inc., 1999 - 9/12/24

