»»»»»»»»»»»»»»»»»»»»»»»»»»»»»»»»»»»» Hysteresis ««««««««««««««««««««««««««««««««««««
»»»  Executed Version:	5.48.1
»»»  Vision Version:	5.48.4 (R)
»»»  Vision Compiled:	9/18/24
»»»  Driver Version:	5.47.0
»»»  Windows Version:	Windows 8 or 8.1
»»»  Processor Information:	x86 (AMD or Intel) - 32 Processors
»»»  Tester Name:	PMF21124-494 (100V)
»»»  Tester S/N:	PMF21124-494
»»»  Internal Amp Type:	100V RevK 270k
»»»  Internal Amp S/N:	iAB2-596/K     
»»»  Execution Count:	1
»»»»»»»»»»»»»»»»»»»»»»»»»»»»»»»»»»»»»»»»»»««««««««««««««««««««««««««««««««««««««««««

Stored:	6/4/2025 - 14:2:24
Configured:	06/04/25 01:46:06 PM
Executed:	06/04/25 02:01:48 PM

»»»»»»»»»»»»»»»»»»»»»»»»»»»»»»»»»»» Sample Info ««««««««««««««««««««««««««««««««««««
Sample Name:	
Lot Name:	
Wafer Name:	
Die Row/Column:	0/0
Capacitor Number:	0
Sample Area (cm2):	1.00e-04
Sample Thickness (microns):	3.00e-01

Amplifier:	Internal

»»»»»»»»»»»»»»»»»»»»»»»»»»»»»»»»»»» Tester Info «««««««««««««««««««««««««««««««««««
Tester Name:	PMF21124-494 (100V)
Tester Serial Number:	PMF21124-494
Return Signal Amp. Level:	0.19 [Index: 3]

»»»»»»»»»»»»»»»»»»»»»»»»»»»»»»»» Hysteresis Info ««««««««««««««««««««««««««««««««««
Task Name:	Hyst-37
Volts:	20.00
Field:	666.67 (kV/cm)
DCBias:	0.00
DCField:	0.00 (kV/cm)
Hysteresis Period (ms):	2.00e+02
Preset:	Enabled
Preset Delay (ms):	1.00e+03
Profile:	Standard Bipolar

»»»»»»»»»»»»»»»»»»»»»»»»»»»»»»»»»»»»»» Data «««««««««««««««««««««««««««««««««««««««
Points:	2009

Valid Data

Point	Time (ms)	Drive Voltage	Measured Polarization (uC/cm2)	Capacitance (uF)	Normalized Capacitance (uF/cm2)	Dielectric Constant	Instantaneous Current (mA)
   1	0.0000e+00	-0.0193	-18.098480	0.000355	3.547127	1.201799	0.000142
   2	9.9500e-02	0.0257	-17.957180	0.000355	3.547127	1.201799	0.000142
   3	1.9900e-01	0.0626	-17.848177	0.000274	2.736355	0.927102	0.000110
   4	2.9850e-01	0.0930	-17.706877	0.000355	3.547127	1.201799	0.000142
   5	3.9800e-01	0.1364	-17.573652	0.000334	3.344434	1.133125	0.000134
   6	4.9750e-01	0.1733	-17.404092	0.000426	4.256552	1.442159	0.000170
   7	5.9700e-01	0.2214	-17.287015	0.000294	2.939048	0.995776	0.000118
   8	6.9650e-01	0.2567	-17.133604	0.000385	3.851166	1.304810	0.000154
   9	7.9600e-01	0.2952	-16.976156	0.000395	3.952513	1.339148	0.000158
  10	8.9550e-01	0.3321	-16.830819	0.000365	3.648473	1.236136	0.000146
  11	9.9500e-01	0.3834	-16.661259	0.000426	4.256552	1.442159	0.000170
  12	1.0945e+00	0.4171	-16.544182	0.000294	2.939048	0.995776	0.000118
  13	1.1940e+00	0.4540	-16.423068	0.000304	3.040395	1.030114	0.000122
  14	1.2935e+00	0.4893	-16.241397	0.000456	4.560592	1.545170	0.000183
  15	1.3930e+00	0.5326	-16.079912	0.000405	4.053859	1.373485	0.000162
  16	1.4925e+00	0.5775	-15.934575	0.000365	3.648473	1.236136	0.000146
  17	1.5920e+00	0.6048	-15.801349	0.000334	3.344434	1.133125	0.000134
  18	1.6915e+00	0.6609	-15.607567	0.000486	4.864631	1.648182	0.000195
  19	1.7910e+00	0.6962	-15.486453	0.000304	3.040395	1.030114	0.000122
  20	1.8905e+00	0.7283	-15.308819	0.000446	4.459245	1.510833	0.000179
  21	1.9900e+00	0.7716	-15.147333	0.000405	4.053859	1.373485	0.000162
  22	2.0895e+00	0.8214	-15.038331	0.000274	2.736355	0.927102	0.000110
  23	2.1890e+00	0.8470	-14.852622	0.000466	4.661938	1.579507	0.000187
  24	2.2885e+00	0.8871	-14.711323	0.000355	3.547127	1.201799	0.000142
  25	2.3880e+00	0.9321	-14.549837	0.000405	4.053859	1.373485	0.000162
  26	2.4875e+00	0.9770	-14.384315	0.000416	4.155206	1.407822	0.000166
  27	2.5870e+00	1.0107	-14.238978	0.000365	3.648473	1.236136	0.000146
  28	2.6865e+00	1.0508	-14.101715	0.000345	3.445780	1.167462	0.000138
  29	2.7860e+00	1.0957	-13.928118	0.000436	4.357899	1.476496	0.000174
  30	2.8855e+00	1.1214	-13.774707	0.000385	3.851166	1.304810	0.000154
  31	2.9850e+00	1.1775	-13.617259	0.000395	3.952513	1.339148	0.000158
  32	3.0845e+00	1.2096	-13.488071	0.000324	3.243087	1.098788	0.000130
  33	3.1840e+00	1.2449	-13.290251	0.000497	4.965978	1.682519	0.000199
  34	3.2835e+00	1.2962	-13.136840	0.000385	3.851166	1.304810	0.000154
  35	3.3830e+00	1.3331	-12.979391	0.000395	3.952513	1.339148	0.000158
  36	3.4825e+00	1.3796	-12.830017	0.000375	3.749820	1.270473	0.000150
  37	3.5820e+00	1.4133	-12.680643	0.000375	3.749820	1.270473	0.000150
  38	3.6815e+00	1.4518	-12.511084	0.000426	4.256552	1.442159	0.000170
  39	3.7810e+00	1.4903	-12.369784	0.000355	3.547127	1.201799	0.000142
  40	3.8805e+00	1.5369	-12.248670	0.000304	3.040395	1.030114	0.000122
  41	3.9800e+00	1.5641	-12.042776	0.000517	5.168671	1.751193	0.000207
  42	4.0795e+00	1.6106	-11.865142	0.000446	4.459245	1.510833	0.000179
  43	4.1790e+00	1.6427	-11.735954	0.000324	3.243087	1.098788	0.000130
  44	4.2785e+00	1.6989	-11.562357	0.000436	4.357899	1.476496	0.000174
  45	4.3780e+00	1.7262	-11.404908	0.000395	3.952513	1.339148	0.000158
  46	4.4775e+00	1.7614	-11.243423	0.000405	4.053859	1.373485	0.000162
  47	4.5770e+00	1.8096	-11.090012	0.000385	3.851166	1.304810	0.000154
  48	4.6765e+00	1.8497	-10.924489	0.000416	4.155206	1.407822	0.000166
  49	4.7760e+00	1.8834	-10.738781	0.000466	4.661938	1.579507	0.000187
  50	4.8755e+00	1.9331	-10.605556	0.000334	3.344434	1.133125	0.000134
  51	4.9750e+00	1.9700	-10.468293	0.000345	3.445780	1.167462	0.000138
  52	5.0745e+00	2.0117	-10.302770	0.000416	4.155206	1.407822	0.000166
  53	5.1740e+00	2.0486	-10.129174	0.000436	4.357899	1.476496	0.000174
  54	5.2735e+00	2.0839	-9.931354	0.000497	4.965978	1.682519	0.000199
  55	5.3730e+00	2.1256	-9.842537	0.000223	2.229623	0.755417	0.000089
  56	5.4725e+00	2.1721	-9.648754	0.000486	4.864631	1.648182	0.000195
  57	5.5720e+00	2.2090	-9.459009	0.000476	4.763285	1.613845	0.000191
  58	5.6715e+00	2.2539	-9.313672	0.000365	3.648473	1.236136	0.000146
  59	5.7710e+00	2.2812	-9.188521	0.000314	3.141741	1.064451	0.000126
  60	5.8705e+00	2.3310	-9.043184	0.000365	3.648473	1.236136	0.000146
  61	5.9700e+00	2.3630	-8.853439	0.000476	4.763285	1.613845	0.000191
  62	6.0695e+00	2.4160	-8.659656	0.000486	4.864631	1.648182	0.000195
  63	6.1690e+00	2.4497	-8.530468	0.000324	3.243087	1.098788	0.000130
  64	6.2685e+00	2.4898	-8.413391	0.000294	2.939048	0.995776	0.000118
  65	6.3680e+00	2.5202	-8.235757	0.000446	4.459245	1.510833	0.000179
  66	6.4675e+00	2.5700	-8.074271	0.000405	4.053859	1.373485	0.000162
  67	6.5670e+00	2.6053	-7.884526	0.000476	4.763285	1.613845	0.000191
  68	6.6665e+00	2.6486	-7.751301	0.000334	3.344434	1.133125	0.000134
  69	6.7660e+00	2.6903	-7.549444	0.000507	5.067324	1.716856	0.000203
  70	6.8655e+00	2.7256	-7.404107	0.000365	3.648473	1.236136	0.000146
  71	6.9650e+00	2.7577	-7.266844	0.000345	3.445780	1.167462	0.000138
  72	7.0645e+00	2.8074	-7.137656	0.000324	3.243087	1.098788	0.000130
  73	7.1640e+00	2.8507	-6.923688	0.000537	5.371364	1.819867	0.000215
  74	7.2635e+00	2.8924	-6.770277	0.000385	3.851166	1.304810	0.000154
  75	7.3630e+00	2.9309	-6.616865	0.000385	3.851166	1.304810	0.000154
  76	7.4625e+00	2.9662	-6.479603	0.000345	3.445780	1.167462	0.000138
  77	7.5620e+00	3.0095	-6.306006	0.000436	4.357899	1.476496	0.000174
  78	7.6615e+00	3.0496	-6.156632	0.000375	3.749820	1.270473	0.000150
  79	7.7610e+00	3.0898	-6.003221	0.000385	3.851166	1.304810	0.000154
  80	7.8605e+00	3.1331	-5.849810	0.000385	3.851166	1.304810	0.000154
  81	7.9600e+00	3.1603	-5.660064	0.000476	4.763285	1.613845	0.000191
  82	8.0595e+00	3.2069	-5.522802	0.000345	3.445780	1.167462	0.000138
  83	8.1590e+00	3.2502	-5.320945	0.000507	5.067324	1.716856	0.000203
  84	8.2585e+00	3.2871	-5.171571	0.000375	3.749820	1.270473	0.000150
  85	8.3580e+00	3.3304	-5.062568	0.000274	2.736355	0.927102	0.000110
  86	8.4575e+00	3.3673	-4.860711	0.000507	5.067324	1.716856	0.000203
  87	8.5570e+00	3.4042	-4.723449	0.000345	3.445780	1.167462	0.000138
  88	8.6565e+00	3.4459	-4.545815	0.000446	4.459245	1.510833	0.000179
  89	8.7560e+00	3.4844	-4.364144	0.000456	4.560592	1.545170	0.000183
  90	8.8555e+00	3.5197	-4.243030	0.000304	3.040395	1.030114	0.000122
  91	8.9550e+00	3.5662	-4.077507	0.000416	4.155206	1.407822	0.000166
  92	9.0545e+00	3.5983	-3.944282	0.000334	3.344434	1.133125	0.000134
  93	9.1540e+00	3.6384	-3.766648	0.000446	4.459245	1.510833	0.000179
  94	9.2535e+00	3.6833	-3.609199	0.000395	3.952513	1.339148	0.000158
  95	9.3530e+00	3.7170	-3.415417	0.000486	4.864631	1.648182	0.000195
  96	9.4525e+00	3.7667	-3.294303	0.000304	3.040395	1.030114	0.000122
  97	9.5520e+00	3.8084	-3.112632	0.000456	4.560592	1.545170	0.000183
  98	9.6515e+00	3.8453	-2.967295	0.000365	3.648473	1.236136	0.000146
  99	9.7510e+00	3.8806	-2.821958	0.000365	3.648473	1.236136	0.000146
 100	9.8505e+00	3.9272	-2.648361	0.000436	4.357899	1.476496	0.000174
 101	9.9500e+00	3.9625	-2.490913	0.000395	3.952513	1.339148	0.000158
 102	1.0050e+01	4.0074	-2.357687	0.000334	3.344434	1.133125	0.000134
 103	1.0149e+01	4.0411	-2.244647	0.000284	2.837702	0.961439	0.000114
 104	1.0248e+01	4.0780	-2.050865	0.000486	4.864631	1.648182	0.000195
 105	1.0348e+01	4.1261	-1.865157	0.000466	4.661938	1.579507	0.000187
 106	1.0447e+01	4.1630	-1.695597	0.000426	4.256552	1.442159	0.000170
 107	1.0547e+01	4.2031	-1.513926	0.000456	4.560592	1.545170	0.000183
 108	1.0646e+01	4.2336	-1.425109	0.000223	2.229623	0.755417	0.000089
 109	1.0746e+01	4.2833	-1.211141	0.000537	5.371364	1.819867	0.000215
 110	1.0845e+01	4.3218	-1.069841	0.000355	3.547127	1.201799	0.000142
 111	1.0945e+01	4.3651	-0.908356	0.000405	4.053859	1.373485	0.000162
 112	1.1044e+01	4.3940	-0.771093	0.000345	3.445780	1.167462	0.000138
 113	1.1144e+01	4.4357	-0.609607	0.000405	4.053859	1.373485	0.000162
 114	1.1243e+01	4.4854	-0.468308	0.000355	3.547127	1.201799	0.000142
 115	1.1343e+01	4.5239	-0.274525	0.000486	4.864631	1.648182	0.000195
 116	1.1443e+01	4.5608	-0.145337	0.000324	3.243087	1.098788	0.000130
 117	1.1542e+01	4.5945	0.008074	0.000385	3.851166	1.304810	0.000154
 118	1.1642e+01	4.6314	0.193783	0.000466	4.661938	1.579507	0.000187
 119	1.1741e+01	4.6860	0.343157	0.000375	3.749820	1.270473	0.000150
 120	1.1841e+01	4.7245	0.468308	0.000314	3.141741	1.064451	0.000126
 121	1.1940e+01	4.7566	0.649979	0.000456	4.560592	1.545170	0.000183
 122	1.2040e+01	4.7967	0.803390	0.000385	3.851166	1.304810	0.000154
 123	1.2139e+01	4.8448	0.952764	0.000375	3.749820	1.270473	0.000150
 124	1.2239e+01	4.8849	1.114249	0.000405	4.053859	1.373485	0.000162
 125	1.2338e+01	4.9186	1.259586	0.000365	3.648473	1.236136	0.000146
 126	1.2438e+01	4.9603	1.441257	0.000456	4.560592	1.545170	0.000183
 127	1.2537e+01	5.0020	1.614854	0.000436	4.357899	1.476496	0.000174
 128	1.2636e+01	5.0373	1.707708	0.000233	2.330969	0.789754	0.000093
 129	1.2736e+01	5.0806	1.881305	0.000436	4.357899	1.476496	0.000174
 130	1.2835e+01	5.1159	2.083162	0.000507	5.067324	1.716856	0.000203
 131	1.2935e+01	5.1624	2.204276	0.000304	3.040395	1.030114	0.000122
 132	1.3034e+01	5.2009	2.394021	0.000476	4.763285	1.613845	0.000191
 133	1.3134e+01	5.2330	2.547433	0.000385	3.851166	1.304810	0.000154
 134	1.3233e+01	5.2747	2.725067	0.000446	4.459245	1.510833	0.000179
 135	1.3333e+01	5.3148	2.834069	0.000274	2.736355	0.927102	0.000110
 136	1.3432e+01	5.3597	3.031889	0.000497	4.965978	1.682519	0.000199
 137	1.3532e+01	5.3966	3.189337	0.000395	3.952513	1.339148	0.000158
 138	1.3632e+01	5.4351	3.330637	0.000355	3.547127	1.201799	0.000142
 139	1.3731e+01	5.4817	3.504234	0.000436	4.357899	1.476496	0.000174
 140	1.3831e+01	5.5105	3.669756	0.000416	4.155206	1.407822	0.000166
 141	1.3930e+01	5.5603	3.819130	0.000375	3.749820	1.270473	0.000150
 142	1.4030e+01	5.5924	3.992727	0.000436	4.357899	1.476496	0.000174
 143	1.4129e+01	5.6325	4.109804	0.000294	2.939048	0.995776	0.000118
 144	1.4229e+01	5.6758	4.323772	0.000537	5.371364	1.819867	0.000215
 145	1.4328e+01	5.7191	4.469109	0.000365	3.648473	1.236136	0.000146
 146	1.4428e+01	5.7512	4.606372	0.000345	3.445780	1.167462	0.000138
 147	1.4527e+01	5.7849	4.788043	0.000456	4.560592	1.545170	0.000183
 148	1.4627e+01	5.8330	4.921268	0.000334	3.344434	1.133125	0.000134
 149	1.4726e+01	5.8699	5.086791	0.000416	4.155206	1.407822	0.000166
 150	1.4825e+01	5.9148	5.232128	0.000365	3.648473	1.236136	0.000146
 151	1.4925e+01	5.9613	5.429948	0.000497	4.965978	1.682519	0.000199
 152	1.5024e+01	5.9870	5.571247	0.000355	3.547127	1.201799	0.000142
 153	1.5124e+01	6.0447	5.748881	0.000446	4.459245	1.510833	0.000179
 154	1.5223e+01	6.0736	5.894218	0.000365	3.648473	1.236136	0.000146
 155	1.5323e+01	6.1169	6.043592	0.000375	3.749820	1.270473	0.000150
 156	1.5422e+01	6.1490	6.241412	0.000497	4.965978	1.682519	0.000199
 157	1.5522e+01	6.1955	6.362526	0.000304	3.040395	1.030114	0.000122
 158	1.5621e+01	6.2421	6.560346	0.000497	4.965978	1.682519	0.000199
 159	1.5721e+01	6.2709	6.713757	0.000385	3.851166	1.304810	0.000154
 160	1.5820e+01	6.3159	6.871205	0.000395	3.952513	1.339148	0.000158
 161	1.5920e+01	6.3560	7.008468	0.000345	3.445780	1.167462	0.000138
 162	1.6020e+01	6.3993	7.186102	0.000446	4.459245	1.510833	0.000179
 163	1.6119e+01	6.4426	7.351624	0.000416	4.155206	1.407822	0.000166
 164	1.6218e+01	6.4715	7.492924	0.000355	3.547127	1.201799	0.000142
 165	1.6318e+01	6.5132	7.638261	0.000365	3.648473	1.236136	0.000146
 166	1.6418e+01	6.5501	7.823969	0.000466	4.661938	1.579507	0.000187
 167	1.6517e+01	6.5870	7.961232	0.000345	3.445780	1.167462	0.000138
 168	1.6616e+01	6.6303	8.159051	0.000497	4.965978	1.682519	0.000199
 169	1.6716e+01	6.6640	8.288240	0.000324	3.243087	1.098788	0.000130
 170	1.6816e+01	6.7153	8.461837	0.000436	4.357899	1.476496	0.000174
 171	1.6915e+01	6.7474	8.619285	0.000395	3.952513	1.339148	0.000158
 172	1.7015e+01	6.7843	8.768659	0.000375	3.749820	1.270473	0.000150
 173	1.7114e+01	6.8324	8.938219	0.000426	4.256552	1.442159	0.000170
 174	1.7213e+01	6.8693	9.095667	0.000395	3.952513	1.339148	0.000158
 175	1.7313e+01	6.9094	9.241004	0.000365	3.648473	1.236136	0.000146
 176	1.7413e+01	6.9543	9.426712	0.000466	4.661938	1.579507	0.000187
 177	1.7512e+01	6.9896	9.568012	0.000355	3.547127	1.201799	0.000142
 178	1.7611e+01	7.0314	9.709311	0.000355	3.547127	1.201799	0.000142
 179	1.7711e+01	7.0682	9.919243	0.000527	5.270017	1.785530	0.000211
 180	1.7811e+01	7.1051	10.012097	0.000233	2.330969	0.789754	0.000093
 181	1.7910e+01	7.1420	10.189731	0.000446	4.459245	1.510833	0.000179
 182	1.8009e+01	7.1902	10.375439	0.000466	4.661938	1.579507	0.000187
 183	1.8109e+01	7.2351	10.524813	0.000375	3.749820	1.270473	0.000150
 184	1.8209e+01	7.2688	10.690335	0.000416	4.155206	1.407822	0.000166
 185	1.8308e+01	7.3073	10.859895	0.000426	4.256552	1.442159	0.000170
 186	1.8407e+01	7.3522	10.993121	0.000334	3.344434	1.133125	0.000134
 187	1.8507e+01	7.3875	11.170755	0.000446	4.459245	1.510833	0.000179
 188	1.8607e+01	7.4372	11.344351	0.000436	4.357899	1.476496	0.000174
 189	1.8706e+01	7.4709	11.493725	0.000375	3.749820	1.270473	0.000150
 190	1.8805e+01	7.5078	11.651174	0.000395	3.952513	1.339148	0.000158
 191	1.8905e+01	7.5431	11.788436	0.000345	3.445780	1.167462	0.000138
 192	1.9005e+01	7.5816	11.966070	0.000446	4.459245	1.510833	0.000179
 193	1.9104e+01	7.6217	12.107370	0.000355	3.547127	1.201799	0.000142
 194	1.9203e+01	7.6811	12.280967	0.000436	4.357899	1.476496	0.000174
 195	1.9303e+01	7.7051	12.422267	0.000355	3.547127	1.201799	0.000142
 196	1.9402e+01	7.7549	12.620086	0.000497	4.965978	1.682519	0.000199
 197	1.9502e+01	7.7805	12.801757	0.000456	4.560592	1.545170	0.000183
 198	1.9602e+01	7.8319	12.975354	0.000436	4.357899	1.476496	0.000174
 199	1.9701e+01	7.8639	13.120691	0.000365	3.648473	1.236136	0.000146
 200	1.9800e+01	7.9041	13.225657	0.000264	2.635009	0.892765	0.000105
 201	1.9900e+01	7.9506	13.411365	0.000466	4.661938	1.579507	0.000187
 202	2.0000e+01	7.9811	13.593036	0.000456	4.560592	1.545170	0.000183
 203	2.0099e+01	8.0244	13.702039	0.000274	2.736355	0.927102	0.000110
 204	2.0198e+01	8.0693	13.891784	0.000476	4.763285	1.613845	0.000191
 205	2.0298e+01	8.1062	14.045195	0.000385	3.851166	1.304810	0.000154
 206	2.0398e+01	8.1447	14.210718	0.000416	4.155206	1.407822	0.000166
 207	2.0497e+01	8.1784	14.372203	0.000405	4.053859	1.373485	0.000162
 208	2.0596e+01	8.2345	14.505429	0.000334	3.344434	1.133125	0.000134
 209	2.0696e+01	8.2634	14.662877	0.000395	3.952513	1.339148	0.000158
 210	2.0796e+01	8.3019	14.880882	0.000547	5.472710	1.854204	0.000219
 211	2.0895e+01	8.3484	14.973736	0.000233	2.330969	0.789754	0.000093
 212	2.0994e+01	8.3869	15.131185	0.000395	3.952513	1.339148	0.000158
 213	2.1094e+01	8.4174	15.284596	0.000385	3.851166	1.304810	0.000154
 214	2.1194e+01	8.4607	15.470304	0.000466	4.661938	1.579507	0.000187
 215	2.1293e+01	8.4976	15.623715	0.000385	3.851166	1.304810	0.000154
 216	2.1392e+01	8.5361	15.773089	0.000375	3.749820	1.270473	0.000150
 217	2.1492e+01	8.5842	15.954760	0.000456	4.560592	1.545170	0.000183
 218	2.1591e+01	8.6163	16.092023	0.000345	3.445780	1.167462	0.000138
 219	2.1691e+01	8.6661	16.237360	0.000365	3.648473	1.236136	0.000146
 220	2.1791e+01	8.7030	16.431142	0.000486	4.864631	1.648182	0.000195
 221	2.1890e+01	8.7350	16.608776	0.000446	4.459245	1.510833	0.000179
 222	2.1989e+01	8.7832	16.709705	0.000253	2.533662	0.858428	0.000101
 223	2.2089e+01	8.8217	16.879265	0.000426	4.256552	1.442159	0.000170
 224	2.2189e+01	8.8538	17.012490	0.000334	3.344434	1.133125	0.000134
 225	2.2288e+01	8.9003	17.173975	0.000405	4.053859	1.373485	0.000162
 226	2.2387e+01	8.9468	17.363721	0.000476	4.763285	1.613845	0.000191
 227	2.2487e+01	8.9933	17.500983	0.000345	3.445780	1.167462	0.000138
 228	2.2587e+01	9.0174	17.670543	0.000426	4.256552	1.442159	0.000170
 229	2.2686e+01	9.0511	17.775509	0.000264	2.635009	0.892765	0.000105
 230	2.2785e+01	9.0960	17.904697	0.000324	3.243087	1.098788	0.000130
 231	2.2885e+01	9.1457	18.102517	0.000497	4.965978	1.682519	0.000199
 232	2.2985e+01	9.1858	18.280151	0.000446	4.459245	1.510833	0.000179
 233	2.3084e+01	9.2227	18.425488	0.000365	3.648473	1.236136	0.000146
 234	2.3183e+01	9.2564	18.550639	0.000314	3.141741	1.064451	0.000126
 235	2.3283e+01	9.2997	18.720198	0.000426	4.256552	1.442159	0.000170
 236	2.3383e+01	9.3350	18.845350	0.000314	3.141741	1.064451	0.000126
 237	2.3482e+01	9.3783	19.002798	0.000395	3.952513	1.339148	0.000158
 238	2.3581e+01	9.4185	19.168320	0.000416	4.155206	1.407822	0.000166
 239	2.3681e+01	9.4570	19.317695	0.000375	3.749820	1.270473	0.000150
 240	2.3780e+01	9.4890	19.503403	0.000466	4.661938	1.579507	0.000187
 241	2.3880e+01	9.5452	19.628554	0.000314	3.141741	1.064451	0.000126
 242	2.3980e+01	9.5757	19.794077	0.000416	4.155206	1.407822	0.000166
 243	2.4079e+01	9.6254	19.939413	0.000365	3.648473	1.236136	0.000146
 244	2.4178e+01	9.6511	20.076676	0.000345	3.445780	1.167462	0.000138
 245	2.4278e+01	9.7088	20.222013	0.000365	3.648473	1.236136	0.000146
 246	2.4378e+01	9.7377	20.419833	0.000497	4.965978	1.682519	0.000199
 247	2.4477e+01	9.7762	20.536909	0.000294	2.939048	0.995776	0.000118
 248	2.4576e+01	9.8163	20.706469	0.000426	4.256552	1.442159	0.000170
 249	2.4676e+01	9.8580	20.884103	0.000446	4.459245	1.510833	0.000179
 250	2.4776e+01	9.8933	21.013292	0.000324	3.243087	1.098788	0.000130
 251	2.4875e+01	9.9430	21.150554	0.000345	3.445780	1.167462	0.000138
 252	2.4974e+01	9.9751	21.299928	0.000375	3.749820	1.270473	0.000150
 253	2.5074e+01	10.0152	21.449302	0.000375	3.749820	1.270473	0.000150
 254	2.5174e+01	10.0601	21.590602	0.000355	3.547127	1.201799	0.000142
 255	2.5273e+01	10.1019	21.764199	0.000436	4.357899	1.476496	0.000174
 256	2.5372e+01	10.1371	21.861090	0.000243	2.432316	0.824091	0.000097
 257	2.5472e+01	10.1805	22.091207	0.000578	5.776750	1.957216	0.000231
 258	2.5572e+01	10.2190	22.171949	0.000203	2.026930	0.686742	0.000081
 259	2.5671e+01	10.2510	22.337472	0.000416	4.155206	1.407822	0.000166
 260	2.5770e+01	10.3008	22.498957	0.000405	4.053859	1.373485	0.000162
 261	2.5870e+01	10.3441	22.648331	0.000375	3.749820	1.270473	0.000150
 262	2.5970e+01	10.3778	22.809817	0.000405	4.053859	1.373485	0.000162
 263	2.6069e+01	10.4147	22.910745	0.000253	2.533662	0.858428	0.000101
 264	2.6169e+01	10.4628	23.096454	0.000466	4.661938	1.579507	0.000187
 265	2.6268e+01	10.4949	23.225642	0.000324	3.243087	1.098788	0.000130
 266	2.6367e+01	10.5350	23.366942	0.000355	3.547127	1.201799	0.000142
 267	2.6467e+01	10.5687	23.528427	0.000405	4.053859	1.373485	0.000162
 268	2.6567e+01	10.6168	23.677801	0.000375	3.749820	1.270473	0.000150
 269	2.6666e+01	10.6617	23.819101	0.000355	3.547127	1.201799	0.000142
 270	2.6765e+01	10.6970	23.964438	0.000365	3.648473	1.236136	0.000146
 271	2.6865e+01	10.7371	24.113812	0.000375	3.749820	1.270473	0.000150
 272	2.6965e+01	10.7788	24.267223	0.000385	3.851166	1.304810	0.000154
 273	2.7064e+01	10.8077	24.424671	0.000395	3.952513	1.339148	0.000158
 274	2.7163e+01	10.8558	24.570008	0.000365	3.648473	1.236136	0.000146
 275	2.7263e+01	10.8992	24.687085	0.000294	2.939048	0.995776	0.000118
 276	2.7363e+01	10.9328	24.868756	0.000456	4.560592	1.545170	0.000183
 277	2.7462e+01	10.9762	25.034279	0.000416	4.155206	1.407822	0.000166
 278	2.7561e+01	11.0147	25.159430	0.000314	3.141741	1.064451	0.000126
 279	2.7661e+01	11.0596	25.236135	0.000193	1.925583	0.652405	0.000077
 280	2.7761e+01	11.1013	25.425881	0.000476	4.763285	1.613845	0.000191
 281	2.7860e+01	11.1382	25.551032	0.000314	3.141741	1.064451	0.000126
 282	2.7959e+01	11.1687	25.732703	0.000456	4.560592	1.545170	0.000183
 283	2.8059e+01	11.2168	25.878040	0.000365	3.648473	1.236136	0.000146
 284	2.8159e+01	11.2521	26.031451	0.000385	3.851166	1.304810	0.000154
 285	2.8258e+01	11.2954	26.148528	0.000294	2.939048	0.995776	0.000118
 286	2.8358e+01	11.3371	26.301939	0.000385	3.851166	1.304810	0.000154
 287	2.8457e+01	11.3756	26.479573	0.000446	4.459245	1.510833	0.000179
 288	2.8556e+01	11.4141	26.620873	0.000355	3.547127	1.201799	0.000142
 289	2.8656e+01	11.4606	26.737950	0.000294	2.939048	0.995776	0.000118
 290	2.8756e+01	11.4991	26.891361	0.000385	3.851166	1.304810	0.000154
 291	2.8855e+01	11.5328	27.052847	0.000405	4.053859	1.373485	0.000162
 292	2.8954e+01	11.5649	27.198183	0.000365	3.648473	1.236136	0.000146
 293	2.9054e+01	11.6179	27.295075	0.000243	2.432316	0.824091	0.000097
 294	2.9154e+01	11.6499	27.472709	0.000446	4.459245	1.510833	0.000179
 295	2.9253e+01	11.6900	27.646306	0.000436	4.357899	1.476496	0.000174
 296	2.9352e+01	11.7318	27.779531	0.000334	3.344434	1.133125	0.000134
 297	2.9452e+01	11.7735	27.936979	0.000395	3.952513	1.339148	0.000158
 298	2.9552e+01	11.8072	28.070205	0.000334	3.344434	1.133125	0.000134
 299	2.9651e+01	11.8521	28.207467	0.000345	3.445780	1.167462	0.000138
 300	2.9750e+01	11.9018	28.360879	0.000385	3.851166	1.304810	0.000154
 301	2.9850e+01	11.9339	28.506215	0.000365	3.648473	1.236136	0.000146
 302	2.9950e+01	11.9756	28.667701	0.000405	4.053859	1.373485	0.000162
 303	3.0049e+01	12.0061	28.796889	0.000324	3.243087	1.098788	0.000130
 304	3.0148e+01	12.0558	28.958375	0.000405	4.053859	1.373485	0.000162
 305	3.0248e+01	12.0927	29.067377	0.000274	2.736355	0.927102	0.000110
 306	3.0348e+01	12.1312	29.236937	0.000426	4.256552	1.442159	0.000170
 307	3.0447e+01	12.1729	29.370162	0.000334	3.344434	1.133125	0.000134
 308	3.0547e+01	12.2018	29.535685	0.000416	4.155206	1.407822	0.000166
 309	3.0646e+01	12.2579	29.676985	0.000355	3.547127	1.201799	0.000142
 310	3.0745e+01	12.2932	29.818285	0.000355	3.547127	1.201799	0.000142
 311	3.0845e+01	12.3366	29.963621	0.000365	3.648473	1.236136	0.000146
 312	3.0945e+01	12.3783	30.108958	0.000365	3.648473	1.236136	0.000146
 313	3.1044e+01	12.4023	30.274481	0.000416	4.155206	1.407822	0.000166
 314	3.1143e+01	12.4440	30.399632	0.000314	3.141741	1.064451	0.000126
 315	3.1243e+01	12.4922	30.593415	0.000486	4.864631	1.648182	0.000195
 316	3.1343e+01	12.5291	30.690306	0.000243	2.432316	0.824091	0.000097
 317	3.1442e+01	12.5740	30.871977	0.000456	4.560592	1.545170	0.000183
 318	3.1541e+01	12.6093	31.005202	0.000334	3.344434	1.133125	0.000134
 319	3.1641e+01	12.6478	31.146502	0.000355	3.547127	1.201799	0.000142
 320	3.1741e+01	12.6863	31.275691	0.000324	3.243087	1.098788	0.000130
 321	3.1840e+01	12.7296	31.437176	0.000405	4.053859	1.373485	0.000162
 322	3.1939e+01	12.7665	31.578476	0.000355	3.547127	1.201799	0.000142
 323	3.2039e+01	12.8114	31.776295	0.000497	4.965978	1.682519	0.000199
 324	3.2139e+01	12.8419	31.889335	0.000284	2.837702	0.961439	0.000114
 325	3.2238e+01	12.8836	32.062932	0.000436	4.357899	1.476496	0.000174
 326	3.2337e+01	12.9157	32.208269	0.000365	3.648473	1.236136	0.000146
 327	3.2437e+01	12.9638	32.329383	0.000304	3.040395	1.030114	0.000122
 328	3.2536e+01	12.9975	32.502980	0.000436	4.357899	1.476496	0.000174
 329	3.2636e+01	13.0440	32.640242	0.000345	3.445780	1.167462	0.000138
 330	3.2736e+01	13.0825	32.753282	0.000284	2.837702	0.961439	0.000114
 331	3.2835e+01	13.1242	32.938990	0.000466	4.661938	1.579507	0.000187
 332	3.2934e+01	13.1579	33.068179	0.000324	3.243087	1.098788	0.000130
 333	3.3034e+01	13.2044	33.193330	0.000314	3.141741	1.064451	0.000126
 334	3.3133e+01	13.2429	33.346741	0.000385	3.851166	1.304810	0.000154
 335	3.3233e+01	13.2911	33.528412	0.000456	4.560592	1.545170	0.000183
 336	3.3333e+01	13.3248	33.633378	0.000264	2.635009	0.892765	0.000105
 337	3.3432e+01	13.3536	33.786789	0.000385	3.851166	1.304810	0.000154
 338	3.3532e+01	13.4050	33.960386	0.000436	4.357899	1.476496	0.000174
 339	3.3631e+01	13.4419	34.109760	0.000375	3.749820	1.270473	0.000150
 340	3.3730e+01	13.4884	34.259134	0.000375	3.749820	1.270473	0.000150
 341	3.3830e+01	13.5237	34.372174	0.000284	2.837702	0.961439	0.000114
 342	3.3929e+01	13.5638	34.549808	0.000446	4.459245	1.510833	0.000179
 343	3.4029e+01	13.6103	34.699182	0.000375	3.749820	1.270473	0.000150
 344	3.4129e+01	13.6408	34.848556	0.000375	3.749820	1.270473	0.000150
 345	3.4228e+01	13.6793	34.969670	0.000304	3.040395	1.030114	0.000122
 346	3.4328e+01	13.7290	35.147304	0.000446	4.459245	1.510833	0.000179
 347	3.4427e+01	13.7595	35.284566	0.000345	3.445780	1.167462	0.000138
 348	3.4526e+01	13.8076	35.421829	0.000345	3.445780	1.167462	0.000138
 349	3.4626e+01	13.8445	35.595426	0.000436	4.357899	1.476496	0.000174
 350	3.4725e+01	13.8862	35.740763	0.000365	3.648473	1.236136	0.000146
 351	3.4825e+01	13.9215	35.938582	0.000497	4.965978	1.682519	0.000199
 352	3.4925e+01	13.9632	36.071808	0.000334	3.344434	1.133125	0.000134
 353	3.5024e+01	14.0050	36.221182	0.000375	3.749820	1.270473	0.000150
 354	3.5123e+01	14.0386	36.362482	0.000355	3.547127	1.201799	0.000142
 355	3.5223e+01	14.0804	36.503781	0.000355	3.547127	1.201799	0.000142
 356	3.5322e+01	14.1253	36.681415	0.000446	4.459245	1.510833	0.000179
 357	3.5422e+01	14.1541	36.830789	0.000375	3.749820	1.270473	0.000150
 358	3.5522e+01	14.2023	36.968052	0.000345	3.445780	1.167462	0.000138
 359	3.5621e+01	14.2376	37.129537	0.000405	4.053859	1.373485	0.000162
 360	3.5721e+01	14.2793	37.254689	0.000314	3.141741	1.064451	0.000126
 361	3.5820e+01	14.3242	37.424248	0.000426	4.256552	1.442159	0.000170
 362	3.5919e+01	14.3531	37.549399	0.000314	3.141741	1.064451	0.000126
 363	3.6019e+01	14.4060	37.743182	0.000486	4.864631	1.648182	0.000195
 364	3.6118e+01	14.4445	37.876407	0.000334	3.344434	1.133125	0.000134
 365	3.6218e+01	14.4766	38.017707	0.000355	3.547127	1.201799	0.000142
 366	3.6318e+01	14.5151	38.207453	0.000476	4.763285	1.613845	0.000191
 367	3.6417e+01	14.5696	38.360864	0.000385	3.851166	1.304810	0.000154
 368	3.6517e+01	14.6049	38.514275	0.000385	3.851166	1.304810	0.000154
 369	3.6616e+01	14.6322	38.667686	0.000385	3.851166	1.304810	0.000154
 370	3.6715e+01	14.6835	38.796874	0.000324	3.243087	1.098788	0.000130
 371	3.6815e+01	14.7220	38.950286	0.000385	3.851166	1.304810	0.000154
 372	3.6914e+01	14.7654	39.119845	0.000426	4.256552	1.442159	0.000170
 373	3.7014e+01	14.7878	39.249034	0.000324	3.243087	1.098788	0.000130
 374	3.7114e+01	14.8440	39.374185	0.000314	3.141741	1.064451	0.000126
 375	3.7213e+01	14.8744	39.559893	0.000466	4.661938	1.579507	0.000187
 376	3.7313e+01	14.9194	39.693119	0.000334	3.344434	1.133125	0.000134
 377	3.7412e+01	14.9691	39.850567	0.000395	3.952513	1.339148	0.000158
 378	3.7511e+01	15.0044	40.024164	0.000436	4.357899	1.476496	0.000174
 379	3.7611e+01	15.0509	40.177575	0.000385	3.851166	1.304810	0.000154
 380	3.7711e+01	15.0734	40.339060	0.000405	4.053859	1.373485	0.000162
 381	3.7810e+01	15.1215	40.500546	0.000405	4.053859	1.373485	0.000162
 382	3.7910e+01	15.1584	40.613586	0.000284	2.837702	0.961439	0.000114
 383	3.8009e+01	15.1873	40.803331	0.000476	4.763285	1.613845	0.000191
 384	3.8108e+01	15.2354	40.964816	0.000405	4.053859	1.373485	0.000162
 385	3.8208e+01	15.2835	41.114190	0.000375	3.749820	1.270473	0.000150
 386	3.8307e+01	15.3140	41.279713	0.000416	4.155206	1.407822	0.000166
 387	3.8407e+01	15.3605	41.445235	0.000416	4.155206	1.407822	0.000166
 388	3.8507e+01	15.3990	41.606721	0.000405	4.053859	1.373485	0.000162
 389	3.8606e+01	15.4439	41.752058	0.000365	3.648473	1.236136	0.000146
 390	3.8706e+01	15.4680	41.897395	0.000365	3.648473	1.236136	0.000146
 391	3.8805e+01	15.5097	42.058880	0.000405	4.053859	1.373485	0.000162
 392	3.8904e+01	15.5530	42.212291	0.000385	3.851166	1.304810	0.000154
 393	3.9004e+01	15.5996	42.385888	0.000436	4.357899	1.476496	0.000174
 394	3.9103e+01	15.6381	42.559485	0.000436	4.357899	1.476496	0.000174
 395	3.9203e+01	15.6766	42.688673	0.000324	3.243087	1.098788	0.000130
 396	3.9303e+01	15.7199	42.821899	0.000334	3.344434	1.133125	0.000134
 397	3.9402e+01	15.7504	42.991458	0.000426	4.256552	1.442159	0.000170
 398	3.9502e+01	15.7969	43.144870	0.000385	3.851166	1.304810	0.000154
 399	3.9601e+01	15.8354	43.350764	0.000517	5.168671	1.751193	0.000207
 400	3.9700e+01	15.8787	43.504175	0.000385	3.851166	1.304810	0.000154
 401	3.9800e+01	15.9124	43.641437	0.000345	3.445780	1.167462	0.000138
 402	3.9900e+01	15.9605	43.798886	0.000395	3.952513	1.339148	0.000158
 403	3.9999e+01	15.9910	43.964408	0.000416	4.155206	1.407822	0.000166
 404	4.0099e+01	16.0327	44.174339	0.000527	5.270017	1.785530	0.000211
 405	4.0198e+01	16.0728	44.287379	0.000284	2.837702	0.961439	0.000114
 406	4.0297e+01	16.1081	44.420605	0.000334	3.344434	1.133125	0.000134
 407	4.0397e+01	16.1530	44.610350	0.000476	4.763285	1.613845	0.000191
 408	4.0496e+01	16.1947	44.767798	0.000395	3.952513	1.339148	0.000158
 409	4.0596e+01	16.2316	44.901024	0.000334	3.344434	1.133125	0.000134
 410	4.0696e+01	16.2733	45.050398	0.000375	3.749820	1.270473	0.000150
 411	4.0795e+01	16.3150	45.252254	0.000507	5.067324	1.716856	0.000203
 412	4.0895e+01	16.3568	45.405666	0.000385	3.851166	1.304810	0.000154
 413	4.0994e+01	16.3953	45.563114	0.000395	3.952513	1.339148	0.000158
 414	4.1093e+01	16.4354	45.744785	0.000456	4.560592	1.545170	0.000183
 415	4.1193e+01	16.4674	45.886085	0.000355	3.547127	1.201799	0.000142
 416	4.1292e+01	16.5076	46.039496	0.000385	3.851166	1.304810	0.000154
 417	4.1392e+01	16.5428	46.217130	0.000446	4.459245	1.510833	0.000179
 418	4.1492e+01	16.5942	46.386690	0.000426	4.256552	1.442159	0.000170
 419	4.1591e+01	16.6423	46.552212	0.000416	4.155206	1.407822	0.000166
 420	4.1691e+01	16.6744	46.709660	0.000395	3.952513	1.339148	0.000158
 421	4.1790e+01	16.7129	46.879220	0.000426	4.256552	1.442159	0.000170
 422	4.1889e+01	16.7578	47.044743	0.000416	4.155206	1.407822	0.000166
 423	4.1989e+01	16.7899	47.194117	0.000375	3.749820	1.270473	0.000150
 424	4.2089e+01	16.8364	47.343491	0.000375	3.749820	1.270473	0.000150
 425	4.2188e+01	16.8685	47.525162	0.000456	4.560592	1.545170	0.000183
 426	4.2288e+01	16.9134	47.670499	0.000365	3.648473	1.236136	0.000146
 427	4.2387e+01	16.9567	47.868318	0.000497	4.965978	1.682519	0.000199
 428	4.2486e+01	16.9824	48.017692	0.000375	3.749820	1.270473	0.000150
 429	4.2586e+01	17.0225	48.183215	0.000416	4.155206	1.407822	0.000166
 430	4.2685e+01	17.0787	48.360849	0.000446	4.459245	1.510833	0.000179
 431	4.2785e+01	17.1011	48.526372	0.000416	4.155206	1.407822	0.000166
 432	4.2885e+01	17.1492	48.671708	0.000365	3.648473	1.236136	0.000146
 433	4.2984e+01	17.1894	48.865491	0.000486	4.864631	1.648182	0.000195
 434	4.3084e+01	17.2359	49.035051	0.000426	4.256552	1.442159	0.000170
 435	4.3183e+01	17.2744	49.156165	0.000304	3.040395	1.030114	0.000122
 436	4.3282e+01	17.3081	49.378207	0.000557	5.574057	1.888542	0.000223
 437	4.3382e+01	17.3482	49.495284	0.000294	2.939048	0.995776	0.000118
 438	4.3481e+01	17.3947	49.701178	0.000517	5.168671	1.751193	0.000207
 439	4.3581e+01	17.4284	49.842478	0.000355	3.547127	1.201799	0.000142
 440	4.3681e+01	17.4701	50.003963	0.000405	4.053859	1.373485	0.000162
 441	4.3780e+01	17.5102	50.213894	0.000527	5.270017	1.785530	0.000211
 442	4.3880e+01	17.5439	50.335008	0.000304	3.040395	1.030114	0.000122
 443	4.3979e+01	17.5888	50.532828	0.000497	4.965978	1.682519	0.000199
 444	4.4078e+01	17.6257	50.746796	0.000537	5.371364	1.819867	0.000215
 445	4.4178e+01	17.6786	50.847725	0.000253	2.533662	0.858428	0.000101
 446	4.4278e+01	17.7075	51.025359	0.000446	4.459245	1.510833	0.000179
 447	4.4377e+01	17.7492	51.215104	0.000476	4.763285	1.613845	0.000191
 448	4.4477e+01	17.7877	51.408886	0.000486	4.864631	1.648182	0.000195
 449	4.4576e+01	17.8166	51.542112	0.000334	3.344434	1.133125	0.000134
 450	4.4675e+01	17.8776	51.711672	0.000426	4.256552	1.442159	0.000170
 451	4.4775e+01	17.9097	51.909491	0.000497	4.965978	1.682519	0.000199
 452	4.4874e+01	17.9514	52.095200	0.000466	4.661938	1.579507	0.000187
 453	4.4974e+01	17.9883	52.276871	0.000456	4.560592	1.545170	0.000183
 454	4.5074e+01	18.0332	52.426245	0.000375	3.749820	1.270473	0.000150
 455	4.5173e+01	18.0637	52.676547	0.000628	6.283482	2.128901	0.000252
 456	4.5273e+01	18.0974	52.842070	0.000416	4.155206	1.407822	0.000166
 457	4.5372e+01	18.1503	53.019704	0.000446	4.459245	1.510833	0.000179
 458	4.5471e+01	18.1904	53.177152	0.000395	3.952513	1.339148	0.000158
 459	4.5571e+01	18.2305	53.366897	0.000476	4.763285	1.613845	0.000191
 460	4.5670e+01	18.2706	53.544531	0.000446	4.459245	1.510833	0.000179
 461	4.5770e+01	18.3027	53.706017	0.000405	4.053859	1.373485	0.000162
 462	4.5870e+01	18.3428	53.932096	0.000568	5.675403	1.922879	0.000227
 463	4.5969e+01	18.3829	54.137990	0.000517	5.168671	1.751193	0.000207
 464	4.6069e+01	18.4230	54.291401	0.000385	3.851166	1.304810	0.000154
 465	4.6168e+01	18.4599	54.505370	0.000537	5.371364	1.819867	0.000215
 466	4.6267e+01	18.5064	54.678966	0.000436	4.357899	1.476496	0.000174
 467	4.6367e+01	18.5449	54.929269	0.000628	6.283482	2.128901	0.000252
 468	4.6467e+01	18.5834	55.086717	0.000395	3.952513	1.339148	0.000158
 469	4.6566e+01	18.6251	55.316834	0.000578	5.776750	1.957216	0.000231
 470	4.6666e+01	18.6701	55.462171	0.000365	3.648473	1.236136	0.000146
 471	4.6765e+01	18.7054	55.647879	0.000466	4.661938	1.579507	0.000187
 472	4.6864e+01	18.7503	55.877996	0.000578	5.776750	1.957216	0.000231
 473	4.6964e+01	18.7872	56.075815	0.000497	4.965978	1.682519	0.000199
 474	4.7063e+01	18.8257	56.269598	0.000486	4.864631	1.648182	0.000195
 475	4.7163e+01	18.8754	56.451269	0.000456	4.560592	1.545170	0.000183
 476	4.7263e+01	18.9123	56.725794	0.000689	6.891561	2.334924	0.000276
 477	4.7362e+01	18.9428	56.911502	0.000466	4.661938	1.579507	0.000187
 478	4.7462e+01	18.9765	57.105285	0.000486	4.864631	1.648182	0.000195
 479	4.7561e+01	19.0262	57.323290	0.000547	5.472710	1.854204	0.000219
 480	4.7660e+01	19.0631	57.468627	0.000365	3.648473	1.236136	0.000146
 481	4.7760e+01	19.1000	57.739115	0.000679	6.790214	2.300587	0.000272
 482	4.7859e+01	19.1449	57.920786	0.000456	4.560592	1.545170	0.000183
 483	4.7959e+01	19.1882	58.138792	0.000547	5.472710	1.854204	0.000219
 484	4.8059e+01	19.2235	58.332574	0.000486	4.864631	1.648182	0.000195
 485	4.8158e+01	19.2588	58.562691	0.000578	5.776750	1.957216	0.000231
 486	4.8258e+01	19.3069	58.776659	0.000537	5.371364	1.819867	0.000215
 487	4.8357e+01	19.3535	58.970442	0.000486	4.864631	1.648182	0.000195
 488	4.8456e+01	19.3855	59.208633	0.000598	5.979443	2.025890	0.000239
 489	4.8556e+01	19.4192	59.454898	0.000618	6.182136	2.094564	0.000248
 490	4.8656e+01	19.4577	59.636569	0.000456	4.560592	1.545170	0.000183
 491	4.8755e+01	19.5027	59.866686	0.000578	5.776750	1.957216	0.000231
 492	4.8855e+01	19.5460	60.116988	0.000628	6.283482	2.128901	0.000252
 493	4.8954e+01	19.5829	60.318845	0.000507	5.067324	1.716856	0.000203
 494	4.9053e+01	19.6198	60.520702	0.000507	5.067324	1.716856	0.000203
 495	4.9153e+01	19.6551	60.754856	0.000588	5.878096	1.991553	0.000235
 496	4.9252e+01	19.6904	60.976898	0.000557	5.574057	1.888542	0.000223
 497	4.9352e+01	19.7401	61.198941	0.000557	5.574057	1.888542	0.000223
 498	4.9452e+01	19.7802	61.445206	0.000618	6.182136	2.094564	0.000248
 499	4.9551e+01	19.8155	61.671286	0.000568	5.675403	1.922879	0.000227
 500	4.9651e+01	19.8444	61.897365	0.000568	5.675403	1.922879	0.000227
 501	4.9750e+01	19.9021	62.119408	0.000557	5.574057	1.888542	0.000223
 502	4.9849e+01	19.9390	62.402007	0.000709	7.094254	2.403598	0.000284
 503	4.9949e+01	19.9791	62.636161	0.000588	5.878096	1.991553	0.000235
 504	5.0048e+01	19.9326	62.652310	-0.000041	-0.405386	-0.137348	0.000016
 505	5.0148e+01	19.8941	62.684607	-0.000081	-0.810772	-0.274697	0.000032
 506	5.0248e+01	19.8604	62.720941	-0.000091	-0.912118	-0.309034	0.000037
 507	5.0347e+01	19.8203	62.753238	-0.000081	-0.810772	-0.274697	0.000032
 508	5.0447e+01	19.7706	62.809758	-0.000142	-1.418851	-0.480720	0.000057
 509	5.0546e+01	19.7433	62.797646	0.000030	0.304039	0.103011	-0.000012
 510	5.0645e+01	19.6984	62.858203	-0.000152	-1.520197	-0.515057	0.000061
 511	5.0745e+01	19.6679	62.890501	-0.000081	-0.810772	-0.274697	0.000032
 512	5.0844e+01	19.6166	62.894538	-0.000010	-0.101346	-0.034337	0.000004
 513	5.0944e+01	19.5861	62.914723	-0.000051	-0.506732	-0.171686	0.000020
 514	5.1044e+01	19.5363	62.918760	-0.000010	-0.101346	-0.034337	0.000004
 515	5.1143e+01	19.4978	63.007577	-0.000223	-2.229623	-0.755417	0.000089
 516	5.1242e+01	19.4658	62.955095	0.000132	1.317504	0.446383	-0.000053
 517	5.1342e+01	19.4257	63.015652	-0.000152	-1.520197	-0.515057	0.000061
 518	5.1441e+01	19.3823	62.999503	0.000041	0.405386	0.137348	-0.000016
 519	5.1541e+01	19.3390	63.027763	-0.000071	-0.709425	-0.240360	0.000028
 520	5.1641e+01	19.3085	63.080246	-0.000132	-1.317504	-0.446383	0.000053
 521	5.1740e+01	19.2636	63.068134	0.000030	0.304039	0.103011	-0.000012
 522	5.1840e+01	19.2315	63.104469	-0.000091	-0.912118	-0.309034	0.000037
 523	5.1939e+01	19.1802	63.132729	-0.000071	-0.709425	-0.240360	0.000028
 524	5.2038e+01	19.1385	63.144840	-0.000030	-0.304039	-0.103011	0.000012
 525	5.2138e+01	19.0952	63.156951	-0.000030	-0.304039	-0.103011	0.000012
 526	5.2237e+01	19.0695	63.205397	-0.000122	-1.216158	-0.412045	0.000049
 527	5.2337e+01	19.0166	63.185211	0.000051	0.506732	0.171686	-0.000020
 528	5.2437e+01	18.9877	63.209434	-0.000061	-0.608079	-0.206023	0.000024
 529	5.2536e+01	18.9476	63.225583	-0.000041	-0.405386	-0.137348	0.000016
 530	5.2636e+01	18.9011	63.209434	0.000041	0.405386	0.137348	-0.000016
 531	5.2735e+01	18.8578	63.278066	-0.000172	-1.722890	-0.583731	0.000069
 532	5.2834e+01	18.8241	63.274028	0.000010	0.101346	0.034337	-0.000004
 533	5.2934e+01	18.7840	63.253843	0.000051	0.506732	0.171686	-0.000020
 534	5.3033e+01	18.7390	63.302288	-0.000122	-1.216158	-0.412045	0.000049
 535	5.3133e+01	18.7070	63.322474	-0.000051	-0.506732	-0.171686	0.000020
 536	5.3233e+01	18.6797	63.310363	0.000030	0.304039	0.103011	-0.000012
 537	5.3332e+01	18.6235	63.326511	-0.000041	-0.405386	-0.137348	0.000016
 538	5.3431e+01	18.5834	63.322474	0.000010	0.101346	0.034337	-0.000004
 539	5.3531e+01	18.5594	63.354771	-0.000081	-0.810772	-0.274697	0.000032
 540	5.3630e+01	18.5064	63.346697	0.000020	0.202693	0.068674	-0.000008
 541	5.3730e+01	18.4599	63.362845	-0.000041	-0.405386	-0.137348	0.000016
 542	5.3830e+01	18.4214	63.358808	0.000010	0.101346	0.034337	-0.000004
 543	5.3929e+01	18.3845	63.391105	-0.000081	-0.810772	-0.274697	0.000032
 544	5.4029e+01	18.3460	63.391105	-0.000000	-0.000000	-0.000000	0.000000
 545	5.4128e+01	18.3027	63.411291	-0.000051	-0.506732	-0.171686	0.000020
 546	5.4227e+01	18.2690	63.391105	0.000051	0.506732	0.171686	-0.000020
 547	5.4327e+01	18.2257	63.403217	-0.000030	-0.304039	-0.103011	0.000012
 548	5.4426e+01	18.1856	63.403217	-0.000000	-0.000000	-0.000000	0.000000
 549	5.4526e+01	18.1455	63.463774	-0.000152	-1.520197	-0.515057	0.000061
 550	5.4626e+01	18.1118	63.399180	0.000162	1.621544	0.549394	-0.000065
 551	5.4725e+01	18.0588	63.407254	-0.000020	-0.202693	-0.068674	0.000008
 552	5.4825e+01	18.0252	63.427440	-0.000051	-0.506732	-0.171686	0.000020
 553	5.4924e+01	17.9883	63.443588	-0.000041	-0.405386	-0.137348	0.000016
 554	5.5023e+01	17.9530	63.427440	0.000041	0.405386	0.137348	-0.000016
 555	5.5123e+01	17.9161	63.447625	-0.000051	-0.506732	-0.171686	0.000020
 556	5.5222e+01	17.8615	63.439551	0.000020	0.202693	0.068674	-0.000008
 557	5.5322e+01	17.8262	63.455700	-0.000041	-0.405386	-0.137348	0.000016
 558	5.5422e+01	17.7893	63.463774	-0.000020	-0.202693	-0.068674	0.000008
 559	5.5521e+01	17.7428	63.431477	0.000081	0.810772	0.274697	-0.000032
 560	5.5620e+01	17.7107	63.439551	-0.000020	-0.202693	-0.068674	0.000008
 561	5.5720e+01	17.6610	63.435514	0.000010	0.101346	0.034337	-0.000004
 562	5.5819e+01	17.6353	63.483959	-0.000122	-1.216158	-0.412045	0.000049
 563	5.5919e+01	17.5824	63.459737	0.000061	0.608079	0.206023	-0.000024
 564	5.6019e+01	17.5471	63.439551	0.000051	0.506732	0.171686	-0.000020
 565	5.6118e+01	17.5150	63.431477	0.000020	0.202693	0.068674	-0.000008
 566	5.6218e+01	17.4669	63.411291	0.000051	0.506732	0.171686	-0.000020
 567	5.6317e+01	17.4252	63.415328	-0.000010	-0.101346	-0.034337	0.000004
 568	5.6416e+01	17.3963	63.395142	0.000051	0.506732	0.171686	-0.000020
 569	5.6516e+01	17.3482	63.395142	-0.000000	-0.000000	-0.000000	0.000000
 570	5.6615e+01	17.3097	63.387068	0.000020	0.202693	0.068674	-0.000008
 571	5.6715e+01	17.2664	63.366883	0.000051	0.506732	0.171686	-0.000020
 572	5.6815e+01	17.2311	63.362845	0.000010	0.101346	0.034337	-0.000004
 573	5.6914e+01	17.1974	63.374957	-0.000030	-0.304039	-0.103011	0.000012
 574	5.7014e+01	17.1492	63.366883	0.000020	0.202693	0.068674	-0.000008
 575	5.7113e+01	17.1188	63.350734	0.000041	0.405386	0.137348	-0.000016
 576	5.7212e+01	17.0706	63.302288	0.000122	1.216158	0.412045	-0.000049
 577	5.7312e+01	17.0305	63.278066	0.000061	0.608079	0.206023	-0.000024
 578	5.7411e+01	16.9936	63.306326	-0.000071	-0.709425	-0.240360	0.000028
 579	5.7511e+01	16.9455	63.306326	-0.000000	-0.000000	-0.000000	0.000000
 580	5.7611e+01	16.9150	63.241731	0.000162	1.621544	0.549394	-0.000065
 581	5.7710e+01	16.8653	63.229620	0.000030	0.304039	0.103011	-0.000012
 582	5.7809e+01	16.8300	63.217509	0.000030	0.304039	0.103011	-0.000012
 583	5.7909e+01	16.7867	63.241731	-0.000061	-0.608079	-0.206023	0.000024
 584	5.8008e+01	16.7530	63.201360	0.000101	1.013465	0.343371	-0.000041
 585	5.8108e+01	16.7049	63.173100	0.000071	0.709425	0.240360	-0.000028
 586	5.8208e+01	16.6776	63.173100	-0.000000	-0.000000	-0.000000	0.000000
 587	5.8307e+01	16.6343	63.116580	0.000142	1.418851	0.480720	-0.000057
 588	5.8407e+01	16.5878	63.124654	-0.000020	-0.202693	-0.068674	0.000008
 589	5.8506e+01	16.5541	63.104469	0.000051	0.506732	0.171686	-0.000020
 590	5.8605e+01	16.5076	63.051986	0.000132	1.317504	0.446383	-0.000053
 591	5.8705e+01	16.4658	63.039875	0.000030	0.304039	0.103011	-0.000012
 592	5.8804e+01	16.4338	63.056023	-0.000041	-0.405386	-0.137348	0.000016
 593	5.8904e+01	16.3921	63.031800	0.000061	0.608079	0.206023	-0.000024
 594	5.9004e+01	16.3487	62.987392	0.000111	1.114811	0.377708	-0.000045
 595	5.9103e+01	16.3102	62.971243	0.000041	0.405386	0.137348	-0.000016
 596	5.9203e+01	16.2749	62.926835	0.000111	1.114811	0.377708	-0.000045
 597	5.9302e+01	16.2348	62.882426	0.000111	1.114811	0.377708	-0.000045
 598	5.9401e+01	16.1979	62.906649	-0.000061	-0.608079	-0.206023	0.000024
 599	5.9501e+01	16.1594	62.825906	0.000203	2.026930	0.686742	-0.000081
 600	5.9600e+01	16.1129	62.793609	0.000081	0.810772	0.274697	-0.000032
 601	5.9700e+01	16.0712	62.757275	0.000091	0.912118	0.309034	-0.000037
 602	5.9800e+01	16.0263	62.769386	-0.000030	-0.304039	-0.103011	0.000012
 603	5.9899e+01	15.9862	62.708829	0.000152	1.520197	0.515057	-0.000061
 604	5.9998e+01	15.9461	62.672495	0.000091	0.912118	0.309034	-0.000037
 605	6.0098e+01	15.9156	62.660384	0.000030	0.304039	0.103011	-0.000012
 606	6.0197e+01	15.8707	62.599827	0.000152	1.520197	0.515057	-0.000061
 607	6.0297e+01	15.8322	62.595790	0.000010	0.101346	0.034337	-0.000004
 608	6.0397e+01	15.7937	62.567530	0.000071	0.709425	0.240360	-0.000028
 609	6.0496e+01	15.7632	62.531195	0.000091	0.912118	0.309034	-0.000037
 610	6.0596e+01	15.7151	62.498898	0.000081	0.810772	0.274697	-0.000032
 611	6.0695e+01	15.6766	62.430267	0.000172	1.722890	0.583731	-0.000069
 612	6.0794e+01	15.6429	62.385859	0.000111	1.114811	0.377708	-0.000045
 613	6.0894e+01	15.5915	62.389896	-0.000010	-0.101346	-0.034337	0.000004
 614	6.0993e+01	15.5578	62.321264	0.000172	1.722890	0.583731	-0.000069
 615	6.1093e+01	15.5177	62.325302	-0.000010	-0.101346	-0.034337	0.000004
 616	6.1193e+01	15.4776	62.228410	0.000243	2.432316	0.824091	-0.000097
 617	6.1292e+01	15.4343	62.192076	0.000091	0.912118	0.309034	-0.000037
 618	6.1392e+01	15.3974	62.179965	0.000030	0.304039	0.103011	-0.000012
 619	6.1491e+01	15.3557	62.151705	0.000071	0.709425	0.240360	-0.000028
 620	6.1590e+01	15.3156	62.070962	0.000203	2.026930	0.686742	-0.000081
 621	6.1690e+01	15.2787	62.066925	0.000010	0.101346	0.034337	-0.000004
 622	6.1789e+01	15.2338	62.018479	0.000122	1.216158	0.412045	-0.000049
 623	6.1889e+01	15.2001	61.970034	0.000122	1.216158	0.412045	-0.000049
 624	6.1989e+01	15.1536	61.929662	0.000101	1.013465	0.343371	-0.000041
 625	6.2088e+01	15.1167	61.897365	0.000081	0.810772	0.274697	-0.000032
 626	6.2188e+01	15.0782	61.832771	0.000162	1.621544	0.549394	-0.000065
 627	6.2287e+01	15.0333	61.772214	0.000152	1.520197	0.515057	-0.000061
 628	6.2386e+01	14.9932	61.756065	0.000041	0.405386	0.137348	-0.000016
 629	6.2486e+01	14.9579	61.691471	0.000162	1.621544	0.549394	-0.000065
 630	6.2586e+01	14.9178	61.651100	0.000101	1.013465	0.343371	-0.000041
 631	6.2685e+01	14.8793	61.606691	0.000111	1.114811	0.377708	-0.000045
 632	6.2785e+01	14.8424	61.566320	0.000101	1.013465	0.343371	-0.000041
 633	6.2884e+01	14.7926	61.550171	0.000041	0.405386	0.137348	-0.000016
 634	6.2983e+01	14.7654	61.513837	0.000091	0.912118	0.309034	-0.000037
 635	6.3083e+01	14.7140	61.433095	0.000203	2.026930	0.686742	-0.000081
 636	6.3182e+01	14.6803	61.404835	0.000071	0.709425	0.240360	-0.000028
 637	6.3282e+01	14.6370	61.320055	0.000213	2.128276	0.721079	-0.000085
 638	6.3382e+01	14.6001	61.267572	0.000132	1.317504	0.446383	-0.000053
 639	6.3481e+01	14.5536	61.219126	0.000122	1.216158	0.412045	-0.000049
 640	6.3581e+01	14.5119	61.178755	0.000101	1.013465	0.343371	-0.000041
 641	6.3680e+01	14.4798	61.114161	0.000162	1.621544	0.549394	-0.000065
 642	6.3779e+01	14.4381	61.081864	0.000081	0.810772	0.274697	-0.000032
 643	6.3879e+01	14.3996	61.037455	0.000111	1.114811	0.377708	-0.000045
 644	6.3978e+01	14.3563	60.960750	0.000193	1.925583	0.652405	-0.000077
 645	6.4078e+01	14.3226	60.932490	0.000071	0.709425	0.240360	-0.000028
 646	6.4177e+01	14.2745	60.896155	0.000091	0.912118	0.309034	-0.000037
 647	6.4277e+01	14.2408	60.843673	0.000132	1.317504	0.446383	-0.000053
 648	6.4376e+01	14.2007	60.771004	0.000182	1.824237	0.618068	-0.000073
 649	6.4476e+01	14.1574	60.730633	0.000101	1.013465	0.343371	-0.000041
 650	6.4576e+01	14.1205	60.686224	0.000111	1.114811	0.377708	-0.000045
 651	6.4675e+01	14.0787	60.617593	0.000172	1.722890	0.583731	-0.000069
 652	6.4775e+01	14.0402	60.597407	0.000051	0.506732	0.171686	-0.000020
 653	6.4874e+01	14.0066	60.512628	0.000213	2.128276	0.721079	-0.000085
 654	6.4974e+01	13.9632	60.496479	0.000041	0.405386	0.137348	-0.000016
 655	6.5073e+01	13.9103	60.411699	0.000213	2.128276	0.721079	-0.000085
 656	6.5172e+01	13.8846	60.339031	0.000182	1.824237	0.618068	-0.000073
 657	6.5272e+01	13.8413	60.290585	0.000122	1.216158	0.412045	-0.000049
 658	6.5371e+01	13.8076	60.254251	0.000091	0.912118	0.309034	-0.000037
 659	6.5471e+01	13.7627	60.209842	0.000111	1.114811	0.377708	-0.000045
 660	6.5570e+01	13.7322	60.137174	0.000182	1.824237	0.618068	-0.000073
 661	6.5670e+01	13.6809	60.100840	0.000091	0.912118	0.309034	-0.000037
 662	6.5769e+01	13.6408	60.024134	0.000193	1.925583	0.652405	-0.000077
 663	6.5869e+01	13.6039	59.959540	0.000162	1.621544	0.549394	-0.000065
 664	6.5969e+01	13.5638	59.927243	0.000081	0.810772	0.274697	-0.000032
 665	6.6068e+01	13.5205	59.842463	0.000213	2.128276	0.721079	-0.000085
 666	6.6168e+01	13.4788	59.814203	0.000071	0.709425	0.240360	-0.000028
 667	6.6267e+01	13.4483	59.773832	0.000101	1.013465	0.343371	-0.000041
 668	6.6367e+01	13.3986	59.652718	0.000304	3.040395	1.030114	-0.000122
 669	6.6466e+01	13.3633	59.640606	0.000030	0.304039	0.103011	-0.000012
 670	6.6566e+01	13.3280	59.555826	0.000213	2.128276	0.721079	-0.000085
 671	6.6665e+01	13.2895	59.507381	0.000122	1.216158	0.412045	-0.000049
 672	6.6764e+01	13.2413	59.434712	0.000182	1.824237	0.618068	-0.000073
 673	6.6864e+01	13.2012	59.362044	0.000182	1.824237	0.618068	-0.000073
 674	6.6963e+01	13.1740	59.297450	0.000162	1.621544	0.549394	-0.000065
 675	6.7063e+01	13.1258	59.277264	0.000051	0.506732	0.171686	-0.000020
 676	6.7162e+01	13.0921	59.176336	0.000253	2.533662	0.858428	-0.000101
 677	6.7262e+01	13.0504	59.127890	0.000122	1.216158	0.412045	-0.000049
 678	6.7362e+01	13.0103	59.063296	0.000162	1.621544	0.549394	-0.000065
 679	6.7461e+01	12.9606	59.002739	0.000152	1.520197	0.515057	-0.000061
 680	6.7561e+01	12.9253	58.930070	0.000182	1.824237	0.618068	-0.000073
 681	6.7660e+01	12.8948	58.909885	0.000051	0.506732	0.171686	-0.000020
 682	6.7760e+01	12.8595	58.821068	0.000223	2.229623	0.755417	-0.000089
 683	6.7859e+01	12.8098	58.724176	0.000243	2.432316	0.824091	-0.000097
 684	6.7959e+01	12.7729	58.703991	0.000051	0.506732	0.171686	-0.000020
 685	6.8058e+01	12.7328	58.635359	0.000172	1.722890	0.583731	-0.000069
 686	6.8157e+01	12.6959	58.578840	0.000142	1.418851	0.480720	-0.000057
 687	6.8257e+01	12.6510	58.465800	0.000284	2.837702	0.961439	-0.000114
 688	6.8356e+01	12.6061	58.449651	0.000041	0.405386	0.137348	-0.000016
 689	6.8456e+01	12.5756	58.368909	0.000203	2.026930	0.686742	-0.000081
 690	6.8555e+01	12.5339	58.308351	0.000152	1.520197	0.515057	-0.000061
 691	6.8655e+01	12.4890	58.247794	0.000152	1.520197	0.515057	-0.000061
 692	6.8754e+01	12.4553	58.179163	0.000172	1.722890	0.583731	-0.000069
 693	6.8854e+01	12.4136	58.110532	0.000172	1.722890	0.583731	-0.000069
 694	6.8954e+01	12.3718	58.009603	0.000253	2.533662	0.858428	-0.000101
 695	6.9053e+01	12.3317	57.969232	0.000101	1.013465	0.343371	-0.000041
 696	6.9153e+01	12.2900	57.896564	0.000182	1.824237	0.618068	-0.000073
 697	6.9252e+01	12.2547	57.840044	0.000142	1.418851	0.480720	-0.000057
 698	6.9352e+01	12.2082	57.795635	0.000111	1.114811	0.377708	-0.000045
 699	6.9451e+01	12.1665	57.698744	0.000243	2.432316	0.824091	-0.000097
 700	6.9550e+01	12.1280	57.589741	0.000274	2.736355	0.927102	-0.000110
 701	6.9650e+01	12.0895	57.533221	0.000142	1.418851	0.480720	-0.000057
 702	6.9749e+01	12.0542	57.456516	0.000193	1.925583	0.652405	-0.000077
 703	6.9849e+01	12.0125	57.399996	0.000142	1.418851	0.480720	-0.000057
 704	6.9948e+01	11.9628	57.282919	0.000294	2.939048	0.995776	-0.000118
 705	7.0048e+01	11.9307	57.238510	0.000111	1.114811	0.377708	-0.000045
 706	7.0147e+01	11.9050	57.165842	0.000182	1.824237	0.618068	-0.000073
 707	7.0247e+01	11.8473	57.072988	0.000233	2.330969	0.789754	-0.000093
 708	7.0347e+01	11.8104	57.028579	0.000111	1.114811	0.377708	-0.000045
 709	7.0446e+01	11.7735	56.947837	0.000203	2.026930	0.686742	-0.000081
 710	7.0546e+01	11.7302	56.842871	0.000264	2.635009	0.892765	-0.000105
 711	7.0645e+01	11.6997	56.790388	0.000132	1.317504	0.446383	-0.000053
 712	7.0745e+01	11.6515	56.705609	0.000213	2.128276	0.721079	-0.000085
 713	7.0844e+01	11.6098	56.636977	0.000172	1.722890	0.583731	-0.000069
 714	7.0944e+01	11.5761	56.552197	0.000213	2.128276	0.721079	-0.000085
 715	7.1043e+01	11.5312	56.475492	0.000193	1.925583	0.652405	-0.000077
 716	7.1142e+01	11.4911	56.398786	0.000193	1.925583	0.652405	-0.000077
 717	7.1242e+01	11.4510	56.289784	0.000274	2.736355	0.927102	-0.000110
 718	7.1341e+01	11.4205	56.205004	0.000213	2.128276	0.721079	-0.000085
 719	7.1441e+01	11.3740	56.160595	0.000111	1.114811	0.377708	-0.000045
 720	7.1540e+01	11.3307	56.059667	0.000253	2.533662	0.858428	-0.000101
 721	7.1640e+01	11.2938	55.982961	0.000193	1.925583	0.652405	-0.000077
 722	7.1740e+01	11.2457	55.914330	0.000172	1.722890	0.583731	-0.000069
 723	7.1839e+01	11.2072	55.777067	0.000345	3.445780	1.167462	-0.000138
 724	7.1939e+01	11.1799	55.736696	0.000101	1.013465	0.343371	-0.000041
 725	7.2038e+01	11.1414	55.651916	0.000213	2.128276	0.721079	-0.000085
 726	7.2138e+01	11.0933	55.563099	0.000223	2.229623	0.755417	-0.000089
 727	7.2237e+01	11.0564	55.470245	0.000233	2.330969	0.789754	-0.000093
 728	7.2337e+01	11.0227	55.385465	0.000213	2.128276	0.721079	-0.000085
 729	7.2436e+01	10.9746	55.304722	0.000203	2.026930	0.686742	-0.000081
 730	7.2535e+01	10.9361	55.191683	0.000284	2.837702	0.961439	-0.000114
 731	7.2635e+01	10.8895	55.102866	0.000223	2.229623	0.755417	-0.000089
 732	7.2734e+01	10.8591	55.034234	0.000172	1.722890	0.583731	-0.000069
 733	7.2834e+01	10.8125	54.945417	0.000223	2.229623	0.755417	-0.000089
 734	7.2933e+01	10.7756	54.852563	0.000233	2.330969	0.789754	-0.000093
 735	7.3033e+01	10.7323	54.751635	0.000253	2.533662	0.858428	-0.000101
 736	7.3132e+01	10.7034	54.683004	0.000172	1.722890	0.583731	-0.000069
 737	7.3232e+01	10.6585	54.574001	0.000274	2.736355	0.927102	-0.000110
 738	7.3332e+01	10.6136	54.448850	0.000314	3.141741	1.064451	-0.000126
 739	7.3431e+01	10.5799	54.368107	0.000203	2.026930	0.686742	-0.000081
 740	7.3531e+01	10.5366	54.311587	0.000142	1.418851	0.480720	-0.000057
 741	7.3630e+01	10.4965	54.194510	0.000294	2.939048	0.995776	-0.000118
 742	7.3730e+01	10.4516	54.105693	0.000223	2.229623	0.755417	-0.000089
 743	7.3829e+01	10.4147	53.980542	0.000314	3.141741	1.064451	-0.000126
 744	7.3928e+01	10.3730	53.887688	0.000233	2.330969	0.789754	-0.000093
 745	7.4028e+01	10.3393	53.823094	0.000162	1.621544	0.549394	-0.000065
 746	7.4127e+01	10.2960	53.706017	0.000294	2.939048	0.995776	-0.000118
 747	7.4227e+01	10.2543	53.556643	0.000375	3.749820	1.270473	-0.000150
 748	7.4326e+01	10.2206	53.496086	0.000152	1.520197	0.515057	-0.000061
 749	7.4426e+01	10.1837	53.411306	0.000213	2.128276	0.721079	-0.000085
 750	7.4525e+01	10.1420	53.326526	0.000213	2.128276	0.721079	-0.000085
 751	7.4625e+01	10.0986	53.189263	0.000345	3.445780	1.167462	-0.000138
 752	7.4725e+01	10.0601	53.108521	0.000203	2.026930	0.686742	-0.000081
 753	7.4824e+01	10.0184	53.035852	0.000182	1.824237	0.618068	-0.000073
 754	7.4924e+01	9.9863	52.918775	0.000294	2.939048	0.995776	-0.000118
 755	7.5023e+01	9.9366	52.870330	0.000122	1.216158	0.412045	-0.000049
 756	7.5123e+01	9.8933	52.688659	0.000456	4.560592	1.545170	-0.000183
 757	7.5222e+01	9.8532	52.603879	0.000213	2.128276	0.721079	-0.000085
 758	7.5322e+01	9.8115	52.539284	0.000162	1.621544	0.549394	-0.000065
 759	7.5421e+01	9.7826	52.426245	0.000284	2.837702	0.961439	-0.000114
 760	7.5520e+01	9.7361	52.272834	0.000385	3.851166	1.304810	-0.000154
 761	7.5620e+01	9.7056	52.184017	0.000223	2.229623	0.755417	-0.000089
 762	7.5719e+01	9.6575	52.075014	0.000274	2.736355	0.927102	-0.000110
 763	7.5819e+01	9.6190	51.966011	0.000274	2.736355	0.927102	-0.000110
 764	7.5918e+01	9.5789	51.848934	0.000294	2.939048	0.995776	-0.000118
 765	7.6018e+01	9.5388	51.780303	0.000172	1.722890	0.583731	-0.000069
 766	7.6118e+01	9.4971	51.643040	0.000345	3.445780	1.167462	-0.000138
 767	7.6217e+01	9.4537	51.554223	0.000223	2.229623	0.755417	-0.000089
 768	7.6317e+01	9.4297	51.425035	0.000324	3.243087	1.098788	-0.000130
 769	7.6416e+01	9.3799	51.344292	0.000203	2.026930	0.686742	-0.000081
 770	7.6516e+01	9.3511	51.182807	0.000405	4.053859	1.373485	-0.000162
 771	7.6615e+01	9.2965	51.106101	0.000193	1.925583	0.652405	-0.000077
 772	7.6715e+01	9.2660	50.980950	0.000314	3.141741	1.064451	-0.000126
 773	7.6814e+01	9.2211	50.867910	0.000284	2.837702	0.961439	-0.000114
 774	7.6913e+01	9.1778	50.766982	0.000253	2.533662	0.858428	-0.000101
 775	7.7013e+01	9.1489	50.653942	0.000284	2.837702	0.961439	-0.000114
 776	7.7112e+01	9.1040	50.540902	0.000284	2.837702	0.961439	-0.000114
 777	7.7212e+01	9.0559	50.444011	0.000243	2.432316	0.824091	-0.000097
 778	7.7311e+01	9.0286	50.302711	0.000355	3.547127	1.201799	-0.000142
 779	7.7411e+01	8.9773	50.193709	0.000274	2.736355	0.927102	-0.000110
 780	7.7510e+01	8.9436	50.108929	0.000213	2.128276	0.721079	-0.000085
 781	7.7610e+01	8.9067	50.016075	0.000233	2.330969	0.789754	-0.000093
 782	7.7710e+01	8.8650	49.846515	0.000426	4.256552	1.442159	-0.000170
 783	7.7809e+01	8.8201	49.761735	0.000213	2.128276	0.721079	-0.000085
 784	7.7909e+01	8.7848	49.628510	0.000334	3.344434	1.133125	-0.000134
 785	7.8008e+01	8.7479	49.495284	0.000334	3.344434	1.133125	-0.000134
 786	7.8108e+01	8.6949	49.390319	0.000264	2.635009	0.892765	-0.000105
 787	7.8207e+01	8.6564	49.289390	0.000253	2.533662	0.858428	-0.000101
 788	7.8306e+01	8.6260	49.164239	0.000314	3.141741	1.064451	-0.000126
 789	7.8406e+01	8.5907	49.047162	0.000294	2.939048	0.995776	-0.000118
 790	7.8505e+01	8.5409	48.913937	0.000334	3.344434	1.133125	-0.000134
 791	7.8605e+01	8.5008	48.796860	0.000294	2.939048	0.995776	-0.000118
 792	7.8704e+01	8.4639	48.679783	0.000294	2.939048	0.995776	-0.000118
 793	7.8804e+01	8.4190	48.595003	0.000213	2.128276	0.721079	-0.000085
 794	7.8903e+01	8.3917	48.429480	0.000416	4.155206	1.407822	-0.000166
 795	7.9003e+01	8.3340	48.320478	0.000274	2.736355	0.927102	-0.000110
 796	7.9103e+01	8.3083	48.255883	0.000162	1.621544	0.549394	-0.000065
 797	7.9202e+01	8.2570	48.110547	0.000365	3.648473	1.236136	-0.000146
 798	7.9302e+01	8.2265	47.989433	0.000304	3.040395	1.030114	-0.000122
 799	7.9401e+01	8.1864	47.831984	0.000395	3.952513	1.339148	-0.000158
 800	7.9501e+01	8.1415	47.714907	0.000294	2.939048	0.995776	-0.000118
 801	7.9600e+01	8.1014	47.581682	0.000334	3.344434	1.133125	-0.000134
 802	7.9700e+01	8.0725	47.509013	0.000182	1.824237	0.618068	-0.000073
 803	7.9799e+01	8.0244	47.379825	0.000324	3.243087	1.098788	-0.000130
 804	7.9898e+01	7.9907	47.254674	0.000314	3.141741	1.064451	-0.000126
 805	7.9998e+01	7.9458	47.117411	0.000345	3.445780	1.167462	-0.000138
 806	8.0097e+01	7.8992	46.976111	0.000355	3.547127	1.201799	-0.000142
 807	8.0197e+01	7.8688	46.871146	0.000264	2.635009	0.892765	-0.000105
 808	8.0296e+01	7.8222	46.737920	0.000334	3.344434	1.133125	-0.000134
 809	8.0396e+01	7.7805	46.592584	0.000365	3.648473	1.236136	-0.000146
 810	8.0496e+01	7.7436	46.455321	0.000345	3.445780	1.167462	-0.000138
 811	8.0595e+01	7.7115	46.374578	0.000203	2.026930	0.686742	-0.000081
 812	8.0695e+01	7.6666	46.281724	0.000233	2.330969	0.789754	-0.000093
 813	8.0794e+01	7.6249	46.156573	0.000314	3.141741	1.064451	-0.000126
 814	8.0894e+01	7.5944	46.011236	0.000365	3.648473	1.236136	-0.000146
 815	8.0993e+01	7.5527	45.873973	0.000345	3.445780	1.167462	-0.000138
 816	8.1093e+01	7.5046	45.760934	0.000284	2.837702	0.961439	-0.000114
 817	8.1192e+01	7.4709	45.627708	0.000334	3.344434	1.133125	-0.000134
 818	8.1291e+01	7.4292	45.498520	0.000324	3.243087	1.098788	-0.000130
 819	8.1391e+01	7.3795	45.389517	0.000274	2.736355	0.927102	-0.000110
 820	8.1490e+01	7.3410	45.256292	0.000334	3.344434	1.133125	-0.000134
 821	8.1590e+01	7.3041	45.143252	0.000284	2.837702	0.961439	-0.000114
 822	8.1689e+01	7.2704	45.038286	0.000264	2.635009	0.892765	-0.000105
 823	8.1789e+01	7.2190	44.840467	0.000497	4.965978	1.682519	-0.000199
 824	8.1888e+01	7.1886	44.771835	0.000172	1.722890	0.583731	-0.000069
 825	8.1988e+01	7.1501	44.606313	0.000416	4.155206	1.407822	-0.000166
 826	8.2088e+01	7.1035	44.501347	0.000264	2.635009	0.892765	-0.000105
 827	8.2187e+01	7.0779	44.372159	0.000324	3.243087	1.098788	-0.000130
 828	8.2287e+01	7.0217	44.222785	0.000375	3.749820	1.270473	-0.000150
 829	8.2386e+01	6.9896	44.125894	0.000243	2.432316	0.824091	-0.000097
 830	8.2486e+01	6.9511	43.988631	0.000345	3.445780	1.167462	-0.000138
 831	8.2585e+01	6.9158	43.871554	0.000294	2.939048	0.995776	-0.000118
 832	8.2684e+01	6.8629	43.734291	0.000345	3.445780	1.167462	-0.000138
 833	8.2784e+01	6.8276	43.584917	0.000375	3.749820	1.270473	-0.000150
 834	8.2883e+01	6.7843	43.447655	0.000345	3.445780	1.167462	-0.000138
 835	8.2983e+01	6.7458	43.330578	0.000294	2.939048	0.995776	-0.000118
 836	8.3082e+01	6.7073	43.205427	0.000314	3.141741	1.064451	-0.000126
 837	8.3182e+01	6.6688	43.096424	0.000274	2.736355	0.927102	-0.000110
 838	8.3281e+01	6.6319	42.955124	0.000355	3.547127	1.201799	-0.000142
 839	8.3381e+01	6.5950	42.838047	0.000294	2.939048	0.995776	-0.000118
 840	8.3481e+01	6.5517	42.696748	0.000355	3.547127	1.201799	-0.000142
 841	8.3580e+01	6.5116	42.575633	0.000304	3.040395	1.030114	-0.000122
 842	8.3680e+01	6.4699	42.422222	0.000385	3.851166	1.304810	-0.000154
 843	8.3779e+01	6.4298	42.276885	0.000365	3.648473	1.236136	-0.000146
 844	8.3879e+01	6.3961	42.184031	0.000233	2.330969	0.789754	-0.000093
 845	8.3978e+01	6.3496	42.022546	0.000405	4.053859	1.373485	-0.000162
 846	8.4078e+01	6.3159	41.881246	0.000355	3.547127	1.201799	-0.000142
 847	8.4177e+01	6.2693	41.796466	0.000213	2.128276	0.721079	-0.000085
 848	8.4276e+01	6.2437	41.663241	0.000334	3.344434	1.133125	-0.000134
 849	8.4376e+01	6.1827	41.469458	0.000486	4.864631	1.648182	-0.000195
 850	8.4475e+01	6.1570	41.372567	0.000243	2.432316	0.824091	-0.000097
 851	8.4575e+01	6.1121	41.251453	0.000304	3.040395	1.030114	-0.000122
 852	8.4674e+01	6.0752	41.098042	0.000385	3.851166	1.304810	-0.000154
 853	8.4774e+01	6.0287	40.964816	0.000334	3.344434	1.133125	-0.000134
 854	8.4874e+01	5.9854	40.799294	0.000416	4.155206	1.407822	-0.000166
 855	8.4973e+01	5.9581	40.690291	0.000274	2.736355	0.927102	-0.000110
 856	8.5073e+01	5.9132	40.548991	0.000355	3.547127	1.201799	-0.000142
 857	8.5172e+01	5.8795	40.427877	0.000304	3.040395	1.030114	-0.000122
 858	8.5272e+01	5.8378	40.302726	0.000314	3.141741	1.064451	-0.000126
 859	8.5371e+01	5.7929	40.181612	0.000304	3.040395	1.030114	-0.000122
 860	8.5471e+01	5.7592	40.028201	0.000385	3.851166	1.304810	-0.000154
 861	8.5570e+01	5.7095	39.878827	0.000375	3.749820	1.270473	-0.000150
 862	8.5669e+01	5.6790	39.749638	0.000324	3.243087	1.098788	-0.000130
 863	8.5769e+01	5.6341	39.628524	0.000304	3.040395	1.030114	-0.000122
 864	8.5868e+01	5.5940	39.463002	0.000416	4.155206	1.407822	-0.000166
 865	8.5968e+01	5.5539	39.329776	0.000334	3.344434	1.133125	-0.000134
 866	8.6067e+01	5.5218	39.180402	0.000375	3.749820	1.270473	-0.000150
 867	8.6167e+01	5.4736	39.075437	0.000264	2.635009	0.892765	-0.000105
 868	8.6266e+01	5.4303	38.897803	0.000446	4.459245	1.510833	-0.000179
 869	8.6366e+01	5.4063	38.800912	0.000243	2.432316	0.824091	-0.000097
 870	8.6466e+01	5.3581	38.647500	0.000385	3.851166	1.304810	-0.000154
 871	8.6565e+01	5.3164	38.494089	0.000385	3.851166	1.304810	-0.000154
 872	8.6665e+01	5.2779	38.344715	0.000375	3.749820	1.270473	-0.000150
 873	8.6764e+01	5.2410	38.203415	0.000355	3.547127	1.201799	-0.000142
 874	8.6864e+01	5.2009	38.078264	0.000314	3.141741	1.064451	-0.000126
 875	8.6963e+01	5.1592	37.957150	0.000304	3.040395	1.030114	-0.000122
 876	8.7063e+01	5.1127	37.791628	0.000416	4.155206	1.407822	-0.000166
 877	8.7162e+01	5.0726	37.666476	0.000314	3.141741	1.064451	-0.000126
 878	8.7261e+01	5.0341	37.549399	0.000294	2.939048	0.995776	-0.000118
 879	8.7361e+01	4.9972	37.400025	0.000375	3.749820	1.270473	-0.000150
 880	8.7460e+01	4.9571	37.254689	0.000365	3.648473	1.236136	-0.000146
 881	8.7560e+01	4.9106	37.064943	0.000476	4.763285	1.613845	-0.000191
 882	8.7659e+01	4.8753	36.943829	0.000304	3.040395	1.030114	-0.000122
 883	8.7759e+01	4.8448	36.814641	0.000324	3.243087	1.098788	-0.000130
 884	8.7859e+01	4.7999	36.685452	0.000324	3.243087	1.098788	-0.000130
 885	8.7958e+01	4.7517	36.503781	0.000456	4.560592	1.545170	-0.000183
 886	8.8058e+01	4.7180	36.362482	0.000355	3.547127	1.201799	-0.000142
 887	8.8157e+01	4.6763	36.261553	0.000253	2.533662	0.858428	-0.000101
 888	8.8257e+01	4.6426	36.067771	0.000486	4.864631	1.648182	-0.000195
 889	8.8356e+01	4.5977	35.938582	0.000324	3.243087	1.098788	-0.000130
 890	8.8456e+01	4.5560	35.785171	0.000385	3.851166	1.304810	-0.000154
 891	8.8555e+01	4.5239	35.639834	0.000365	3.648473	1.236136	-0.000146
 892	8.8654e+01	4.4742	35.510646	0.000324	3.243087	1.098788	-0.000130
 893	8.8754e+01	4.4309	35.365309	0.000365	3.648473	1.236136	-0.000146
 894	8.8853e+01	4.3924	35.211898	0.000385	3.851166	1.304810	-0.000154
 895	8.8953e+01	4.3619	35.102895	0.000274	2.736355	0.927102	-0.000110
 896	8.9052e+01	4.3170	34.892964	0.000527	5.270017	1.785530	-0.000211
 897	8.9152e+01	4.2833	34.747627	0.000365	3.648473	1.236136	-0.000146
 898	8.9251e+01	4.2400	34.630550	0.000294	2.939048	0.995776	-0.000118
 899	8.9351e+01	4.2015	34.465028	0.000416	4.155206	1.407822	-0.000166
 900	8.9451e+01	4.1662	34.351988	0.000284	2.837702	0.961439	-0.000114
 901	8.9550e+01	4.1293	34.138020	0.000537	5.371364	1.819867	-0.000215
 902	8.9650e+01	4.0731	34.008831	0.000324	3.243087	1.098788	-0.000130
 903	8.9749e+01	4.0459	33.879643	0.000324	3.243087	1.098788	-0.000130
 904	8.9849e+01	4.0026	33.726232	0.000385	3.851166	1.304810	-0.000154
 905	8.9948e+01	3.9625	33.597044	0.000324	3.243087	1.098788	-0.000130
 906	9.0047e+01	3.9272	33.379038	0.000547	5.472710	1.854204	-0.000219
 907	9.0147e+01	3.8806	33.241776	0.000345	3.445780	1.167462	-0.000138
 908	9.0246e+01	3.8389	33.108550	0.000334	3.344434	1.133125	-0.000134
 909	9.0346e+01	3.7988	32.910731	0.000497	4.965978	1.682519	-0.000199
 910	9.0445e+01	3.7507	32.801728	0.000274	2.736355	0.927102	-0.000110
 911	9.0545e+01	3.7186	32.640242	0.000405	4.053859	1.373485	-0.000162
 912	9.0644e+01	3.6801	32.511054	0.000324	3.243087	1.098788	-0.000130
 913	9.0744e+01	3.6384	32.337457	0.000436	4.357899	1.476496	-0.000174
 914	9.0844e+01	3.6015	32.175972	0.000405	4.053859	1.373485	-0.000162
 915	9.0943e+01	3.5566	32.087155	0.000223	2.229623	0.755417	-0.000089
 916	9.1043e+01	3.5277	31.885298	0.000507	5.067324	1.716856	-0.000203
 917	9.1142e+01	3.4876	31.731887	0.000385	3.851166	1.304810	-0.000154
 918	9.1242e+01	3.4459	31.550216	0.000456	4.560592	1.545170	-0.000183
 919	9.1341e+01	3.4042	31.376619	0.000436	4.357899	1.476496	-0.000174
 920	9.1441e+01	3.3657	31.251468	0.000314	3.141741	1.064451	-0.000126
 921	9.1540e+01	3.3208	31.057685	0.000486	4.864631	1.648182	-0.000195
 922	9.1639e+01	3.2871	30.916385	0.000355	3.547127	1.201799	-0.000142
 923	9.1739e+01	3.2470	30.767011	0.000375	3.749820	1.270473	-0.000150
 924	9.1838e+01	3.2004	30.593415	0.000436	4.357899	1.476496	-0.000174
 925	9.1938e+01	3.1652	30.452115	0.000355	3.547127	1.201799	-0.000142
 926	9.2037e+01	3.1250	30.290629	0.000405	4.053859	1.373485	-0.000162
 927	9.2137e+01	3.0849	30.121070	0.000426	4.256552	1.442159	-0.000170
 928	9.2237e+01	3.0432	29.959584	0.000405	4.053859	1.373485	-0.000162
 929	9.2336e+01	3.0079	29.785987	0.000436	4.357899	1.476496	-0.000174
 930	9.2436e+01	2.9598	29.648725	0.000345	3.445780	1.167462	-0.000138
 931	9.2535e+01	2.9309	29.511462	0.000345	3.445780	1.167462	-0.000138
 932	9.2635e+01	2.8924	29.337865	0.000436	4.357899	1.476496	-0.000174
 933	9.2734e+01	2.8427	29.220788	0.000294	2.939048	0.995776	-0.000118
 934	9.2834e+01	2.8074	28.990672	0.000578	5.776750	1.957216	-0.000231
 935	9.2933e+01	2.7705	28.889743	0.000253	2.533662	0.858428	-0.000101
 936	9.3032e+01	2.7304	28.708072	0.000456	4.560592	1.545170	-0.000183
 937	9.3132e+01	2.6823	28.510253	0.000497	4.965978	1.682519	-0.000199
 938	9.3231e+01	2.6534	28.381064	0.000324	3.243087	1.098788	-0.000130
 939	9.3331e+01	2.6101	28.199393	0.000456	4.560592	1.545170	-0.000183
 940	9.3430e+01	2.5604	28.001573	0.000497	4.965978	1.682519	-0.000199
 941	9.3530e+01	2.5235	27.904682	0.000243	2.432316	0.824091	-0.000097
 942	9.3629e+01	2.4914	27.714937	0.000476	4.763285	1.613845	-0.000191
 943	9.3729e+01	2.4481	27.525191	0.000476	4.763285	1.613845	-0.000191
 944	9.3829e+01	2.4063	27.343520	0.000456	4.560592	1.545170	-0.000183
 945	9.3928e+01	2.3646	27.234518	0.000274	2.736355	0.927102	-0.000110
 946	9.4028e+01	2.3310	27.089181	0.000365	3.648473	1.236136	-0.000146
 947	9.4127e+01	2.2812	26.875213	0.000537	5.371364	1.819867	-0.000215
 948	9.4227e+01	2.2411	26.717764	0.000395	3.952513	1.339148	-0.000158
 949	9.4326e+01	2.1994	26.564353	0.000385	3.851166	1.304810	-0.000154
 950	9.4425e+01	2.1769	26.402868	0.000405	4.053859	1.373485	-0.000162
 951	9.4525e+01	2.1272	26.229271	0.000436	4.357899	1.476496	-0.000174
 952	9.4624e+01	2.0919	26.055674	0.000436	4.357899	1.476496	-0.000174
 953	9.4724e+01	2.0438	25.910337	0.000365	3.648473	1.236136	-0.000146
 954	9.4823e+01	2.0101	25.712518	0.000497	4.965978	1.682519	-0.000199
 955	9.4923e+01	1.9700	25.559106	0.000385	3.851166	1.304810	-0.000154
 956	9.5022e+01	1.9315	25.397621	0.000405	4.053859	1.373485	-0.000162
 957	9.5122e+01	1.8898	25.272470	0.000314	3.141741	1.064451	-0.000126
 958	9.5222e+01	1.8497	25.054464	0.000547	5.472710	1.854204	-0.000219
 959	9.5321e+01	1.8048	24.913165	0.000355	3.547127	1.201799	-0.000142
 960	9.5421e+01	1.7647	24.751679	0.000405	4.053859	1.373485	-0.000162
 961	9.5520e+01	1.7310	24.598268	0.000385	3.851166	1.304810	-0.000154
 962	9.5620e+01	1.6973	24.428708	0.000426	4.256552	1.442159	-0.000170
 963	9.5719e+01	1.6556	24.178406	0.000628	6.283482	2.128901	-0.000252
 964	9.5819e+01	1.6155	24.081515	0.000243	2.432316	0.824091	-0.000097
 965	9.5918e+01	1.5818	23.903881	0.000446	4.459245	1.510833	-0.000179
 966	9.6017e+01	1.5320	23.714135	0.000476	4.763285	1.613845	-0.000191
 967	9.6117e+01	1.4903	23.580910	0.000334	3.344434	1.133125	-0.000134
 968	9.6216e+01	1.4518	23.375016	0.000517	5.168671	1.751193	-0.000207
 969	9.6316e+01	1.4101	23.213530	0.000405	4.053859	1.373485	-0.000162
 970	9.6415e+01	1.3732	23.035897	0.000446	4.459245	1.510833	-0.000179
 971	9.6515e+01	1.3331	22.886522	0.000375	3.749820	1.270473	-0.000150
 972	9.6615e+01	1.2930	22.704851	0.000456	4.560592	1.545170	-0.000183
 973	9.6714e+01	1.2529	22.547403	0.000395	3.952513	1.339148	-0.000158
 974	9.6814e+01	1.2128	22.377843	0.000426	4.256552	1.442159	-0.000170
 975	9.6913e+01	1.1791	22.208284	0.000426	4.256552	1.442159	-0.000170
 976	9.7013e+01	1.1198	22.026613	0.000456	4.560592	1.545170	-0.000183
 977	9.7112e+01	1.0909	21.873201	0.000385	3.851166	1.304810	-0.000154
 978	9.7212e+01	1.0604	21.663270	0.000527	5.270017	1.785530	-0.000211
 979	9.7311e+01	1.0219	21.513896	0.000375	3.749820	1.270473	-0.000150
 980	9.7410e+01	0.9674	21.372597	0.000355	3.547127	1.201799	-0.000142
 981	9.7510e+01	0.9289	21.170740	0.000507	5.067324	1.716856	-0.000203
 982	9.7609e+01	0.8871	21.021366	0.000375	3.749820	1.270473	-0.000150
 983	9.7709e+01	0.8567	20.876029	0.000365	3.648473	1.236136	-0.000146
 984	9.7808e+01	0.8182	20.714543	0.000405	4.053859	1.373485	-0.000162
 985	9.7908e+01	0.7700	20.504612	0.000527	5.270017	1.785530	-0.000211
 986	9.8007e+01	0.7412	20.335053	0.000426	4.256552	1.442159	-0.000170
 987	9.8107e+01	0.6946	20.193753	0.000355	3.547127	1.201799	-0.000142
 988	9.8207e+01	0.6545	20.012082	0.000456	4.560592	1.545170	-0.000183
 989	9.8306e+01	0.6080	19.822336	0.000476	4.763285	1.613845	-0.000191
 990	9.8406e+01	0.5759	19.644703	0.000446	4.459245	1.510833	-0.000179
 991	9.8505e+01	0.5326	19.491291	0.000385	3.851166	1.304810	-0.000154
 992	9.8605e+01	0.4893	19.354029	0.000345	3.445780	1.167462	-0.000138
 993	9.8704e+01	0.4508	19.172358	0.000456	4.560592	1.545170	-0.000183
 994	9.8803e+01	0.4235	18.998761	0.000436	4.357899	1.476496	-0.000174
 995	9.8903e+01	0.3754	18.821127	0.000446	4.459245	1.510833	-0.000179
 996	9.9002e+01	0.3321	18.623307	0.000497	4.965978	1.682519	-0.000199
 997	9.9102e+01	0.2856	18.477970	0.000365	3.648473	1.236136	-0.000146
 998	9.9201e+01	0.2567	18.308411	0.000426	4.256552	1.442159	-0.000170
 999	9.9301e+01	0.2118	18.154999	0.000385	3.851166	1.304810	-0.000154
1000	9.9400e+01	0.1652	17.985440	0.000426	4.256552	1.442159	-0.000170
1001	9.9500e+01	0.1412	17.811843	0.000436	4.357899	1.476496	-0.000174
1002	9.9600e+01	0.0946	17.650357	0.000405	4.053859	1.373485	-0.000162
1003	9.9699e+01	0.0433	17.472723	0.000446	4.459245	1.510833	-0.000179
1004	9.9799e+01	0.0128	17.331424	0.000355	3.547127	1.201799	-0.000142
1005	9.9898e+01	-0.0096	17.182050	0.000375	3.749820	1.270473	-0.000150
1006	9.9998e+01	-0.0513	16.984230	0.000497	4.965978	1.682519	-0.000199
1007	1.0010e+02	-0.0963	16.826782	0.000395	3.952513	1.339148	-0.000158
1008	1.0020e+02	-0.1315	16.653185	0.000436	4.357899	1.476496	-0.000174
1009	1.0030e+02	-0.1717	16.467477	0.000466	4.661938	1.579507	-0.000187
1010	1.0040e+02	-0.2118	16.322140	0.000365	3.648473	1.236136	-0.000146
1011	1.0050e+02	-0.2711	16.128357	0.000486	4.864631	1.648182	-0.000195
1012	1.0059e+02	-0.2968	15.966872	0.000405	4.053859	1.373485	-0.000162
1013	1.0069e+02	-0.3417	15.821535	0.000365	3.648473	1.236136	-0.000146
1014	1.0079e+02	-0.3786	15.651975	0.000426	4.256552	1.442159	-0.000170
1015	1.0089e+02	-0.4091	15.454156	0.000497	4.965978	1.682519	-0.000199
1016	1.0099e+02	-0.4556	15.260373	0.000486	4.864631	1.648182	-0.000195
1017	1.0109e+02	-0.4989	15.110999	0.000375	3.749820	1.270473	-0.000150
1018	1.0119e+02	-0.5374	14.965662	0.000365	3.648473	1.236136	-0.000146
1019	1.0129e+02	-0.5727	14.771880	0.000486	4.864631	1.648182	-0.000195
1020	1.0139e+02	-0.6176	14.618469	0.000385	3.851166	1.304810	-0.000154
1021	1.0149e+02	-0.6577	14.440835	0.000446	4.459245	1.510833	-0.000179
1022	1.0159e+02	-0.6962	14.303572	0.000345	3.445780	1.167462	-0.000138
1023	1.0169e+02	-0.7379	14.105752	0.000497	4.965978	1.682519	-0.000199
1024	1.0179e+02	-0.7764	13.924081	0.000456	4.560592	1.545170	-0.000183
1025	1.0189e+02	-0.8117	13.774707	0.000375	3.749820	1.270473	-0.000150
1026	1.0199e+02	-0.8615	13.593036	0.000456	4.560592	1.545170	-0.000183
1027	1.0209e+02	-0.8887	13.435588	0.000395	3.952513	1.339148	-0.000158
1028	1.0219e+02	-0.9337	13.282177	0.000385	3.851166	1.304810	-0.000154
1029	1.0229e+02	-0.9738	13.100505	0.000456	4.560592	1.545170	-0.000183
1030	1.0239e+02	-1.0026	12.947094	0.000385	3.851166	1.304810	-0.000154
1031	1.0248e+02	-1.0492	12.757349	0.000476	4.763285	1.613845	-0.000191
1032	1.0258e+02	-1.0877	12.575678	0.000456	4.560592	1.545170	-0.000183
1033	1.0268e+02	-1.1278	12.406118	0.000426	4.256552	1.442159	-0.000170
1034	1.0278e+02	-1.1631	12.252707	0.000385	3.851166	1.304810	-0.000154
1035	1.0288e+02	-1.2064	12.071036	0.000456	4.560592	1.545170	-0.000183
1036	1.0298e+02	-1.2481	11.925699	0.000365	3.648473	1.236136	-0.000146
1037	1.0308e+02	-1.2946	11.752102	0.000436	4.357899	1.476496	-0.000174
1038	1.0318e+02	-1.3331	11.582542	0.000426	4.256552	1.442159	-0.000170
1039	1.0328e+02	-1.3732	11.392797	0.000476	4.763285	1.613845	-0.000191
1040	1.0338e+02	-1.4069	11.235349	0.000395	3.952513	1.339148	-0.000158
1041	1.0348e+02	-1.4470	11.094049	0.000355	3.547127	1.201799	-0.000142
1042	1.0358e+02	-1.4855	10.900266	0.000486	4.864631	1.648182	-0.000195
1043	1.0368e+02	-1.5304	10.730707	0.000426	4.256552	1.442159	-0.000170
1044	1.0378e+02	-1.5770	10.557110	0.000436	4.357899	1.476496	-0.000174
1045	1.0388e+02	-1.6123	10.399662	0.000395	3.952513	1.339148	-0.000158
1046	1.0398e+02	-1.6556	10.230102	0.000426	4.256552	1.442159	-0.000170
1047	1.0408e+02	-1.6877	10.040357	0.000476	4.763285	1.613845	-0.000191
1048	1.0418e+02	-1.7342	9.899057	0.000355	3.547127	1.201799	-0.000142
1049	1.0428e+02	-1.7791	9.733534	0.000416	4.155206	1.407822	-0.000166
1050	1.0438e+02	-1.8160	9.539752	0.000486	4.864631	1.648182	-0.000195
1051	1.0447e+02	-1.8561	9.386341	0.000385	3.851166	1.304810	-0.000154
1052	1.0457e+02	-1.8914	9.228892	0.000395	3.952513	1.339148	-0.000158
1053	1.0467e+02	-1.9363	9.027036	0.000507	5.067324	1.716856	-0.000203
1054	1.0477e+02	-1.9716	8.881699	0.000365	3.648473	1.236136	-0.000146
1055	1.0487e+02	-2.0117	8.619285	0.000659	6.587521	2.231913	-0.000264
1056	1.0497e+02	-2.0550	8.538542	0.000203	2.026930	0.686742	-0.000081
1057	1.0507e+02	-2.0983	8.360908	0.000446	4.459245	1.510833	-0.000179
1058	1.0517e+02	-2.1304	8.199423	0.000405	4.053859	1.373485	-0.000162
1059	1.0527e+02	-2.1625	8.025826	0.000436	4.357899	1.476496	-0.000174
1060	1.0537e+02	-2.2106	7.880489	0.000365	3.648473	1.236136	-0.000146
1061	1.0547e+02	-2.2507	7.702855	0.000446	4.459245	1.510833	-0.000179
1062	1.0557e+02	-2.2941	7.517147	0.000466	4.661938	1.579507	-0.000187
1063	1.0567e+02	-2.3310	7.319327	0.000497	4.965978	1.682519	-0.000199
1064	1.0577e+02	-2.3646	7.202250	0.000294	2.939048	0.995776	-0.000118
1065	1.0587e+02	-2.4047	7.020579	0.000456	4.560592	1.545170	-0.000183
1066	1.0597e+02	-2.4449	6.834871	0.000466	4.661938	1.579507	-0.000187
1067	1.0607e+02	-2.4882	6.665311	0.000426	4.256552	1.442159	-0.000170
1068	1.0617e+02	-2.5251	6.491714	0.000436	4.357899	1.476496	-0.000174
1069	1.0627e+02	-2.5716	6.318117	0.000436	4.357899	1.476496	-0.000174
1070	1.0637e+02	-2.6133	6.152595	0.000416	4.155206	1.407822	-0.000166
1071	1.0647e+02	-2.6486	6.019369	0.000334	3.344434	1.133125	-0.000134
1072	1.0656e+02	-2.6903	5.837698	0.000456	4.560592	1.545170	-0.000183
1073	1.0666e+02	-2.7320	5.643916	0.000486	4.864631	1.648182	-0.000195
1074	1.0676e+02	-2.7657	5.498579	0.000365	3.648473	1.236136	-0.000146
1075	1.0686e+02	-2.8170	5.304796	0.000486	4.864631	1.648182	-0.000195
1076	1.0696e+02	-2.8443	5.111014	0.000486	4.864631	1.648182	-0.000195
1077	1.0706e+02	-2.8748	4.945491	0.000416	4.155206	1.407822	-0.000166
1078	1.0716e+02	-2.9325	4.796117	0.000375	3.749820	1.270473	-0.000150
1079	1.0726e+02	-2.9566	4.614446	0.000456	4.560592	1.545170	-0.000183
1080	1.0736e+02	-3.0031	4.440849	0.000436	4.357899	1.476496	-0.000174
1081	1.0746e+02	-3.0513	4.283401	0.000395	3.952513	1.339148	-0.000158
1082	1.0756e+02	-3.0737	4.109804	0.000436	4.357899	1.476496	-0.000174
1083	1.0766e+02	-3.1283	3.928133	0.000456	4.560592	1.545170	-0.000183
1084	1.0776e+02	-3.1668	3.802982	0.000314	3.141741	1.064451	-0.000126
1085	1.0786e+02	-3.2117	3.609199	0.000486	4.864631	1.648182	-0.000195
1086	1.0796e+02	-3.2406	3.431565	0.000446	4.459245	1.510833	-0.000179
1087	1.0806e+02	-3.2967	3.282191	0.000375	3.749820	1.270473	-0.000150
1088	1.0816e+02	-3.3256	3.104557	0.000446	4.459245	1.510833	-0.000179
1089	1.0826e+02	-3.3609	2.926923	0.000446	4.459245	1.510833	-0.000179
1090	1.0836e+02	-3.3978	2.761401	0.000416	4.155206	1.407822	-0.000166
1091	1.0845e+02	-3.4427	2.567618	0.000486	4.864631	1.648182	-0.000195
1092	1.0855e+02	-3.4812	2.438430	0.000324	3.243087	1.098788	-0.000130
1093	1.0865e+02	-3.5261	2.280982	0.000395	3.952513	1.339148	-0.000158
1094	1.0875e+02	-3.5598	2.119496	0.000405	4.053859	1.373485	-0.000162
1095	1.0885e+02	-3.6079	1.917639	0.000507	5.067324	1.716856	-0.000203
1096	1.0895e+02	-3.6352	1.735968	0.000456	4.560592	1.545170	-0.000183
1097	1.0905e+02	-3.6849	1.570446	0.000416	4.155206	1.407822	-0.000166
1098	1.0915e+02	-3.7250	1.412998	0.000395	3.952513	1.339148	-0.000158
1099	1.0925e+02	-3.7635	1.255549	0.000395	3.952513	1.339148	-0.000158
1100	1.0935e+02	-3.8036	1.081952	0.000436	4.357899	1.476496	-0.000174
1101	1.0945e+02	-3.8341	0.884133	0.000497	4.965978	1.682519	-0.000199
1102	1.0955e+02	-3.8806	0.763019	0.000304	3.040395	1.030114	-0.000122
1103	1.0965e+02	-3.9288	0.549050	0.000537	5.371364	1.819867	-0.000215
1104	1.0975e+02	-3.9673	0.411788	0.000345	3.445780	1.167462	-0.000138
1105	1.0985e+02	-4.0106	0.254340	0.000395	3.952513	1.339148	-0.000158
1106	1.0995e+02	-4.0395	0.076706	0.000446	4.459245	1.510833	-0.000179
1107	1.1005e+02	-4.0844	-0.060557	0.000345	3.445780	1.167462	-0.000138
1108	1.1015e+02	-4.1213	-0.246265	0.000466	4.661938	1.579507	-0.000187
1109	1.1025e+02	-4.1614	-0.440048	0.000486	4.864631	1.648182	-0.000195
1110	1.1035e+02	-4.2031	-0.601533	0.000405	4.053859	1.373485	-0.000162
1111	1.1044e+02	-4.2384	-0.787241	0.000466	4.661938	1.579507	-0.000187
1112	1.1054e+02	-4.2801	-0.972950	0.000466	4.661938	1.579507	-0.000187
1113	1.1064e+02	-4.3266	-1.130398	0.000395	3.952513	1.339148	-0.000158
1114	1.1074e+02	-4.3587	-1.271698	0.000355	3.547127	1.201799	-0.000142
1115	1.1084e+02	-4.4052	-1.453369	0.000456	4.560592	1.545170	-0.000183
1116	1.1094e+02	-4.4453	-1.614854	0.000405	4.053859	1.373485	-0.000162
1117	1.1104e+02	-4.4806	-1.756154	0.000355	3.547127	1.201799	-0.000142
1118	1.1114e+02	-4.5223	-1.953974	0.000497	4.965978	1.682519	-0.000199
1119	1.1124e+02	-4.5656	-2.123533	0.000426	4.256552	1.442159	-0.000170
1120	1.1134e+02	-4.5913	-2.264833	0.000355	3.547127	1.201799	-0.000142
1121	1.1144e+02	-4.6443	-2.418244	0.000385	3.851166	1.304810	-0.000154
1122	1.1154e+02	-4.6828	-2.612027	0.000486	4.864631	1.648182	-0.000195
1123	1.1164e+02	-4.7036	-2.769475	0.000395	3.952513	1.339148	-0.000158
1124	1.1174e+02	-4.7614	-2.947109	0.000446	4.459245	1.510833	-0.000179
1125	1.1184e+02	-4.7983	-3.104557	0.000395	3.952513	1.339148	-0.000158
1126	1.1194e+02	-4.8352	-3.257969	0.000385	3.851166	1.304810	-0.000154
1127	1.1204e+02	-4.8897	-3.423491	0.000416	4.155206	1.407822	-0.000166
1128	1.1214e+02	-4.9186	-3.593051	0.000426	4.256552	1.442159	-0.000170
1129	1.1224e+02	-4.9587	-3.734351	0.000355	3.547127	1.201799	-0.000142
1130	1.1234e+02	-4.9956	-3.924096	0.000476	4.763285	1.613845	-0.000191
1131	1.1244e+02	-5.0405	-4.073470	0.000375	3.749820	1.270473	-0.000150
1132	1.1253e+02	-5.0838	-4.230918	0.000395	3.952513	1.339148	-0.000158
1133	1.1263e+02	-5.1255	-4.404515	0.000436	4.357899	1.476496	-0.000174
1134	1.1273e+02	-5.1560	-4.557926	0.000385	3.851166	1.304810	-0.000154
1135	1.1283e+02	-5.1945	-4.723449	0.000416	4.155206	1.407822	-0.000166
1136	1.1293e+02	-5.2442	-4.913194	0.000476	4.763285	1.613845	-0.000191
1137	1.1303e+02	-5.2795	-5.050457	0.000345	3.445780	1.167462	-0.000138
1138	1.1313e+02	-5.3228	-5.244239	0.000486	4.864631	1.648182	-0.000195
1139	1.1323e+02	-5.3581	-5.393613	0.000375	3.749820	1.270473	-0.000150
1140	1.1333e+02	-5.4015	-5.563173	0.000426	4.256552	1.442159	-0.000170
1141	1.1343e+02	-5.4416	-5.684287	0.000304	3.040395	1.030114	-0.000122
1142	1.1353e+02	-5.4752	-5.898255	0.000537	5.371364	1.819867	-0.000215
1143	1.1363e+02	-5.5266	-6.079926	0.000456	4.560592	1.545170	-0.000183
1144	1.1373e+02	-5.5603	-6.225263	0.000365	3.648473	1.236136	-0.000146
1145	1.1383e+02	-5.5972	-6.378674	0.000385	3.851166	1.304810	-0.000154
1146	1.1393e+02	-5.6228	-6.519974	0.000355	3.547127	1.201799	-0.000142
1147	1.1403e+02	-5.6870	-6.669348	0.000375	3.749820	1.270473	-0.000150
1148	1.1413e+02	-5.7223	-6.859094	0.000476	4.763285	1.613845	-0.000191
1149	1.1423e+02	-5.7608	-7.020579	0.000405	4.053859	1.373485	-0.000162
1150	1.1433e+02	-5.7977	-7.153805	0.000334	3.344434	1.133125	-0.000134
1151	1.1442e+02	-5.8410	-7.327401	0.000436	4.357899	1.476496	-0.000174
1152	1.1452e+02	-5.8827	-7.492924	0.000416	4.155206	1.407822	-0.000166
1153	1.1462e+02	-5.9196	-7.605964	0.000284	2.837702	0.961439	-0.000114
1154	1.1472e+02	-5.9645	-7.803783	0.000497	4.965978	1.682519	-0.000199
1155	1.1482e+02	-5.9982	-7.969306	0.000416	4.155206	1.407822	-0.000166
1156	1.1492e+02	-6.0239	-8.102531	0.000334	3.344434	1.133125	-0.000134
1157	1.1502e+02	-6.0656	-8.259980	0.000395	3.952513	1.339148	-0.000158
1158	1.1512e+02	-6.1121	-8.441651	0.000456	4.560592	1.545170	-0.000183
1159	1.1522e+02	-6.1586	-8.591025	0.000375	3.749820	1.270473	-0.000150
1160	1.1532e+02	-6.1972	-8.776733	0.000466	4.661938	1.579507	-0.000187
1161	1.1542e+02	-6.2308	-8.905921	0.000324	3.243087	1.098788	-0.000130
1162	1.1552e+02	-6.2645	-9.075481	0.000426	4.256552	1.442159	-0.000170
1163	1.1562e+02	-6.3143	-9.236967	0.000405	4.053859	1.373485	-0.000162
1164	1.1572e+02	-6.3512	-9.374229	0.000345	3.445780	1.167462	-0.000138
1165	1.1582e+02	-6.3961	-9.507455	0.000334	3.344434	1.133125	-0.000134
1166	1.1592e+02	-6.4282	-9.685089	0.000446	4.459245	1.510833	-0.000179
1167	1.1602e+02	-6.4763	-9.814277	0.000324	3.243087	1.098788	-0.000130
1168	1.1612e+02	-6.5116	-9.979800	0.000416	4.155206	1.407822	-0.000166
1169	1.1622e+02	-6.5405	-10.108988	0.000324	3.243087	1.098788	-0.000130
1170	1.1632e+02	-6.5886	-10.290659	0.000456	4.560592	1.545170	-0.000183
1171	1.1642e+02	-6.6303	-10.431959	0.000355	3.547127	1.201799	-0.000142
1172	1.1651e+02	-6.6672	-10.609593	0.000446	4.459245	1.510833	-0.000179
1173	1.1661e+02	-6.7105	-10.758967	0.000375	3.749820	1.270473	-0.000150
1174	1.1671e+02	-6.7490	-10.888155	0.000324	3.243087	1.098788	-0.000130
1175	1.1681e+02	-6.7859	-11.057715	0.000426	4.256552	1.442159	-0.000170
1176	1.1691e+02	-6.8372	-11.207089	0.000375	3.749820	1.270473	-0.000150
1177	1.1701e+02	-6.8629	-11.368574	0.000405	4.053859	1.373485	-0.000162
1178	1.1711e+02	-6.9014	-11.538134	0.000426	4.256552	1.442159	-0.000170
1179	1.1721e+02	-6.9511	-11.687508	0.000375	3.749820	1.270473	-0.000150
1180	1.1731e+02	-7.0041	-11.857068	0.000426	4.256552	1.442159	-0.000170
1181	1.1741e+02	-7.0281	-11.974145	0.000294	2.939048	0.995776	-0.000118
1182	1.1751e+02	-7.0650	-12.139667	0.000416	4.155206	1.407822	-0.000166
1183	1.1761e+02	-7.1148	-12.285004	0.000365	3.648473	1.236136	-0.000146
1184	1.1771e+02	-7.1469	-12.430341	0.000365	3.648473	1.236136	-0.000146
1185	1.1781e+02	-7.1918	-12.620086	0.000476	4.763285	1.613845	-0.000191
1186	1.1791e+02	-7.2319	-12.777535	0.000395	3.952513	1.339148	-0.000158
1187	1.1801e+02	-7.2656	-12.918834	0.000355	3.547127	1.201799	-0.000142
1188	1.1811e+02	-7.3025	-13.007651	0.000223	2.229623	0.755417	-0.000089
1189	1.1821e+02	-7.3458	-13.217582	0.000527	5.270017	1.785530	-0.000211
1190	1.1831e+02	-7.3827	-13.354845	0.000345	3.445780	1.167462	-0.000138
1191	1.1841e+02	-7.4228	-13.471922	0.000294	2.939048	0.995776	-0.000118
1192	1.1850e+02	-7.4677	-13.661667	0.000476	4.763285	1.613845	-0.000191
1193	1.1860e+02	-7.5094	-13.802967	0.000355	3.547127	1.201799	-0.000142
1194	1.1870e+02	-7.5367	-13.976564	0.000436	4.357899	1.476496	-0.000174
1195	1.1880e+02	-7.5896	-14.093641	0.000294	2.939048	0.995776	-0.000118
1196	1.1890e+02	-7.6249	-14.222829	0.000324	3.243087	1.098788	-0.000130
1197	1.1900e+02	-7.6634	-14.420649	0.000497	4.965978	1.682519	-0.000199
1198	1.1910e+02	-7.7067	-14.606357	0.000466	4.661938	1.579507	-0.000187
1199	1.1920e+02	-7.7388	-14.703248	0.000243	2.432316	0.824091	-0.000097
1200	1.1930e+02	-7.7853	-14.828400	0.000314	3.141741	1.064451	-0.000126
1201	1.1940e+02	-7.8271	-15.014108	0.000466	4.661938	1.579507	-0.000187
1202	1.1950e+02	-7.8607	-15.211927	0.000497	4.965978	1.682519	-0.000199
1203	1.1960e+02	-7.9041	-15.296707	0.000213	2.128276	0.721079	-0.000085
1204	1.1970e+02	-7.9393	-15.462230	0.000416	4.155206	1.407822	-0.000166
1205	1.1980e+02	-7.9811	-15.631790	0.000426	4.256552	1.442159	-0.000170
1206	1.1990e+02	-8.0276	-15.760978	0.000324	3.243087	1.098788	-0.000130
1207	1.2000e+02	-8.0661	-15.918426	0.000395	3.952513	1.339148	-0.000158
1208	1.2010e+02	-8.1094	-16.079912	0.000405	4.053859	1.373485	-0.000162
1209	1.2020e+02	-8.1479	-16.213137	0.000334	3.344434	1.133125	-0.000134
1210	1.2030e+02	-8.1832	-16.386734	0.000436	4.357899	1.476496	-0.000174
1211	1.2039e+02	-8.2137	-16.515922	0.000324	3.243087	1.098788	-0.000130
1212	1.2049e+02	-8.2602	-16.641074	0.000314	3.141741	1.064451	-0.000126
1213	1.2059e+02	-8.3035	-16.774299	0.000334	3.344434	1.133125	-0.000134
1214	1.2069e+02	-8.3468	-16.955970	0.000456	4.560592	1.545170	-0.000183
1215	1.2079e+02	-8.3869	-17.109381	0.000385	3.851166	1.304810	-0.000154
1216	1.2089e+02	-8.4286	-17.222421	0.000284	2.837702	0.961439	-0.000114
1217	1.2099e+02	-8.4607	-17.412166	0.000476	4.763285	1.613845	-0.000191
1218	1.2109e+02	-8.5137	-17.577689	0.000416	4.155206	1.407822	-0.000166
1219	1.2119e+02	-8.5474	-17.642283	0.000162	1.621544	0.549394	-0.000065
1220	1.2129e+02	-8.5923	-17.807806	0.000416	4.155206	1.407822	-0.000166
1221	1.2139e+02	-8.6179	-17.957180	0.000375	3.749820	1.270473	-0.000150
1222	1.2149e+02	-8.6596	-18.150962	0.000486	4.864631	1.648182	-0.000195
1223	1.2159e+02	-8.7046	-18.280151	0.000324	3.243087	1.098788	-0.000130
1224	1.2169e+02	-8.7511	-18.433562	0.000385	3.851166	1.304810	-0.000154
1225	1.2179e+02	-8.7864	-18.582936	0.000375	3.749820	1.270473	-0.000150
1226	1.2189e+02	-8.8217	-18.700013	0.000294	2.939048	0.995776	-0.000118
1227	1.2199e+02	-8.8698	-18.893795	0.000486	4.864631	1.648182	-0.000195
1228	1.2209e+02	-8.8987	-19.039132	0.000365	3.648473	1.236136	-0.000146
1229	1.2219e+02	-8.9404	-19.188506	0.000375	3.749820	1.270473	-0.000150
1230	1.2229e+02	-8.9837	-19.313657	0.000314	3.141741	1.064451	-0.000126
1231	1.2239e+02	-9.0158	-19.487254	0.000436	4.357899	1.476496	-0.000174
1232	1.2248e+02	-9.0671	-19.648740	0.000405	4.053859	1.373485	-0.000162
1233	1.2258e+02	-9.1072	-19.777928	0.000324	3.243087	1.098788	-0.000130
1234	1.2268e+02	-9.1313	-19.935376	0.000395	3.952513	1.339148	-0.000158
1235	1.2278e+02	-9.1842	-20.060527	0.000314	3.141741	1.064451	-0.000126
1236	1.2288e+02	-9.2211	-20.234124	0.000436	4.357899	1.476496	-0.000174
1237	1.2298e+02	-9.2660	-20.375424	0.000355	3.547127	1.201799	-0.000142
1238	1.2308e+02	-9.2997	-20.540947	0.000416	4.155206	1.407822	-0.000166
1239	1.2318e+02	-9.3431	-20.662061	0.000304	3.040395	1.030114	-0.000122
1240	1.2328e+02	-9.3912	-20.843732	0.000456	4.560592	1.545170	-0.000183
1241	1.2338e+02	-9.4136	-20.952734	0.000274	2.736355	0.927102	-0.000110
1242	1.2348e+02	-9.4586	-21.102109	0.000375	3.749820	1.270473	-0.000150
1243	1.2358e+02	-9.5099	-21.271668	0.000426	4.256552	1.442159	-0.000170
1244	1.2368e+02	-9.5388	-21.425079	0.000385	3.851166	1.304810	-0.000154
1245	1.2378e+02	-9.5821	-21.586565	0.000405	4.053859	1.373485	-0.000162
1246	1.2388e+02	-9.6222	-21.703642	0.000294	2.939048	0.995776	-0.000118
1247	1.2398e+02	-9.6639	-21.881276	0.000446	4.459245	1.510833	-0.000179
1248	1.2408e+02	-9.6944	-22.018538	0.000345	3.445780	1.167462	-0.000138
1249	1.2418e+02	-9.7361	-22.167912	0.000375	3.749820	1.270473	-0.000150
1250	1.2428e+02	-9.7778	-22.317286	0.000375	3.749820	1.270473	-0.000150
1251	1.2438e+02	-9.8211	-22.454549	0.000345	3.445780	1.167462	-0.000138
1252	1.2447e+02	-9.8532	-22.640257	0.000466	4.661938	1.579507	-0.000187
1253	1.2457e+02	-9.8981	-22.753297	0.000284	2.837702	0.961439	-0.000114
1254	1.2467e+02	-9.9446	-22.906708	0.000385	3.851166	1.304810	-0.000154
1255	1.2477e+02	-9.9751	-23.072231	0.000416	4.155206	1.407822	-0.000166
1256	1.2487e+02	-10.0152	-23.229679	0.000395	3.952513	1.339148	-0.000158
1257	1.2497e+02	-10.0553	-23.346756	0.000294	2.939048	0.995776	-0.000118
1258	1.2507e+02	-10.0890	-23.492093	0.000365	3.648473	1.236136	-0.000146
1259	1.2517e+02	-10.1355	-23.665690	0.000436	4.357899	1.476496	-0.000174
1260	1.2527e+02	-10.1805	-23.806989	0.000355	3.547127	1.201799	-0.000142
1261	1.2537e+02	-10.2190	-23.960401	0.000385	3.851166	1.304810	-0.000154
1262	1.2547e+02	-10.2607	-24.101700	0.000355	3.547127	1.201799	-0.000142
1263	1.2557e+02	-10.2928	-24.243000	0.000355	3.547127	1.201799	-0.000142
1264	1.2567e+02	-10.3329	-24.461005	0.000547	5.472710	1.854204	-0.000219
1265	1.2577e+02	-10.3778	-24.541748	0.000203	2.026930	0.686742	-0.000081
1266	1.2587e+02	-10.4179	-24.719382	0.000446	4.459245	1.510833	-0.000179
1267	1.2597e+02	-10.4548	-24.868756	0.000375	3.749820	1.270473	-0.000150
1268	1.2607e+02	-10.4981	-24.965647	0.000243	2.432316	0.824091	-0.000097
1269	1.2617e+02	-10.5414	-25.143281	0.000446	4.459245	1.510833	-0.000179
1270	1.2627e+02	-10.5767	-25.284581	0.000355	3.547127	1.201799	-0.000142
1271	1.2636e+02	-10.6168	-25.429918	0.000365	3.648473	1.236136	-0.000146
1272	1.2646e+02	-10.6505	-25.631775	0.000507	5.067324	1.716856	-0.000203
1273	1.2656e+02	-10.7083	-25.777112	0.000365	3.648473	1.236136	-0.000146
1274	1.2666e+02	-10.7307	-25.910337	0.000334	3.344434	1.133125	-0.000134
1275	1.2676e+02	-10.7756	-26.047600	0.000345	3.445780	1.167462	-0.000138
1276	1.2686e+02	-10.8157	-26.209085	0.000405	4.053859	1.373485	-0.000162
1277	1.2696e+02	-10.8494	-26.358459	0.000375	3.749820	1.270473	-0.000150
1278	1.2706e+02	-10.8927	-26.515908	0.000395	3.952513	1.339148	-0.000158
1279	1.2716e+02	-10.9345	-26.641059	0.000314	3.141741	1.064451	-0.000126
1280	1.2726e+02	-10.9697	-26.798507	0.000395	3.952513	1.339148	-0.000158
1281	1.2736e+02	-11.0131	-26.923658	0.000314	3.141741	1.064451	-0.000126
1282	1.2746e+02	-11.0548	-27.060921	0.000345	3.445780	1.167462	-0.000138
1283	1.2756e+02	-11.0885	-27.222406	0.000405	4.053859	1.373485	-0.000162
1284	1.2766e+02	-11.1205	-27.400040	0.000446	4.459245	1.510833	-0.000179
1285	1.2776e+02	-11.1799	-27.549414	0.000375	3.749820	1.270473	-0.000150
1286	1.2786e+02	-11.2232	-27.686677	0.000345	3.445780	1.167462	-0.000138
1287	1.2796e+02	-11.2441	-27.783568	0.000243	2.432316	0.824091	-0.000097
1288	1.2806e+02	-11.2874	-27.981388	0.000497	4.965978	1.682519	-0.000199
1289	1.2816e+02	-11.3275	-28.086353	0.000264	2.635009	0.892765	-0.000105
1290	1.2826e+02	-11.3692	-28.247839	0.000405	4.053859	1.373485	-0.000162
1291	1.2835e+02	-11.4077	-28.421436	0.000436	4.357899	1.476496	-0.000174
1292	1.2845e+02	-11.4462	-28.574847	0.000385	3.851166	1.304810	-0.000154
1293	1.2855e+02	-11.4911	-28.716147	0.000355	3.547127	1.201799	-0.000142
1294	1.2865e+02	-11.5376	-28.873595	0.000395	3.952513	1.339148	-0.000158
1295	1.2875e+02	-11.5745	-29.014895	0.000355	3.547127	1.201799	-0.000142
1296	1.2885e+02	-11.6130	-29.180417	0.000416	4.155206	1.407822	-0.000166
1297	1.2895e+02	-11.6531	-29.281346	0.000253	2.533662	0.858428	-0.000101
1298	1.2905e+02	-11.6916	-29.442831	0.000405	4.053859	1.373485	-0.000162
1299	1.2915e+02	-11.7398	-29.600279	0.000395	3.952513	1.339148	-0.000158
1300	1.2925e+02	-11.7622	-29.733505	0.000334	3.344434	1.133125	-0.000134
1301	1.2935e+02	-11.8184	-29.890953	0.000395	3.952513	1.339148	-0.000158
1302	1.2945e+02	-11.8489	-29.999956	0.000274	2.736355	0.927102	-0.000110
1303	1.2955e+02	-11.8986	-30.165478	0.000416	4.155206	1.407822	-0.000166
1304	1.2965e+02	-11.9243	-30.310815	0.000365	3.648473	1.236136	-0.000146
1305	1.2975e+02	-11.9756	-30.472301	0.000405	4.053859	1.373485	-0.000162
1306	1.2985e+02	-11.9997	-30.617637	0.000365	3.648473	1.236136	-0.000146
1307	1.2995e+02	-12.0478	-30.758937	0.000355	3.547127	1.201799	-0.000142
1308	1.3005e+02	-12.0959	-30.900237	0.000355	3.547127	1.201799	-0.000142
1309	1.3015e+02	-12.1296	-31.037500	0.000345	3.445780	1.167462	-0.000138
1310	1.3025e+02	-12.1777	-31.203022	0.000416	4.155206	1.407822	-0.000166
1311	1.3034e+02	-12.2066	-31.344322	0.000355	3.547127	1.201799	-0.000142
1312	1.3044e+02	-12.2483	-31.473510	0.000324	3.243087	1.098788	-0.000130
1313	1.3054e+02	-12.2964	-31.643070	0.000426	4.256552	1.442159	-0.000170
1314	1.3064e+02	-12.3253	-31.780333	0.000345	3.445780	1.167462	-0.000138
1315	1.3074e+02	-12.3686	-31.905484	0.000314	3.141741	1.064451	-0.000126
1316	1.3084e+02	-12.4119	-32.058895	0.000385	3.851166	1.304810	-0.000154
1317	1.3094e+02	-12.4472	-32.228455	0.000426	4.256552	1.442159	-0.000170
1318	1.3104e+02	-12.4825	-32.317272	0.000223	2.229623	0.755417	-0.000089
1319	1.3114e+02	-12.5323	-32.507017	0.000476	4.763285	1.613845	-0.000191
1320	1.3124e+02	-12.5627	-32.632168	0.000314	3.141741	1.064451	-0.000126
1321	1.3134e+02	-12.6061	-32.769431	0.000345	3.445780	1.167462	-0.000138
1322	1.3144e+02	-12.6478	-32.894582	0.000314	3.141741	1.064451	-0.000126
1323	1.3154e+02	-12.6879	-33.031845	0.000345	3.445780	1.167462	-0.000138
1324	1.3164e+02	-12.7296	-33.205441	0.000436	4.357899	1.476496	-0.000174
1325	1.3174e+02	-12.7681	-33.370964	0.000416	4.155206	1.407822	-0.000166
1326	1.3184e+02	-12.8050	-33.500152	0.000324	3.243087	1.098788	-0.000130
1327	1.3194e+02	-12.8403	-33.609155	0.000274	2.736355	0.927102	-0.000110
1328	1.3204e+02	-12.8836	-33.774678	0.000416	4.155206	1.407822	-0.000166
1329	1.3214e+02	-12.9221	-33.895792	0.000304	3.040395	1.030114	-0.000122
1330	1.3224e+02	-12.9670	-34.033054	0.000345	3.445780	1.167462	-0.000138
1331	1.3234e+02	-13.0151	-34.202614	0.000426	4.256552	1.442159	-0.000170
1332	1.3243e+02	-13.0408	-34.299505	0.000243	2.432316	0.824091	-0.000097
1333	1.3253e+02	-13.0793	-34.509436	0.000527	5.270017	1.785530	-0.000211
1334	1.3263e+02	-13.1226	-34.614402	0.000264	2.635009	0.892765	-0.000105
1335	1.3273e+02	-13.1643	-34.743590	0.000324	3.243087	1.098788	-0.000130
1336	1.3283e+02	-13.1980	-34.888927	0.000365	3.648473	1.236136	-0.000146
1337	1.3293e+02	-13.2462	-35.042338	0.000385	3.851166	1.304810	-0.000154
1338	1.3303e+02	-13.2814	-35.191712	0.000375	3.749820	1.270473	-0.000150
1339	1.3313e+02	-13.3151	-35.276492	0.000213	2.128276	0.721079	-0.000085
1340	1.3323e+02	-13.3584	-35.413755	0.000345	3.445780	1.167462	-0.000138
1341	1.3333e+02	-13.4114	-35.579277	0.000416	4.155206	1.407822	-0.000166
1342	1.3343e+02	-13.4499	-35.724614	0.000365	3.648473	1.236136	-0.000146
1343	1.3353e+02	-13.4836	-35.861877	0.000345	3.445780	1.167462	-0.000138
1344	1.3363e+02	-13.5189	-35.995102	0.000334	3.344434	1.133125	-0.000134
1345	1.3373e+02	-13.5622	-36.188885	0.000486	4.864631	1.648182	-0.000195
1346	1.3383e+02	-13.6007	-36.297887	0.000274	2.736355	0.927102	-0.000110
1347	1.3393e+02	-13.6488	-36.386704	0.000223	2.229623	0.755417	-0.000089
1348	1.3403e+02	-13.6777	-36.544153	0.000395	3.952513	1.339148	-0.000158
1349	1.3413e+02	-13.7226	-36.701601	0.000395	3.952513	1.339148	-0.000158
1350	1.3423e+02	-13.7499	-36.810604	0.000274	2.736355	0.927102	-0.000110
1351	1.3432e+02	-13.8060	-36.959978	0.000375	3.749820	1.270473	-0.000150
1352	1.3442e+02	-13.8445	-37.097240	0.000345	3.445780	1.167462	-0.000138
1353	1.3452e+02	-13.8830	-37.234503	0.000345	3.445780	1.167462	-0.000138
1354	1.3462e+02	-13.9183	-37.343506	0.000274	2.736355	0.927102	-0.000110
1355	1.3472e+02	-13.9584	-37.517102	0.000436	4.357899	1.476496	-0.000174
1356	1.3482e+02	-14.0098	-37.678588	0.000405	4.053859	1.373485	-0.000162
1357	1.3492e+02	-14.0370	-37.759331	0.000203	2.026930	0.686742	-0.000081
1358	1.3502e+02	-14.0820	-37.912742	0.000385	3.851166	1.304810	-0.000154
1359	1.3512e+02	-14.1253	-38.054041	0.000355	3.547127	1.201799	-0.000142
1360	1.3522e+02	-14.1686	-38.231675	0.000446	4.459245	1.510833	-0.000179
1361	1.3532e+02	-14.1910	-38.336641	0.000264	2.635009	0.892765	-0.000105
1362	1.3542e+02	-14.2408	-38.441606	0.000264	2.635009	0.892765	-0.000105
1363	1.3552e+02	-14.2825	-38.590981	0.000375	3.749820	1.270473	-0.000150
1364	1.3562e+02	-14.3194	-38.748429	0.000395	3.952513	1.339148	-0.000158
1365	1.3572e+02	-14.3627	-38.889729	0.000355	3.547127	1.201799	-0.000142
1366	1.3582e+02	-14.3980	-38.986620	0.000243	2.432316	0.824091	-0.000097
1367	1.3592e+02	-14.4333	-39.152142	0.000416	4.155206	1.407822	-0.000166
1368	1.3602e+02	-14.4814	-39.309591	0.000395	3.952513	1.339148	-0.000158
1369	1.3612e+02	-14.5215	-39.374185	0.000162	1.621544	0.549394	-0.000065
1370	1.3622e+02	-14.5568	-39.563930	0.000476	4.763285	1.613845	-0.000191
1371	1.3631e+02	-14.6001	-39.697156	0.000334	3.344434	1.133125	-0.000134
1372	1.3641e+02	-14.6322	-39.830381	0.000334	3.344434	1.133125	-0.000134
1373	1.3651e+02	-14.6771	-39.911124	0.000203	2.026930	0.686742	-0.000081
1374	1.3661e+02	-14.7140	-40.088758	0.000446	4.459245	1.510833	-0.000179
1375	1.3671e+02	-14.7654	-40.193723	0.000264	2.635009	0.892765	-0.000105
1376	1.3681e+02	-14.7974	-40.310800	0.000294	2.939048	0.995776	-0.000118
1377	1.3691e+02	-14.8359	-40.480360	0.000426	4.256552	1.442159	-0.000170
1378	1.3701e+02	-14.8889	-40.649920	0.000426	4.256552	1.442159	-0.000170
1379	1.3711e+02	-14.9146	-40.738737	0.000223	2.229623	0.755417	-0.000089
1380	1.3721e+02	-14.9595	-40.871962	0.000334	3.344434	1.133125	-0.000134
1381	1.3731e+02	-14.9916	-40.993076	0.000304	3.040395	1.030114	-0.000122
1382	1.3741e+02	-15.0349	-41.211082	0.000547	5.472710	1.854204	-0.000219
1383	1.3751e+02	-15.0718	-41.299899	0.000223	2.229623	0.755417	-0.000089
1384	1.3761e+02	-15.1119	-41.408901	0.000274	2.736355	0.927102	-0.000110
1385	1.3771e+02	-15.1632	-41.513867	0.000264	2.635009	0.892765	-0.000105
1386	1.3781e+02	-15.1953	-41.711686	0.000497	4.965978	1.682519	-0.000199
1387	1.3791e+02	-15.2338	-41.828763	0.000294	2.939048	0.995776	-0.000118
1388	1.3801e+02	-15.2771	-41.925655	0.000243	2.432316	0.824091	-0.000097
1389	1.3811e+02	-15.3220	-42.062917	0.000345	3.445780	1.167462	-0.000138
1390	1.3821e+02	-15.3541	-42.228440	0.000416	4.155206	1.407822	-0.000166
1391	1.3831e+02	-15.4006	-42.361665	0.000334	3.344434	1.133125	-0.000134
1392	1.3840e+02	-15.4375	-42.502965	0.000355	3.547127	1.201799	-0.000142
1393	1.3850e+02	-15.4728	-42.656376	0.000385	3.851166	1.304810	-0.000154
1394	1.3860e+02	-15.5177	-42.753267	0.000243	2.432316	0.824091	-0.000097
1395	1.3870e+02	-15.5482	-42.902641	0.000375	3.749820	1.270473	-0.000150
1396	1.3880e+02	-15.5996	-43.060090	0.000395	3.952513	1.339148	-0.000158
1397	1.3890e+02	-15.6332	-43.185241	0.000314	3.141741	1.064451	-0.000126
1398	1.3900e+02	-15.6750	-43.342689	0.000395	3.952513	1.339148	-0.000158
1399	1.3910e+02	-15.7054	-43.471878	0.000324	3.243087	1.098788	-0.000130
1400	1.3920e+02	-15.7552	-43.572806	0.000253	2.533662	0.858428	-0.000101
1401	1.3930e+02	-15.7905	-43.738329	0.000416	4.155206	1.407822	-0.000166
1402	1.3940e+02	-15.8338	-43.875591	0.000345	3.445780	1.167462	-0.000138
1403	1.3950e+02	-15.8755	-44.000742	0.000314	3.141741	1.064451	-0.000126
1404	1.3960e+02	-15.9076	-44.142042	0.000355	3.547127	1.201799	-0.000142
1405	1.3970e+02	-15.9605	-44.311602	0.000426	4.256552	1.442159	-0.000170
1406	1.3980e+02	-15.9942	-44.440790	0.000324	3.243087	1.098788	-0.000130
1407	1.3990e+02	-16.0295	-44.594201	0.000385	3.851166	1.304810	-0.000154
1408	1.4000e+02	-16.0712	-44.727427	0.000334	3.344434	1.133125	-0.000134
1409	1.4010e+02	-16.1161	-44.844504	0.000294	2.939048	0.995776	-0.000118
1410	1.4020e+02	-16.1610	-45.026175	0.000456	4.560592	1.545170	-0.000183
1411	1.4029e+02	-16.1963	-45.110955	0.000213	2.128276	0.721079	-0.000085
1412	1.4039e+02	-16.2316	-45.304737	0.000486	4.864631	1.648182	-0.000195
1413	1.4049e+02	-16.2749	-45.425851	0.000304	3.040395	1.030114	-0.000122
1414	1.4059e+02	-16.3150	-45.587337	0.000405	4.053859	1.373485	-0.000162
1415	1.4069e+02	-16.3519	-45.728637	0.000355	3.547127	1.201799	-0.000142
1416	1.4079e+02	-16.3824	-45.869936	0.000355	3.547127	1.201799	-0.000142
1417	1.4089e+02	-16.4370	-46.019310	0.000375	3.749820	1.270473	-0.000150
1418	1.4099e+02	-16.4755	-46.124276	0.000264	2.635009	0.892765	-0.000105
1419	1.4109e+02	-16.5124	-46.297873	0.000436	4.357899	1.476496	-0.000174
1420	1.4119e+02	-16.5525	-46.410912	0.000284	2.837702	0.961439	-0.000114
1421	1.4129e+02	-16.5958	-46.592584	0.000456	4.560592	1.545170	-0.000183
1422	1.4139e+02	-16.6343	-46.745995	0.000385	3.851166	1.304810	-0.000154
1423	1.4149e+02	-16.6680	-46.911517	0.000416	4.155206	1.407822	-0.000166
1424	1.4159e+02	-16.7225	-47.012446	0.000253	2.533662	0.858428	-0.000101
1425	1.4169e+02	-16.7594	-47.145671	0.000334	3.344434	1.133125	-0.000134
1426	1.4179e+02	-16.7915	-47.339454	0.000486	4.864631	1.648182	-0.000195
1427	1.4189e+02	-16.8252	-47.472679	0.000334	3.344434	1.133125	-0.000134
1428	1.4199e+02	-16.8765	-47.618016	0.000365	3.648473	1.236136	-0.000146
1429	1.4209e+02	-16.9166	-47.759316	0.000355	3.547127	1.201799	-0.000142
1430	1.4219e+02	-16.9487	-47.908690	0.000375	3.749820	1.270473	-0.000150
1431	1.4228e+02	-16.9936	-48.090361	0.000456	4.560592	1.545170	-0.000183
1432	1.4238e+02	-17.0257	-48.276069	0.000466	4.661938	1.579507	-0.000187
1433	1.4248e+02	-17.0706	-48.385072	0.000274	2.736355	0.927102	-0.000110
1434	1.4258e+02	-17.1059	-48.554632	0.000426	4.256552	1.442159	-0.000170
1435	1.4268e+02	-17.1541	-48.691894	0.000345	3.445780	1.167462	-0.000138
1436	1.4278e+02	-17.1813	-48.841268	0.000375	3.749820	1.270473	-0.000150
1437	1.4288e+02	-17.2214	-49.026976	0.000466	4.661938	1.579507	-0.000187
1438	1.4298e+02	-17.2712	-49.176350	0.000375	3.749820	1.270473	-0.000150
1439	1.4308e+02	-17.3145	-49.382244	0.000517	5.168671	1.751193	-0.000207
1440	1.4318e+02	-17.3530	-49.495284	0.000284	2.837702	0.961439	-0.000114
1441	1.4328e+02	-17.3899	-49.676955	0.000456	4.560592	1.545170	-0.000183
1442	1.4338e+02	-17.4252	-49.830366	0.000385	3.851166	1.304810	-0.000154
1443	1.4348e+02	-17.4701	-50.032223	0.000507	5.067324	1.716856	-0.000203
1444	1.4358e+02	-17.5134	-50.193709	0.000405	4.053859	1.373485	-0.000162
1445	1.4368e+02	-17.5647	-50.359231	0.000416	4.155206	1.407822	-0.000166
1446	1.4378e+02	-17.5936	-50.536865	0.000446	4.459245	1.510833	-0.000179
1447	1.4388e+02	-17.6289	-50.694313	0.000395	3.952513	1.339148	-0.000158
1448	1.4398e+02	-17.6594	-50.892133	0.000497	4.965978	1.682519	-0.000199
1449	1.4408e+02	-17.7188	-51.029396	0.000345	3.445780	1.167462	-0.000138
1450	1.4418e+02	-17.7476	-51.194918	0.000416	4.155206	1.407822	-0.000166
1451	1.4428e+02	-17.7877	-51.416961	0.000557	5.574057	1.888542	-0.000223
1452	1.4437e+02	-17.8262	-51.614780	0.000497	4.965978	1.682519	-0.000199
1453	1.4447e+02	-17.8663	-51.804526	0.000476	4.763285	1.613845	-0.000191
1454	1.4457e+02	-17.9016	-51.933714	0.000324	3.243087	1.098788	-0.000130
1455	1.4467e+02	-17.9401	-52.131534	0.000497	4.965978	1.682519	-0.000199
1456	1.4477e+02	-17.9834	-52.321279	0.000476	4.763285	1.613845	-0.000191
1457	1.4487e+02	-18.0300	-52.506987	0.000466	4.661938	1.579507	-0.000187
1458	1.4497e+02	-18.0749	-52.680584	0.000436	4.357899	1.476496	-0.000174
1459	1.4507e+02	-18.1102	-52.846107	0.000416	4.155206	1.407822	-0.000166
1460	1.4517e+02	-18.1487	-53.068149	0.000557	5.574057	1.888542	-0.000223
1461	1.4527e+02	-18.1792	-53.221560	0.000385	3.851166	1.304810	-0.000154
1462	1.4537e+02	-18.2273	-53.419380	0.000497	4.965978	1.682519	-0.000199
1463	1.4547e+02	-18.2674	-53.605088	0.000466	4.661938	1.579507	-0.000187
1464	1.4557e+02	-18.3171	-53.810982	0.000517	5.168671	1.751193	-0.000207
1465	1.4567e+02	-18.3412	-53.980542	0.000426	4.256552	1.442159	-0.000170
1466	1.4577e+02	-18.3845	-54.214696	0.000588	5.878096	1.991553	-0.000235
1467	1.4587e+02	-18.4198	-54.400404	0.000466	4.661938	1.579507	-0.000187
1468	1.4597e+02	-18.4615	-54.638595	0.000598	5.979443	2.025890	-0.000239
1469	1.4607e+02	-18.4984	-54.832378	0.000486	4.864631	1.648182	-0.000195
1470	1.4617e+02	-18.5465	-54.989826	0.000395	3.952513	1.339148	-0.000158
1471	1.4626e+02	-18.5818	-55.195720	0.000517	5.168671	1.751193	-0.000207
1472	1.4636e+02	-18.6171	-55.401614	0.000517	5.168671	1.751193	-0.000207
1473	1.4646e+02	-18.6669	-55.615582	0.000537	5.371364	1.819867	-0.000215
1474	1.4656e+02	-18.7150	-55.853773	0.000598	5.979443	2.025890	-0.000239
1475	1.4666e+02	-18.7326	-56.035444	0.000456	4.560592	1.545170	-0.000183
1476	1.4676e+02	-18.7888	-56.237301	0.000507	5.067324	1.716856	-0.000203
1477	1.4686e+02	-18.8305	-56.471455	0.000588	5.878096	1.991553	-0.000235
1478	1.4696e+02	-18.8674	-56.649089	0.000446	4.459245	1.510833	-0.000179
1479	1.4706e+02	-18.9107	-56.838834	0.000476	4.763285	1.613845	-0.000191
1480	1.4716e+02	-18.9508	-57.093174	0.000638	6.384829	2.163238	-0.000256
1481	1.4726e+02	-18.9829	-57.351550	0.000649	6.486175	2.197576	-0.000260
1482	1.4736e+02	-19.0278	-57.504961	0.000385	3.851166	1.304810	-0.000154
1483	1.4746e+02	-19.0663	-57.714893	0.000527	5.270017	1.785530	-0.000211
1484	1.4756e+02	-19.1032	-57.949046	0.000588	5.878096	1.991553	-0.000235
1485	1.4766e+02	-19.1529	-58.163015	0.000537	5.371364	1.819867	-0.000215
1486	1.4776e+02	-19.1802	-58.429466	0.000669	6.688868	2.266250	-0.000268
1487	1.4786e+02	-19.2283	-58.639397	0.000527	5.270017	1.785530	-0.000211
1488	1.4796e+02	-19.2652	-58.849328	0.000527	5.270017	1.785530	-0.000211
1489	1.4806e+02	-19.3053	-59.059259	0.000527	5.270017	1.785530	-0.000211
1490	1.4816e+02	-19.3422	-59.301487	0.000608	6.080789	2.060227	-0.000243
1491	1.4825e+02	-19.3775	-59.523529	0.000557	5.574057	1.888542	-0.000223
1492	1.4835e+02	-19.4192	-59.721349	0.000497	4.965978	1.682519	-0.000199
1493	1.4845e+02	-19.4642	-60.024134	0.000760	7.600986	2.575284	-0.000304
1494	1.4855e+02	-19.4946	-60.221954	0.000497	4.965978	1.682519	-0.000199
1495	1.4865e+02	-19.5396	-60.448033	0.000568	5.675403	1.922879	-0.000227
1496	1.4875e+02	-19.5781	-60.674113	0.000568	5.675403	1.922879	-0.000227
1497	1.4885e+02	-19.6230	-60.924415	0.000628	6.283482	2.128901	-0.000252
1498	1.4895e+02	-19.6535	-61.154532	0.000578	5.776750	1.957216	-0.000231
1499	1.4905e+02	-19.7016	-61.384649	0.000578	5.776750	1.957216	-0.000231
1500	1.4915e+02	-19.7385	-61.671286	0.000720	7.195600	2.437935	-0.000288
1501	1.4925e+02	-19.7786	-61.897365	0.000568	5.675403	1.922879	-0.000227
1502	1.4935e+02	-19.8235	-62.123445	0.000568	5.675403	1.922879	-0.000227
1503	1.4945e+02	-19.8540	-62.385859	0.000659	6.587521	2.231913	-0.000264
1504	1.4955e+02	-19.9021	-62.624050	0.000598	5.979443	2.025890	-0.000239
1505	1.4965e+02	-19.9358	-62.838018	0.000537	5.371364	1.819867	-0.000215
1506	1.4975e+02	-19.9695	-63.100432	0.000659	6.587521	2.231913	-0.000264
1507	1.4985e+02	-20.0144	-63.378994	0.000699	6.992907	2.369261	-0.000280
1508	1.4995e+02	-19.9855	-63.415328	-0.000091	-0.912118	-0.309034	-0.000037
1509	1.5005e+02	-19.9390	-63.439551	-0.000061	-0.608079	-0.206023	-0.000024
1510	1.5015e+02	-19.9069	-63.459737	-0.000051	-0.506732	-0.171686	-0.000020
1511	1.5025e+02	-19.8620	-63.483959	-0.000061	-0.608079	-0.206023	-0.000024
1512	1.5034e+02	-19.8283	-63.467811	0.000041	0.405386	0.137348	0.000016
1513	1.5044e+02	-19.7866	-63.455700	0.000030	0.304039	0.103011	0.000012
1514	1.5054e+02	-19.7385	-63.447625	0.000020	0.202693	0.068674	0.000008
1515	1.5064e+02	-19.7000	-63.383031	0.000162	1.621544	0.549394	0.000065
1516	1.5074e+02	-19.6567	-63.387068	-0.000010	-0.101346	-0.034337	-0.000004
1517	1.5084e+02	-19.6182	-63.302288	0.000213	2.128276	0.721079	0.000085
1518	1.5094e+02	-19.5797	-63.278066	0.000061	0.608079	0.206023	0.000024
1519	1.5104e+02	-19.5508	-63.217509	0.000152	1.520197	0.515057	0.000061
1520	1.5114e+02	-19.4930	-63.209434	0.000020	0.202693	0.068674	0.000008
1521	1.5124e+02	-19.4690	-63.173100	0.000091	0.912118	0.309034	0.000037
1522	1.5134e+02	-19.4241	-63.140803	0.000081	0.810772	0.274697	0.000032
1523	1.5144e+02	-19.3823	-63.015652	0.000314	3.141741	1.064451	0.000126
1524	1.5154e+02	-19.3438	-62.983355	0.000081	0.810772	0.274697	0.000032
1525	1.5164e+02	-19.3069	-62.951058	0.000081	0.810772	0.274697	0.000032
1526	1.5174e+02	-19.2556	-62.870315	0.000203	2.026930	0.686742	0.000081
1527	1.5184e+02	-19.2251	-62.838018	0.000081	0.810772	0.274697	0.000032
1528	1.5194e+02	-19.1882	-62.724978	0.000284	2.837702	0.961439	0.000114
1529	1.5204e+02	-19.1497	-62.652310	0.000182	1.824237	0.618068	0.000073
1530	1.5214e+02	-19.1000	-62.555418	0.000243	2.432316	0.824091	0.000097
1531	1.5224e+02	-19.0727	-62.502935	0.000132	1.317504	0.446383	0.000053
1532	1.5233e+02	-19.0246	-62.426230	0.000193	1.925583	0.652405	0.000077
1533	1.5243e+02	-18.9909	-62.345487	0.000203	2.026930	0.686742	0.000081
1534	1.5253e+02	-18.9396	-62.317227	0.000071	0.709425	0.240360	0.000028
1535	1.5263e+02	-18.9043	-62.200150	0.000294	2.939048	0.995776	0.000118
1536	1.5273e+02	-18.8674	-62.139593	0.000152	1.520197	0.515057	0.000061
1537	1.5283e+02	-18.8225	-62.079036	0.000152	1.520197	0.515057	0.000061
1538	1.5293e+02	-18.7872	-61.982145	0.000243	2.432316	0.824091	0.000097
1539	1.5303e+02	-18.7439	-61.885254	0.000243	2.432316	0.824091	0.000097
1540	1.5313e+02	-18.7070	-61.820660	0.000162	1.621544	0.549394	0.000065
1541	1.5323e+02	-18.6636	-61.711657	0.000274	2.736355	0.927102	0.000110
1542	1.5333e+02	-18.6155	-61.647063	0.000162	1.621544	0.549394	0.000065
1543	1.5343e+02	-18.5802	-61.538060	0.000274	2.736355	0.927102	0.000110
1544	1.5353e+02	-18.5433	-61.445206	0.000233	2.330969	0.789754	0.000093
1545	1.5363e+02	-18.5128	-61.360426	0.000213	2.128276	0.721079	0.000085
1546	1.5373e+02	-18.4663	-61.283721	0.000193	1.925583	0.652405	0.000077
1547	1.5383e+02	-18.4278	-61.211052	0.000182	1.824237	0.618068	0.000073
1548	1.5393e+02	-18.3925	-61.110124	0.000253	2.533662	0.858428	0.000101
1549	1.5403e+02	-18.3492	-61.045529	0.000162	1.621544	0.549394	0.000065
1550	1.5413e+02	-18.3043	-60.972861	0.000182	1.824237	0.618068	0.000073
1551	1.5422e+02	-18.2690	-60.871933	0.000253	2.533662	0.858428	0.000101
1552	1.5432e+02	-18.2241	-60.754856	0.000294	2.939048	0.995776	0.000118
1553	1.5442e+02	-18.1936	-60.674113	0.000203	2.026930	0.686742	0.000081
1554	1.5452e+02	-18.1503	-60.605482	0.000172	1.722890	0.583731	0.000069
1555	1.5462e+02	-18.1150	-60.480330	0.000314	3.141741	1.064451	0.000126
1556	1.5472e+02	-18.0588	-60.403625	0.000193	1.925583	0.652405	0.000077
1557	1.5482e+02	-18.0252	-60.334994	0.000172	1.722890	0.583731	0.000069
1558	1.5492e+02	-17.9834	-60.250214	0.000213	2.128276	0.721079	0.000085
1559	1.5502e+02	-17.9514	-60.137174	0.000284	2.837702	0.961439	0.000114
1560	1.5512e+02	-17.9048	-60.052394	0.000213	2.128276	0.721079	0.000085
1561	1.5522e+02	-17.8744	-59.935317	0.000294	2.939048	0.995776	0.000118
1562	1.5532e+02	-17.8294	-59.850537	0.000213	2.128276	0.721079	0.000085
1563	1.5542e+02	-17.7797	-59.737498	0.000284	2.837702	0.961439	0.000114
1564	1.5552e+02	-17.7460	-59.701163	0.000091	0.912118	0.309034	0.000037
1565	1.5562e+02	-17.7107	-59.559864	0.000355	3.547127	1.201799	0.000142
1566	1.5572e+02	-17.6738	-59.467009	0.000233	2.330969	0.789754	0.000093
1567	1.5582e+02	-17.6353	-59.378192	0.000223	2.229623	0.755417	0.000089
1568	1.5592e+02	-17.5936	-59.285338	0.000233	2.330969	0.789754	0.000093
1569	1.5602e+02	-17.5551	-59.180373	0.000264	2.635009	0.892765	0.000105
1570	1.5612e+02	-17.5134	-59.083482	0.000243	2.432316	0.824091	0.000097
1571	1.5622e+02	-17.4813	-59.043110	0.000101	1.013465	0.343371	0.000041
1572	1.5631e+02	-17.4268	-58.893736	0.000375	3.749820	1.270473	0.000150
1573	1.5641e+02	-17.3947	-58.808956	0.000213	2.128276	0.721079	0.000085
1574	1.5651e+02	-17.3434	-58.752436	0.000142	1.418851	0.480720	0.000057
1575	1.5661e+02	-17.3161	-58.615174	0.000345	3.445780	1.167462	0.000138
1576	1.5671e+02	-17.2712	-58.514245	0.000253	2.533662	0.858428	0.000101
1577	1.5681e+02	-17.2327	-58.457725	0.000142	1.418851	0.480720	0.000057
1578	1.5691e+02	-17.1894	-58.344686	0.000284	2.837702	0.961439	0.000114
1579	1.5701e+02	-17.1444	-58.231646	0.000284	2.837702	0.961439	0.000114
1580	1.5711e+02	-17.1172	-58.134755	0.000243	2.432316	0.824091	0.000097
1581	1.5721e+02	-17.0674	-58.029789	0.000264	2.635009	0.892765	0.000105
1582	1.5731e+02	-17.0305	-57.953084	0.000193	1.925583	0.652405	0.000077
1583	1.5741e+02	-16.9920	-57.864267	0.000223	2.229623	0.755417	0.000089
1584	1.5751e+02	-16.9535	-57.739115	0.000314	3.141741	1.064451	0.000126
1585	1.5761e+02	-16.9150	-57.678558	0.000152	1.520197	0.515057	0.000061
1586	1.5771e+02	-16.8605	-57.577630	0.000253	2.533662	0.858428	0.000101
1587	1.5781e+02	-16.8316	-57.508999	0.000172	1.722890	0.583731	0.000069
1588	1.5791e+02	-16.7899	-57.383847	0.000314	3.141741	1.064451	0.000126
1589	1.5801e+02	-16.7370	-57.278882	0.000264	2.635009	0.892765	0.000105
1590	1.5811e+02	-16.7081	-57.202176	0.000193	1.925583	0.652405	0.000077
1591	1.5821e+02	-16.6712	-57.141619	0.000152	1.520197	0.515057	0.000061
1592	1.5830e+02	-16.6295	-57.004357	0.000345	3.445780	1.167462	0.000138
1593	1.5840e+02	-16.5942	-56.919577	0.000213	2.128276	0.721079	0.000085
1594	1.5850e+02	-16.5493	-56.798463	0.000304	3.040395	1.030114	0.000122
1595	1.5860e+02	-16.5220	-56.705609	0.000233	2.330969	0.789754	0.000093
1596	1.5870e+02	-16.4739	-56.632940	0.000182	1.824237	0.618068	0.000073
1597	1.5880e+02	-16.4289	-56.511826	0.000304	3.040395	1.030114	0.000122
1598	1.5890e+02	-16.3921	-56.406861	0.000264	2.635009	0.892765	0.000105
1599	1.5900e+02	-16.3568	-56.309969	0.000243	2.432316	0.824091	0.000097
1600	1.5910e+02	-16.3086	-56.245375	0.000162	1.621544	0.549394	0.000065
1601	1.5920e+02	-16.2749	-56.083890	0.000405	4.053859	1.373485	0.000162
1602	1.5930e+02	-16.2364	-56.031407	0.000132	1.317504	0.446383	0.000053
1603	1.5940e+02	-16.1883	-55.886070	0.000365	3.648473	1.236136	0.000146
1604	1.5950e+02	-16.1450	-55.829550	0.000142	1.418851	0.480720	0.000057
1605	1.5960e+02	-16.1209	-55.704399	0.000314	3.141741	1.064451	0.000126
1606	1.5970e+02	-16.0696	-55.587322	0.000294	2.939048	0.995776	0.000118
1607	1.5980e+02	-16.0375	-55.518691	0.000172	1.722890	0.583731	0.000069
1608	1.5990e+02	-15.9958	-55.409688	0.000274	2.736355	0.927102	0.000110
1609	1.6000e+02	-15.9509	-55.304722	0.000264	2.635009	0.892765	0.000105
1610	1.6010e+02	-15.9156	-55.223980	0.000203	2.026930	0.686742	0.000081
1611	1.6019e+02	-15.8819	-55.098829	0.000314	3.141741	1.064451	0.000126
1612	1.6029e+02	-15.8354	-55.001937	0.000243	2.432316	0.824091	0.000097
1613	1.6039e+02	-15.7921	-54.880823	0.000304	3.040395	1.030114	0.000122
1614	1.6049e+02	-15.7584	-54.796043	0.000213	2.128276	0.721079	0.000085
1615	1.6059e+02	-15.7151	-54.699152	0.000243	2.432316	0.824091	0.000097
1616	1.6069e+02	-15.6734	-54.622447	0.000193	1.925583	0.652405	0.000077
1617	1.6079e+02	-15.6397	-54.481147	0.000355	3.547127	1.201799	0.000142
1618	1.6089e+02	-15.6012	-54.380218	0.000253	2.533662	0.858428	0.000101
1619	1.6099e+02	-15.5643	-54.331773	0.000122	1.216158	0.412045	0.000049
1620	1.6109e+02	-15.5177	-54.190473	0.000355	3.547127	1.201799	0.000142
1621	1.6119e+02	-15.4744	-54.101656	0.000223	2.229623	0.755417	0.000089
1622	1.6129e+02	-15.4327	-54.008802	0.000233	2.330969	0.789754	0.000093
1623	1.6139e+02	-15.3958	-53.891725	0.000294	2.939048	0.995776	0.000118
1624	1.6149e+02	-15.3653	-53.766574	0.000314	3.141741	1.064451	0.000126
1625	1.6159e+02	-15.3124	-53.706017	0.000152	1.520197	0.515057	0.000061
1626	1.6169e+02	-15.2819	-53.568754	0.000345	3.445780	1.167462	0.000138
1627	1.6179e+02	-15.2322	-53.471863	0.000243	2.432316	0.824091	0.000097
1628	1.6189e+02	-15.1953	-53.419380	0.000132	1.317504	0.446383	0.000053
1629	1.6199e+02	-15.1568	-53.261932	0.000395	3.952513	1.339148	0.000158
1630	1.6209e+02	-15.1231	-53.173115	0.000223	2.229623	0.755417	0.000089
1631	1.6219e+02	-15.0782	-53.088335	0.000213	2.128276	0.721079	0.000085
1632	1.6228e+02	-15.0413	-52.955109	0.000334	3.344434	1.133125	0.000134
1633	1.6238e+02	-14.9900	-52.898590	0.000142	1.418851	0.480720	0.000057
1634	1.6248e+02	-14.9579	-52.765364	0.000334	3.344434	1.133125	0.000134
1635	1.6258e+02	-14.9146	-52.668473	0.000243	2.432316	0.824091	0.000097
1636	1.6268e+02	-14.8857	-52.527173	0.000355	3.547127	1.201799	0.000142
1637	1.6278e+02	-14.8327	-52.406059	0.000304	3.040395	1.030114	0.000122
1638	1.6288e+02	-14.7974	-52.325316	0.000203	2.026930	0.686742	0.000081
1639	1.6298e+02	-14.7589	-52.212276	0.000284	2.837702	0.961439	0.000114
1640	1.6308e+02	-14.7188	-52.091162	0.000304	3.040395	1.030114	0.000122
1641	1.6318e+02	-14.6803	-51.990234	0.000253	2.533662	0.858428	0.000101
1642	1.6328e+02	-14.6450	-51.913528	0.000193	1.925583	0.652405	0.000077
1643	1.6338e+02	-14.6049	-51.804526	0.000274	2.736355	0.927102	0.000110
1644	1.6348e+02	-14.5729	-51.667263	0.000345	3.445780	1.167462	0.000138
1645	1.6358e+02	-14.5231	-51.542112	0.000314	3.141741	1.064451	0.000126
1646	1.6368e+02	-14.4734	-51.465406	0.000193	1.925583	0.652405	0.000077
1647	1.6378e+02	-14.4349	-51.360441	0.000264	2.635009	0.892765	0.000105
1648	1.6388e+02	-14.4012	-51.251438	0.000274	2.736355	0.927102	0.000110
1649	1.6398e+02	-14.3659	-51.170695	0.000203	2.026930	0.686742	0.000081
1650	1.6408e+02	-14.3194	-51.049581	0.000304	3.040395	1.030114	0.000122
1651	1.6418e+02	-14.2777	-50.952690	0.000243	2.432316	0.824091	0.000097
1652	1.6427e+02	-14.2376	-50.779093	0.000436	4.357899	1.476496	0.000174
1653	1.6437e+02	-14.2023	-50.730648	0.000122	1.216158	0.412045	0.000049
1654	1.6447e+02	-14.1606	-50.577237	0.000385	3.851166	1.304810	0.000154
1655	1.6457e+02	-14.1237	-50.464197	0.000284	2.837702	0.961439	0.000114
1656	1.6467e+02	-14.0787	-50.359231	0.000264	2.635009	0.892765	0.000105
1657	1.6477e+02	-14.0418	-50.262340	0.000243	2.432316	0.824091	0.000097
1658	1.6487e+02	-14.0017	-50.169486	0.000233	2.330969	0.789754	0.000093
1659	1.6497e+02	-13.9665	-50.064520	0.000264	2.635009	0.892765	0.000105
1660	1.6507e+02	-13.9231	-49.911109	0.000385	3.851166	1.304810	0.000154
1661	1.6517e+02	-13.8766	-49.794032	0.000294	2.939048	0.995776	0.000118
1662	1.6527e+02	-13.8397	-49.676955	0.000294	2.939048	0.995776	0.000118
1663	1.6537e+02	-13.7980	-49.592175	0.000213	2.128276	0.721079	0.000085
1664	1.6547e+02	-13.7611	-49.479136	0.000284	2.837702	0.961439	0.000114
1665	1.6557e+02	-13.7226	-49.366096	0.000284	2.837702	0.961439	0.000114
1666	1.6567e+02	-13.6841	-49.236907	0.000324	3.243087	1.098788	0.000130
1667	1.6577e+02	-13.6456	-49.123868	0.000284	2.837702	0.961439	0.000114
1668	1.6587e+02	-13.6071	-48.998716	0.000314	3.141741	1.064451	0.000126
1669	1.6597e+02	-13.5686	-48.901825	0.000243	2.432316	0.824091	0.000097
1670	1.6607e+02	-13.5253	-48.784748	0.000294	2.939048	0.995776	0.000118
1671	1.6616e+02	-13.4836	-48.687857	0.000243	2.432316	0.824091	0.000097
1672	1.6626e+02	-13.4435	-48.542520	0.000365	3.648473	1.236136	0.000146
1673	1.6636e+02	-13.4066	-48.437555	0.000264	2.635009	0.892765	0.000105
1674	1.6646e+02	-13.3633	-48.324515	0.000284	2.837702	0.961439	0.000114
1675	1.6656e+02	-13.3199	-48.195326	0.000324	3.243087	1.098788	0.000130
1676	1.6666e+02	-13.2863	-48.102472	0.000233	2.330969	0.789754	0.000093
1677	1.6676e+02	-13.2526	-47.969247	0.000334	3.344434	1.133125	0.000134
1678	1.6686e+02	-13.1996	-47.880430	0.000223	2.229623	0.755417	0.000089
1679	1.6696e+02	-13.1627	-47.710870	0.000426	4.256552	1.442159	0.000170
1680	1.6706e+02	-13.1242	-47.618016	0.000233	2.330969	0.789754	0.000093
1681	1.6716e+02	-13.0809	-47.496902	0.000304	3.040395	1.030114	0.000122
1682	1.6726e+02	-13.0472	-47.400011	0.000243	2.432316	0.824091	0.000097
1683	1.6736e+02	-13.0071	-47.254674	0.000365	3.648473	1.236136	0.000146
1684	1.6746e+02	-12.9734	-47.137597	0.000294	2.939048	0.995776	0.000118
1685	1.6756e+02	-12.9189	-47.056854	0.000203	2.026930	0.686742	0.000081
1686	1.6766e+02	-12.8836	-46.915554	0.000355	3.547127	1.201799	0.000142
1687	1.6776e+02	-12.8467	-46.790403	0.000314	3.141741	1.064451	0.000126
1688	1.6786e+02	-12.8034	-46.677363	0.000284	2.837702	0.961439	0.000114
1689	1.6796e+02	-12.7681	-46.568361	0.000274	2.736355	0.927102	0.000110
1690	1.6806e+02	-12.7328	-46.423024	0.000365	3.648473	1.236136	0.000146
1691	1.6816e+02	-12.6879	-46.326133	0.000243	2.432316	0.824091	0.000097
1692	1.6825e+02	-12.6478	-46.192907	0.000334	3.344434	1.133125	0.000134
1693	1.6835e+02	-12.6173	-46.087942	0.000264	2.635009	0.892765	0.000105
1694	1.6845e+02	-12.5627	-45.958753	0.000324	3.243087	1.098788	0.000130
1695	1.6855e+02	-12.5291	-45.817453	0.000355	3.547127	1.201799	0.000142
1696	1.6865e+02	-12.4761	-45.700377	0.000294	2.939048	0.995776	0.000118
1697	1.6875e+02	-12.4488	-45.587337	0.000284	2.837702	0.961439	0.000114
1698	1.6885e+02	-12.4055	-45.474297	0.000284	2.837702	0.961439	0.000114
1699	1.6895e+02	-12.3670	-45.369331	0.000264	2.635009	0.892765	0.000105
1700	1.6905e+02	-12.3253	-45.215920	0.000385	3.851166	1.304810	0.000154
1701	1.6915e+02	-12.2820	-45.102880	0.000284	2.837702	0.961439	0.000114
1702	1.6925e+02	-12.2515	-45.014063	0.000223	2.229623	0.755417	0.000089
1703	1.6935e+02	-12.2178	-44.860652	0.000385	3.851166	1.304810	0.000154
1704	1.6945e+02	-12.1665	-44.719353	0.000355	3.547127	1.201799	0.000142
1705	1.6955e+02	-12.1344	-44.610350	0.000274	2.736355	0.927102	0.000110
1706	1.6965e+02	-12.0895	-44.497310	0.000284	2.837702	0.961439	0.000114
1707	1.6975e+02	-12.0398	-44.364085	0.000334	3.344434	1.133125	0.000134
1708	1.6985e+02	-12.0045	-44.226822	0.000345	3.445780	1.167462	0.000138
1709	1.6995e+02	-11.9708	-44.117819	0.000274	2.736355	0.927102	0.000110
1710	1.7005e+02	-11.9307	-44.004780	0.000284	2.837702	0.961439	0.000114
1711	1.7015e+02	-11.8874	-43.887703	0.000294	2.939048	0.995776	0.000118
1712	1.7024e+02	-11.8473	-43.742366	0.000365	3.648473	1.236136	0.000146
1713	1.7034e+02	-11.8088	-43.633363	0.000274	2.736355	0.927102	0.000110
1714	1.7044e+02	-11.7703	-43.492063	0.000355	3.547127	1.201799	0.000142
1715	1.7054e+02	-11.7318	-43.370949	0.000304	3.040395	1.030114	0.000122
1716	1.7064e+02	-11.6900	-43.261947	0.000274	2.736355	0.927102	0.000110
1717	1.7074e+02	-11.6483	-43.140832	0.000304	3.040395	1.030114	0.000122
1718	1.7084e+02	-11.6018	-42.999533	0.000355	3.547127	1.201799	0.000142
1719	1.7094e+02	-11.5761	-42.934939	0.000162	1.621544	0.549394	0.000065
1720	1.7104e+02	-11.5360	-42.761342	0.000436	4.357899	1.476496	0.000174
1721	1.7114e+02	-11.4879	-42.636191	0.000314	3.141741	1.064451	0.000126
1722	1.7124e+02	-11.4510	-42.523151	0.000284	2.837702	0.961439	0.000114
1723	1.7134e+02	-11.4173	-42.393962	0.000324	3.243087	1.098788	0.000130
1724	1.7144e+02	-11.3644	-42.264774	0.000324	3.243087	1.098788	0.000130
1725	1.7154e+02	-11.3355	-42.143660	0.000304	3.040395	1.030114	0.000122
1726	1.7164e+02	-11.2874	-42.038694	0.000264	2.635009	0.892765	0.000105
1727	1.7174e+02	-11.2569	-41.885283	0.000385	3.851166	1.304810	0.000154
1728	1.7184e+02	-11.2152	-41.772243	0.000284	2.837702	0.961439	0.000114
1729	1.7194e+02	-11.1799	-41.626907	0.000365	3.648473	1.236136	0.000146
1730	1.7204e+02	-11.1334	-41.505793	0.000304	3.040395	1.030114	0.000122
1731	1.7213e+02	-11.0933	-41.400827	0.000264	2.635009	0.892765	0.000105
1732	1.7223e+02	-11.0580	-41.279713	0.000304	3.040395	1.030114	0.000122
1733	1.7233e+02	-11.0275	-41.142450	0.000345	3.445780	1.167462	0.000138
1734	1.7243e+02	-10.9569	-41.073819	0.000172	1.722890	0.583731	0.000069
1735	1.7253e+02	-10.9328	-40.912334	0.000405	4.053859	1.373485	0.000162
1736	1.7263e+02	-10.8976	-40.766997	0.000365	3.648473	1.236136	0.000146
1737	1.7273e+02	-10.8623	-40.605511	0.000405	4.053859	1.373485	0.000162
1738	1.7283e+02	-10.8189	-40.480360	0.000314	3.141741	1.064451	0.000126
1739	1.7293e+02	-10.7724	-40.415766	0.000162	1.621544	0.549394	0.000065
1740	1.7303e+02	-10.7339	-40.290615	0.000314	3.141741	1.064451	0.000126
1741	1.7313e+02	-10.6986	-40.177575	0.000284	2.837702	0.961439	0.000114
1742	1.7323e+02	-10.6489	-40.024164	0.000385	3.851166	1.304810	0.000154
1743	1.7333e+02	-10.6088	-39.894975	0.000324	3.243087	1.098788	0.000130
1744	1.7343e+02	-10.5831	-39.765787	0.000324	3.243087	1.098788	0.000130
1745	1.7353e+02	-10.5398	-39.664859	0.000253	2.533662	0.858428	0.000101
1746	1.7363e+02	-10.4901	-39.539707	0.000314	3.141741	1.064451	0.000126
1747	1.7373e+02	-10.4564	-39.410519	0.000324	3.243087	1.098788	0.000130
1748	1.7383e+02	-10.4195	-39.273256	0.000345	3.445780	1.167462	0.000138
1749	1.7393e+02	-10.3746	-39.168291	0.000264	2.635009	0.892765	0.000105
1750	1.7403e+02	-10.3345	-39.039103	0.000324	3.243087	1.098788	0.000130
1751	1.7413e+02	-10.3008	-38.917989	0.000304	3.040395	1.030114	0.000122
1752	1.7422e+02	-10.2607	-38.764577	0.000385	3.851166	1.304810	0.000154
1753	1.7432e+02	-10.2254	-38.643463	0.000304	3.040395	1.030114	0.000122
1754	1.7442e+02	-10.1853	-38.538498	0.000264	2.635009	0.892765	0.000105
1755	1.7452e+02	-10.1339	-38.381049	0.000395	3.952513	1.339148	0.000158
1756	1.7462e+02	-10.1051	-38.259935	0.000304	3.040395	1.030114	0.000122
1757	1.7472e+02	-10.0521	-38.134784	0.000314	3.141741	1.064451	0.000126
1758	1.7482e+02	-10.0200	-38.029819	0.000264	2.635009	0.892765	0.000105
1759	1.7492e+02	-9.9767	-37.912742	0.000294	2.939048	0.995776	0.000118
1760	1.7502e+02	-9.9414	-37.771442	0.000355	3.547127	1.201799	0.000142
1761	1.7512e+02	-9.9077	-37.593808	0.000446	4.459245	1.510833	0.000179
1762	1.7522e+02	-9.8596	-37.496917	0.000243	2.432316	0.824091	0.000097
1763	1.7532e+02	-9.8307	-37.404063	0.000233	2.330969	0.789754	0.000093
1764	1.7542e+02	-9.7874	-37.282949	0.000304	3.040395	1.030114	0.000122
1765	1.7552e+02	-9.7313	-37.161834	0.000304	3.040395	1.030114	0.000122
1766	1.7562e+02	-9.6976	-37.024572	0.000345	3.445780	1.167462	0.000138
1767	1.7572e+02	-9.6687	-36.899421	0.000314	3.141741	1.064451	0.000126
1768	1.7582e+02	-9.6190	-36.774269	0.000314	3.141741	1.064451	0.000126
1769	1.7592e+02	-9.5805	-36.653155	0.000304	3.040395	1.030114	0.000122
1770	1.7602e+02	-9.5372	-36.499744	0.000385	3.851166	1.304810	0.000154
1771	1.7612e+02	-9.4922	-36.366519	0.000334	3.344434	1.133125	0.000134
1772	1.7621e+02	-9.4570	-36.281739	0.000213	2.128276	0.721079	0.000085
1773	1.7631e+02	-9.4217	-36.148513	0.000334	3.344434	1.133125	0.000134
1774	1.7641e+02	-9.3783	-36.003177	0.000365	3.648473	1.236136	0.000146
1775	1.7651e+02	-9.3398	-35.910322	0.000233	2.330969	0.789754	0.000093
1776	1.7661e+02	-9.2885	-35.748837	0.000405	4.053859	1.373485	0.000162
1777	1.7671e+02	-9.2644	-35.627723	0.000304	3.040395	1.030114	0.000122
1778	1.7681e+02	-9.2179	-35.490460	0.000345	3.445780	1.167462	0.000138
1779	1.7691e+02	-9.1794	-35.385495	0.000264	2.635009	0.892765	0.000105
1780	1.7701e+02	-9.1393	-35.215935	0.000426	4.256552	1.442159	0.000170
1781	1.7711e+02	-9.1072	-35.082710	0.000334	3.344434	1.133125	0.000134
1782	1.7721e+02	-9.0543	-34.985818	0.000243	2.432316	0.824091	0.000097
1783	1.7731e+02	-9.0222	-34.868741	0.000294	2.939048	0.995776	0.000118
1784	1.7741e+02	-8.9757	-34.727442	0.000355	3.547127	1.201799	0.000142
1785	1.7751e+02	-8.9356	-34.618439	0.000274	2.736355	0.927102	0.000110
1786	1.7761e+02	-8.9003	-34.493288	0.000314	3.141741	1.064451	0.000126
1787	1.7771e+02	-8.8618	-34.319691	0.000436	4.357899	1.476496	0.000174
1788	1.7781e+02	-8.8217	-34.178391	0.000355	3.547127	1.201799	0.000142
1789	1.7791e+02	-8.7896	-34.101686	0.000193	1.925583	0.652405	0.000077
1790	1.7801e+02	-8.7479	-33.968460	0.000334	3.344434	1.133125	0.000134
1791	1.7810e+02	-8.7030	-33.819086	0.000375	3.749820	1.270473	0.000150
1792	1.7820e+02	-8.6580	-33.706046	0.000284	2.837702	0.961439	0.000114
1793	1.7830e+02	-8.6244	-33.548598	0.000395	3.952513	1.339148	0.000158
1794	1.7840e+02	-8.5826	-33.435558	0.000284	2.837702	0.961439	0.000114
1795	1.7850e+02	-8.5393	-33.306370	0.000324	3.243087	1.098788	0.000130
1796	1.7860e+02	-8.5089	-33.181219	0.000314	3.141741	1.064451	0.000126
1797	1.7870e+02	-8.4671	-33.043956	0.000345	3.445780	1.167462	0.000138
1798	1.7880e+02	-8.4206	-32.914768	0.000324	3.243087	1.098788	0.000130
1799	1.7890e+02	-8.3821	-32.789616	0.000314	3.141741	1.064451	0.000126
1800	1.7900e+02	-8.3436	-32.652354	0.000345	3.445780	1.167462	0.000138
1801	1.7910e+02	-8.3067	-32.539314	0.000284	2.837702	0.961439	0.000114
1802	1.7920e+02	-8.2714	-32.406089	0.000334	3.344434	1.133125	0.000134
1803	1.7930e+02	-8.2233	-32.264789	0.000355	3.547127	1.201799	0.000142
1804	1.7940e+02	-8.1896	-32.127526	0.000345	3.445780	1.167462	0.000138
1805	1.7950e+02	-8.1479	-32.002375	0.000314	3.141741	1.064451	0.000126
1806	1.7960e+02	-8.0998	-31.861075	0.000355	3.547127	1.201799	0.000142
1807	1.7970e+02	-8.0645	-31.743998	0.000294	2.939048	0.995776	0.000118
1808	1.7980e+02	-8.0372	-31.594624	0.000375	3.749820	1.270473	0.000150
1809	1.7990e+02	-7.9859	-31.453325	0.000355	3.547127	1.201799	0.000142
1810	1.8000e+02	-7.9442	-31.352396	0.000253	2.533662	0.858428	0.000101
1811	1.8009e+02	-7.8976	-31.243393	0.000274	2.736355	0.927102	0.000110
1812	1.8019e+02	-7.8639	-31.053648	0.000476	4.763285	1.613845	0.000191
1813	1.8029e+02	-7.8351	-30.964831	0.000223	2.229623	0.755417	0.000089
1814	1.8039e+02	-7.7853	-30.791234	0.000436	4.357899	1.476496	0.000174
1815	1.8049e+02	-7.7340	-30.658009	0.000334	3.344434	1.133125	0.000134
1816	1.8059e+02	-7.7067	-30.536895	0.000304	3.040395	1.030114	0.000122
1817	1.8069e+02	-7.6698	-30.407706	0.000324	3.243087	1.098788	0.000130
1818	1.8079e+02	-7.6233	-30.246221	0.000405	4.053859	1.373485	0.000162
1819	1.8089e+02	-7.5976	-30.145293	0.000253	2.533662	0.858428	0.000101
1820	1.8099e+02	-7.5479	-29.987844	0.000395	3.952513	1.339148	0.000158
1821	1.8109e+02	-7.5078	-29.874804	0.000284	2.837702	0.961439	0.000114
1822	1.8119e+02	-7.4677	-29.721393	0.000385	3.851166	1.304810	0.000154
1823	1.8129e+02	-7.4228	-29.628539	0.000233	2.330969	0.789754	0.000093
1824	1.8139e+02	-7.3811	-29.406497	0.000557	5.574057	1.888542	0.000223
1825	1.8149e+02	-7.3490	-29.293457	0.000284	2.837702	0.961439	0.000114
1826	1.8159e+02	-7.3057	-29.168306	0.000314	3.141741	1.064451	0.000126
1827	1.8169e+02	-7.2608	-29.018932	0.000375	3.749820	1.270473	0.000150
1828	1.8179e+02	-7.2207	-28.893780	0.000314	3.141741	1.064451	0.000126
1829	1.8189e+02	-7.1918	-28.752481	0.000355	3.547127	1.201799	0.000142
1830	1.8199e+02	-7.1501	-28.595032	0.000395	3.952513	1.339148	0.000158
1831	1.8209e+02	-7.1180	-28.469881	0.000314	3.141741	1.064451	0.000126
1832	1.8218e+02	-7.0682	-28.340693	0.000324	3.243087	1.098788	0.000130
1833	1.8228e+02	-7.0153	-28.203430	0.000345	3.445780	1.167462	0.000138
1834	1.8238e+02	-6.9896	-28.041945	0.000405	4.053859	1.373485	0.000162
1835	1.8248e+02	-6.9511	-27.941016	0.000253	2.533662	0.858428	0.000101
1836	1.8258e+02	-6.9142	-27.791642	0.000375	3.749820	1.270473	0.000150
1837	1.8268e+02	-6.8709	-27.638231	0.000385	3.851166	1.304810	0.000154
1838	1.8278e+02	-6.8340	-27.476746	0.000405	4.053859	1.373485	0.000162
1839	1.8288e+02	-6.7923	-27.335446	0.000355	3.547127	1.201799	0.000142
1840	1.8298e+02	-6.7506	-27.210295	0.000314	3.141741	1.064451	0.000126
1841	1.8308e+02	-6.7073	-27.040735	0.000426	4.256552	1.442159	0.000170
1842	1.8318e+02	-6.6592	-26.955955	0.000213	2.128276	0.721079	0.000085
1843	1.8328e+02	-6.6239	-26.790433	0.000416	4.155206	1.407822	0.000166
1844	1.8338e+02	-6.5854	-26.673356	0.000294	2.939048	0.995776	0.000118
1845	1.8348e+02	-6.5501	-26.540130	0.000334	3.344434	1.133125	0.000134
1846	1.8358e+02	-6.5100	-26.334236	0.000517	5.168671	1.751193	0.000207
1847	1.8368e+02	-6.4651	-26.221197	0.000284	2.837702	0.961439	0.000114
1848	1.8378e+02	-6.4298	-26.096045	0.000314	3.141741	1.064451	0.000126
1849	1.8388e+02	-6.3961	-25.958783	0.000345	3.445780	1.167462	0.000138
1850	1.8398e+02	-6.3512	-25.785186	0.000436	4.357899	1.476496	0.000174
1851	1.8407e+02	-6.3159	-25.672146	0.000284	2.837702	0.961439	0.000114
1852	1.8417e+02	-6.2806	-25.510661	0.000405	4.053859	1.373485	0.000162
1853	1.8427e+02	-6.2453	-25.401658	0.000274	2.736355	0.927102	0.000110
1854	1.8437e+02	-6.1988	-25.240173	0.000405	4.053859	1.373485	0.000162
1855	1.8447e+02	-6.1603	-25.050427	0.000476	4.763285	1.613845	0.000191
1856	1.8457e+02	-6.1153	-24.949499	0.000253	2.533662	0.858428	0.000101
1857	1.8467e+02	-6.0816	-24.800125	0.000375	3.749820	1.270473	0.000150
1858	1.8477e+02	-6.0335	-24.662862	0.000345	3.445780	1.167462	0.000138
1859	1.8487e+02	-5.9934	-24.481191	0.000456	4.560592	1.545170	0.000183
1860	1.8497e+02	-5.9597	-24.339891	0.000355	3.547127	1.201799	0.000142
1861	1.8507e+02	-5.9164	-24.214740	0.000314	3.141741	1.064451	0.000126
1862	1.8517e+02	-5.8779	-24.073440	0.000355	3.547127	1.201799	0.000142
1863	1.8527e+02	-5.8346	-23.928104	0.000365	3.648473	1.236136	0.000146
1864	1.8537e+02	-5.8025	-23.742395	0.000466	4.661938	1.579507	0.000187
1865	1.8547e+02	-5.7560	-23.613207	0.000324	3.243087	1.098788	0.000130
1866	1.8557e+02	-5.7207	-23.475944	0.000345	3.445780	1.167462	0.000138
1867	1.8567e+02	-5.6710	-23.310422	0.000416	4.155206	1.407822	0.000166
1868	1.8577e+02	-5.6293	-23.189308	0.000304	3.040395	1.030114	0.000122
1869	1.8587e+02	-5.5940	-23.011674	0.000446	4.459245	1.510833	0.000179
1870	1.8597e+02	-5.5587	-22.886522	0.000314	3.141741	1.064451	0.000126
1871	1.8606e+02	-5.5186	-22.753297	0.000334	3.344434	1.133125	0.000134
1872	1.8616e+02	-5.4897	-22.583737	0.000426	4.256552	1.442159	0.000170
1873	1.8626e+02	-5.4432	-22.442438	0.000355	3.547127	1.201799	0.000142
1874	1.8636e+02	-5.3966	-22.293064	0.000375	3.749820	1.270473	0.000150
1875	1.8646e+02	-5.3597	-22.111392	0.000456	4.560592	1.545170	0.000183
1876	1.8656e+02	-5.3196	-22.014501	0.000243	2.432316	0.824091	0.000097
1877	1.8666e+02	-5.2795	-21.804570	0.000527	5.270017	1.785530	0.000211
1878	1.8676e+02	-5.2426	-21.707679	0.000243	2.432316	0.824091	0.000097
1879	1.8686e+02	-5.1897	-21.521971	0.000466	4.661938	1.579507	0.000187
1880	1.8696e+02	-5.1544	-21.400857	0.000304	3.040395	1.030114	0.000122
1881	1.8706e+02	-5.1175	-21.247445	0.000385	3.851166	1.304810	0.000154
1882	1.8716e+02	-5.0822	-21.130368	0.000294	2.939048	0.995776	0.000118
1883	1.8726e+02	-5.0309	-20.968883	0.000405	4.053859	1.373485	0.000162
1884	1.8736e+02	-5.0036	-20.819509	0.000375	3.749820	1.270473	0.000150
1885	1.8746e+02	-4.9555	-20.649949	0.000426	4.256552	1.442159	0.000170
1886	1.8756e+02	-4.9234	-20.512687	0.000345	3.445780	1.167462	0.000138
1887	1.8766e+02	-4.8785	-20.326978	0.000466	4.661938	1.579507	0.000187
1888	1.8776e+02	-4.8400	-20.213939	0.000284	2.837702	0.961439	0.000114
1889	1.8786e+02	-4.7951	-20.052453	0.000405	4.053859	1.373485	0.000162
1890	1.8796e+02	-4.7501	-19.895005	0.000395	3.952513	1.339148	0.000158
1891	1.8806e+02	-4.7180	-19.753705	0.000355	3.547127	1.201799	0.000142
1892	1.8815e+02	-4.6699	-19.596257	0.000395	3.952513	1.339148	0.000158
1893	1.8825e+02	-4.6378	-19.463031	0.000334	3.344434	1.133125	0.000134
1894	1.8835e+02	-4.6009	-19.301546	0.000405	4.053859	1.373485	0.000162
1895	1.8845e+02	-4.5624	-19.180432	0.000304	3.040395	1.030114	0.000122
1896	1.8855e+02	-4.5191	-19.002798	0.000446	4.459245	1.510833	0.000179
1897	1.8865e+02	-4.4854	-18.873610	0.000324	3.243087	1.098788	0.000130
1898	1.8875e+02	-4.4357	-18.647530	0.000568	5.675403	1.922879	0.000227
1899	1.8885e+02	-4.4004	-18.542564	0.000264	2.635009	0.892765	0.000105
1900	1.8895e+02	-4.3747	-18.401265	0.000355	3.547127	1.201799	0.000142
1901	1.8905e+02	-4.3234	-18.239779	0.000405	4.053859	1.373485	0.000162
1902	1.8915e+02	-4.2785	-18.110591	0.000324	3.243087	1.098788	0.000130
1903	1.8925e+02	-4.2400	-17.957180	0.000385	3.851166	1.304810	0.000154
1904	1.8935e+02	-4.1999	-17.803769	0.000385	3.851166	1.304810	0.000154
1905	1.8945e+02	-4.1566	-17.654395	0.000375	3.749820	1.270473	0.000150
1906	1.8955e+02	-4.1261	-17.468686	0.000466	4.661938	1.579507	0.000187
1907	1.8965e+02	-4.0699	-17.303164	0.000416	4.155206	1.407822	0.000166
1908	1.8975e+02	-4.0443	-17.186087	0.000294	2.939048	0.995776	0.000118
1909	1.8985e+02	-4.0010	-17.020564	0.000416	4.155206	1.407822	0.000166
1910	1.8995e+02	-3.9657	-16.883302	0.000345	3.445780	1.167462	0.000138
1911	1.9004e+02	-3.9240	-16.725853	0.000395	3.952513	1.339148	0.000158
1912	1.9014e+02	-3.8758	-16.568405	0.000395	3.952513	1.339148	0.000158
1913	1.9024e+02	-3.8437	-16.427105	0.000355	3.547127	1.201799	0.000142
1914	1.9034e+02	-3.8004	-16.277731	0.000375	3.749820	1.270473	0.000150
1915	1.9044e+02	-3.7555	-16.124320	0.000385	3.851166	1.304810	0.000154
1916	1.9054e+02	-3.7234	-15.966872	0.000395	3.952513	1.339148	0.000158
1917	1.9064e+02	-3.6849	-15.809424	0.000395	3.952513	1.339148	0.000158
1918	1.9074e+02	-3.6432	-15.712532	0.000243	2.432316	0.824091	0.000097
1919	1.9084e+02	-3.6047	-15.555084	0.000395	3.952513	1.339148	0.000158
1920	1.9094e+02	-3.5710	-15.381487	0.000436	4.357899	1.476496	0.000174
1921	1.9104e+02	-3.5293	-15.203853	0.000446	4.459245	1.510833	0.000179
1922	1.9114e+02	-3.4892	-15.082739	0.000304	3.040395	1.030114	0.000122
1923	1.9124e+02	-3.4411	-14.921254	0.000405	4.053859	1.373485	0.000162
1924	1.9134e+02	-3.4042	-14.759768	0.000405	4.053859	1.373485	0.000162
1925	1.9144e+02	-3.3625	-14.598283	0.000405	4.053859	1.373485	0.000162
1926	1.9154e+02	-3.3240	-14.477169	0.000304	3.040395	1.030114	0.000122
1927	1.9164e+02	-3.2887	-14.339906	0.000345	3.445780	1.167462	0.000138
1928	1.9174e+02	-3.2454	-14.174384	0.000416	4.155206	1.407822	0.000166
1929	1.9184e+02	-3.2085	-13.972527	0.000507	5.067324	1.716856	0.000203
1930	1.9194e+02	-3.1700	-13.847376	0.000314	3.141741	1.064451	0.000126
1931	1.9203e+02	-3.1234	-13.718187	0.000324	3.243087	1.098788	0.000130
1932	1.9213e+02	-3.0737	-13.528442	0.000476	4.763285	1.613845	0.000191
1933	1.9223e+02	-3.0464	-13.399254	0.000324	3.243087	1.098788	0.000130
1934	1.9233e+02	-2.9999	-13.201434	0.000497	4.965978	1.682519	0.000199
1935	1.9243e+02	-2.9662	-13.100505	0.000253	2.533662	0.858428	0.000101
1936	1.9253e+02	-2.9261	-12.947094	0.000385	3.851166	1.304810	0.000154
1937	1.9263e+02	-2.8860	-12.741200	0.000517	5.168671	1.751193	0.000207
1938	1.9273e+02	-2.8411	-12.599901	0.000355	3.547127	1.201799	0.000142
1939	1.9283e+02	-2.8106	-12.482824	0.000294	2.939048	0.995776	0.000118
1940	1.9293e+02	-2.7705	-12.297115	0.000466	4.661938	1.579507	0.000187
1941	1.9303e+02	-2.7224	-12.135630	0.000405	4.053859	1.373485	0.000162
1942	1.9313e+02	-2.6807	-11.998367	0.000345	3.445780	1.167462	0.000138
1943	1.9323e+02	-2.6486	-11.861105	0.000345	3.445780	1.167462	0.000138
1944	1.9333e+02	-2.6085	-11.683471	0.000446	4.459245	1.510833	0.000179
1945	1.9343e+02	-2.5700	-11.558320	0.000314	3.141741	1.064451	0.000126
1946	1.9353e+02	-2.5267	-11.392797	0.000416	4.155206	1.407822	0.000166
1947	1.9363e+02	-2.4930	-11.235349	0.000395	3.952513	1.339148	0.000158
1948	1.9373e+02	-2.4432	-11.106160	0.000324	3.243087	1.098788	0.000130
1949	1.9383e+02	-2.4080	-10.940638	0.000416	4.155206	1.407822	0.000166
1950	1.9393e+02	-2.3791	-10.799338	0.000355	3.547127	1.201799	0.000142
1951	1.9403e+02	-2.3310	-10.601518	0.000497	4.965978	1.682519	0.000199
1952	1.9412e+02	-2.2892	-10.472330	0.000324	3.243087	1.098788	0.000130
1953	1.9422e+02	-2.2459	-10.326993	0.000365	3.648473	1.236136	0.000146
1954	1.9432e+02	-2.2122	-10.145322	0.000456	4.560592	1.545170	0.000183
1955	1.9442e+02	-2.1769	-9.983837	0.000405	4.053859	1.373485	0.000162
1956	1.9452e+02	-2.1256	-9.862723	0.000304	3.040395	1.030114	0.000122
1957	1.9462e+02	-2.0871	-9.668940	0.000486	4.864631	1.648182	0.000195
1958	1.9472e+02	-2.0422	-9.539752	0.000324	3.243087	1.098788	0.000130
1959	1.9482e+02	-2.0101	-9.374229	0.000416	4.155206	1.407822	0.000166
1960	1.9492e+02	-1.9764	-9.192558	0.000456	4.560592	1.545170	0.000183
1961	1.9502e+02	-1.9315	-9.035110	0.000395	3.952513	1.339148	0.000158
1962	1.9512e+02	-1.8786	-8.893810	0.000355	3.547127	1.201799	0.000142
1963	1.9522e+02	-1.8497	-8.736362	0.000395	3.952513	1.339148	0.000158
1964	1.9532e+02	-1.8080	-8.542579	0.000486	4.864631	1.648182	0.000195
1965	1.9542e+02	-1.7743	-8.401279	0.000355	3.547127	1.201799	0.000142
1966	1.9552e+02	-1.7374	-8.211534	0.000476	4.763285	1.613845	0.000191
1967	1.9562e+02	-1.6925	-8.094457	0.000294	2.939048	0.995776	0.000118
1968	1.9572e+02	-1.6556	-7.912786	0.000456	4.560592	1.545170	0.000183
1969	1.9582e+02	-1.6090	-7.795709	0.000294	2.939048	0.995776	0.000118
1970	1.9592e+02	-1.5689	-7.605964	0.000476	4.763285	1.613845	0.000191
1971	1.9601e+02	-1.5240	-7.428330	0.000446	4.459245	1.510833	0.000179
1972	1.9611e+02	-1.4919	-7.299141	0.000324	3.243087	1.098788	0.000130
1973	1.9621e+02	-1.4486	-7.125545	0.000436	4.357899	1.476496	0.000174
1974	1.9631e+02	-1.4053	-6.951948	0.000436	4.357899	1.476496	0.000174
1975	1.9641e+02	-1.3716	-6.794499	0.000395	3.952513	1.339148	0.000158
1976	1.9651e+02	-1.3315	-6.616865	0.000446	4.459245	1.510833	0.000179
1977	1.9661e+02	-1.2994	-6.483640	0.000334	3.344434	1.133125	0.000134
1978	1.9671e+02	-1.2529	-6.338303	0.000365	3.648473	1.236136	0.000146
1979	1.9681e+02	-1.2080	-6.148558	0.000476	4.763285	1.613845	0.000191
1980	1.9691e+02	-1.1679	-5.987072	0.000405	4.053859	1.373485	0.000162
1981	1.9701e+02	-1.1262	-5.829624	0.000395	3.952513	1.339148	0.000158
1982	1.9711e+02	-1.0925	-5.651990	0.000446	4.459245	1.510833	0.000179
1983	1.9721e+02	-1.0540	-5.502616	0.000375	3.749820	1.270473	0.000150
1984	1.9731e+02	-1.0075	-5.333056	0.000426	4.256552	1.442159	0.000170
1985	1.9741e+02	-0.9786	-5.183682	0.000375	3.749820	1.270473	0.000150
1986	1.9751e+02	-0.9305	-5.018160	0.000416	4.155206	1.407822	0.000166
1987	1.9761e+02	-0.9000	-4.816303	0.000507	5.067324	1.716856	0.000203
1988	1.9771e+02	-0.8567	-4.638669	0.000446	4.459245	1.510833	0.000179
1989	1.9781e+02	-0.8053	-4.473146	0.000416	4.155206	1.407822	0.000166
1990	1.9791e+02	-0.7748	-4.372218	0.000253	2.533662	0.858428	0.000101
1991	1.9800e+02	-0.7396	-4.121916	0.000628	6.283482	2.128901	0.000252
1992	1.9810e+02	-0.6930	-4.004839	0.000294	2.939048	0.995776	0.000118
1993	1.9820e+02	-0.6545	-3.843353	0.000405	4.053859	1.373485	0.000162
1994	1.9830e+02	-0.6128	-3.669756	0.000436	4.357899	1.476496	0.000174
1995	1.9840e+02	-0.5791	-3.471937	0.000497	4.965978	1.682519	0.000199
1996	1.9850e+02	-0.5406	-3.330637	0.000355	3.547127	1.201799	0.000142
1997	1.9860e+02	-0.4893	-3.157040	0.000436	4.357899	1.476496	0.000174
1998	1.9870e+02	-0.4508	-2.971332	0.000466	4.661938	1.579507	0.000187
1999	1.9880e+02	-0.4107	-2.789661	0.000456	4.560592	1.545170	0.000183
2000	1.9890e+02	-0.3786	-2.624138	0.000416	4.155206	1.407822	0.000166
2001	1.9900e+02	-0.3369	-2.490913	0.000334	3.344434	1.133125	0.000134
2002	1.9910e+02	-0.2952	-2.305205	0.000466	4.661938	1.579507	0.000187
2003	1.9920e+02	-0.2551	-2.103348	0.000507	5.067324	1.716856	0.000203
2004	1.9930e+02	-0.2166	-1.986271	0.000294	2.939048	0.995776	0.000118
2005	1.9940e+02	-0.1781	-1.784414	0.000507	5.067324	1.716856	0.000203
2006	1.9950e+02	-0.1380	-1.647151	0.000345	3.445780	1.167462	0.000138
2007	1.9960e+02	-0.0930	-1.437220	0.000527	5.270017	1.785530	0.000211
2008	1.9970e+02	-0.0513	-1.255549	0.000456	4.560592	1.545170	0.000183
2009	1.9980e+02	-0.0176	-1.118287	0.000456	4.560592	1.545170	0.000138

Center data before PMax,+/-Pr and +/-Vc Calc.

PMax (uC/cm2):	6.26e+01
Pr (uC/cm2):	1.72e+01
-Pr (uC/cm2):	-1.12e+00
PLoss (uC/cm2):	1.70e+01
Vc:	4.59e+00
-Vc:	-4.06e+00
C (Max-Eff) (nF):	3.14e-01
K (Eff):	1.06e+03
Vert. (+/-Pr) Shift (uC/cm2):	8.06e+00
Horiz. Shift (+/-Vc):	2.64e-01
Offset (uC/cm2):	1.81e+01

A (Loop Area - uC/cm2·Volts):	-1.29e+00



Hysteresis Version: 5.48.1 - Radiant Technologies, Inc., 1999 - 9/12/24

