»»»»»»»»»»»»»»»»»»»»»»»»»»»»»»»»»»»» Hysteresis ««««««««««««««««««««««««««««««««««««
»»»  Executed Version:	5.48.1
»»»  Vision Version:	5.48.4 (R)
»»»  Vision Compiled:	9/18/24
»»»  Driver Version:	5.47.0
»»»  Windows Version:	Windows 8 or 8.1
»»»  Processor Information:	x86 (AMD or Intel) - 32 Processors
»»»  Tester Name:	PMF21124-494 (100V)
»»»  Tester S/N:	PMF21124-494
»»»  Internal Amp Type:	100V RevK 270k
»»»  Internal Amp S/N:	iAB2-596/K     
»»»  Execution Count:	1
»»»»»»»»»»»»»»»»»»»»»»»»»»»»»»»»»»»»»»»»»»««««««««««««««««««««««««««««««««««««««««««

Stored:	6/4/2025 - 14:7:39
Configured:	06/04/25 01:46:06 PM
Executed:	06/04/25 02:07:00 PM

»»»»»»»»»»»»»»»»»»»»»»»»»»»»»»»»»»» Sample Info ««««««««««««««««««««««««««««««««««««
Sample Name:	
Lot Name:	
Wafer Name:	
Die Row/Column:	0/0
Capacitor Number:	0
Sample Area (cm2):	1.00e-04
Sample Thickness (microns):	3.00e-01

Amplifier:	Internal

»»»»»»»»»»»»»»»»»»»»»»»»»»»»»»»»»»» Tester Info «««««««««««««««««««««««««««««««««««
Tester Name:	PMF21124-494 (100V)
Tester Serial Number:	PMF21124-494
Return Signal Amp. Level:	0.19 [Index: 3]

»»»»»»»»»»»»»»»»»»»»»»»»»»»»»»»» Hysteresis Info ««««««««««««««««««««««««««««««««««
Task Name:	Hyst-37
Volts:	20.00
Field:	666.67 (kV/cm)
DCBias:	0.00
DCField:	0.00 (kV/cm)
Hysteresis Period (ms):	2.00e+02
Preset:	Enabled
Preset Delay (ms):	1.00e+03
Profile:	Standard Bipolar

»»»»»»»»»»»»»»»»»»»»»»»»»»»»»»»»»»»»»» Data «««««««««««««««««««««««««««««««««««««««
Points:	2009

Valid Data

Point	Time (ms)	Drive Voltage	Measured Polarization (uC/cm2)	Capacitance (uF)	Normalized Capacitance (uF/cm2)	Dielectric Constant	Instantaneous Current (mA)
   1	0.0000e+00	-0.0144	-60.330956	0.000294	2.938694	0.995657	0.000118
   2	9.9500e-02	0.0112	-60.213880	0.000294	2.938694	0.995657	0.000118
   3	1.9900e-01	0.0610	-60.100840	0.000284	2.837360	0.961324	0.000114
   4	2.9850e-01	0.0979	-59.983763	0.000294	2.938694	0.995657	0.000118
   5	3.9800e-01	0.1396	-59.854574	0.000324	3.242697	1.098656	0.000130
   6	4.9750e-01	0.1845	-59.717312	0.000345	3.445366	1.167322	0.000138
   7	5.9700e-01	0.2166	-59.584086	0.000334	3.344032	1.132989	0.000134
   8	6.9650e-01	0.2599	-59.446824	0.000345	3.445366	1.167322	0.000138
   9	7.9600e-01	0.2936	-59.325710	0.000304	3.040029	1.029990	0.000122
  10	8.9550e-01	0.3417	-59.164224	0.000405	4.053372	1.373319	0.000162
  11	9.9500e-01	0.3770	-59.095593	0.000172	1.722683	0.583661	0.000069
  12	1.0945e+00	0.4123	-58.954293	0.000355	3.546700	1.201655	0.000142
  13	1.1940e+00	0.4588	-58.772622	0.000456	4.560043	1.544984	0.000183
  14	1.2935e+00	0.5085	-58.635359	0.000345	3.445366	1.167322	0.000138
  15	1.3930e+00	0.5374	-58.494060	0.000355	3.546700	1.201655	0.000142
  16	1.4925e+00	0.5759	-58.393131	0.000253	2.533357	0.858325	0.000101
  17	1.5920e+00	0.6144	-58.267980	0.000314	3.141363	1.064323	0.000126
  18	1.6915e+00	0.6497	-58.142829	0.000314	3.141363	1.064323	0.000126
  19	1.7910e+00	0.7027	-57.969232	0.000436	4.357374	1.476318	0.000174
  20	1.8905e+00	0.7492	-57.844081	0.000314	3.141363	1.064323	0.000126
  21	1.9900e+00	0.7781	-57.727004	0.000294	2.938694	0.995657	0.000118
  22	2.0895e+00	0.8262	-57.525147	0.000507	5.066715	1.716649	0.000203
  23	2.1890e+00	0.8583	-57.416144	0.000274	2.736026	0.926991	0.000110
  24	2.2885e+00	0.9016	-57.286956	0.000324	3.242697	1.098656	0.000130
  25	2.3880e+00	0.9353	-57.202176	0.000213	2.128020	0.720993	0.000085
  26	2.4875e+00	0.9770	-57.036654	0.000415	4.154706	1.407652	0.000166
  27	2.5870e+00	1.0155	-56.895354	0.000355	3.546700	1.201655	0.000142
  28	2.6865e+00	1.0588	-56.754054	0.000355	3.546700	1.201655	0.000142
  29	2.7860e+00	1.0973	-56.592569	0.000405	4.053372	1.373319	0.000162
  30	2.8855e+00	1.1374	-56.491640	0.000253	2.533357	0.858325	0.000101
  31	2.9850e+00	1.1791	-56.342266	0.000375	3.749369	1.270321	0.000150
  32	3.0845e+00	1.2128	-56.196929	0.000365	3.648034	1.235988	0.000146
  33	3.1840e+00	1.2577	-56.075815	0.000304	3.040029	1.029990	0.000122
  34	3.2835e+00	1.2994	-55.958738	0.000294	2.938694	0.995657	0.000118
  35	3.3830e+00	1.3443	-55.764956	0.000486	4.864046	1.647983	0.000195
  36	3.4825e+00	1.3780	-55.659990	0.000263	2.634692	0.892658	0.000105
  37	3.5820e+00	1.4165	-55.571173	0.000223	2.229354	0.755326	0.000089
  38	3.6815e+00	1.4518	-55.393539	0.000446	4.458709	1.510651	0.000179
  39	3.7810e+00	1.4903	-55.248203	0.000365	3.648034	1.235988	0.000146
  40	3.8805e+00	1.5417	-55.123051	0.000314	3.141363	1.064323	0.000126
  41	3.9800e+00	1.5786	-54.981752	0.000355	3.546700	1.201655	0.000142
  42	4.0795e+00	1.6042	-54.860638	0.000304	3.040029	1.029990	0.000122
  43	4.1790e+00	1.6508	-54.715301	0.000365	3.648034	1.235988	0.000146
  44	4.2785e+00	1.6941	-54.586112	0.000324	3.242697	1.098656	0.000130
  45	4.3780e+00	1.7374	-54.424627	0.000405	4.053372	1.373319	0.000162
  46	4.4775e+00	1.7711	-54.303513	0.000304	3.040029	1.029990	0.000122
  47	4.5770e+00	1.8224	-54.162213	0.000355	3.546700	1.201655	0.000142
  48	4.6765e+00	1.8545	-54.028988	0.000334	3.344032	1.132989	0.000134
  49	4.7760e+00	1.8898	-53.859428	0.000426	4.256040	1.441985	0.000170
  50	4.8755e+00	1.9251	-53.750425	0.000274	2.736026	0.926991	0.000110
  51	4.9750e+00	1.9748	-53.621237	0.000324	3.242697	1.098656	0.000130
  52	5.0745e+00	2.0229	-53.419380	0.000507	5.066715	1.716649	0.000203
  53	5.1740e+00	2.0566	-53.314415	0.000263	2.634692	0.892658	0.000105
  54	5.2735e+00	2.1015	-53.185226	0.000324	3.242697	1.098656	0.000130
  55	5.3730e+00	2.1433	-53.056038	0.000324	3.242697	1.098656	0.000130
  56	5.4725e+00	2.1737	-52.918775	0.000345	3.445366	1.167322	0.000138
  57	5.5720e+00	2.2170	-52.724993	0.000486	4.864046	1.647983	0.000195
  58	5.6715e+00	2.2572	-52.555433	0.000426	4.256040	1.441985	0.000170
  59	5.7710e+00	2.2876	-52.422208	0.000334	3.344032	1.132989	0.000134
  60	5.8705e+00	2.3277	-52.325316	0.000243	2.432023	0.823992	0.000097
  61	5.9700e+00	2.3678	-52.163831	0.000405	4.053372	1.373319	0.000162
  62	6.0695e+00	2.4080	-52.014457	0.000375	3.749369	1.270321	0.000150
  63	6.1690e+00	2.4561	-51.881231	0.000334	3.344032	1.132989	0.000134
  64	6.2685e+00	2.4978	-51.719746	0.000405	4.053372	1.373319	0.000162
  65	6.3680e+00	2.5379	-51.582483	0.000345	3.445366	1.167322	0.000138
  66	6.4675e+00	2.5828	-51.433109	0.000375	3.749369	1.270321	0.000150
  67	6.5670e+00	2.6181	-51.332181	0.000253	2.533357	0.858325	0.000101
  68	6.6665e+00	2.6486	-51.166658	0.000415	4.154706	1.407652	0.000166
  69	6.7660e+00	2.6967	-51.009210	0.000395	3.952037	1.338986	0.000158
  70	6.8655e+00	2.7288	-50.847725	0.000405	4.053372	1.373319	0.000162
  71	6.9650e+00	2.7705	-50.722573	0.000314	3.141363	1.064323	0.000126
  72	7.0645e+00	2.8186	-50.625682	0.000243	2.432023	0.823992	0.000097
  73	7.1640e+00	2.8443	-50.435937	0.000476	4.762712	1.613650	0.000191
  74	7.2635e+00	2.9021	-50.298674	0.000345	3.445366	1.167322	0.000138
  75	7.3630e+00	2.9277	-50.161412	0.000345	3.445366	1.167322	0.000138
  76	7.4625e+00	2.9791	-50.020112	0.000355	3.546700	1.201655	0.000142
  77	7.5620e+00	3.0127	-49.890923	0.000324	3.242697	1.098656	0.000130
  78	7.6615e+00	3.0513	-49.733475	0.000395	3.952037	1.338986	0.000158
  79	7.7610e+00	3.0930	-49.547767	0.000466	4.661377	1.579317	0.000187
  80	7.8605e+00	3.1299	-49.442801	0.000263	2.634692	0.892658	0.000105
  81	7.9600e+00	3.1652	-49.244982	0.000497	4.965380	1.682316	0.000199
  82	8.0595e+00	3.2197	-49.140016	0.000263	2.634692	0.892658	0.000105
  83	8.1590e+00	3.2406	-48.986605	0.000385	3.850703	1.304654	0.000154
  84	8.2585e+00	3.2855	-48.817045	0.000426	4.256040	1.441985	0.000170
  85	8.3580e+00	3.3256	-48.675746	0.000355	3.546700	1.201655	0.000142
  86	8.4575e+00	3.3673	-48.558669	0.000294	2.938694	0.995657	0.000118
  87	8.5570e+00	3.4122	-48.389109	0.000426	4.256040	1.441985	0.000170
  88	8.6565e+00	3.4523	-48.276069	0.000284	2.837360	0.961324	0.000114
  89	8.7560e+00	3.4908	-48.110547	0.000415	4.154706	1.407652	0.000166
  90	8.8555e+00	3.5197	-47.973284	0.000345	3.445366	1.167322	0.000138
  91	8.9550e+00	3.5726	-47.815836	0.000395	3.952037	1.338986	0.000158
  92	9.0545e+00	3.6015	-47.694722	0.000304	3.040029	1.029990	0.000122
  93	9.1540e+00	3.6416	-47.521125	0.000436	4.357374	1.476318	0.000174
  94	9.2535e+00	3.6913	-47.379825	0.000355	3.546700	1.201655	0.000142
  95	9.3530e+00	3.7250	-47.266785	0.000284	2.837360	0.961324	0.000114
  96	9.4525e+00	3.7716	-47.105300	0.000405	4.053372	1.373319	0.000162
  97	9.5520e+00	3.8084	-47.008409	0.000243	2.432023	0.823992	0.000097
  98	9.6515e+00	3.8470	-46.842886	0.000415	4.154706	1.407652	0.000166
  99	9.7510e+00	3.8790	-46.693512	0.000375	3.749369	1.270321	0.000150
 100	9.8505e+00	3.9143	-46.552212	0.000355	3.546700	1.201655	0.000142
 101	9.9500e+00	3.9657	-46.346318	0.000517	5.168049	1.750982	0.000207
 102	1.0050e+01	3.9977	-46.249427	0.000243	2.432023	0.823992	0.000097
 103	1.0149e+01	4.0475	-46.104090	0.000365	3.648034	1.235988	0.000146
 104	1.0248e+01	4.0796	-45.954716	0.000375	3.749369	1.270321	0.000150
 105	1.0348e+01	4.1229	-45.841676	0.000284	2.837360	0.961324	0.000114
 106	1.0447e+01	4.1662	-45.668079	0.000436	4.357374	1.476318	0.000174
 107	1.0547e+01	4.2063	-45.563114	0.000263	2.634692	0.892658	0.000105
 108	1.0646e+01	4.2480	-45.429888	0.000334	3.344032	1.132989	0.000134
 109	1.0746e+01	4.2913	-45.211883	0.000547	5.472052	1.853981	0.000219
 110	1.0845e+01	4.3218	-45.098843	0.000284	2.837360	0.961324	0.000114
 111	1.0945e+01	4.3667	-44.917172	0.000456	4.560043	1.544984	0.000183
 112	1.1044e+01	4.3972	-44.808170	0.000274	2.736026	0.926991	0.000110
 113	1.1144e+01	4.4501	-44.650721	0.000395	3.952037	1.338986	0.000158
 114	1.1243e+01	4.4774	-44.481162	0.000426	4.256040	1.441985	0.000170
 115	1.1343e+01	4.5320	-44.339862	0.000355	3.546700	1.201655	0.000142
 116	1.1443e+01	4.5673	-44.202599	0.000345	3.445366	1.167322	0.000138
 117	1.1542e+01	4.5993	-44.057262	0.000365	3.648034	1.235988	0.000146
 118	1.1642e+01	4.6426	-43.920000	0.000345	3.445366	1.167322	0.000138
 119	1.1741e+01	4.6747	-43.746403	0.000436	4.357374	1.476318	0.000174
 120	1.1841e+01	4.7261	-43.629326	0.000294	2.938694	0.995657	0.000118
 121	1.1940e+01	4.7662	-43.471878	0.000395	3.952037	1.338986	0.000158
 122	1.2040e+01	4.8079	-43.318466	0.000385	3.850703	1.304654	0.000154
 123	1.2139e+01	4.8432	-43.181204	0.000345	3.445366	1.167322	0.000138
 124	1.2239e+01	4.8865	-43.007607	0.000436	4.357374	1.476318	0.000174
 125	1.2338e+01	4.9170	-42.870344	0.000345	3.445366	1.167322	0.000138
 126	1.2438e+01	4.9603	-42.761342	0.000274	2.736026	0.926991	0.000110
 127	1.2537e+01	4.9988	-42.599856	0.000405	4.053372	1.373319	0.000162
 128	1.2636e+01	5.0453	-42.418185	0.000456	4.560043	1.544984	0.000183
 129	1.2736e+01	5.0822	-42.313220	0.000263	2.634692	0.892658	0.000105
 130	1.2835e+01	5.1287	-42.175957	0.000345	3.445366	1.167322	0.000138
 131	1.2935e+01	5.1672	-41.986212	0.000476	4.762712	1.613650	0.000191
 132	1.3034e+01	5.2073	-41.840875	0.000365	3.648034	1.235988	0.000146
 133	1.3134e+01	5.2442	-41.711686	0.000324	3.242697	1.098656	0.000130
 134	1.3233e+01	5.2763	-41.558275	0.000385	3.850703	1.304654	0.000154
 135	1.3333e+01	5.3196	-41.421013	0.000345	3.445366	1.167322	0.000138
 136	1.3432e+01	5.3597	-41.263564	0.000395	3.952037	1.338986	0.000158
 137	1.3532e+01	5.3982	-41.118227	0.000365	3.648034	1.235988	0.000146
 138	1.3632e+01	5.4416	-40.968853	0.000375	3.749369	1.270321	0.000150
 139	1.3731e+01	5.4865	-40.819479	0.000375	3.749369	1.270321	0.000150
 140	1.3831e+01	5.5234	-40.706440	0.000284	2.837360	0.961324	0.000114
 141	1.3930e+01	5.5603	-40.561103	0.000365	3.648034	1.235988	0.000146
 142	1.4030e+01	5.6084	-40.419803	0.000355	3.546700	1.201655	0.000142
 143	1.4129e+01	5.6437	-40.250243	0.000426	4.256040	1.441985	0.000170
 144	1.4229e+01	5.6886	-40.141241	0.000274	2.736026	0.926991	0.000110
 145	1.4328e+01	5.7335	-39.991867	0.000375	3.749369	1.270321	0.000150
 146	1.4428e+01	5.7592	-39.818270	0.000436	4.357374	1.476318	0.000174
 147	1.4527e+01	5.7977	-39.681007	0.000345	3.445366	1.167322	0.000138
 148	1.4627e+01	5.8394	-39.572005	0.000274	2.736026	0.926991	0.000110
 149	1.4726e+01	5.8827	-39.382259	0.000476	4.762712	1.613650	0.000191
 150	1.4825e+01	5.9164	-39.253071	0.000324	3.242697	1.098656	0.000130
 151	1.4925e+01	5.9597	-39.083511	0.000426	4.256040	1.441985	0.000170
 152	1.5024e+01	5.9934	-38.954323	0.000324	3.242697	1.098656	0.000130
 153	1.5124e+01	6.0367	-38.817060	0.000345	3.445366	1.167322	0.000138
 154	1.5223e+01	6.0816	-38.675760	0.000355	3.546700	1.201655	0.000142
 155	1.5323e+01	6.1105	-38.530423	0.000365	3.648034	1.235988	0.000146
 156	1.5422e+01	6.1667	-38.377012	0.000385	3.850703	1.304654	0.000154
 157	1.5522e+01	6.1955	-38.219564	0.000395	3.952037	1.338986	0.000158
 158	1.5621e+01	6.2421	-38.118636	0.000253	2.533357	0.858325	0.000101
 159	1.5721e+01	6.2806	-37.977336	0.000355	3.546700	1.201655	0.000142
 160	1.5820e+01	6.3207	-37.844110	0.000334	3.344032	1.132989	0.000134
 161	1.5920e+01	6.3544	-37.658402	0.000466	4.661377	1.579317	0.000187
 162	1.6020e+01	6.4057	-37.496917	0.000405	4.053372	1.373319	0.000162
 163	1.6119e+01	6.4394	-37.371766	0.000314	3.141363	1.064323	0.000126
 164	1.6218e+01	6.4843	-37.254689	0.000294	2.938694	0.995657	0.000118
 165	1.6318e+01	6.5100	-37.121463	0.000334	3.344032	1.132989	0.000134
 166	1.6418e+01	6.5613	-36.972089	0.000375	3.749369	1.270321	0.000150
 167	1.6517e+01	6.5982	-36.810604	0.000405	4.053372	1.373319	0.000162
 168	1.6616e+01	6.6351	-36.653155	0.000395	3.952037	1.338986	0.000158
 169	1.6716e+01	6.6720	-36.511856	0.000355	3.546700	1.201655	0.000142
 170	1.6816e+01	6.7185	-36.402853	0.000274	2.736026	0.926991	0.000110
 171	1.6915e+01	6.7554	-36.229256	0.000436	4.357374	1.476318	0.000174
 172	1.7015e+01	6.7955	-36.100068	0.000324	3.242697	1.098656	0.000130
 173	1.7114e+01	6.8372	-35.958768	0.000355	3.546700	1.201655	0.000142
 174	1.7213e+01	6.8709	-35.797283	0.000405	4.053372	1.373319	0.000162
 175	1.7313e+01	6.9175	-35.684243	0.000284	2.837360	0.961324	0.000114
 176	1.7413e+01	6.9543	-35.506609	0.000446	4.458709	1.510651	0.000179
 177	1.7512e+01	6.9945	-35.377420	0.000324	3.242697	1.098656	0.000130
 178	1.7611e+01	7.0346	-35.232084	0.000365	3.648034	1.235988	0.000146
 179	1.7711e+01	7.0715	-35.098858	0.000334	3.344032	1.132989	0.000134
 180	1.7811e+01	7.1132	-34.945447	0.000385	3.850703	1.304654	0.000154
 181	1.7910e+01	7.1517	-34.804147	0.000355	3.546700	1.201655	0.000142
 182	1.8009e+01	7.1838	-34.650736	0.000385	3.850703	1.304654	0.000154
 183	1.8109e+01	7.2367	-34.493288	0.000395	3.952037	1.338986	0.000158
 184	1.8209e+01	7.2720	-34.372174	0.000304	3.040029	1.029990	0.000122
 185	1.8308e+01	7.3169	-34.214725	0.000395	3.952037	1.338986	0.000158
 186	1.8407e+01	7.3570	-34.073426	0.000355	3.546700	1.201655	0.000142
 187	1.8507e+01	7.3891	-33.948274	0.000314	3.141363	1.064323	0.000126
 188	1.8607e+01	7.4308	-33.819086	0.000324	3.242697	1.098656	0.000130
 189	1.8706e+01	7.4709	-33.677786	0.000355	3.546700	1.201655	0.000142
 190	1.8805e+01	7.5158	-33.492078	0.000466	4.661377	1.579317	0.000187
 191	1.8905e+01	7.5495	-33.375001	0.000294	2.938694	0.995657	0.000118
 192	1.9005e+01	7.5928	-33.245813	0.000324	3.242697	1.098656	0.000130
 193	1.9104e+01	7.6297	-33.084327	0.000405	4.053372	1.373319	0.000162
 194	1.9203e+01	7.6698	-32.959176	0.000314	3.141363	1.064323	0.000126
 195	1.9303e+01	7.7132	-32.821914	0.000345	3.445366	1.167322	0.000138
 196	1.9402e+01	7.7517	-32.692725	0.000324	3.242697	1.098656	0.000130
 197	1.9502e+01	7.7998	-32.535277	0.000395	3.952037	1.338986	0.000158
 198	1.9602e+01	7.8303	-32.377829	0.000395	3.952037	1.338986	0.000158
 199	1.9701e+01	7.8704	-32.276900	0.000253	2.533357	0.858325	0.000101
 200	1.9800e+01	7.9137	-32.095229	0.000456	4.560043	1.544984	0.000183
 201	1.9900e+01	7.9490	-31.962004	0.000334	3.344032	1.132989	0.000134
 202	2.0000e+01	7.9907	-31.832815	0.000324	3.242697	1.098656	0.000130
 203	2.0099e+01	8.0308	-31.715738	0.000294	2.938694	0.995657	0.000118
 204	2.0198e+01	8.0613	-31.534067	0.000456	4.560043	1.544984	0.000183
 205	2.0298e+01	8.1142	-31.416990	0.000294	2.938694	0.995657	0.000118
 206	2.0398e+01	8.1431	-31.279728	0.000345	3.445366	1.167322	0.000138
 207	2.0497e+01	8.1928	-31.138428	0.000355	3.546700	1.201655	0.000142
 208	2.0596e+01	8.2345	-31.005202	0.000334	3.344032	1.132989	0.000134
 209	2.0696e+01	8.2730	-30.892163	0.000284	2.837360	0.961324	0.000114
 210	2.0796e+01	8.3163	-30.718566	0.000436	4.357374	1.476318	0.000174
 211	2.0895e+01	8.3532	-30.581303	0.000345	3.445366	1.167322	0.000138
 212	2.0994e+01	8.3901	-30.427892	0.000385	3.850703	1.304654	0.000154
 213	2.1094e+01	8.4254	-30.270444	0.000395	3.952037	1.338986	0.000158
 214	2.1194e+01	8.4736	-30.181627	0.000223	2.229354	0.755326	0.000089
 215	2.1293e+01	8.5008	-29.991881	0.000476	4.762712	1.613650	0.000191
 216	2.1392e+01	8.5554	-29.903064	0.000223	2.229354	0.755326	0.000089
 217	2.1492e+01	8.5891	-29.741579	0.000405	4.053372	1.373319	0.000162
 218	2.1591e+01	8.6260	-29.596242	0.000365	3.648034	1.235988	0.000146
 219	2.1691e+01	8.6693	-29.458979	0.000345	3.445366	1.167322	0.000138
 220	2.1791e+01	8.7030	-29.297494	0.000405	4.053372	1.373319	0.000162
 221	2.1890e+01	8.7479	-29.144083	0.000385	3.850703	1.304654	0.000154
 222	2.1989e+01	8.7848	-29.031043	0.000284	2.837360	0.961324	0.000114
 223	2.2089e+01	8.8297	-28.877632	0.000385	3.850703	1.304654	0.000154
 224	2.2189e+01	8.8650	-28.740369	0.000345	3.445366	1.167322	0.000138
 225	2.2288e+01	8.9051	-28.590995	0.000375	3.749369	1.270321	0.000150
 226	2.2387e+01	8.9484	-28.465844	0.000314	3.141363	1.064323	0.000126
 227	2.2487e+01	8.9901	-28.368953	0.000243	2.432023	0.823992	0.000097
 228	2.2587e+01	9.0318	-28.167096	0.000507	5.066715	1.716649	0.000203
 229	2.2686e+01	9.0703	-28.013685	0.000385	3.850703	1.304654	0.000154
 230	2.2785e+01	9.1104	-27.896608	0.000294	2.938694	0.995657	0.000118
 231	2.2885e+01	9.1473	-27.731085	0.000415	4.154706	1.407652	0.000166
 232	2.2985e+01	9.1826	-27.569600	0.000405	4.053372	1.373319	0.000162
 233	2.3084e+01	9.2275	-27.444449	0.000314	3.141363	1.064323	0.000126
 234	2.3183e+01	9.2757	-27.295075	0.000375	3.749369	1.270321	0.000150
 235	2.3283e+01	9.3142	-27.182035	0.000284	2.837360	0.961324	0.000114
 236	2.3383e+01	9.3463	-27.008438	0.000436	4.357374	1.476318	0.000174
 237	2.3482e+01	9.3848	-26.895398	0.000284	2.837360	0.961324	0.000114
 238	2.3581e+01	9.4297	-26.729876	0.000415	4.154706	1.407652	0.000166
 239	2.3681e+01	9.4666	-26.632984	0.000243	2.432023	0.823992	0.000097
 240	2.3780e+01	9.5147	-26.471499	0.000405	4.053372	1.373319	0.000162
 241	2.3880e+01	9.5516	-26.314051	0.000395	3.952037	1.338986	0.000158
 242	2.3980e+01	9.5869	-26.180825	0.000334	3.344032	1.132989	0.000134
 243	2.4079e+01	9.6238	-26.059711	0.000304	3.040029	1.029990	0.000122
 244	2.4178e+01	9.6623	-25.914374	0.000365	3.648034	1.235988	0.000146
 245	2.4278e+01	9.7056	-25.744815	0.000426	4.256040	1.441985	0.000170
 246	2.4378e+01	9.7521	-25.599478	0.000365	3.648034	1.235988	0.000146
 247	2.4477e+01	9.7826	-25.478364	0.000304	3.040029	1.029990	0.000122
 248	2.4576e+01	9.8163	-25.292655	0.000466	4.661377	1.579317	0.000187
 249	2.4676e+01	9.8676	-25.187690	0.000263	2.634692	0.892658	0.000105
 250	2.4776e+01	9.9045	-25.001982	0.000466	4.661377	1.579317	0.000187
 251	2.4875e+01	9.9382	-24.856645	0.000365	3.648034	1.235988	0.000146
 252	2.4974e+01	9.9735	-24.755716	0.000253	2.533357	0.858325	0.000101
 253	2.5074e+01	10.0265	-24.606342	0.000375	3.749369	1.270321	0.000150
 254	2.5174e+01	10.0585	-24.461005	0.000365	3.648034	1.235988	0.000146
 255	2.5273e+01	10.1051	-24.311631	0.000375	3.749369	1.270321	0.000150
 256	2.5372e+01	10.1420	-24.170332	0.000355	3.546700	1.201655	0.000142
 257	2.5472e+01	10.1805	-24.037106	0.000334	3.344032	1.132989	0.000134
 258	2.5572e+01	10.2222	-23.875621	0.000405	4.053372	1.373319	0.000162
 259	2.5671e+01	10.2543	-23.714135	0.000405	4.053372	1.373319	0.000162
 260	2.5770e+01	10.3056	-23.564761	0.000375	3.749369	1.270321	0.000150
 261	2.5870e+01	10.3425	-23.431536	0.000334	3.344032	1.132989	0.000134
 262	2.5970e+01	10.3794	-23.286199	0.000365	3.648034	1.235988	0.000146
 263	2.6069e+01	10.4227	-23.152973	0.000334	3.344032	1.132989	0.000134
 264	2.6169e+01	10.4644	-22.983414	0.000426	4.256040	1.441985	0.000170
 265	2.6268e+01	10.5029	-22.870374	0.000284	2.837360	0.961324	0.000114
 266	2.6367e+01	10.5414	-22.700814	0.000426	4.256040	1.441985	0.000170
 267	2.6467e+01	10.5815	-22.547403	0.000385	3.850703	1.304654	0.000154
 268	2.6567e+01	10.6216	-22.438400	0.000274	2.736026	0.926991	0.000110
 269	2.6666e+01	10.6617	-22.280952	0.000395	3.952037	1.338986	0.000158
 270	2.6765e+01	10.7002	-22.107355	0.000436	4.357374	1.476318	0.000174
 271	2.6865e+01	10.7339	-21.978167	0.000324	3.242697	1.098656	0.000130
 272	2.6965e+01	10.7853	-21.836867	0.000355	3.546700	1.201655	0.000142
 273	2.7064e+01	10.8141	-21.695567	0.000355	3.546700	1.201655	0.000142
 274	2.7163e+01	10.8607	-21.534082	0.000405	4.053372	1.373319	0.000162
 275	2.7263e+01	10.8992	-21.348374	0.000466	4.661377	1.579317	0.000187
 276	2.7363e+01	10.9393	-21.203037	0.000365	3.648034	1.235988	0.000146
 277	2.7462e+01	10.9810	-21.057700	0.000365	3.648034	1.235988	0.000146
 278	2.7561e+01	11.0243	-20.916400	0.000355	3.546700	1.201655	0.000142
 279	2.7661e+01	11.0596	-20.750878	0.000415	4.154706	1.407652	0.000166
 280	2.7761e+01	11.0981	-20.613615	0.000345	3.445366	1.167322	0.000138
 281	2.7860e+01	11.1446	-20.472315	0.000355	3.546700	1.201655	0.000142
 282	2.7959e+01	11.1815	-20.310830	0.000405	4.053372	1.373319	0.000162
 283	2.8059e+01	11.2152	-20.169530	0.000355	3.546700	1.201655	0.000142
 284	2.8159e+01	11.2537	-19.979785	0.000476	4.762712	1.613650	0.000191
 285	2.8258e+01	11.3002	-19.850596	0.000324	3.242697	1.098656	0.000130
 286	2.8358e+01	11.3499	-19.681037	0.000426	4.256040	1.441985	0.000170
 287	2.8457e+01	11.3724	-19.511477	0.000426	4.256040	1.441985	0.000170
 288	2.8556e+01	11.4173	-19.370177	0.000355	3.546700	1.201655	0.000142
 289	2.8656e+01	11.4622	-19.200618	0.000426	4.256040	1.441985	0.000170
 290	2.8756e+01	11.4991	-19.067392	0.000334	3.344032	1.132989	0.000134
 291	2.8855e+01	11.5392	-18.885721	0.000456	4.560043	1.544984	0.000183
 292	2.8954e+01	11.5858	-18.728273	0.000395	3.952037	1.338986	0.000158
 293	2.9054e+01	11.6227	-18.558713	0.000426	4.256040	1.441985	0.000170
 294	2.9154e+01	11.6564	-18.429525	0.000324	3.242697	1.098656	0.000130
 295	2.9253e+01	11.6965	-18.243816	0.000466	4.661377	1.579317	0.000187
 296	2.9352e+01	11.7350	-18.102517	0.000355	3.546700	1.201655	0.000142
 297	2.9452e+01	11.7815	-17.916808	0.000466	4.661377	1.579317	0.000187
 298	2.9552e+01	11.8168	-17.795694	0.000304	3.040029	1.029990	0.000122
 299	2.9651e+01	11.8489	-17.601912	0.000486	4.864046	1.647983	0.000195
 300	2.9750e+01	11.8922	-17.460612	0.000355	3.546700	1.201655	0.000142
 301	2.9850e+01	11.9307	-17.258755	0.000507	5.066715	1.716649	0.000203
 302	2.9950e+01	11.9740	-17.097270	0.000405	4.053372	1.373319	0.000162
 303	3.0049e+01	12.0109	-16.919636	0.000446	4.458709	1.510651	0.000179
 304	3.0148e+01	12.0526	-16.746039	0.000436	4.357374	1.476318	0.000174
 305	3.0248e+01	12.1039	-16.645111	0.000253	2.533357	0.858325	0.000101
 306	3.0348e+01	12.1376	-16.427105	0.000547	5.472052	1.853981	0.000219
 307	3.0447e+01	12.1761	-16.269657	0.000395	3.952037	1.338986	0.000158
 308	3.0547e+01	12.2178	-16.051652	0.000547	5.472052	1.853981	0.000219
 309	3.0646e+01	12.2579	-15.894203	0.000395	3.952037	1.338986	0.000158
 310	3.0745e+01	12.2884	-15.728681	0.000415	4.154706	1.407652	0.000166
 311	3.0845e+01	12.3446	-15.555084	0.000436	4.357374	1.476318	0.000174
 312	3.0945e+01	12.3783	-15.397636	0.000395	3.952037	1.338986	0.000158
 313	3.1044e+01	12.4136	-15.191742	0.000517	5.168049	1.750982	0.000207
 314	3.1143e+01	12.4633	-15.042368	0.000375	3.749369	1.270321	0.000150
 315	3.1243e+01	12.4922	-14.860697	0.000456	4.560043	1.544984	0.000183
 316	3.1343e+01	12.5451	-14.666914	0.000486	4.864046	1.647983	0.000195
 317	3.1442e+01	12.5852	-14.477169	0.000476	4.762712	1.613650	0.000191
 318	3.1541e+01	12.6157	-14.303572	0.000436	4.357374	1.476318	0.000174
 319	3.1641e+01	12.6526	-14.146124	0.000395	3.952037	1.338986	0.000158
 320	3.1741e+01	12.6927	-13.972527	0.000436	4.357374	1.476318	0.000174
 321	3.1840e+01	12.7344	-13.758559	0.000537	5.370717	1.819648	0.000215
 322	3.1939e+01	12.7745	-13.597073	0.000405	4.053372	1.373319	0.000162
 323	3.2039e+01	12.8066	-13.431551	0.000415	4.154706	1.407652	0.000166
 324	3.2139e+01	12.8627	-13.245842	0.000466	4.661377	1.579317	0.000187
 325	3.2238e+01	12.8900	-13.076283	0.000426	4.256040	1.441985	0.000170
 326	3.2337e+01	12.9349	-12.882500	0.000486	4.864046	1.647983	0.000195
 327	3.2437e+01	12.9766	-12.696792	0.000466	4.661377	1.579317	0.000187
 328	3.2536e+01	13.0055	-12.486861	0.000527	5.269383	1.785315	0.000211
 329	3.2636e+01	13.0456	-12.337487	0.000375	3.749369	1.270321	0.000150
 330	3.2736e+01	13.0970	-12.115444	0.000557	5.573386	1.888314	0.000223
 331	3.2835e+01	13.1274	-11.974145	0.000355	3.546700	1.201655	0.000142
 332	3.2934e+01	13.1740	-11.772288	0.000507	5.066715	1.716649	0.000203
 333	3.3034e+01	13.2109	-11.574468	0.000497	4.965380	1.682316	0.000199
 334	3.3133e+01	13.2542	-11.412983	0.000405	4.053372	1.373319	0.000162
 335	3.3233e+01	13.2895	-11.178829	0.000588	5.877389	1.991313	0.000235
 336	3.3333e+01	13.3328	-10.993121	0.000466	4.661377	1.579317	0.000187
 337	3.3432e+01	13.3697	-10.843747	0.000375	3.749369	1.270321	0.000150
 338	3.3532e+01	13.4114	-10.629778	0.000537	5.370717	1.819648	0.000215
 339	3.3631e+01	13.4627	-10.431959	0.000497	4.965380	1.682316	0.000199
 340	3.3730e+01	13.4900	-10.250288	0.000456	4.560043	1.544984	0.000183
 341	3.3830e+01	13.5285	-10.064579	0.000466	4.661377	1.579317	0.000187
 342	3.3929e+01	13.5814	-9.899057	0.000415	4.154706	1.407652	0.000166
 343	3.4029e+01	13.6071	-9.681051	0.000547	5.472052	1.853981	0.000219
 344	3.4129e+01	13.6568	-9.463046	0.000547	5.472052	1.853981	0.000219
 345	3.4228e+01	13.6921	-9.281375	0.000456	4.560043	1.544984	0.000183
 346	3.4328e+01	13.7370	-9.111815	0.000426	4.256040	1.441985	0.000170
 347	3.4427e+01	13.7723	-8.881699	0.000578	5.776055	1.956980	0.000231
 348	3.4526e+01	13.8092	-8.679842	0.000507	5.066715	1.716649	0.000203
 349	3.4626e+01	13.8542	-8.482022	0.000497	4.965380	1.682316	0.000199
 350	3.4725e+01	13.8830	-8.324574	0.000395	3.952037	1.338986	0.000158
 351	3.4825e+01	13.9247	-8.102531	0.000557	5.573386	1.888314	0.000223
 352	3.4925e+01	13.9632	-7.892600	0.000527	5.269383	1.785315	0.000211
 353	3.5024e+01	14.0017	-7.694781	0.000497	4.965380	1.682316	0.000199
 354	3.5123e+01	14.0483	-7.480813	0.000537	5.370717	1.819648	0.000215
 355	3.5223e+01	14.0820	-7.295104	0.000466	4.661377	1.579317	0.000187
 356	3.5322e+01	14.1301	-7.081136	0.000537	5.370717	1.819648	0.000215
 357	3.5422e+01	14.1638	-6.842945	0.000598	5.978723	2.025646	0.000239
 358	3.5522e+01	14.2119	-6.661274	0.000456	4.560043	1.544984	0.000183
 359	3.5621e+01	14.2456	-6.455380	0.000517	5.168049	1.750982	0.000207
 360	3.5721e+01	14.2841	-6.253523	0.000507	5.066715	1.716649	0.000203
 361	3.5820e+01	14.3290	-6.051666	0.000507	5.066715	1.716649	0.000203
 362	3.5919e+01	14.3659	-5.845773	0.000517	5.168049	1.750982	0.000207
 363	3.6019e+01	14.4060	-5.672176	0.000436	4.357374	1.476318	0.000174
 364	3.6118e+01	14.4477	-5.425910	0.000618	6.181392	2.094312	0.000248
 365	3.6218e+01	14.4894	-5.248276	0.000446	4.458709	1.510651	0.000179
 366	3.6318e+01	14.5215	-5.006048	0.000608	6.080057	2.059979	0.000243
 367	3.6417e+01	14.5632	-4.800154	0.000517	5.168049	1.750982	0.000207
 368	3.6517e+01	14.6081	-4.582149	0.000547	5.472052	1.853981	0.000219
 369	3.6616e+01	14.6434	-4.416626	0.000415	4.154706	1.407652	0.000166
 370	3.6715e+01	14.6868	-4.166324	0.000628	6.282726	2.128645	0.000252
 371	3.6815e+01	14.7188	-3.980616	0.000466	4.661377	1.579317	0.000187
 372	3.6914e+01	14.7638	-3.786833	0.000486	4.864046	1.647983	0.000195
 373	3.7014e+01	14.8039	-3.524419	0.000659	6.586729	2.231644	0.000264
 374	3.7114e+01	14.8392	-3.346786	0.000446	4.458709	1.510651	0.000179
 375	3.7213e+01	14.8825	-3.140892	0.000517	5.168049	1.750982	0.000207
 376	3.7313e+01	14.9242	-2.882515	0.000649	6.485395	2.197311	0.000260
 377	3.7412e+01	14.9643	-2.688732	0.000486	4.864046	1.647983	0.000195
 378	3.7511e+01	14.9996	-2.466690	0.000557	5.573386	1.888314	0.000223
 379	3.7611e+01	15.0445	-2.264833	0.000507	5.066715	1.716649	0.000203
 380	3.7711e+01	15.0814	-2.050865	0.000537	5.370717	1.819648	0.000215
 381	3.7810e+01	15.1215	-1.804600	0.000618	6.181392	2.094312	0.000248
 382	3.7910e+01	15.1664	-1.598706	0.000517	5.168049	1.750982	0.000207
 383	3.8009e+01	15.2033	-1.400886	0.000497	4.965380	1.682316	0.000199
 384	3.8108e+01	15.2434	-1.170769	0.000578	5.776055	1.956980	0.000231
 385	3.8208e+01	15.2915	-0.912393	0.000649	6.485395	2.197311	0.000260
 386	3.8307e+01	15.3236	-0.694387	0.000547	5.472052	1.853981	0.000219
 387	3.8407e+01	15.3589	-0.436011	0.000649	6.485395	2.197311	0.000260
 388	3.8507e+01	15.3958	-0.226080	0.000527	5.269383	1.785315	0.000211
 389	3.8606e+01	15.4423	-0.008074	0.000547	5.472052	1.853981	0.000219
 390	3.8706e+01	15.4792	0.254340	0.000659	6.586729	2.231644	0.000264
 391	3.8805e+01	15.5290	0.468308	0.000537	5.370717	1.819648	0.000215
 392	3.8904e+01	15.5498	0.706499	0.000598	5.978723	2.025646	0.000239
 393	3.9004e+01	15.5996	0.964875	0.000649	6.485395	2.197311	0.000260
 394	3.9103e+01	15.6316	1.235364	0.000679	6.789397	2.300310	0.000272
 395	3.9203e+01	15.6862	1.433183	0.000497	4.965380	1.682316	0.000199
 396	3.9303e+01	15.7279	1.651189	0.000547	5.472052	1.853981	0.000219
 397	3.9402e+01	15.7552	1.913602	0.000659	6.586729	2.231644	0.000264
 398	3.9502e+01	15.8001	2.155830	0.000608	6.080057	2.059979	0.000243
 399	3.9601e+01	15.8370	2.381910	0.000567	5.674720	1.922647	0.000227
 400	3.9700e+01	15.8755	2.640287	0.000649	6.485395	2.197311	0.000260
 401	3.9800e+01	15.9204	2.886552	0.000618	6.181392	2.094312	0.000248
 402	3.9900e+01	15.9653	3.144929	0.000649	6.485395	2.197311	0.000260
 403	3.9999e+01	16.0038	3.350823	0.000517	5.168049	1.750982	0.000207
 404	4.0099e+01	16.0407	3.609199	0.000649	6.485395	2.197311	0.000260
 405	4.0198e+01	16.0824	3.879687	0.000679	6.789397	2.300310	0.000272
 406	4.0297e+01	16.1129	4.138064	0.000649	6.485395	2.197311	0.000260
 407	4.0397e+01	16.1546	4.396441	0.000649	6.485395	2.197311	0.000260
 408	4.0496e+01	16.2028	4.630595	0.000588	5.877389	1.991313	0.000235
 409	4.0596e+01	16.2348	4.888971	0.000649	6.485395	2.197311	0.000260
 410	4.0696e+01	16.2765	5.106977	0.000547	5.472052	1.853981	0.000219
 411	4.0795e+01	16.3183	5.389576	0.000709	7.093400	2.403309	0.000284
 412	4.0895e+01	16.3568	5.635841	0.000618	6.181392	2.094312	0.000248
 413	4.0994e+01	16.4017	5.958812	0.000811	8.106743	2.746639	0.000325
 414	4.1093e+01	16.4402	6.192966	0.000588	5.877389	1.991313	0.000235
 415	4.1193e+01	16.4819	6.443269	0.000628	6.282726	2.128645	0.000252
 416	4.1292e+01	16.5188	6.721831	0.000699	6.992066	2.368976	0.000280
 417	4.1392e+01	16.5525	6.955985	0.000588	5.877389	1.991313	0.000235
 418	4.1492e+01	16.6070	7.254733	0.000750	7.498737	2.540641	0.000300
 419	4.1591e+01	16.6439	7.525221	0.000679	6.789397	2.300310	0.000272
 420	4.1691e+01	16.6808	7.799746	0.000689	6.890732	2.334643	0.000276
 421	4.1790e+01	16.7193	8.098494	0.000750	7.498737	2.540641	0.000300
 422	4.1889e+01	16.7594	8.320537	0.000557	5.573386	1.888314	0.000223
 423	4.1989e+01	16.7947	8.582951	0.000659	6.586729	2.231644	0.000264
 424	4.2089e+01	16.8396	8.853439	0.000679	6.789397	2.300310	0.000272
 425	4.2188e+01	16.8797	9.099704	0.000618	6.181392	2.094312	0.000248
 426	4.2288e+01	16.9214	9.366155	0.000669	6.688063	2.265977	0.000268
 427	4.2387e+01	16.9519	9.652792	0.000719	7.194735	2.437642	0.000288
 428	4.2486e+01	17.0017	9.963651	0.000780	7.802740	2.643640	0.000312
 429	4.2586e+01	17.0257	10.193768	0.000578	5.776055	1.956980	0.000231
 430	4.2685e+01	17.0690	10.488479	0.000740	7.397403	2.506308	0.000296
 431	4.2785e+01	17.1107	10.779152	0.000730	7.296069	2.471975	0.000292
 432	4.2885e+01	17.1621	11.029455	0.000628	6.282726	2.128645	0.000252
 433	4.2984e+01	17.1942	11.320129	0.000730	7.296069	2.471975	0.000292
 434	4.3084e+01	17.2343	11.626951	0.000770	7.701406	2.609307	0.000308
 435	4.3183e+01	17.2776	11.897439	0.000679	6.789397	2.300310	0.000272
 436	4.3282e+01	17.3241	12.184076	0.000719	7.194735	2.437642	0.000288
 437	4.3382e+01	17.3530	12.462638	0.000699	6.992066	2.368976	0.000280
 438	4.3481e+01	17.3915	12.725052	0.000659	6.586729	2.231644	0.000264
 439	4.3581e+01	17.4364	13.043986	0.000801	8.005409	2.712306	0.000321
 440	4.3681e+01	17.4910	13.318511	0.000689	6.890732	2.334643	0.000276
 441	4.3780e+01	17.5230	13.645519	0.000821	8.208078	2.780972	0.000329
 442	4.3880e+01	17.5519	13.907933	0.000659	6.586729	2.231644	0.000264
 443	4.3979e+01	17.5936	14.206681	0.000750	7.498737	2.540641	0.000300
 444	4.4078e+01	17.6321	14.513503	0.000770	7.701406	2.609307	0.000308
 445	4.4178e+01	17.6819	14.812251	0.000750	7.498737	2.540641	0.000300
 446	4.4278e+01	17.7123	15.131185	0.000801	8.005409	2.712306	0.000321
 447	4.4377e+01	17.7444	15.433970	0.000760	7.600072	2.574974	0.000304
 448	4.4477e+01	17.7942	15.752904	0.000801	8.005409	2.712306	0.000321
 449	4.4576e+01	17.8375	16.104134	0.000882	8.816083	2.986970	0.000353
 450	4.4675e+01	17.8776	16.370585	0.000669	6.688063	2.265977	0.000268
 451	4.4775e+01	17.9177	16.778336	0.001023	10.234763	3.467632	0.000410
 452	4.4874e+01	17.9562	17.117456	0.000851	8.512080	2.883971	0.000341
 453	4.4974e+01	17.9979	17.416204	0.000750	7.498737	2.540641	0.000300
 454	4.5074e+01	18.0284	17.747249	0.000831	8.309412	2.815305	0.000333
 455	4.5173e+01	18.0733	18.094442	0.000871	8.714749	2.952637	0.000349
 456	4.5273e+01	18.1102	18.465859	0.000932	9.322755	3.158635	0.000373
 457	4.5372e+01	18.1551	18.776718	0.000780	7.802740	2.643640	0.000312
 458	4.5471e+01	18.1904	19.168320	0.000983	9.829426	3.330300	0.000394
 459	4.5571e+01	18.2305	19.515514	0.000871	8.714749	2.952637	0.000349
 460	4.5670e+01	18.2610	19.862708	0.000871	8.714749	2.952637	0.000349
 461	4.5770e+01	18.3139	20.209902	0.000871	8.714749	2.952637	0.000349
 462	4.5870e+01	18.3492	20.565169	0.000892	8.917418	3.021303	0.000357
 463	4.5969e+01	18.3925	20.904289	0.000851	8.512080	2.883971	0.000341
 464	4.6069e+01	18.4342	21.259557	0.000892	8.917418	3.021303	0.000357
 465	4.6168e+01	18.4727	21.586565	0.000821	8.208078	2.780972	0.000329
 466	4.6267e+01	18.5096	21.982204	0.000993	9.930760	3.364633	0.000398
 467	4.6367e+01	18.5513	22.365732	0.000963	9.626758	3.261634	0.000385
 468	4.6467e+01	18.5947	22.696777	0.000831	8.309412	2.815305	0.000333
 469	4.6566e+01	18.6235	23.060119	0.000912	9.120086	3.089969	0.000365
 470	4.6666e+01	18.6685	23.447684	0.000973	9.728092	3.295967	0.000390
 471	4.6765e+01	18.7086	23.790841	0.000861	8.613415	2.918304	0.000345
 472	4.6864e+01	18.7455	24.150146	0.000902	9.018752	3.055636	0.000361
 473	4.6964e+01	18.7824	24.505414	0.000892	8.917418	3.021303	0.000357
 474	4.7063e+01	18.8273	24.880868	0.000942	9.424089	3.192968	0.000377
 475	4.7163e+01	18.8706	25.268433	0.000973	9.728092	3.295967	0.000390
 476	4.7263e+01	18.9235	25.643886	0.000942	9.424089	3.192968	0.000377
 477	4.7362e+01	18.9492	26.015303	0.000932	9.322755	3.158635	0.000373
 478	4.7462e+01	18.9925	26.414979	0.001003	10.032095	3.398966	0.000402
 479	4.7561e+01	19.0374	26.770247	0.000892	8.917418	3.021303	0.000357
 480	4.7660e+01	19.0631	27.157812	0.000973	9.728092	3.295967	0.000390
 481	4.7760e+01	19.1080	27.513080	0.000892	8.917418	3.021303	0.000357
 482	4.7859e+01	19.1545	27.936979	0.001064	10.640100	3.604964	0.000426
 483	4.7959e+01	19.1914	28.389139	0.001135	11.349441	3.845295	0.000454
 484	4.8059e+01	19.2283	28.740369	0.000882	8.816083	2.986970	0.000353
 485	4.8158e+01	19.2668	29.160231	0.001054	10.538766	3.570631	0.000422
 486	4.8258e+01	19.3118	29.592205	0.001084	10.842769	3.673630	0.000434
 487	4.8357e+01	19.3535	30.064550	0.001186	11.856112	4.016959	0.000475
 488	4.8456e+01	19.3823	30.444041	0.000953	9.525423	3.227301	0.000381
 489	4.8556e+01	19.4224	30.851791	0.001023	10.234763	3.467632	0.000410
 490	4.8656e+01	19.4642	31.263579	0.001034	10.336098	3.501965	0.000414
 491	4.8755e+01	19.5043	31.707664	0.001115	11.146772	3.776629	0.000446
 492	4.8855e+01	19.5492	32.159823	0.001135	11.349441	3.845295	0.000454
 493	4.8954e+01	19.5861	32.575648	0.001044	10.437432	3.536298	0.000418
 494	4.9053e+01	19.6262	33.003585	0.001074	10.741435	3.639297	0.000430
 495	4.9153e+01	19.6615	33.500152	0.001246	12.464118	4.222957	0.000499
 496	4.9252e+01	19.7016	33.936163	0.001094	10.944103	3.707963	0.000438
 497	4.9352e+01	19.7385	34.360062	0.001064	10.640100	3.604964	0.000426
 498	4.9452e+01	19.7706	34.783962	0.001064	10.640100	3.604964	0.000426
 499	4.9551e+01	19.8219	35.252269	0.001175	11.754778	3.982626	0.000471
 500	4.9651e+01	19.8508	35.692317	0.001105	11.045438	3.742296	0.000442
 501	4.9750e+01	19.9117	36.176773	0.001216	12.160115	4.119958	0.000487
 502	4.9849e+01	19.9374	36.624895	0.001125	11.248106	3.810962	0.000450
 503	4.9949e+01	19.9823	37.109352	0.001216	12.160115	4.119958	0.000487
 504	5.0048e+01	19.9486	37.371766	-0.000659	-6.586729	-2.231644	0.000264
 505	5.0148e+01	19.9101	37.662439	-0.000730	-7.296069	-2.471975	0.000292
 506	5.0248e+01	19.8620	37.932927	-0.000679	-6.789397	-2.300310	0.000272
 507	5.0347e+01	19.8235	38.231675	-0.000750	-7.498737	-2.540641	0.000300
 508	5.0447e+01	19.7994	38.510238	-0.000699	-6.992066	-2.368976	0.000280
 509	5.0546e+01	19.7401	38.821097	-0.000780	-7.802740	-2.643640	0.000312
 510	5.0645e+01	19.7048	39.099660	-0.000699	-6.992066	-2.368976	0.000280
 511	5.0745e+01	19.6679	39.374185	-0.000689	-6.890732	-2.334643	0.000276
 512	5.0844e+01	19.6214	39.636599	-0.000659	-6.586729	-2.231644	0.000264
 513	5.0944e+01	19.5845	39.987829	-0.000882	-8.816083	-2.986970	0.000353
 514	5.1044e+01	19.5380	40.221983	-0.000588	-5.877389	-1.991313	0.000235
 515	5.1143e+01	19.4962	40.520731	-0.000750	-7.498737	-2.540641	0.000300
 516	5.1242e+01	19.4754	40.807368	-0.000719	-7.194735	-2.437642	0.000288
 517	5.1342e+01	19.4305	41.138413	-0.000831	-8.309412	-2.815305	0.000333
 518	5.1441e+01	19.3807	41.400827	-0.000659	-6.586729	-2.231644	0.000264
 519	5.1541e+01	19.3535	41.719761	-0.000801	-8.005409	-2.712306	0.000321
 520	5.1641e+01	19.3005	42.018509	-0.000750	-7.498737	-2.540641	0.000300
 521	5.1740e+01	19.2716	42.280923	-0.000659	-6.586729	-2.231644	0.000264
 522	5.1840e+01	19.2155	42.543336	-0.000659	-6.586729	-2.231644	0.000264
 523	5.1939e+01	19.1882	42.874382	-0.000831	-8.309412	-2.815305	0.000333
 524	5.2038e+01	19.1513	43.116610	-0.000608	-6.080057	-2.059979	0.000243
 525	5.2138e+01	19.1016	43.431506	-0.000790	-7.904075	-2.677973	0.000316
 526	5.2237e+01	19.0711	43.697957	-0.000669	-6.688063	-2.265977	0.000268
 527	5.2337e+01	19.0262	44.000742	-0.000760	-7.600072	-2.574974	0.000304
 528	5.2437e+01	18.9893	44.267193	-0.000669	-6.688063	-2.265977	0.000268
 529	5.2536e+01	18.9540	44.545756	-0.000699	-6.992066	-2.368976	0.000280
 530	5.2636e+01	18.9139	44.800095	-0.000638	-6.384060	-2.162978	0.000256
 531	5.2735e+01	18.8786	45.018101	-0.000547	-5.472052	-1.853981	0.000219
 532	5.2834e+01	18.8321	45.316849	-0.000750	-7.498737	-2.540641	0.000300
 533	5.2934e+01	18.7952	45.538891	-0.000557	-5.573386	-1.888314	0.000223
 534	5.3033e+01	18.7503	45.797268	-0.000649	-6.485395	-2.197311	0.000260
 535	5.3133e+01	18.7086	45.995087	-0.000497	-4.965380	-1.682316	0.000199
 536	5.3233e+01	18.6797	46.277687	-0.000709	-7.093400	-2.403309	0.000284
 537	5.3332e+01	18.6364	46.511841	-0.000588	-5.877389	-1.991313	0.000235
 538	5.3431e+01	18.5850	46.741958	-0.000578	-5.776055	-1.956980	0.000231
 539	5.3531e+01	18.5385	47.004371	-0.000659	-6.586729	-2.231644	0.000264
 540	5.3630e+01	18.5177	47.278897	-0.000689	-6.890732	-2.334643	0.000276
 541	5.3730e+01	18.4743	47.464605	-0.000466	-4.661377	-1.579317	0.000187
 542	5.3830e+01	18.4326	47.690684	-0.000567	-5.674720	-1.922647	0.000227
 543	5.3929e+01	18.3957	47.924838	-0.000588	-5.877389	-1.991313	0.000235
 544	5.4029e+01	18.3524	48.150918	-0.000567	-5.674720	-1.922647	0.000227
 545	5.4128e+01	18.3171	48.336626	-0.000466	-4.661377	-1.579317	0.000187
 546	5.4227e+01	18.2738	48.530409	-0.000486	-4.864046	-1.647983	0.000195
 547	5.4327e+01	18.2321	48.724191	-0.000486	-4.864046	-1.647983	0.000195
 548	5.4426e+01	18.2000	48.901825	-0.000446	-4.458709	-1.510651	0.000179
 549	5.4526e+01	18.1471	49.168276	-0.000669	-6.688063	-2.265977	0.000268
 550	5.4626e+01	18.1102	49.349947	-0.000456	-4.560043	-1.544984	0.000183
 551	5.4725e+01	18.0701	49.515470	-0.000415	-4.154706	-1.407652	0.000166
 552	5.4825e+01	18.0284	49.733475	-0.000547	-5.472052	-1.853981	0.000219
 553	5.4924e+01	17.9995	49.915146	-0.000456	-4.560043	-1.544984	0.000183
 554	5.5023e+01	17.9482	50.112966	-0.000497	-4.965380	-1.682316	0.000199
 555	5.5123e+01	17.9081	50.290600	-0.000446	-4.458709	-1.510651	0.000179
 556	5.5222e+01	17.8760	50.492457	-0.000507	-5.066715	-1.716649	0.000203
 557	5.5322e+01	17.8359	50.670091	-0.000446	-4.458709	-1.510651	0.000179
 558	5.5422e+01	17.7893	50.819465	-0.000375	-3.749369	-1.270321	0.000150
 559	5.5521e+01	17.7605	50.984987	-0.000415	-4.154706	-1.407652	0.000166
 560	5.5620e+01	17.7155	51.154547	-0.000426	-4.256040	-1.441985	0.000170
 561	5.5720e+01	17.6722	51.328144	-0.000436	-4.357374	-1.476318	0.000174
 562	5.5819e+01	17.6353	51.550186	-0.000557	-5.573386	-1.888314	0.000223
 563	5.5919e+01	17.6081	51.663226	-0.000284	-2.837360	-0.961324	0.000114
 564	5.6019e+01	17.5471	51.816637	-0.000385	-3.850703	-1.304654	0.000154
 565	5.6118e+01	17.5134	52.022531	-0.000517	-5.168049	-1.750982	0.000207
 566	5.6218e+01	17.4717	52.151719	-0.000324	-3.242697	-1.098656	0.000130
 567	5.6317e+01	17.4316	52.341465	-0.000476	-4.762712	-1.613650	0.000191
 568	5.6416e+01	17.3931	52.494876	-0.000385	-3.850703	-1.304654	0.000154
 569	5.6516e+01	17.3498	52.620027	-0.000314	-3.141363	-1.064323	0.000126
 570	5.6615e+01	17.3145	52.801698	-0.000456	-4.560043	-1.544984	0.000183
 571	5.6715e+01	17.2664	52.914738	-0.000284	-2.837360	-0.961324	0.000114
 572	5.6815e+01	17.2407	53.100446	-0.000466	-4.661377	-1.579317	0.000187
 573	5.6914e+01	17.2038	53.209449	-0.000274	-2.736026	-0.926991	0.000110
 574	5.7014e+01	17.1605	53.403232	-0.000486	-4.864046	-1.647983	0.000195
 575	5.7113e+01	17.1107	53.524346	-0.000304	-3.040029	-1.029990	0.000122
 576	5.7212e+01	17.0722	53.649497	-0.000314	-3.141363	-1.064323	0.000126
 577	5.7312e+01	17.0402	53.786759	-0.000345	-3.445366	-1.167322	0.000138
 578	5.7411e+01	16.9936	53.911911	-0.000314	-3.141363	-1.064323	0.000126
 579	5.7511e+01	16.9535	54.053210	-0.000355	-3.546700	-1.201655	0.000142
 580	5.7611e+01	16.9214	54.174324	-0.000304	-3.040029	-1.029990	0.000122
 581	5.7710e+01	16.8669	54.311587	-0.000345	-3.445366	-1.167322	0.000138
 582	5.7809e+01	16.8364	54.456924	-0.000365	-3.648034	-1.235988	0.000146
 583	5.7909e+01	16.8059	54.569964	-0.000284	-2.837360	-0.961324	0.000114
 584	5.8008e+01	16.7546	54.683004	-0.000284	-2.837360	-0.961324	0.000114
 585	5.8108e+01	16.7113	54.836415	-0.000385	-3.850703	-1.304654	0.000154
 586	5.8208e+01	16.6808	54.901009	-0.000162	-1.621349	-0.549328	0.000065
 587	5.8307e+01	16.6311	54.997900	-0.000243	-2.432023	-0.823992	0.000097
 588	5.8407e+01	16.5942	55.147274	-0.000375	-3.749369	-1.270321	0.000150
 589	5.8506e+01	16.5541	55.256277	-0.000274	-2.736026	-0.926991	0.000110
 590	5.8605e+01	16.5188	55.341057	-0.000213	-2.128020	-0.720993	0.000085
 591	5.8705e+01	16.4787	55.474282	-0.000334	-3.344032	-1.132989	0.000134
 592	5.8804e+01	16.4386	55.583285	-0.000274	-2.736026	-0.926991	0.000110
 593	5.8904e+01	16.3985	55.692288	-0.000274	-2.736026	-0.926991	0.000110
 594	5.9004e+01	16.3552	55.764956	-0.000182	-1.824017	-0.617994	0.000073
 595	5.9103e+01	16.3215	55.894144	-0.000324	-3.242697	-1.098656	0.000130
 596	5.9203e+01	16.2814	56.007184	-0.000284	-2.837360	-0.961324	0.000114
 597	5.9302e+01	16.2364	56.136372	-0.000324	-3.242697	-1.098656	0.000130
 598	5.9401e+01	16.2011	56.225189	-0.000223	-2.229354	-0.755326	0.000089
 599	5.9501e+01	16.1514	56.354378	-0.000324	-3.242697	-1.098656	0.000130
 600	5.9600e+01	16.1129	56.427046	-0.000182	-1.824017	-0.617994	0.000073
 601	5.9700e+01	16.0856	56.503752	-0.000193	-1.925352	-0.652327	0.000077
 602	5.9800e+01	16.0439	56.628903	-0.000314	-3.141363	-1.064323	0.000126
 603	5.9899e+01	16.0022	56.717720	-0.000223	-2.229354	-0.755326	0.000089
 604	5.9998e+01	15.9637	56.850945	-0.000334	-3.344032	-1.132989	0.000134
 605	6.0098e+01	15.9204	56.915540	-0.000162	-1.621349	-0.549328	0.000065
 606	6.0197e+01	15.8771	57.004357	-0.000223	-2.229354	-0.755326	0.000089
 607	6.0297e+01	15.8434	57.117396	-0.000284	-2.837360	-0.961324	0.000114
 608	6.0397e+01	15.8049	57.173916	-0.000142	-1.418680	-0.480662	0.000057
 609	6.0496e+01	15.7632	57.266770	-0.000233	-2.330689	-0.789659	0.000093
 610	6.0596e+01	15.7183	57.359625	-0.000233	-2.330689	-0.789659	0.000093
 611	6.0695e+01	15.6878	57.464590	-0.000263	-2.634692	-0.892658	0.000105
 612	6.0794e+01	15.6365	57.537259	-0.000182	-1.824017	-0.617994	0.000073
 613	6.0894e+01	15.6012	57.658373	-0.000304	-3.040029	-1.029990	0.000122
 614	6.0993e+01	15.5578	57.710855	-0.000132	-1.317346	-0.446329	0.000053
 615	6.1093e+01	15.5145	57.795635	-0.000213	-2.128020	-0.720993	0.000085
 616	6.1193e+01	15.4760	57.904638	-0.000274	-2.736026	-0.926991	0.000110
 617	6.1292e+01	15.4343	57.932898	-0.000071	-0.709340	-0.240331	0.000028
 618	6.1392e+01	15.4038	58.037863	-0.000263	-2.634692	-0.892658	0.000105
 619	6.1491e+01	15.3653	58.130717	-0.000233	-2.330689	-0.789659	0.000093
 620	6.1590e+01	15.3252	58.211460	-0.000203	-2.026686	-0.686660	0.000081
 621	6.1690e+01	15.2819	58.267980	-0.000142	-1.418680	-0.480662	0.000057
 622	6.1789e+01	15.2466	58.328537	-0.000152	-1.520014	-0.514995	0.000061
 623	6.1889e+01	15.1985	58.433503	-0.000263	-2.634692	-0.892658	0.000105
 624	6.1989e+01	15.1712	58.506171	-0.000182	-1.824017	-0.617994	0.000073
 625	6.2088e+01	15.1199	58.554617	-0.000122	-1.216011	-0.411996	0.000049
 626	6.2188e+01	15.0926	58.615174	-0.000152	-1.520014	-0.514995	0.000061
 627	6.2287e+01	15.0397	58.703991	-0.000223	-2.229354	-0.755326	0.000089
 628	6.2386e+01	15.0092	58.768585	-0.000162	-1.621349	-0.549328	0.000065
 629	6.2486e+01	14.9675	58.837216	-0.000172	-1.722683	-0.583661	0.000069
 630	6.2586e+01	14.9258	58.857402	-0.000051	-0.506671	-0.171665	0.000020
 631	6.2685e+01	14.8809	58.930070	-0.000182	-1.824017	-0.617994	0.000073
 632	6.2785e+01	14.8456	59.014850	-0.000213	-2.128020	-0.720993	0.000085
 633	6.2884e+01	14.7974	59.026962	-0.000030	-0.304003	-0.102999	0.000012
 634	6.2983e+01	14.7605	59.071370	-0.000111	-1.114677	-0.377663	0.000045
 635	6.3083e+01	14.7269	59.176336	-0.000263	-2.634692	-0.892658	0.000105
 636	6.3182e+01	14.6835	59.192484	-0.000041	-0.405337	-0.137332	0.000016
 637	6.3282e+01	14.6482	59.253041	-0.000152	-1.520014	-0.514995	0.000061
 638	6.3382e+01	14.6065	59.317635	-0.000162	-1.621349	-0.549328	0.000065
 639	6.3481e+01	14.5664	59.341858	-0.000061	-0.608006	-0.205998	0.000024
 640	6.3581e+01	14.5279	59.406452	-0.000162	-1.621349	-0.549328	0.000065
 641	6.3680e+01	14.4942	59.378192	0.000071	0.709340	0.240331	-0.000028
 642	6.3779e+01	14.4413	59.487195	-0.000274	-2.736026	-0.926991	0.000110
 643	6.3879e+01	14.4044	59.551789	-0.000162	-1.621349	-0.549328	0.000065
 644	6.3978e+01	14.3579	59.588123	-0.000091	-0.912009	-0.308997	0.000037
 645	6.4078e+01	14.3258	59.648681	-0.000152	-1.520014	-0.514995	0.000061
 646	6.4177e+01	14.2841	59.652718	-0.000010	-0.101334	-0.034333	0.000004
 647	6.4277e+01	14.2552	59.693089	-0.000101	-1.013343	-0.343330	0.000041
 648	6.4376e+01	14.2055	59.729423	-0.000091	-0.912009	-0.308997	0.000037
 649	6.4476e+01	14.1638	59.781906	-0.000132	-1.317346	-0.446329	0.000053
 650	6.4576e+01	14.1301	59.822277	-0.000101	-1.013343	-0.343330	0.000041
 651	6.4675e+01	14.0852	59.862649	-0.000101	-1.013343	-0.343330	0.000041
 652	6.4775e+01	14.0531	59.907057	-0.000111	-1.114677	-0.377663	0.000045
 653	6.4874e+01	14.0098	59.947429	-0.000101	-1.013343	-0.343330	0.000041
 654	6.4974e+01	13.9648	59.955503	-0.000020	-0.202669	-0.068666	0.000008
 655	6.5073e+01	13.9312	60.012023	-0.000142	-1.418680	-0.480662	0.000057
 656	6.5172e+01	13.8878	60.052394	-0.000101	-1.013343	-0.343330	0.000041
 657	6.5272e+01	13.8413	60.064506	-0.000030	-0.304003	-0.102999	0.000012
 658	6.5371e+01	13.8124	60.104877	-0.000101	-1.013343	-0.343330	0.000041
 659	6.5471e+01	13.7675	60.125063	-0.000051	-0.506671	-0.171665	0.000020
 660	6.5570e+01	13.7178	60.185620	-0.000152	-1.520014	-0.514995	0.000061
 661	6.5670e+01	13.6889	60.161397	0.000061	0.608006	0.205998	-0.000024
 662	6.5769e+01	13.6472	60.201768	-0.000101	-1.013343	-0.343330	0.000041
 663	6.5869e+01	13.6071	60.209842	-0.000020	-0.202669	-0.068666	0.000008
 664	6.5969e+01	13.5686	60.246177	-0.000091	-0.912009	-0.308997	0.000037
 665	6.6068e+01	13.5269	60.246177	-0.000000	-0.000000	-0.000000	0.000000
 666	6.6168e+01	13.4852	60.234065	0.000030	0.304003	0.102999	-0.000012
 667	6.6267e+01	13.4467	60.246177	-0.000030	-0.304003	-0.102999	0.000012
 668	6.6367e+01	13.4114	60.302697	-0.000142	-1.418680	-0.480662	0.000057
 669	6.6466e+01	13.3681	60.310771	-0.000020	-0.202669	-0.068666	0.000008
 670	6.6566e+01	13.3360	60.302697	0.000020	0.202669	0.068666	-0.000008
 671	6.6665e+01	13.2814	60.278474	0.000061	0.608006	0.205998	-0.000024
 672	6.6764e+01	13.2510	60.310771	-0.000081	-0.810674	-0.274664	0.000032
 673	6.6864e+01	13.1980	60.306734	0.000010	0.101334	0.034333	-0.000004
 674	6.6963e+01	13.1691	60.330956	-0.000061	-0.608006	-0.205998	0.000024
 675	6.7063e+01	13.1290	60.266362	0.000162	1.621349	0.549328	-0.000065
 676	6.7162e+01	13.0857	60.310771	-0.000111	-1.114677	-0.377663	0.000045
 677	6.7262e+01	13.0569	60.298659	0.000030	0.304003	0.102999	-0.000012
 678	6.7362e+01	13.0119	60.286548	0.000030	0.304003	0.102999	-0.000012
 679	6.7461e+01	12.9750	60.262325	0.000061	0.608006	0.205998	-0.000024
 680	6.7561e+01	12.9269	60.246177	0.000041	0.405337	0.137332	-0.000016
 681	6.7660e+01	12.8900	60.270399	-0.000061	-0.608006	-0.205998	0.000024
 682	6.7760e+01	12.8563	60.266362	0.000010	0.101334	0.034333	-0.000004
 683	6.7859e+01	12.8082	60.270399	-0.000010	-0.101334	-0.034333	0.000004
 684	6.7959e+01	12.7825	60.238102	0.000081	0.810674	0.274664	-0.000032
 685	6.8058e+01	12.7360	60.238102	-0.000000	-0.000000	-0.000000	0.000000
 686	6.8157e+01	12.7007	60.230028	0.000020	0.202669	0.068666	-0.000008
 687	6.8257e+01	12.6526	60.201768	0.000071	0.709340	0.240331	-0.000028
 688	6.8356e+01	12.6141	60.177545	0.000061	0.608006	0.205998	-0.000024
 689	6.8456e+01	12.5756	60.165434	0.000030	0.304003	0.102999	-0.000012
 690	6.8555e+01	12.5435	60.157360	0.000020	0.202669	0.068666	-0.000008
 691	6.8655e+01	12.4906	60.112951	0.000111	1.114677	0.377663	-0.000045
 692	6.8754e+01	12.4488	60.096803	0.000041	0.405337	0.137332	-0.000016
 693	6.8854e+01	12.4119	60.048357	0.000122	1.216011	0.411996	-0.000049
 694	6.8954e+01	12.3751	60.052394	-0.000010	-0.101334	-0.034333	0.000004
 695	6.9053e+01	12.3285	60.044320	0.000020	0.202669	0.068666	-0.000008
 696	6.9153e+01	12.2948	59.987800	0.000142	1.418680	0.480662	-0.000057
 697	6.9252e+01	12.2563	59.963577	0.000061	0.608006	0.205998	-0.000024
 698	6.9352e+01	12.2178	59.919169	0.000111	1.114677	0.377663	-0.000045
 699	6.9451e+01	12.1729	59.898983	0.000051	0.506671	0.171665	-0.000020
 700	6.9550e+01	12.1312	59.838426	0.000152	1.520014	0.514995	-0.000061
 701	6.9650e+01	12.1007	59.822277	0.000041	0.405337	0.137332	-0.000016
 702	6.9749e+01	12.0590	59.777869	0.000111	1.114677	0.377663	-0.000045
 703	6.9849e+01	12.0125	59.741535	0.000091	0.912009	0.308997	-0.000037
 704	6.9948e+01	11.9708	59.680978	0.000152	1.520014	0.514995	-0.000061
 705	7.0048e+01	11.9355	59.652718	0.000071	0.709340	0.240331	-0.000028
 706	7.0147e+01	11.9034	59.584086	0.000172	1.722683	0.583661	-0.000069
 707	7.0247e+01	11.8537	59.600235	-0.000041	-0.405337	-0.137332	0.000016
 708	7.0347e+01	11.8168	59.531604	0.000172	1.722683	0.583661	-0.000069
 709	7.0446e+01	11.7735	59.507381	0.000061	0.608006	0.205998	-0.000024
 710	7.0546e+01	11.7430	59.483158	0.000061	0.608006	0.205998	-0.000024
 711	7.0645e+01	11.6981	59.422601	0.000152	1.520014	0.514995	-0.000061
 712	7.0745e+01	11.6660	59.337821	0.000213	2.128020	0.720993	-0.000085
 713	7.0844e+01	11.6227	59.313598	0.000061	0.608006	0.205998	-0.000024
 714	7.0944e+01	11.5729	59.249004	0.000162	1.621349	0.549328	-0.000065
 715	7.1043e+01	11.5441	59.200558	0.000122	1.216011	0.411996	-0.000049
 716	7.1142e+01	11.5023	59.188447	0.000030	0.304003	0.102999	-0.000012
 717	7.1242e+01	11.4542	59.172299	0.000041	0.405337	0.137332	-0.000016
 718	7.1341e+01	11.4221	59.083482	0.000223	2.229354	0.755326	-0.000089
 719	7.1441e+01	11.3772	59.006776	0.000193	1.925352	0.652327	-0.000077
 720	7.1540e+01	11.3419	58.974479	0.000081	0.810674	0.274664	-0.000032
 721	7.1640e+01	11.3002	58.913922	0.000152	1.520014	0.514995	-0.000061
 722	7.1740e+01	11.2553	58.865476	0.000122	1.216011	0.411996	-0.000049
 723	7.1839e+01	11.2184	58.833179	0.000081	0.810674	0.274664	-0.000032
 724	7.1939e+01	11.1863	58.752436	0.000203	2.026686	0.686660	-0.000081
 725	7.2038e+01	11.1414	58.659582	0.000233	2.330689	0.789659	-0.000093
 726	7.2138e+01	11.0997	58.639397	0.000051	0.506671	0.171665	-0.000020
 727	7.2237e+01	11.0676	58.570765	0.000172	1.722683	0.583661	-0.000069
 728	7.2337e+01	11.0098	58.510208	0.000152	1.520014	0.514995	-0.000061
 729	7.2436e+01	10.9778	58.469837	0.000101	1.013343	0.343330	-0.000041
 730	7.2535e+01	10.9312	58.381020	0.000223	2.229354	0.755326	-0.000089
 731	7.2635e+01	10.9024	58.300277	0.000203	2.026686	0.686660	-0.000081
 732	7.2734e+01	10.8574	58.259906	0.000101	1.013343	0.343330	-0.000041
 733	7.2834e+01	10.8125	58.191275	0.000172	1.722683	0.583661	-0.000069
 734	7.2933e+01	10.7788	58.175126	0.000041	0.405337	0.137332	-0.000016
 735	7.3033e+01	10.7387	58.086309	0.000223	2.229354	0.755326	-0.000089
 736	7.3132e+01	10.7018	57.997492	0.000223	2.229354	0.755326	-0.000089
 737	7.3232e+01	10.6681	57.965195	0.000081	0.810674	0.274664	-0.000032
 738	7.3332e+01	10.6184	57.884452	0.000203	2.026686	0.686660	-0.000081
 739	7.3431e+01	10.5799	57.844081	0.000101	1.013343	0.343330	-0.000041
 740	7.3531e+01	10.5430	57.783524	0.000152	1.520014	0.514995	-0.000061
 741	7.3630e+01	10.5029	57.710855	0.000182	1.824017	0.617994	-0.000073
 742	7.3730e+01	10.4660	57.609927	0.000253	2.533357	0.858325	-0.000101
 743	7.3829e+01	10.4163	57.537259	0.000182	1.824017	0.617994	-0.000073
 744	7.3928e+01	10.3714	57.492850	0.000111	1.114677	0.377663	-0.000045
 745	7.4028e+01	10.3409	57.424219	0.000172	1.722683	0.583661	-0.000069
 746	7.4127e+01	10.3120	57.331365	0.000233	2.330689	0.789659	-0.000093
 747	7.4227e+01	10.2687	57.254659	0.000193	1.925352	0.652327	-0.000077
 748	7.4326e+01	10.2142	57.186028	0.000172	1.722683	0.583661	-0.000069
 749	7.4426e+01	10.1821	57.097211	0.000223	2.229354	0.755326	-0.000089
 750	7.4525e+01	10.1436	57.020505	0.000193	1.925352	0.652327	-0.000077
 751	7.4625e+01	10.1179	56.963985	0.000142	1.418680	0.480662	-0.000057
 752	7.4725e+01	10.0682	56.887280	0.000193	1.925352	0.652327	-0.000077
 753	7.4824e+01	10.0281	56.814611	0.000182	1.824017	0.617994	-0.000073
 754	7.4924e+01	9.9815	56.733869	0.000203	2.026686	0.686660	-0.000081
 755	7.5023e+01	9.9446	56.669274	0.000162	1.621349	0.549328	-0.000065
 756	7.5123e+01	9.8965	56.576420	0.000233	2.330689	0.789659	-0.000093
 757	7.5222e+01	9.8644	56.479529	0.000243	2.432023	0.823992	-0.000097
 758	7.5322e+01	9.8243	56.398786	0.000203	2.026686	0.686660	-0.000081
 759	7.5421e+01	9.7778	56.354378	0.000111	1.114677	0.377663	-0.000045
 760	7.5520e+01	9.7361	56.257487	0.000243	2.432023	0.823992	-0.000097
 761	7.5620e+01	9.7024	56.160595	0.000243	2.432023	0.823992	-0.000097
 762	7.5719e+01	9.6623	56.079853	0.000203	2.026686	0.686660	-0.000081
 763	7.5819e+01	9.6222	55.982961	0.000243	2.432023	0.823992	-0.000097
 764	7.5918e+01	9.5757	55.918367	0.000162	1.621349	0.549328	-0.000065
 765	7.6018e+01	9.5436	55.873959	0.000111	1.114677	0.377663	-0.000045
 766	7.6118e+01	9.5003	55.773030	0.000253	2.533357	0.858325	-0.000101
 767	7.6217e+01	9.4698	55.659990	0.000284	2.837360	0.961324	-0.000114
 768	7.6317e+01	9.4249	55.559062	0.000253	2.533357	0.858325	-0.000101
 769	7.6416e+01	9.3896	55.470245	0.000223	2.229354	0.755326	-0.000089
 770	7.6516e+01	9.3447	55.417762	0.000132	1.317346	0.446329	-0.000053
 771	7.6615e+01	9.3126	55.328945	0.000223	2.229354	0.755326	-0.000089
 772	7.6715e+01	9.2693	55.232054	0.000243	2.432023	0.823992	-0.000097
 773	7.6814e+01	9.2243	55.159386	0.000182	1.824017	0.617994	-0.000073
 774	7.6913e+01	9.1874	55.030197	0.000324	3.242697	1.098656	-0.000130
 775	7.7013e+01	9.1457	54.957529	0.000182	1.824017	0.617994	-0.000073
 776	7.7112e+01	9.0960	54.884860	0.000182	1.824017	0.617994	-0.000073
 777	7.7212e+01	9.0607	54.771821	0.000284	2.837360	0.961324	-0.000114
 778	7.7311e+01	9.0222	54.670892	0.000253	2.533357	0.858325	-0.000101
 779	7.7411e+01	8.9821	54.602261	0.000172	1.722683	0.583661	-0.000069
 780	7.7510e+01	8.9436	54.509407	0.000233	2.330689	0.789659	-0.000093
 781	7.7610e+01	8.9067	54.424627	0.000213	2.128020	0.720993	-0.000085
 782	7.7710e+01	8.8650	54.335810	0.000223	2.229354	0.755326	-0.000089
 783	7.7809e+01	8.8217	54.267179	0.000172	1.722683	0.583661	-0.000069
 784	7.7909e+01	8.7960	54.150102	0.000294	2.938694	0.995657	-0.000118
 785	7.8008e+01	8.7399	54.049173	0.000253	2.533357	0.858325	-0.000101
 786	7.8108e+01	8.7014	53.996690	0.000132	1.317346	0.446329	-0.000053
 787	7.8207e+01	8.6613	53.899799	0.000243	2.432023	0.823992	-0.000097
 788	7.8306e+01	8.6340	53.798871	0.000253	2.533357	0.858325	-0.000101
 789	7.8406e+01	8.5842	53.685831	0.000284	2.837360	0.961324	-0.000114
 790	7.8505e+01	8.5538	53.609125	0.000193	1.925352	0.652327	-0.000077
 791	7.8605e+01	8.5072	53.524346	0.000213	2.128020	0.720993	-0.000085
 792	7.8704e+01	8.4703	53.423417	0.000253	2.533357	0.858325	-0.000101
 793	7.8804e+01	8.4302	53.310377	0.000284	2.837360	0.961324	-0.000114
 794	7.8903e+01	8.3885	53.225598	0.000213	2.128020	0.720993	-0.000085
 795	7.9003e+01	8.3484	53.128706	0.000243	2.432023	0.823992	-0.000097
 796	7.9103e+01	8.3083	53.052001	0.000193	1.925352	0.652327	-0.000077
 797	7.9202e+01	8.2746	52.930887	0.000304	3.040029	1.029990	-0.000122
 798	7.9302e+01	8.2233	52.838033	0.000233	2.330689	0.789659	-0.000093
 799	7.9401e+01	8.1784	52.749216	0.000223	2.229354	0.755326	-0.000089
 800	7.9501e+01	8.1447	52.632139	0.000294	2.938694	0.995657	-0.000118
 801	7.9600e+01	8.1110	52.551396	0.000203	2.026686	0.686660	-0.000081
 802	7.9700e+01	8.0629	52.414133	0.000345	3.445366	1.167322	-0.000138
 803	7.9799e+01	8.0292	52.357613	0.000142	1.418680	0.480662	-0.000057
 804	7.9898e+01	7.9955	52.216314	0.000355	3.546700	1.201655	-0.000142
 805	7.9998e+01	7.9442	52.127497	0.000223	2.229354	0.755326	-0.000089
 806	8.0097e+01	7.9121	52.006383	0.000304	3.040029	1.029990	-0.000122
 807	8.0197e+01	7.8639	51.913528	0.000233	2.330689	0.789659	-0.000093
 808	8.0296e+01	7.8319	51.828749	0.000213	2.128020	0.720993	-0.000085
 809	8.0396e+01	7.7982	51.739932	0.000223	2.229354	0.755326	-0.000089
 810	8.0496e+01	7.7581	51.626892	0.000284	2.837360	0.961324	-0.000114
 811	8.0595e+01	7.7099	51.489629	0.000345	3.445366	1.167322	-0.000138
 812	8.0695e+01	7.6795	51.437146	0.000132	1.317346	0.446329	-0.000053
 813	8.0794e+01	7.6265	51.299884	0.000345	3.445366	1.167322	-0.000138
 814	8.0894e+01	7.5896	51.231253	0.000172	1.722683	0.583661	-0.000069
 815	8.0993e+01	7.5624	51.081878	0.000375	3.749369	1.270321	-0.000150
 816	8.1093e+01	7.5158	50.964802	0.000294	2.938694	0.995657	-0.000118
 817	8.1192e+01	7.4613	50.843687	0.000304	3.040029	1.029990	-0.000122
 818	8.1291e+01	7.4340	50.754870	0.000223	2.229354	0.755326	-0.000089
 819	8.1391e+01	7.3987	50.657979	0.000243	2.432023	0.823992	-0.000097
 820	8.1490e+01	7.3554	50.536865	0.000304	3.040029	1.029990	-0.000122
 821	8.1590e+01	7.3089	50.403640	0.000334	3.344032	1.132989	-0.000134
 822	8.1689e+01	7.2688	50.343083	0.000152	1.520014	0.514995	-0.000061
 823	8.1789e+01	7.2319	50.189671	0.000385	3.850703	1.304654	-0.000154
 824	8.1888e+01	7.1934	50.092780	0.000243	2.432023	0.823992	-0.000097
 825	8.1988e+01	7.1517	50.003963	0.000223	2.229354	0.755326	-0.000089
 826	8.2088e+01	7.1212	49.882849	0.000304	3.040029	1.029990	-0.000122
 827	8.2187e+01	7.0715	49.769809	0.000284	2.837360	0.961324	-0.000114
 828	8.2287e+01	7.0265	49.644658	0.000314	3.141363	1.064323	-0.000126
 829	8.2386e+01	6.9945	49.539693	0.000263	2.634692	0.892658	-0.000105
 830	8.2486e+01	6.9560	49.446839	0.000233	2.330689	0.789659	-0.000093
 831	8.2585e+01	6.9062	49.317650	0.000324	3.242697	1.098656	-0.000130
 832	8.2684e+01	6.8725	49.204610	0.000284	2.837360	0.961324	-0.000114
 833	8.2784e+01	6.8372	49.083496	0.000304	3.040029	1.029990	-0.000122
 834	8.2883e+01	6.8036	48.982568	0.000253	2.533357	0.858325	-0.000101
 835	8.2983e+01	6.7570	48.865491	0.000294	2.938694	0.995657	-0.000118
 836	8.3082e+01	6.7041	48.748414	0.000294	2.938694	0.995657	-0.000118
 837	8.3182e+01	6.6704	48.599040	0.000375	3.749369	1.270321	-0.000150
 838	8.3281e+01	6.6399	48.526372	0.000182	1.824017	0.617994	-0.000073
 839	8.3381e+01	6.5966	48.397183	0.000324	3.242697	1.098656	-0.000130
 840	8.3481e+01	6.5533	48.267995	0.000324	3.242697	1.098656	-0.000130
 841	8.3580e+01	6.5084	48.150918	0.000294	2.938694	0.995657	-0.000118
 842	8.3680e+01	6.4827	48.045952	0.000263	2.634692	0.892658	-0.000105
 843	8.3779e+01	6.4378	47.965210	0.000203	2.026686	0.686660	-0.000081
 844	8.3879e+01	6.3977	47.852170	0.000284	2.837360	0.961324	-0.000114
 845	8.3978e+01	6.3528	47.710870	0.000355	3.546700	1.201655	-0.000142
 846	8.4078e+01	6.3223	47.569570	0.000355	3.546700	1.201655	-0.000142
 847	8.4177e+01	6.2726	47.472679	0.000243	2.432023	0.823992	-0.000097
 848	8.4276e+01	6.2357	47.379825	0.000233	2.330689	0.789659	-0.000093
 849	8.4376e+01	6.1988	47.234488	0.000365	3.648034	1.235988	-0.000146
 850	8.4475e+01	6.1603	47.081077	0.000385	3.850703	1.304654	-0.000154
 851	8.4575e+01	6.1169	46.988223	0.000233	2.330689	0.789659	-0.000093
 852	8.4674e+01	6.0736	46.879220	0.000274	2.736026	0.926991	-0.000110
 853	8.4774e+01	6.0303	46.778292	0.000253	2.533357	0.858325	-0.000101
 854	8.4874e+01	6.0030	46.628918	0.000375	3.749369	1.270321	-0.000150
 855	8.4973e+01	5.9565	46.548175	0.000203	2.026686	0.686660	-0.000081
 856	8.5073e+01	5.9228	46.418987	0.000324	3.242697	1.098656	-0.000130
 857	8.5172e+01	5.8731	46.261538	0.000395	3.952037	1.338986	-0.000158
 858	8.5272e+01	5.8394	46.176759	0.000213	2.128020	0.720993	-0.000085
 859	8.5371e+01	5.8089	46.047570	0.000324	3.242697	1.098656	-0.000130
 860	8.5471e+01	5.7672	45.930493	0.000294	2.938694	0.995657	-0.000118
 861	8.5570e+01	5.7159	45.833602	0.000243	2.432023	0.823992	-0.000097
 862	8.5669e+01	5.6854	45.684228	0.000375	3.749369	1.270321	-0.000150
 863	8.5769e+01	5.6421	45.563114	0.000304	3.040029	1.029990	-0.000122
 864	8.5868e+01	5.6004	45.437963	0.000314	3.141363	1.064323	-0.000126
 865	8.5968e+01	5.5667	45.280514	0.000395	3.952037	1.338986	-0.000158
 866	8.6067e+01	5.5234	45.167475	0.000284	2.837360	0.961324	-0.000114
 867	8.6167e+01	5.4865	45.058472	0.000274	2.736026	0.926991	-0.000110
 868	8.6266e+01	5.4400	44.905061	0.000385	3.850703	1.304654	-0.000154
 869	8.6366e+01	5.4031	44.792021	0.000284	2.837360	0.961324	-0.000114
 870	8.6466e+01	5.3597	44.654758	0.000345	3.445366	1.167322	-0.000138
 871	8.6565e+01	5.3196	44.529607	0.000314	3.141363	1.064323	-0.000126
 872	8.6665e+01	5.2795	44.404456	0.000314	3.141363	1.064323	-0.000126
 873	8.6764e+01	5.2394	44.267193	0.000345	3.445366	1.167322	-0.000138
 874	8.6864e+01	5.2122	44.146079	0.000304	3.040029	1.029990	-0.000122
 875	8.6963e+01	5.1672	43.992668	0.000385	3.850703	1.304654	-0.000154
 876	8.7063e+01	5.1223	43.867517	0.000314	3.141363	1.064323	-0.000126
 877	8.7162e+01	5.0838	43.742366	0.000314	3.141363	1.064323	-0.000126
 878	8.7261e+01	5.0357	43.637400	0.000263	2.634692	0.892658	-0.000105
 879	8.7361e+01	4.9972	43.524360	0.000284	2.837360	0.961324	-0.000114
 880	8.7460e+01	4.9619	43.366912	0.000395	3.952037	1.338986	-0.000158
 881	8.7560e+01	4.9234	43.197352	0.000426	4.256040	1.441985	-0.000170
 882	8.7659e+01	4.8817	43.104498	0.000233	2.330689	0.789659	-0.000093
 883	8.7759e+01	4.8416	42.955124	0.000375	3.749369	1.270321	-0.000150
 884	8.7859e+01	4.8047	42.829973	0.000314	3.141363	1.064323	-0.000126
 885	8.7958e+01	4.7694	42.712896	0.000294	2.938694	0.995657	-0.000118
 886	8.8058e+01	4.7164	42.567559	0.000365	3.648034	1.235988	-0.000146
 887	8.8157e+01	4.6828	42.418185	0.000375	3.749369	1.270321	-0.000150
 888	8.8257e+01	4.6426	42.280923	0.000345	3.445366	1.167322	-0.000138
 889	8.8356e+01	4.6074	42.163846	0.000294	2.938694	0.995657	-0.000118
 890	8.8456e+01	4.5640	42.042732	0.000304	3.040029	1.029990	-0.000122
 891	8.8555e+01	4.5239	41.913543	0.000324	3.242697	1.098656	-0.000130
 892	8.8654e+01	4.4870	41.764169	0.000375	3.749369	1.270321	-0.000150
 893	8.8754e+01	4.4453	41.651129	0.000284	2.837360	0.961324	-0.000114
 894	8.8853e+01	4.3972	41.530015	0.000304	3.040029	1.029990	-0.000122
 895	8.8953e+01	4.3667	41.376604	0.000385	3.850703	1.304654	-0.000154
 896	8.9052e+01	4.3250	41.247416	0.000324	3.242697	1.098656	-0.000130
 897	8.9152e+01	4.2801	41.098042	0.000375	3.749369	1.270321	-0.000150
 898	8.9251e+01	4.2416	40.948668	0.000375	3.749369	1.270321	-0.000150
 899	8.9351e+01	4.2095	40.847739	0.000253	2.533357	0.858325	-0.000101
 900	8.9451e+01	4.1726	40.690291	0.000395	3.952037	1.338986	-0.000158
 901	8.9550e+01	4.1293	40.561103	0.000324	3.242697	1.098656	-0.000130
 902	8.9650e+01	4.0876	40.399617	0.000405	4.053372	1.373319	-0.000162
 903	8.9749e+01	4.0443	40.306763	0.000233	2.330689	0.789659	-0.000093
 904	8.9849e+01	4.0138	40.173538	0.000334	3.344032	1.132989	-0.000134
 905	8.9948e+01	3.9721	40.012052	0.000405	4.053372	1.373319	-0.000162
 906	9.0047e+01	3.9256	39.878827	0.000334	3.344032	1.132989	-0.000134
 907	9.0147e+01	3.8855	39.749638	0.000324	3.242697	1.098656	-0.000130
 908	9.0246e+01	3.8437	39.612376	0.000345	3.445366	1.167322	-0.000138
 909	9.0346e+01	3.8133	39.483188	0.000324	3.242697	1.098656	-0.000130
 910	9.0445e+01	3.7699	39.337851	0.000365	3.648034	1.235988	-0.000146
 911	9.0545e+01	3.7298	39.184439	0.000385	3.850703	1.304654	-0.000154
 912	9.0644e+01	3.6929	39.035065	0.000375	3.749369	1.270321	-0.000150
 913	9.0744e+01	3.6480	38.909914	0.000314	3.141363	1.064323	-0.000126
 914	9.0844e+01	3.6031	38.784763	0.000314	3.141363	1.064323	-0.000126
 915	9.0943e+01	3.5694	38.655575	0.000324	3.242697	1.098656	-0.000130
 916	9.1043e+01	3.5341	38.498126	0.000395	3.952037	1.338986	-0.000158
 917	9.1142e+01	3.4876	38.377012	0.000304	3.040029	1.029990	-0.000122
 918	9.1242e+01	3.4443	38.227638	0.000375	3.749369	1.270321	-0.000150
 919	9.1341e+01	3.4090	38.082301	0.000365	3.648034	1.235988	-0.000146
 920	9.1441e+01	3.3609	37.965224	0.000294	2.938694	0.995657	-0.000118
 921	9.1540e+01	3.3320	37.763368	0.000507	5.066715	1.716649	-0.000203
 922	9.1639e+01	3.2871	37.674551	0.000223	2.229354	0.755326	-0.000089
 923	9.1739e+01	3.2438	37.529214	0.000365	3.648034	1.235988	-0.000146
 924	9.1838e+01	3.2133	37.359654	0.000426	4.256040	1.441985	-0.000170
 925	9.1938e+01	3.1716	37.278911	0.000203	2.026686	0.686660	-0.000081
 926	9.2037e+01	3.1299	37.077055	0.000507	5.066715	1.716649	-0.000203
 927	9.2137e+01	3.0930	36.947866	0.000324	3.242697	1.098656	-0.000130
 928	9.2237e+01	3.0529	36.814641	0.000334	3.344032	1.132989	-0.000134
 929	9.2336e+01	3.0095	36.669304	0.000365	3.648034	1.235988	-0.000146
 930	9.2436e+01	2.9598	36.523967	0.000365	3.648034	1.235988	-0.000146
 931	9.2535e+01	2.9261	36.358444	0.000415	4.154706	1.407652	-0.000166
 932	9.2635e+01	2.8956	36.229256	0.000324	3.242697	1.098656	-0.000130
 933	9.2734e+01	2.8491	36.104105	0.000314	3.141363	1.064323	-0.000126
 934	9.2834e+01	2.8122	35.962805	0.000355	3.546700	1.201655	-0.000142
 935	9.2933e+01	2.7737	35.797283	0.000415	4.154706	1.407652	-0.000166
 936	9.3032e+01	2.7336	35.639834	0.000395	3.952037	1.338986	-0.000158
 937	9.3132e+01	2.6903	35.494497	0.000365	3.648034	1.235988	-0.000146
 938	9.3231e+01	2.6486	35.369346	0.000314	3.141363	1.064323	-0.000126
 939	9.3331e+01	2.6149	35.236121	0.000334	3.344032	1.132989	-0.000134
 940	9.3430e+01	2.5716	35.086747	0.000375	3.749369	1.270321	-0.000150
 941	9.3530e+01	2.5315	34.905076	0.000456	4.560043	1.544984	-0.000183
 942	9.3629e+01	2.4962	34.796073	0.000274	2.736026	0.926991	-0.000110
 943	9.3729e+01	2.4545	34.626513	0.000426	4.256040	1.441985	-0.000170
 944	9.3829e+01	2.4063	34.489251	0.000345	3.445366	1.167322	-0.000138
 945	9.3928e+01	2.3614	34.319691	0.000426	4.256040	1.441985	-0.000170
 946	9.4028e+01	2.3342	34.174354	0.000365	3.648034	1.235988	-0.000146
 947	9.4127e+01	2.3005	34.069388	0.000263	2.634692	0.892658	-0.000105
 948	9.4227e+01	2.2556	33.875606	0.000486	4.864046	1.647983	-0.000195
 949	9.4326e+01	2.2074	33.790826	0.000213	2.128020	0.720993	-0.000085
 950	9.4425e+01	2.1721	33.601081	0.000476	4.762712	1.613650	-0.000191
 951	9.4525e+01	2.1352	33.471892	0.000324	3.242697	1.098656	-0.000130
 952	9.4624e+01	2.0887	33.318481	0.000385	3.850703	1.304654	-0.000154
 953	9.4724e+01	2.0518	33.201404	0.000294	2.938694	0.995657	-0.000118
 954	9.4823e+01	2.0085	33.039919	0.000405	4.053372	1.373319	-0.000162
 955	9.4923e+01	1.9812	32.906693	0.000334	3.344032	1.132989	-0.000134
 956	9.5022e+01	1.9363	32.757319	0.000375	3.749369	1.270321	-0.000150
 957	9.5122e+01	1.8946	32.599871	0.000395	3.952037	1.338986	-0.000158
 958	9.5222e+01	1.8529	32.438386	0.000405	4.053372	1.373319	-0.000162
 959	9.5321e+01	1.8048	32.297086	0.000355	3.546700	1.201655	-0.000142
 960	9.5421e+01	1.7743	32.184046	0.000284	2.837360	0.961324	-0.000114
 961	9.5520e+01	1.7246	32.014486	0.000426	4.256040	1.441985	-0.000170
 962	9.5620e+01	1.6893	31.889335	0.000314	3.141363	1.064323	-0.000126
 963	9.5719e+01	1.6572	31.711701	0.000446	4.458709	1.510651	-0.000179
 964	9.5819e+01	1.6155	31.586550	0.000314	3.141363	1.064323	-0.000126
 965	9.5918e+01	1.5721	31.457362	0.000324	3.242697	1.098656	-0.000130
 966	9.6017e+01	1.5369	31.287802	0.000426	4.256040	1.441985	-0.000170
 967	9.6117e+01	1.4984	31.130354	0.000395	3.952037	1.338986	-0.000158
 968	9.6216e+01	1.4647	30.972905	0.000395	3.952037	1.338986	-0.000158
 969	9.6316e+01	1.4101	30.839680	0.000334	3.344032	1.132989	-0.000134
 970	9.6415e+01	1.3764	30.706454	0.000334	3.344032	1.132989	-0.000134
 971	9.6515e+01	1.3347	30.557080	0.000375	3.749369	1.270321	-0.000150
 972	9.6615e+01	1.2994	30.403669	0.000385	3.850703	1.304654	-0.000154
 973	9.6714e+01	1.2561	30.234110	0.000426	4.256040	1.441985	-0.000170
 974	9.6814e+01	1.2144	30.117033	0.000294	2.938694	0.995657	-0.000118
 975	9.6913e+01	1.1823	29.955547	0.000405	4.053372	1.373319	-0.000162
 976	9.7013e+01	1.1422	29.814247	0.000355	3.546700	1.201655	-0.000142
 977	9.7112e+01	1.0893	29.632576	0.000456	4.560043	1.544984	-0.000183
 978	9.7212e+01	1.0492	29.491277	0.000355	3.546700	1.201655	-0.000142
 979	9.7311e+01	1.0219	29.329791	0.000405	4.053372	1.373319	-0.000162
 980	9.7410e+01	0.9738	29.212714	0.000294	2.938694	0.995657	-0.000118
 981	9.7510e+01	0.9337	29.071414	0.000355	3.546700	1.201655	-0.000142
 982	9.7609e+01	0.8936	28.909929	0.000405	4.053372	1.373319	-0.000162
 983	9.7709e+01	0.8518	28.736332	0.000436	4.357374	1.476318	-0.000174
 984	9.7808e+01	0.8198	28.590995	0.000365	3.648034	1.235988	-0.000146
 985	9.7908e+01	0.7813	28.449696	0.000355	3.546700	1.201655	-0.000142
 986	9.8007e+01	0.7315	28.324544	0.000314	3.141363	1.064323	-0.000126
 987	9.8107e+01	0.6946	28.146910	0.000446	4.458709	1.510651	-0.000179
 988	9.8207e+01	0.6642	28.013685	0.000334	3.344032	1.132989	-0.000134
 989	9.8306e+01	0.6176	27.832014	0.000456	4.560043	1.544984	-0.000183
 990	9.8406e+01	0.5791	27.674565	0.000395	3.952037	1.338986	-0.000158
 991	9.8505e+01	0.5406	27.537303	0.000345	3.445366	1.167322	-0.000138
 992	9.8605e+01	0.4973	27.391966	0.000365	3.648034	1.235988	-0.000146
 993	9.8704e+01	0.4572	27.230481	0.000405	4.053372	1.373319	-0.000162
 994	9.8803e+01	0.4219	27.048809	0.000456	4.560043	1.544984	-0.000183
 995	9.8903e+01	0.3738	26.915584	0.000334	3.344032	1.132989	-0.000134
 996	9.9002e+01	0.3433	26.754099	0.000405	4.053372	1.373319	-0.000162
 997	9.9102e+01	0.2984	26.624910	0.000324	3.242697	1.098656	-0.000130
 998	9.9201e+01	0.2567	26.479573	0.000365	3.648034	1.235988	-0.000146
 999	9.9301e+01	0.2198	26.305976	0.000436	4.357374	1.476318	-0.000174
1000	9.9400e+01	0.1797	26.160640	0.000365	3.648034	1.235988	-0.000146
1001	9.9500e+01	0.1428	26.023377	0.000345	3.445366	1.167322	-0.000138
1002	9.9600e+01	0.0898	25.853817	0.000426	4.256040	1.441985	-0.000170
1003	9.9699e+01	0.0642	25.704443	0.000375	3.749369	1.270321	-0.000150
1004	9.9799e+01	0.0257	25.530846	0.000436	4.357374	1.476318	-0.000174
1005	9.9898e+01	-0.0193	25.417807	0.000284	2.837360	0.961324	-0.000114
1006	9.9998e+01	-0.0578	25.276507	0.000355	3.546700	1.201655	-0.000142
1007	1.0010e+02	-0.0946	25.123096	0.000385	3.850703	1.304654	-0.000154
1008	1.0020e+02	-0.1364	24.933350	0.000476	4.762712	1.613650	-0.000191
1009	1.0030e+02	-0.1749	24.771865	0.000405	4.053372	1.373319	-0.000162
1010	1.0040e+02	-0.2214	24.634602	0.000345	3.445366	1.167322	-0.000138
1011	1.0050e+02	-0.2422	24.465043	0.000426	4.256040	1.441985	-0.000170
1012	1.0059e+02	-0.2936	24.352003	0.000284	2.837360	0.961324	-0.000114
1013	1.0069e+02	-0.3305	24.186480	0.000415	4.154706	1.407652	-0.000166
1014	1.0079e+02	-0.3690	24.037106	0.000375	3.749369	1.270321	-0.000150
1015	1.0089e+02	-0.4059	23.903881	0.000334	3.344032	1.132989	-0.000134
1016	1.0099e+02	-0.4460	23.693950	0.000527	5.269383	1.785315	-0.000211
1017	1.0109e+02	-0.4877	23.601096	0.000233	2.330689	0.789659	-0.000093
1018	1.0119e+02	-0.5342	23.443647	0.000395	3.952037	1.338986	-0.000158
1019	1.0129e+02	-0.5695	23.278125	0.000415	4.154706	1.407652	-0.000166
1020	1.0139e+02	-0.6080	23.132788	0.000365	3.648034	1.235988	-0.000146
1021	1.0149e+02	-0.6433	22.959191	0.000436	4.357374	1.476318	-0.000174
1022	1.0159e+02	-0.6850	22.817891	0.000355	3.546700	1.201655	-0.000142
1023	1.0169e+02	-0.7235	22.648331	0.000426	4.256040	1.441985	-0.000170
1024	1.0179e+02	-0.7668	22.527217	0.000304	3.040029	1.029990	-0.000122
1025	1.0189e+02	-0.8117	22.377843	0.000375	3.749369	1.270321	-0.000150
1026	1.0199e+02	-0.8422	22.236544	0.000355	3.546700	1.201655	-0.000142
1027	1.0209e+02	-0.8871	22.071021	0.000415	4.154706	1.407652	-0.000166
1028	1.0219e+02	-0.9305	21.893387	0.000446	4.458709	1.510651	-0.000179
1029	1.0229e+02	-0.9674	21.691530	0.000507	5.066715	1.716649	-0.000203
1030	1.0239e+02	-1.0026	21.606750	0.000213	2.128020	0.720993	-0.000085
1031	1.0248e+02	-1.0428	21.429116	0.000446	4.458709	1.510651	-0.000179
1032	1.0258e+02	-1.0925	21.247445	0.000456	4.560043	1.544984	-0.000183
1033	1.0268e+02	-1.1326	21.102109	0.000365	3.648034	1.235988	-0.000146
1034	1.0278e+02	-1.1711	20.940623	0.000405	4.053372	1.373319	-0.000162
1035	1.0288e+02	-1.2128	20.799323	0.000355	3.546700	1.201655	-0.000142
1036	1.0298e+02	-1.2465	20.658024	0.000355	3.546700	1.201655	-0.000142
1037	1.0308e+02	-1.2850	20.504612	0.000385	3.850703	1.304654	-0.000154
1038	1.0318e+02	-1.3267	20.339090	0.000415	4.154706	1.407652	-0.000166
1039	1.0328e+02	-1.3732	20.157419	0.000456	4.560043	1.544984	-0.000183
1040	1.0338e+02	-1.4069	20.016119	0.000355	3.546700	1.201655	-0.000142
1041	1.0348e+02	-1.4390	19.842522	0.000436	4.357374	1.476318	-0.000174
1042	1.0358e+02	-1.4855	19.705260	0.000345	3.445366	1.167322	-0.000138
1043	1.0368e+02	-1.5288	19.539737	0.000415	4.154706	1.407652	-0.000166
1044	1.0378e+02	-1.5641	19.337880	0.000507	5.066715	1.716649	-0.000203
1045	1.0388e+02	-1.6042	19.228878	0.000274	2.736026	0.926991	-0.000110
1046	1.0398e+02	-1.6508	19.067392	0.000405	4.053372	1.373319	-0.000162
1047	1.0408e+02	-1.6941	18.873610	0.000486	4.864046	1.647983	-0.000195
1048	1.0418e+02	-1.7262	18.760570	0.000284	2.837360	0.961324	-0.000114
1049	1.0428e+02	-1.7663	18.582936	0.000446	4.458709	1.510651	-0.000179
1050	1.0438e+02	-1.7935	18.449710	0.000334	3.344032	1.132989	-0.000134
1051	1.0447e+02	-1.8368	18.255928	0.000486	4.864046	1.647983	-0.000195
1052	1.0457e+02	-1.8882	18.090405	0.000415	4.154706	1.407652	-0.000166
1053	1.0467e+02	-1.9267	17.965254	0.000314	3.141363	1.064323	-0.000126
1054	1.0477e+02	-1.9588	17.827991	0.000345	3.445366	1.167322	-0.000138
1055	1.0487e+02	-2.0037	17.678617	0.000375	3.749369	1.270321	-0.000150
1056	1.0497e+02	-2.0406	17.480798	0.000497	4.965380	1.682316	-0.000199
1057	1.0507e+02	-2.0855	17.347572	0.000334	3.344032	1.132989	-0.000134
1058	1.0517e+02	-2.1256	17.178013	0.000426	4.256040	1.441985	-0.000170
1059	1.0527e+02	-2.1689	17.048824	0.000324	3.242697	1.098656	-0.000130
1060	1.0537e+02	-2.2090	16.899450	0.000375	3.749369	1.270321	-0.000150
1061	1.0547e+02	-2.2443	16.725853	0.000436	4.357374	1.476318	-0.000174
1062	1.0557e+02	-2.2860	16.576479	0.000375	3.749369	1.270321	-0.000150
1063	1.0567e+02	-2.3197	16.435180	0.000355	3.546700	1.201655	-0.000142
1064	1.0577e+02	-2.3662	16.301954	0.000334	3.344032	1.132989	-0.000134
1065	1.0587e+02	-2.3967	16.116246	0.000466	4.661377	1.579317	-0.000187
1066	1.0597e+02	-2.4449	15.926500	0.000476	4.762712	1.613650	-0.000191
1067	1.0607e+02	-2.4801	15.769052	0.000395	3.952037	1.338986	-0.000158
1068	1.0617e+02	-2.5267	15.651975	0.000294	2.938694	0.995657	-0.000118
1069	1.0627e+02	-2.5684	15.510676	0.000355	3.546700	1.201655	-0.000142
1070	1.0637e+02	-2.6069	15.337079	0.000436	4.357374	1.476318	-0.000174
1071	1.0647e+02	-2.6374	15.228076	0.000274	2.736026	0.926991	-0.000110
1072	1.0656e+02	-2.6823	15.054479	0.000436	4.357374	1.476318	-0.000174
1073	1.0666e+02	-2.7272	14.901068	0.000385	3.850703	1.304654	-0.000154
1074	1.0676e+02	-2.7641	14.755731	0.000365	3.648034	1.235988	-0.000146
1075	1.0686e+02	-2.8010	14.586171	0.000426	4.256040	1.441985	-0.000170
1076	1.0696e+02	-2.8411	14.436797	0.000375	3.749369	1.270321	-0.000150
1077	1.0706e+02	-2.8764	14.243015	0.000486	4.864046	1.647983	-0.000195
1078	1.0716e+02	-2.9149	14.113827	0.000324	3.242697	1.098656	-0.000130
1079	1.0726e+02	-2.9582	13.952341	0.000405	4.053372	1.373319	-0.000162
1080	1.0736e+02	-3.0015	13.794893	0.000395	3.952037	1.338986	-0.000158
1081	1.0746e+02	-3.0513	13.685890	0.000274	2.736026	0.926991	-0.000110
1082	1.0756e+02	-3.0801	13.508256	0.000446	4.458709	1.510651	-0.000179
1083	1.0766e+02	-3.1234	13.326585	0.000456	4.560043	1.544984	-0.000183
1084	1.0776e+02	-3.1652	13.205471	0.000304	3.040029	1.029990	-0.000122
1085	1.0786e+02	-3.2069	13.060134	0.000365	3.648034	1.235988	-0.000146
1086	1.0796e+02	-3.2357	12.914797	0.000365	3.648034	1.235988	-0.000146
1087	1.0806e+02	-3.2774	12.749275	0.000415	4.154706	1.407652	-0.000166
1088	1.0816e+02	-3.3240	12.620086	0.000324	3.242697	1.098656	-0.000130
1089	1.0826e+02	-3.3577	12.454564	0.000415	4.154706	1.407652	-0.000166
1090	1.0836e+02	-3.3978	12.325375	0.000324	3.242697	1.098656	-0.000130
1091	1.0845e+02	-3.4427	12.155816	0.000426	4.256040	1.441985	-0.000170
1092	1.0855e+02	-3.4732	12.002405	0.000385	3.850703	1.304654	-0.000154
1093	1.0865e+02	-3.5197	11.877253	0.000314	3.141363	1.064323	-0.000126
1094	1.0875e+02	-3.5598	11.719805	0.000395	3.952037	1.338986	-0.000158
1095	1.0885e+02	-3.5999	11.530060	0.000476	4.762712	1.613650	-0.000191
1096	1.0895e+02	-3.6320	11.417020	0.000284	2.837360	0.961324	-0.000114
1097	1.0905e+02	-3.6737	11.243423	0.000436	4.357374	1.476318	-0.000174
1098	1.0915e+02	-3.7186	11.069826	0.000436	4.357374	1.476318	-0.000174
1099	1.0925e+02	-3.7587	10.948712	0.000304	3.040029	1.029990	-0.000122
1100	1.0935e+02	-3.7940	10.787227	0.000405	4.053372	1.373319	-0.000162
1101	1.0945e+02	-3.8405	10.658038	0.000324	3.242697	1.098656	-0.000130
1102	1.0955e+02	-3.8790	10.492516	0.000415	4.154706	1.407652	-0.000166
1103	1.0965e+02	-3.9223	10.339105	0.000385	3.850703	1.304654	-0.000154
1104	1.0975e+02	-3.9625	10.173582	0.000415	4.154706	1.407652	-0.000166
1105	1.0985e+02	-4.0026	10.032282	0.000355	3.546700	1.201655	-0.000142
1106	1.0995e+02	-4.0330	9.882908	0.000375	3.749369	1.270321	-0.000150
1107	1.1005e+02	-4.0780	9.757757	0.000314	3.141363	1.064323	-0.000126
1108	1.1015e+02	-4.1197	9.604346	0.000385	3.850703	1.304654	-0.000154
1109	1.1025e+02	-4.1598	9.418638	0.000466	4.661377	1.579317	-0.000187
1110	1.1035e+02	-4.2015	9.293486	0.000314	3.141363	1.064323	-0.000126
1111	1.1044e+02	-4.2288	9.107778	0.000466	4.661377	1.579317	-0.000187
1112	1.1054e+02	-4.2769	8.990701	0.000294	2.938694	0.995657	-0.000118
1113	1.1064e+02	-4.3138	8.857476	0.000334	3.344032	1.132989	-0.000134
1114	1.1074e+02	-4.3603	8.716176	0.000355	3.546700	1.201655	-0.000142
1115	1.1084e+02	-4.3940	8.546616	0.000426	4.256040	1.441985	-0.000170
1116	1.1094e+02	-4.4373	8.397242	0.000375	3.749369	1.270321	-0.000150
1117	1.1104e+02	-4.4742	8.259980	0.000345	3.445366	1.167322	-0.000138
1118	1.1114e+02	-4.5127	8.130791	0.000324	3.242697	1.098656	-0.000130
1119	1.1124e+02	-4.5560	7.981417	0.000375	3.749369	1.270321	-0.000150
1120	1.1134e+02	-4.5929	7.856266	0.000314	3.141363	1.064323	-0.000126
1121	1.1144e+02	-4.6410	7.694781	0.000405	4.053372	1.373319	-0.000162
1122	1.1154e+02	-4.6731	7.565592	0.000324	3.242697	1.098656	-0.000130
1123	1.1164e+02	-4.7245	7.400070	0.000415	4.154706	1.407652	-0.000166
1124	1.1174e+02	-4.7549	7.291067	0.000274	2.736026	0.926991	-0.000110
1125	1.1184e+02	-4.7870	7.121507	0.000426	4.256040	1.441985	-0.000170
1126	1.1194e+02	-4.8368	6.988282	0.000334	3.344032	1.132989	-0.000134
1127	1.1204e+02	-4.8785	6.838908	0.000375	3.749369	1.270321	-0.000150
1128	1.1214e+02	-4.9090	6.701645	0.000345	3.445366	1.167322	-0.000138
1129	1.1224e+02	-4.9491	6.536123	0.000415	4.154706	1.407652	-0.000166
1130	1.1234e+02	-4.9956	6.427120	0.000274	2.736026	0.926991	-0.000110
1131	1.1244e+02	-5.0389	6.241412	0.000466	4.661377	1.579317	-0.000187
1132	1.1253e+02	-5.0742	6.083964	0.000395	3.952037	1.338986	-0.000158
1133	1.1263e+02	-5.1191	5.983035	0.000253	2.533357	0.858325	-0.000101
1134	1.1273e+02	-5.1608	5.874032	0.000274	2.736026	0.926991	-0.000110
1135	1.1283e+02	-5.1945	5.688324	0.000466	4.661377	1.579317	-0.000187
1136	1.1293e+02	-5.2234	5.542987	0.000365	3.648034	1.235988	-0.000146
1137	1.1303e+02	-5.2747	5.442059	0.000253	2.533357	0.858325	-0.000101
1138	1.1313e+02	-5.3132	5.280574	0.000405	4.053372	1.373319	-0.000162
1139	1.1323e+02	-5.3597	5.143311	0.000345	3.445366	1.167322	-0.000138
1140	1.1333e+02	-5.3806	4.969714	0.000436	4.357374	1.476318	-0.000174
1141	1.1343e+02	-5.4480	4.828414	0.000355	3.546700	1.201655	-0.000142
1142	1.1353e+02	-5.4720	4.699226	0.000324	3.242697	1.098656	-0.000130
1143	1.1363e+02	-5.5170	4.549852	0.000375	3.749369	1.270321	-0.000150
1144	1.1373e+02	-5.5555	4.388367	0.000405	4.053372	1.373319	-0.000162
1145	1.1383e+02	-5.5827	4.255141	0.000334	3.344032	1.132989	-0.000134
1146	1.1393e+02	-5.6276	4.158250	0.000243	2.432023	0.823992	-0.000097
1147	1.1403e+02	-5.6726	3.956393	0.000507	5.066715	1.716649	-0.000203
1148	1.1413e+02	-5.7127	3.875650	0.000203	2.026686	0.686660	-0.000081
1149	1.1423e+02	-5.7496	3.689942	0.000466	4.661377	1.579317	-0.000187
1150	1.1433e+02	-5.7865	3.536531	0.000385	3.850703	1.304654	-0.000154
1151	1.1442e+02	-5.8234	3.419454	0.000294	2.938694	0.995657	-0.000118
1152	1.1452e+02	-5.8763	3.274117	0.000365	3.648034	1.235988	-0.000146
1153	1.1462e+02	-5.9100	3.144929	0.000324	3.242697	1.098656	-0.000130
1154	1.1472e+02	-5.9517	3.003629	0.000355	3.546700	1.201655	-0.000142
1155	1.1482e+02	-5.9950	2.866366	0.000345	3.445366	1.167322	-0.000138
1156	1.1492e+02	-6.0351	2.712955	0.000385	3.850703	1.304654	-0.000154
1157	1.1502e+02	-6.0704	2.547433	0.000415	4.154706	1.407652	-0.000166
1158	1.1512e+02	-6.1057	2.410170	0.000345	3.445366	1.167322	-0.000138
1159	1.1522e+02	-6.1506	2.293093	0.000294	2.938694	0.995657	-0.000118
1160	1.1532e+02	-6.1955	2.159868	0.000334	3.344032	1.132989	-0.000134
1161	1.1542e+02	-6.2389	2.014531	0.000365	3.648034	1.235988	-0.000146
1162	1.1552e+02	-6.2629	1.840934	0.000436	4.357374	1.476318	-0.000174
1163	1.1562e+02	-6.3111	1.675411	0.000415	4.154706	1.407652	-0.000166
1164	1.1572e+02	-6.3496	1.570446	0.000263	2.634692	0.892658	-0.000105
1165	1.1582e+02	-6.3881	1.453369	0.000294	2.938694	0.995657	-0.000118
1166	1.1592e+02	-6.4282	1.303995	0.000375	3.749369	1.270321	-0.000150
1167	1.1602e+02	-6.4618	1.178844	0.000314	3.141363	1.064323	-0.000126
1168	1.1612e+02	-6.5052	1.021395	0.000395	3.952037	1.338986	-0.000158
1169	1.1622e+02	-6.5485	0.884133	0.000345	3.445366	1.167322	-0.000138
1170	1.1632e+02	-6.5838	0.763019	0.000304	3.040029	1.029990	-0.000122
1171	1.1642e+02	-6.6335	0.577310	0.000466	4.661377	1.579317	-0.000187
1172	1.1651e+02	-6.6688	0.452159	0.000314	3.141363	1.064323	-0.000126
1173	1.1661e+02	-6.6993	0.343157	0.000274	2.736026	0.926991	-0.000110
1174	1.1671e+02	-6.7378	0.205894	0.000345	3.445366	1.167322	-0.000138
1175	1.1681e+02	-6.7891	0.052483	0.000385	3.850703	1.304654	-0.000154
1176	1.1691e+02	-6.8244	-0.084780	0.000345	3.445366	1.167322	-0.000138
1177	1.1701e+02	-6.8677	-0.197820	0.000284	2.837360	0.961324	-0.000114
1178	1.1711e+02	-6.9046	-0.343157	0.000365	3.648034	1.235988	-0.000146
1179	1.1721e+02	-6.9431	-0.488493	0.000365	3.648034	1.235988	-0.000146
1180	1.1731e+02	-6.9784	-0.629793	0.000355	3.546700	1.201655	-0.000142
1181	1.1741e+02	-7.0346	-0.771093	0.000355	3.546700	1.201655	-0.000142
1182	1.1751e+02	-7.0602	-0.928541	0.000395	3.952037	1.338986	-0.000158
1183	1.1761e+02	-7.0987	-1.013321	0.000213	2.128020	0.720993	-0.000085
1184	1.1771e+02	-7.1388	-1.215178	0.000507	5.066715	1.716649	-0.000203
1185	1.1781e+02	-7.1870	-1.348403	0.000334	3.344032	1.132989	-0.000134
1186	1.1791e+02	-7.2255	-1.433183	0.000213	2.128020	0.720993	-0.000085
1187	1.1801e+02	-7.2575	-1.598706	0.000415	4.154706	1.407652	-0.000166
1188	1.1811e+02	-7.2977	-1.748080	0.000375	3.749369	1.270321	-0.000150
1189	1.1821e+02	-7.3554	-1.873231	0.000314	3.141363	1.064323	-0.000126
1190	1.1831e+02	-7.3827	-2.010494	0.000345	3.445366	1.167322	-0.000138
1191	1.1841e+02	-7.4212	-2.155830	0.000365	3.648034	1.235988	-0.000146
1192	1.1850e+02	-7.4581	-2.232536	0.000193	1.925352	0.652327	-0.000077
1193	1.1860e+02	-7.5014	-2.406133	0.000436	4.357374	1.476318	-0.000174
1194	1.1870e+02	-7.5303	-2.571655	0.000415	4.154706	1.407652	-0.000166
1195	1.1880e+02	-7.5816	-2.656435	0.000213	2.128020	0.720993	-0.000085
1196	1.1890e+02	-7.6297	-2.813884	0.000395	3.952037	1.338986	-0.000158
1197	1.1900e+02	-7.6618	-2.959220	0.000365	3.648034	1.235988	-0.000146
1198	1.1910e+02	-7.6939	-3.084372	0.000314	3.141363	1.064323	-0.000126
1199	1.1920e+02	-7.7388	-3.233746	0.000375	3.749369	1.270321	-0.000150
1200	1.1930e+02	-7.7789	-3.379083	0.000365	3.648034	1.235988	-0.000146
1201	1.1940e+02	-7.8222	-3.532494	0.000385	3.850703	1.304654	-0.000154
1202	1.1950e+02	-7.8656	-3.665719	0.000334	3.344032	1.132989	-0.000134
1203	1.1960e+02	-7.9089	-3.802982	0.000345	3.445366	1.167322	-0.000138
1204	1.1970e+02	-7.9410	-3.956393	0.000385	3.850703	1.304654	-0.000154
1205	1.1980e+02	-7.9843	-4.065396	0.000274	2.736026	0.926991	-0.000110
1206	1.1990e+02	-8.0244	-4.251104	0.000466	4.661377	1.579317	-0.000187
1207	1.2000e+02	-8.0597	-4.352032	0.000253	2.533357	0.858325	-0.000101
1208	1.2010e+02	-8.0982	-4.489295	0.000345	3.445366	1.167322	-0.000138
1209	1.2020e+02	-8.1383	-4.622520	0.000334	3.344032	1.132989	-0.000134
1210	1.2030e+02	-8.1832	-4.804192	0.000456	4.560043	1.544984	-0.000183
1211	1.2039e+02	-8.2201	-4.913194	0.000274	2.736026	0.926991	-0.000110
1212	1.2049e+02	-8.2554	-5.050457	0.000345	3.445366	1.167322	-0.000138
1213	1.2059e+02	-8.3003	-5.183682	0.000334	3.344032	1.132989	-0.000134
1214	1.2069e+02	-8.3436	-5.320945	0.000345	3.445366	1.167322	-0.000138
1215	1.2079e+02	-8.3805	-5.433985	0.000284	2.837360	0.961324	-0.000114
1216	1.2089e+02	-8.4174	-5.631804	0.000497	4.965380	1.682316	-0.000199
1217	1.2099e+02	-8.4623	-5.773104	0.000355	3.546700	1.201655	-0.000142
1218	1.2109e+02	-8.5089	-5.874032	0.000253	2.533357	0.858325	-0.000101
1219	1.2119e+02	-8.5409	-6.015332	0.000355	3.546700	1.201655	-0.000142
1220	1.2129e+02	-8.5778	-6.156632	0.000355	3.546700	1.201655	-0.000142
1221	1.2139e+02	-8.6163	-6.285820	0.000324	3.242697	1.098656	-0.000130
1222	1.2149e+02	-8.6596	-6.443269	0.000395	3.952037	1.338986	-0.000158
1223	1.2159e+02	-8.7014	-6.568420	0.000314	3.141363	1.064323	-0.000126
1224	1.2169e+02	-8.7350	-6.685497	0.000294	2.938694	0.995657	-0.000118
1225	1.2179e+02	-8.7752	-6.826797	0.000355	3.546700	1.201655	-0.000142
1226	1.2189e+02	-8.8185	-6.968096	0.000355	3.546700	1.201655	-0.000142
1227	1.2199e+02	-8.8634	-7.101322	0.000334	3.344032	1.132989	-0.000134
1228	1.2209e+02	-8.8987	-7.226473	0.000314	3.141363	1.064323	-0.000126
1229	1.2219e+02	-8.9436	-7.396033	0.000426	4.256040	1.441985	-0.000170
1230	1.2229e+02	-8.9773	-7.533295	0.000345	3.445366	1.167322	-0.000138
1231	1.2239e+02	-9.0222	-7.610001	0.000193	1.925352	0.652327	-0.000077
1232	1.2248e+02	-9.0607	-7.791672	0.000456	4.560043	1.544984	-0.000183
1233	1.2258e+02	-9.0928	-7.920860	0.000324	3.242697	1.098656	-0.000130
1234	1.2268e+02	-9.1281	-8.082346	0.000405	4.053372	1.373319	-0.000162
1235	1.2278e+02	-9.1794	-8.171163	0.000223	2.229354	0.755326	-0.000089
1236	1.2288e+02	-9.2227	-8.320537	0.000375	3.749369	1.270321	-0.000150
1237	1.2298e+02	-9.2500	-8.490096	0.000426	4.256040	1.441985	-0.000170
1238	1.2308e+02	-9.2997	-8.566802	0.000193	1.925352	0.652327	-0.000077
1239	1.2318e+02	-9.3334	-8.695990	0.000324	3.242697	1.098656	-0.000130
1240	1.2328e+02	-9.3719	-8.837290	0.000355	3.546700	1.201655	-0.000142
1241	1.2338e+02	-9.4120	-8.994738	0.000395	3.952037	1.338986	-0.000158
1242	1.2348e+02	-9.4505	-9.123927	0.000324	3.242697	1.098656	-0.000130
1243	1.2358e+02	-9.4987	-9.257152	0.000334	3.344032	1.132989	-0.000134
1244	1.2368e+02	-9.5340	-9.341932	0.000213	2.128020	0.720993	-0.000085
1245	1.2378e+02	-9.5741	-9.503418	0.000405	4.053372	1.373319	-0.000162
1246	1.2388e+02	-9.6190	-9.644717	0.000355	3.546700	1.201655	-0.000142
1247	1.2398e+02	-9.6527	-9.786017	0.000355	3.546700	1.201655	-0.000142
1248	1.2408e+02	-9.6944	-9.943465	0.000395	3.952037	1.338986	-0.000158
1249	1.2418e+02	-9.7313	-10.068617	0.000314	3.141363	1.064323	-0.000126
1250	1.2428e+02	-9.7730	-10.189731	0.000304	3.040029	1.029990	-0.000122
1251	1.2438e+02	-9.8035	-10.347179	0.000395	3.952037	1.338986	-0.000158
1252	1.2447e+02	-9.8548	-10.456182	0.000274	2.736026	0.926991	-0.000110
1253	1.2457e+02	-9.8917	-10.585370	0.000324	3.242697	1.098656	-0.000130
1254	1.2467e+02	-9.9350	-10.694373	0.000274	2.736026	0.926991	-0.000110
1255	1.2477e+02	-9.9751	-10.851821	0.000395	3.952037	1.338986	-0.000158
1256	1.2487e+02	-10.0200	-10.993121	0.000355	3.546700	1.201655	-0.000142
1257	1.2497e+02	-10.0553	-11.098086	0.000263	2.634692	0.892658	-0.000105
1258	1.2507e+02	-10.1019	-11.251497	0.000385	3.850703	1.304654	-0.000154
1259	1.2517e+02	-10.1323	-11.388760	0.000345	3.445366	1.167322	-0.000138
1260	1.2527e+02	-10.1708	-11.526023	0.000345	3.445366	1.167322	-0.000138
1261	1.2537e+02	-10.2109	-11.643099	0.000294	2.938694	0.995657	-0.000118
1262	1.2547e+02	-10.2478	-11.796511	0.000385	3.850703	1.304654	-0.000154
1263	1.2557e+02	-10.2895	-11.941848	0.000365	3.648034	1.235988	-0.000146
1264	1.2567e+02	-10.3329	-12.050850	0.000274	2.736026	0.926991	-0.000110
1265	1.2577e+02	-10.3778	-12.192150	0.000355	3.546700	1.201655	-0.000142
1266	1.2587e+02	-10.4147	-12.329413	0.000345	3.445366	1.167322	-0.000138
1267	1.2597e+02	-10.4468	-12.454564	0.000314	3.141363	1.064323	-0.000126
1268	1.2607e+02	-10.4965	-12.587789	0.000334	3.344032	1.132989	-0.000134
1269	1.2617e+02	-10.5270	-12.712940	0.000314	3.141363	1.064323	-0.000126
1270	1.2627e+02	-10.5735	-12.858277	0.000365	3.648034	1.235988	-0.000146
1271	1.2636e+02	-10.6088	-12.987466	0.000324	3.242697	1.098656	-0.000130
1272	1.2646e+02	-10.6505	-13.124728	0.000345	3.445366	1.167322	-0.000138
1273	1.2656e+02	-10.6986	-13.241805	0.000294	2.938694	0.995657	-0.000118
1274	1.2666e+02	-10.7275	-13.370994	0.000324	3.242697	1.098656	-0.000130
1275	1.2676e+02	-10.7756	-13.492108	0.000304	3.040029	1.029990	-0.000122
1276	1.2686e+02	-10.8061	-13.633407	0.000355	3.546700	1.201655	-0.000142
1277	1.2696e+02	-10.8526	-13.774707	0.000355	3.546700	1.201655	-0.000142
1278	1.2706e+02	-10.8863	-13.907933	0.000334	3.344032	1.132989	-0.000134
1279	1.2716e+02	-10.9184	-14.029047	0.000304	3.040029	1.029990	-0.000122
1280	1.2726e+02	-10.9697	-14.117864	0.000223	2.229354	0.755326	-0.000089
1281	1.2736e+02	-11.0098	-14.307609	0.000476	4.762712	1.613650	-0.000191
1282	1.2746e+02	-11.0548	-14.412575	0.000263	2.634692	0.892658	-0.000105
1283	1.2756e+02	-11.0933	-14.545800	0.000334	3.344032	1.132989	-0.000134
1284	1.2766e+02	-11.1286	-14.674988	0.000324	3.242697	1.098656	-0.000130
1285	1.2776e+02	-11.1751	-14.808214	0.000334	3.344032	1.132989	-0.000134
1286	1.2786e+02	-11.2056	-14.933365	0.000314	3.141363	1.064323	-0.000126
1287	1.2796e+02	-11.2441	-15.050442	0.000294	2.938694	0.995657	-0.000118
1288	1.2806e+02	-11.2906	-15.143296	0.000233	2.330689	0.789659	-0.000093
1289	1.2816e+02	-11.3323	-15.284596	0.000355	3.546700	1.201655	-0.000142
1290	1.2826e+02	-11.3676	-15.442044	0.000395	3.952037	1.338986	-0.000158
1291	1.2835e+02	-11.4109	-15.571233	0.000324	3.242697	1.098656	-0.000130
1292	1.2845e+02	-11.4414	-15.631790	0.000152	1.520014	0.514995	-0.000061
1293	1.2855e+02	-11.4879	-15.801349	0.000426	4.256040	1.441985	-0.000170
1294	1.2865e+02	-11.5264	-15.910352	0.000274	2.736026	0.926991	-0.000110
1295	1.2875e+02	-11.5601	-16.096060	0.000466	4.661377	1.579317	-0.000187
1296	1.2885e+02	-11.6066	-16.241397	0.000365	3.648034	1.235988	-0.000146
1297	1.2895e+02	-11.6467	-16.297917	0.000142	1.418680	0.480662	-0.000057
1298	1.2905e+02	-11.6852	-16.443254	0.000365	3.648034	1.235988	-0.000146
1299	1.2915e+02	-11.7173	-16.584554	0.000355	3.546700	1.201655	-0.000142
1300	1.2925e+02	-11.7574	-16.693556	0.000274	2.736026	0.926991	-0.000110
1301	1.2935e+02	-11.8039	-16.822745	0.000324	3.242697	1.098656	-0.000130
1302	1.2945e+02	-11.8473	-16.960007	0.000345	3.445366	1.167322	-0.000138
1303	1.2955e+02	-11.8890	-17.101307	0.000355	3.546700	1.201655	-0.000142
1304	1.2965e+02	-11.9275	-17.218384	0.000294	2.938694	0.995657	-0.000118
1305	1.2975e+02	-11.9580	-17.311238	0.000233	2.330689	0.789659	-0.000093
1306	1.2985e+02	-12.0061	-17.456575	0.000365	3.648034	1.235988	-0.000146
1307	1.2995e+02	-12.0478	-17.597875	0.000355	3.546700	1.201655	-0.000142
1308	1.3005e+02	-12.0815	-17.710914	0.000284	2.837360	0.961324	-0.000114
1309	1.3015e+02	-12.1264	-17.864326	0.000385	3.850703	1.304654	-0.000154
1310	1.3025e+02	-12.1601	-17.957180	0.000233	2.330689	0.789659	-0.000093
1311	1.3034e+02	-12.2066	-18.110591	0.000385	3.850703	1.304654	-0.000154
1312	1.3044e+02	-12.2499	-18.255928	0.000365	3.648034	1.235988	-0.000146
1313	1.3054e+02	-12.2852	-18.360893	0.000263	2.634692	0.892658	-0.000105
1314	1.3064e+02	-12.3269	-18.490082	0.000324	3.242697	1.098656	-0.000130
1315	1.3074e+02	-12.3670	-18.615233	0.000314	3.141363	1.064323	-0.000126
1316	1.3084e+02	-12.4007	-18.728273	0.000284	2.837360	0.961324	-0.000114
1317	1.3094e+02	-12.4440	-18.869572	0.000355	3.546700	1.201655	-0.000142
1318	1.3104e+02	-12.4857	-18.982612	0.000284	2.837360	0.961324	-0.000114
1319	1.3114e+02	-12.5210	-19.059318	0.000193	1.925352	0.652327	-0.000077
1320	1.3124e+02	-12.5692	-19.240989	0.000456	4.560043	1.544984	-0.000183
1321	1.3134e+02	-12.6093	-19.345954	0.000263	2.634692	0.892658	-0.000105
1322	1.3144e+02	-12.6430	-19.467069	0.000304	3.040029	1.029990	-0.000122
1323	1.3154e+02	-12.6815	-19.612405	0.000365	3.648034	1.235988	-0.000146
1324	1.3164e+02	-12.7248	-19.745631	0.000334	3.344032	1.132989	-0.000134
1325	1.3174e+02	-12.7745	-19.822336	0.000193	1.925352	0.652327	-0.000077
1326	1.3184e+02	-12.8018	-20.012082	0.000476	4.762712	1.613650	-0.000191
1327	1.3194e+02	-12.8451	-20.113010	0.000253	2.533357	0.858325	-0.000101
1328	1.3204e+02	-12.8820	-20.213939	0.000253	2.533357	0.858325	-0.000101
1329	1.3214e+02	-12.9173	-20.371387	0.000395	3.952037	1.338986	-0.000158
1330	1.3224e+02	-12.9638	-20.484427	0.000284	2.837360	0.961324	-0.000114
1331	1.3234e+02	-12.9943	-20.577281	0.000233	2.330689	0.789659	-0.000093
1332	1.3243e+02	-13.0440	-20.702432	0.000314	3.141363	1.064323	-0.000126
1333	1.3253e+02	-13.0793	-20.847769	0.000365	3.648034	1.235988	-0.000146
1334	1.3263e+02	-13.1146	-21.017329	0.000426	4.256040	1.441985	-0.000170
1335	1.3273e+02	-13.1595	-21.138443	0.000304	3.040029	1.029990	-0.000122
1336	1.3283e+02	-13.2060	-21.203037	0.000162	1.621349	0.549328	-0.000065
1337	1.3293e+02	-13.2478	-21.352411	0.000375	3.749369	1.270321	-0.000150
1338	1.3303e+02	-13.2927	-21.465451	0.000284	2.837360	0.961324	-0.000114
1339	1.3313e+02	-13.3199	-21.622899	0.000395	3.952037	1.338986	-0.000158
1340	1.3323e+02	-13.3633	-21.731902	0.000274	2.736026	0.926991	-0.000110
1341	1.3333e+02	-13.3921	-21.857053	0.000314	3.141363	1.064323	-0.000126
1342	1.3343e+02	-13.4451	-22.014501	0.000395	3.952037	1.338986	-0.000158
1343	1.3353e+02	-13.4836	-22.107355	0.000233	2.330689	0.789659	-0.000093
1344	1.3363e+02	-13.5221	-22.224432	0.000294	2.938694	0.995657	-0.000118
1345	1.3373e+02	-13.5590	-22.349583	0.000314	3.141363	1.064323	-0.000126
1346	1.3383e+02	-13.5943	-22.519143	0.000426	4.256040	1.441985	-0.000170
1347	1.3393e+02	-13.6392	-22.599886	0.000203	2.026686	0.686660	-0.000081
1348	1.3403e+02	-13.6777	-22.765408	0.000415	4.154706	1.407652	-0.000166
1349	1.3413e+02	-13.7178	-22.838077	0.000182	1.824017	0.617994	-0.000073
1350	1.3423e+02	-13.7563	-22.967265	0.000324	3.242697	1.098656	-0.000130
1351	1.3432e+02	-13.7996	-23.080305	0.000284	2.837360	0.961324	-0.000114
1352	1.3442e+02	-13.8381	-23.241790	0.000405	4.053372	1.373319	-0.000162
1353	1.3452e+02	-13.8766	-23.314459	0.000182	1.824017	0.617994	-0.000073
1354	1.3462e+02	-13.9167	-23.471907	0.000395	3.952037	1.338986	-0.000158
1355	1.3472e+02	-13.9600	-23.580910	0.000274	2.736026	0.926991	-0.000110
1356	1.3482e+02	-13.9985	-23.714135	0.000334	3.344032	1.132989	-0.000134
1357	1.3492e+02	-14.0435	-23.851398	0.000345	3.445366	1.167322	-0.000138
1358	1.3502e+02	-14.0820	-23.944252	0.000233	2.330689	0.789659	-0.000093
1359	1.3512e+02	-14.1285	-24.069403	0.000314	3.141363	1.064323	-0.000126
1360	1.3522e+02	-14.1525	-24.190517	0.000304	3.040029	1.029990	-0.000122
1361	1.3532e+02	-14.2007	-24.323743	0.000334	3.344032	1.132989	-0.000134
1362	1.3542e+02	-14.2376	-24.420634	0.000243	2.432023	0.823992	-0.000097
1363	1.3552e+02	-14.2793	-24.570008	0.000375	3.749369	1.270321	-0.000150
1364	1.3562e+02	-14.3178	-24.711308	0.000355	3.546700	1.201655	-0.000142
1365	1.3572e+02	-14.3611	-24.812236	0.000253	2.533357	0.858325	-0.000101
1366	1.3582e+02	-14.3964	-24.913165	0.000253	2.533357	0.858325	-0.000101
1367	1.3592e+02	-14.4365	-25.058502	0.000365	3.648034	1.235988	-0.000146
1368	1.3602e+02	-14.4718	-25.207876	0.000375	3.749369	1.270321	-0.000150
1369	1.3612e+02	-14.5135	-25.308804	0.000253	2.533357	0.858325	-0.000101
1370	1.3622e+02	-14.5632	-25.450104	0.000355	3.546700	1.201655	-0.000142
1371	1.3631e+02	-14.5937	-25.551032	0.000253	2.533357	0.858325	-0.000101
1372	1.3641e+02	-14.6354	-25.728666	0.000446	4.458709	1.510651	-0.000179
1373	1.3651e+02	-14.6771	-25.797297	0.000172	1.722683	0.583661	-0.000069
1374	1.3661e+02	-14.7156	-25.930523	0.000334	3.344032	1.132989	-0.000134
1375	1.3671e+02	-14.7589	-26.055674	0.000314	3.141363	1.064323	-0.000126
1376	1.3681e+02	-14.7878	-26.168714	0.000284	2.837360	0.961324	-0.000114
1377	1.3691e+02	-14.8408	-26.314051	0.000365	3.648034	1.235988	-0.000146
1378	1.3701e+02	-14.8777	-26.471499	0.000395	3.952037	1.338986	-0.000158
1379	1.3711e+02	-14.9129	-26.540130	0.000172	1.722683	0.583661	-0.000069
1380	1.3721e+02	-14.9627	-26.685467	0.000365	3.648034	1.235988	-0.000146
1381	1.3731e+02	-14.9996	-26.818693	0.000334	3.344032	1.132989	-0.000134
1382	1.3741e+02	-15.0301	-26.955955	0.000345	3.445366	1.167322	-0.000138
1383	1.3751e+02	-15.0766	-27.064958	0.000274	2.736026	0.926991	-0.000110
1384	1.3761e+02	-15.1119	-27.165886	0.000253	2.533357	0.858325	-0.000101
1385	1.3771e+02	-15.1536	-27.299112	0.000334	3.344032	1.132989	-0.000134
1386	1.3781e+02	-15.1905	-27.456560	0.000395	3.952037	1.338986	-0.000158
1387	1.3791e+02	-15.2322	-27.549414	0.000233	2.330689	0.789659	-0.000093
1388	1.3801e+02	-15.2723	-27.727048	0.000446	4.458709	1.510651	-0.000179
1389	1.3811e+02	-15.3092	-27.803754	0.000193	1.925352	0.652327	-0.000077
1390	1.3821e+02	-15.3477	-27.941016	0.000345	3.445366	1.167322	-0.000138
1391	1.3831e+02	-15.3942	-28.062131	0.000304	3.040029	1.029990	-0.000122
1392	1.3840e+02	-15.4279	-28.183245	0.000304	3.040029	1.029990	-0.000122
1393	1.3850e+02	-15.4760	-28.324544	0.000355	3.546700	1.201655	-0.000142
1394	1.3860e+02	-15.5033	-28.461807	0.000345	3.445366	1.167322	-0.000138
1395	1.3870e+02	-15.5595	-28.546587	0.000213	2.128020	0.720993	-0.000085
1396	1.3880e+02	-15.5931	-28.695961	0.000375	3.749369	1.270321	-0.000150
1397	1.3890e+02	-15.6284	-28.813038	0.000294	2.938694	0.995657	-0.000118
1398	1.3900e+02	-15.6750	-28.918003	0.000263	2.634692	0.892658	-0.000105
1399	1.3910e+02	-15.7279	-29.087563	0.000426	4.256040	1.441985	-0.000170
1400	1.3920e+02	-15.7568	-29.156194	0.000172	1.722683	0.583661	-0.000069
1401	1.3930e+02	-15.7905	-29.321717	0.000415	4.154706	1.407652	-0.000166
1402	1.3940e+02	-15.8322	-29.410534	0.000223	2.229354	0.755326	-0.000089
1403	1.3950e+02	-15.8627	-29.567982	0.000395	3.952037	1.338986	-0.000158
1404	1.3960e+02	-15.9076	-29.664873	0.000243	2.432023	0.823992	-0.000097
1405	1.3970e+02	-15.9541	-29.802136	0.000345	3.445366	1.167322	-0.000138
1406	1.3980e+02	-15.9926	-29.951510	0.000375	3.749369	1.270321	-0.000150
1407	1.3990e+02	-16.0247	-30.064550	0.000284	2.837360	0.961324	-0.000114
1408	1.4000e+02	-16.0632	-30.201812	0.000345	3.445366	1.167322	-0.000138
1409	1.4010e+02	-16.1225	-30.318889	0.000294	2.938694	0.995657	-0.000118
1410	1.4020e+02	-16.1514	-30.448078	0.000324	3.242697	1.098656	-0.000130
1411	1.4029e+02	-16.1915	-30.549006	0.000253	2.533357	0.858325	-0.000101
1412	1.4039e+02	-16.2380	-30.662046	0.000284	2.837360	0.961324	-0.000114
1413	1.4049e+02	-16.2717	-30.847754	0.000466	4.661377	1.579317	-0.000187
1414	1.4059e+02	-16.3118	-30.940608	0.000233	2.330689	0.789659	-0.000093
1415	1.4069e+02	-16.3455	-31.114205	0.000436	4.357374	1.476318	-0.000174
1416	1.4079e+02	-16.3904	-31.203022	0.000223	2.229354	0.755326	-0.000089
1417	1.4089e+02	-16.4241	-31.356433	0.000385	3.850703	1.304654	-0.000154
1418	1.4099e+02	-16.4626	-31.513882	0.000395	3.952037	1.338986	-0.000158
1419	1.4109e+02	-16.5076	-31.622884	0.000274	2.736026	0.926991	-0.000110
1420	1.4119e+02	-16.5525	-31.768221	0.000365	3.648034	1.235988	-0.000146
1421	1.4129e+02	-16.5862	-31.881261	0.000284	2.837360	0.961324	-0.000114
1422	1.4139e+02	-16.6247	-32.030635	0.000375	3.749369	1.270321	-0.000150
1423	1.4149e+02	-16.6744	-32.139638	0.000274	2.736026	0.926991	-0.000110
1424	1.4159e+02	-16.7065	-32.272863	0.000334	3.344032	1.132989	-0.000134
1425	1.4169e+02	-16.7418	-32.426274	0.000385	3.850703	1.304654	-0.000154
1426	1.4179e+02	-16.7979	-32.587760	0.000405	4.053372	1.373319	-0.000162
1427	1.4189e+02	-16.8316	-32.700799	0.000284	2.837360	0.961324	-0.000114
1428	1.4199e+02	-16.8589	-32.842099	0.000355	3.546700	1.201655	-0.000142
1429	1.4209e+02	-16.8990	-32.995510	0.000385	3.850703	1.304654	-0.000154
1430	1.4219e+02	-16.9423	-33.161033	0.000415	4.154706	1.407652	-0.000166
1431	1.4228e+02	-16.9872	-33.302333	0.000355	3.546700	1.201655	-0.000142
1432	1.4238e+02	-17.0193	-33.435558	0.000334	3.344032	1.132989	-0.000134
1433	1.4248e+02	-17.0658	-33.609155	0.000436	4.357374	1.476318	-0.000174
1434	1.4258e+02	-17.1011	-33.714121	0.000263	2.634692	0.892658	-0.000105
1435	1.4268e+02	-17.1492	-33.883680	0.000426	4.256040	1.441985	-0.000170
1436	1.4278e+02	-17.1926	-34.061314	0.000446	4.458709	1.510651	-0.000179
1437	1.4288e+02	-17.2214	-34.150131	0.000223	2.229354	0.755326	-0.000089
1438	1.4298e+02	-17.2648	-34.376211	0.000567	5.674720	1.922647	-0.000227
1439	1.4308e+02	-17.3113	-34.565956	0.000476	4.762712	1.613650	-0.000191
1440	1.4318e+02	-17.3434	-34.662847	0.000243	2.432023	0.823992	-0.000097
1441	1.4328e+02	-17.3835	-34.884890	0.000557	5.573386	1.888314	-0.000223
1442	1.4338e+02	-17.4204	-34.981781	0.000243	2.432023	0.823992	-0.000097
1443	1.4348e+02	-17.4653	-35.163452	0.000456	4.560043	1.544984	-0.000183
1444	1.4358e+02	-17.5070	-35.349161	0.000466	4.661377	1.579317	-0.000187
1445	1.4368e+02	-17.5423	-35.486423	0.000345	3.445366	1.167322	-0.000138
1446	1.4378e+02	-17.5792	-35.607537	0.000304	3.040029	1.029990	-0.000122
1447	1.4388e+02	-17.6241	-35.793245	0.000466	4.661377	1.579317	-0.000187
1448	1.4398e+02	-17.6642	-35.982991	0.000476	4.762712	1.613650	-0.000191
1449	1.4408e+02	-17.7075	-36.168699	0.000466	4.661377	1.579317	-0.000187
1450	1.4418e+02	-17.7396	-36.334222	0.000415	4.154706	1.407652	-0.000166
1451	1.4428e+02	-17.7877	-36.507818	0.000436	4.357374	1.476318	-0.000174
1452	1.4437e+02	-17.8278	-36.649118	0.000355	3.546700	1.201655	-0.000142
1453	1.4447e+02	-17.8663	-36.814641	0.000415	4.154706	1.407652	-0.000166
1454	1.4457e+02	-17.9032	-36.972089	0.000395	3.952037	1.338986	-0.000158
1455	1.4467e+02	-17.9401	-37.165872	0.000486	4.864046	1.647983	-0.000195
1456	1.4477e+02	-17.9802	-37.359654	0.000486	4.864046	1.647983	-0.000195
1457	1.4487e+02	-18.0300	-37.517102	0.000395	3.952037	1.338986	-0.000158
1458	1.4497e+02	-18.0621	-37.735108	0.000547	5.472052	1.853981	-0.000219
1459	1.4507e+02	-18.1054	-37.888519	0.000385	3.850703	1.304654	-0.000154
1460	1.4517e+02	-18.1407	-38.066153	0.000446	4.458709	1.510651	-0.000179
1461	1.4527e+02	-18.1840	-38.263973	0.000497	4.965380	1.682316	-0.000199
1462	1.4537e+02	-18.2321	-38.465829	0.000507	5.066715	1.716649	-0.000203
1463	1.4547e+02	-18.2578	-38.655575	0.000476	4.762712	1.613650	-0.000191
1464	1.4557e+02	-18.3043	-38.841283	0.000466	4.661377	1.579317	-0.000187
1465	1.4567e+02	-18.3364	-38.986620	0.000365	3.648034	1.235988	-0.000146
1466	1.4577e+02	-18.3861	-39.208662	0.000557	5.573386	1.888314	-0.000223
1467	1.4587e+02	-18.4198	-39.406482	0.000497	4.965380	1.682316	-0.000199
1468	1.4597e+02	-18.4567	-39.592190	0.000466	4.661377	1.579317	-0.000187
1469	1.4607e+02	-18.5032	-39.822307	0.000578	5.776055	1.956980	-0.000231
1470	1.4617e+02	-18.5369	-39.971681	0.000375	3.749369	1.270321	-0.000150
1471	1.4626e+02	-18.5786	-40.165463	0.000486	4.864046	1.647983	-0.000195
1472	1.4636e+02	-18.6251	-40.391543	0.000567	5.674720	1.922647	-0.000227
1473	1.4646e+02	-18.6604	-40.593400	0.000507	5.066715	1.716649	-0.000203
1474	1.4656e+02	-18.7134	-40.815442	0.000557	5.573386	1.888314	-0.000223
1475	1.4666e+02	-18.7390	-41.013262	0.000497	4.965380	1.682316	-0.000199
1476	1.4676e+02	-18.7743	-41.267602	0.000638	6.384060	2.162978	-0.000256
1477	1.4686e+02	-18.8225	-41.453310	0.000466	4.661377	1.579317	-0.000187
1478	1.4696e+02	-18.8626	-41.663241	0.000527	5.269383	1.785315	-0.000211
1479	1.4706e+02	-18.9059	-41.848949	0.000466	4.661377	1.579317	-0.000187
1480	1.4716e+02	-18.9412	-42.103289	0.000638	6.384060	2.162978	-0.000256
1481	1.4726e+02	-18.9749	-42.284960	0.000456	4.560043	1.544984	-0.000183
1482	1.4736e+02	-19.0214	-42.551411	0.000669	6.688063	2.265977	-0.000268
1483	1.4746e+02	-19.0535	-42.753267	0.000507	5.066715	1.716649	-0.000203
1484	1.4756e+02	-19.0920	-42.991458	0.000598	5.978723	2.025646	-0.000239
1485	1.4766e+02	-19.1321	-43.201390	0.000527	5.269383	1.785315	-0.000211
1486	1.4776e+02	-19.1802	-43.423432	0.000557	5.573386	1.888314	-0.000223
1487	1.4786e+02	-19.2171	-43.653549	0.000578	5.776055	1.956980	-0.000231
1488	1.4796e+02	-19.2668	-43.907888	0.000638	6.384060	2.162978	-0.000256
1489	1.4806e+02	-19.2925	-44.125894	0.000547	5.472052	1.853981	-0.000219
1490	1.4816e+02	-19.3358	-44.343899	0.000547	5.472052	1.853981	-0.000219
1491	1.4825e+02	-19.3791	-44.590164	0.000618	6.181392	2.094312	-0.000248
1492	1.4835e+02	-19.4096	-44.820281	0.000578	5.776055	1.956980	-0.000231
1493	1.4845e+02	-19.4609	-45.086732	0.000669	6.688063	2.265977	-0.000268
1494	1.4855e+02	-19.5043	-45.337034	0.000628	6.282726	2.128645	-0.000252
1495	1.4865e+02	-19.5347	-45.546965	0.000527	5.269383	1.785315	-0.000211
1496	1.4875e+02	-19.5748	-45.821491	0.000689	6.890732	2.334643	-0.000276
1497	1.4885e+02	-19.6117	-46.023347	0.000507	5.066715	1.716649	-0.000203
1498	1.4895e+02	-19.6454	-46.293836	0.000679	6.789397	2.300310	-0.000272
1499	1.4905e+02	-19.6952	-46.544138	0.000628	6.282726	2.128645	-0.000252
1500	1.4915e+02	-19.7385	-46.810589	0.000669	6.688063	2.265977	-0.000268
1501	1.4925e+02	-19.7770	-47.073003	0.000659	6.586729	2.231644	-0.000264
1502	1.4935e+02	-19.8010	-47.327342	0.000638	6.384060	2.162978	-0.000256
1503	1.4945e+02	-19.8572	-47.593793	0.000669	6.688063	2.265977	-0.000268
1504	1.4955e+02	-19.8829	-47.831984	0.000598	5.978723	2.025646	-0.000239
1505	1.4965e+02	-19.9310	-48.045952	0.000537	5.370717	1.819648	-0.000215
1506	1.4975e+02	-19.9759	-48.348738	0.000760	7.600072	2.574974	-0.000304
1507	1.4985e+02	-20.0144	-48.639411	0.000730	7.296069	2.471975	-0.000292
1508	1.4995e+02	-19.9775	-48.720154	-0.000203	-2.026686	-0.686660	-0.000081
1509	1.5005e+02	-19.9278	-48.792823	-0.000182	-1.824017	-0.617994	-0.000073
1510	1.5015e+02	-19.8845	-48.849342	-0.000142	-1.418680	-0.480662	-0.000057
1511	1.5025e+02	-19.8620	-48.845305	0.000010	0.101334	0.034333	0.000004
1512	1.5034e+02	-19.8091	-48.865491	-0.000051	-0.506671	-0.171665	-0.000020
1513	1.5044e+02	-19.7690	-48.917974	-0.000132	-1.317346	-0.446329	-0.000053
1514	1.5054e+02	-19.7273	-48.857417	0.000152	1.520014	0.514995	0.000061
1515	1.5064e+02	-19.6855	-48.913937	-0.000142	-1.418680	-0.480662	-0.000057
1516	1.5074e+02	-19.6567	-48.861454	0.000132	1.317346	0.446329	0.000053
1517	1.5084e+02	-19.6166	-48.821082	0.000101	1.013343	0.343330	0.000041
1518	1.5094e+02	-19.5797	-48.845305	-0.000061	-0.608006	-0.205998	-0.000024
1519	1.5104e+02	-19.5380	-48.833194	0.000030	0.304003	0.102999	0.000012
1520	1.5114e+02	-19.5011	-48.808971	0.000061	0.608006	0.205998	0.000024
1521	1.5124e+02	-19.4577	-48.804934	0.000010	0.101334	0.034333	0.000004
1522	1.5134e+02	-19.4064	-48.736303	0.000172	1.722683	0.583661	0.000069
1523	1.5144e+02	-19.3727	-48.708043	0.000071	0.709340	0.240331	0.000028
1524	1.5154e+02	-19.3326	-48.635374	0.000182	1.824017	0.617994	0.000073
1525	1.5164e+02	-19.2957	-48.574817	0.000152	1.520014	0.514995	0.000061
1526	1.5174e+02	-19.2652	-48.574817	0.000000	0.000000	0.000000	0.000000
1527	1.5184e+02	-19.2155	-48.510223	0.000162	1.621349	0.549328	0.000065
1528	1.5194e+02	-19.1818	-48.445629	0.000162	1.621349	0.549328	0.000065
1529	1.5204e+02	-19.1449	-48.429480	0.000041	0.405337	0.137332	0.000016
1530	1.5214e+02	-19.0823	-48.340663	0.000223	2.229354	0.755326	0.000089
1531	1.5224e+02	-19.0583	-48.296255	0.000111	1.114677	0.377663	0.000045
1532	1.5233e+02	-19.0182	-48.227624	0.000172	1.722683	0.583661	0.000069
1533	1.5243e+02	-18.9733	-48.171104	0.000142	1.418680	0.480662	0.000057
1534	1.5253e+02	-18.9396	-48.102472	0.000172	1.722683	0.583661	0.000069
1535	1.5263e+02	-18.9011	-48.086324	0.000041	0.405337	0.137332	0.000016
1536	1.5273e+02	-18.8545	-47.993470	0.000233	2.330689	0.789659	0.000093
1537	1.5283e+02	-18.8241	-47.949061	0.000111	1.114677	0.377663	0.000045
1538	1.5293e+02	-18.7824	-47.868318	0.000203	2.026686	0.686660	0.000081
1539	1.5303e+02	-18.7358	-47.819873	0.000122	1.216011	0.411996	0.000049
1540	1.5313e+02	-18.7054	-47.751242	0.000172	1.722683	0.583661	0.000069
1541	1.5323e+02	-18.6604	-47.662425	0.000223	2.229354	0.755326	0.000089
1542	1.5333e+02	-18.6251	-47.613979	0.000122	1.216011	0.411996	0.000049
1543	1.5343e+02	-18.5818	-47.589756	0.000061	0.608006	0.205998	0.000024
1544	1.5353e+02	-18.5481	-47.476716	0.000284	2.837360	0.961324	0.000114
1545	1.5363e+02	-18.5032	-47.404048	0.000182	1.824017	0.617994	0.000073
1546	1.5373e+02	-18.4583	-47.359639	0.000111	1.114677	0.377663	0.000045
1547	1.5383e+02	-18.4262	-47.307157	0.000132	1.317346	0.446329	0.000053
1548	1.5393e+02	-18.3877	-47.210265	0.000243	2.432023	0.823992	0.000097
1549	1.5403e+02	-18.3460	-47.137597	0.000182	1.824017	0.617994	0.000073
1550	1.5413e+02	-18.2995	-47.056854	0.000203	2.026686	0.686660	0.000081
1551	1.5422e+02	-18.2642	-47.008409	0.000122	1.216011	0.411996	0.000049
1552	1.5432e+02	-18.2225	-46.923629	0.000213	2.128020	0.720993	0.000085
1553	1.5442e+02	-18.1744	-46.822700	0.000253	2.533357	0.858325	0.000101
1554	1.5452e+02	-18.1391	-46.798477	0.000061	0.608006	0.205998	0.000024
1555	1.5462e+02	-18.0974	-46.701586	0.000243	2.432023	0.823992	0.000097
1556	1.5472e+02	-18.0588	-46.608732	0.000233	2.330689	0.789659	0.000093
1557	1.5482e+02	-18.0252	-46.487618	0.000304	3.040029	1.029990	0.000122
1558	1.5492e+02	-17.9867	-46.418987	0.000172	1.722683	0.583661	0.000069
1559	1.5502e+02	-17.9385	-46.406875	0.000030	0.304003	0.102999	0.000012
1560	1.5512e+02	-17.9032	-46.309984	0.000243	2.432023	0.823992	0.000097
1561	1.5522e+02	-17.8663	-46.213093	0.000243	2.432023	0.823992	0.000097
1562	1.5532e+02	-17.8214	-46.112164	0.000253	2.533357	0.858325	0.000101
1563	1.5542e+02	-17.7877	-46.075830	0.000091	0.912009	0.308997	0.000037
1564	1.5552e+02	-17.7380	-46.003162	0.000182	1.824017	0.617994	0.000073
1565	1.5562e+02	-17.7043	-45.954716	0.000122	1.216011	0.411996	0.000049
1566	1.5572e+02	-17.6706	-45.837639	0.000294	2.938694	0.995657	0.000118
1567	1.5582e+02	-17.6161	-45.748822	0.000223	2.229354	0.755326	0.000089
1568	1.5592e+02	-17.5856	-45.655968	0.000233	2.330689	0.789659	0.000093
1569	1.5602e+02	-17.5423	-45.607522	0.000122	1.216011	0.411996	0.000049
1570	1.5612e+02	-17.5070	-45.546965	0.000152	1.520014	0.514995	0.000061
1571	1.5622e+02	-17.4589	-45.482371	0.000162	1.621349	0.549328	0.000065
1572	1.5631e+02	-17.4332	-45.369331	0.000284	2.837360	0.961324	0.000114
1573	1.5641e+02	-17.3867	-45.276477	0.000233	2.330689	0.789659	0.000093
1574	1.5651e+02	-17.3450	-45.179586	0.000243	2.432023	0.823992	0.000097
1575	1.5661e+02	-17.2984	-45.066546	0.000284	2.837360	0.961324	0.000114
1576	1.5671e+02	-17.2744	-45.034249	0.000081	0.810674	0.274664	0.000032
1577	1.5681e+02	-17.2214	-44.905061	0.000324	3.242697	1.098656	0.000130
1578	1.5691e+02	-17.1861	-44.852578	0.000132	1.317346	0.446329	0.000053
1579	1.5701e+02	-17.1525	-44.779910	0.000182	1.824017	0.617994	0.000073
1580	1.5711e+02	-17.1043	-44.654758	0.000314	3.141363	1.064323	0.000126
1581	1.5721e+02	-17.0562	-44.622461	0.000081	0.810674	0.274664	0.000032
1582	1.5731e+02	-17.0305	-44.533644	0.000223	2.229354	0.755326	0.000089
1583	1.5741e+02	-16.9872	-44.436753	0.000243	2.432023	0.823992	0.000097
1584	1.5751e+02	-16.9471	-44.376196	0.000152	1.520014	0.514995	0.000061
1585	1.5761e+02	-16.9102	-44.271231	0.000263	2.634692	0.892658	0.000105
1586	1.5771e+02	-16.8637	-44.206636	0.000162	1.621349	0.549328	0.000065
1587	1.5781e+02	-16.8284	-44.113782	0.000233	2.330689	0.789659	0.000093
1588	1.5791e+02	-16.7883	-43.996705	0.000294	2.938694	0.995657	0.000118
1589	1.5801e+02	-16.7466	-43.867517	0.000324	3.242697	1.098656	0.000130
1590	1.5811e+02	-16.7113	-43.831183	0.000091	0.912009	0.308997	0.000037
1591	1.5821e+02	-16.6744	-43.738329	0.000233	2.330689	0.789659	0.000093
1592	1.5830e+02	-16.6359	-43.653549	0.000213	2.128020	0.720993	0.000085
1593	1.5840e+02	-16.5910	-43.572806	0.000203	2.026686	0.686660	0.000081
1594	1.5850e+02	-16.5509	-43.479952	0.000233	2.330689	0.789659	0.000093
1595	1.5860e+02	-16.5124	-43.379024	0.000253	2.533357	0.858325	0.000101
1596	1.5870e+02	-16.4674	-43.290207	0.000223	2.229354	0.755326	0.000089
1597	1.5880e+02	-16.4257	-43.225612	0.000162	1.621349	0.549328	0.000065
1598	1.5890e+02	-16.3856	-43.148907	0.000193	1.925352	0.652327	0.000077
1599	1.5900e+02	-16.3519	-43.068164	0.000203	2.026686	0.686660	0.000081
1600	1.5910e+02	-16.3022	-42.979347	0.000223	2.229354	0.755326	0.000089
1601	1.5920e+02	-16.2701	-42.890530	0.000223	2.229354	0.755326	0.000089
1602	1.5930e+02	-16.2316	-42.781527	0.000274	2.736026	0.926991	0.000110
1603	1.5940e+02	-16.1771	-42.716933	0.000162	1.621349	0.549328	0.000065
1604	1.5950e+02	-16.1562	-42.624079	0.000233	2.330689	0.789659	0.000093
1605	1.5960e+02	-16.1033	-42.527188	0.000243	2.432023	0.823992	0.000097
1606	1.5970e+02	-16.0728	-42.442408	0.000213	2.128020	0.720993	0.000085
1607	1.5980e+02	-16.0359	-42.333405	0.000274	2.736026	0.926991	0.000110
1608	1.5990e+02	-15.9750	-42.280923	0.000132	1.317346	0.446329	0.000053
1609	1.6000e+02	-15.9605	-42.175957	0.000263	2.634692	0.892658	0.000105
1610	1.6010e+02	-15.8979	-42.095214	0.000203	2.026686	0.686660	0.000081
1611	1.6019e+02	-15.8723	-41.970063	0.000314	3.141363	1.064323	0.000126
1612	1.6029e+02	-15.8354	-41.905469	0.000162	1.621349	0.549328	0.000065
1613	1.6039e+02	-15.7889	-41.800503	0.000263	2.634692	0.892658	0.000105
1614	1.6049e+02	-15.7504	-41.739946	0.000152	1.520014	0.514995	0.000061
1615	1.6059e+02	-15.7135	-41.659204	0.000203	2.026686	0.686660	0.000081
1616	1.6069e+02	-15.6718	-41.558275	0.000253	2.533357	0.858325	0.000101
1617	1.6079e+02	-15.6284	-41.485607	0.000182	1.824017	0.617994	0.000073
1618	1.6089e+02	-15.5883	-41.344307	0.000355	3.546700	1.201655	0.000142
1619	1.6099e+02	-15.5562	-41.271639	0.000182	1.824017	0.617994	0.000073
1620	1.6109e+02	-15.5145	-41.170710	0.000253	2.533357	0.858325	0.000101
1621	1.6119e+02	-15.4712	-41.085930	0.000213	2.128020	0.720993	0.000085
1622	1.6129e+02	-15.4343	-40.972891	0.000284	2.837360	0.961324	0.000114
1623	1.6139e+02	-15.3910	-40.924445	0.000122	1.216011	0.411996	0.000049
1624	1.6149e+02	-15.3509	-40.787182	0.000345	3.445366	1.167322	0.000138
1625	1.6159e+02	-15.3140	-40.698365	0.000223	2.229354	0.755326	0.000089
1626	1.6169e+02	-15.2739	-40.597437	0.000253	2.533357	0.858325	0.000101
1627	1.6179e+02	-15.2370	-40.492471	0.000263	2.634692	0.892658	0.000105
1628	1.6189e+02	-15.1937	-40.403654	0.000223	2.229354	0.755326	0.000089
1629	1.6199e+02	-15.1520	-40.298689	0.000263	2.634692	0.892658	0.000105
1630	1.6209e+02	-15.1247	-40.226020	0.000182	1.824017	0.617994	0.000073
1631	1.6219e+02	-15.0798	-40.108944	0.000294	2.938694	0.995657	0.000118
1632	1.6228e+02	-15.0429	-40.028201	0.000203	2.026686	0.686660	0.000081
1633	1.6238e+02	-14.9916	-39.899012	0.000324	3.242697	1.098656	0.000130
1634	1.6248e+02	-14.9498	-39.826344	0.000182	1.824017	0.617994	0.000073
1635	1.6258e+02	-14.9081	-39.689081	0.000345	3.445366	1.167322	0.000138
1636	1.6268e+02	-14.8680	-39.628524	0.000152	1.520014	0.514995	0.000061
1637	1.6278e+02	-14.8199	-39.527596	0.000253	2.533357	0.858325	0.000101
1638	1.6288e+02	-14.7958	-39.414556	0.000284	2.837360	0.961324	0.000114
1639	1.6298e+02	-14.7509	-39.325739	0.000223	2.229354	0.755326	0.000089
1640	1.6308e+02	-14.7156	-39.224811	0.000253	2.533357	0.858325	0.000101
1641	1.6318e+02	-14.6803	-39.152142	0.000182	1.824017	0.617994	0.000073
1642	1.6328e+02	-14.6434	-39.067363	0.000213	2.128020	0.720993	0.000085
1643	1.6338e+02	-14.5969	-38.954323	0.000284	2.837360	0.961324	0.000114
1644	1.6348e+02	-14.5504	-38.841283	0.000284	2.837360	0.961324	0.000114
1645	1.6358e+02	-14.5183	-38.792837	0.000122	1.216011	0.411996	0.000049
1646	1.6368e+02	-14.4766	-38.667686	0.000314	3.141363	1.064323	0.000126
1647	1.6378e+02	-14.4365	-38.538498	0.000324	3.242697	1.098656	0.000130
1648	1.6388e+02	-14.3996	-38.494089	0.000111	1.114677	0.377663	0.000045
1649	1.6398e+02	-14.3563	-38.372975	0.000304	3.040029	1.029990	0.000122
1650	1.6408e+02	-14.3178	-38.296270	0.000193	1.925352	0.652327	0.000077
1651	1.6418e+02	-14.2873	-38.150933	0.000365	3.648034	1.235988	0.000146
1652	1.6427e+02	-14.2392	-38.066153	0.000213	2.128020	0.720993	0.000085
1653	1.6437e+02	-14.1959	-37.981373	0.000213	2.128020	0.720993	0.000085
1654	1.6447e+02	-14.1477	-37.868333	0.000284	2.837360	0.961324	0.000114
1655	1.6457e+02	-14.1108	-37.791628	0.000193	1.925352	0.652327	0.000077
1656	1.6467e+02	-14.0739	-37.642254	0.000375	3.749369	1.270321	0.000150
1657	1.6477e+02	-14.0338	-37.553437	0.000223	2.229354	0.755326	0.000089
1658	1.6487e+02	-14.0033	-37.525177	0.000071	0.709340	0.240331	0.000028
1659	1.6497e+02	-13.9697	-37.383877	0.000355	3.546700	1.201655	0.000142
1660	1.6507e+02	-13.9135	-37.286986	0.000243	2.432023	0.823992	0.000097
1661	1.6517e+02	-13.8718	-37.210280	0.000193	1.925352	0.652327	0.000077
1662	1.6527e+02	-13.8526	-37.064943	0.000365	3.648034	1.235988	0.000146
1663	1.6537e+02	-13.7900	-37.028609	0.000091	0.912009	0.308997	0.000037
1664	1.6547e+02	-13.7579	-36.883272	0.000365	3.648034	1.235988	0.000146
1665	1.6557e+02	-13.7162	-36.794455	0.000223	2.229354	0.755326	0.000089
1666	1.6567e+02	-13.6777	-36.685452	0.000274	2.736026	0.926991	0.000110
1667	1.6577e+02	-13.6376	-36.616821	0.000172	1.722683	0.583661	0.000069
1668	1.6587e+02	-13.5975	-36.503781	0.000284	2.837360	0.961324	0.000114
1669	1.6597e+02	-13.5654	-36.382667	0.000304	3.040029	1.029990	0.000122
1670	1.6607e+02	-13.5189	-36.277702	0.000263	2.634692	0.892658	0.000105
1671	1.6616e+02	-13.4868	-36.192922	0.000213	2.128020	0.720993	0.000085
1672	1.6626e+02	-13.4515	-36.059696	0.000334	3.344032	1.132989	0.000134
1673	1.6636e+02	-13.3953	-36.003177	0.000142	1.418680	0.480662	0.000057
1674	1.6646e+02	-13.3552	-35.878025	0.000314	3.141363	1.064323	0.000126
1675	1.6656e+02	-13.3167	-35.793245	0.000213	2.128020	0.720993	0.000085
1676	1.6666e+02	-13.2830	-35.688280	0.000263	2.634692	0.892658	0.000105
1677	1.6676e+02	-13.2365	-35.599463	0.000223	2.229354	0.755326	0.000089
1678	1.6686e+02	-13.2012	-35.490460	0.000274	2.736026	0.926991	0.000110
1679	1.6696e+02	-13.1675	-35.405680	0.000213	2.128020	0.720993	0.000085
1680	1.6706e+02	-13.1242	-35.268418	0.000345	3.445366	1.167322	0.000138
1681	1.6716e+02	-13.0873	-35.163452	0.000263	2.634692	0.892658	0.000105
1682	1.6726e+02	-13.0408	-35.062524	0.000253	2.533357	0.858325	0.000101
1683	1.6736e+02	-12.9975	-34.961595	0.000253	2.533357	0.858325	0.000101
1684	1.6746e+02	-12.9590	-34.856630	0.000263	2.634692	0.892658	0.000105
1685	1.6756e+02	-12.9189	-34.779924	0.000193	1.925352	0.652327	0.000077
1686	1.6766e+02	-12.8868	-34.678996	0.000253	2.533357	0.858325	0.000101
1687	1.6776e+02	-12.8339	-34.565956	0.000284	2.837360	0.961324	0.000114
1688	1.6786e+02	-12.7970	-34.460991	0.000263	2.634692	0.892658	0.000105
1689	1.6796e+02	-12.7553	-34.351988	0.000274	2.736026	0.926991	0.000110
1690	1.6806e+02	-12.7296	-34.242985	0.000274	2.736026	0.926991	0.000110
1691	1.6816e+02	-12.6750	-34.121871	0.000304	3.040029	1.029990	0.000122
1692	1.6825e+02	-12.6398	-34.037091	0.000213	2.128020	0.720993	0.000085
1693	1.6835e+02	-12.6045	-33.915977	0.000304	3.040029	1.029990	0.000122
1694	1.6845e+02	-12.5676	-33.802938	0.000284	2.837360	0.961324	0.000114
1695	1.6855e+02	-12.5226	-33.718158	0.000213	2.128020	0.720993	0.000085
1696	1.6865e+02	-12.4777	-33.621266	0.000243	2.432023	0.823992	0.000097
1697	1.6875e+02	-12.4456	-33.516301	0.000263	2.634692	0.892658	0.000105
1698	1.6885e+02	-12.3991	-33.407298	0.000274	2.736026	0.926991	0.000110
1699	1.6895e+02	-12.3686	-33.261961	0.000365	3.648034	1.235988	0.000146
1700	1.6905e+02	-12.3301	-33.205441	0.000142	1.418680	0.480662	0.000057
1701	1.6915e+02	-12.2884	-33.096439	0.000274	2.736026	0.926991	0.000110
1702	1.6925e+02	-12.2499	-32.991473	0.000263	2.634692	0.892658	0.000105
1703	1.6935e+02	-12.1986	-32.878433	0.000284	2.837360	0.961324	0.000114
1704	1.6945e+02	-12.1633	-32.781542	0.000243	2.432023	0.823992	0.000097
1705	1.6955e+02	-12.1296	-32.688688	0.000233	2.330689	0.789659	0.000093
1706	1.6965e+02	-12.0799	-32.567574	0.000304	3.040029	1.029990	0.000122
1707	1.6975e+02	-12.0414	-32.454534	0.000284	2.837360	0.961324	0.000114
1708	1.6985e+02	-12.0013	-32.373791	0.000203	2.026686	0.686660	0.000081
1709	1.6995e+02	-11.9612	-32.264789	0.000274	2.736026	0.926991	0.000110
1710	1.7005e+02	-11.9211	-32.200195	0.000162	1.621349	0.549328	0.000065
1711	1.7015e+02	-11.8826	-32.075043	0.000314	3.141363	1.064323	0.000126
1712	1.7024e+02	-11.8408	-31.949892	0.000314	3.141363	1.064323	0.000126
1713	1.7034e+02	-11.8072	-31.905484	0.000111	1.114677	0.377663	0.000045
1714	1.7044e+02	-11.7687	-31.768221	0.000345	3.445366	1.167322	0.000138
1715	1.7054e+02	-11.7302	-31.683441	0.000213	2.128020	0.720993	0.000085
1716	1.7064e+02	-11.6884	-31.546179	0.000345	3.445366	1.167322	0.000138
1717	1.7074e+02	-11.6483	-31.425065	0.000304	3.040029	1.029990	0.000122
1718	1.7084e+02	-11.6114	-31.320099	0.000263	2.634692	0.892658	0.000105
1719	1.7094e+02	-11.5729	-31.215134	0.000263	2.634692	0.892658	0.000105
1720	1.7104e+02	-11.5216	-31.094019	0.000304	3.040029	1.029990	0.000122
1721	1.7114e+02	-11.4943	-31.017314	0.000193	1.925352	0.652327	0.000077
1722	1.7124e+02	-11.4398	-30.896200	0.000304	3.040029	1.029990	0.000122
1723	1.7134e+02	-11.4045	-30.803346	0.000233	2.330689	0.789659	0.000093
1724	1.7144e+02	-11.3628	-30.706454	0.000243	2.432023	0.823992	0.000097
1725	1.7154e+02	-11.3307	-30.544969	0.000405	4.053372	1.373319	0.000162
1726	1.7164e+02	-11.2874	-30.496523	0.000122	1.216011	0.411996	0.000049
1727	1.7174e+02	-11.2425	-30.383484	0.000284	2.837360	0.961324	0.000114
1728	1.7184e+02	-11.2008	-30.258332	0.000314	3.141363	1.064323	0.000126
1729	1.7194e+02	-11.1703	-30.149330	0.000274	2.736026	0.926991	0.000110
1730	1.7204e+02	-11.1173	-30.052438	0.000243	2.432023	0.823992	0.000097
1731	1.7213e+02	-11.0949	-29.947473	0.000263	2.634692	0.892658	0.000105
1732	1.7223e+02	-11.0467	-29.862693	0.000213	2.128020	0.720993	0.000085
1733	1.7233e+02	-11.0098	-29.753690	0.000274	2.736026	0.926991	0.000110
1734	1.7243e+02	-10.9681	-29.612391	0.000355	3.546700	1.201655	0.000142
1735	1.7253e+02	-10.9361	-29.551834	0.000152	1.520014	0.514995	0.000061
1736	1.7263e+02	-10.8863	-29.414571	0.000345	3.445366	1.167322	0.000138
1737	1.7273e+02	-10.8478	-29.277308	0.000345	3.445366	1.167322	0.000138
1738	1.7283e+02	-10.8109	-29.184454	0.000233	2.330689	0.789659	0.000093
1739	1.7293e+02	-10.7692	-29.099674	0.000213	2.128020	0.720993	0.000085
1740	1.7303e+02	-10.7291	-28.982597	0.000294	2.938694	0.995657	0.000118
1741	1.7313e+02	-10.6906	-28.885706	0.000243	2.432023	0.823992	0.000097
1742	1.7323e+02	-10.6521	-28.768629	0.000294	2.938694	0.995657	0.000118
1743	1.7333e+02	-10.6104	-28.659627	0.000274	2.736026	0.926991	0.000110
1744	1.7343e+02	-10.5703	-28.510253	0.000375	3.749369	1.270321	0.000150
1745	1.7353e+02	-10.5318	-28.421436	0.000223	2.229354	0.755326	0.000089
1746	1.7363e+02	-10.4949	-28.288210	0.000334	3.344032	1.132989	0.000134
1747	1.7373e+02	-10.4452	-28.207467	0.000203	2.026686	0.686660	0.000081
1748	1.7383e+02	-10.4051	-28.110576	0.000243	2.432023	0.823992	0.000097
1749	1.7393e+02	-10.3746	-27.981388	0.000324	3.242697	1.098656	0.000130
1750	1.7403e+02	-10.3393	-27.856237	0.000314	3.141363	1.064323	0.000126
1751	1.7413e+02	-10.2944	-27.747234	0.000274	2.736026	0.926991	0.000110
1752	1.7422e+02	-10.2543	-27.638231	0.000274	2.736026	0.926991	0.000110
1753	1.7432e+02	-10.2109	-27.513080	0.000314	3.141363	1.064323	0.000126
1754	1.7442e+02	-10.1789	-27.436374	0.000193	1.925352	0.652327	0.000077
1755	1.7452e+02	-10.1275	-27.323335	0.000284	2.837360	0.961324	0.000114
1756	1.7462e+02	-10.0938	-27.226443	0.000243	2.432023	0.823992	0.000097
1757	1.7472e+02	-10.0521	-27.085144	0.000355	3.546700	1.201655	0.000142
1758	1.7482e+02	-10.0120	-26.992290	0.000233	2.330689	0.789659	0.000093
1759	1.7492e+02	-9.9799	-26.846953	0.000365	3.648034	1.235988	0.000146
1760	1.7502e+02	-9.9302	-26.737950	0.000274	2.736026	0.926991	0.000110
1761	1.7512e+02	-9.8981	-26.620873	0.000294	2.938694	0.995657	0.000118
1762	1.7522e+02	-9.8484	-26.511870	0.000274	2.736026	0.926991	0.000110
1763	1.7532e+02	-9.8131	-26.435165	0.000193	1.925352	0.652327	0.000077
1764	1.7542e+02	-9.7698	-26.305976	0.000324	3.242697	1.098656	0.000130
1765	1.7552e+02	-9.7297	-26.209085	0.000243	2.432023	0.823992	0.000097
1766	1.7562e+02	-9.6960	-26.063748	0.000365	3.648034	1.235988	0.000146
1767	1.7572e+02	-9.6575	-25.954746	0.000274	2.736026	0.926991	0.000110
1768	1.7582e+02	-9.6206	-25.869966	0.000213	2.128020	0.720993	0.000085
1769	1.7592e+02	-9.5709	-25.777112	0.000233	2.330689	0.789659	0.000093
1770	1.7602e+02	-9.5324	-25.627738	0.000375	3.749369	1.270321	0.000150
1771	1.7612e+02	-9.4922	-25.522772	0.000263	2.634692	0.892658	0.000105
1772	1.7621e+02	-9.4505	-25.433955	0.000223	2.229354	0.755326	0.000089
1773	1.7631e+02	-9.4185	-25.284581	0.000375	3.749369	1.270321	0.000150
1774	1.7641e+02	-9.3783	-25.175578	0.000274	2.736026	0.926991	0.000110
1775	1.7651e+02	-9.3479	-25.090799	0.000213	2.128020	0.720993	0.000085
1776	1.7661e+02	-9.2965	-24.985833	0.000263	2.634692	0.892658	0.000105
1777	1.7671e+02	-9.2644	-24.856645	0.000324	3.242697	1.098656	0.000130
1778	1.7681e+02	-9.2195	-24.759753	0.000243	2.432023	0.823992	0.000097
1779	1.7691e+02	-9.1714	-24.634602	0.000314	3.141363	1.064323	0.000126
1780	1.7701e+02	-9.1345	-24.521562	0.000284	2.837360	0.961324	0.000114
1781	1.7711e+02	-9.1008	-24.396411	0.000314	3.141363	1.064323	0.000126
1782	1.7721e+02	-9.0623	-24.299520	0.000243	2.432023	0.823992	0.000097
1783	1.7731e+02	-9.0110	-24.178406	0.000304	3.040029	1.029990	0.000122
1784	1.7741e+02	-8.9757	-24.029032	0.000375	3.749369	1.270321	0.000150
1785	1.7751e+02	-8.9388	-23.911955	0.000294	2.938694	0.995657	0.000118
1786	1.7761e+02	-8.9003	-23.806989	0.000263	2.634692	0.892658	0.000105
1787	1.7771e+02	-8.8489	-23.689913	0.000294	2.938694	0.995657	0.000118
1788	1.7781e+02	-8.8121	-23.572836	0.000294	2.938694	0.995657	0.000118
1789	1.7791e+02	-8.7752	-23.407313	0.000415	4.154706	1.407652	0.000166
1790	1.7801e+02	-8.7302	-23.346756	0.000152	1.520014	0.514995	0.000061
1791	1.7810e+02	-8.6885	-23.193345	0.000385	3.850703	1.304654	0.000154
1792	1.7820e+02	-8.6548	-23.084342	0.000274	2.736026	0.926991	0.000110
1793	1.7830e+02	-8.6228	-22.971302	0.000284	2.837360	0.961324	0.000114
1794	1.7840e+02	-8.5810	-22.862300	0.000274	2.736026	0.926991	0.000110
1795	1.7850e+02	-8.5441	-22.745223	0.000294	2.938694	0.995657	0.000118
1796	1.7860e+02	-8.5040	-22.599886	0.000365	3.648034	1.235988	0.000146
1797	1.7870e+02	-8.4511	-22.482809	0.000294	2.938694	0.995657	0.000118
1798	1.7880e+02	-8.4206	-22.381881	0.000253	2.533357	0.858325	0.000101
1799	1.7890e+02	-8.3789	-22.248655	0.000334	3.344032	1.132989	0.000134
1800	1.7900e+02	-8.3372	-22.147727	0.000253	2.533357	0.858325	0.000101
1801	1.7910e+02	-8.3003	-22.010464	0.000345	3.445366	1.167322	0.000138
1802	1.7920e+02	-8.2570	-21.889350	0.000304	3.040029	1.029990	0.000122
1803	1.7930e+02	-8.2281	-21.788422	0.000253	2.533357	0.858325	0.000101
1804	1.7940e+02	-8.1800	-21.639048	0.000375	3.749369	1.270321	0.000150
1805	1.7950e+02	-8.1479	-21.501785	0.000345	3.445366	1.167322	0.000138
1806	1.7960e+02	-8.0966	-21.388745	0.000284	2.837360	0.961324	0.000114
1807	1.7970e+02	-8.0645	-21.287817	0.000253	2.533357	0.858325	0.000101
1808	1.7980e+02	-8.0244	-21.166703	0.000304	3.040029	1.029990	0.000122
1809	1.7990e+02	-7.9762	-20.997143	0.000426	4.256040	1.441985	0.000170
1810	1.8000e+02	-7.9458	-20.912363	0.000213	2.128020	0.720993	0.000085
1811	1.8009e+02	-7.9089	-20.815472	0.000243	2.432023	0.823992	0.000097
1812	1.8019e+02	-7.8575	-20.678209	0.000345	3.445366	1.167322	0.000138
1813	1.8029e+02	-7.8238	-20.609578	0.000172	1.722683	0.583661	0.000069
1814	1.8039e+02	-7.7805	-20.452130	0.000395	3.952037	1.338986	0.000158
1815	1.8049e+02	-7.7372	-20.318904	0.000334	3.344032	1.132989	0.000134
1816	1.8059e+02	-7.7035	-20.222013	0.000243	2.432023	0.823992	0.000097
1817	1.8069e+02	-7.6650	-20.080713	0.000355	3.546700	1.201655	0.000142
1818	1.8079e+02	-7.6217	-19.971710	0.000274	2.736026	0.926991	0.000110
1819	1.8089e+02	-7.5800	-19.814262	0.000395	3.952037	1.338986	0.000158
1820	1.8099e+02	-7.5495	-19.733519	0.000203	2.026686	0.686660	0.000081
1821	1.8109e+02	-7.5030	-19.572034	0.000405	4.053372	1.373319	0.000162
1822	1.8119e+02	-7.4629	-19.479180	0.000233	2.330689	0.789659	0.000093
1823	1.8129e+02	-7.4324	-19.378252	0.000253	2.533357	0.858325	0.000101
1824	1.8139e+02	-7.3859	-19.224840	0.000385	3.850703	1.304654	0.000154
1825	1.8149e+02	-7.3442	-19.083541	0.000355	3.546700	1.201655	0.000142
1826	1.8159e+02	-7.3009	-19.010872	0.000182	1.824017	0.617994	0.000073
1827	1.8169e+02	-7.2592	-18.877647	0.000334	3.344032	1.132989	0.000134
1828	1.8179e+02	-7.2255	-18.748458	0.000324	3.242697	1.098656	0.000130
1829	1.8189e+02	-7.1966	-18.607159	0.000355	3.546700	1.201655	0.000142
1830	1.8199e+02	-7.1453	-18.518342	0.000223	2.229354	0.755326	0.000089
1831	1.8209e+02	-7.1035	-18.389153	0.000324	3.242697	1.098656	0.000130
1832	1.8218e+02	-7.0747	-18.255928	0.000334	3.344032	1.132989	0.000134
1833	1.8228e+02	-7.0233	-18.146925	0.000274	2.736026	0.926991	0.000110
1834	1.8238e+02	-6.9816	-18.005625	0.000355	3.546700	1.201655	0.000142
1835	1.8248e+02	-6.9511	-17.868363	0.000345	3.445366	1.167322	0.000138
1836	1.8258e+02	-6.8998	-17.791657	0.000193	1.925352	0.652327	0.000077
1837	1.8268e+02	-6.8645	-17.626135	0.000415	4.154706	1.407652	0.000166
1838	1.8278e+02	-6.8196	-17.537318	0.000223	2.229354	0.755326	0.000089
1839	1.8288e+02	-6.7923	-17.408129	0.000324	3.242697	1.098656	0.000130
1840	1.8298e+02	-6.7474	-17.262792	0.000365	3.648034	1.235988	0.000146
1841	1.8308e+02	-6.6961	-17.109381	0.000385	3.850703	1.304654	0.000154
1842	1.8318e+02	-6.6656	-17.000379	0.000274	2.736026	0.926991	0.000110
1843	1.8328e+02	-6.6239	-16.883302	0.000294	2.938694	0.995657	0.000118
1844	1.8338e+02	-6.5902	-16.770262	0.000284	2.837360	0.961324	0.000114
1845	1.8348e+02	-6.5389	-16.596665	0.000436	4.357374	1.476318	0.000174
1846	1.8358e+02	-6.5116	-16.532071	0.000162	1.621349	0.549328	0.000065
1847	1.8368e+02	-6.4699	-16.370585	0.000405	4.053372	1.373319	0.000162
1848	1.8378e+02	-6.4298	-16.281768	0.000223	2.229354	0.755326	0.000089
1849	1.8388e+02	-6.3865	-16.152580	0.000324	3.242697	1.098656	0.000130
1850	1.8398e+02	-6.3431	-16.035503	0.000294	2.938694	0.995657	0.000118
1851	1.8407e+02	-6.3046	-15.882092	0.000385	3.850703	1.304654	0.000154
1852	1.8417e+02	-6.2806	-15.724644	0.000395	3.952037	1.338986	0.000158
1853	1.8427e+02	-6.2276	-15.635827	0.000223	2.229354	0.755326	0.000089
1854	1.8437e+02	-6.1907	-15.530861	0.000263	2.634692	0.892658	0.000105
1855	1.8447e+02	-6.1506	-15.361301	0.000426	4.256040	1.441985	0.000170
1856	1.8457e+02	-6.1105	-15.248262	0.000284	2.837360	0.961324	0.000114
1857	1.8467e+02	-6.0640	-15.135222	0.000284	2.837360	0.961324	0.000114
1858	1.8477e+02	-6.0255	-14.985848	0.000375	3.749369	1.270321	0.000150
1859	1.8487e+02	-5.9918	-14.864734	0.000304	3.040029	1.029990	0.000122
1860	1.8497e+02	-5.9469	-14.775917	0.000223	2.229354	0.755326	0.000089
1861	1.8507e+02	-5.9100	-14.602320	0.000436	4.357374	1.476318	0.000174
1862	1.8517e+02	-5.8731	-14.461020	0.000355	3.546700	1.201655	0.000142
1863	1.8527e+02	-5.8218	-14.331832	0.000324	3.242697	1.098656	0.000130
1864	1.8537e+02	-5.7929	-14.226866	0.000263	2.634692	0.892658	0.000105
1865	1.8547e+02	-5.7512	-14.101715	0.000314	3.141363	1.064323	0.000126
1866	1.8557e+02	-5.7095	-13.964453	0.000345	3.445366	1.167322	0.000138
1867	1.8567e+02	-5.6742	-13.839301	0.000314	3.141363	1.064323	0.000126
1868	1.8577e+02	-5.6325	-13.693964	0.000365	3.648034	1.235988	0.000146
1869	1.8587e+02	-5.6004	-13.580925	0.000284	2.837360	0.961324	0.000114
1870	1.8597e+02	-5.5474	-13.475959	0.000263	2.634692	0.892658	0.000105
1871	1.8606e+02	-5.5154	-13.298325	0.000446	4.458709	1.510651	0.000179
1872	1.8616e+02	-5.4736	-13.213545	0.000213	2.128020	0.720993	0.000085
1873	1.8626e+02	-5.4319	-13.100505	0.000284	2.837360	0.961324	0.000114
1874	1.8636e+02	-5.4015	-12.963243	0.000345	3.445366	1.167322	0.000138
1875	1.8646e+02	-5.3613	-12.834055	0.000324	3.242697	1.098656	0.000130
1876	1.8656e+02	-5.3116	-12.700829	0.000334	3.344032	1.132989	0.000134
1877	1.8666e+02	-5.2731	-12.591826	0.000274	2.736026	0.926991	0.000110
1878	1.8676e+02	-5.2330	-12.426304	0.000415	4.154706	1.407652	0.000166
1879	1.8686e+02	-5.1929	-12.309227	0.000294	2.938694	0.995657	0.000118
1880	1.8696e+02	-5.1528	-12.188113	0.000304	3.040029	1.029990	0.000122
1881	1.8706e+02	-5.1095	-12.087184	0.000253	2.533357	0.858325	0.000101
1882	1.8716e+02	-5.0662	-11.941848	0.000365	3.648034	1.235988	0.000146
1883	1.8726e+02	-5.0389	-11.857068	0.000213	2.128020	0.720993	0.000085
1884	1.8736e+02	-4.9892	-11.683471	0.000436	4.357374	1.476318	0.000174
1885	1.8746e+02	-4.9523	-11.582542	0.000253	2.533357	0.858325	0.000101
1886	1.8756e+02	-4.9090	-11.441243	0.000355	3.546700	1.201655	0.000142
1887	1.8766e+02	-4.8753	-11.283794	0.000395	3.952037	1.338986	0.000158
1888	1.8776e+02	-4.8336	-11.190940	0.000233	2.330689	0.789659	0.000093
1889	1.8786e+02	-4.7918	-11.005232	0.000466	4.661377	1.579317	0.000187
1890	1.8796e+02	-4.7646	-10.884118	0.000304	3.040029	1.029990	0.000122
1891	1.8806e+02	-4.7116	-10.799338	0.000213	2.128020	0.720993	0.000085
1892	1.8815e+02	-4.6795	-10.658038	0.000355	3.546700	1.201655	0.000142
1893	1.8825e+02	-4.6362	-10.512701	0.000365	3.648034	1.235988	0.000146
1894	1.8835e+02	-4.5977	-10.379476	0.000334	3.344032	1.132989	0.000134
1895	1.8845e+02	-4.5640	-10.286622	0.000233	2.330689	0.789659	0.000093
1896	1.8855e+02	-4.5143	-10.125136	0.000405	4.053372	1.373319	0.000162
1897	1.8865e+02	-4.4742	-10.032282	0.000233	2.330689	0.789659	0.000093
1898	1.8875e+02	-4.4325	-9.899057	0.000334	3.344032	1.132989	0.000134
1899	1.8885e+02	-4.4004	-9.693163	0.000517	5.168049	1.750982	0.000207
1900	1.8895e+02	-4.3587	-9.628569	0.000162	1.621349	0.549328	0.000065
1901	1.8905e+02	-4.3154	-9.479195	0.000375	3.749369	1.270321	0.000150
1902	1.8915e+02	-4.2769	-9.329821	0.000375	3.749369	1.270321	0.000150
1903	1.8925e+02	-4.2352	-9.224855	0.000263	2.634692	0.892658	0.000105
1904	1.8935e+02	-4.1951	-9.099704	0.000314	3.141363	1.064323	0.000126
1905	1.8945e+02	-4.1518	-8.954367	0.000365	3.648034	1.235988	0.000146
1906	1.8955e+02	-4.1181	-8.813067	0.000355	3.546700	1.201655	0.000142
1907	1.8965e+02	-4.0699	-8.671768	0.000355	3.546700	1.201655	0.000142
1908	1.8975e+02	-4.0330	-8.550653	0.000304	3.040029	1.029990	0.000122
1909	1.8985e+02	-4.0026	-8.409354	0.000355	3.546700	1.201655	0.000142
1910	1.8995e+02	-3.9528	-8.268054	0.000355	3.546700	1.201655	0.000142
1911	1.9004e+02	-3.9191	-8.138866	0.000324	3.242697	1.098656	0.000130
1912	1.9014e+02	-3.8758	-7.961232	0.000446	4.458709	1.510651	0.000179
1913	1.9024e+02	-3.8389	-7.864340	0.000243	2.432023	0.823992	0.000097
1914	1.9034e+02	-3.8004	-7.735152	0.000324	3.242697	1.098656	0.000130
1915	1.9044e+02	-3.7587	-7.577704	0.000395	3.952037	1.338986	0.000158
1916	1.9054e+02	-3.7170	-7.432367	0.000365	3.648034	1.235988	0.000146
1917	1.9064e+02	-3.6721	-7.331439	0.000253	2.533357	0.858325	0.000101
1918	1.9074e+02	-3.6368	-7.173990	0.000395	3.952037	1.338986	0.000158
1919	1.9084e+02	-3.5999	-7.040765	0.000334	3.344032	1.132989	0.000134
1920	1.9094e+02	-3.5614	-6.907539	0.000334	3.344032	1.132989	0.000134
1921	1.9104e+02	-3.5181	-6.774314	0.000334	3.344032	1.132989	0.000134
1922	1.9114e+02	-3.4732	-6.685497	0.000223	2.229354	0.755326	0.000089
1923	1.9124e+02	-3.4411	-6.499789	0.000466	4.661377	1.579317	0.000187
1924	1.9134e+02	-3.4042	-6.390786	0.000274	2.736026	0.926991	0.000110
1925	1.9144e+02	-3.3593	-6.245449	0.000365	3.648034	1.235988	0.000146
1926	1.9154e+02	-3.3176	-6.104149	0.000355	3.546700	1.201655	0.000142
1927	1.9164e+02	-3.2855	-5.958812	0.000365	3.648034	1.235988	0.000146
1928	1.9174e+02	-3.2389	-5.809438	0.000375	3.749369	1.270321	0.000150
1929	1.9184e+02	-3.2020	-5.692361	0.000294	2.938694	0.995657	0.000118
1930	1.9194e+02	-3.1619	-5.542987	0.000375	3.749369	1.270321	0.000150
1931	1.9203e+02	-3.1154	-5.405725	0.000345	3.445366	1.167322	0.000138
1932	1.9213e+02	-3.0833	-5.268462	0.000345	3.445366	1.167322	0.000138
1933	1.9223e+02	-3.0320	-5.127162	0.000355	3.546700	1.201655	0.000142
1934	1.9233e+02	-2.9983	-4.985863	0.000355	3.546700	1.201655	0.000142
1935	1.9243e+02	-2.9518	-4.872823	0.000284	2.837360	0.961324	0.000114
1936	1.9253e+02	-2.9213	-4.707300	0.000415	4.154706	1.407652	0.000166
1937	1.9263e+02	-2.8812	-4.578112	0.000324	3.242697	1.098656	0.000130
1938	1.9273e+02	-2.8411	-4.469109	0.000274	2.736026	0.926991	0.000110
1939	1.9283e+02	-2.7962	-4.311661	0.000395	3.952037	1.338986	0.000158
1940	1.9293e+02	-2.7673	-4.202658	0.000274	2.736026	0.926991	0.000110
1941	1.9303e+02	-2.7240	-4.049247	0.000385	3.850703	1.304654	0.000154
1942	1.9313e+02	-2.6871	-3.924096	0.000314	3.141363	1.064323	0.000126
1943	1.9323e+02	-2.6454	-3.778759	0.000365	3.648034	1.235988	0.000146
1944	1.9333e+02	-2.6069	-3.601125	0.000446	4.458709	1.510651	0.000179
1945	1.9343e+02	-2.5668	-3.496160	0.000263	2.634692	0.892658	0.000105
1946	1.9353e+02	-2.5219	-3.338711	0.000395	3.952037	1.338986	0.000158
1947	1.9363e+02	-2.4817	-3.201449	0.000345	3.445366	1.167322	0.000138
1948	1.9373e+02	-2.4465	-3.060149	0.000355	3.546700	1.201655	0.000142
1949	1.9383e+02	-2.3967	-2.922886	0.000345	3.445366	1.167322	0.000138
1950	1.9393e+02	-2.3630	-2.801772	0.000304	3.040029	1.029990	0.000122
1951	1.9403e+02	-2.3245	-2.620101	0.000456	4.560043	1.544984	0.000183
1952	1.9412e+02	-2.2828	-2.474764	0.000365	3.648034	1.235988	0.000146
1953	1.9422e+02	-2.2427	-2.361724	0.000284	2.837360	0.961324	0.000114
1954	1.9432e+02	-2.2058	-2.204276	0.000395	3.952037	1.338986	0.000158
1955	1.9442e+02	-2.1609	-2.058939	0.000365	3.648034	1.235988	0.000146
1956	1.9452e+02	-2.1272	-1.921677	0.000345	3.445366	1.167322	0.000138
1957	1.9462e+02	-2.0855	-1.784414	0.000345	3.445366	1.167322	0.000138
1958	1.9472e+02	-2.0422	-1.610817	0.000436	4.357374	1.476318	0.000174
1959	1.9482e+02	-2.0021	-1.453369	0.000395	3.952037	1.338986	0.000158
1960	1.9492e+02	-1.9716	-1.336292	0.000294	2.938694	0.995657	0.000118
1961	1.9502e+02	-1.9267	-1.194992	0.000355	3.546700	1.201655	0.000142
1962	1.9512e+02	-1.8866	-1.025432	0.000426	4.256040	1.441985	0.000170
1963	1.9522e+02	-1.8497	-0.900281	0.000314	3.141363	1.064323	0.000126
1964	1.9532e+02	-1.7983	-0.746870	0.000385	3.850703	1.304654	0.000154
1965	1.9542e+02	-1.7679	-0.565199	0.000456	4.560043	1.544984	0.000183
1966	1.9552e+02	-1.7229	-0.444085	0.000304	3.040029	1.029990	0.000122
1967	1.9562e+02	-1.6941	-0.298748	0.000365	3.648034	1.235988	0.000146
1968	1.9572e+02	-1.6475	-0.141300	0.000395	3.952037	1.338986	0.000158
1969	1.9582e+02	-1.5994	-0.040371	0.000253	2.533357	0.858325	0.000101
1970	1.9592e+02	-1.5657	0.153411	0.000486	4.864046	1.647983	0.000195
1971	1.9601e+02	-1.5353	0.294711	0.000355	3.546700	1.201655	0.000142
1972	1.9611e+02	-1.4775	0.423899	0.000324	3.242697	1.098656	0.000130
1973	1.9621e+02	-1.4454	0.601533	0.000446	4.458709	1.510651	0.000179
1974	1.9631e+02	-1.4069	0.734759	0.000334	3.344032	1.132989	0.000134
1975	1.9641e+02	-1.3652	0.863947	0.000324	3.242697	1.098656	0.000130
1976	1.9651e+02	-1.3219	1.001210	0.000345	3.445366	1.167322	0.000138
1977	1.9661e+02	-1.2882	1.166732	0.000415	4.154706	1.407652	0.000166
1978	1.9671e+02	-1.2497	1.332255	0.000415	4.154706	1.407652	0.000166
1979	1.9681e+02	-1.2128	1.493740	0.000405	4.053372	1.373319	0.000162
1980	1.9691e+02	-1.1615	1.602743	0.000274	2.736026	0.926991	0.000110
1981	1.9701e+02	-1.1294	1.768265	0.000415	4.154706	1.407652	0.000166
1982	1.9711e+02	-1.0813	1.889380	0.000304	3.040029	1.029990	0.000122
1983	1.9721e+02	-1.0476	2.095273	0.000517	5.168049	1.750982	0.000207
1984	1.9731e+02	-1.0026	2.220425	0.000314	3.141363	1.064323	0.000126
1985	1.9741e+02	-0.9674	2.337502	0.000294	2.938694	0.995657	0.000118
1986	1.9751e+02	-0.9192	2.511098	0.000436	4.357374	1.476318	0.000174
1987	1.9761e+02	-0.8903	2.733141	0.000557	5.573386	1.888314	0.000223
1988	1.9771e+02	-0.8599	2.821958	0.000223	2.229354	0.755326	0.000089
1989	1.9781e+02	-0.8133	2.991518	0.000426	4.256040	1.441985	0.000170
1990	1.9791e+02	-0.7797	3.092446	0.000253	2.533357	0.858325	0.000101
1991	1.9800e+02	-0.7251	3.298340	0.000517	5.168049	1.750982	0.000207
1992	1.9810e+02	-0.6946	3.467900	0.000426	4.256040	1.441985	0.000170
1993	1.9820e+02	-0.6337	3.552679	0.000213	2.128020	0.720993	0.000085
1994	1.9830e+02	-0.6080	3.710128	0.000395	3.952037	1.338986	0.000158
1995	1.9840e+02	-0.5807	3.847390	0.000345	3.445366	1.167322	0.000138
1996	1.9850e+02	-0.5374	4.000802	0.000385	3.850703	1.304654	0.000154
1997	1.9860e+02	-0.4877	4.170361	0.000426	4.256040	1.441985	0.000170
1998	1.9870e+02	-0.4492	4.311661	0.000355	3.546700	1.201655	0.000142
1999	1.9880e+02	-0.4075	4.452961	0.000355	3.546700	1.201655	0.000142
2000	1.9890e+02	-0.3738	4.650780	0.000497	4.965380	1.682316	0.000199
2001	1.9900e+02	-0.3305	4.796117	0.000365	3.648034	1.235988	0.000146
2002	1.9910e+02	-0.2936	4.909157	0.000284	2.837360	0.961324	0.000114
2003	1.9920e+02	-0.2567	5.098902	0.000476	4.762712	1.613650	0.000191
2004	1.9930e+02	-0.2118	5.232128	0.000334	3.344032	1.132989	0.000134
2005	1.9940e+02	-0.1700	5.421873	0.000476	4.762712	1.613650	0.000191
2006	1.9950e+02	-0.1235	5.559136	0.000345	3.445366	1.167322	0.000138
2007	1.9960e+02	-0.0882	5.692361	0.000334	3.344032	1.132989	0.000134
2008	1.9970e+02	-0.0497	5.845773	0.000385	3.850703	1.304654	0.000154
2009	1.9980e+02	-0.0096	6.011295	0.000385	3.850703	1.304654	0.000166

Center data before PMax,+/-Pr and +/-Vc Calc.

PMax (uC/cm2):	3.71e+01
Pr (uC/cm2):	2.55e+01
-Pr (uC/cm2):	6.01e+00
PLoss (uC/cm2):	6.63e+01
Vc:	1.54e+01
-Vc:	-6.80e+00
C (Max-Eff) (nF):	1.86e-01
K (Eff):	6.29e+02
Vert. (+/-Pr) Shift (uC/cm2):	1.57e+01
Horiz. Shift (+/-Vc):	4.32e+00
Offset (uC/cm2):	6.03e+01

A (Loop Area - uC/cm2·Volts):	-2.19e+00



Hysteresis Version: 5.48.1 - Radiant Technologies, Inc., 1999 - 9/12/24

