»»»»»»»»»»»»»»»»»»»»»»»»»»»»»»»»»»»» Hysteresis ««««««««««««««««««««««««««««««««««««
»»»  Executed Version:	5.48.1
»»»  Vision Version:	5.48.4 (R)
»»»  Vision Compiled:	9/18/24
»»»  Driver Version:	5.47.0
»»»  Windows Version:	Windows 8 or 8.1
»»»  Processor Information:	x86 (AMD or Intel) - 32 Processors
»»»  Tester Name:	PMF21124-494 (100V)
»»»  Tester S/N:	PMF21124-494
»»»  Internal Amp Type:	100V RevK 270k
»»»  Internal Amp S/N:	iAB2-596/K     
»»»  Execution Count:	1
»»»»»»»»»»»»»»»»»»»»»»»»»»»»»»»»»»»»»»»»»»««««««««««««««««««««««««««««««««««««««««««

Stored:	6/4/2025 - 14:13:21
Configured:	06/04/25 01:46:06 PM
Executed:	06/04/25 02:12:40 PM

»»»»»»»»»»»»»»»»»»»»»»»»»»»»»»»»»»» Sample Info ««««««««««««««««««««««««««««««««««««
Sample Name:	
Lot Name:	
Wafer Name:	
Die Row/Column:	0/0
Capacitor Number:	0
Sample Area (cm2):	1.00e-04
Sample Thickness (microns):	3.00e-01

Amplifier:	Internal

»»»»»»»»»»»»»»»»»»»»»»»»»»»»»»»»»»» Tester Info «««««««««««««««««««««««««««««««««««
Tester Name:	PMF21124-494 (100V)
Tester Serial Number:	PMF21124-494
Return Signal Amp. Level:	0.19 [Index: 3]

»»»»»»»»»»»»»»»»»»»»»»»»»»»»»»»» Hysteresis Info ««««««««««««««««««««««««««««««««««
Task Name:	Hyst-37
Volts:	20.00
Field:	666.67 (kV/cm)
DCBias:	0.00
DCField:	0.00 (kV/cm)
Hysteresis Period (ms):	2.00e+02
Preset:	Enabled
Preset Delay (ms):	1.00e+03
Profile:	Standard Bipolar

»»»»»»»»»»»»»»»»»»»»»»»»»»»»»»»»»»»»»» Data «««««««««««««««««««««««««««««««««««««««
Points:	2009

Valid Data

Point	Time (ms)	Drive Voltage	Measured Polarization (uC/cm2)	Capacitance (uF)	Normalized Capacitance (uF/cm2)	Dielectric Constant	Instantaneous Current (mA)
   1	0.0000e+00	-0.0096	-2.230517	0.000243	2.433048	0.824339	0.000097
   2	9.9500e-02	0.0176	-2.133626	0.000243	2.433048	0.824339	0.000097
   3	1.9900e-01	0.0658	-2.008475	0.000314	3.142686	1.064771	0.000126
   4	2.9850e-01	0.0979	-1.851027	0.000395	3.953702	1.339551	0.000158
   5	3.9800e-01	0.1412	-1.685504	0.000416	4.156456	1.408246	0.000166
   6	4.9750e-01	0.1877	-1.540167	0.000365	3.649571	1.236508	0.000146
   7	5.9700e-01	0.2166	-1.410979	0.000324	3.244063	1.099118	0.000130
   8	6.9650e-01	0.2631	-1.314088	0.000243	2.433048	0.824339	0.000097
   9	7.9600e-01	0.3000	-1.128379	0.000466	4.663341	1.579983	0.000187
  10	8.9550e-01	0.3369	-0.974968	0.000385	3.852325	1.305203	0.000154
  11	9.9500e-01	0.3882	-0.837706	0.000345	3.446817	1.167813	0.000138
  12	1.0945e+00	0.4283	-0.639886	0.000497	4.967472	1.683025	0.000199
  13	1.1940e+00	0.4604	-0.534920	0.000264	2.635802	0.893034	0.000105
  14	1.2935e+00	0.5085	-0.381509	0.000385	3.852325	1.305203	0.000154
  15	1.3930e+00	0.5470	-0.236172	0.000365	3.649571	1.236508	0.000146
  16	1.4925e+00	0.5936	-0.042390	0.000487	4.866095	1.648678	0.000195
  17	1.5920e+00	0.6224	0.054501	0.000243	2.433048	0.824339	0.000097
  18	1.6915e+00	0.6738	0.215987	0.000406	4.055079	1.373898	0.000162
  19	1.7910e+00	0.6946	0.373435	0.000395	3.953702	1.339551	0.000158
  20	1.8905e+00	0.7396	0.563180	0.000476	4.764718	1.614330	0.000191
  21	1.9900e+00	0.7925	0.680257	0.000294	2.939932	0.996076	0.000118
  22	2.0895e+00	0.8294	0.841743	0.000406	4.055079	1.373898	0.000162
  23	2.1890e+00	0.8647	1.027451	0.000466	4.663341	1.579983	0.000187
  24	2.2885e+00	0.8984	1.140491	0.000284	2.838555	0.961729	0.000114
  25	2.3880e+00	0.9433	1.273716	0.000335	3.345440	1.133466	0.000134
  26	2.4875e+00	0.9818	1.443276	0.000426	4.257833	1.442593	0.000170
  27	2.5870e+00	1.0171	1.592650	0.000375	3.750948	1.270856	0.000150
  28	2.6865e+00	1.0540	1.746061	0.000385	3.852325	1.305203	0.000154
  29	2.7860e+00	1.0957	1.923695	0.000446	4.460587	1.511288	0.000179
  30	2.8855e+00	1.1470	2.093255	0.000426	4.257833	1.442593	0.000170
  31	2.9850e+00	1.1791	2.242629	0.000375	3.750948	1.270856	0.000150
  32	3.0845e+00	1.2160	2.420263	0.000446	4.460587	1.511288	0.000179
  33	3.1840e+00	1.2593	2.565600	0.000365	3.649571	1.236508	0.000146
  34	3.2835e+00	1.2914	2.723048	0.000395	3.953702	1.339551	0.000158
  35	3.3830e+00	1.3379	2.856274	0.000335	3.345440	1.133466	0.000134
  36	3.4825e+00	1.3812	2.989499	0.000335	3.345440	1.133466	0.000134
  37	3.5820e+00	1.4165	3.207504	0.000547	5.474357	1.854762	0.000219
  38	3.6815e+00	1.4615	3.324581	0.000294	2.939932	0.996076	0.000118
  39	3.7810e+00	1.5048	3.538549	0.000537	5.372980	1.820415	0.000215
  40	3.8805e+00	1.5449	3.631404	0.000233	2.331671	0.789991	0.000093
  41	3.9800e+00	1.5721	3.780778	0.000375	3.750948	1.270856	0.000150
  42	4.0795e+00	1.6139	3.998783	0.000547	5.474357	1.854762	0.000219
  43	4.1790e+00	1.6636	4.156231	0.000395	3.953702	1.339551	0.000158
  44	4.2785e+00	1.7053	4.277345	0.000304	3.041309	1.030424	0.000122
  45	4.3780e+00	1.7342	4.438831	0.000406	4.055079	1.373898	0.000162
  46	4.4775e+00	1.7775	4.624539	0.000466	4.663341	1.579983	0.000187
  47	4.5770e+00	1.8128	4.761802	0.000345	3.446817	1.167813	0.000138
  48	4.6765e+00	1.8625	4.878879	0.000294	2.939932	0.996076	0.000118
  49	4.7760e+00	1.8978	5.076698	0.000497	4.967472	1.683025	0.000199
  50	4.8755e+00	1.9363	5.197812	0.000304	3.041309	1.030424	0.000122
  51	4.9750e+00	1.9796	5.391595	0.000487	4.866095	1.648678	0.000195
  52	5.0745e+00	2.0085	5.545006	0.000385	3.852325	1.305203	0.000154
  53	5.1740e+00	2.0582	5.674194	0.000324	3.244063	1.099118	0.000130
  54	5.2735e+00	2.0935	5.839717	0.000416	4.156456	1.408246	0.000166
  55	5.3730e+00	2.1449	6.005239	0.000416	4.156456	1.408246	0.000166
  56	5.4725e+00	2.1834	6.158651	0.000385	3.852325	1.305203	0.000154
  57	5.5720e+00	2.2267	6.320136	0.000406	4.055079	1.373898	0.000162
  58	5.6715e+00	2.2539	6.485659	0.000416	4.156456	1.408246	0.000166
  59	5.7710e+00	2.2989	6.626958	0.000355	3.548194	1.202161	0.000142
  60	5.8705e+00	2.3374	6.780369	0.000385	3.852325	1.305203	0.000154
  61	5.9700e+00	2.3807	6.941855	0.000406	4.055079	1.373898	0.000162
  62	6.0695e+00	2.4176	7.139675	0.000497	4.967472	1.683025	0.000199
  63	6.1690e+00	2.4673	7.248677	0.000274	2.737179	0.927381	0.000110
  64	6.2685e+00	2.4962	7.422274	0.000436	4.359210	1.476940	0.000174
  65	6.3680e+00	2.5235	7.543388	0.000304	3.041309	1.030424	0.000122
  66	6.4675e+00	2.5732	7.753319	0.000527	5.271603	1.786067	0.000211
  67	6.5670e+00	2.6229	7.902693	0.000375	3.750948	1.270856	0.000150
  68	6.6665e+00	2.6534	8.035919	0.000335	3.345440	1.133466	0.000134
  69	6.7660e+00	2.6983	8.213553	0.000446	4.460587	1.511288	0.000179
  70	6.8655e+00	2.7256	8.371001	0.000395	3.953702	1.339551	0.000158
  71	6.9650e+00	2.7753	8.560746	0.000476	4.764718	1.614330	0.000191
  72	7.0645e+00	2.8186	8.673786	0.000284	2.838555	0.961729	0.000114
  73	7.1640e+00	2.8507	8.855457	0.000456	4.561964	1.545635	0.000183
  74	7.2635e+00	2.8908	9.029054	0.000436	4.359210	1.476940	0.000174
  75	7.3630e+00	2.9341	9.186502	0.000395	3.953702	1.339551	0.000158
  76	7.4625e+00	2.9807	9.327802	0.000355	3.548194	1.202161	0.000142
  77	7.5620e+00	3.0144	9.509473	0.000456	4.561964	1.545635	0.000183
  78	7.6615e+00	3.0577	9.654810	0.000365	3.649571	1.236508	0.000146
  79	7.7610e+00	3.0914	9.800147	0.000365	3.649571	1.236508	0.000146
  80	7.8605e+00	3.1331	9.973744	0.000436	4.359210	1.476940	0.000174
  81	7.9600e+00	3.1635	10.111006	0.000345	3.446817	1.167813	0.000138
  82	8.0595e+00	3.2213	10.296715	0.000466	4.663341	1.579983	0.000187
  83	8.1590e+00	3.2534	10.450126	0.000385	3.852325	1.305203	0.000154
  84	8.2585e+00	3.2903	10.603537	0.000385	3.852325	1.305203	0.000154
  85	8.3580e+00	3.3336	10.724651	0.000304	3.041309	1.030424	0.000122
  86	8.4575e+00	3.3673	10.890174	0.000416	4.156456	1.408246	0.000166
  87	8.5570e+00	3.4154	11.092030	0.000507	5.068849	1.717373	0.000203
  88	8.6565e+00	3.4555	11.233330	0.000355	3.548194	1.202161	0.000142
  89	8.7560e+00	3.4844	11.378667	0.000365	3.649571	1.236508	0.000146
  90	8.8555e+00	3.5309	11.524004	0.000365	3.649571	1.236508	0.000146
  91	8.9550e+00	3.5774	11.725861	0.000507	5.068849	1.717373	0.000203
  92	9.0545e+00	3.6095	11.883309	0.000395	3.953702	1.339551	0.000158
  93	9.1540e+00	3.6528	12.056906	0.000436	4.359210	1.476940	0.000174
  94	9.2535e+00	3.6945	12.218391	0.000406	4.055079	1.373898	0.000162
  95	9.3530e+00	3.7250	12.351617	0.000335	3.345440	1.133466	0.000134
  96	9.4525e+00	3.7812	12.505028	0.000385	3.852325	1.305203	0.000154
  97	9.5520e+00	3.8084	12.710922	0.000517	5.170226	1.751720	0.000207
  98	9.6515e+00	3.8486	12.852222	0.000355	3.548194	1.202161	0.000142
  99	9.7510e+00	3.8967	13.029856	0.000446	4.460587	1.511288	0.000179
 100	9.8505e+00	3.9256	13.155007	0.000314	3.142686	1.064771	0.000126
 101	9.9500e+00	3.9721	13.316492	0.000406	4.055079	1.373898	0.000162
 102	1.0050e+01	4.0090	13.490089	0.000436	4.359210	1.476940	0.000174
 103	1.0149e+01	4.0475	13.623315	0.000335	3.345440	1.133466	0.000134
 104	1.0248e+01	4.0892	13.800949	0.000446	4.460587	1.511288	0.000179
 105	1.0348e+01	4.1325	13.966471	0.000416	4.156456	1.408246	0.000166
 106	1.0447e+01	4.1630	14.119882	0.000385	3.852325	1.305203	0.000154
 107	1.0547e+01	4.2111	14.269256	0.000375	3.750948	1.270856	0.000150
 108	1.0646e+01	4.2448	14.479187	0.000527	5.271603	1.786067	0.000211
 109	1.0746e+01	4.2881	14.584153	0.000264	2.635802	0.893034	0.000105
 110	1.0845e+01	4.3250	14.745638	0.000406	4.055079	1.373898	0.000162
 111	1.0945e+01	4.3635	14.895012	0.000375	3.750948	1.270856	0.000150
 112	1.1044e+01	4.4132	15.040349	0.000365	3.649571	1.236508	0.000146
 113	1.1144e+01	4.4469	15.238169	0.000497	4.967472	1.683025	0.000199
 114	1.1243e+01	4.4854	15.383506	0.000365	3.649571	1.236508	0.000146
 115	1.1343e+01	4.5223	15.540954	0.000395	3.953702	1.339551	0.000158
 116	1.1443e+01	4.5656	15.674180	0.000335	3.345440	1.133466	0.000134
 117	1.1542e+01	4.6041	15.835665	0.000406	4.055079	1.373898	0.000162
 118	1.1642e+01	4.6507	16.001187	0.000416	4.156456	1.408246	0.000166
 119	1.1741e+01	4.6892	16.150562	0.000375	3.750948	1.270856	0.000150
 120	1.1841e+01	4.7309	16.332233	0.000456	4.561964	1.545635	0.000183
 121	1.1940e+01	4.7646	16.473532	0.000355	3.548194	1.202161	0.000142
 122	1.2040e+01	4.8127	16.651166	0.000446	4.460587	1.511288	0.000179
 123	1.2139e+01	4.8480	16.828800	0.000446	4.460587	1.511288	0.000179
 124	1.2239e+01	4.8929	16.933766	0.000264	2.635802	0.893034	0.000105
 125	1.2338e+01	4.9250	17.087177	0.000385	3.852325	1.305203	0.000154
 126	1.2438e+01	4.9699	17.264811	0.000446	4.460587	1.511288	0.000179
 127	1.2537e+01	5.0052	17.450519	0.000466	4.663341	1.579983	0.000187
 128	1.2636e+01	5.0437	17.579708	0.000324	3.244063	1.099118	0.000130
 129	1.2736e+01	5.0838	17.765416	0.000466	4.663341	1.579983	0.000187
 130	1.2835e+01	5.1255	17.898641	0.000335	3.345440	1.133466	0.000134
 131	1.2935e+01	5.1656	18.048015	0.000375	3.750948	1.270856	0.000150
 132	1.3034e+01	5.2041	18.205464	0.000395	3.953702	1.339551	0.000158
 133	1.3134e+01	5.2410	18.391172	0.000466	4.663341	1.579983	0.000187
 134	1.3233e+01	5.2940	18.544583	0.000385	3.852325	1.305203	0.000154
 135	1.3333e+01	5.3244	18.697994	0.000385	3.852325	1.305203	0.000154
 136	1.3432e+01	5.3678	18.867554	0.000426	4.257833	1.442593	0.000170
 137	1.3532e+01	5.4031	19.045188	0.000446	4.460587	1.511288	0.000179
 138	1.3632e+01	5.4512	19.166302	0.000304	3.041309	1.030424	0.000122
 139	1.3731e+01	5.4769	19.380270	0.000537	5.372980	1.820415	0.000215
 140	1.3831e+01	5.5250	19.456976	0.000193	1.926163	0.652602	0.000077
 141	1.3930e+01	5.5715	19.679018	0.000558	5.575734	1.889110	0.000223
 142	1.4030e+01	5.6116	19.804169	0.000314	3.142686	1.064771	0.000126
 143	1.4129e+01	5.6501	20.006026	0.000507	5.068849	1.717373	0.000203
 144	1.4229e+01	5.6918	20.135214	0.000324	3.244063	1.099118	0.000130
 145	1.4328e+01	5.7271	20.276514	0.000355	3.548194	1.202161	0.000142
 146	1.4428e+01	5.7640	20.425888	0.000375	3.750948	1.270856	0.000150
 147	1.4527e+01	5.7897	20.619671	0.000487	4.866095	1.648678	0.000195
 148	1.4627e+01	5.8362	20.789230	0.000426	4.257833	1.442593	0.000170
 149	1.4726e+01	5.8891	20.922456	0.000335	3.345440	1.133466	0.000134
 150	1.4825e+01	5.9228	21.083941	0.000406	4.055079	1.373898	0.000162
 151	1.4925e+01	5.9661	21.237353	0.000385	3.852325	1.305203	0.000154
 152	1.5024e+01	5.9966	21.402875	0.000416	4.156456	1.408246	0.000166
 153	1.5124e+01	6.0464	21.576472	0.000436	4.359210	1.476940	0.000174
 154	1.5223e+01	6.0752	21.697586	0.000304	3.041309	1.030424	0.000122
 155	1.5323e+01	6.1185	21.867146	0.000426	4.257833	1.442593	0.000170
 156	1.5422e+01	6.1635	22.008445	0.000355	3.548194	1.202161	0.000142
 157	1.5522e+01	6.2004	22.157819	0.000375	3.750948	1.270856	0.000150
 158	1.5621e+01	6.2421	22.347565	0.000476	4.764718	1.614330	0.000191
 159	1.5721e+01	6.2742	22.488865	0.000355	3.548194	1.202161	0.000142
 160	1.5820e+01	6.3191	22.666499	0.000446	4.460587	1.511288	0.000179
 161	1.5920e+01	6.3640	22.799724	0.000335	3.345440	1.133466	0.000134
 162	1.6020e+01	6.4057	23.009655	0.000527	5.271603	1.786067	0.000211
 163	1.6119e+01	6.4394	23.138843	0.000324	3.244063	1.099118	0.000130
 164	1.6218e+01	6.4859	23.304366	0.000416	4.156456	1.408246	0.000166
 165	1.6318e+01	6.5260	23.409332	0.000264	2.635802	0.893034	0.000105
 166	1.6418e+01	6.5677	23.566780	0.000395	3.953702	1.339551	0.000158
 167	1.6517e+01	6.5950	23.712117	0.000365	3.649571	1.236508	0.000146
 168	1.6616e+01	6.6399	23.869565	0.000395	3.953702	1.339551	0.000158
 169	1.6716e+01	6.6784	24.047199	0.000446	4.460587	1.511288	0.000179
 170	1.6816e+01	6.7201	24.184462	0.000345	3.446817	1.167813	0.000138
 171	1.6915e+01	6.7602	24.333836	0.000375	3.750948	1.270856	0.000150
 172	1.7015e+01	6.8019	24.503395	0.000426	4.257833	1.442593	0.000170
 173	1.7114e+01	6.8292	24.608361	0.000264	2.635802	0.893034	0.000105
 174	1.7213e+01	6.8822	24.798106	0.000476	4.764718	1.614330	0.000191
 175	1.7313e+01	6.9239	24.959592	0.000406	4.055079	1.373898	0.000162
 176	1.7413e+01	6.9576	25.121077	0.000406	4.055079	1.373898	0.000162
 177	1.7512e+01	6.9977	25.230080	0.000274	2.737179	0.927381	0.000110
 178	1.7611e+01	7.0330	25.411751	0.000456	4.561964	1.545635	0.000183
 179	1.7711e+01	7.0859	25.549014	0.000345	3.446817	1.167813	0.000138
 180	1.7811e+01	7.1228	25.718573	0.000426	4.257833	1.442593	0.000170
 181	1.7910e+01	7.1581	25.863910	0.000365	3.649571	1.236508	0.000146
 182	1.8009e+01	7.1886	26.025396	0.000406	4.055079	1.373898	0.000162
 183	1.8109e+01	7.2367	26.146510	0.000304	3.041309	1.030424	0.000122
 184	1.8209e+01	7.2832	26.324144	0.000446	4.460587	1.511288	0.000179
 185	1.8308e+01	7.3185	26.465443	0.000355	3.548194	1.202161	0.000142
 186	1.8407e+01	7.3570	26.622892	0.000395	3.953702	1.339551	0.000158
 187	1.8507e+01	7.3971	26.760154	0.000345	3.446817	1.167813	0.000138
 188	1.8607e+01	7.4356	26.901454	0.000355	3.548194	1.202161	0.000142
 189	1.8706e+01	7.4757	27.095237	0.000487	4.866095	1.648678	0.000195
 190	1.8805e+01	7.5126	27.220388	0.000314	3.142686	1.064771	0.000126
 191	1.8905e+01	7.5527	27.389947	0.000426	4.257833	1.442593	0.000170
 192	1.9005e+01	7.5896	27.547396	0.000395	3.953702	1.339551	0.000158
 193	1.9104e+01	7.6361	27.712918	0.000416	4.156456	1.408246	0.000166
 194	1.9203e+01	7.6763	27.825958	0.000284	2.838555	0.961729	0.000114
 195	1.9303e+01	7.7164	27.979369	0.000385	3.852325	1.305203	0.000154
 196	1.9402e+01	7.7484	28.108558	0.000324	3.244063	1.099118	0.000130
 197	1.9502e+01	7.8030	28.298303	0.000476	4.764718	1.614330	0.000191
 198	1.9602e+01	7.8367	28.463826	0.000416	4.156456	1.408246	0.000166
 199	1.9701e+01	7.8800	28.580902	0.000294	2.939932	0.996076	0.000118
 200	1.9800e+01	7.9169	28.681831	0.000253	2.534425	0.858686	0.000101
 201	1.9900e+01	7.9490	28.887725	0.000517	5.170226	1.751720	0.000207
 202	2.0000e+01	7.9987	29.029025	0.000355	3.548194	1.202161	0.000142
 203	2.0099e+01	8.0388	29.174361	0.000365	3.649571	1.236508	0.000146
 204	2.0198e+01	8.0773	29.339884	0.000416	4.156456	1.408246	0.000166
 205	2.0298e+01	8.1046	29.497332	0.000395	3.953702	1.339551	0.000158
 206	2.0398e+01	8.1559	29.654781	0.000395	3.953702	1.339551	0.000158
 207	2.0497e+01	8.1848	29.812229	0.000395	3.953702	1.339551	0.000158
 208	2.0596e+01	8.2329	29.925269	0.000284	2.838555	0.961729	0.000114
 209	2.0696e+01	8.2682	30.106940	0.000456	4.561964	1.545635	0.000183
 210	2.0796e+01	8.3212	30.244202	0.000345	3.446817	1.167813	0.000138
 211	2.0895e+01	8.3548	30.401651	0.000395	3.953702	1.339551	0.000158
 212	2.0994e+01	8.3998	30.522765	0.000304	3.041309	1.030424	0.000122
 213	2.1094e+01	8.4335	30.647916	0.000314	3.142686	1.064771	0.000126
 214	2.1194e+01	8.4687	30.785179	0.000345	3.446817	1.167813	0.000138
 215	2.1293e+01	8.5137	30.987035	0.000507	5.068849	1.717373	0.000203
 216	2.1392e+01	8.5490	31.108149	0.000304	3.041309	1.030424	0.000122
 217	2.1492e+01	8.5923	31.237338	0.000324	3.244063	1.099118	0.000130
 218	2.1591e+01	8.6356	31.390749	0.000385	3.852325	1.305203	0.000154
 219	2.1691e+01	8.6677	31.544160	0.000385	3.852325	1.305203	0.000154
 220	2.1791e+01	8.7126	31.661237	0.000294	2.939932	0.996076	0.000118
 221	2.1890e+01	8.7495	31.814648	0.000385	3.852325	1.305203	0.000154
 222	2.1989e+01	8.7976	31.968059	0.000385	3.852325	1.305203	0.000154
 223	2.2089e+01	8.8313	32.149730	0.000456	4.561964	1.545635	0.000183
 224	2.2189e+01	8.8778	32.274882	0.000314	3.142686	1.064771	0.000126
 225	2.2288e+01	8.9003	32.391959	0.000294	2.939932	0.996076	0.000118
 226	2.2387e+01	8.9500	32.517110	0.000314	3.142686	1.064771	0.000126
 227	2.2487e+01	8.9933	32.723004	0.000517	5.170226	1.751720	0.000207
 228	2.2587e+01	9.0254	32.787598	0.000162	1.622032	0.549559	0.000065
 229	2.2686e+01	9.0719	32.973306	0.000466	4.663341	1.579983	0.000187
 230	2.2785e+01	9.1072	33.102494	0.000324	3.244063	1.099118	0.000130
 231	2.2885e+01	9.1473	33.263980	0.000406	4.055079	1.373898	0.000162
 232	2.2985e+01	9.1939	33.405280	0.000355	3.548194	1.202161	0.000142
 233	2.3084e+01	9.2275	33.494097	0.000223	2.230294	0.755644	0.000089
 234	2.3183e+01	9.2693	33.687879	0.000487	4.866095	1.648678	0.000195
 235	2.3283e+01	9.3062	33.825142	0.000345	3.446817	1.167813	0.000138
 236	2.3383e+01	9.3382	33.942219	0.000294	2.939932	0.996076	0.000118
 237	2.3482e+01	9.3928	34.123890	0.000456	4.561964	1.545635	0.000183
 238	2.3581e+01	9.4329	34.228855	0.000264	2.635802	0.893034	0.000105
 239	2.3681e+01	9.4666	34.366118	0.000345	3.446817	1.167813	0.000138
 240	2.3780e+01	9.5131	34.511455	0.000365	3.649571	1.236508	0.000146
 241	2.3880e+01	9.5516	34.697163	0.000466	4.663341	1.579983	0.000187
 242	2.3980e+01	9.5869	34.830389	0.000335	3.345440	1.133466	0.000134
 243	2.4079e+01	9.6270	34.959577	0.000324	3.244063	1.099118	0.000130
 244	2.4178e+01	9.6767	35.080691	0.000304	3.041309	1.030424	0.000122
 245	2.4278e+01	9.7072	35.254288	0.000436	4.359210	1.476940	0.000174
 246	2.4378e+01	9.7441	35.391550	0.000345	3.446817	1.167813	0.000138
 247	2.4477e+01	9.7794	35.548999	0.000395	3.953702	1.339551	0.000158
 248	2.4576e+01	9.8179	35.662039	0.000284	2.838555	0.961729	0.000114
 249	2.4676e+01	9.8660	35.791227	0.000324	3.244063	1.099118	0.000130
 250	2.4776e+01	9.9077	35.952712	0.000406	4.055079	1.373898	0.000162
 251	2.4875e+01	9.9382	36.110161	0.000395	3.953702	1.339551	0.000158
 252	2.4974e+01	9.9863	36.215126	0.000264	2.635802	0.893034	0.000105
 253	2.5074e+01	10.0281	36.384686	0.000426	4.257833	1.442593	0.000170
 254	2.5174e+01	10.0601	36.513874	0.000324	3.244063	1.099118	0.000130
 255	2.5273e+01	10.1067	36.639025	0.000314	3.142686	1.064771	0.000126
 256	2.5372e+01	10.1436	36.824734	0.000466	4.663341	1.579983	0.000187
 257	2.5472e+01	10.1917	36.913551	0.000223	2.230294	0.755644	0.000089
 258	2.5572e+01	10.2270	37.058888	0.000365	3.649571	1.236508	0.000146
 259	2.5671e+01	10.2751	37.208262	0.000375	3.750948	1.270856	0.000150
 260	2.5770e+01	10.3056	37.341487	0.000335	3.345440	1.133466	0.000134
 261	2.5870e+01	10.3457	37.490861	0.000375	3.750948	1.270856	0.000150
 262	2.5970e+01	10.3842	37.616012	0.000314	3.142686	1.064771	0.000126
 263	2.6069e+01	10.4259	37.733089	0.000294	2.939932	0.996076	0.000118
 264	2.6169e+01	10.4676	37.947057	0.000537	5.372980	1.820415	0.000215
 265	2.6268e+01	10.5077	38.047986	0.000253	2.534425	0.858686	0.000101
 266	2.6367e+01	10.5446	38.197360	0.000375	3.750948	1.270856	0.000150
 267	2.6467e+01	10.5831	38.338660	0.000355	3.548194	1.202161	0.000142
 268	2.6567e+01	10.6329	38.496108	0.000395	3.953702	1.339551	0.000158
 269	2.6666e+01	10.6617	38.621259	0.000314	3.142686	1.064771	0.000126
 270	2.6765e+01	10.6970	38.746410	0.000314	3.142686	1.064771	0.000126
 271	2.6865e+01	10.7339	38.903859	0.000395	3.953702	1.339551	0.000158
 272	2.6965e+01	10.7885	39.008824	0.000264	2.635802	0.893034	0.000105
 273	2.7064e+01	10.8270	39.150124	0.000355	3.548194	1.202161	0.000142
 274	2.7163e+01	10.8703	39.295461	0.000365	3.649571	1.236508	0.000146
 275	2.7263e+01	10.9072	39.456946	0.000406	4.055079	1.373898	0.000162
 276	2.7363e+01	10.9361	39.574023	0.000294	2.939932	0.996076	0.000118
 277	2.7462e+01	10.9906	39.727434	0.000385	3.852325	1.305203	0.000154
 278	2.7561e+01	11.0275	39.836437	0.000274	2.737179	0.927381	0.000110
 279	2.7661e+01	11.0596	39.981774	0.000365	3.649571	1.236508	0.000146
 280	2.7761e+01	11.0965	40.119036	0.000345	3.446817	1.167813	0.000138
 281	2.7860e+01	11.1398	40.248225	0.000324	3.244063	1.099118	0.000130
 282	2.7959e+01	11.1815	40.369339	0.000304	3.041309	1.030424	0.000122
 283	2.8059e+01	11.2232	40.518713	0.000375	3.750948	1.270856	0.000150
 284	2.8159e+01	11.2681	40.676161	0.000395	3.953702	1.339551	0.000158
 285	2.8258e+01	11.2986	40.825535	0.000375	3.750948	1.270856	0.000150
 286	2.8358e+01	11.3387	40.930501	0.000264	2.635802	0.893034	0.000105
 287	2.8457e+01	11.3852	41.116209	0.000466	4.663341	1.579983	0.000187
 288	2.8556e+01	11.4318	41.176766	0.000152	1.520655	0.515212	0.000061
 289	2.8656e+01	11.4622	41.358437	0.000456	4.561964	1.545635	0.000183
 290	2.8756e+01	11.5056	41.455328	0.000243	2.433048	0.824339	0.000097
 291	2.8855e+01	11.5505	41.600665	0.000365	3.649571	1.236508	0.000146
 292	2.8954e+01	11.5842	41.758114	0.000395	3.953702	1.339551	0.000158
 293	2.9054e+01	11.6259	41.931710	0.000436	4.359210	1.476940	0.000174
 294	2.9154e+01	11.6548	42.052824	0.000304	3.041309	1.030424	0.000122
 295	2.9253e+01	11.6997	42.198161	0.000365	3.649571	1.236508	0.000146
 296	2.9352e+01	11.7510	42.282941	0.000213	2.128917	0.721296	0.000085
 297	2.9452e+01	11.7703	42.440389	0.000395	3.953702	1.339551	0.000158
 298	2.9552e+01	11.8216	42.553429	0.000284	2.838555	0.961729	0.000114
 299	2.9651e+01	11.8617	42.718952	0.000416	4.156456	1.408246	0.000166
 300	2.9750e+01	11.9082	42.823917	0.000264	2.635802	0.893034	0.000105
 301	2.9850e+01	11.9403	42.965217	0.000355	3.548194	1.202161	0.000142
 302	2.9950e+01	11.9724	43.126703	0.000406	4.055079	1.373898	0.000162
 303	3.0049e+01	12.0237	43.268002	0.000355	3.548194	1.202161	0.000142
 304	3.0148e+01	12.0686	43.421413	0.000385	3.852325	1.305203	0.000154
 305	3.0248e+01	12.1039	43.506193	0.000213	2.128917	0.721296	0.000085
 306	3.0348e+01	12.1392	43.671716	0.000416	4.156456	1.408246	0.000166
 307	3.0447e+01	12.1745	43.829164	0.000395	3.953702	1.339551	0.000158
 308	3.0547e+01	12.2226	43.930093	0.000253	2.534425	0.858686	0.000101
 309	3.0646e+01	12.2595	44.079467	0.000375	3.750948	1.270856	0.000150
 310	3.0745e+01	12.2997	44.244989	0.000416	4.156456	1.408246	0.000166
 311	3.0845e+01	12.3398	44.390326	0.000365	3.649571	1.236508	0.000146
 312	3.0945e+01	12.3783	44.487217	0.000243	2.433048	0.824339	0.000097
 313	3.1044e+01	12.4184	44.628517	0.000355	3.548194	1.202161	0.000142
 314	3.1143e+01	12.4537	44.785965	0.000395	3.953702	1.339551	0.000158
 315	3.1243e+01	12.5018	44.894968	0.000274	2.737179	0.927381	0.000110
 316	3.1343e+01	12.5371	45.064528	0.000426	4.257833	1.442593	0.000170
 317	3.1442e+01	12.5820	45.201790	0.000345	3.446817	1.167813	0.000138
 318	3.1541e+01	12.6205	45.347127	0.000365	3.649571	1.236508	0.000146
 319	3.1641e+01	12.6558	45.444018	0.000243	2.433048	0.824339	0.000097
 320	3.1741e+01	12.6991	45.569170	0.000314	3.142686	1.064771	0.000126
 321	3.1840e+01	12.7376	45.718544	0.000375	3.750948	1.270856	0.000150
 322	3.1939e+01	12.7809	45.867918	0.000375	3.750948	1.270856	0.000150
 323	3.2039e+01	12.8082	45.993069	0.000314	3.142686	1.064771	0.000126
 324	3.2139e+01	12.8595	46.106109	0.000284	2.838555	0.961729	0.000114
 325	3.2238e+01	12.8900	46.263557	0.000395	3.953702	1.339551	0.000158
 326	3.2337e+01	12.9333	46.392745	0.000324	3.244063	1.099118	0.000130
 327	3.2437e+01	12.9798	46.525971	0.000335	3.345440	1.133466	0.000134
 328	3.2536e+01	13.0119	46.626899	0.000253	2.534425	0.858686	0.000101
 329	3.2636e+01	13.0504	46.812607	0.000466	4.663341	1.579983	0.000187
 330	3.2736e+01	13.0873	46.949870	0.000345	3.446817	1.167813	0.000138
 331	3.2835e+01	13.1322	47.075021	0.000314	3.142686	1.064771	0.000126
 332	3.2934e+01	13.1691	47.188061	0.000284	2.838555	0.961729	0.000114
 333	3.3034e+01	13.2141	47.337435	0.000375	3.750948	1.270856	0.000150
 334	3.3133e+01	13.2526	47.454512	0.000294	2.939932	0.996076	0.000118
 335	3.3233e+01	13.2911	47.575626	0.000304	3.041309	1.030424	0.000122
 336	3.3333e+01	13.3280	47.753260	0.000446	4.460587	1.511288	0.000179
 337	3.3432e+01	13.3745	47.882448	0.000324	3.244063	1.099118	0.000130
 338	3.3532e+01	13.4082	47.987414	0.000264	2.635802	0.893034	0.000105
 339	3.3631e+01	13.4515	48.136788	0.000375	3.750948	1.270856	0.000150
 340	3.3730e+01	13.4868	48.265976	0.000324	3.244063	1.099118	0.000130
 341	3.3830e+01	13.5349	48.374979	0.000274	2.737179	0.927381	0.000110
 342	3.3929e+01	13.5702	48.536464	0.000406	4.055079	1.373898	0.000162
 343	3.4029e+01	13.6119	48.669690	0.000335	3.345440	1.133466	0.000134
 344	3.4129e+01	13.6488	48.786767	0.000294	2.939932	0.996076	0.000118
 345	3.4228e+01	13.6873	48.919992	0.000335	3.345440	1.133466	0.000134
 346	3.4328e+01	13.7322	49.085515	0.000416	4.156456	1.408246	0.000166
 347	3.4427e+01	13.7691	49.174332	0.000223	2.230294	0.755644	0.000089
 348	3.4526e+01	13.8060	49.311594	0.000345	3.446817	1.167813	0.000138
 349	3.4626e+01	13.8477	49.424634	0.000284	2.838555	0.961729	0.000114
 350	3.4725e+01	13.8878	49.590157	0.000416	4.156456	1.408246	0.000166
 351	3.4825e+01	13.9247	49.666862	0.000193	1.926163	0.652602	0.000077
 352	3.4925e+01	13.9665	49.775865	0.000274	2.737179	0.927381	0.000110
 353	3.5024e+01	14.0114	49.925239	0.000375	3.750948	1.270856	0.000150
 354	3.5123e+01	14.0499	50.058465	0.000335	3.345440	1.133466	0.000134
 355	3.5223e+01	14.0916	50.199764	0.000355	3.548194	1.202161	0.000142
 356	3.5322e+01	14.1317	50.349138	0.000375	3.750948	1.270856	0.000150
 357	3.5422e+01	14.1686	50.470252	0.000304	3.041309	1.030424	0.000122
 358	3.5522e+01	14.2103	50.639812	0.000426	4.257833	1.442593	0.000170
 359	3.5621e+01	14.2440	50.716518	0.000193	1.926163	0.652602	0.000077
 360	3.5721e+01	14.2857	50.882040	0.000416	4.156456	1.408246	0.000166
 361	3.5820e+01	14.3322	51.031414	0.000375	3.750948	1.270856	0.000150
 362	3.5919e+01	14.3659	51.108120	0.000193	1.926163	0.652602	0.000077
 363	3.6019e+01	14.4108	51.285754	0.000446	4.460587	1.511288	0.000179
 364	3.6118e+01	14.4509	51.447239	0.000406	4.055079	1.373898	0.000162
 365	3.6218e+01	14.4830	51.548168	0.000253	2.534425	0.858686	0.000101
 366	3.6318e+01	14.5279	51.693505	0.000365	3.649571	1.236508	0.000146
 367	3.6417e+01	14.5648	51.774247	0.000203	2.027540	0.686949	0.000081
 368	3.6517e+01	14.6162	51.919584	0.000365	3.649571	1.236508	0.000146
 369	3.6616e+01	14.6482	52.040698	0.000304	3.041309	1.030424	0.000122
 370	3.6715e+01	14.6980	52.153738	0.000284	2.838555	0.961729	0.000114
 371	3.6815e+01	14.7253	52.295038	0.000355	3.548194	1.202161	0.000142
 372	3.6914e+01	14.7702	52.424226	0.000324	3.244063	1.099118	0.000130
 373	3.7014e+01	14.8087	52.545340	0.000304	3.041309	1.030424	0.000122
 374	3.7114e+01	14.8424	52.658380	0.000284	2.838555	0.961729	0.000114
 375	3.7213e+01	14.8889	52.807754	0.000375	3.750948	1.270856	0.000150
 376	3.7313e+01	14.9306	52.920794	0.000284	2.838555	0.961729	0.000114
 377	3.7412e+01	14.9627	53.041908	0.000304	3.041309	1.030424	0.000122
 378	3.7511e+01	15.0076	53.199356	0.000395	3.953702	1.339551	0.000158
 379	3.7611e+01	15.0477	53.292210	0.000233	2.331671	0.789991	0.000093
 380	3.7711e+01	15.0814	53.437547	0.000365	3.649571	1.236508	0.000146
 381	3.7810e+01	15.1199	53.526364	0.000223	2.230294	0.755644	0.000089
 382	3.7910e+01	15.1696	53.720147	0.000487	4.866095	1.648678	0.000195
 383	3.8009e+01	15.2081	53.800889	0.000203	2.027540	0.686949	0.000081
 384	3.8108e+01	15.2530	53.926041	0.000314	3.142686	1.064771	0.000126
 385	3.8208e+01	15.2755	54.047155	0.000304	3.041309	1.030424	0.000122
 386	3.8307e+01	15.3317	54.152120	0.000264	2.635802	0.893034	0.000105
 387	3.8407e+01	15.3605	54.321680	0.000426	4.257833	1.442593	0.000170
 388	3.8507e+01	15.4022	54.471054	0.000375	3.750948	1.270856	0.000150
 389	3.8606e+01	15.4423	54.567945	0.000243	2.433048	0.824339	0.000097
 390	3.8706e+01	15.4889	54.689059	0.000304	3.041309	1.030424	0.000122
 391	3.8805e+01	15.5242	54.810173	0.000304	3.041309	1.030424	0.000122
 392	3.8904e+01	15.5643	54.919176	0.000274	2.737179	0.927381	0.000110
 393	3.9004e+01	15.6092	55.064513	0.000365	3.649571	1.236508	0.000146
 394	3.9103e+01	15.6525	55.181590	0.000294	2.939932	0.996076	0.000118
 395	3.9203e+01	15.6894	55.294630	0.000284	2.838555	0.961729	0.000114
 396	3.9303e+01	15.7231	55.403632	0.000274	2.737179	0.927381	0.000110
 397	3.9402e+01	15.7728	55.569155	0.000416	4.156456	1.408246	0.000166
 398	3.9502e+01	15.8081	55.657972	0.000223	2.230294	0.755644	0.000089
 399	3.9601e+01	15.8418	55.799272	0.000355	3.548194	1.202161	0.000142
 400	3.9700e+01	15.8867	55.892126	0.000233	2.331671	0.789991	0.000093
 401	3.9800e+01	15.9204	56.041500	0.000375	3.750948	1.270856	0.000150
 402	3.9900e+01	15.9637	56.150502	0.000274	2.737179	0.927381	0.000110
 403	3.9999e+01	16.0135	56.283728	0.000335	3.345440	1.133466	0.000134
 404	4.0099e+01	16.0375	56.400805	0.000294	2.939932	0.996076	0.000118
 405	4.0198e+01	16.0889	56.513845	0.000284	2.838555	0.961729	0.000114
 406	4.0297e+01	16.1274	56.626884	0.000284	2.838555	0.961729	0.000114
 407	4.0397e+01	16.1578	56.768184	0.000355	3.548194	1.202161	0.000142
 408	4.0496e+01	16.2092	56.861038	0.000233	2.331671	0.789991	0.000093
 409	4.0596e+01	16.2461	57.002338	0.000355	3.548194	1.202161	0.000142
 410	4.0696e+01	16.2846	57.111341	0.000274	2.737179	0.927381	0.000110
 411	4.0795e+01	16.3263	57.260715	0.000375	3.750948	1.270856	0.000150
 412	4.0895e+01	16.3616	57.341457	0.000203	2.027540	0.686949	0.000081
 413	4.0994e+01	16.4017	57.494869	0.000385	3.852325	1.305203	0.000154
 414	4.1093e+01	16.4450	57.636168	0.000355	3.548194	1.202161	0.000142
 415	4.1193e+01	16.4883	57.753245	0.000294	2.939932	0.996076	0.000118
 416	4.1292e+01	16.5268	57.858211	0.000264	2.635802	0.893034	0.000105
 417	4.1392e+01	16.5621	57.979325	0.000304	3.041309	1.030424	0.000122
 418	4.1492e+01	16.6054	58.112550	0.000335	3.345440	1.133466	0.000134
 419	4.1591e+01	16.6407	58.241739	0.000324	3.244063	1.099118	0.000130
 420	4.1691e+01	16.6888	58.370927	0.000324	3.244063	1.099118	0.000130
 421	4.1790e+01	16.7161	58.471855	0.000253	2.534425	0.858686	0.000101
 422	4.1889e+01	16.7658	58.613155	0.000355	3.548194	1.202161	0.000142
 423	4.1989e+01	16.7995	58.710046	0.000243	2.433048	0.824339	0.000097
 424	4.2089e+01	16.8396	58.863458	0.000385	3.852325	1.305203	0.000154
 425	4.2188e+01	16.8653	58.980535	0.000294	2.939932	0.996076	0.000118
 426	4.2288e+01	16.9182	59.081463	0.000253	2.534425	0.858686	0.000101
 427	4.2387e+01	16.9599	59.226800	0.000365	3.649571	1.236508	0.000146
 428	4.2486e+01	16.9968	59.364062	0.000345	3.446817	1.167813	0.000138
 429	4.2586e+01	17.0353	59.440768	0.000193	1.926163	0.652602	0.000077
 430	4.2685e+01	17.0755	59.622439	0.000456	4.561964	1.545635	0.000183
 431	4.2785e+01	17.1204	59.735479	0.000284	2.838555	0.961729	0.000114
 432	4.2885e+01	17.1589	59.828333	0.000233	2.331671	0.789991	0.000093
 433	4.2984e+01	17.1974	59.961559	0.000335	3.345440	1.133466	0.000134
 434	4.3084e+01	17.2263	60.050376	0.000223	2.230294	0.755644	0.000089
 435	4.3183e+01	17.2728	60.199750	0.000375	3.750948	1.270856	0.000150
 436	4.3282e+01	17.3209	60.349124	0.000375	3.750948	1.270856	0.000150
 437	4.3382e+01	17.3658	60.450052	0.000253	2.534425	0.858686	0.000101
 438	4.3481e+01	17.3963	60.534832	0.000213	2.128917	0.721296	0.000085
 439	4.3581e+01	17.4348	60.700354	0.000416	4.156456	1.408246	0.000166
 440	4.3681e+01	17.4733	60.825506	0.000314	3.142686	1.064771	0.000126
 441	4.3780e+01	17.5182	60.922397	0.000243	2.433048	0.824339	0.000097
 442	4.3880e+01	17.5647	61.071771	0.000375	3.750948	1.270856	0.000150
 443	4.3979e+01	17.5936	61.140402	0.000172	1.723409	0.583907	0.000069
 444	4.4078e+01	17.6337	61.293813	0.000385	3.852325	1.305203	0.000154
 445	4.4178e+01	17.6802	61.386667	0.000233	2.331671	0.789991	0.000093
 446	4.4278e+01	17.7171	61.548153	0.000406	4.055079	1.373898	0.000162
 447	4.4377e+01	17.7508	61.632933	0.000213	2.128917	0.721296	0.000085
 448	4.4477e+01	17.7958	61.790381	0.000395	3.953702	1.339551	0.000158
 449	4.4576e+01	17.8423	61.907458	0.000294	2.939932	0.996076	0.000118
 450	4.4675e+01	17.8776	62.012424	0.000264	2.635802	0.893034	0.000105
 451	4.4775e+01	17.9225	62.125463	0.000284	2.838555	0.961729	0.000114
 452	4.4874e+01	17.9578	62.258689	0.000335	3.345440	1.133466	0.000134
 453	4.4974e+01	18.0027	62.355580	0.000243	2.433048	0.824339	0.000097
 454	4.5074e+01	18.0316	62.525140	0.000426	4.257833	1.442593	0.000170
 455	4.5173e+01	18.0733	62.622031	0.000243	2.433048	0.824339	0.000097
 456	4.5273e+01	18.1134	62.747182	0.000314	3.142686	1.064771	0.000126
 457	4.5372e+01	18.1647	62.848111	0.000253	2.534425	0.858686	0.000101
 458	4.5471e+01	18.1968	62.945002	0.000243	2.433048	0.824339	0.000097
 459	4.5571e+01	18.2353	63.094376	0.000375	3.750948	1.270856	0.000150
 460	4.5670e+01	18.2802	63.183193	0.000223	2.230294	0.755644	0.000089
 461	4.5770e+01	18.3123	63.328530	0.000365	3.649571	1.236508	0.000146
 462	4.5870e+01	18.3556	63.441570	0.000284	2.838555	0.961729	0.000114
 463	4.5969e+01	18.3957	63.594981	0.000385	3.852325	1.305203	0.000154
 464	4.6069e+01	18.4374	63.667649	0.000182	1.824786	0.618254	0.000073
 465	4.6168e+01	18.4759	63.796838	0.000324	3.244063	1.099118	0.000130
 466	4.6267e+01	18.5161	63.962360	0.000416	4.156456	1.408246	0.000166
 467	4.6367e+01	18.5578	64.055214	0.000233	2.331671	0.789991	0.000093
 468	4.6467e+01	18.5882	64.184403	0.000324	3.244063	1.099118	0.000130
 469	4.6566e+01	18.6316	64.305517	0.000304	3.041309	1.030424	0.000122
 470	4.6666e+01	18.6717	64.446816	0.000355	3.548194	1.202161	0.000142
 471	4.6765e+01	18.7182	64.567930	0.000304	3.041309	1.030424	0.000122
 472	4.6864e+01	18.7519	64.709230	0.000355	3.548194	1.202161	0.000142
 473	4.6964e+01	18.7968	64.818233	0.000274	2.737179	0.927381	0.000110
 474	4.7063e+01	18.8353	64.935310	0.000294	2.939932	0.996076	0.000118
 475	4.7163e+01	18.8738	65.072572	0.000345	3.446817	1.167813	0.000138
 476	4.7263e+01	18.9107	65.189649	0.000294	2.939932	0.996076	0.000118
 477	4.7362e+01	18.9540	65.306726	0.000294	2.939932	0.996076	0.000118
 478	4.7462e+01	18.9925	65.452063	0.000365	3.649571	1.236508	0.000146
 479	4.7561e+01	19.0294	65.565103	0.000284	2.838555	0.961729	0.000114
 480	4.7660e+01	19.0791	65.637771	0.000182	1.824786	0.618254	0.000073
 481	4.7760e+01	19.1064	65.815405	0.000446	4.460587	1.511288	0.000179
 482	4.7859e+01	19.1529	65.932482	0.000294	2.939932	0.996076	0.000118
 483	4.7959e+01	19.1946	66.041485	0.000274	2.737179	0.927381	0.000110
 484	4.8059e+01	19.2251	66.174710	0.000335	3.345440	1.133466	0.000134
 485	4.8158e+01	19.2684	66.283713	0.000274	2.737179	0.927381	0.000110
 486	4.8258e+01	19.3118	66.416939	0.000335	3.345440	1.133466	0.000134
 487	4.8357e+01	19.3438	66.538053	0.000304	3.041309	1.030424	0.000122
 488	4.8456e+01	19.3872	66.659167	0.000304	3.041309	1.030424	0.000122
 489	4.8556e+01	19.4224	66.784318	0.000314	3.142686	1.064771	0.000126
 490	4.8656e+01	19.4738	66.885246	0.000253	2.534425	0.858686	0.000101
 491	4.8755e+01	19.5075	67.014435	0.000324	3.244063	1.099118	0.000130
 492	4.8855e+01	19.5428	67.175920	0.000406	4.055079	1.373898	0.000162
 493	4.8954e+01	19.5925	67.284923	0.000274	2.737179	0.927381	0.000110
 494	4.9053e+01	19.6246	67.365665	0.000203	2.027540	0.686949	0.000081
 495	4.9153e+01	19.6663	67.515040	0.000375	3.750948	1.270856	0.000150
 496	4.9252e+01	19.7144	67.648265	0.000335	3.345440	1.133466	0.000134
 497	4.9352e+01	19.7513	67.749193	0.000253	2.534425	0.858686	0.000101
 498	4.9452e+01	19.7914	67.874345	0.000314	3.142686	1.064771	0.000126
 499	4.9551e+01	19.8171	67.983347	0.000274	2.737179	0.927381	0.000110
 500	4.9651e+01	19.8652	68.100424	0.000294	2.939932	0.996076	0.000118
 501	4.9750e+01	19.9101	68.221538	0.000304	3.041309	1.030424	0.000122
 502	4.9849e+01	19.9454	68.354764	0.000335	3.345440	1.133466	0.000134
 503	4.9949e+01	19.9807	68.455692	0.000253	2.534425	0.858686	0.000101
 504	5.0048e+01	19.9551	68.419358	0.000091	0.912393	0.309127	-0.000037
 505	5.0148e+01	19.9101	68.346689	0.000182	1.824786	0.618254	-0.000073
 506	5.0248e+01	19.8748	68.294207	0.000132	1.317901	0.446517	-0.000053
 507	5.0347e+01	19.8267	68.229613	0.000162	1.622032	0.549559	-0.000065
 508	5.0447e+01	19.7930	68.140796	0.000223	2.230294	0.755644	-0.000089
 509	5.0546e+01	19.7577	68.047941	0.000233	2.331671	0.789991	-0.000093
 510	5.0645e+01	19.7064	67.999496	0.000122	1.216524	0.412169	-0.000049
 511	5.0745e+01	19.6631	67.951050	0.000122	1.216524	0.412169	-0.000049
 512	5.0844e+01	19.6230	67.809750	0.000355	3.548194	1.202161	-0.000142
 513	5.0944e+01	19.5861	67.757268	0.000132	1.317901	0.446517	-0.000053
 514	5.1044e+01	19.5444	67.644228	0.000284	2.838555	0.961729	-0.000114
 515	5.1143e+01	19.5091	67.599819	0.000112	1.115147	0.377822	-0.000045
 516	5.1242e+01	19.4818	67.511002	0.000223	2.230294	0.755644	-0.000089
 517	5.1342e+01	19.4305	67.450445	0.000152	1.520655	0.515212	-0.000061
 518	5.1441e+01	19.4000	67.369703	0.000203	2.027540	0.686949	-0.000081
 519	5.1541e+01	19.3535	67.297034	0.000182	1.824786	0.618254	-0.000073
 520	5.1641e+01	19.3182	67.183994	0.000284	2.838555	0.961729	-0.000114
 521	5.1740e+01	19.2765	67.091140	0.000233	2.331671	0.789991	-0.000093
 522	5.1840e+01	19.2251	67.034620	0.000142	1.419278	0.480864	-0.000057
 523	5.1939e+01	19.2027	66.957915	0.000193	1.926163	0.652602	-0.000077
 524	5.2038e+01	19.1545	66.889283	0.000172	1.723409	0.583907	-0.000069
 525	5.2138e+01	19.1096	66.792392	0.000243	2.433048	0.824339	-0.000097
 526	5.2237e+01	19.0695	66.711650	0.000203	2.027540	0.686949	-0.000081
 527	5.2337e+01	19.0310	66.647055	0.000162	1.622032	0.549559	-0.000065
 528	5.2437e+01	18.9941	66.542090	0.000264	2.635802	0.893034	-0.000105
 529	5.2536e+01	18.9508	66.449236	0.000233	2.331671	0.789991	-0.000093
 530	5.2636e+01	18.9123	66.376567	0.000182	1.824786	0.618254	-0.000073
 531	5.2735e+01	18.8754	66.299862	0.000193	1.926163	0.652602	-0.000077
 532	5.2834e+01	18.8305	66.239305	0.000152	1.520655	0.515212	-0.000061
 533	5.2934e+01	18.7968	66.102042	0.000345	3.446817	1.167813	-0.000138
 534	5.3033e+01	18.7487	66.049559	0.000132	1.317901	0.446517	-0.000053
 535	5.3133e+01	18.7150	65.968817	0.000203	2.027540	0.686949	-0.000081
 536	5.3233e+01	18.6797	65.843665	0.000314	3.142686	1.064771	-0.000126
 537	5.3332e+01	18.6251	65.750811	0.000233	2.331671	0.789991	-0.000093
 538	5.3431e+01	18.5963	65.686217	0.000162	1.622032	0.549559	-0.000065
 539	5.3531e+01	18.5594	65.629697	0.000142	1.419278	0.480864	-0.000057
 540	5.3630e+01	18.5128	65.524732	0.000264	2.635802	0.893034	-0.000105
 541	5.3730e+01	18.4743	65.411692	0.000284	2.838555	0.961729	-0.000114
 542	5.3830e+01	18.4342	65.339023	0.000182	1.824786	0.618254	-0.000073
 543	5.3929e+01	18.3925	65.217909	0.000304	3.041309	1.030424	-0.000122
 544	5.4029e+01	18.3540	65.145241	0.000182	1.824786	0.618254	-0.000073
 545	5.4128e+01	18.3203	65.032201	0.000284	2.838555	0.961729	-0.000114
 546	5.4227e+01	18.2786	64.923198	0.000274	2.737179	0.927381	-0.000110
 547	5.4327e+01	18.2305	64.882827	0.000101	1.013770	0.343475	-0.000041
 548	5.4426e+01	18.1936	64.733453	0.000375	3.750948	1.270856	-0.000150
 549	5.4526e+01	18.1567	64.685007	0.000122	1.216524	0.412169	-0.000049
 550	5.4626e+01	18.1102	64.584079	0.000253	2.534425	0.858686	-0.000101
 551	5.4725e+01	18.0701	64.507373	0.000193	1.926163	0.652602	-0.000077
 552	5.4825e+01	18.0348	64.402408	0.000264	2.635802	0.893034	-0.000105
 553	5.4924e+01	17.9931	64.289368	0.000284	2.838555	0.961729	-0.000114
 554	5.5023e+01	17.9546	64.232848	0.000142	1.419278	0.480864	-0.000057
 555	5.5123e+01	17.9177	64.111734	0.000304	3.041309	1.030424	-0.000122
 556	5.5222e+01	17.8663	63.994657	0.000294	2.939932	0.996076	-0.000118
 557	5.5322e+01	17.8375	63.905840	0.000223	2.230294	0.755644	-0.000089
 558	5.5422e+01	17.7974	63.833172	0.000182	1.824786	0.618254	-0.000073
 559	5.5521e+01	17.7524	63.728206	0.000264	2.635802	0.893034	-0.000105
 560	5.5620e+01	17.7059	63.603055	0.000314	3.142686	1.064771	-0.000126
 561	5.5720e+01	17.6851	63.530387	0.000182	1.824786	0.618254	-0.000073
 562	5.5819e+01	17.6417	63.457718	0.000182	1.824786	0.618254	-0.000073
 563	5.5919e+01	17.5936	63.316418	0.000355	3.548194	1.202161	-0.000142
 564	5.6019e+01	17.5519	63.219527	0.000243	2.433048	0.824339	-0.000097
 565	5.6118e+01	17.5182	63.146859	0.000182	1.824786	0.618254	-0.000073
 566	5.6218e+01	17.4765	63.021707	0.000314	3.142686	1.064771	-0.000126
 567	5.6317e+01	17.4428	62.916742	0.000264	2.635802	0.893034	-0.000105
 568	5.6416e+01	17.3947	62.848111	0.000172	1.723409	0.583907	-0.000069
 569	5.6516e+01	17.3514	62.710848	0.000345	3.446817	1.167813	-0.000138
 570	5.6615e+01	17.3161	62.609920	0.000253	2.534425	0.858686	-0.000101
 571	5.6715e+01	17.2776	62.553400	0.000142	1.419278	0.480864	-0.000057
 572	5.6815e+01	17.2487	62.420174	0.000335	3.345440	1.133466	-0.000134
 573	5.6914e+01	17.2006	62.343469	0.000193	1.926163	0.652602	-0.000077
 574	5.7014e+01	17.1541	62.206206	0.000345	3.446817	1.167813	-0.000138
 575	5.7113e+01	17.1172	62.137575	0.000172	1.723409	0.583907	-0.000069
 576	5.7212e+01	17.0771	62.040683	0.000243	2.433048	0.824339	-0.000097
 577	5.7312e+01	17.0402	61.935718	0.000264	2.635802	0.893034	-0.000105
 578	5.7411e+01	16.9952	61.838827	0.000243	2.433048	0.824339	-0.000097
 579	5.7511e+01	16.9583	61.733861	0.000264	2.635802	0.893034	-0.000105
 580	5.7611e+01	16.9102	61.612747	0.000304	3.041309	1.030424	-0.000122
 581	5.7710e+01	16.8765	61.540079	0.000182	1.824786	0.618254	-0.000073
 582	5.7809e+01	16.8380	61.435113	0.000264	2.635802	0.893034	-0.000105
 583	5.7909e+01	16.8108	61.346296	0.000223	2.230294	0.755644	-0.000089
 584	5.8008e+01	16.7658	61.233256	0.000284	2.838555	0.961729	-0.000114
 585	5.8108e+01	16.7113	61.128291	0.000264	2.635802	0.893034	-0.000105
 586	5.8208e+01	16.6920	60.991028	0.000345	3.446817	1.167813	-0.000138
 587	5.8307e+01	16.6391	60.938545	0.000132	1.317901	0.446517	-0.000053
 588	5.8407e+01	16.6054	60.853766	0.000213	2.128917	0.721296	-0.000085
 589	5.8506e+01	16.5637	60.732651	0.000304	3.041309	1.030424	-0.000122
 590	5.8605e+01	16.5284	60.627686	0.000264	2.635802	0.893034	-0.000105
 591	5.8705e+01	16.4883	60.550980	0.000193	1.926163	0.652602	-0.000077
 592	5.8804e+01	16.4402	60.421792	0.000324	3.244063	1.099118	-0.000130
 593	5.8904e+01	16.4065	60.308752	0.000284	2.838555	0.961729	-0.000114
 594	5.9004e+01	16.3632	60.207824	0.000253	2.534425	0.858686	-0.000101
 595	5.9103e+01	16.3263	60.147267	0.000152	1.520655	0.515212	-0.000061
 596	5.9203e+01	16.2878	60.034227	0.000284	2.838555	0.961729	-0.000114
 597	5.9302e+01	16.2477	59.905039	0.000324	3.244063	1.099118	-0.000130
 598	5.9401e+01	16.1979	59.840444	0.000162	1.622032	0.549559	-0.000065
 599	5.9501e+01	16.1594	59.731442	0.000274	2.737179	0.927381	-0.000110
 600	5.9600e+01	16.1193	59.618402	0.000284	2.838555	0.961729	-0.000114
 601	5.9700e+01	16.0872	59.505362	0.000284	2.838555	0.961729	-0.000114
 602	5.9800e+01	16.0423	59.440768	0.000162	1.622032	0.549559	-0.000065
 603	5.9899e+01	16.0086	59.331765	0.000274	2.737179	0.927381	-0.000110
 604	5.9998e+01	15.9525	59.206614	0.000314	3.142686	1.064771	-0.000126
 605	6.0098e+01	15.9204	59.121834	0.000213	2.128917	0.721296	-0.000085
 606	6.0197e+01	15.8899	58.996683	0.000314	3.142686	1.064771	-0.000126
 607	6.0297e+01	15.8402	58.924015	0.000182	1.824786	0.618254	-0.000073
 608	6.0397e+01	15.8113	58.778678	0.000365	3.649571	1.236508	-0.000146
 609	6.0496e+01	15.7744	58.718121	0.000152	1.520655	0.515212	-0.000061
 610	6.0596e+01	15.7295	58.564710	0.000385	3.852325	1.305203	-0.000154
 611	6.0695e+01	15.6814	58.492041	0.000182	1.824786	0.618254	-0.000073
 612	6.0794e+01	15.6445	58.379001	0.000284	2.838555	0.961729	-0.000114
 613	6.0894e+01	15.6092	58.265962	0.000284	2.838555	0.961729	-0.000114
 614	6.0993e+01	15.5675	58.193293	0.000182	1.824786	0.618254	-0.000073
 615	6.1093e+01	15.5258	58.039882	0.000385	3.852325	1.305203	-0.000154
 616	6.1193e+01	15.4905	57.942991	0.000243	2.433048	0.824339	-0.000097
 617	6.1292e+01	15.4520	57.842062	0.000253	2.534425	0.858686	-0.000101
 618	6.1392e+01	15.4103	57.737097	0.000264	2.635802	0.893034	-0.000105
 619	6.1491e+01	15.3637	57.599834	0.000345	3.446817	1.167813	-0.000138
 620	6.1590e+01	15.3268	57.511017	0.000223	2.230294	0.755644	-0.000089
 621	6.1690e+01	15.2899	57.393940	0.000294	2.939932	0.996076	-0.000118
 622	6.1789e+01	15.2418	57.309160	0.000213	2.128917	0.721296	-0.000085
 623	6.1889e+01	15.2001	57.212269	0.000243	2.433048	0.824339	-0.000097
 624	6.1989e+01	15.1632	57.115378	0.000243	2.433048	0.824339	-0.000097
 625	6.2088e+01	15.1295	56.978115	0.000345	3.446817	1.167813	-0.000138
 626	6.2188e+01	15.0814	56.865075	0.000284	2.838555	0.961729	-0.000114
 627	6.2287e+01	15.0445	56.804518	0.000152	1.520655	0.515212	-0.000061
 628	6.2386e+01	15.0140	56.659182	0.000365	3.649571	1.236508	-0.000146
 629	6.2486e+01	14.9771	56.578439	0.000203	2.027540	0.686949	-0.000081
 630	6.2586e+01	14.9242	56.469436	0.000274	2.737179	0.927381	-0.000110
 631	6.2685e+01	14.8777	56.376582	0.000233	2.331671	0.789991	-0.000093
 632	6.2785e+01	14.8424	56.271616	0.000264	2.635802	0.893034	-0.000105
 633	6.2884e+01	14.8167	56.154540	0.000294	2.939932	0.996076	-0.000118
 634	6.2983e+01	14.7670	56.057648	0.000243	2.433048	0.824339	-0.000097
 635	6.3083e+01	14.7317	55.964794	0.000233	2.331671	0.789991	-0.000093
 636	6.3182e+01	14.6948	55.839643	0.000314	3.142686	1.064771	-0.000126
 637	6.3282e+01	14.6466	55.718529	0.000304	3.041309	1.030424	-0.000122
 638	6.3382e+01	14.6081	55.649898	0.000172	1.723409	0.583907	-0.000069
 639	6.3481e+01	14.5664	55.532821	0.000294	2.939932	0.996076	-0.000118
 640	6.3581e+01	14.5311	55.427855	0.000264	2.635802	0.893034	-0.000105
 641	6.3680e+01	14.4846	55.347112	0.000203	2.027540	0.686949	-0.000081
 642	6.3779e+01	14.4493	55.213887	0.000335	3.345440	1.133466	-0.000134
 643	6.3879e+01	14.4028	55.112959	0.000253	2.534425	0.858686	-0.000101
 644	6.3978e+01	14.3707	55.048364	0.000162	1.622032	0.549559	-0.000065
 645	6.4078e+01	14.3354	54.866693	0.000456	4.561964	1.545635	-0.000183
 646	6.4177e+01	14.2889	54.798062	0.000172	1.723409	0.583907	-0.000069
 647	6.4277e+01	14.2520	54.689059	0.000274	2.737179	0.927381	-0.000110
 648	6.4376e+01	14.2103	54.576019	0.000284	2.838555	0.961729	-0.000114
 649	6.4476e+01	14.1638	54.483165	0.000233	2.331671	0.789991	-0.000093
 650	6.4576e+01	14.1285	54.382237	0.000253	2.534425	0.858686	-0.000101
 651	6.4675e+01	14.0868	54.253049	0.000324	3.244063	1.099118	-0.000130
 652	6.4775e+01	14.0531	54.188454	0.000162	1.622032	0.549559	-0.000065
 653	6.4874e+01	14.0194	54.059266	0.000324	3.244063	1.099118	-0.000130
 654	6.4974e+01	13.9745	53.962375	0.000243	2.433048	0.824339	-0.000097
 655	6.5073e+01	13.9360	53.869521	0.000233	2.331671	0.789991	-0.000093
 656	6.5172e+01	13.8911	53.687850	0.000456	4.561964	1.545635	-0.000183
 657	6.5272e+01	13.8493	53.615181	0.000182	1.824786	0.618254	-0.000073
 658	6.5371e+01	13.8205	53.526364	0.000223	2.230294	0.755644	-0.000089
 659	6.5471e+01	13.7772	53.393139	0.000335	3.345440	1.133466	-0.000134
 660	6.5570e+01	13.7306	53.259913	0.000335	3.345440	1.133466	-0.000134
 661	6.5670e+01	13.6889	53.175133	0.000213	2.128917	0.721296	-0.000085
 662	6.5769e+01	13.6456	53.082279	0.000233	2.331671	0.789991	-0.000093
 663	6.5869e+01	13.6039	52.977314	0.000264	2.635802	0.893034	-0.000105
 664	6.5969e+01	13.5798	52.884460	0.000233	2.331671	0.789991	-0.000093
 665	6.6068e+01	13.5317	52.747197	0.000345	3.446817	1.167813	-0.000138
 666	6.6168e+01	13.4932	52.626083	0.000304	3.041309	1.030424	-0.000122
 667	6.6267e+01	13.4579	52.521117	0.000264	2.635802	0.893034	-0.000105
 668	6.6367e+01	13.4146	52.424226	0.000243	2.433048	0.824339	-0.000097
 669	6.6466e+01	13.3777	52.303112	0.000304	3.041309	1.030424	-0.000122
 670	6.6566e+01	13.3296	52.230444	0.000182	1.824786	0.618254	-0.000073
 671	6.6665e+01	13.2927	52.089144	0.000355	3.548194	1.202161	-0.000142
 672	6.6764e+01	13.2558	51.988215	0.000253	2.534425	0.858686	-0.000101
 673	6.6864e+01	13.2125	51.883250	0.000264	2.635802	0.893034	-0.000105
 674	6.6963e+01	13.1675	51.745987	0.000345	3.446817	1.167813	-0.000138
 675	6.7063e+01	13.1306	51.645059	0.000253	2.534425	0.858686	-0.000101
 676	6.7162e+01	13.0954	51.540093	0.000264	2.635802	0.893034	-0.000105
 677	6.7262e+01	13.0552	51.475499	0.000162	1.622032	0.549559	-0.000065
 678	6.7362e+01	13.0119	51.330162	0.000365	3.649571	1.236508	-0.000146
 679	6.7461e+01	12.9766	51.217123	0.000284	2.838555	0.961729	-0.000114
 680	6.7561e+01	12.9317	51.083897	0.000335	3.345440	1.133466	-0.000134
 681	6.7660e+01	12.8932	50.970857	0.000284	2.838555	0.961729	-0.000114
 682	6.7760e+01	12.8563	50.873966	0.000243	2.433048	0.824339	-0.000097
 683	6.7859e+01	12.8066	50.760926	0.000284	2.838555	0.961729	-0.000114
 684	6.7959e+01	12.7777	50.651924	0.000274	2.737179	0.927381	-0.000110
 685	6.8058e+01	12.7408	50.514661	0.000345	3.446817	1.167813	-0.000138
 686	6.8157e+01	12.6991	50.446030	0.000172	1.723409	0.583907	-0.000069
 687	6.8257e+01	12.6606	50.304730	0.000355	3.548194	1.202161	-0.000142
 688	6.8356e+01	12.6157	50.219950	0.000213	2.128917	0.721296	-0.000085
 689	6.8456e+01	12.5740	50.110947	0.000274	2.737179	0.927381	-0.000110
 690	6.8555e+01	12.5387	49.969648	0.000355	3.548194	1.202161	-0.000142
 691	6.8655e+01	12.5002	49.852571	0.000294	2.939932	0.996076	-0.000118
 692	6.8754e+01	12.4601	49.747605	0.000264	2.635802	0.893034	-0.000105
 693	6.8854e+01	12.4184	49.618417	0.000324	3.244063	1.099118	-0.000130
 694	6.8954e+01	12.3783	49.477117	0.000355	3.548194	1.202161	-0.000142
 695	6.9053e+01	12.3414	49.400411	0.000193	1.926163	0.652602	-0.000077
 696	6.9153e+01	12.3029	49.291409	0.000274	2.737179	0.927381	-0.000110
 697	6.9252e+01	12.2595	49.182406	0.000274	2.737179	0.927381	-0.000110
 698	6.9352e+01	12.2243	49.041106	0.000355	3.548194	1.202161	-0.000142
 699	6.9451e+01	12.1809	48.988624	0.000132	1.317901	0.446517	-0.000053
 700	6.9550e+01	12.1264	48.798878	0.000476	4.764718	1.614330	-0.000191
 701	6.9650e+01	12.0991	48.714098	0.000213	2.128917	0.721296	-0.000085
 702	6.9749e+01	12.0574	48.601059	0.000284	2.838555	0.961729	-0.000114
 703	6.9849e+01	12.0189	48.459759	0.000355	3.548194	1.202161	-0.000142
 704	6.9948e+01	11.9868	48.358830	0.000253	2.534425	0.858686	-0.000101
 705	7.0048e+01	11.9403	48.241754	0.000294	2.939932	0.996076	-0.000118
 706	7.0147e+01	11.8970	48.169085	0.000182	1.824786	0.618254	-0.000073
 707	7.0247e+01	11.8585	48.023748	0.000365	3.649571	1.236508	-0.000146
 708	7.0347e+01	11.8200	47.886486	0.000345	3.446817	1.167813	-0.000138
 709	7.0446e+01	11.7847	47.801706	0.000213	2.128917	0.721296	-0.000085
 710	7.0546e+01	11.7334	47.640220	0.000406	4.055079	1.373898	-0.000162
 711	7.0645e+01	11.7029	47.543329	0.000243	2.433048	0.824339	-0.000097
 712	7.0745e+01	11.6564	47.414141	0.000324	3.244063	1.099118	-0.000130
 713	7.0844e+01	11.6227	47.329361	0.000213	2.128917	0.721296	-0.000085
 714	7.0944e+01	11.5713	47.184024	0.000365	3.649571	1.236508	-0.000146
 715	7.1043e+01	11.5505	47.123467	0.000152	1.520655	0.515212	-0.000061
 716	7.1142e+01	11.5023	46.970056	0.000385	3.852325	1.305203	-0.000154
 717	7.1242e+01	11.4622	46.832793	0.000345	3.446817	1.167813	-0.000138
 718	7.1341e+01	11.4221	46.731865	0.000253	2.534425	0.858686	-0.000101
 719	7.1441e+01	11.3788	46.614788	0.000294	2.939932	0.996076	-0.000118
 720	7.1540e+01	11.3467	46.517897	0.000243	2.433048	0.824339	-0.000097
 721	7.1640e+01	11.3002	46.364485	0.000385	3.852325	1.305203	-0.000154
 722	7.1740e+01	11.2521	46.223186	0.000355	3.548194	1.202161	-0.000142
 723	7.1839e+01	11.2168	46.102072	0.000304	3.041309	1.030424	-0.000122
 724	7.1939e+01	11.1863	46.025366	0.000193	1.926163	0.652602	-0.000077
 725	7.2038e+01	11.1382	45.900215	0.000314	3.142686	1.064771	-0.000126
 726	7.2138e+01	11.0965	45.762952	0.000345	3.446817	1.167813	-0.000138
 727	7.2237e+01	11.0564	45.629727	0.000335	3.345440	1.133466	-0.000134
 728	7.2337e+01	11.0307	45.504575	0.000314	3.142686	1.064771	-0.000126
 729	7.2436e+01	10.9874	45.379424	0.000314	3.142686	1.064771	-0.000126
 730	7.2535e+01	10.9521	45.238125	0.000355	3.548194	1.202161	-0.000142
 731	7.2635e+01	10.9040	45.145270	0.000233	2.331671	0.789991	-0.000093
 732	7.2734e+01	10.8655	44.983785	0.000406	4.055079	1.373898	-0.000162
 733	7.2834e+01	10.8238	44.899005	0.000213	2.128917	0.721296	-0.000085
 734	7.2933e+01	10.7820	44.753668	0.000365	3.649571	1.236508	-0.000146
 735	7.3033e+01	10.7403	44.644666	0.000274	2.737179	0.927381	-0.000110
 736	7.3132e+01	10.7034	44.511440	0.000335	3.345440	1.133466	-0.000134
 737	7.3232e+01	10.6681	44.358029	0.000385	3.852325	1.305203	-0.000154
 738	7.3332e+01	10.6264	44.297472	0.000152	1.520655	0.515212	-0.000061
 739	7.3431e+01	10.5783	44.140024	0.000395	3.953702	1.339551	-0.000158
 740	7.3531e+01	10.5462	44.039095	0.000253	2.534425	0.858686	-0.000101
 741	7.3630e+01	10.5013	43.849350	0.000476	4.764718	1.614330	-0.000191
 742	7.3730e+01	10.4756	43.776681	0.000182	1.824786	0.618254	-0.000073
 743	7.3829e+01	10.4355	43.639419	0.000345	3.446817	1.167813	-0.000138
 744	7.3928e+01	10.3842	43.514268	0.000314	3.142686	1.064771	-0.000126
 745	7.4028e+01	10.3457	43.413339	0.000253	2.534425	0.858686	-0.000101
 746	7.4127e+01	10.3088	43.263965	0.000375	3.750948	1.270856	-0.000150
 747	7.4227e+01	10.2735	43.142851	0.000304	3.041309	1.030424	-0.000122
 748	7.4326e+01	10.2270	43.037886	0.000264	2.635802	0.893034	-0.000105
 749	7.4426e+01	10.1837	42.892549	0.000365	3.649571	1.236508	-0.000146
 750	7.4525e+01	10.1452	42.795657	0.000243	2.433048	0.824339	-0.000097
 751	7.4625e+01	10.1099	42.638209	0.000395	3.953702	1.339551	-0.000158
 752	7.4725e+01	10.0666	42.513058	0.000314	3.142686	1.064771	-0.000126
 753	7.4824e+01	10.0313	42.400018	0.000284	2.838555	0.961729	-0.000114
 754	7.4924e+01	9.9767	42.266793	0.000335	3.345440	1.133466	-0.000134
 755	7.5023e+01	9.9462	42.121456	0.000365	3.649571	1.236508	-0.000146
 756	7.5123e+01	9.9061	42.008416	0.000284	2.838555	0.961729	-0.000114
 757	7.5222e+01	9.8692	41.883265	0.000314	3.142686	1.064771	-0.000126
 758	7.5322e+01	9.8307	41.754076	0.000324	3.244063	1.099118	-0.000130
 759	7.5421e+01	9.7826	41.673334	0.000203	2.027540	0.686949	-0.000081
 760	7.5520e+01	9.7489	41.519922	0.000385	3.852325	1.305203	-0.000154
 761	7.5620e+01	9.7088	41.394771	0.000314	3.142686	1.064771	-0.000126
 762	7.5719e+01	9.6671	41.265583	0.000324	3.244063	1.099118	-0.000130
 763	7.5819e+01	9.6238	41.172729	0.000233	2.331671	0.789991	-0.000093
 764	7.5918e+01	9.5869	41.019318	0.000385	3.852325	1.305203	-0.000154
 765	7.6018e+01	9.5580	40.922426	0.000243	2.433048	0.824339	-0.000097
 766	7.6118e+01	9.5083	40.781127	0.000355	3.548194	1.202161	-0.000142
 767	7.6217e+01	9.4714	40.631753	0.000375	3.750948	1.270856	-0.000150
 768	7.6317e+01	9.4249	40.490453	0.000355	3.548194	1.202161	-0.000142
 769	7.6416e+01	9.3912	40.405673	0.000213	2.128917	0.721296	-0.000085
 770	7.6516e+01	9.3479	40.260336	0.000365	3.649571	1.236508	-0.000146
 771	7.6615e+01	9.3029	40.139222	0.000304	3.041309	1.030424	-0.000122
 772	7.6715e+01	9.2741	40.018108	0.000304	3.041309	1.030424	-0.000122
 773	7.6814e+01	9.2292	39.872771	0.000365	3.649571	1.236508	-0.000146
 774	7.6913e+01	9.1890	39.723397	0.000375	3.750948	1.270856	-0.000150
 775	7.7013e+01	9.1473	39.594209	0.000324	3.244063	1.099118	-0.000130
 776	7.7112e+01	9.1040	39.452909	0.000355	3.548194	1.202161	-0.000142
 777	7.7212e+01	9.0671	39.315646	0.000345	3.446817	1.167813	-0.000138
 778	7.7311e+01	9.0334	39.230867	0.000213	2.128917	0.721296	-0.000085
 779	7.7411e+01	8.9885	39.081493	0.000375	3.750948	1.270856	-0.000150
 780	7.7510e+01	8.9500	38.968453	0.000284	2.838555	0.961729	-0.000114
 781	7.7610e+01	8.9195	38.847339	0.000304	3.041309	1.030424	-0.000122
 782	7.7710e+01	8.8714	38.665668	0.000456	4.561964	1.545635	-0.000183
 783	7.7809e+01	8.8329	38.576851	0.000223	2.230294	0.755644	-0.000089
 784	7.7909e+01	8.7832	38.451699	0.000314	3.142686	1.064771	-0.000126
 785	7.8008e+01	8.7511	38.282140	0.000426	4.257833	1.442593	-0.000170
 786	7.8108e+01	8.7094	38.161026	0.000304	3.041309	1.030424	-0.000122
 787	7.8207e+01	8.6805	38.027800	0.000335	3.345440	1.133466	-0.000134
 788	7.8306e+01	8.6292	37.914760	0.000284	2.838555	0.961729	-0.000114
 789	7.8406e+01	8.5923	37.769423	0.000365	3.649571	1.236508	-0.000146
 790	7.8505e+01	8.5602	37.624087	0.000365	3.649571	1.236508	-0.000146
 791	7.8605e+01	8.5072	37.519121	0.000264	2.635802	0.893034	-0.000105
 792	7.8704e+01	8.4736	37.398007	0.000304	3.041309	1.030424	-0.000122
 793	7.8804e+01	8.4318	37.240559	0.000395	3.953702	1.339551	-0.000158
 794	7.8903e+01	8.3917	37.127519	0.000284	2.838555	0.961729	-0.000114
 795	7.9003e+01	8.3452	37.014479	0.000284	2.838555	0.961729	-0.000114
 796	7.9103e+01	8.3179	36.857031	0.000395	3.953702	1.339551	-0.000158
 797	7.9202e+01	8.2682	36.715731	0.000355	3.548194	1.202161	-0.000142
 798	7.9302e+01	8.2345	36.562320	0.000385	3.852325	1.305203	-0.000154
 799	7.9401e+01	8.1928	36.441206	0.000304	3.041309	1.030424	-0.000122
 800	7.9501e+01	8.1559	36.360463	0.000203	2.027540	0.686949	-0.000081
 801	7.9600e+01	8.1110	36.239349	0.000304	3.041309	1.030424	-0.000122
 802	7.9700e+01	8.0709	36.057678	0.000456	4.561964	1.545635	-0.000183
 803	7.9799e+01	8.0260	35.976935	0.000203	2.027540	0.686949	-0.000081
 804	7.9898e+01	7.9923	35.815450	0.000406	4.055079	1.373898	-0.000162
 805	7.9998e+01	7.9554	35.714521	0.000253	2.534425	0.858686	-0.000101
 806	8.0097e+01	7.9153	35.577259	0.000345	3.446817	1.167813	-0.000138
 807	8.0197e+01	7.8720	35.407699	0.000426	4.257833	1.442593	-0.000170
 808	8.0296e+01	7.8319	35.306771	0.000253	2.534425	0.858686	-0.000101
 809	8.0396e+01	7.7950	35.185657	0.000304	3.041309	1.030424	-0.000122
 810	8.0496e+01	7.7484	35.028208	0.000395	3.953702	1.339551	-0.000158
 811	8.0595e+01	7.7115	34.931317	0.000243	2.433048	0.824339	-0.000097
 812	8.0695e+01	7.6843	34.802129	0.000324	3.244063	1.099118	-0.000130
 813	8.0794e+01	7.6361	34.648717	0.000385	3.852325	1.305203	-0.000154
 814	8.0894e+01	7.5960	34.495306	0.000385	3.852325	1.305203	-0.000154
 815	8.0993e+01	7.5511	34.402452	0.000233	2.331671	0.789991	-0.000093
 816	8.1093e+01	7.5174	34.216744	0.000466	4.663341	1.579983	-0.000187
 817	8.1192e+01	7.4741	34.095630	0.000304	3.041309	1.030424	-0.000122
 818	8.1291e+01	7.4420	33.982590	0.000284	2.838555	0.961729	-0.000114
 819	8.1391e+01	7.4003	33.869550	0.000284	2.838555	0.961729	-0.000114
 820	8.1490e+01	7.3554	33.724213	0.000365	3.649571	1.236508	-0.000146
 821	8.1590e+01	7.3153	33.586951	0.000345	3.446817	1.167813	-0.000138
 822	8.1689e+01	7.2752	33.457762	0.000324	3.244063	1.099118	-0.000130
 823	8.1789e+01	7.2383	33.316463	0.000355	3.548194	1.202161	-0.000142
 824	8.1888e+01	7.1902	33.179200	0.000345	3.446817	1.167813	-0.000138
 825	8.1988e+01	7.1581	33.054049	0.000314	3.142686	1.064771	-0.000126
 826	8.2088e+01	7.1164	32.928898	0.000314	3.142686	1.064771	-0.000126
 827	8.2187e+01	7.0827	32.767412	0.000406	4.055079	1.373898	-0.000162
 828	8.2287e+01	7.0314	32.634187	0.000335	3.345440	1.133466	-0.000134
 829	8.2386e+01	6.9896	32.496924	0.000345	3.446817	1.167813	-0.000138
 830	8.2486e+01	6.9543	32.387921	0.000274	2.737179	0.927381	-0.000110
 831	8.2585e+01	6.9175	32.254696	0.000335	3.345440	1.133466	-0.000134
 832	8.2684e+01	6.8806	32.081099	0.000436	4.359210	1.476940	-0.000174
 833	8.2784e+01	6.8324	31.964022	0.000294	2.939932	0.996076	-0.000118
 834	8.2883e+01	6.8036	31.826760	0.000345	3.446817	1.167813	-0.000138
 835	8.2983e+01	6.7650	31.673348	0.000385	3.852325	1.305203	-0.000154
 836	8.3082e+01	6.7153	31.523974	0.000375	3.750948	1.270856	-0.000150
 837	8.3182e+01	6.6736	31.382675	0.000355	3.548194	1.202161	-0.000142
 838	8.3281e+01	6.6367	31.253486	0.000324	3.244063	1.099118	-0.000130
 839	8.3381e+01	6.5934	31.144484	0.000274	2.737179	0.927381	-0.000110
 840	8.3481e+01	6.5693	31.019332	0.000314	3.142686	1.064771	-0.000126
 841	8.3580e+01	6.5196	30.898218	0.000304	3.041309	1.030424	-0.000122
 842	8.3680e+01	6.4779	30.728659	0.000426	4.257833	1.442593	-0.000170
 843	8.3779e+01	6.4394	30.563136	0.000416	4.156456	1.408246	-0.000166
 844	8.3879e+01	6.4041	30.458171	0.000264	2.635802	0.893034	-0.000105
 845	8.3978e+01	6.3608	30.316871	0.000355	3.548194	1.202161	-0.000142
 846	8.4078e+01	6.3191	30.232091	0.000213	2.128917	0.721296	-0.000085
 847	8.4177e+01	6.2822	30.042346	0.000476	4.764718	1.614330	-0.000191
 848	8.4276e+01	6.2501	29.901046	0.000355	3.548194	1.202161	-0.000142
 849	8.4376e+01	6.2036	29.755709	0.000365	3.649571	1.236508	-0.000146
 850	8.4475e+01	6.1683	29.630558	0.000314	3.142686	1.064771	-0.000126
 851	8.4575e+01	6.1234	29.473109	0.000395	3.953702	1.339551	-0.000158
 852	8.4674e+01	6.0768	29.343921	0.000324	3.244063	1.099118	-0.000130
 853	8.4774e+01	6.0399	29.154176	0.000476	4.764718	1.614330	-0.000191
 854	8.4874e+01	6.0014	29.077470	0.000193	1.926163	0.652602	-0.000077
 855	8.4973e+01	5.9581	28.915985	0.000406	4.055079	1.373898	-0.000162
 856	8.5073e+01	5.9341	28.766611	0.000375	3.750948	1.270856	-0.000150
 857	8.5172e+01	5.8811	28.633385	0.000335	3.345440	1.133466	-0.000134
 858	8.5272e+01	5.8506	28.500160	0.000335	3.345440	1.133466	-0.000134
 859	8.5371e+01	5.8025	28.407306	0.000233	2.331671	0.789991	-0.000093
 860	8.5471e+01	5.7688	28.237746	0.000426	4.257833	1.442593	-0.000170
 861	8.5570e+01	5.7287	28.084335	0.000385	3.852325	1.305203	-0.000154
 862	8.5669e+01	5.6870	27.967258	0.000294	2.939932	0.996076	-0.000118
 863	8.5769e+01	5.6389	27.809810	0.000395	3.953702	1.339551	-0.000158
 864	8.5868e+01	5.5908	27.624101	0.000466	4.663341	1.579983	-0.000187
 865	8.5968e+01	5.5651	27.507024	0.000294	2.939932	0.996076	-0.000118
 866	8.6067e+01	5.5250	27.393985	0.000284	2.838555	0.961729	-0.000114
 867	8.6167e+01	5.4849	27.216351	0.000446	4.460587	1.511288	-0.000179
 868	8.6266e+01	5.4448	27.087162	0.000324	3.244063	1.099118	-0.000130
 869	8.6366e+01	5.4031	26.957974	0.000324	3.244063	1.099118	-0.000130
 870	8.6466e+01	5.3630	26.808600	0.000375	3.750948	1.270856	-0.000150
 871	8.6565e+01	5.3244	26.667300	0.000355	3.548194	1.202161	-0.000142
 872	8.6665e+01	5.2843	26.517926	0.000375	3.750948	1.270856	-0.000150
 873	8.6764e+01	5.2458	26.380663	0.000345	3.446817	1.167813	-0.000138
 874	8.6864e+01	5.2105	26.223215	0.000395	3.953702	1.339551	-0.000158
 875	8.6963e+01	5.1737	26.122287	0.000253	2.534425	0.858686	-0.000101
 876	8.7063e+01	5.1143	25.940616	0.000456	4.561964	1.545635	-0.000183
 877	8.7162e+01	5.0886	25.803353	0.000345	3.446817	1.167813	-0.000138
 878	8.7261e+01	5.0469	25.653979	0.000375	3.750948	1.270856	-0.000150
 879	8.7361e+01	5.0052	25.500568	0.000385	3.852325	1.305203	-0.000154
 880	8.7460e+01	4.9651	25.363305	0.000345	3.446817	1.167813	-0.000138
 881	8.7560e+01	4.9218	25.222006	0.000355	3.548194	1.202161	-0.000142
 882	8.7659e+01	4.8881	25.100891	0.000304	3.041309	1.030424	-0.000122
 883	8.7759e+01	4.8448	24.919220	0.000456	4.561964	1.545635	-0.000183
 884	8.7859e+01	4.8159	24.765809	0.000385	3.852325	1.305203	-0.000154
 885	8.7958e+01	4.7630	24.588175	0.000446	4.460587	1.511288	-0.000179
 886	8.8058e+01	4.7309	24.463024	0.000314	3.142686	1.064771	-0.000126
 887	8.8157e+01	4.6844	24.349984	0.000284	2.838555	0.961729	-0.000114
 888	8.8257e+01	4.6539	24.184462	0.000416	4.156456	1.408246	-0.000166
 889	8.8356e+01	4.6041	24.002791	0.000456	4.561964	1.545635	-0.000183
 890	8.8456e+01	4.5640	23.869565	0.000335	3.345440	1.133466	-0.000134
 891	8.8555e+01	4.5271	23.700005	0.000426	4.257833	1.442593	-0.000170
 892	8.8654e+01	4.4854	23.591003	0.000274	2.737179	0.927381	-0.000110
 893	8.8754e+01	4.4421	23.405294	0.000466	4.663341	1.579983	-0.000187
 894	8.8853e+01	4.4116	23.263995	0.000355	3.548194	1.202161	-0.000142
 895	8.8953e+01	4.3699	23.150955	0.000284	2.838555	0.961729	-0.000114
 896	8.9052e+01	4.3266	22.985432	0.000416	4.156456	1.408246	-0.000166
 897	8.9152e+01	4.2865	22.803761	0.000456	4.561964	1.545635	-0.000183
 898	8.9251e+01	4.2528	22.638239	0.000416	4.156456	1.408246	-0.000166
 899	8.9351e+01	4.2175	22.521162	0.000294	2.939932	0.996076	-0.000118
 900	8.9451e+01	4.1646	22.351602	0.000426	4.257833	1.442593	-0.000170
 901	8.9550e+01	4.1389	22.194154	0.000395	3.953702	1.339551	-0.000158
 902	8.9650e+01	4.0892	22.060928	0.000335	3.345440	1.133466	-0.000134
 903	8.9749e+01	4.0427	21.875220	0.000466	4.663341	1.579983	-0.000187
 904	8.9849e+01	4.0138	21.778329	0.000243	2.433048	0.824339	-0.000097
 905	8.9948e+01	3.9705	21.592620	0.000466	4.663341	1.579983	-0.000187
 906	9.0047e+01	3.9288	21.431135	0.000406	4.055079	1.373898	-0.000162
 907	9.0147e+01	3.8951	21.314058	0.000294	2.939932	0.996076	-0.000118
 908	9.0246e+01	3.8405	21.132387	0.000456	4.561964	1.545635	-0.000183
 909	9.0346e+01	3.8101	20.974939	0.000395	3.953702	1.339551	-0.000158
 910	9.0445e+01	3.7699	20.841713	0.000335	3.345440	1.133466	-0.000134
 911	9.0545e+01	3.7202	20.664079	0.000446	4.460587	1.511288	-0.000179
 912	9.0644e+01	3.6881	20.510668	0.000385	3.852325	1.305203	-0.000154
 913	9.0744e+01	3.6512	20.369368	0.000355	3.548194	1.202161	-0.000142
 914	9.0844e+01	3.6015	20.268440	0.000253	2.534425	0.858686	-0.000101
 915	9.0943e+01	3.5694	20.070620	0.000497	4.967472	1.683025	-0.000199
 916	9.1043e+01	3.5261	19.917209	0.000385	3.852325	1.305203	-0.000154
 917	9.1142e+01	3.4876	19.771872	0.000365	3.649571	1.236508	-0.000146
 918	9.1242e+01	3.4491	19.606350	0.000416	4.156456	1.408246	-0.000166
 919	9.1341e+01	3.4154	19.452939	0.000385	3.852325	1.305203	-0.000154
 920	9.1441e+01	3.3737	19.315676	0.000345	3.446817	1.167813	-0.000138
 921	9.1540e+01	3.3352	19.121893	0.000487	4.866095	1.648678	-0.000195
 922	9.1639e+01	3.2935	19.008854	0.000284	2.838555	0.961729	-0.000114
 923	9.1739e+01	3.2598	18.839294	0.000426	4.257833	1.442593	-0.000170
 924	9.1838e+01	3.2101	18.681846	0.000395	3.953702	1.339551	-0.000158
 925	9.1938e+01	3.1635	18.548620	0.000335	3.345440	1.133466	-0.000134
 926	9.2037e+01	3.1427	18.391172	0.000395	3.953702	1.339551	-0.000158
 927	9.2137e+01	3.0930	18.237761	0.000385	3.852325	1.305203	-0.000154
 928	9.2237e+01	3.0529	18.052052	0.000466	4.663341	1.579983	-0.000187
 929	9.2336e+01	3.0208	17.878456	0.000436	4.359210	1.476940	-0.000174
 930	9.2436e+01	2.9759	17.741193	0.000345	3.446817	1.167813	-0.000138
 931	9.2535e+01	2.9325	17.648339	0.000233	2.331671	0.789991	-0.000093
 932	9.2635e+01	2.8940	17.446482	0.000507	5.068849	1.717373	-0.000203
 933	9.2734e+01	2.8523	17.268848	0.000446	4.460587	1.511288	-0.000179
 934	9.2834e+01	2.8154	17.099288	0.000426	4.257833	1.442593	-0.000170
 935	9.2933e+01	2.7737	16.978174	0.000304	3.041309	1.030424	-0.000122
 936	9.3032e+01	2.7304	16.836875	0.000355	3.548194	1.202161	-0.000142
 937	9.3132e+01	2.7047	16.651166	0.000466	4.663341	1.579983	-0.000187
 938	9.3231e+01	2.6614	16.517941	0.000335	3.345440	1.133466	-0.000134
 939	9.3331e+01	2.6213	16.344344	0.000436	4.359210	1.476940	-0.000174
 940	9.3430e+01	2.5748	16.190933	0.000385	3.852325	1.305203	-0.000154
 941	9.3530e+01	2.5315	16.029447	0.000406	4.055079	1.373898	-0.000162
 942	9.3629e+01	2.4898	15.843739	0.000466	4.663341	1.579983	-0.000187
 943	9.3729e+01	2.4497	15.726662	0.000294	2.939932	0.996076	-0.000118
 944	9.3829e+01	2.4160	15.557103	0.000426	4.257833	1.442593	-0.000170
 945	9.3928e+01	2.3743	15.375431	0.000456	4.561964	1.545635	-0.000183
 946	9.4028e+01	2.3406	15.193760	0.000456	4.561964	1.545635	-0.000183
 947	9.4127e+01	2.2941	15.064572	0.000324	3.244063	1.099118	-0.000130
 948	9.4227e+01	2.2604	14.931347	0.000335	3.345440	1.133466	-0.000134
 949	9.4326e+01	2.2267	14.725453	0.000517	5.170226	1.751720	-0.000207
 950	9.4425e+01	2.1802	14.584153	0.000355	3.548194	1.202161	-0.000142
 951	9.4525e+01	2.1320	14.454965	0.000324	3.244063	1.099118	-0.000130
 952	9.4624e+01	2.0951	14.249071	0.000517	5.170226	1.751720	-0.000207
 953	9.4724e+01	2.0566	14.099697	0.000375	3.750948	1.270856	-0.000150
 954	9.4823e+01	2.0165	13.926100	0.000436	4.359210	1.476940	-0.000174
 955	9.4923e+01	1.9732	13.792874	0.000335	3.345440	1.133466	-0.000134
 956	9.5022e+01	1.9427	13.603129	0.000476	4.764718	1.614330	-0.000191
 957	9.5122e+01	1.9010	13.498163	0.000264	2.635802	0.893034	-0.000105
 958	9.5222e+01	1.8625	13.280158	0.000547	5.474357	1.854762	-0.000219
 959	9.5321e+01	1.8160	13.155007	0.000314	3.142686	1.064771	-0.000126
 960	9.5421e+01	1.7839	12.957187	0.000497	4.967472	1.683025	-0.000199
 961	9.5520e+01	1.7342	12.856259	0.000253	2.534425	0.858686	-0.000101
 962	9.5620e+01	1.7053	12.658439	0.000497	4.967472	1.683025	-0.000199
 963	9.5719e+01	1.6636	12.488879	0.000426	4.257833	1.442593	-0.000170
 964	9.5819e+01	1.6187	12.323357	0.000416	4.156456	1.408246	-0.000166
 965	9.5918e+01	1.5786	12.182057	0.000355	3.548194	1.202161	-0.000142
 966	9.6017e+01	1.5304	12.024609	0.000395	3.953702	1.339551	-0.000158
 967	9.6117e+01	1.4967	11.851012	0.000436	4.359210	1.476940	-0.000174
 968	9.6216e+01	1.4582	11.713749	0.000345	3.446817	1.167813	-0.000138
 969	9.6316e+01	1.4133	11.576487	0.000345	3.446817	1.167813	-0.000138
 970	9.6415e+01	1.3780	11.378667	0.000497	4.967472	1.683025	-0.000199
 971	9.6515e+01	1.3363	11.217182	0.000406	4.055079	1.373898	-0.000162
 972	9.6615e+01	1.3026	11.039548	0.000446	4.460587	1.511288	-0.000179
 973	9.6714e+01	1.2609	10.890174	0.000375	3.750948	1.270856	-0.000150
 974	9.6814e+01	1.2112	10.748874	0.000355	3.548194	1.202161	-0.000142
 975	9.6913e+01	1.1887	10.575277	0.000436	4.359210	1.476940	-0.000174
 976	9.7013e+01	1.1326	10.409755	0.000416	4.156456	1.408246	-0.000166
 977	9.7112e+01	1.1085	10.240195	0.000426	4.257833	1.442593	-0.000170
 978	9.7212e+01	1.0620	10.106969	0.000335	3.345440	1.133466	-0.000134
 979	9.7311e+01	1.0123	9.953558	0.000385	3.852325	1.305203	-0.000154
 980	9.7410e+01	0.9802	9.775924	0.000446	4.460587	1.511288	-0.000179
 981	9.7510e+01	0.9369	9.626550	0.000375	3.750948	1.270856	-0.000150
 982	9.7609e+01	0.9080	9.432768	0.000487	4.866095	1.648678	-0.000195
 983	9.7709e+01	0.8615	9.307616	0.000314	3.142686	1.064771	-0.000126
 984	9.7808e+01	0.8117	9.134020	0.000436	4.359210	1.476940	-0.000174
 985	9.7908e+01	0.7813	8.948311	0.000466	4.663341	1.579983	-0.000187
 986	9.8007e+01	0.7331	8.798937	0.000375	3.750948	1.270856	-0.000150
 987	9.8107e+01	0.6978	8.665712	0.000335	3.345440	1.133466	-0.000134
 988	9.8207e+01	0.6625	8.484041	0.000456	4.561964	1.545635	-0.000183
 989	9.8306e+01	0.6208	8.330630	0.000385	3.852325	1.305203	-0.000154
 990	9.8406e+01	0.5759	8.161070	0.000426	4.257833	1.442593	-0.000170
 991	9.8505e+01	0.5326	8.007659	0.000385	3.852325	1.305203	-0.000154
 992	9.8605e+01	0.5021	7.842136	0.000416	4.156456	1.408246	-0.000166
 993	9.8704e+01	0.4540	7.644317	0.000497	4.967472	1.683025	-0.000199
 994	9.8803e+01	0.4235	7.511091	0.000335	3.345440	1.133466	-0.000134
 995	9.8903e+01	0.3834	7.289049	0.000558	5.575734	1.889110	-0.000223
 996	9.9002e+01	0.3385	7.171972	0.000294	2.939932	0.996076	-0.000118
 997	9.9102e+01	0.3000	6.986263	0.000466	4.663341	1.579983	-0.000187
 998	9.9201e+01	0.2663	6.840927	0.000365	3.649571	1.236508	-0.000146
 999	9.9301e+01	0.2310	6.643107	0.000497	4.967472	1.683025	-0.000199
1000	9.9400e+01	0.1829	6.517956	0.000314	3.142686	1.064771	-0.000126
1001	9.9500e+01	0.1428	6.308025	0.000527	5.271603	1.786067	-0.000211
1002	9.9600e+01	0.1027	6.154613	0.000385	3.852325	1.305203	-0.000154
1003	9.9699e+01	0.0545	6.017351	0.000345	3.446817	1.167813	-0.000138
1004	9.9799e+01	0.0193	5.803383	0.000537	5.372980	1.820415	-0.000215
1005	9.9898e+01	-0.0080	5.702454	0.000253	2.534425	0.858686	-0.000101
1006	9.9998e+01	-0.0497	5.569229	0.000335	3.345440	1.133466	-0.000134
1007	1.0010e+02	-0.0850	5.335075	0.000588	5.879865	1.992152	-0.000235
1008	1.0020e+02	-0.1332	5.185701	0.000375	3.750948	1.270856	-0.000150
1009	1.0030e+02	-0.1717	5.044401	0.000355	3.548194	1.202161	-0.000142
1010	1.0040e+02	-0.2134	4.886953	0.000395	3.953702	1.339551	-0.000158
1011	1.0050e+02	-0.2422	4.701245	0.000466	4.663341	1.579983	-0.000187
1012	1.0059e+02	-0.2952	4.511499	0.000476	4.764718	1.614330	-0.000191
1013	1.0069e+02	-0.3385	4.370199	0.000355	3.548194	1.202161	-0.000142
1014	1.0079e+02	-0.3674	4.204677	0.000416	4.156456	1.408246	-0.000166
1015	1.0089e+02	-0.4123	4.027043	0.000446	4.460587	1.511288	-0.000179
1016	1.0099e+02	-0.4396	3.817112	0.000527	5.271603	1.786067	-0.000211
1017	1.0109e+02	-0.4861	3.683886	0.000335	3.345440	1.133466	-0.000134
1018	1.0119e+02	-0.5214	3.494141	0.000476	4.764718	1.614330	-0.000191
1019	1.0129e+02	-0.5695	3.352841	0.000355	3.548194	1.202161	-0.000142
1020	1.0139e+02	-0.6080	3.195393	0.000395	3.953702	1.339551	-0.000158
1021	1.0149e+02	-0.6465	3.009685	0.000466	4.663341	1.579983	-0.000187
1022	1.0159e+02	-0.6818	2.844162	0.000416	4.156456	1.408246	-0.000166
1023	1.0169e+02	-0.7235	2.666528	0.000446	4.460587	1.511288	-0.000179
1024	1.0179e+02	-0.7572	2.517154	0.000375	3.750948	1.270856	-0.000150
1025	1.0189e+02	-0.8005	2.335483	0.000456	4.561964	1.545635	-0.000183
1026	1.0199e+02	-0.8454	2.165923	0.000426	4.257833	1.442593	-0.000170
1027	1.0209e+02	-0.8903	2.028661	0.000345	3.446817	1.167813	-0.000138
1028	1.0219e+02	-0.9224	1.863138	0.000416	4.156456	1.408246	-0.000166
1029	1.0229e+02	-0.9722	1.689541	0.000436	4.359210	1.476940	-0.000174
1030	1.0239e+02	-1.0059	1.487685	0.000507	5.068849	1.717373	-0.000203
1031	1.0248e+02	-1.0540	1.358496	0.000324	3.244063	1.099118	-0.000130
1032	1.0258e+02	-1.0780	1.176825	0.000456	4.561964	1.545635	-0.000183
1033	1.0268e+02	-1.1262	1.055711	0.000304	3.041309	1.030424	-0.000122
1034	1.0278e+02	-1.1663	0.861928	0.000487	4.866095	1.648678	-0.000195
1035	1.0288e+02	-1.2080	0.668146	0.000487	4.866095	1.648678	-0.000195
1036	1.0298e+02	-1.2449	0.518772	0.000375	3.750948	1.270856	-0.000150
1037	1.0308e+02	-1.2786	0.365361	0.000385	3.852325	1.305203	-0.000154
1038	1.0318e+02	-1.3299	0.215987	0.000375	3.750948	1.270856	-0.000150
1039	1.0328e+02	-1.3636	0.026241	0.000476	4.764718	1.614330	-0.000191
1040	1.0338e+02	-1.4053	-0.151393	0.000446	4.460587	1.511288	-0.000179
1041	1.0348e+02	-1.4486	-0.312878	0.000406	4.055079	1.373898	-0.000162
1042	1.0358e+02	-1.4887	-0.462252	0.000375	3.750948	1.270856	-0.000150
1043	1.0368e+02	-1.5208	-0.631812	0.000426	4.257833	1.442593	-0.000170
1044	1.0378e+02	-1.5657	-0.817520	0.000466	4.663341	1.579983	-0.000187
1045	1.0388e+02	-1.6026	-0.995154	0.000446	4.460587	1.511288	-0.000179
1046	1.0398e+02	-1.6347	-1.132417	0.000345	3.446817	1.167813	-0.000138
1047	1.0408e+02	-1.6780	-1.310051	0.000446	4.460587	1.511288	-0.000179
1048	1.0418e+02	-1.7165	-1.524019	0.000537	5.372980	1.820415	-0.000215
1049	1.0428e+02	-1.7614	-1.653207	0.000324	3.244063	1.099118	-0.000130
1050	1.0438e+02	-1.8080	-1.810655	0.000395	3.953702	1.339551	-0.000158
1051	1.0447e+02	-1.8417	-2.004438	0.000487	4.866095	1.648678	-0.000195
1052	1.0457e+02	-1.8866	-2.165923	0.000406	4.055079	1.373898	-0.000162
1053	1.0467e+02	-1.9203	-2.303186	0.000345	3.446817	1.167813	-0.000138
1054	1.0477e+02	-1.9700	-2.472746	0.000426	4.257833	1.442593	-0.000170
1055	1.0487e+02	-2.0005	-2.658454	0.000466	4.663341	1.579983	-0.000187
1056	1.0497e+02	-2.0470	-2.852236	0.000487	4.866095	1.648678	-0.000195
1057	1.0507e+02	-2.0823	-3.025833	0.000436	4.359210	1.476940	-0.000174
1058	1.0517e+02	-2.1288	-3.179244	0.000385	3.852325	1.305203	-0.000154
1059	1.0527e+02	-2.1641	-3.312470	0.000335	3.345440	1.133466	-0.000134
1060	1.0537e+02	-2.1930	-3.510290	0.000497	4.967472	1.683025	-0.000199
1061	1.0547e+02	-2.2443	-3.687923	0.000446	4.460587	1.511288	-0.000179
1062	1.0557e+02	-2.2812	-3.853446	0.000416	4.156456	1.408246	-0.000166
1063	1.0567e+02	-2.3133	-4.010894	0.000395	3.953702	1.339551	-0.000158
1064	1.0577e+02	-2.3582	-4.172380	0.000406	4.055079	1.373898	-0.000162
1065	1.0587e+02	-2.3967	-4.325791	0.000385	3.852325	1.305203	-0.000154
1066	1.0597e+02	-2.4336	-4.467091	0.000355	3.548194	1.202161	-0.000142
1067	1.0607e+02	-2.4866	-4.656836	0.000476	4.764718	1.614330	-0.000191
1068	1.0617e+02	-2.5170	-4.862730	0.000517	5.170226	1.751720	-0.000207
1069	1.0627e+02	-2.5539	-5.040364	0.000446	4.460587	1.511288	-0.000179
1070	1.0637e+02	-2.6021	-5.181664	0.000355	3.548194	1.202161	-0.000142
1071	1.0647e+02	-2.6422	-5.327001	0.000365	3.649571	1.236508	-0.000146
1072	1.0656e+02	-2.6791	-5.500597	0.000436	4.359210	1.476940	-0.000174
1073	1.0666e+02	-2.7208	-5.633823	0.000335	3.345440	1.133466	-0.000134
1074	1.0676e+02	-2.7609	-5.855865	0.000558	5.575734	1.889110	-0.000223
1075	1.0686e+02	-2.8058	-5.997165	0.000355	3.548194	1.202161	-0.000142
1076	1.0696e+02	-2.8315	-6.174799	0.000446	4.460587	1.511288	-0.000179
1077	1.0706e+02	-2.8700	-6.287839	0.000284	2.838555	0.961729	-0.000114
1078	1.0716e+02	-2.9101	-6.493733	0.000517	5.170226	1.751720	-0.000207
1079	1.0726e+02	-2.9630	-6.679441	0.000466	4.663341	1.579983	-0.000187
1080	1.0736e+02	-2.9999	-6.844964	0.000416	4.156456	1.408246	-0.000166
1081	1.0746e+02	-3.0400	-7.018560	0.000436	4.359210	1.476940	-0.000174
1082	1.0756e+02	-3.0753	-7.171972	0.000385	3.852325	1.305203	-0.000154
1083	1.0766e+02	-3.1170	-7.321346	0.000375	3.750948	1.270856	-0.000150
1084	1.0776e+02	-3.1587	-7.478794	0.000395	3.953702	1.339551	-0.000158
1085	1.0786e+02	-3.1988	-7.636242	0.000395	3.953702	1.339551	-0.000158
1086	1.0796e+02	-3.2389	-7.817913	0.000456	4.561964	1.545635	-0.000183
1087	1.0806e+02	-3.2758	-7.967287	0.000375	3.750948	1.270856	-0.000150
1088	1.0816e+02	-3.3159	-8.165107	0.000497	4.967472	1.683025	-0.000199
1089	1.0826e+02	-3.3593	-8.278147	0.000284	2.838555	0.961729	-0.000114
1090	1.0836e+02	-3.4042	-8.492115	0.000537	5.372980	1.820415	-0.000215
1091	1.0845e+02	-3.4282	-8.621303	0.000324	3.244063	1.099118	-0.000130
1092	1.0855e+02	-3.4812	-8.819123	0.000497	4.967472	1.683025	-0.000199
1093	1.0865e+02	-3.5133	-8.911977	0.000233	2.331671	0.789991	-0.000093
1094	1.0875e+02	-3.5486	-9.109797	0.000497	4.967472	1.683025	-0.000199
1095	1.0885e+02	-3.5967	-9.271282	0.000406	4.055079	1.373898	-0.000162
1096	1.0895e+02	-3.6368	-9.424693	0.000385	3.852325	1.305203	-0.000154
1097	1.0905e+02	-3.6657	-9.586179	0.000406	4.055079	1.373898	-0.000162
1098	1.0915e+02	-3.7106	-9.763813	0.000446	4.460587	1.511288	-0.000179
1099	1.0925e+02	-3.7523	-9.913187	0.000375	3.750948	1.270856	-0.000150
1100	1.0935e+02	-3.7908	-10.078709	0.000416	4.156456	1.408246	-0.000166
1101	1.0945e+02	-3.8341	-10.240195	0.000406	4.055079	1.373898	-0.000162
1102	1.0955e+02	-3.8662	-10.345160	0.000264	2.635802	0.893034	-0.000105
1103	1.0965e+02	-3.9111	-10.526831	0.000456	4.561964	1.545635	-0.000183
1104	1.0975e+02	-3.9528	-10.720614	0.000487	4.866095	1.648678	-0.000195
1105	1.0985e+02	-3.9994	-10.841728	0.000304	3.041309	1.030424	-0.000122
1106	1.0995e+02	-4.0411	-11.015325	0.000436	4.359210	1.476940	-0.000174
1107	1.1005e+02	-4.0764	-11.213145	0.000497	4.967472	1.683025	-0.000199
1108	1.1015e+02	-4.1100	-11.314073	0.000253	2.534425	0.858686	-0.000101
1109	1.1025e+02	-4.1534	-11.519967	0.000517	5.170226	1.751720	-0.000207
1110	1.1035e+02	-4.1935	-11.637044	0.000294	2.939932	0.996076	-0.000118
1111	1.1044e+02	-4.2288	-11.814678	0.000446	4.460587	1.511288	-0.000179
1112	1.1054e+02	-4.2721	-11.996349	0.000456	4.561964	1.545635	-0.000183
1113	1.1064e+02	-4.3090	-12.109389	0.000284	2.838555	0.961729	-0.000114
1114	1.1074e+02	-4.3571	-12.287023	0.000446	4.460587	1.511288	-0.000179
1115	1.1084e+02	-4.4068	-12.460619	0.000436	4.359210	1.476940	-0.000174
1116	1.1094e+02	-4.4261	-12.614031	0.000385	3.852325	1.305203	-0.000154
1117	1.1104e+02	-4.4662	-12.755330	0.000355	3.548194	1.202161	-0.000142
1118	1.1114e+02	-4.5191	-12.932964	0.000446	4.460587	1.511288	-0.000179
1119	1.1124e+02	-4.5528	-13.110598	0.000446	4.460587	1.511288	-0.000179
1120	1.1134e+02	-4.5881	-13.280158	0.000426	4.257833	1.442593	-0.000170
1121	1.1144e+02	-4.6314	-13.421458	0.000355	3.548194	1.202161	-0.000142
1122	1.1154e+02	-4.6667	-13.538535	0.000294	2.939932	0.996076	-0.000118
1123	1.1164e+02	-4.7132	-13.704057	0.000416	4.156456	1.408246	-0.000166
1124	1.1174e+02	-4.7437	-13.857468	0.000385	3.852325	1.305203	-0.000154
1125	1.1184e+02	-4.7951	-14.039140	0.000456	4.561964	1.545635	-0.000183
1126	1.1194e+02	-4.8271	-14.148142	0.000274	2.737179	0.927381	-0.000110
1127	1.1204e+02	-4.8753	-14.349999	0.000507	5.068849	1.717373	-0.000203
1128	1.1214e+02	-4.9170	-14.487262	0.000345	3.446817	1.167813	-0.000138
1129	1.1224e+02	-4.9442	-14.668933	0.000456	4.561964	1.545635	-0.000183
1130	1.1234e+02	-4.9940	-14.818307	0.000375	3.750948	1.270856	-0.000150
1131	1.1244e+02	-5.0309	-14.967681	0.000375	3.750948	1.270856	-0.000150
1132	1.1253e+02	-5.0630	-15.100906	0.000335	3.345440	1.133466	-0.000134
1133	1.1263e+02	-5.1127	-15.230095	0.000324	3.244063	1.099118	-0.000130
1134	1.1273e+02	-5.1528	-15.395617	0.000416	4.156456	1.408246	-0.000166
1135	1.1283e+02	-5.1849	-15.520768	0.000314	3.142686	1.064771	-0.000126
1136	1.1293e+02	-5.2298	-15.718588	0.000497	4.967472	1.683025	-0.000199
1137	1.1303e+02	-5.2683	-15.839702	0.000304	3.041309	1.030424	-0.000122
1138	1.1313e+02	-5.3084	-15.981002	0.000355	3.548194	1.202161	-0.000142
1139	1.1323e+02	-5.3581	-16.138450	0.000395	3.953702	1.339551	-0.000158
1140	1.1333e+02	-5.3950	-16.291861	0.000385	3.852325	1.305203	-0.000154
1141	1.1343e+02	-5.4351	-16.465458	0.000436	4.359210	1.476940	-0.000174
1142	1.1353e+02	-5.4688	-16.618869	0.000385	3.852325	1.305203	-0.000154
1143	1.1363e+02	-5.5154	-16.748058	0.000324	3.244063	1.099118	-0.000130
1144	1.1373e+02	-5.5442	-16.917617	0.000426	4.257833	1.442593	-0.000170
1145	1.1383e+02	-5.5924	-17.079103	0.000406	4.055079	1.373898	-0.000162
1146	1.1393e+02	-5.6276	-17.180031	0.000253	2.534425	0.858686	-0.000101
1147	1.1403e+02	-5.6678	-17.381888	0.000507	5.068849	1.717373	-0.000203
1148	1.1413e+02	-5.7063	-17.503002	0.000304	3.041309	1.030424	-0.000122
1149	1.1423e+02	-5.7528	-17.640265	0.000345	3.446817	1.167813	-0.000138
1150	1.1433e+02	-5.7993	-17.789639	0.000375	3.750948	1.270856	-0.000150
1151	1.1442e+02	-5.8346	-17.975347	0.000466	4.663341	1.579983	-0.000187
1152	1.1452e+02	-5.8619	-18.088387	0.000284	2.838555	0.961729	-0.000114
1153	1.1462e+02	-5.9100	-18.221612	0.000335	3.345440	1.133466	-0.000134
1154	1.1472e+02	-5.9501	-18.379060	0.000395	3.953702	1.339551	-0.000158
1155	1.1482e+02	-5.9854	-18.524397	0.000365	3.649571	1.236508	-0.000146
1156	1.1492e+02	-6.0271	-18.653586	0.000324	3.244063	1.099118	-0.000130
1157	1.1502e+02	-6.0688	-18.831220	0.000446	4.460587	1.511288	-0.000179
1158	1.1512e+02	-6.1105	-18.972519	0.000355	3.548194	1.202161	-0.000142
1159	1.1522e+02	-6.1490	-19.097671	0.000314	3.142686	1.064771	-0.000126
1160	1.1532e+02	-6.1972	-19.271267	0.000436	4.359210	1.476940	-0.000174
1161	1.1542e+02	-6.2276	-19.376233	0.000264	2.635802	0.893034	-0.000105
1162	1.1552e+02	-6.2629	-19.570015	0.000487	4.866095	1.648678	-0.000195
1163	1.1562e+02	-6.3223	-19.699204	0.000324	3.244063	1.099118	-0.000130
1164	1.1572e+02	-6.3399	-19.828392	0.000324	3.244063	1.099118	-0.000130
1165	1.1582e+02	-6.3832	-19.997952	0.000426	4.257833	1.442593	-0.000170
1166	1.1592e+02	-6.4298	-20.175586	0.000446	4.460587	1.511288	-0.000179
1167	1.1602e+02	-6.4683	-20.292663	0.000294	2.939932	0.996076	-0.000118
1168	1.1612e+02	-6.5004	-20.429925	0.000345	3.446817	1.167813	-0.000138
1169	1.1622e+02	-6.5372	-20.559114	0.000324	3.244063	1.099118	-0.000130
1170	1.1632e+02	-6.5854	-20.728673	0.000426	4.257833	1.442593	-0.000170
1171	1.1642e+02	-6.6223	-20.845750	0.000294	2.939932	0.996076	-0.000118
1172	1.1651e+02	-6.6608	-21.031459	0.000466	4.663341	1.579983	-0.000187
1173	1.1661e+02	-6.6993	-21.144498	0.000284	2.838555	0.961729	-0.000114
1174	1.1671e+02	-6.7362	-21.314058	0.000426	4.257833	1.442593	-0.000170
1175	1.1681e+02	-6.7843	-21.455358	0.000355	3.548194	1.202161	-0.000142
1176	1.1691e+02	-6.8180	-21.608769	0.000385	3.852325	1.305203	-0.000154
1177	1.1701e+02	-6.8613	-21.713735	0.000264	2.635802	0.893034	-0.000105
1178	1.1711e+02	-6.9014	-21.887331	0.000436	4.359210	1.476940	-0.000174
1179	1.1721e+02	-6.9431	-22.016520	0.000324	3.244063	1.099118	-0.000130
1180	1.1731e+02	-6.9832	-22.194154	0.000446	4.460587	1.511288	-0.000179
1181	1.1741e+02	-7.0169	-22.339491	0.000365	3.649571	1.236508	-0.000146
1182	1.1751e+02	-7.0602	-22.517125	0.000446	4.460587	1.511288	-0.000179
1183	1.1761e+02	-7.1068	-22.601904	0.000213	2.128917	0.721296	-0.000085
1184	1.1771e+02	-7.1356	-22.771464	0.000426	4.257833	1.442593	-0.000170
1185	1.1781e+02	-7.1805	-22.945061	0.000436	4.359210	1.476940	-0.000174
1186	1.1791e+02	-7.2287	-23.050026	0.000264	2.635802	0.893034	-0.000105
1187	1.1801e+02	-7.2543	-23.175178	0.000314	3.142686	1.064771	-0.000126
1188	1.1811e+02	-7.2944	-23.372997	0.000497	4.967472	1.683025	-0.000199
1189	1.1821e+02	-7.3362	-23.482000	0.000274	2.737179	0.927381	-0.000110
1190	1.1831e+02	-7.3731	-23.615225	0.000335	3.345440	1.133466	-0.000134
1191	1.1841e+02	-7.4212	-23.792859	0.000446	4.460587	1.511288	-0.000179
1192	1.1850e+02	-7.4517	-23.926085	0.000335	3.345440	1.133466	-0.000134
1193	1.1860e+02	-7.5046	-24.099682	0.000436	4.359210	1.476940	-0.000174
1194	1.1870e+02	-7.5383	-24.188499	0.000223	2.230294	0.755644	-0.000089
1195	1.1880e+02	-7.5784	-24.345947	0.000395	3.953702	1.339551	-0.000158
1196	1.1890e+02	-7.6153	-24.454950	0.000274	2.737179	0.927381	-0.000110
1197	1.1900e+02	-7.6522	-24.632584	0.000446	4.460587	1.511288	-0.000179
1198	1.1910e+02	-7.7035	-24.781958	0.000375	3.750948	1.270856	-0.000150
1199	1.1920e+02	-7.7340	-24.903072	0.000304	3.041309	1.030424	-0.000122
1200	1.1930e+02	-7.7741	-25.060520	0.000395	3.953702	1.339551	-0.000158
1201	1.1940e+02	-7.8238	-25.189708	0.000324	3.244063	1.099118	-0.000130
1202	1.1950e+02	-7.8623	-25.318897	0.000324	3.244063	1.099118	-0.000130
1203	1.1960e+02	-7.9008	-25.460197	0.000355	3.548194	1.202161	-0.000142
1204	1.1970e+02	-7.9329	-25.641868	0.000456	4.561964	1.545635	-0.000183
1205	1.1980e+02	-7.9682	-25.746833	0.000264	2.635802	0.893034	-0.000105
1206	1.1990e+02	-8.0164	-25.896207	0.000375	3.750948	1.270856	-0.000150
1207	1.2000e+02	-8.0532	-26.037507	0.000355	3.548194	1.202161	-0.000142
1208	1.2010e+02	-8.0998	-26.203030	0.000416	4.156456	1.408246	-0.000166
1209	1.2020e+02	-8.1335	-26.312032	0.000274	2.737179	0.927381	-0.000110
1210	1.2030e+02	-8.1720	-26.481592	0.000426	4.257833	1.442593	-0.000170
1211	1.2039e+02	-8.2169	-26.610780	0.000324	3.244063	1.099118	-0.000130
1212	1.2049e+02	-8.2570	-26.768229	0.000395	3.953702	1.339551	-0.000158
1213	1.2059e+02	-8.2955	-26.901454	0.000335	3.345440	1.133466	-0.000134
1214	1.2069e+02	-8.3340	-27.046791	0.000365	3.649571	1.236508	-0.000146
1215	1.2079e+02	-8.3789	-27.184053	0.000345	3.446817	1.167813	-0.000138
1216	1.2089e+02	-8.4094	-27.341502	0.000395	3.953702	1.339551	-0.000158
1217	1.2099e+02	-8.4575	-27.442430	0.000253	2.534425	0.858686	-0.000101
1218	1.2109e+02	-8.4944	-27.587767	0.000365	3.649571	1.236508	-0.000146
1219	1.2119e+02	-8.5345	-27.704844	0.000294	2.939932	0.996076	-0.000118
1220	1.2129e+02	-8.5762	-27.890552	0.000466	4.663341	1.579983	-0.000187
1221	1.2139e+02	-8.6131	-28.056075	0.000416	4.156456	1.408246	-0.000166
1222	1.2149e+02	-8.6452	-28.181226	0.000314	3.142686	1.064771	-0.000126
1223	1.2159e+02	-8.6998	-28.314451	0.000335	3.345440	1.133466	-0.000134
1224	1.2169e+02	-8.7350	-28.479974	0.000416	4.156456	1.408246	-0.000166
1225	1.2179e+02	-8.7735	-28.580902	0.000253	2.534425	0.858686	-0.000101
1226	1.2189e+02	-8.8201	-28.697979	0.000294	2.939932	0.996076	-0.000118
1227	1.2199e+02	-8.8506	-28.887725	0.000476	4.764718	1.614330	-0.000191
1228	1.2209e+02	-8.8955	-28.988653	0.000253	2.534425	0.858686	-0.000101
1229	1.2219e+02	-8.9356	-29.170324	0.000456	4.561964	1.545635	-0.000183
1230	1.2229e+02	-8.9773	-29.283364	0.000284	2.838555	0.961729	-0.000114
1231	1.2239e+02	-9.0094	-29.408515	0.000314	3.142686	1.064771	-0.000126
1232	1.2248e+02	-9.0527	-29.561926	0.000385	3.852325	1.305203	-0.000154
1233	1.2258e+02	-9.1024	-29.715338	0.000385	3.852325	1.305203	-0.000154
1234	1.2268e+02	-9.1281	-29.876823	0.000406	4.055079	1.373898	-0.000162
1235	1.2278e+02	-9.1826	-30.042346	0.000416	4.156456	1.408246	-0.000166
1236	1.2288e+02	-9.2179	-30.139237	0.000243	2.433048	0.824339	-0.000097
1237	1.2298e+02	-9.2564	-30.312834	0.000436	4.359210	1.476940	-0.000174
1238	1.2308e+02	-9.2965	-30.458171	0.000365	3.649571	1.236508	-0.000146
1239	1.2318e+02	-9.3302	-30.575248	0.000294	2.939932	0.996076	-0.000118
1240	1.2328e+02	-9.3751	-30.724622	0.000375	3.750948	1.270856	-0.000150
1241	1.2338e+02	-9.4152	-30.869958	0.000365	3.649571	1.236508	-0.000146
1242	1.2348e+02	-9.4441	-31.035481	0.000416	4.156456	1.408246	-0.000166
1243	1.2358e+02	-9.4858	-31.144484	0.000274	2.737179	0.927381	-0.000110
1244	1.2368e+02	-9.5227	-31.265598	0.000304	3.041309	1.030424	-0.000122
1245	1.2378e+02	-9.5692	-31.439195	0.000436	4.359210	1.476940	-0.000174
1246	1.2388e+02	-9.6061	-31.560309	0.000304	3.041309	1.030424	-0.000122
1247	1.2398e+02	-9.6527	-31.665274	0.000264	2.635802	0.893034	-0.000105
1248	1.2408e+02	-9.6960	-31.810611	0.000365	3.649571	1.236508	-0.000146
1249	1.2418e+02	-9.7249	-31.972096	0.000406	4.055079	1.373898	-0.000162
1250	1.2428e+02	-9.7666	-32.089173	0.000294	2.939932	0.996076	-0.000118
1251	1.2438e+02	-9.8131	-32.250659	0.000406	4.055079	1.373898	-0.000162
1252	1.2447e+02	-9.8500	-32.391959	0.000355	3.548194	1.202161	-0.000142
1253	1.2457e+02	-9.8965	-32.488850	0.000243	2.433048	0.824339	-0.000097
1254	1.2467e+02	-9.9254	-32.658410	0.000426	4.257833	1.442593	-0.000170
1255	1.2477e+02	-9.9751	-32.775486	0.000294	2.939932	0.996076	-0.000118
1256	1.2487e+02	-10.0152	-32.957158	0.000456	4.561964	1.545635	-0.000183
1257	1.2497e+02	-10.0505	-33.086346	0.000324	3.244063	1.099118	-0.000130
1258	1.2507e+02	-10.0826	-33.207460	0.000304	3.041309	1.030424	-0.000122
1259	1.2517e+02	-10.1291	-33.328574	0.000304	3.041309	1.030424	-0.000122
1260	1.2527e+02	-10.1724	-33.465837	0.000345	3.446817	1.167813	-0.000138
1261	1.2537e+02	-10.2125	-33.615211	0.000375	3.750948	1.270856	-0.000150
1262	1.2547e+02	-10.2494	-33.788808	0.000436	4.359210	1.476940	-0.000174
1263	1.2557e+02	-10.2863	-33.869550	0.000203	2.027540	0.686949	-0.000081
1264	1.2567e+02	-10.3313	-34.047184	0.000446	4.460587	1.511288	-0.000179
1265	1.2577e+02	-10.3649	-34.184447	0.000345	3.446817	1.167813	-0.000138
1266	1.2587e+02	-10.4163	-34.305561	0.000304	3.041309	1.030424	-0.000122
1267	1.2597e+02	-10.4484	-34.390341	0.000213	2.128917	0.721296	-0.000085
1268	1.2607e+02	-10.4901	-34.555863	0.000416	4.156456	1.408246	-0.000166
1269	1.2617e+02	-10.5318	-34.697163	0.000355	3.548194	1.202161	-0.000142
1270	1.2627e+02	-10.5671	-34.878834	0.000456	4.561964	1.545635	-0.000183
1271	1.2636e+02	-10.6056	-34.951503	0.000182	1.824786	0.618254	-0.000073
1272	1.2646e+02	-10.6489	-35.129137	0.000446	4.460587	1.511288	-0.000179
1273	1.2656e+02	-10.6890	-35.217954	0.000223	2.230294	0.755644	-0.000089
1274	1.2666e+02	-10.7179	-35.375402	0.000395	3.953702	1.339551	-0.000158
1275	1.2676e+02	-10.7596	-35.508627	0.000335	3.345440	1.133466	-0.000134
1276	1.2686e+02	-10.8077	-35.653964	0.000365	3.649571	1.236508	-0.000146
1277	1.2696e+02	-10.8494	-35.779115	0.000314	3.142686	1.064771	-0.000126
1278	1.2706e+02	-10.8847	-35.916378	0.000345	3.446817	1.167813	-0.000138
1279	1.2716e+02	-10.9296	-36.098049	0.000456	4.561964	1.545635	-0.000183
1280	1.2726e+02	-10.9713	-36.198978	0.000253	2.534425	0.858686	-0.000101
1281	1.2736e+02	-11.0195	-36.324129	0.000314	3.142686	1.064771	-0.000126
1282	1.2746e+02	-11.0451	-36.481577	0.000395	3.953702	1.339551	-0.000158
1283	1.2756e+02	-11.0885	-36.594617	0.000284	2.838555	0.961729	-0.000114
1284	1.2766e+02	-11.1173	-36.743991	0.000375	3.750948	1.270856	-0.000150
1285	1.2776e+02	-11.1767	-36.873179	0.000324	3.244063	1.099118	-0.000130
1286	1.2786e+02	-11.2040	-37.066962	0.000487	4.866095	1.648678	-0.000195
1287	1.2796e+02	-11.2473	-37.119445	0.000132	1.317901	0.446517	-0.000053
1288	1.2806e+02	-11.2874	-37.260744	0.000355	3.548194	1.202161	-0.000142
1289	1.2816e+02	-11.3323	-37.402044	0.000355	3.548194	1.202161	-0.000142
1290	1.2826e+02	-11.3692	-37.535270	0.000335	3.345440	1.133466	-0.000134
1291	1.2835e+02	-11.4029	-37.688681	0.000385	3.852325	1.305203	-0.000154
1292	1.2845e+02	-11.4446	-37.821906	0.000335	3.345440	1.133466	-0.000134
1293	1.2855e+02	-11.4863	-37.975317	0.000385	3.852325	1.305203	-0.000154
1294	1.2865e+02	-11.5232	-38.088357	0.000284	2.838555	0.961729	-0.000114
1295	1.2875e+02	-11.5617	-38.209471	0.000304	3.041309	1.030424	-0.000122
1296	1.2885e+02	-11.5986	-38.334622	0.000314	3.142686	1.064771	-0.000126
1297	1.2895e+02	-11.6499	-38.488034	0.000385	3.852325	1.305203	-0.000154
1298	1.2905e+02	-11.6884	-38.592999	0.000264	2.635802	0.893034	-0.000105
1299	1.2915e+02	-11.7221	-38.730262	0.000345	3.446817	1.167813	-0.000138
1300	1.2925e+02	-11.7606	-38.887710	0.000395	3.953702	1.339551	-0.000158
1301	1.2935e+02	-11.7959	-39.024973	0.000345	3.446817	1.167813	-0.000138
1302	1.2945e+02	-11.8344	-39.121864	0.000243	2.433048	0.824339	-0.000097
1303	1.2955e+02	-11.8826	-39.275275	0.000385	3.852325	1.305203	-0.000154
1304	1.2965e+02	-11.9291	-39.388315	0.000284	2.838555	0.961729	-0.000114
1305	1.2975e+02	-11.9596	-39.485206	0.000243	2.433048	0.824339	-0.000097
1306	1.2985e+02	-11.9981	-39.654766	0.000426	4.257833	1.442593	-0.000170
1307	1.2995e+02	-12.0478	-39.739546	0.000213	2.128917	0.721296	-0.000085
1308	1.3005e+02	-12.0831	-39.896994	0.000395	3.953702	1.339551	-0.000158
1309	1.3015e+02	-12.1264	-40.030219	0.000335	3.345440	1.133466	-0.000134
1310	1.3025e+02	-12.1633	-40.127111	0.000243	2.433048	0.824339	-0.000097
1311	1.3034e+02	-12.1986	-40.248225	0.000304	3.041309	1.030424	-0.000122
1312	1.3044e+02	-12.2355	-40.429896	0.000456	4.561964	1.545635	-0.000183
1313	1.3054e+02	-12.2804	-40.526787	0.000243	2.433048	0.824339	-0.000097
1314	1.3064e+02	-12.3221	-40.655975	0.000324	3.244063	1.099118	-0.000130
1315	1.3074e+02	-12.3622	-40.785164	0.000324	3.244063	1.099118	-0.000130
1316	1.3084e+02	-12.3959	-40.914352	0.000324	3.244063	1.099118	-0.000130
1317	1.3094e+02	-12.4408	-41.035466	0.000304	3.041309	1.030424	-0.000122
1318	1.3104e+02	-12.4777	-41.144469	0.000274	2.737179	0.927381	-0.000110
1319	1.3114e+02	-12.5210	-41.289806	0.000365	3.649571	1.236508	-0.000146
1320	1.3124e+02	-12.5563	-41.414957	0.000314	3.142686	1.064771	-0.000126
1321	1.3134e+02	-12.6029	-41.532034	0.000294	2.939932	0.996076	-0.000118
1322	1.3144e+02	-12.6462	-41.645074	0.000284	2.838555	0.961729	-0.000114
1323	1.3154e+02	-12.6750	-41.802522	0.000395	3.953702	1.339551	-0.000158
1324	1.3164e+02	-12.7216	-41.919599	0.000294	2.939932	0.996076	-0.000118
1325	1.3174e+02	-12.7585	-42.008416	0.000223	2.230294	0.755644	-0.000089
1326	1.3184e+02	-12.7986	-42.145679	0.000345	3.446817	1.167813	-0.000138
1327	1.3194e+02	-12.8403	-42.291015	0.000365	3.649571	1.236508	-0.000146
1328	1.3204e+02	-12.8756	-42.379832	0.000223	2.230294	0.755644	-0.000089
1329	1.3214e+02	-12.9141	-42.553429	0.000436	4.359210	1.476940	-0.000174
1330	1.3224e+02	-12.9574	-42.654358	0.000253	2.534425	0.858686	-0.000101
1331	1.3234e+02	-12.9911	-42.783546	0.000324	3.244063	1.099118	-0.000130
1332	1.3243e+02	-13.0344	-42.888512	0.000264	2.635802	0.893034	-0.000105
1333	1.3253e+02	-13.0729	-43.041923	0.000385	3.852325	1.305203	-0.000154
1334	1.3263e+02	-13.1178	-43.183222	0.000355	3.548194	1.202161	-0.000142
1335	1.3273e+02	-13.1563	-43.328559	0.000365	3.649571	1.236508	-0.000146
1336	1.3283e+02	-13.1932	-43.437562	0.000274	2.737179	0.927381	-0.000110
1337	1.3293e+02	-13.2397	-43.526379	0.000223	2.230294	0.755644	-0.000089
1338	1.3303e+02	-13.2702	-43.679790	0.000385	3.852325	1.305203	-0.000154
1339	1.3313e+02	-13.3167	-43.813016	0.000335	3.345440	1.133466	-0.000134
1340	1.3323e+02	-13.3536	-43.958352	0.000365	3.649571	1.236508	-0.000146
1341	1.3333e+02	-13.3953	-44.063318	0.000264	2.635802	0.893034	-0.000105
1342	1.3343e+02	-13.4419	-44.216729	0.000385	3.852325	1.305203	-0.000154
1343	1.3353e+02	-13.4659	-44.345918	0.000324	3.244063	1.099118	-0.000130
1344	1.3363e+02	-13.5108	-44.471069	0.000314	3.142686	1.064771	-0.000126
1345	1.3373e+02	-13.5542	-44.580071	0.000274	2.737179	0.927381	-0.000110
1346	1.3383e+02	-13.5943	-44.664851	0.000213	2.128917	0.721296	-0.000085
1347	1.3393e+02	-13.6360	-44.794040	0.000324	3.244063	1.099118	-0.000130
1348	1.3403e+02	-13.6761	-44.939376	0.000365	3.649571	1.236508	-0.000146
1349	1.3413e+02	-13.7146	-45.100862	0.000406	4.055079	1.373898	-0.000162
1350	1.3423e+02	-13.7627	-45.193716	0.000233	2.331671	0.789991	-0.000093
1351	1.3432e+02	-13.7980	-45.290607	0.000243	2.433048	0.824339	-0.000097
1352	1.3442e+02	-13.8349	-45.427870	0.000345	3.446817	1.167813	-0.000138
1353	1.3452e+02	-13.8702	-45.577244	0.000375	3.750948	1.270856	-0.000150
1354	1.3462e+02	-13.9167	-45.686247	0.000274	2.737179	0.927381	-0.000110
1355	1.3472e+02	-13.9520	-45.847732	0.000406	4.055079	1.373898	-0.000162
1356	1.3482e+02	-13.9921	-45.972883	0.000314	3.142686	1.064771	-0.000126
1357	1.3492e+02	-14.0322	-46.077849	0.000264	2.635802	0.893034	-0.000105
1358	1.3502e+02	-14.0771	-46.223186	0.000365	3.649571	1.236508	-0.000146
1359	1.3512e+02	-14.1124	-46.312003	0.000223	2.230294	0.755644	-0.000089
1360	1.3522e+02	-14.1509	-46.497711	0.000466	4.663341	1.579983	-0.000187
1361	1.3532e+02	-14.1926	-46.590565	0.000233	2.331671	0.789991	-0.000093
1362	1.3542e+02	-14.2408	-46.727828	0.000345	3.446817	1.167813	-0.000138
1363	1.3552e+02	-14.2809	-46.832793	0.000264	2.635802	0.893034	-0.000105
1364	1.3562e+02	-14.3146	-46.945833	0.000284	2.838555	0.961729	-0.000114
1365	1.3572e+02	-14.3515	-47.115393	0.000426	4.257833	1.442593	-0.000170
1366	1.3582e+02	-14.3916	-47.236507	0.000304	3.041309	1.030424	-0.000122
1367	1.3592e+02	-14.4397	-47.329361	0.000233	2.331671	0.789991	-0.000093
1368	1.3602e+02	-14.4718	-47.446438	0.000294	2.939932	0.996076	-0.000118
1369	1.3612e+02	-14.5119	-47.587738	0.000355	3.548194	1.202161	-0.000142
1370	1.3622e+02	-14.5536	-47.684629	0.000243	2.433048	0.824339	-0.000097
1371	1.3631e+02	-14.5969	-47.850151	0.000416	4.156456	1.408246	-0.000166
1372	1.3641e+02	-14.6322	-47.926857	0.000193	1.926163	0.652602	-0.000077
1373	1.3651e+02	-14.6707	-48.108528	0.000456	4.561964	1.545635	-0.000183
1374	1.3661e+02	-14.7156	-48.217531	0.000274	2.737179	0.927381	-0.000110
1375	1.3671e+02	-14.7429	-48.346719	0.000324	3.244063	1.099118	-0.000130
1376	1.3681e+02	-14.7958	-48.455722	0.000274	2.737179	0.927381	-0.000110
1377	1.3691e+02	-14.8343	-48.601059	0.000365	3.649571	1.236508	-0.000146
1378	1.3701e+02	-14.8616	-48.706024	0.000264	2.635802	0.893034	-0.000105
1379	1.3711e+02	-14.9081	-48.831175	0.000314	3.142686	1.064771	-0.000126
1380	1.3721e+02	-14.9531	-48.928067	0.000243	2.433048	0.824339	-0.000097
1381	1.3731e+02	-14.9900	-49.101663	0.000436	4.359210	1.476940	-0.000174
1382	1.3741e+02	-15.0349	-49.230852	0.000324	3.244063	1.099118	-0.000130
1383	1.3751e+02	-15.0702	-49.356003	0.000314	3.142686	1.064771	-0.000126
1384	1.3761e+02	-15.1103	-49.469043	0.000284	2.838555	0.961729	-0.000114
1385	1.3771e+02	-15.1488	-49.574008	0.000264	2.635802	0.893034	-0.000105
1386	1.3781e+02	-15.1921	-49.715308	0.000355	3.548194	1.202161	-0.000142
1387	1.3791e+02	-15.2306	-49.868719	0.000385	3.852325	1.305203	-0.000154
1388	1.3801e+02	-15.2691	-49.985796	0.000294	2.939932	0.996076	-0.000118
1389	1.3811e+02	-15.3092	-50.131133	0.000365	3.649571	1.236508	-0.000146
1390	1.3821e+02	-15.3477	-50.284544	0.000385	3.852325	1.305203	-0.000154
1391	1.3831e+02	-15.3942	-50.389510	0.000264	2.635802	0.893034	-0.000105
1392	1.3840e+02	-15.4311	-50.538884	0.000375	3.750948	1.270856	-0.000150
1393	1.3850e+02	-15.4712	-50.627701	0.000223	2.230294	0.755644	-0.000089
1394	1.3860e+02	-15.5033	-50.781112	0.000385	3.852325	1.305203	-0.000154
1395	1.3870e+02	-15.5514	-50.906263	0.000314	3.142686	1.064771	-0.000126
1396	1.3880e+02	-15.5947	-51.083897	0.000446	4.460587	1.511288	-0.000179
1397	1.3890e+02	-15.6316	-51.152528	0.000172	1.723409	0.583907	-0.000069
1398	1.3900e+02	-15.6718	-51.314014	0.000406	4.055079	1.373898	-0.000162
1399	1.3910e+02	-15.7119	-51.479536	0.000416	4.156456	1.408246	-0.000166
1400	1.3920e+02	-15.7488	-51.536056	0.000142	1.419278	0.480864	-0.000057
1401	1.3930e+02	-15.7889	-51.733876	0.000497	4.967472	1.683025	-0.000199
1402	1.3940e+02	-15.8322	-51.802507	0.000172	1.723409	0.583907	-0.000069
1403	1.3950e+02	-15.8739	-51.959956	0.000395	3.953702	1.339551	-0.000158
1404	1.3960e+02	-15.9060	-52.105292	0.000365	3.649571	1.236508	-0.000146
1405	1.3970e+02	-15.9557	-52.242555	0.000345	3.446817	1.167813	-0.000138
1406	1.3980e+02	-15.9830	-52.412115	0.000426	4.257833	1.442593	-0.000170
1407	1.3990e+02	-16.0375	-52.492857	0.000203	2.027540	0.686949	-0.000081
1408	1.4000e+02	-16.0696	-52.650306	0.000395	3.953702	1.339551	-0.000158
1409	1.4010e+02	-16.1097	-52.787568	0.000345	3.446817	1.167813	-0.000138
1410	1.4020e+02	-16.1466	-52.912720	0.000314	3.142686	1.064771	-0.000126
1411	1.4029e+02	-16.1819	-53.017685	0.000264	2.635802	0.893034	-0.000105
1412	1.4039e+02	-16.2140	-53.163022	0.000365	3.649571	1.236508	-0.000146
1413	1.4049e+02	-16.2621	-53.276062	0.000284	2.838555	0.961729	-0.000114
1414	1.4059e+02	-16.2942	-53.485993	0.000527	5.271603	1.786067	-0.000211
1415	1.4069e+02	-16.3503	-53.554624	0.000172	1.723409	0.583907	-0.000069
1416	1.4079e+02	-16.3760	-53.720147	0.000416	4.156456	1.408246	-0.000166
1417	1.4089e+02	-16.4225	-53.865484	0.000365	3.649571	1.236508	-0.000146
1418	1.4099e+02	-16.4658	-54.039080	0.000436	4.359210	1.476940	-0.000174
1419	1.4109e+02	-16.5124	-54.103675	0.000162	1.622032	0.549559	-0.000065
1420	1.4119e+02	-16.5493	-54.269197	0.000416	4.156456	1.408246	-0.000166
1421	1.4129e+02	-16.5894	-54.370126	0.000253	2.534425	0.858686	-0.000101
1422	1.4139e+02	-16.6263	-54.543722	0.000436	4.359210	1.476940	-0.000174
1423	1.4149e+02	-16.6680	-54.685022	0.000355	3.548194	1.202161	-0.000142
1424	1.4159e+02	-16.7113	-54.814210	0.000324	3.244063	1.099118	-0.000130
1425	1.4169e+02	-16.7370	-54.923213	0.000274	2.737179	0.927381	-0.000110
1426	1.4179e+02	-16.7915	-55.116996	0.000487	4.866095	1.648678	-0.000195
1427	1.4189e+02	-16.8220	-55.238110	0.000304	3.041309	1.030424	-0.000122
1428	1.4199e+02	-16.8621	-55.326927	0.000223	2.230294	0.755644	-0.000089
1429	1.4209e+02	-16.8974	-55.512635	0.000466	4.663341	1.579983	-0.000187
1430	1.4219e+02	-16.9407	-55.645860	0.000335	3.345440	1.133466	-0.000134
1431	1.4228e+02	-16.9792	-55.746789	0.000253	2.534425	0.858686	-0.000101
1432	1.4238e+02	-17.0193	-55.928460	0.000456	4.561964	1.545635	-0.000183
1433	1.4248e+02	-17.0674	-56.093983	0.000416	4.156456	1.408246	-0.000166
1434	1.4258e+02	-17.1027	-56.247394	0.000385	3.852325	1.305203	-0.000154
1435	1.4268e+02	-17.1364	-56.388693	0.000355	3.548194	1.202161	-0.000142
1436	1.4278e+02	-17.1765	-56.489622	0.000253	2.534425	0.858686	-0.000101
1437	1.4288e+02	-17.2214	-56.659182	0.000426	4.257833	1.442593	-0.000170
1438	1.4298e+02	-17.2664	-56.816630	0.000395	3.953702	1.339551	-0.000158
1439	1.4308e+02	-17.2952	-56.937744	0.000304	3.041309	1.030424	-0.000122
1440	1.4318e+02	-17.3466	-57.062895	0.000314	3.142686	1.064771	-0.000126
1441	1.4328e+02	-17.3803	-57.264752	0.000507	5.068849	1.717373	-0.000203
1442	1.4338e+02	-17.4252	-57.373755	0.000274	2.737179	0.927381	-0.000110
1443	1.4348e+02	-17.4701	-57.519091	0.000365	3.649571	1.236508	-0.000146
1444	1.4358e+02	-17.5022	-57.640205	0.000304	3.041309	1.030424	-0.000122
1445	1.4368e+02	-17.5375	-57.817839	0.000446	4.460587	1.511288	-0.000179
1446	1.4378e+02	-17.5808	-57.979325	0.000406	4.055079	1.373898	-0.000162
1447	1.4388e+02	-17.6209	-58.116588	0.000345	3.446817	1.167813	-0.000138
1448	1.4398e+02	-17.6562	-58.278073	0.000406	4.055079	1.373898	-0.000162
1449	1.4408e+02	-17.7011	-58.391113	0.000284	2.838555	0.961729	-0.000114
1450	1.4418e+02	-17.7396	-58.605081	0.000537	5.372980	1.820415	-0.000215
1451	1.4428e+02	-17.7797	-58.734269	0.000324	3.244063	1.099118	-0.000130
1452	1.4437e+02	-17.8214	-58.891718	0.000395	3.953702	1.339551	-0.000158
1453	1.4447e+02	-17.8567	-59.049166	0.000395	3.953702	1.339551	-0.000158
1454	1.4457e+02	-17.9016	-59.255060	0.000517	5.170226	1.751720	-0.000207
1455	1.4467e+02	-17.9417	-59.384248	0.000324	3.244063	1.099118	-0.000130
1456	1.4477e+02	-17.9851	-59.501325	0.000294	2.939932	0.996076	-0.000118
1457	1.4487e+02	-18.0236	-59.666848	0.000416	4.156456	1.408246	-0.000166
1458	1.4497e+02	-18.0605	-59.836407	0.000426	4.257833	1.442593	-0.000170
1459	1.4507e+02	-18.1054	-59.985781	0.000375	3.750948	1.270856	-0.000150
1460	1.4517e+02	-18.1423	-60.167452	0.000456	4.561964	1.545635	-0.000183
1461	1.4527e+02	-18.1856	-60.328938	0.000406	4.055079	1.373898	-0.000162
1462	1.4537e+02	-18.2161	-60.454089	0.000314	3.142686	1.064771	-0.000126
1463	1.4547e+02	-18.2514	-60.619612	0.000416	4.156456	1.408246	-0.000166
1464	1.4557e+02	-18.3011	-60.829543	0.000527	5.271603	1.786067	-0.000211
1465	1.4567e+02	-18.3396	-60.942583	0.000284	2.838555	0.961729	-0.000114
1466	1.4577e+02	-18.3765	-61.128291	0.000466	4.663341	1.579983	-0.000187
1467	1.4587e+02	-18.4198	-61.249405	0.000304	3.041309	1.030424	-0.000122
1468	1.4597e+02	-18.4583	-61.471447	0.000558	5.575734	1.889110	-0.000223
1469	1.4607e+02	-18.5032	-61.592561	0.000304	3.041309	1.030424	-0.000122
1470	1.4617e+02	-18.5385	-61.782307	0.000476	4.764718	1.614330	-0.000191
1471	1.4626e+02	-18.5898	-61.915532	0.000335	3.345440	1.133466	-0.000134
1472	1.4636e+02	-18.6171	-62.109315	0.000487	4.866095	1.648678	-0.000195
1473	1.4646e+02	-18.6572	-62.286949	0.000446	4.460587	1.511288	-0.000179
1474	1.4656e+02	-18.7054	-62.436323	0.000375	3.750948	1.270856	-0.000150
1475	1.4666e+02	-18.7342	-62.581660	0.000365	3.649571	1.236508	-0.000146
1476	1.4676e+02	-18.7840	-62.771405	0.000476	4.764718	1.614330	-0.000191
1477	1.4686e+02	-18.8193	-62.884445	0.000284	2.838555	0.961729	-0.000114
1478	1.4696e+02	-18.8578	-63.110524	0.000568	5.677111	1.923457	-0.000227
1479	1.4706e+02	-18.8947	-63.235676	0.000314	3.142686	1.064771	-0.000126
1480	1.4716e+02	-18.9364	-63.449644	0.000537	5.372980	1.820415	-0.000215
1481	1.4726e+02	-18.9861	-63.619204	0.000426	4.257833	1.442593	-0.000170
1482	1.4736e+02	-19.0214	-63.768578	0.000375	3.750948	1.270856	-0.000150
1483	1.4746e+02	-19.0551	-63.970434	0.000507	5.068849	1.717373	-0.000203
1484	1.4756e+02	-19.1032	-64.139994	0.000426	4.257833	1.442593	-0.000170
1485	1.4766e+02	-19.1433	-64.293405	0.000385	3.852325	1.305203	-0.000154
1486	1.4776e+02	-19.1770	-64.475076	0.000456	4.561964	1.545635	-0.000183
1487	1.4786e+02	-19.2107	-64.656747	0.000456	4.561964	1.545635	-0.000183
1488	1.4796e+02	-19.2652	-64.874753	0.000547	5.474357	1.854762	-0.000219
1489	1.4806e+02	-19.2973	-65.032201	0.000395	3.953702	1.339551	-0.000158
1490	1.4816e+02	-19.3406	-65.209835	0.000446	4.460587	1.511288	-0.000179
1491	1.4825e+02	-19.3791	-65.391506	0.000456	4.561964	1.545635	-0.000183
1492	1.4835e+02	-19.4112	-65.540880	0.000375	3.750948	1.270856	-0.000150
1493	1.4845e+02	-19.4561	-65.738700	0.000497	4.967472	1.683025	-0.000199
1494	1.4855e+02	-19.4930	-65.928445	0.000476	4.764718	1.614330	-0.000191
1495	1.4865e+02	-19.5267	-66.130302	0.000507	5.068849	1.717373	-0.000203
1496	1.4875e+02	-19.5781	-66.271602	0.000355	3.548194	1.202161	-0.000142
1497	1.4885e+02	-19.6101	-66.477496	0.000517	5.170226	1.751720	-0.000207
1498	1.4895e+02	-19.6470	-66.655130	0.000446	4.460587	1.511288	-0.000179
1499	1.4905e+02	-19.6887	-66.897358	0.000608	6.082619	2.060847	-0.000243
1500	1.4915e+02	-19.7321	-67.050769	0.000385	3.852325	1.305203	-0.000154
1501	1.4925e+02	-19.7706	-67.264737	0.000537	5.372980	1.820415	-0.000215
1502	1.4935e+02	-19.8091	-67.450445	0.000466	4.663341	1.579983	-0.000187
1503	1.4945e+02	-19.8476	-67.640191	0.000476	4.764718	1.614330	-0.000191
1504	1.4955e+02	-19.8861	-67.854159	0.000537	5.372980	1.820415	-0.000215
1505	1.4965e+02	-19.9310	-68.043904	0.000476	4.764718	1.614330	-0.000191
1506	1.4975e+02	-19.9727	-68.217501	0.000436	4.359210	1.476940	-0.000174
1507	1.4985e+02	-20.0048	-68.427432	0.000527	5.271603	1.786067	-0.000211
1508	1.4995e+02	-19.9679	-68.431469	-0.000010	-0.101377	-0.034347	-0.000004
1509	1.5005e+02	-19.9246	-68.455692	-0.000061	-0.608262	-0.206085	-0.000024
1510	1.5015e+02	-19.8813	-68.435506	0.000051	0.506885	0.171737	0.000020
1511	1.5025e+02	-19.8508	-68.435506	0.000000	0.000000	0.000000	0.000000
1512	1.5034e+02	-19.8026	-68.443581	-0.000020	-0.202754	-0.068695	-0.000008
1513	1.5044e+02	-19.7754	-68.366875	0.000193	1.926163	0.652602	0.000077
1514	1.5054e+02	-19.7289	-68.342652	0.000061	0.608262	0.206085	0.000024
1515	1.5064e+02	-19.6968	-68.358801	-0.000041	-0.405508	-0.137390	-0.000016
1516	1.5074e+02	-19.6615	-68.274021	0.000213	2.128917	0.721296	0.000085
1517	1.5084e+02	-19.6182	-68.274021	0.000000	0.000000	0.000000	0.000000
1518	1.5094e+02	-19.5668	-68.241724	0.000081	0.811016	0.274780	0.000032
1519	1.5104e+02	-19.5315	-68.189241	0.000132	1.317901	0.446517	0.000053
1520	1.5114e+02	-19.4978	-68.116573	0.000182	1.824786	0.618254	0.000073
1521	1.5124e+02	-19.4481	-68.080239	0.000091	0.912393	0.309127	0.000037
1522	1.5134e+02	-19.4112	-68.076201	0.000010	0.101377	0.034347	0.000004
1523	1.5144e+02	-19.3727	-67.999496	0.000193	1.926163	0.652602	0.000077
1524	1.5154e+02	-19.3342	-67.926827	0.000182	1.824786	0.618254	0.000073
1525	1.5164e+02	-19.2925	-67.902605	0.000061	0.608262	0.206085	0.000024
1526	1.5174e+02	-19.2604	-67.813788	0.000223	2.230294	0.755644	0.000089
1527	1.5184e+02	-19.2187	-67.781490	0.000081	0.811016	0.274780	0.000032
1528	1.5194e+02	-19.1658	-67.688636	0.000233	2.331671	0.789991	0.000093
1529	1.5204e+02	-19.1369	-67.648265	0.000101	1.013770	0.343475	0.000041
1530	1.5214e+02	-19.0984	-67.599819	0.000122	1.216524	0.412169	0.000049
1531	1.5224e+02	-19.0503	-67.506965	0.000233	2.331671	0.789991	0.000093
1532	1.5233e+02	-19.0182	-67.490817	0.000041	0.405508	0.137390	0.000016
1533	1.5243e+02	-18.9717	-67.397963	0.000233	2.331671	0.789991	0.000093
1534	1.5253e+02	-18.9364	-67.317220	0.000203	2.027540	0.686949	0.000081
1535	1.5263e+02	-18.8963	-67.252626	0.000162	1.622032	0.549559	0.000065
1536	1.5273e+02	-18.8594	-67.151697	0.000253	2.534425	0.858686	0.000101
1537	1.5283e+02	-18.8144	-67.107289	0.000112	1.115147	0.377822	0.000045
1538	1.5293e+02	-18.7759	-67.014435	0.000233	2.331671	0.789991	0.000093
1539	1.5303e+02	-18.7390	-66.957915	0.000142	1.419278	0.480864	0.000057
1540	1.5313e+02	-18.7070	-66.865061	0.000233	2.331671	0.789991	0.000093
1541	1.5323e+02	-18.6540	-66.828726	0.000091	0.912393	0.309127	0.000037
1542	1.5333e+02	-18.6284	-66.715687	0.000284	2.838555	0.961729	0.000114
1543	1.5343e+02	-18.5882	-66.683390	0.000081	0.811016	0.274780	0.000032
1544	1.5353e+02	-18.5321	-66.570350	0.000284	2.838555	0.961729	0.000114
1545	1.5363e+02	-18.5080	-66.521904	0.000122	1.216524	0.412169	0.000049
1546	1.5373e+02	-18.4663	-66.429050	0.000233	2.331671	0.789991	0.000093
1547	1.5383e+02	-18.4230	-66.372530	0.000142	1.419278	0.480864	0.000057
1548	1.5393e+02	-18.3941	-66.295825	0.000193	1.926163	0.652602	0.000077
1549	1.5403e+02	-18.3412	-66.194896	0.000253	2.534425	0.858686	0.000101
1550	1.5413e+02	-18.3027	-66.142413	0.000132	1.317901	0.446517	0.000053
1551	1.5422e+02	-18.2562	-66.029374	0.000284	2.838555	0.961729	0.000114
1552	1.5432e+02	-18.2209	-65.964779	0.000162	1.622032	0.549559	0.000065
1553	1.5442e+02	-18.1856	-65.896148	0.000172	1.723409	0.583907	0.000069
1554	1.5452e+02	-18.1375	-65.819443	0.000193	1.926163	0.652602	0.000077
1555	1.5462e+02	-18.0974	-65.742737	0.000193	1.926163	0.652602	0.000077
1556	1.5472e+02	-18.0572	-65.661994	0.000203	2.027540	0.686949	0.000081
1557	1.5482e+02	-18.0139	-65.609511	0.000132	1.317901	0.446517	0.000053
1558	1.5492e+02	-17.9754	-65.484360	0.000314	3.142686	1.064771	0.000126
1559	1.5502e+02	-17.9482	-65.448026	0.000091	0.912393	0.309127	0.000037
1560	1.5512e+02	-17.9032	-65.302689	0.000365	3.649571	1.236508	0.000146
1561	1.5522e+02	-17.8615	-65.278466	0.000061	0.608262	0.206085	0.000024
1562	1.5532e+02	-17.8198	-65.217909	0.000152	1.520655	0.515212	0.000061
1563	1.5542e+02	-17.7845	-65.100832	0.000294	2.939932	0.996076	0.000118
1564	1.5552e+02	-17.7460	-64.999904	0.000253	2.534425	0.858686	0.000101
1565	1.5562e+02	-17.7027	-64.931273	0.000172	1.723409	0.583907	0.000069
1566	1.5572e+02	-17.6562	-64.846493	0.000213	2.128917	0.721296	0.000085
1567	1.5582e+02	-17.6193	-64.802084	0.000112	1.115147	0.377822	0.000045
1568	1.5592e+02	-17.5808	-64.717304	0.000213	2.128917	0.721296	0.000085
1569	1.5602e+02	-17.5519	-64.604265	0.000284	2.838555	0.961729	0.000114
1570	1.5612e+02	-17.5070	-64.539670	0.000162	1.622032	0.549559	0.000065
1571	1.5622e+02	-17.4733	-64.475076	0.000162	1.622032	0.549559	0.000065
1572	1.5631e+02	-17.4220	-64.378185	0.000243	2.433048	0.824339	0.000097
1573	1.5641e+02	-17.3915	-64.269182	0.000274	2.737179	0.927381	0.000110
1574	1.5651e+02	-17.3369	-64.192477	0.000193	1.926163	0.652602	0.000077
1575	1.5661e+02	-17.3033	-64.103660	0.000223	2.230294	0.755644	0.000089
1576	1.5671e+02	-17.2567	-64.035029	0.000172	1.723409	0.583907	0.000069
1577	1.5681e+02	-17.2263	-63.974471	0.000152	1.520655	0.515212	0.000061
1578	1.5691e+02	-17.1926	-63.881617	0.000233	2.331671	0.789991	0.000093
1579	1.5701e+02	-17.1460	-63.796838	0.000213	2.128917	0.721296	0.000085
1580	1.5711e+02	-17.1107	-63.695909	0.000253	2.534425	0.858686	0.000101
1581	1.5721e+02	-17.0610	-63.562684	0.000335	3.345440	1.133466	0.000134
1582	1.5731e+02	-17.0225	-63.554609	0.000020	0.202754	0.068695	0.000008
1583	1.5741e+02	-16.9888	-63.445607	0.000274	2.737179	0.927381	0.000110
1584	1.5751e+02	-16.9487	-63.409272	0.000091	0.912393	0.309127	0.000037
1585	1.5761e+02	-16.9070	-63.276047	0.000335	3.345440	1.133466	0.000134
1586	1.5771e+02	-16.8621	-63.199341	0.000193	1.926163	0.652602	0.000077
1587	1.5781e+02	-16.8156	-63.078227	0.000304	3.041309	1.030424	0.000122
1588	1.5791e+02	-16.7835	-62.977299	0.000253	2.534425	0.858686	0.000101
1589	1.5801e+02	-16.7450	-62.888482	0.000223	2.230294	0.755644	0.000089
1590	1.5811e+02	-16.7017	-62.831962	0.000142	1.419278	0.480864	0.000057
1591	1.5821e+02	-16.6664	-62.787554	0.000112	1.115147	0.377822	0.000045
1592	1.5830e+02	-16.6247	-62.674514	0.000284	2.838555	0.961729	0.000114
1593	1.5840e+02	-16.5781	-62.565511	0.000274	2.737179	0.927381	0.000110
1594	1.5850e+02	-16.5461	-62.468620	0.000243	2.433048	0.824339	0.000097
1595	1.5860e+02	-16.5011	-62.355580	0.000284	2.838555	0.961729	0.000114
1596	1.5870e+02	-16.4674	-62.286949	0.000172	1.723409	0.583907	0.000069
1597	1.5880e+02	-16.4225	-62.214280	0.000182	1.824786	0.618254	0.000073
1598	1.5890e+02	-16.3840	-62.125463	0.000223	2.230294	0.755644	0.000089
1599	1.5900e+02	-16.3439	-62.004349	0.000304	3.041309	1.030424	0.000122
1600	1.5910e+02	-16.3102	-61.931681	0.000182	1.824786	0.618254	0.000073
1601	1.5920e+02	-16.2637	-61.842864	0.000223	2.230294	0.755644	0.000089
1602	1.5930e+02	-16.2348	-61.758084	0.000213	2.128917	0.721296	0.000085
1603	1.5940e+02	-16.1883	-61.681378	0.000193	1.926163	0.652602	0.000077
1604	1.5950e+02	-16.1402	-61.560264	0.000304	3.041309	1.030424	0.000122
1605	1.5960e+02	-16.1081	-61.483559	0.000193	1.926163	0.652602	0.000077
1606	1.5970e+02	-16.0680	-61.410890	0.000182	1.824786	0.618254	0.000073
1607	1.5980e+02	-16.0327	-61.305925	0.000264	2.635802	0.893034	0.000105
1608	1.5990e+02	-16.0006	-61.213071	0.000233	2.331671	0.789991	0.000093
1609	1.6000e+02	-15.9509	-61.104068	0.000274	2.737179	0.927381	0.000110
1610	1.6010e+02	-15.9140	-60.995065	0.000274	2.737179	0.927381	0.000110
1611	1.6019e+02	-15.8707	-60.934508	0.000152	1.520655	0.515212	0.000061
1612	1.6029e+02	-15.8274	-60.853766	0.000203	2.027540	0.686949	0.000081
1613	1.6039e+02	-15.7953	-60.736689	0.000294	2.939932	0.996076	0.000118
1614	1.6049e+02	-15.7504	-60.651909	0.000213	2.128917	0.721296	0.000085
1615	1.6059e+02	-15.7070	-60.575203	0.000193	1.926163	0.652602	0.000077
1616	1.6069e+02	-15.6669	-60.466201	0.000274	2.737179	0.927381	0.000110
1617	1.6079e+02	-15.6316	-60.349124	0.000294	2.939932	0.996076	0.000118
1618	1.6089e+02	-15.5835	-60.280492	0.000172	1.723409	0.583907	0.000069
1619	1.6099e+02	-15.5562	-60.207824	0.000182	1.824786	0.618254	0.000073
1620	1.6109e+02	-15.5113	-60.127081	0.000203	2.027540	0.686949	0.000081
1621	1.6119e+02	-15.4584	-60.042301	0.000213	2.128917	0.721296	0.000085
1622	1.6129e+02	-15.4327	-59.945410	0.000243	2.433048	0.824339	0.000097
1623	1.6139e+02	-15.3894	-59.856593	0.000223	2.230294	0.755644	0.000089
1624	1.6149e+02	-15.3509	-59.723368	0.000335	3.345440	1.133466	0.000134
1625	1.6159e+02	-15.3108	-59.654736	0.000172	1.723409	0.583907	0.000069
1626	1.6169e+02	-15.2691	-59.513436	0.000355	3.548194	1.202161	0.000142
1627	1.6179e+02	-15.2290	-59.460954	0.000132	1.317901	0.446517	0.000053
1628	1.6189e+02	-15.1905	-59.339840	0.000304	3.041309	1.030424	0.000122
1629	1.6199e+02	-15.1456	-59.267171	0.000182	1.824786	0.618254	0.000073
1630	1.6209e+02	-15.1039	-59.146057	0.000304	3.041309	1.030424	0.000122
1631	1.6219e+02	-15.0686	-59.016869	0.000324	3.244063	1.099118	0.000130
1632	1.6228e+02	-15.0252	-58.972460	0.000112	1.115147	0.377822	0.000045
1633	1.6238e+02	-14.9916	-58.907866	0.000162	1.622032	0.549559	0.000065
1634	1.6248e+02	-14.9563	-58.798863	0.000274	2.737179	0.927381	0.000110
1635	1.6258e+02	-14.9146	-58.637378	0.000406	4.055079	1.373898	0.000162
1636	1.6268e+02	-14.8761	-58.580858	0.000142	1.419278	0.480864	0.000057
1637	1.6278e+02	-14.8327	-58.463781	0.000294	2.939932	0.996076	0.000118
1638	1.6288e+02	-14.7942	-58.362853	0.000253	2.534425	0.858686	0.000101
1639	1.6298e+02	-14.7541	-58.257887	0.000264	2.635802	0.893034	0.000105
1640	1.6308e+02	-14.7076	-58.152922	0.000264	2.635802	0.893034	0.000105
1641	1.6318e+02	-14.6771	-58.064105	0.000223	2.230294	0.755644	0.000089
1642	1.6328e+02	-14.6290	-57.983362	0.000203	2.027540	0.686949	0.000081
1643	1.6338e+02	-14.5841	-57.878397	0.000264	2.635802	0.893034	0.000105
1644	1.6348e+02	-14.5552	-57.777468	0.000253	2.534425	0.858686	0.000101
1645	1.6358e+02	-14.5103	-57.676540	0.000253	2.534425	0.858686	0.000101
1646	1.6368e+02	-14.4798	-57.603871	0.000182	1.824786	0.618254	0.000073
1647	1.6378e+02	-14.4253	-57.446423	0.000395	3.953702	1.339551	0.000158
1648	1.6388e+02	-14.3932	-57.369717	0.000193	1.926163	0.652602	0.000077
1649	1.6398e+02	-14.3579	-57.272826	0.000243	2.433048	0.824339	0.000097
1650	1.6408e+02	-14.3098	-57.151712	0.000304	3.041309	1.030424	0.000122
1651	1.6418e+02	-14.2729	-57.062895	0.000223	2.230294	0.755644	0.000089
1652	1.6427e+02	-14.2376	-56.978115	0.000213	2.128917	0.721296	0.000085
1653	1.6437e+02	-14.1959	-56.840853	0.000345	3.446817	1.167813	0.000138
1654	1.6447e+02	-14.1509	-56.776258	0.000162	1.622032	0.549559	0.000065
1655	1.6457e+02	-14.1092	-56.671293	0.000264	2.635802	0.893034	0.000105
1656	1.6467e+02	-14.0691	-56.550179	0.000304	3.041309	1.030424	0.000122
1657	1.6477e+02	-14.0370	-56.461362	0.000223	2.230294	0.755644	0.000089
1658	1.6487e+02	-13.9905	-56.340248	0.000304	3.041309	1.030424	0.000122
1659	1.6497e+02	-13.9552	-56.223171	0.000294	2.939932	0.996076	0.000118
1660	1.6507e+02	-13.9135	-56.174725	0.000122	1.216524	0.412169	0.000049
1661	1.6517e+02	-13.8846	-56.025351	0.000375	3.750948	1.270856	0.000150
1662	1.6527e+02	-13.8397	-55.908274	0.000294	2.939932	0.996076	0.000118
1663	1.6537e+02	-13.7916	-55.827532	0.000203	2.027540	0.686949	0.000081
1664	1.6547e+02	-13.7611	-55.754863	0.000182	1.824786	0.618254	0.000073
1665	1.6557e+02	-13.7194	-55.609526	0.000365	3.649571	1.236508	0.000146
1666	1.6567e+02	-13.6825	-55.544932	0.000162	1.622032	0.549559	0.000065
1667	1.6577e+02	-13.6344	-55.431892	0.000284	2.838555	0.961729	0.000114
1668	1.6587e+02	-13.5879	-55.330964	0.000253	2.534425	0.858686	0.000101
1669	1.6597e+02	-13.5477	-55.213887	0.000294	2.939932	0.996076	0.000118
1670	1.6607e+02	-13.5221	-55.100847	0.000284	2.838555	0.961729	0.000114
1671	1.6616e+02	-13.4836	-54.983770	0.000294	2.939932	0.996076	0.000118
1672	1.6626e+02	-13.4387	-54.894953	0.000223	2.230294	0.755644	0.000089
1673	1.6636e+02	-13.4034	-54.806136	0.000223	2.230294	0.755644	0.000089
1674	1.6646e+02	-13.3536	-54.713282	0.000233	2.331671	0.789991	0.000093
1675	1.6656e+02	-13.3215	-54.592168	0.000304	3.041309	1.030424	0.000122
1676	1.6666e+02	-13.2670	-54.462980	0.000324	3.244063	1.099118	0.000130
1677	1.6676e+02	-13.2349	-54.349940	0.000284	2.838555	0.961729	0.000114
1678	1.6686e+02	-13.2044	-54.305531	0.000112	1.115147	0.377822	0.000045
1679	1.6696e+02	-13.1547	-54.168269	0.000345	3.446817	1.167813	0.000138
1680	1.6706e+02	-13.1242	-54.051192	0.000294	2.939932	0.996076	0.000118
1681	1.6716e+02	-13.0745	-53.978523	0.000182	1.824786	0.618254	0.000073
1682	1.6726e+02	-13.0376	-53.861446	0.000294	2.939932	0.996076	0.000118
1683	1.6736e+02	-13.0007	-53.724184	0.000345	3.446817	1.167813	0.000138
1684	1.6746e+02	-12.9574	-53.639404	0.000213	2.128917	0.721296	0.000085
1685	1.6756e+02	-12.9173	-53.542513	0.000243	2.433048	0.824339	0.000097
1686	1.6766e+02	-12.8820	-53.409287	0.000335	3.345440	1.133466	0.000134
1687	1.6776e+02	-12.8339	-53.336619	0.000182	1.824786	0.618254	0.000073
1688	1.6786e+02	-12.7970	-53.227616	0.000274	2.737179	0.927381	0.000110
1689	1.6796e+02	-12.7601	-53.146873	0.000203	2.027540	0.686949	0.000081
1690	1.6806e+02	-12.7119	-53.033834	0.000284	2.838555	0.961729	0.000114
1691	1.6816e+02	-12.6734	-52.900608	0.000335	3.345440	1.133466	0.000134
1692	1.6825e+02	-12.6365	-52.795643	0.000264	2.635802	0.893034	0.000105
1693	1.6835e+02	-12.5996	-52.686640	0.000274	2.737179	0.927381	0.000110
1694	1.6845e+02	-12.5627	-52.613972	0.000182	1.824786	0.618254	0.000073
1695	1.6855e+02	-12.5242	-52.525155	0.000223	2.230294	0.755644	0.000089
1696	1.6865e+02	-12.4761	-52.379818	0.000365	3.649571	1.236508	0.000146
1697	1.6875e+02	-12.4408	-52.282926	0.000243	2.433048	0.824339	0.000097
1698	1.6885e+02	-12.4055	-52.157775	0.000314	3.142686	1.064771	0.000126
1699	1.6895e+02	-12.3638	-52.052810	0.000264	2.635802	0.893034	0.000105
1700	1.6905e+02	-12.3173	-51.931696	0.000304	3.041309	1.030424	0.000122
1701	1.6915e+02	-12.2708	-51.863064	0.000172	1.723409	0.583907	0.000069
1702	1.6925e+02	-12.2435	-51.713690	0.000375	3.750948	1.270856	0.000150
1703	1.6935e+02	-12.1938	-51.641022	0.000182	1.824786	0.618254	0.000073
1704	1.6945e+02	-12.1649	-51.523945	0.000294	2.939932	0.996076	0.000118
1705	1.6955e+02	-12.1168	-51.402831	0.000304	3.041309	1.030424	0.000122
1706	1.6965e+02	-12.0847	-51.289791	0.000284	2.838555	0.961729	0.000114
1707	1.6975e+02	-12.0414	-51.152528	0.000345	3.446817	1.167813	0.000138
1708	1.6985e+02	-12.0061	-51.096008	0.000142	1.419278	0.480864	0.000057
1709	1.6995e+02	-11.9596	-50.978932	0.000294	2.939932	0.996076	0.000118
1710	1.7005e+02	-11.9259	-50.837632	0.000355	3.548194	1.202161	0.000142
1711	1.7015e+02	-11.8826	-50.712481	0.000314	3.142686	1.064771	0.000126
1712	1.7024e+02	-11.8457	-50.643849	0.000172	1.723409	0.583907	0.000069
1713	1.7034e+02	-11.8007	-50.530809	0.000284	2.838555	0.961729	0.000114
1714	1.7044e+02	-11.7590	-50.413733	0.000294	2.939932	0.996076	0.000118
1715	1.7054e+02	-11.7269	-50.320878	0.000233	2.331671	0.789991	0.000093
1716	1.7064e+02	-11.6772	-50.199764	0.000304	3.041309	1.030424	0.000122
1717	1.7074e+02	-11.6403	-50.106910	0.000233	2.331671	0.789991	0.000093
1718	1.7084e+02	-11.5954	-49.977722	0.000324	3.244063	1.099118	0.000130
1719	1.7094e+02	-11.5697	-49.884868	0.000233	2.331671	0.789991	0.000093
1720	1.7104e+02	-11.5216	-49.727419	0.000395	3.953702	1.339551	0.000158
1721	1.7114e+02	-11.4863	-49.650714	0.000193	1.926163	0.652602	0.000077
1722	1.7124e+02	-11.4478	-49.533637	0.000294	2.939932	0.996076	0.000118
1723	1.7134e+02	-11.4077	-49.460968	0.000182	1.824786	0.618254	0.000073
1724	1.7144e+02	-11.3596	-49.331780	0.000324	3.244063	1.099118	0.000130
1725	1.7154e+02	-11.3179	-49.210666	0.000304	3.041309	1.030424	0.000122
1726	1.7164e+02	-11.2954	-49.121849	0.000223	2.230294	0.755644	0.000089
1727	1.7174e+02	-11.2457	-48.996698	0.000314	3.142686	1.064771	0.000126
1728	1.7184e+02	-11.2120	-48.867510	0.000324	3.244063	1.099118	0.000130
1729	1.7194e+02	-11.1623	-48.774655	0.000233	2.331671	0.789991	0.000093
1730	1.7204e+02	-11.1254	-48.701987	0.000182	1.824786	0.618254	0.000073
1731	1.7213e+02	-11.0965	-48.572799	0.000324	3.244063	1.099118	0.000130
1732	1.7223e+02	-11.0516	-48.443610	0.000324	3.244063	1.099118	0.000130
1733	1.7233e+02	-11.0098	-48.358830	0.000213	2.128917	0.721296	0.000085
1734	1.7243e+02	-10.9649	-48.249828	0.000274	2.737179	0.927381	0.000110
1735	1.7253e+02	-10.9248	-48.092379	0.000395	3.953702	1.339551	0.000158
1736	1.7263e+02	-10.8831	-48.015674	0.000193	1.926163	0.652602	0.000077
1737	1.7273e+02	-10.8510	-47.886486	0.000324	3.244063	1.099118	0.000130
1738	1.7283e+02	-10.8125	-47.809780	0.000193	1.926163	0.652602	0.000077
1739	1.7293e+02	-10.7628	-47.696740	0.000284	2.838555	0.961729	0.000114
1740	1.7303e+02	-10.7195	-47.579663	0.000294	2.939932	0.996076	0.000118
1741	1.7313e+02	-10.6922	-47.450475	0.000324	3.244063	1.099118	0.000130
1742	1.7323e+02	-10.6553	-47.377806	0.000182	1.824786	0.618254	0.000073
1743	1.7333e+02	-10.6056	-47.256692	0.000304	3.041309	1.030424	0.000122
1744	1.7343e+02	-10.5719	-47.131541	0.000314	3.142686	1.064771	0.000126
1745	1.7353e+02	-10.5238	-47.018501	0.000284	2.838555	0.961729	0.000114
1746	1.7363e+02	-10.4885	-46.889313	0.000324	3.244063	1.099118	0.000130
1747	1.7373e+02	-10.4452	-46.804533	0.000213	2.128917	0.721296	0.000085
1748	1.7383e+02	-10.4099	-46.687456	0.000294	2.939932	0.996076	0.000118
1749	1.7393e+02	-10.3778	-46.566342	0.000304	3.041309	1.030424	0.000122
1750	1.7403e+02	-10.3216	-46.421005	0.000365	3.649571	1.236508	0.000146
1751	1.7413e+02	-10.2912	-46.328151	0.000233	2.331671	0.789991	0.000093
1752	1.7422e+02	-10.2510	-46.223186	0.000264	2.635802	0.893034	0.000105
1753	1.7432e+02	-10.2109	-46.102072	0.000304	3.041309	1.030424	0.000122
1754	1.7442e+02	-10.1660	-45.972883	0.000324	3.244063	1.099118	0.000130
1755	1.7452e+02	-10.1259	-45.896178	0.000193	1.926163	0.652602	0.000077
1756	1.7462e+02	-10.0858	-45.779101	0.000294	2.939932	0.996076	0.000118
1757	1.7472e+02	-10.0553	-45.653949	0.000314	3.142686	1.064771	0.000126
1758	1.7482e+02	-10.0088	-45.492464	0.000406	4.055079	1.373898	0.000162
1759	1.7492e+02	-9.9671	-45.415758	0.000193	1.926163	0.652602	0.000077
1760	1.7502e+02	-9.9350	-45.343090	0.000182	1.824786	0.618254	0.000073
1761	1.7512e+02	-9.8821	-45.217939	0.000314	3.142686	1.064771	0.000126
1762	1.7522e+02	-9.8500	-45.092788	0.000314	3.142686	1.064771	0.000126
1763	1.7532e+02	-9.8099	-44.963599	0.000324	3.244063	1.099118	0.000130
1764	1.7542e+02	-9.7698	-44.878819	0.000213	2.128917	0.721296	0.000085
1765	1.7552e+02	-9.7265	-44.753668	0.000314	3.142686	1.064771	0.000126
1766	1.7562e+02	-9.6848	-44.624480	0.000324	3.244063	1.099118	0.000130
1767	1.7572e+02	-9.6559	-44.519514	0.000264	2.635802	0.893034	0.000105
1768	1.7582e+02	-9.6078	-44.414549	0.000264	2.635802	0.893034	0.000105
1769	1.7592e+02	-9.5725	-44.305546	0.000274	2.737179	0.927381	0.000110
1770	1.7602e+02	-9.5291	-44.152135	0.000385	3.852325	1.305203	0.000154
1771	1.7612e+02	-9.4906	-44.063318	0.000223	2.230294	0.755644	0.000089
1772	1.7621e+02	-9.4489	-43.909907	0.000385	3.852325	1.305203	0.000154
1773	1.7631e+02	-9.4104	-43.800904	0.000274	2.737179	0.927381	0.000110
1774	1.7641e+02	-9.3735	-43.663642	0.000345	3.446817	1.167813	0.000138
1775	1.7651e+02	-9.3318	-43.590973	0.000182	1.824786	0.618254	0.000073
1776	1.7661e+02	-9.2885	-43.449673	0.000355	3.548194	1.202161	0.000142
1777	1.7671e+02	-9.2532	-43.356819	0.000233	2.331671	0.789991	0.000093
1778	1.7681e+02	-9.2083	-43.195334	0.000406	4.055079	1.373898	0.000162
1779	1.7691e+02	-9.1778	-43.106517	0.000223	2.230294	0.755644	0.000089
1780	1.7701e+02	-9.1313	-42.985403	0.000304	3.041309	1.030424	0.000122
1781	1.7711e+02	-9.1040	-42.884474	0.000253	2.534425	0.858686	0.000101
1782	1.7721e+02	-9.0623	-42.739137	0.000365	3.649571	1.236508	0.000146
1783	1.7731e+02	-9.0110	-42.626098	0.000284	2.838555	0.961729	0.000114
1784	1.7741e+02	-8.9821	-42.472687	0.000385	3.852325	1.305203	0.000154
1785	1.7751e+02	-8.9388	-42.363684	0.000274	2.737179	0.927381	0.000110
1786	1.7761e+02	-8.8971	-42.270830	0.000233	2.331671	0.789991	0.000093
1787	1.7771e+02	-8.8570	-42.149716	0.000304	3.041309	1.030424	0.000122
1788	1.7781e+02	-8.8121	-42.060899	0.000223	2.230294	0.755644	0.000089
1789	1.7791e+02	-8.7784	-41.875190	0.000466	4.663341	1.579983	0.000187
1790	1.7801e+02	-8.7399	-41.810596	0.000162	1.622032	0.549559	0.000065
1791	1.7810e+02	-8.6982	-41.709668	0.000253	2.534425	0.858686	0.000101
1792	1.7820e+02	-8.6564	-41.588554	0.000304	3.041309	1.030424	0.000122
1793	1.7830e+02	-8.6195	-41.423031	0.000416	4.156456	1.408246	0.000166
1794	1.7840e+02	-8.5826	-41.322103	0.000253	2.534425	0.858686	0.000101
1795	1.7850e+02	-8.5425	-41.245397	0.000193	1.926163	0.652602	0.000077
1796	1.7860e+02	-8.4896	-41.083912	0.000406	4.055079	1.373898	0.000162
1797	1.7870e+02	-8.4623	-40.942612	0.000355	3.548194	1.202161	0.000142
1798	1.7880e+02	-8.4206	-40.841684	0.000253	2.534425	0.858686	0.000101
1799	1.7890e+02	-8.3773	-40.708458	0.000335	3.345440	1.133466	0.000134
1800	1.7900e+02	-8.3356	-40.595418	0.000284	2.838555	0.961729	0.000114
1801	1.7910e+02	-8.3051	-40.442007	0.000385	3.852325	1.305203	0.000154
1802	1.7920e+02	-8.2586	-40.316856	0.000314	3.142686	1.064771	0.000126
1803	1.7930e+02	-8.2121	-40.211891	0.000264	2.635802	0.893034	0.000105
1804	1.7940e+02	-8.1720	-40.102888	0.000274	2.737179	0.927381	0.000110
1805	1.7950e+02	-8.1399	-39.977737	0.000314	3.142686	1.064771	0.000126
1806	1.7960e+02	-8.0950	-39.820288	0.000395	3.953702	1.339551	0.000158
1807	1.7970e+02	-8.0565	-39.658803	0.000406	4.055079	1.373898	0.000162
1808	1.7980e+02	-8.0260	-39.618432	0.000101	1.013770	0.343475	0.000041
1809	1.7990e+02	-7.9778	-39.452909	0.000416	4.156456	1.408246	0.000166
1810	1.8000e+02	-7.9361	-39.339869	0.000284	2.838555	0.961729	0.000114
1811	1.8009e+02	-7.9008	-39.238941	0.000253	2.534425	0.858686	0.000101
1812	1.8019e+02	-7.8543	-39.061307	0.000446	4.460587	1.511288	0.000179
1813	1.8029e+02	-7.8238	-38.956341	0.000264	2.635802	0.893034	0.000105
1814	1.8039e+02	-7.7805	-38.823116	0.000335	3.345440	1.133466	0.000134
1815	1.8049e+02	-7.7468	-38.689890	0.000335	3.345440	1.133466	0.000134
1816	1.8059e+02	-7.7035	-38.572813	0.000294	2.939932	0.996076	0.000118
1817	1.8069e+02	-7.6586	-38.431514	0.000355	3.548194	1.202161	0.000142
1818	1.8079e+02	-7.6281	-38.334622	0.000243	2.433048	0.824339	0.000097
1819	1.8089e+02	-7.5864	-38.144877	0.000476	4.764718	1.614330	0.000191
1820	1.8099e+02	-7.5383	-38.068171	0.000193	1.926163	0.652602	0.000077
1821	1.8109e+02	-7.5030	-37.959169	0.000274	2.737179	0.927381	0.000110
1822	1.8119e+02	-7.4645	-37.805758	0.000385	3.852325	1.305203	0.000154
1823	1.8129e+02	-7.4180	-37.607938	0.000497	4.967472	1.683025	0.000199
1824	1.8139e+02	-7.3811	-37.535270	0.000182	1.824786	0.618254	0.000073
1825	1.8149e+02	-7.3378	-37.406081	0.000324	3.244063	1.099118	0.000130
1826	1.8159e+02	-7.3073	-37.301116	0.000264	2.635802	0.893034	0.000105
1827	1.8169e+02	-7.2656	-37.155779	0.000365	3.649571	1.236508	0.000146
1828	1.8179e+02	-7.2190	-36.974108	0.000456	4.561964	1.545635	0.000183
1829	1.8189e+02	-7.1741	-36.893365	0.000203	2.027540	0.686949	0.000081
1830	1.8199e+02	-7.1388	-36.792437	0.000253	2.534425	0.858686	0.000101
1831	1.8209e+02	-7.1035	-36.602691	0.000476	4.764718	1.614330	0.000191
1832	1.8218e+02	-7.0538	-36.517911	0.000213	2.128917	0.721296	0.000085
1833	1.8228e+02	-7.0153	-36.380649	0.000345	3.446817	1.167813	0.000138
1834	1.8238e+02	-6.9896	-36.227238	0.000385	3.852325	1.305203	0.000154
1835	1.8248e+02	-6.9351	-36.102086	0.000314	3.142686	1.064771	0.000126
1836	1.8258e+02	-6.8966	-35.993084	0.000274	2.737179	0.927381	0.000110
1837	1.8268e+02	-6.8645	-35.855821	0.000345	3.446817	1.167813	0.000138
1838	1.8278e+02	-6.8212	-35.710484	0.000365	3.649571	1.236508	0.000146
1839	1.8288e+02	-6.7859	-35.561110	0.000375	3.750948	1.270856	0.000150
1840	1.8298e+02	-6.7474	-35.439996	0.000304	3.041309	1.030424	0.000122
1841	1.8308e+02	-6.7073	-35.335031	0.000264	2.635802	0.893034	0.000105
1842	1.8318e+02	-6.6640	-35.221991	0.000284	2.838555	0.961729	0.000114
1843	1.8328e+02	-6.6255	-35.064542	0.000395	3.953702	1.339551	0.000158
1844	1.8338e+02	-6.5822	-34.911131	0.000385	3.852325	1.305203	0.000154
1845	1.8348e+02	-6.5533	-34.810203	0.000253	2.534425	0.858686	0.000101
1846	1.8358e+02	-6.5036	-34.668903	0.000355	3.548194	1.202161	0.000142
1847	1.8368e+02	-6.4586	-34.567975	0.000253	2.534425	0.858686	0.000101
1848	1.8378e+02	-6.4201	-34.446861	0.000304	3.041309	1.030424	0.000122
1849	1.8388e+02	-6.3832	-34.257115	0.000476	4.764718	1.614330	0.000191
1850	1.8398e+02	-6.3528	-34.164261	0.000233	2.331671	0.789991	0.000093
1851	1.8407e+02	-6.3030	-34.010850	0.000385	3.852325	1.305203	0.000154
1852	1.8417e+02	-6.2677	-33.881662	0.000324	3.244063	1.099118	0.000130
1853	1.8427e+02	-6.2276	-33.740362	0.000355	3.548194	1.202161	0.000142
1854	1.8437e+02	-6.1907	-33.590988	0.000375	3.750948	1.270856	0.000150
1855	1.8447e+02	-6.1442	-33.457762	0.000335	3.345440	1.133466	0.000134
1856	1.8457e+02	-6.1153	-33.360871	0.000243	2.433048	0.824339	0.000097
1857	1.8467e+02	-6.0688	-33.268017	0.000233	2.331671	0.789991	0.000093
1858	1.8477e+02	-6.0255	-33.082309	0.000466	4.663341	1.579983	0.000187
1859	1.8487e+02	-5.9886	-32.941009	0.000355	3.548194	1.202161	0.000142
1860	1.8497e+02	-5.9437	-32.832006	0.000274	2.737179	0.927381	0.000110
1861	1.8507e+02	-5.9116	-32.706855	0.000314	3.142686	1.064771	0.000126
1862	1.8517e+02	-5.8651	-32.537295	0.000426	4.257833	1.442593	0.000170
1863	1.8527e+02	-5.8282	-32.408107	0.000324	3.244063	1.099118	0.000130
1864	1.8537e+02	-5.7897	-32.295067	0.000284	2.838555	0.961729	0.000114
1865	1.8547e+02	-5.7560	-32.161842	0.000335	3.345440	1.133466	0.000134
1866	1.8557e+02	-5.7030	-31.980171	0.000456	4.561964	1.545635	0.000183
1867	1.8567e+02	-5.6662	-31.855020	0.000314	3.142686	1.064771	0.000126
1868	1.8577e+02	-5.6196	-31.729868	0.000314	3.142686	1.064771	0.000126
1869	1.8587e+02	-5.5875	-31.600680	0.000324	3.244063	1.099118	0.000130
1870	1.8597e+02	-5.5442	-31.451306	0.000375	3.750948	1.270856	0.000150
1871	1.8606e+02	-5.5089	-31.297895	0.000385	3.852325	1.305203	0.000154
1872	1.8616e+02	-5.4752	-31.172744	0.000314	3.142686	1.064771	0.000126
1873	1.8626e+02	-5.4223	-31.035481	0.000345	3.446817	1.167813	0.000138
1874	1.8636e+02	-5.3918	-30.930515	0.000264	2.635802	0.893034	0.000105
1875	1.8646e+02	-5.3517	-30.756919	0.000436	4.359210	1.476940	0.000174
1876	1.8656e+02	-5.2956	-30.639842	0.000294	2.939932	0.996076	0.000118
1877	1.8666e+02	-5.2667	-30.490468	0.000375	3.750948	1.270856	0.000150
1878	1.8676e+02	-5.2378	-30.333019	0.000395	3.953702	1.339551	0.000158
1879	1.8686e+02	-5.1913	-30.232091	0.000253	2.534425	0.858686	0.000101
1880	1.8696e+02	-5.1592	-30.066568	0.000416	4.156456	1.408246	0.000166
1881	1.8706e+02	-5.1111	-29.937380	0.000324	3.244063	1.099118	0.000130
1882	1.8716e+02	-5.0806	-29.779932	0.000395	3.953702	1.339551	0.000158
1883	1.8726e+02	-5.0341	-29.658818	0.000304	3.041309	1.030424	0.000122
1884	1.8736e+02	-4.9892	-29.529629	0.000324	3.244063	1.099118	0.000130
1885	1.8746e+02	-4.9603	-29.392367	0.000345	3.446817	1.167813	0.000138
1886	1.8756e+02	-4.9090	-29.263178	0.000324	3.244063	1.099118	0.000130
1887	1.8766e+02	-4.8688	-29.129953	0.000335	3.345440	1.133466	0.000134
1888	1.8776e+02	-4.8287	-28.936170	0.000487	4.866095	1.648678	0.000195
1889	1.8786e+02	-4.7838	-28.839279	0.000243	2.433048	0.824339	0.000097
1890	1.8796e+02	-4.7437	-28.669719	0.000426	4.257833	1.442593	0.000170
1891	1.8806e+02	-4.7164	-28.540531	0.000324	3.244063	1.099118	0.000130
1892	1.8815e+02	-4.6779	-28.403268	0.000345	3.446817	1.167813	0.000138
1893	1.8825e+02	-4.6362	-28.266006	0.000345	3.446817	1.167813	0.000138
1894	1.8835e+02	-4.5945	-28.132780	0.000335	3.345440	1.133466	0.000134
1895	1.8845e+02	-4.5608	-27.991481	0.000355	3.548194	1.202161	0.000142
1896	1.8855e+02	-4.5223	-27.874404	0.000294	2.939932	0.996076	0.000118
1897	1.8865e+02	-4.4726	-27.712918	0.000406	4.055079	1.373898	0.000162
1898	1.8875e+02	-4.4309	-27.632176	0.000203	2.027540	0.686949	0.000081
1899	1.8885e+02	-4.3972	-27.462616	0.000426	4.257833	1.442593	0.000170
1900	1.8895e+02	-4.3619	-27.369762	0.000233	2.331671	0.789991	0.000093
1901	1.8905e+02	-4.3202	-27.171942	0.000497	4.967472	1.683025	0.000199
1902	1.8915e+02	-4.2801	-27.010457	0.000406	4.055079	1.373898	0.000162
1903	1.8925e+02	-4.2384	-26.877231	0.000335	3.345440	1.133466	0.000134
1904	1.8935e+02	-4.1967	-26.748043	0.000324	3.244063	1.099118	0.000130
1905	1.8945e+02	-4.1598	-26.643077	0.000264	2.635802	0.893034	0.000105
1906	1.8955e+02	-4.1181	-26.461406	0.000456	4.561964	1.545635	0.000183
1907	1.8965e+02	-4.0731	-26.360478	0.000253	2.534425	0.858686	0.000101
1908	1.8975e+02	-4.0362	-26.243401	0.000294	2.939932	0.996076	0.000118
1909	1.8985e+02	-3.9849	-26.037507	0.000517	5.170226	1.751720	0.000207
1910	1.8995e+02	-3.9496	-25.940616	0.000243	2.433048	0.824339	0.000097
1911	1.9004e+02	-3.9240	-25.758945	0.000456	4.561964	1.545635	0.000183
1912	1.9014e+02	-3.8646	-25.593422	0.000416	4.156456	1.408246	0.000166
1913	1.9024e+02	-3.8389	-25.480382	0.000284	2.838555	0.961729	0.000114
1914	1.9034e+02	-3.8052	-25.339082	0.000355	3.548194	1.202161	0.000142
1915	1.9044e+02	-3.7507	-25.189708	0.000375	3.750948	1.270856	0.000150
1916	1.9054e+02	-3.7138	-25.024186	0.000416	4.156456	1.408246	0.000166
1917	1.9064e+02	-3.6785	-24.911146	0.000284	2.838555	0.961729	0.000114
1918	1.9074e+02	-3.6352	-24.814255	0.000243	2.433048	0.824339	0.000097
1919	1.9084e+02	-3.6079	-24.616435	0.000497	4.967472	1.683025	0.000199
1920	1.9094e+02	-3.5630	-24.483210	0.000335	3.345440	1.133466	0.000134
1921	1.9104e+02	-3.5101	-24.289427	0.000487	4.866095	1.648678	0.000195
1922	1.9114e+02	-3.4780	-24.148127	0.000355	3.548194	1.202161	0.000142
1923	1.9124e+02	-3.4331	-24.075459	0.000182	1.824786	0.618254	0.000073
1924	1.9134e+02	-3.4026	-23.889751	0.000466	4.663341	1.579983	0.000187
1925	1.9144e+02	-3.3609	-23.728265	0.000406	4.055079	1.373898	0.000162
1926	1.9154e+02	-3.3240	-23.595040	0.000335	3.345440	1.133466	0.000134
1927	1.9164e+02	-3.2791	-23.445666	0.000375	3.750948	1.270856	0.000150
1928	1.9174e+02	-3.2406	-23.251883	0.000487	4.866095	1.648678	0.000195
1929	1.9184e+02	-3.2037	-23.171141	0.000203	2.027540	0.686949	0.000081
1930	1.9194e+02	-3.1603	-23.029841	0.000355	3.548194	1.202161	0.000142
1931	1.9203e+02	-3.1202	-22.872393	0.000395	3.953702	1.339551	0.000158
1932	1.9213e+02	-3.0801	-22.727056	0.000365	3.649571	1.236508	0.000146
1933	1.9223e+02	-3.0432	-22.557496	0.000426	4.257833	1.442593	0.000170
1934	1.9233e+02	-3.0047	-22.440419	0.000294	2.939932	0.996076	0.000118
1935	1.9243e+02	-2.9582	-22.295082	0.000365	3.649571	1.236508	0.000146
1936	1.9253e+02	-2.9165	-22.133597	0.000406	4.055079	1.373898	0.000162
1937	1.9263e+02	-2.8812	-21.960000	0.000436	4.359210	1.476940	0.000174
1938	1.9273e+02	-2.8395	-21.834849	0.000314	3.142686	1.064771	0.000126
1939	1.9283e+02	-2.7946	-21.697586	0.000345	3.446817	1.167813	0.000138
1940	1.9293e+02	-2.7529	-21.536101	0.000406	4.055079	1.373898	0.000162
1941	1.9303e+02	-2.7208	-21.374615	0.000406	4.055079	1.373898	0.000162
1942	1.9313e+02	-2.6823	-21.237353	0.000345	3.446817	1.167813	0.000138
1943	1.9323e+02	-2.6438	-21.039533	0.000497	4.967472	1.683025	0.000199
1944	1.9333e+02	-2.6021	-20.930530	0.000274	2.737179	0.927381	0.000110
1945	1.9343e+02	-2.5636	-20.781156	0.000375	3.750948	1.270856	0.000150
1946	1.9353e+02	-2.5267	-20.619671	0.000406	4.055079	1.373898	0.000162
1947	1.9363e+02	-2.4817	-20.458185	0.000406	4.055079	1.373898	0.000162
1948	1.9373e+02	-2.4384	-20.304774	0.000385	3.852325	1.305203	0.000154
1949	1.9383e+02	-2.4080	-20.139252	0.000416	4.156456	1.408246	0.000166
1950	1.9393e+02	-2.3614	-20.006026	0.000335	3.345440	1.133466	0.000134
1951	1.9403e+02	-2.3213	-19.852615	0.000385	3.852325	1.305203	0.000154
1952	1.9412e+02	-2.2876	-19.687092	0.000416	4.156456	1.408246	0.000166
1953	1.9422e+02	-2.2427	-19.574053	0.000284	2.838555	0.961729	0.000114
1954	1.9432e+02	-2.2026	-19.408530	0.000416	4.156456	1.408246	0.000166
1955	1.9442e+02	-2.1561	-19.230896	0.000446	4.460587	1.511288	0.000179
1956	1.9452e+02	-2.1224	-19.077485	0.000385	3.852325	1.305203	0.000154
1957	1.9462e+02	-2.0871	-18.911962	0.000416	4.156456	1.408246	0.000166
1958	1.9472e+02	-2.0406	-18.770663	0.000355	3.548194	1.202161	0.000142
1959	1.9482e+02	-2.0085	-18.681846	0.000223	2.230294	0.755644	0.000089
1960	1.9492e+02	-1.9620	-18.451729	0.000578	5.778488	1.957805	0.000231
1961	1.9502e+02	-1.9203	-18.383098	0.000172	1.723409	0.583907	0.000069
1962	1.9512e+02	-1.8770	-18.181241	0.000507	5.068849	1.717373	0.000203
1963	1.9522e+02	-1.8417	-18.011681	0.000426	4.257833	1.442593	0.000170
1964	1.9532e+02	-1.7967	-17.862307	0.000375	3.750948	1.270856	0.000150
1965	1.9542e+02	-1.7598	-17.708896	0.000385	3.852325	1.305203	0.000154
1966	1.9552e+02	-1.7229	-17.567596	0.000355	3.548194	1.202161	0.000142
1967	1.9562e+02	-1.6844	-17.381888	0.000466	4.663341	1.579983	0.000187
1968	1.9572e+02	-1.6395	-17.252700	0.000324	3.244063	1.099118	0.000130
1969	1.9582e+02	-1.5978	-17.046806	0.000517	5.170226	1.751720	0.000207
1970	1.9592e+02	-1.5641	-16.885320	0.000406	4.055079	1.373898	0.000162
1971	1.9601e+02	-1.5256	-16.760169	0.000314	3.142686	1.064771	0.000126
1972	1.9611e+02	-1.4871	-16.570424	0.000476	4.764718	1.614330	0.000191
1973	1.9621e+02	-1.4486	-16.425087	0.000365	3.649571	1.236508	0.000146
1974	1.9631e+02	-1.4133	-16.259564	0.000416	4.156456	1.408246	0.000166
1975	1.9641e+02	-1.3748	-16.146524	0.000284	2.838555	0.961729	0.000114
1976	1.9651e+02	-1.3283	-15.976965	0.000426	4.257833	1.442593	0.000170
1977	1.9661e+02	-1.2898	-15.775108	0.000507	5.068849	1.717373	0.000203
1978	1.9671e+02	-1.2433	-15.605548	0.000426	4.257833	1.442593	0.000170
1979	1.9681e+02	-1.2000	-15.468286	0.000345	3.446817	1.167813	0.000138
1980	1.9691e+02	-1.1695	-15.278540	0.000476	4.764718	1.614330	0.000191
1981	1.9701e+02	-1.1278	-15.145315	0.000335	3.345440	1.133466	0.000134
1982	1.9711e+02	-1.0845	-14.947495	0.000497	4.967472	1.683025	0.000199
1983	1.9721e+02	-1.0460	-14.786010	0.000406	4.055079	1.373898	0.000162
1984	1.9731e+02	-1.0075	-14.644710	0.000355	3.548194	1.202161	0.000142
1985	1.9741e+02	-0.9722	-14.434779	0.000527	5.271603	1.786067	0.000211
1986	1.9751e+02	-0.9256	-14.345962	0.000223	2.230294	0.755644	0.000089
1987	1.9761e+02	-0.8743	-14.123919	0.000558	5.575734	1.889110	0.000223
1988	1.9771e+02	-0.8486	-13.966471	0.000395	3.953702	1.339551	0.000158
1989	1.9781e+02	-0.8085	-13.809023	0.000395	3.953702	1.339551	0.000158
1990	1.9791e+02	-0.7684	-13.663686	0.000365	3.649571	1.236508	0.000146
1991	1.9800e+02	-0.7187	-13.449718	0.000537	5.372980	1.820415	0.000215
1992	1.9810e+02	-0.6802	-13.348789	0.000253	2.534425	0.858686	0.000101
1993	1.9820e+02	-0.6369	-13.146933	0.000507	5.068849	1.717373	0.000203
1994	1.9830e+02	-0.6048	-12.989484	0.000395	3.953702	1.339551	0.000158
1995	1.9840e+02	-0.5647	-12.803776	0.000466	4.663341	1.579983	0.000187
1996	1.9850e+02	-0.5310	-12.662476	0.000355	3.548194	1.202161	0.000142
1997	1.9860e+02	-0.4877	-12.456582	0.000517	5.170226	1.751720	0.000207
1998	1.9870e+02	-0.4524	-12.335468	0.000304	3.041309	1.030424	0.000122
1999	1.9880e+02	-0.4075	-12.157834	0.000446	4.460587	1.511288	0.000179
2000	1.9890e+02	-0.3706	-11.980200	0.000446	4.460587	1.511288	0.000179
2001	1.9900e+02	-0.3321	-11.814678	0.000416	4.156456	1.408246	0.000166
2002	1.9910e+02	-0.2888	-11.604747	0.000527	5.271603	1.786067	0.000211
2003	1.9920e+02	-0.2438	-11.483633	0.000304	3.041309	1.030424	0.000122
2004	1.9930e+02	-0.2118	-11.301961	0.000456	4.561964	1.545635	0.000183
2005	1.9940e+02	-0.1668	-11.136439	0.000416	4.156456	1.408246	0.000166
2006	1.9950e+02	-0.1299	-10.991102	0.000365	3.649571	1.236508	0.000146
2007	1.9960e+02	-0.0930	-10.785208	0.000517	5.170226	1.751720	0.000207
2008	1.9970e+02	-0.0529	-10.680243	0.000264	2.635802	0.893034	0.000105
2009	1.9980e+02	-0.0160	-10.482423	0.000264	2.635802	0.893034	0.000199

Center data before PMax,+/-Pr and +/-Vc Calc.

PMax (uC/cm2):	6.85e+01
Pr (uC/cm2):	5.73e+00
-Pr (uC/cm2):	-1.05e+01
PLoss (uC/cm2):	-8.25e+00
Vc:	6.06e-01
-Vc:	-1.37e+00
C (Max-Eff) (nF):	3.43e-01
K (Eff):	1.16e+03
Vert. (+/-Pr) Shift (uC/cm2):	-2.38e+00
Horiz. Shift (+/-Vc):	-3.82e-01
Offset (uC/cm2):	2.25e+00

A (Loop Area - uC/cm2·Volts):	3.24e-02



Hysteresis Version: 5.48.1 - Radiant Technologies, Inc., 1999 - 9/12/24

