»»»»»»»»»»»»»»»»»»»»»»»»»»»»»»»»»»»» Hysteresis ««««««««««««««««««««««««««««««««««««
»»»  Executed Version:	5.48.1
»»»  Vision Version:	5.48.4 (R)
»»»  Vision Compiled:	9/18/24
»»»  Driver Version:	5.47.0
»»»  Windows Version:	Windows 8 or 8.1
»»»  Processor Information:	x86 (AMD or Intel) - 32 Processors
»»»  Tester Name:	PMF21124-494 (100V)
»»»  Tester S/N:	PMF21124-494
»»»  Internal Amp Type:	100V RevK 270k
»»»  Internal Amp S/N:	iAB2-596/K     
»»»  Execution Count:	1
»»»»»»»»»»»»»»»»»»»»»»»»»»»»»»»»»»»»»»»»»»««««««««««««««««««««««««««««««««««««««««««

Stored:	6/3/2025 - 17:50:52
Configured:	06/03/25 04:16:08 PM
Executed:	06/03/25 05:50:11 PM

»»»»»»»»»»»»»»»»»»»»»»»»»»»»»»»»»»» Sample Info ««««««««««««««««««««««««««««««««««««
Sample Name:	
Lot Name:	
Wafer Name:	
Die Row/Column:	0/0
Capacitor Number:	0
Sample Area (cm2):	1.00e-04
Sample Thickness (microns):	3.00e-01

Amplifier:	Internal

»»»»»»»»»»»»»»»»»»»»»»»»»»»»»»»»»»» Tester Info «««««««««««««««««««««««««««««««««««
Tester Name:	PMF21124-494 (100V)
Tester Serial Number:	PMF21124-494
Return Signal Amp. Level:	0.19 [Index: 3]

»»»»»»»»»»»»»»»»»»»»»»»»»»»»»»»» Hysteresis Info ««««««««««««««««««««««««««««««««««
Task Name:	Hyst-2
Volts:	20.00
Field:	666.67 (kV/cm)
DCBias:	0.00
DCField:	0.00 (kV/cm)
Hysteresis Period (ms):	2.00e+02
Preset:	Enabled
Preset Delay (ms):	1.00e+03
Profile:	Standard Bipolar

»»»»»»»»»»»»»»»»»»»»»»»»»»»»»»»»»»»»»» Data «««««««««««««««««««««««««««««««««««««««
Points:	2009

Valid Data

Point	Time (ms)	Drive Voltage	Measured Polarization (uC/cm2)	Capacitance (uF)	Normalized Capacitance (uF/cm2)	Dielectric Constant	Instantaneous Current (mA)
   1	0.0000e+00	0.0048	-1.822767	0.000101	1.013445	0.343364	0.000041
   2	9.9500e-02	0.0321	-1.782395	0.000101	1.013445	0.343364	0.000041
   3	1.9900e-01	0.0690	-1.620910	0.000405	4.053778	1.373457	0.000162
   4	2.9850e-01	0.1139	-1.495759	0.000314	3.141678	1.064429	0.000126
   5	3.9800e-01	0.1508	-1.402905	0.000233	2.330922	0.789738	0.000093
   6	4.9750e-01	0.1973	-1.281791	0.000304	3.040334	1.030093	0.000122
   7	5.9700e-01	0.2342	-1.160677	0.000304	3.040334	1.030093	0.000122
   8	6.9650e-01	0.2775	-1.023414	0.000345	3.445711	1.167439	0.000138
   9	7.9600e-01	0.3192	-0.926523	0.000243	2.432267	0.824074	0.000097
  10	8.9550e-01	0.3497	-0.809446	0.000294	2.938989	0.995756	0.000118
  11	9.9500e-01	0.3866	-0.672183	0.000345	3.445711	1.167439	0.000138
  12	1.0945e+00	0.4347	-0.587403	0.000213	2.128233	0.721065	0.000085
  13	1.1940e+00	0.4620	-0.446103	0.000355	3.547056	1.201775	0.000142
  14	1.2935e+00	0.5182	-0.345175	0.000253	2.533611	0.858411	0.000101
  15	1.3930e+00	0.5583	-0.211950	0.000334	3.344367	1.133102	0.000134
  16	1.4925e+00	0.5920	-0.058538	0.000385	3.851089	1.304784	0.000154
  17	1.5920e+00	0.6273	0.010093	0.000172	1.722856	0.583719	0.000069
  18	1.6915e+00	0.6642	0.135244	0.000314	3.141678	1.064429	0.000126
  19	1.7910e+00	0.7059	0.264432	0.000324	3.243022	1.098766	0.000130
  20	1.8905e+00	0.7492	0.389584	0.000314	3.141678	1.064429	0.000126
  21	1.9900e+00	0.7925	0.502623	0.000284	2.837645	0.961420	0.000114
  22	2.0895e+00	0.8422	0.680257	0.000446	4.459156	1.510803	0.000179
  23	2.1890e+00	0.8647	0.752926	0.000182	1.824200	0.618056	0.000073
  24	2.2885e+00	0.9128	0.894226	0.000355	3.547056	1.201775	0.000142
  25	2.3880e+00	0.9593	1.019377	0.000314	3.141678	1.064429	0.000126
  26	2.4875e+00	0.9882	1.132417	0.000284	2.837645	0.961420	0.000114
  27	2.5870e+00	1.0331	1.257568	0.000314	3.141678	1.064429	0.000126
  28	2.6865e+00	1.0636	1.330236	0.000182	1.824200	0.618056	0.000073
  29	2.7860e+00	1.1117	1.487685	0.000395	3.952434	1.339121	0.000158
  30	2.8855e+00	1.1518	1.600724	0.000284	2.837645	0.961420	0.000114
  31	2.9850e+00	1.1855	1.725876	0.000314	3.141678	1.064429	0.000126
  32	3.0845e+00	1.2208	1.851027	0.000314	3.141678	1.064429	0.000126
  33	3.1840e+00	1.2657	1.992326	0.000355	3.547056	1.201775	0.000142
  34	3.2835e+00	1.3155	2.125552	0.000334	3.344367	1.133102	0.000134
  35	3.3830e+00	1.3492	2.242629	0.000294	2.938989	0.995756	0.000118
  36	3.4825e+00	1.3845	2.367780	0.000314	3.141678	1.064429	0.000126
  37	3.5820e+00	1.4310	2.517154	0.000375	3.749745	1.270448	0.000150
  38	3.6815e+00	1.4823	2.618083	0.000253	2.533611	0.858411	0.000101
  39	3.7810e+00	1.5096	2.735159	0.000294	2.938989	0.995756	0.000118
  40	3.8805e+00	1.5385	2.876459	0.000355	3.547056	1.201775	0.000142
  41	3.9800e+00	1.5850	2.997573	0.000304	3.040334	1.030093	0.000122
  42	4.0795e+00	1.6251	3.110613	0.000284	2.837645	0.961420	0.000114
  43	4.1790e+00	1.6700	3.255950	0.000365	3.648400	1.236111	0.000146
  44	4.2785e+00	1.7037	3.364953	0.000274	2.736300	0.927084	0.000110
  45	4.3780e+00	1.7454	3.538549	0.000436	4.357811	1.476466	0.000174
  46	4.4775e+00	1.7855	3.623329	0.000213	2.128233	0.721065	0.000085
  47	4.5770e+00	1.8256	3.756555	0.000334	3.344367	1.133102	0.000134
  48	4.6765e+00	1.8641	3.865557	0.000274	2.736300	0.927084	0.000110
  49	4.7760e+00	1.8978	3.982634	0.000294	2.938989	0.995756	0.000118
  50	4.8755e+00	1.9459	4.140083	0.000395	3.952434	1.339121	0.000158
  51	4.9750e+00	1.9876	4.269271	0.000324	3.243022	1.098766	0.000130
  52	5.0745e+00	2.0117	4.374237	0.000263	2.634956	0.892747	0.000105
  53	5.1740e+00	2.0695	4.499388	0.000314	3.141678	1.064429	0.000126
  54	5.2735e+00	2.1064	4.612428	0.000284	2.837645	0.961420	0.000114
  55	5.3730e+00	2.1465	4.741616	0.000324	3.243022	1.098766	0.000130
  56	5.4725e+00	2.2010	4.870804	0.000324	3.243022	1.098766	0.000130
  57	5.5720e+00	2.2331	5.020178	0.000375	3.749745	1.270448	0.000150
  58	5.6715e+00	2.2636	5.141292	0.000304	3.040334	1.030093	0.000122
  59	5.7710e+00	2.3021	5.246258	0.000263	2.634956	0.892747	0.000105
  60	5.8705e+00	2.3438	5.371409	0.000314	3.141678	1.064429	0.000126
  61	5.9700e+00	2.3887	5.500597	0.000324	3.243022	1.098766	0.000130
  62	6.0695e+00	2.4256	5.674194	0.000436	4.357811	1.476466	0.000174
  63	6.1690e+00	2.4609	5.742826	0.000172	1.722856	0.583719	0.000069
  64	6.2685e+00	2.5058	5.900274	0.000395	3.952434	1.339121	0.000158
  65	6.3680e+00	2.5475	6.045611	0.000365	3.648400	1.236111	0.000146
  66	6.4675e+00	2.6005	6.154613	0.000274	2.736300	0.927084	0.000110
  67	6.5670e+00	2.6165	6.291876	0.000345	3.445711	1.167439	0.000138
  68	6.6665e+00	2.6662	6.392804	0.000253	2.533611	0.858411	0.000101
  69	6.7660e+00	2.6967	6.530067	0.000345	3.445711	1.167439	0.000138
  70	6.8655e+00	2.7481	6.639070	0.000274	2.736300	0.927084	0.000110
  71	6.9650e+00	2.7849	6.796518	0.000395	3.952434	1.339121	0.000158
  72	7.0645e+00	2.8234	6.877261	0.000203	2.026889	0.686729	0.000081
  73	7.1640e+00	2.8636	7.022598	0.000365	3.648400	1.236111	0.000146
  74	7.2635e+00	2.9117	7.139675	0.000294	2.938989	0.995756	0.000118
  75	7.3630e+00	2.9470	7.260789	0.000304	3.040334	1.030093	0.000122
  76	7.4625e+00	2.9823	7.385940	0.000314	3.141678	1.064429	0.000126
  77	7.5620e+00	3.0192	7.511091	0.000314	3.141678	1.064429	0.000126
  78	7.6615e+00	3.0657	7.624131	0.000284	2.837645	0.961420	0.000114
  79	7.7610e+00	3.0994	7.769468	0.000365	3.648400	1.236111	0.000146
  80	7.8605e+00	3.1491	7.902693	0.000334	3.344367	1.133102	0.000134
  81	7.9600e+00	3.1812	8.039956	0.000345	3.445711	1.167439	0.000138
  82	8.0595e+00	3.2197	8.132810	0.000233	2.330922	0.789738	0.000093
  83	8.1590e+00	3.2598	8.306407	0.000436	4.357811	1.476466	0.000174
  84	8.2585e+00	3.3031	8.375038	0.000172	1.722856	0.583719	0.000069
  85	8.3580e+00	3.3416	8.516338	0.000355	3.547056	1.201775	0.000142
  86	8.4575e+00	3.3785	8.641489	0.000314	3.141678	1.064429	0.000126
  87	8.5570e+00	3.4154	8.734343	0.000233	2.330922	0.789738	0.000093
  88	8.6565e+00	3.4571	8.899866	0.000416	4.155123	1.407794	0.000166
  89	8.7560e+00	3.5036	8.992720	0.000233	2.330922	0.789738	0.000093
  90	8.8555e+00	3.5309	9.101723	0.000274	2.736300	0.927084	0.000110
  91	8.9550e+00	3.5806	9.247059	0.000365	3.648400	1.236111	0.000146
  92	9.0545e+00	3.6208	9.392396	0.000365	3.648400	1.236111	0.000146
  93	9.1540e+00	3.6625	9.537733	0.000365	3.648400	1.236111	0.000146
  94	9.2535e+00	3.6994	9.666922	0.000324	3.243022	1.098766	0.000130
  95	9.3530e+00	3.7347	9.800147	0.000334	3.344367	1.133102	0.000134
  96	9.4525e+00	3.7812	9.880890	0.000203	2.026889	0.686729	0.000081
  97	9.5520e+00	3.8197	10.034301	0.000385	3.851089	1.304784	0.000154
  98	9.6515e+00	3.8614	10.131192	0.000243	2.432267	0.824074	0.000097
  99	9.7510e+00	3.8935	10.296715	0.000416	4.155123	1.407794	0.000166
 100	9.8505e+00	3.9368	10.393606	0.000243	2.432267	0.824074	0.000097
 101	9.9500e+00	3.9801	10.567203	0.000436	4.357811	1.476466	0.000174
 102	1.0050e+01	4.0186	10.635834	0.000172	1.722856	0.583719	0.000069
 103	1.0149e+01	4.0587	10.841728	0.000517	5.168567	1.751158	0.000207
 104	1.0248e+01	4.1004	10.946694	0.000263	2.634956	0.892747	0.000105
 105	1.0348e+01	4.1325	11.079919	0.000334	3.344367	1.133102	0.000134
 106	1.0447e+01	4.1790	11.209107	0.000324	3.243022	1.098766	0.000130
 107	1.0547e+01	4.2159	11.350407	0.000355	3.547056	1.201775	0.000142
 108	1.0646e+01	4.2560	11.467484	0.000294	2.938989	0.995756	0.000118
 109	1.0746e+01	4.2993	11.572450	0.000263	2.634956	0.892747	0.000105
 110	1.0845e+01	4.3475	11.713749	0.000355	3.547056	1.201775	0.000142
 111	1.0945e+01	4.3715	11.863123	0.000375	3.749745	1.270448	0.000150
 112	1.1044e+01	4.4165	11.980200	0.000294	2.938989	0.995756	0.000118
 113	1.1144e+01	4.4550	12.073054	0.000233	2.330922	0.789738	0.000093
 114	1.1243e+01	4.4999	12.234540	0.000405	4.053778	1.373457	0.000162
 115	1.1343e+01	4.5352	12.347580	0.000284	2.837645	0.961420	0.000114
 116	1.1443e+01	4.5817	12.480805	0.000334	3.344367	1.133102	0.000134
 117	1.1542e+01	4.6122	12.614031	0.000334	3.344367	1.133102	0.000134
 118	1.1642e+01	4.6507	12.735145	0.000304	3.040334	1.030093	0.000122
 119	1.1741e+01	4.6924	12.888556	0.000385	3.851089	1.304784	0.000154
 120	1.1841e+01	4.7405	12.989484	0.000253	2.533611	0.858411	0.000101
 121	1.1940e+01	4.7806	13.126747	0.000345	3.445711	1.167439	0.000138
 122	1.2040e+01	4.8111	13.268047	0.000355	3.547056	1.201775	0.000142
 123	1.2139e+01	4.8528	13.397235	0.000324	3.243022	1.098766	0.000130
 124	1.2239e+01	4.8881	13.542572	0.000365	3.648400	1.236111	0.000146
 125	1.2338e+01	4.9362	13.611203	0.000172	1.722856	0.583719	0.000069
 126	1.2438e+01	4.9795	13.768651	0.000395	3.952434	1.339121	0.000158
 127	1.2537e+01	5.0132	13.893803	0.000314	3.141678	1.064429	0.000126
 128	1.2636e+01	5.0485	14.031065	0.000345	3.445711	1.167439	0.000138
 129	1.2736e+01	5.0934	14.148142	0.000294	2.938989	0.995756	0.000118
 130	1.2835e+01	5.1255	14.281368	0.000334	3.344367	1.133102	0.000134
 131	1.2935e+01	5.1785	14.414593	0.000334	3.344367	1.133102	0.000134
 132	1.3034e+01	5.2122	14.547819	0.000334	3.344367	1.133102	0.000134
 133	1.3134e+01	5.2539	14.693156	0.000365	3.648400	1.236111	0.000146
 134	1.3233e+01	5.2940	14.794084	0.000253	2.533611	0.858411	0.000101
 135	1.3333e+01	5.3325	14.935384	0.000355	3.547056	1.201775	0.000142
 136	1.3432e+01	5.3662	15.104943	0.000426	4.256467	1.442130	0.000170
 137	1.3532e+01	5.4095	15.189723	0.000213	2.128233	0.721065	0.000085
 138	1.3632e+01	5.4528	15.339097	0.000375	3.749745	1.270448	0.000150
 139	1.3731e+01	5.4913	15.427914	0.000223	2.229578	0.755401	0.000089
 140	1.3831e+01	5.5410	15.621697	0.000486	4.864534	1.648149	0.000195
 141	1.3930e+01	5.5699	15.742811	0.000304	3.040334	1.030093	0.000122
 142	1.4030e+01	5.6148	15.855851	0.000284	2.837645	0.961420	0.000114
 143	1.4129e+01	5.6565	15.976965	0.000304	3.040334	1.030093	0.000122
 144	1.4229e+01	5.6870	16.110190	0.000334	3.344367	1.133102	0.000134
 145	1.4328e+01	5.7319	16.283787	0.000436	4.357811	1.476466	0.000174
 146	1.4428e+01	5.7704	16.457384	0.000436	4.357811	1.476466	0.000174
 147	1.4527e+01	5.8105	16.530052	0.000182	1.824200	0.618056	0.000073
 148	1.4627e+01	5.8538	16.647129	0.000294	2.938989	0.995756	0.000118
 149	1.4726e+01	5.8907	16.812652	0.000416	4.155123	1.407794	0.000166
 150	1.4825e+01	5.9308	16.953952	0.000355	3.547056	1.201775	0.000142
 151	1.4925e+01	5.9774	17.030657	0.000193	1.925545	0.652392	0.000077
 152	1.5024e+01	6.0079	17.228477	0.000497	4.965878	1.682485	0.000199
 153	1.5124e+01	6.0512	17.317294	0.000223	2.229578	0.755401	0.000089
 154	1.5223e+01	6.0897	17.438408	0.000304	3.040334	1.030093	0.000122
 155	1.5323e+01	6.1298	17.599893	0.000405	4.053778	1.373457	0.000162
 156	1.5422e+01	6.1683	17.737156	0.000345	3.445711	1.167439	0.000138
 157	1.5522e+01	6.2084	17.834047	0.000243	2.432267	0.824074	0.000097
 158	1.5621e+01	6.2533	17.987458	0.000385	3.851089	1.304784	0.000154
 159	1.5721e+01	6.2902	18.072238	0.000213	2.128233	0.721065	0.000085
 160	1.5820e+01	6.3239	18.253909	0.000456	4.560500	1.545139	0.000183
 161	1.5920e+01	6.3784	18.407320	0.000385	3.851089	1.304784	0.000154
 162	1.6020e+01	6.4201	18.532472	0.000314	3.141678	1.064429	0.000126
 163	1.6119e+01	6.4474	18.673771	0.000355	3.547056	1.201775	0.000142
 164	1.6218e+01	6.4779	18.827183	0.000385	3.851089	1.304784	0.000154
 165	1.6318e+01	6.5292	18.924074	0.000243	2.432267	0.824074	0.000097
 166	1.6418e+01	6.5645	19.061336	0.000345	3.445711	1.167439	0.000138
 167	1.6517e+01	6.6046	19.210710	0.000375	3.749745	1.270448	0.000150
 168	1.6616e+01	6.6431	19.356047	0.000365	3.648400	1.236111	0.000146
 169	1.6716e+01	6.6929	19.452939	0.000243	2.432267	0.824074	0.000097
 170	1.6816e+01	6.7265	19.618461	0.000416	4.155123	1.407794	0.000166
 171	1.6915e+01	6.7715	19.759761	0.000355	3.547056	1.201775	0.000142
 172	1.7015e+01	6.8036	19.852615	0.000233	2.330922	0.789738	0.000093
 173	1.7114e+01	6.8453	20.001989	0.000375	3.749745	1.270448	0.000150
 174	1.7213e+01	6.8822	20.147326	0.000365	3.648400	1.236111	0.000146
 175	1.7313e+01	6.9271	20.284589	0.000345	3.445711	1.167439	0.000138
 176	1.7413e+01	6.9688	20.405703	0.000304	3.040334	1.030093	0.000122
 177	1.7512e+01	7.0025	20.567188	0.000405	4.053778	1.373457	0.000162
 178	1.7611e+01	7.0426	20.688302	0.000304	3.040334	1.030093	0.000122
 179	1.7711e+01	7.0827	20.825565	0.000345	3.445711	1.167439	0.000138
 180	1.7811e+01	7.1228	20.934567	0.000274	2.736300	0.927084	0.000110
 181	1.7910e+01	7.1645	21.100090	0.000416	4.155123	1.407794	0.000166
 182	1.8009e+01	7.2046	21.237353	0.000345	3.445711	1.167439	0.000138
 183	1.8109e+01	7.2479	21.366541	0.000324	3.243022	1.098766	0.000130
 184	1.8209e+01	7.2832	21.495729	0.000324	3.243022	1.098766	0.000130
 185	1.8308e+01	7.3297	21.620880	0.000314	3.141678	1.064429	0.000126
 186	1.8407e+01	7.3666	21.729883	0.000274	2.736300	0.927084	0.000110
 187	1.8507e+01	7.4019	21.863109	0.000334	3.344367	1.133102	0.000134
 188	1.8607e+01	7.4436	22.020557	0.000395	3.952434	1.339121	0.000158
 189	1.8706e+01	7.4854	22.141671	0.000304	3.040334	1.030093	0.000122
 190	1.8805e+01	7.5190	22.299119	0.000395	3.952434	1.339121	0.000158
 191	1.8905e+01	7.5543	22.391973	0.000233	2.330922	0.789738	0.000093
 192	1.9005e+01	7.5928	22.529236	0.000345	3.445711	1.167439	0.000138
 193	1.9104e+01	7.6329	22.622090	0.000233	2.330922	0.789738	0.000093
 194	1.9203e+01	7.6811	22.787613	0.000416	4.155123	1.407794	0.000166
 195	1.9303e+01	7.7276	22.932950	0.000365	3.648400	1.236111	0.000146
 196	1.9402e+01	7.7549	23.050026	0.000294	2.938989	0.995756	0.000118
 197	1.9502e+01	7.8014	23.227660	0.000446	4.459156	1.510803	0.000179
 198	1.9602e+01	7.8383	23.316477	0.000223	2.229578	0.755401	0.000089
 199	1.9701e+01	7.8896	23.518334	0.000507	5.067223	1.716821	0.000203
 200	1.9800e+01	7.9169	23.619263	0.000253	2.533611	0.858411	0.000101
 201	1.9900e+01	7.9586	23.736340	0.000294	2.938989	0.995756	0.000118
 202	2.0000e+01	8.0003	23.913974	0.000446	4.459156	1.510803	0.000179
 203	2.0099e+01	8.0468	23.974531	0.000152	1.520167	0.515046	0.000061
 204	2.0198e+01	8.0773	24.131979	0.000395	3.952434	1.339121	0.000158
 205	2.0298e+01	8.1126	24.277316	0.000365	3.648400	1.236111	0.000146
 206	2.0398e+01	8.1607	24.394393	0.000294	2.938989	0.995756	0.000118
 207	2.0497e+01	8.2073	24.535692	0.000355	3.547056	1.201775	0.000142
 208	2.0596e+01	8.2425	24.656807	0.000304	3.040334	1.030093	0.000122
 209	2.0696e+01	8.2746	24.802143	0.000365	3.648400	1.236111	0.000146
 210	2.0796e+01	8.3179	24.943443	0.000355	3.547056	1.201775	0.000142
 211	2.0895e+01	8.3597	25.044372	0.000253	2.533611	0.858411	0.000101
 212	2.0994e+01	8.4030	25.201820	0.000395	3.952434	1.339121	0.000158
 213	2.1094e+01	8.4335	25.326971	0.000314	3.141678	1.064429	0.000126
 214	2.1194e+01	8.4864	25.460197	0.000334	3.344367	1.133102	0.000134
 215	2.1293e+01	8.5217	25.589385	0.000324	3.243022	1.098766	0.000130
 216	2.1392e+01	8.5602	25.767019	0.000446	4.459156	1.510803	0.000179
 217	2.1492e+01	8.5955	25.871984	0.000263	2.634956	0.892747	0.000105
 218	2.1591e+01	8.6516	26.013284	0.000355	3.547056	1.201775	0.000142
 219	2.1691e+01	8.6885	26.138435	0.000314	3.141678	1.064429	0.000126
 220	2.1791e+01	8.7126	26.263587	0.000314	3.141678	1.064429	0.000126
 221	2.1890e+01	8.7623	26.384701	0.000304	3.040334	1.030093	0.000122
 222	2.1989e+01	8.7992	26.513889	0.000324	3.243022	1.098766	0.000130
 223	2.2089e+01	8.8393	26.614817	0.000253	2.533611	0.858411	0.000101
 224	2.2189e+01	8.8730	26.784377	0.000426	4.256467	1.442130	0.000170
 225	2.2288e+01	8.9227	26.881268	0.000243	2.432267	0.824074	0.000097
 226	2.2387e+01	8.9564	27.026605	0.000365	3.648400	1.236111	0.000146
 227	2.2487e+01	9.0030	27.147719	0.000304	3.040334	1.030093	0.000122
 228	2.2587e+01	9.0447	27.272870	0.000314	3.141678	1.064429	0.000126
 229	2.2686e+01	9.0848	27.434356	0.000405	4.053778	1.373457	0.000162
 230	2.2785e+01	9.1185	27.539321	0.000263	2.634956	0.892747	0.000105
 231	2.2885e+01	9.1554	27.660436	0.000304	3.040334	1.030093	0.000122
 232	2.2985e+01	9.1939	27.809810	0.000375	3.749745	1.270448	0.000150
 233	2.3084e+01	9.2372	27.943035	0.000334	3.344367	1.133102	0.000134
 234	2.3183e+01	9.2725	28.052038	0.000274	2.736300	0.927084	0.000110
 235	2.3283e+01	9.3158	28.205449	0.000385	3.851089	1.304784	0.000154
 236	2.3383e+01	9.3623	28.314451	0.000274	2.736300	0.927084	0.000110
 237	2.3482e+01	9.4040	28.439603	0.000314	3.141678	1.064429	0.000126
 238	2.3581e+01	9.4361	28.576865	0.000345	3.445711	1.167439	0.000138
 239	2.3681e+01	9.4794	28.693942	0.000294	2.938989	0.995756	0.000118
 240	2.3780e+01	9.5179	28.839279	0.000365	3.648400	1.236111	0.000146
 241	2.3880e+01	9.5484	28.944245	0.000263	2.634956	0.892747	0.000105
 242	2.3980e+01	9.5965	29.113804	0.000426	4.256467	1.442130	0.000170
 243	2.4079e+01	9.6318	29.190510	0.000193	1.925545	0.652392	0.000077
 244	2.4178e+01	9.6671	29.287401	0.000243	2.432267	0.824074	0.000097
 245	2.4278e+01	9.7168	29.460998	0.000436	4.357811	1.476466	0.000174
 246	2.4378e+01	9.7569	29.557889	0.000243	2.432267	0.824074	0.000097
 247	2.4477e+01	9.7874	29.695152	0.000345	3.445711	1.167439	0.000138
 248	2.4576e+01	9.8307	29.816266	0.000304	3.040334	1.030093	0.000122
 249	2.4676e+01	9.8821	29.957566	0.000355	3.547056	1.201775	0.000142
 250	2.4776e+01	9.9093	30.070606	0.000284	2.837645	0.961420	0.000114
 251	2.4875e+01	9.9623	30.199794	0.000324	3.243022	1.098766	0.000130
 252	2.4974e+01	9.9847	30.300722	0.000253	2.533611	0.858411	0.000101
 253	2.5074e+01	10.0393	30.433948	0.000334	3.344367	1.133102	0.000134
 254	2.5174e+01	10.0617	30.583322	0.000375	3.749745	1.270448	0.000150
 255	2.5273e+01	10.1131	30.664064	0.000203	2.026889	0.686729	0.000081
 256	2.5372e+01	10.1580	30.833624	0.000426	4.256467	1.442130	0.000170
 257	2.5472e+01	10.1853	30.918404	0.000213	2.128233	0.721065	0.000085
 258	2.5572e+01	10.2318	31.063741	0.000365	3.648400	1.236111	0.000146
 259	2.5671e+01	10.2735	31.201004	0.000345	3.445711	1.167439	0.000138
 260	2.5770e+01	10.3120	31.285783	0.000213	2.128233	0.721065	0.000085
 261	2.5870e+01	10.3601	31.431120	0.000365	3.648400	1.236111	0.000146
 262	2.5970e+01	10.3874	31.556271	0.000314	3.141678	1.064429	0.000126
 263	2.6069e+01	10.4355	31.709683	0.000385	3.851089	1.304784	0.000154
 264	2.6169e+01	10.4788	31.822722	0.000284	2.837645	0.961420	0.000114
 265	2.6268e+01	10.4981	31.984208	0.000405	4.053778	1.373457	0.000162
 266	2.6367e+01	10.5430	32.077062	0.000233	2.330922	0.789738	0.000093
 267	2.6467e+01	10.6008	32.186065	0.000274	2.736300	0.927084	0.000110
 268	2.6567e+01	10.6296	32.339476	0.000385	3.851089	1.304784	0.000154
 269	2.6666e+01	10.6746	32.416181	0.000193	1.925545	0.652392	0.000077
 270	2.6765e+01	10.7099	32.581704	0.000416	4.155123	1.407794	0.000166
 271	2.6865e+01	10.7612	32.698781	0.000294	2.938989	0.995756	0.000118
 272	2.6965e+01	10.7949	32.852192	0.000385	3.851089	1.304784	0.000154
 273	2.7064e+01	10.8238	32.973306	0.000304	3.040334	1.030093	0.000122
 274	2.7163e+01	10.8623	33.078272	0.000263	2.634956	0.892747	0.000105
 275	2.7263e+01	10.9136	33.227646	0.000375	3.749745	1.270448	0.000150
 276	2.7363e+01	10.9457	33.328574	0.000253	2.533611	0.858411	0.000101
 277	2.7462e+01	10.9922	33.461800	0.000334	3.344367	1.133102	0.000134
 278	2.7561e+01	11.0211	33.566765	0.000263	2.634956	0.892747	0.000105
 279	2.7661e+01	11.0676	33.720176	0.000385	3.851089	1.304784	0.000154
 280	2.7761e+01	11.1125	33.821105	0.000253	2.533611	0.858411	0.000101
 281	2.7860e+01	11.1462	33.942219	0.000304	3.040334	1.030093	0.000122
 282	2.7959e+01	11.1927	34.063333	0.000304	3.040334	1.030093	0.000122
 283	2.8059e+01	11.2296	34.200595	0.000345	3.445711	1.167439	0.000138
 284	2.8159e+01	11.2729	34.325747	0.000314	3.141678	1.064429	0.000126
 285	2.8258e+01	11.2986	34.446861	0.000304	3.040334	1.030093	0.000122
 286	2.8358e+01	11.3499	34.576049	0.000324	3.243022	1.098766	0.000130
 287	2.8457e+01	11.3949	34.676977	0.000253	2.533611	0.858411	0.000101
 288	2.8556e+01	11.4270	34.798091	0.000304	3.040334	1.030093	0.000122
 289	2.8656e+01	11.4622	34.951503	0.000385	3.851089	1.304784	0.000154
 290	2.8756e+01	11.4991	35.068580	0.000294	2.938989	0.995756	0.000118
 291	2.8855e+01	11.5425	35.177582	0.000274	2.736300	0.927084	0.000110
 292	2.8954e+01	11.5890	35.306771	0.000324	3.243022	1.098766	0.000130
 293	2.9054e+01	11.6323	35.444033	0.000345	3.445711	1.167439	0.000138
 294	2.9154e+01	11.6660	35.573222	0.000324	3.243022	1.098766	0.000130
 295	2.9253e+01	11.7109	35.706447	0.000334	3.344367	1.133102	0.000134
 296	2.9352e+01	11.7462	35.795264	0.000223	2.229578	0.755401	0.000089
 297	2.9452e+01	11.7863	35.936564	0.000355	3.547056	1.201775	0.000142
 298	2.9552e+01	11.8280	36.033455	0.000243	2.432267	0.824074	0.000097
 299	2.9651e+01	11.8745	36.182829	0.000375	3.749745	1.270448	0.000150
 300	2.9750e+01	11.8986	36.271646	0.000223	2.229578	0.755401	0.000089
 301	2.9850e+01	11.9451	36.449280	0.000446	4.459156	1.510803	0.000179
 302	2.9950e+01	11.9788	36.530023	0.000203	2.026889	0.686729	0.000081
 303	3.0049e+01	12.0173	36.679397	0.000375	3.749745	1.270448	0.000150
 304	3.0148e+01	12.0670	36.784362	0.000263	2.634956	0.892747	0.000105
 305	3.0248e+01	12.1071	36.929699	0.000365	3.648400	1.236111	0.000146
 306	3.0348e+01	12.1408	37.042739	0.000284	2.837645	0.961420	0.000114
 307	3.0447e+01	12.1906	37.175964	0.000334	3.344367	1.133102	0.000134
 308	3.0547e+01	12.2259	37.337450	0.000405	4.053778	1.373457	0.000162
 309	3.0646e+01	12.2676	37.446453	0.000274	2.736300	0.927084	0.000110
 310	3.0745e+01	12.3045	37.575641	0.000324	3.243022	1.098766	0.000130
 311	3.0845e+01	12.3382	37.692718	0.000294	2.938989	0.995756	0.000118
 312	3.0945e+01	12.3847	37.813832	0.000304	3.040334	1.030093	0.000122
 313	3.1044e+01	12.4248	37.947057	0.000334	3.344367	1.133102	0.000134
 314	3.1143e+01	12.4617	38.031837	0.000213	2.128233	0.721065	0.000085
 315	3.1243e+01	12.5130	38.148914	0.000294	2.938989	0.995756	0.000118
 316	3.1343e+01	12.5419	38.306362	0.000395	3.952434	1.339121	0.000158
 317	3.1442e+01	12.5836	38.451699	0.000365	3.648400	1.236111	0.000146
 318	3.1541e+01	12.6205	38.524368	0.000182	1.824200	0.618056	0.000073
 319	3.1641e+01	12.6718	38.689890	0.000416	4.155123	1.407794	0.000166
 320	3.1741e+01	12.7071	38.819079	0.000324	3.243022	1.098766	0.000130
 321	3.1840e+01	12.7488	38.915970	0.000243	2.432267	0.824074	0.000097
 322	3.1939e+01	12.7841	39.016898	0.000253	2.533611	0.858411	0.000101
 323	3.2039e+01	12.8258	39.133975	0.000294	2.938989	0.995756	0.000118
 324	3.2139e+01	12.8692	39.343906	0.000527	5.269911	1.785494	0.000211
 325	3.2238e+01	12.8996	39.432723	0.000223	2.229578	0.755401	0.000089
 326	3.2337e+01	12.9381	39.561912	0.000324	3.243022	1.098766	0.000130
 327	3.2437e+01	12.9815	39.687063	0.000314	3.141678	1.064429	0.000126
 328	3.2536e+01	13.0248	39.820288	0.000334	3.344367	1.133102	0.000134
 329	3.2636e+01	13.0504	39.933328	0.000284	2.837645	0.961420	0.000114
 330	3.2736e+01	13.1034	40.086739	0.000385	3.851089	1.304784	0.000154
 331	3.2835e+01	13.1403	40.179593	0.000233	2.330922	0.789738	0.000093
 332	3.2934e+01	13.1772	40.304745	0.000314	3.141678	1.064429	0.000126
 333	3.3034e+01	13.2173	40.458156	0.000385	3.851089	1.304784	0.000154
 334	3.3133e+01	13.2574	40.571196	0.000284	2.837645	0.961420	0.000114
 335	3.3233e+01	13.2991	40.692310	0.000304	3.040334	1.030093	0.000122
 336	3.3333e+01	13.3328	40.809387	0.000294	2.938989	0.995756	0.000118
 337	3.3432e+01	13.3777	40.946649	0.000345	3.445711	1.167439	0.000138
 338	3.3532e+01	13.4178	41.055652	0.000274	2.736300	0.927084	0.000110
 339	3.3631e+01	13.4579	41.225212	0.000426	4.256467	1.442130	0.000170
 340	3.3730e+01	13.4916	41.346326	0.000304	3.040334	1.030093	0.000122
 341	3.3830e+01	13.5461	41.479551	0.000334	3.344367	1.133102	0.000134
 342	3.3929e+01	13.5750	41.564331	0.000213	2.128233	0.721065	0.000085
 343	3.4029e+01	13.6135	41.713705	0.000375	3.749745	1.270448	0.000150
 344	3.4129e+01	13.6520	41.859042	0.000365	3.648400	1.236111	0.000146
 345	3.4228e+01	13.7001	41.964007	0.000263	2.634956	0.892747	0.000105
 346	3.4328e+01	13.7354	42.081084	0.000294	2.938989	0.995756	0.000118
 347	3.4427e+01	13.7788	42.214310	0.000334	3.344367	1.133102	0.000134
 348	3.4526e+01	13.8140	42.343498	0.000324	3.243022	1.098766	0.000130
 349	3.4626e+01	13.8590	42.476724	0.000334	3.344367	1.133102	0.000134
 350	3.4725e+01	13.8943	42.569578	0.000233	2.330922	0.789738	0.000093
 351	3.4825e+01	13.9328	42.702803	0.000334	3.344367	1.133102	0.000134
 352	3.4925e+01	13.9793	42.815843	0.000284	2.837645	0.961420	0.000114
 353	3.5024e+01	14.0098	42.977328	0.000405	4.053778	1.373457	0.000162
 354	3.5123e+01	14.0579	43.078257	0.000253	2.533611	0.858411	0.000101
 355	3.5223e+01	14.0996	43.183222	0.000263	2.634956	0.892747	0.000105
 356	3.5322e+01	14.1413	43.308374	0.000314	3.141678	1.064429	0.000126
 357	3.5422e+01	14.1814	43.413339	0.000263	2.634956	0.892747	0.000105
 358	3.5522e+01	14.2055	43.554639	0.000355	3.547056	1.201775	0.000142
 359	3.5621e+01	14.2616	43.687864	0.000334	3.344367	1.133102	0.000134
 360	3.5721e+01	14.2985	43.796867	0.000274	2.736300	0.927084	0.000110
 361	3.5820e+01	14.3370	43.934130	0.000345	3.445711	1.167439	0.000138
 362	3.5919e+01	14.3803	44.035058	0.000253	2.533611	0.858411	0.000101
 363	3.6019e+01	14.4188	44.196543	0.000405	4.053778	1.373457	0.000162
 364	3.6118e+01	14.4541	44.297472	0.000253	2.533611	0.858411	0.000101
 365	3.6218e+01	14.4926	44.422623	0.000314	3.141678	1.064429	0.000126
 366	3.6318e+01	14.5392	44.527589	0.000263	2.634956	0.892747	0.000105
 367	3.6417e+01	14.5809	44.672926	0.000365	3.648400	1.236111	0.000146
 368	3.6517e+01	14.6210	44.802114	0.000324	3.243022	1.098766	0.000130
 369	3.6616e+01	14.6611	44.882857	0.000203	2.026889	0.686729	0.000081
 370	3.6715e+01	14.6948	45.028193	0.000365	3.648400	1.236111	0.000146
 371	3.6815e+01	14.7285	45.177567	0.000375	3.749745	1.270448	0.000150
 372	3.6914e+01	14.7734	45.258310	0.000203	2.026889	0.686729	0.000081
 373	3.7014e+01	14.8231	45.399610	0.000355	3.547056	1.201775	0.000142
 374	3.7114e+01	14.8568	45.512650	0.000284	2.837645	0.961420	0.000114
 375	3.7213e+01	14.9001	45.629727	0.000294	2.938989	0.995756	0.000118
 376	3.7313e+01	14.9274	45.783138	0.000385	3.851089	1.304784	0.000154
 377	3.7412e+01	14.9755	45.875992	0.000233	2.330922	0.789738	0.000093
 378	3.7511e+01	15.0220	45.984995	0.000274	2.736300	0.927084	0.000110
 379	3.7611e+01	15.0541	46.162629	0.000446	4.459156	1.510803	0.000179
 380	3.7711e+01	15.0910	46.243371	0.000203	2.026889	0.686729	0.000081
 381	3.7810e+01	15.1311	46.364485	0.000304	3.040334	1.030093	0.000122
 382	3.7910e+01	15.1744	46.477525	0.000284	2.837645	0.961420	0.000114
 383	3.8009e+01	15.2097	46.626899	0.000375	3.749745	1.270448	0.000150
 384	3.8108e+01	15.2450	46.756088	0.000324	3.243022	1.098766	0.000130
 385	3.8208e+01	15.2883	46.877202	0.000304	3.040334	1.030093	0.000122
 386	3.8307e+01	15.3317	46.974093	0.000243	2.432267	0.824074	0.000097
 387	3.8407e+01	15.3734	47.079058	0.000263	2.634956	0.892747	0.000105
 388	3.8507e+01	15.4151	47.224395	0.000365	3.648400	1.236111	0.000146
 389	3.8606e+01	15.4584	47.341472	0.000294	2.938989	0.995756	0.000118
 390	3.8706e+01	15.4969	47.430289	0.000223	2.229578	0.755401	0.000089
 391	3.8805e+01	15.5322	47.579663	0.000375	3.749745	1.270448	0.000150
 392	3.8904e+01	15.5771	47.660406	0.000203	2.026889	0.686729	0.000081
 393	3.9004e+01	15.6172	47.801706	0.000355	3.547056	1.201775	0.000142
 394	3.9103e+01	15.6477	47.963191	0.000405	4.053778	1.373457	0.000162
 395	3.9203e+01	15.6942	48.064120	0.000253	2.533611	0.858411	0.000101
 396	3.9303e+01	15.7247	48.165048	0.000253	2.533611	0.858411	0.000101
 397	3.9402e+01	15.7664	48.290199	0.000314	3.141678	1.064429	0.000126
 398	3.9502e+01	15.8081	48.379016	0.000223	2.229578	0.755401	0.000089
 399	3.9601e+01	15.8434	48.488019	0.000274	2.736300	0.927084	0.000110
 400	3.9700e+01	15.8867	48.617207	0.000324	3.243022	1.098766	0.000130
 401	3.9800e+01	15.9268	48.762544	0.000365	3.648400	1.236111	0.000146
 402	3.9900e+01	15.9653	48.871547	0.000274	2.736300	0.927084	0.000110
 403	3.9999e+01	16.0102	49.028995	0.000395	3.952434	1.339121	0.000158
 404	4.0099e+01	16.0455	49.057255	0.000071	0.709411	0.240355	0.000028
 405	4.0198e+01	16.0937	49.214703	0.000395	3.952434	1.339121	0.000158
 406	4.0297e+01	16.1257	49.311594	0.000243	2.432267	0.824074	0.000097
 407	4.0397e+01	16.1723	49.448857	0.000345	3.445711	1.167439	0.000138
 408	4.0496e+01	16.2028	49.553823	0.000263	2.634956	0.892747	0.000105
 409	4.0596e+01	16.2477	49.662825	0.000274	2.736300	0.927084	0.000110
 410	4.0696e+01	16.2814	49.787976	0.000314	3.141678	1.064429	0.000126
 411	4.0795e+01	16.3150	49.856608	0.000172	1.722856	0.583719	0.000069
 412	4.0895e+01	16.3632	49.965610	0.000274	2.736300	0.927084	0.000110
 413	4.0994e+01	16.4097	50.127096	0.000405	4.053778	1.373457	0.000162
 414	4.1093e+01	16.4434	50.232061	0.000263	2.634956	0.892747	0.000105
 415	4.1193e+01	16.4883	50.345101	0.000284	2.837645	0.961420	0.000114
 416	4.1292e+01	16.5268	50.441992	0.000243	2.432267	0.824074	0.000097
 417	4.1392e+01	16.5621	50.555032	0.000284	2.837645	0.961420	0.000114
 418	4.1492e+01	16.6070	50.712481	0.000395	3.952434	1.339121	0.000158
 419	4.1591e+01	16.6423	50.781112	0.000172	1.722856	0.583719	0.000069
 420	4.1691e+01	16.6904	50.886077	0.000263	2.634956	0.892747	0.000105
 421	4.1790e+01	16.7273	51.007191	0.000304	3.040334	1.030093	0.000122
 422	4.1889e+01	16.7658	51.128306	0.000304	3.040334	1.030093	0.000122
 423	4.1989e+01	16.8043	51.269605	0.000355	3.547056	1.201775	0.000142
 424	4.2089e+01	16.8509	51.362459	0.000233	2.330922	0.789738	0.000093
 425	4.2188e+01	16.8894	51.463388	0.000253	2.533611	0.858411	0.000101
 426	4.2288e+01	16.9279	51.564316	0.000253	2.533611	0.858411	0.000101
 427	4.2387e+01	16.9696	51.701579	0.000345	3.445711	1.167439	0.000138
 428	4.2486e+01	17.0033	51.802507	0.000253	2.533611	0.858411	0.000101
 429	4.2586e+01	17.0482	51.947844	0.000365	3.648400	1.236111	0.000146
 430	4.2685e+01	17.0867	52.032624	0.000213	2.128233	0.721065	0.000085
 431	4.2785e+01	17.1220	52.161812	0.000324	3.243022	1.098766	0.000130
 432	4.2885e+01	17.1589	52.282926	0.000304	3.040334	1.030093	0.000122
 433	4.2984e+01	17.2102	52.343483	0.000152	1.520167	0.515046	0.000061
 434	4.3084e+01	17.2455	52.517080	0.000436	4.357811	1.476466	0.000174
 435	4.3183e+01	17.2728	52.597823	0.000203	2.026889	0.686729	0.000081
 436	4.3282e+01	17.3225	52.731048	0.000334	3.344367	1.133102	0.000134
 437	4.3382e+01	17.3674	52.819865	0.000223	2.229578	0.755401	0.000089
 438	4.3481e+01	17.3995	52.940980	0.000304	3.040334	1.030093	0.000122
 439	4.3581e+01	17.4332	53.021722	0.000203	2.026889	0.686729	0.000081
 440	4.3681e+01	17.4797	53.167059	0.000365	3.648400	1.236111	0.000146
 441	4.3780e+01	17.5230	53.312396	0.000365	3.648400	1.236111	0.000146
 442	4.3880e+01	17.5583	53.389102	0.000193	1.925545	0.652392	0.000077
 443	4.3979e+01	17.6065	53.498104	0.000274	2.736300	0.927084	0.000110
 444	4.4078e+01	17.6514	53.623255	0.000314	3.141678	1.064429	0.000126
 445	4.4178e+01	17.6835	53.691887	0.000172	1.722856	0.583719	0.000069
 446	4.4278e+01	17.7236	53.804927	0.000284	2.837645	0.961420	0.000114
 447	4.4377e+01	17.7556	53.958338	0.000385	3.851089	1.304784	0.000154
 448	4.4477e+01	17.8038	54.067340	0.000274	2.736300	0.927084	0.000110
 449	4.4576e+01	17.8391	54.192492	0.000314	3.141678	1.064429	0.000126
 450	4.4675e+01	17.8824	54.293420	0.000253	2.533611	0.858411	0.000101
 451	4.4775e+01	17.9241	54.382237	0.000223	2.229578	0.755401	0.000089
 452	4.4874e+01	17.9626	54.515462	0.000334	3.344367	1.133102	0.000134
 453	4.4974e+01	18.0043	54.636577	0.000304	3.040334	1.030093	0.000122
 454	4.5074e+01	18.0476	54.729431	0.000233	2.330922	0.789738	0.000093
 455	4.5173e+01	18.0829	54.826322	0.000243	2.432267	0.824074	0.000097
 456	4.5273e+01	18.1278	54.947436	0.000304	3.040334	1.030093	0.000122
 457	4.5372e+01	18.1647	55.052401	0.000263	2.634956	0.892747	0.000105
 458	4.5471e+01	18.2113	55.173516	0.000304	3.040334	1.030093	0.000122
 459	4.5571e+01	18.2481	55.274444	0.000253	2.533611	0.858411	0.000101
 460	4.5670e+01	18.2834	55.387484	0.000284	2.837645	0.961420	0.000114
 461	4.5770e+01	18.3187	55.484375	0.000243	2.432267	0.824074	0.000097
 462	4.5870e+01	18.3653	55.601452	0.000294	2.938989	0.995756	0.000118
 463	4.5969e+01	18.4070	55.722566	0.000304	3.040334	1.030093	0.000122
 464	4.6069e+01	18.4407	55.815420	0.000233	2.330922	0.789738	0.000093
 465	4.6168e+01	18.4808	55.928460	0.000284	2.837645	0.961420	0.000114
 466	4.6267e+01	18.5369	56.065723	0.000345	3.445711	1.167439	0.000138
 467	4.6367e+01	18.5594	56.134354	0.000172	1.722856	0.583719	0.000069
 468	4.6467e+01	18.6011	56.283728	0.000375	3.749745	1.270448	0.000150
 469	4.6566e+01	18.6396	56.380619	0.000243	2.432267	0.824074	0.000097
 470	4.6666e+01	18.6845	56.485585	0.000263	2.634956	0.892747	0.000105
 471	4.6765e+01	18.7198	56.643033	0.000395	3.952434	1.339121	0.000158
 472	4.6864e+01	18.7551	56.739924	0.000243	2.432267	0.824074	0.000097
 473	4.6964e+01	18.8016	56.848927	0.000274	2.736300	0.927084	0.000110
 474	4.7063e+01	18.8369	56.974078	0.000314	3.141678	1.064429	0.000126
 475	4.7163e+01	18.8786	57.054821	0.000203	2.026889	0.686729	0.000081
 476	4.7263e+01	18.9251	57.208232	0.000385	3.851089	1.304784	0.000154
 477	4.7362e+01	18.9556	57.317235	0.000274	2.736300	0.927084	0.000110
 478	4.7462e+01	19.0021	57.402014	0.000213	2.128233	0.721065	0.000085
 479	4.7561e+01	19.0358	57.498906	0.000243	2.432267	0.824074	0.000097
 480	4.7660e+01	19.0775	57.620020	0.000304	3.040334	1.030093	0.000122
 481	4.7760e+01	19.1225	57.692688	0.000182	1.824200	0.618056	0.000073
 482	4.7859e+01	19.1626	57.854174	0.000405	4.053778	1.373457	0.000162
 483	4.7959e+01	19.1995	57.963176	0.000274	2.736300	0.927084	0.000110
 484	4.8059e+01	19.2428	58.051993	0.000223	2.229578	0.755401	0.000089
 485	4.8158e+01	19.2749	58.181182	0.000324	3.243022	1.098766	0.000130
 486	4.8258e+01	19.3069	58.310370	0.000324	3.243022	1.098766	0.000130
 487	4.8357e+01	19.3503	58.427447	0.000294	2.938989	0.995756	0.000118
 488	4.8456e+01	19.4000	58.540487	0.000284	2.837645	0.961420	0.000114
 489	4.8556e+01	19.4449	58.633341	0.000233	2.330922	0.789738	0.000093
 490	4.8656e+01	19.4754	58.762529	0.000324	3.243022	1.098766	0.000130
 491	4.8755e+01	19.5235	58.835198	0.000182	1.824200	0.618056	0.000073
 492	4.8855e+01	19.5508	58.964386	0.000324	3.243022	1.098766	0.000130
 493	4.8954e+01	19.5893	59.049166	0.000213	2.128233	0.721065	0.000085
 494	4.9053e+01	19.6358	59.186428	0.000345	3.445711	1.167439	0.000138
 495	4.9153e+01	19.6727	59.303505	0.000294	2.938989	0.995756	0.000118
 496	4.9252e+01	19.7224	59.432694	0.000324	3.243022	1.098766	0.000130
 497	4.9352e+01	19.7481	59.537659	0.000263	2.634956	0.892747	0.000105
 498	4.9452e+01	19.8043	59.646662	0.000274	2.736300	0.927084	0.000110
 499	4.9551e+01	19.8347	59.787962	0.000355	3.547056	1.201775	0.000142
 500	4.9651e+01	19.8668	59.860630	0.000182	1.824200	0.618056	0.000073
 501	4.9750e+01	19.9133	60.001930	0.000355	3.547056	1.201775	0.000142
 502	4.9849e+01	19.9551	60.119007	0.000294	2.938989	0.995756	0.000118
 503	4.9949e+01	20.0000	60.236084	0.000294	2.938989	0.995756	0.000118
 504	5.0048e+01	19.9567	60.151304	0.000213	2.128233	0.721065	-0.000085
 505	5.0148e+01	19.9182	60.090747	0.000152	1.520167	0.515046	-0.000061
 506	5.0248e+01	19.8829	60.014041	0.000193	1.925545	0.652392	-0.000077
 507	5.0347e+01	19.8315	59.945410	0.000172	1.722856	0.583719	-0.000069
 508	5.0447e+01	19.7930	59.856593	0.000223	2.229578	0.755401	-0.000089
 509	5.0546e+01	19.7674	59.779887	0.000193	1.925545	0.652392	-0.000077
 510	5.0645e+01	19.7176	59.703182	0.000193	1.925545	0.652392	-0.000077
 511	5.0745e+01	19.6759	59.598216	0.000263	2.634956	0.892747	-0.000105
 512	5.0844e+01	19.6294	59.521511	0.000193	1.925545	0.652392	-0.000077
 513	5.0944e+01	19.6005	59.505362	0.000041	0.405378	0.137346	-0.000016
 514	5.1044e+01	19.5588	59.368100	0.000345	3.445711	1.167439	-0.000138
 515	5.1143e+01	19.5155	59.279283	0.000223	2.229578	0.755401	-0.000089
 516	5.1242e+01	19.4690	59.222763	0.000142	1.418822	0.480710	-0.000057
 517	5.1342e+01	19.4385	59.081463	0.000355	3.547056	1.201775	-0.000142
 518	5.1441e+01	19.4048	59.069352	0.000030	0.304033	0.103009	-0.000012
 519	5.1541e+01	19.3583	58.936126	0.000334	3.344367	1.133102	-0.000134
 520	5.1641e+01	19.3118	58.855383	0.000203	2.026889	0.686729	-0.000081
 521	5.1740e+01	19.2797	58.786752	0.000172	1.722856	0.583719	-0.000069
 522	5.1840e+01	19.2460	58.685824	0.000253	2.533611	0.858411	-0.000101
 523	5.1939e+01	19.1882	58.601044	0.000213	2.128233	0.721065	-0.000085
 524	5.2038e+01	19.1529	58.528375	0.000182	1.824200	0.618056	-0.000073
 525	5.2138e+01	19.1128	58.439558	0.000223	2.229578	0.755401	-0.000089
 526	5.2237e+01	19.0759	58.354779	0.000213	2.128233	0.721065	-0.000085
 527	5.2337e+01	19.0390	58.213479	0.000355	3.547056	1.201775	-0.000142
 528	5.2437e+01	18.9893	58.152922	0.000152	1.520167	0.515046	-0.000061
 529	5.2536e+01	18.9540	58.076216	0.000193	1.925545	0.652392	-0.000077
 530	5.2636e+01	18.9171	57.991436	0.000213	2.128233	0.721065	-0.000085
 531	5.2735e+01	18.8930	57.878397	0.000284	2.837645	0.961420	-0.000114
 532	5.2834e+01	18.8433	57.801691	0.000193	1.925545	0.652392	-0.000077
 533	5.2934e+01	18.7952	57.729022	0.000182	1.824200	0.618056	-0.000073
 534	5.3033e+01	18.7679	57.607908	0.000304	3.040334	1.030093	-0.000122
 535	5.3133e+01	18.7134	57.559463	0.000122	1.216133	0.412037	-0.000049
 536	5.3233e+01	18.6861	57.426237	0.000334	3.344367	1.133102	-0.000134
 537	5.3332e+01	18.6476	57.349532	0.000193	1.925545	0.652392	-0.000077
 538	5.3431e+01	18.6043	57.297049	0.000132	1.317478	0.446374	-0.000053
 539	5.3531e+01	18.5578	57.208232	0.000223	2.229578	0.755401	-0.000089
 540	5.3630e+01	18.5209	57.119415	0.000223	2.229578	0.755401	-0.000089
 541	5.3730e+01	18.4840	56.982152	0.000345	3.445711	1.167439	-0.000138
 542	5.3830e+01	18.4455	56.917558	0.000162	1.621511	0.549383	-0.000065
 543	5.3929e+01	18.4054	56.816630	0.000253	2.533611	0.858411	-0.000101
 544	5.4029e+01	18.3556	56.731850	0.000213	2.128233	0.721065	-0.000085
 545	5.4128e+01	18.3235	56.614773	0.000294	2.938989	0.995756	-0.000118
 546	5.4227e+01	18.2850	56.542105	0.000182	1.824200	0.618056	-0.000073
 547	5.4327e+01	18.2369	56.441176	0.000253	2.533611	0.858411	-0.000101
 548	5.4426e+01	18.2000	56.372545	0.000172	1.722856	0.583719	-0.000069
 549	5.4526e+01	18.1567	56.227208	0.000365	3.648400	1.236111	-0.000146
 550	5.4626e+01	18.1198	56.142428	0.000213	2.128233	0.721065	-0.000085
 551	5.4725e+01	18.0829	56.053611	0.000223	2.229578	0.755401	-0.000089
 552	5.4825e+01	18.0348	55.952683	0.000253	2.533611	0.858411	-0.000101
 553	5.4924e+01	17.9979	55.904237	0.000122	1.216133	0.412037	-0.000049
 554	5.5023e+01	17.9642	55.754863	0.000375	3.749745	1.270448	-0.000150
 555	5.5123e+01	17.9353	55.702380	0.000132	1.317478	0.446374	-0.000053
 556	5.5222e+01	17.8792	55.593378	0.000274	2.736300	0.927084	-0.000110
 557	5.5322e+01	17.8439	55.480338	0.000284	2.837645	0.961420	-0.000114
 558	5.5422e+01	17.7990	55.387484	0.000233	2.330922	0.789738	-0.000093
 559	5.5521e+01	17.7717	55.310778	0.000193	1.925545	0.652392	-0.000077
 560	5.5620e+01	17.7268	55.217924	0.000233	2.330922	0.789738	-0.000093
 561	5.5720e+01	17.6835	55.080661	0.000345	3.445711	1.167439	-0.000138
 562	5.5819e+01	17.6417	55.012030	0.000172	1.722856	0.583719	-0.000069
 563	5.5919e+01	17.6016	54.951473	0.000152	1.520167	0.515046	-0.000061
 564	5.6019e+01	17.5599	54.802099	0.000375	3.749745	1.270448	-0.000150
 565	5.6118e+01	17.5262	54.717319	0.000213	2.128233	0.721065	-0.000085
 566	5.6218e+01	17.4861	54.656762	0.000152	1.520167	0.515046	-0.000061
 567	5.6317e+01	17.4524	54.503351	0.000385	3.851089	1.304784	-0.000154
 568	5.6416e+01	17.4091	54.390311	0.000284	2.837645	0.961420	-0.000114
 569	5.6516e+01	17.3562	54.321680	0.000172	1.722856	0.583719	-0.000069
 570	5.6615e+01	17.3241	54.240937	0.000203	2.026889	0.686729	-0.000081
 571	5.6715e+01	17.2920	54.152120	0.000223	2.229578	0.755401	-0.000089
 572	5.6815e+01	17.2471	54.006783	0.000365	3.648400	1.236111	-0.000146
 573	5.6914e+01	17.2102	53.934115	0.000182	1.824200	0.618056	-0.000073
 574	5.7014e+01	17.1685	53.857409	0.000193	1.925545	0.652392	-0.000077
 575	5.7113e+01	17.1284	53.728221	0.000324	3.243022	1.098766	-0.000130
 576	5.7212e+01	17.0851	53.651515	0.000193	1.925545	0.652392	-0.000077
 577	5.7312e+01	17.0498	53.530401	0.000304	3.040334	1.030093	-0.000122
 578	5.7411e+01	17.0001	53.409287	0.000304	3.040334	1.030093	-0.000122
 579	5.7511e+01	16.9583	53.324507	0.000213	2.128233	0.721065	-0.000085
 580	5.7611e+01	16.9279	53.195319	0.000324	3.243022	1.098766	-0.000130
 581	5.7710e+01	16.8894	53.126688	0.000172	1.722856	0.583719	-0.000069
 582	5.7809e+01	16.8525	52.985388	0.000355	3.547056	1.201775	-0.000142
 583	5.7909e+01	16.8108	52.880422	0.000263	2.634956	0.892747	-0.000105
 584	5.8008e+01	16.7674	52.787568	0.000233	2.330922	0.789738	-0.000093
 585	5.8108e+01	16.7257	52.654343	0.000334	3.344367	1.133102	-0.000134
 586	5.8208e+01	16.6872	52.593786	0.000152	1.520167	0.515046	-0.000061
 587	5.8307e+01	16.6519	52.488820	0.000263	2.634956	0.892747	-0.000105
 588	5.8407e+01	16.6038	52.412115	0.000193	1.925545	0.652392	-0.000077
 589	5.8506e+01	16.5637	52.258704	0.000385	3.851089	1.304784	-0.000154
 590	5.8605e+01	16.5188	52.177961	0.000203	2.026889	0.686729	-0.000081
 591	5.8705e+01	16.4931	52.064921	0.000284	2.837645	0.961420	-0.000114
 592	5.8804e+01	16.4466	51.963993	0.000253	2.533611	0.858411	-0.000101
 593	5.8904e+01	16.4049	51.850953	0.000284	2.837645	0.961420	-0.000114
 594	5.9004e+01	16.3712	51.762136	0.000223	2.229578	0.755401	-0.000089
 595	5.9103e+01	16.3247	51.632948	0.000324	3.243022	1.098766	-0.000130
 596	5.9203e+01	16.2846	51.499722	0.000334	3.344367	1.133102	-0.000134
 597	5.9302e+01	16.2477	51.418979	0.000203	2.026889	0.686729	-0.000081
 598	5.9401e+01	16.2140	51.293828	0.000314	3.141678	1.064429	-0.000126
 599	5.9501e+01	16.1562	51.237308	0.000142	1.418822	0.480710	-0.000057
 600	5.9600e+01	16.1370	51.116194	0.000304	3.040334	1.030093	-0.000122
 601	5.9700e+01	16.0985	51.003154	0.000284	2.837645	0.961420	-0.000114
 602	5.9800e+01	16.0487	50.882040	0.000304	3.040334	1.030093	-0.000122
 603	5.9899e+01	16.0038	50.760926	0.000304	3.040334	1.030093	-0.000122
 604	5.9998e+01	15.9750	50.700369	0.000152	1.520167	0.515046	-0.000061
 605	6.0098e+01	15.9348	50.579255	0.000304	3.040334	1.030093	-0.000122
 606	6.0197e+01	15.8899	50.425844	0.000385	3.851089	1.304784	-0.000154
 607	6.0297e+01	15.8627	50.385473	0.000101	1.013445	0.343364	-0.000041
 608	6.0397e+01	15.8081	50.300693	0.000213	2.128233	0.721065	-0.000085
 609	6.0496e+01	15.7616	50.191690	0.000274	2.736300	0.927084	-0.000110
 610	6.0596e+01	15.7343	50.074613	0.000294	2.938989	0.995756	-0.000118
 611	6.0695e+01	15.6926	49.973685	0.000253	2.533611	0.858411	-0.000101
 612	6.0794e+01	15.6525	49.864682	0.000274	2.736300	0.927084	-0.000110
 613	6.0894e+01	15.6188	49.755679	0.000274	2.736300	0.927084	-0.000110
 614	6.0993e+01	15.5755	49.650714	0.000263	2.634956	0.892747	-0.000105
 615	6.1093e+01	15.5306	49.582083	0.000172	1.722856	0.583719	-0.000069
 616	6.1193e+01	15.4889	49.432709	0.000375	3.749745	1.270448	-0.000150
 617	6.1292e+01	15.4488	49.335817	0.000243	2.432267	0.824074	-0.000097
 618	6.1392e+01	15.4135	49.202592	0.000334	3.344367	1.133102	-0.000134
 619	6.1491e+01	15.3750	49.125886	0.000193	1.925545	0.652392	-0.000077
 620	6.1590e+01	15.3365	49.004772	0.000304	3.040334	1.030093	-0.000122
 621	6.1690e+01	15.2932	48.867510	0.000345	3.445711	1.167439	-0.000138
 622	6.1789e+01	15.2466	48.794841	0.000182	1.824200	0.618056	-0.000073
 623	6.1889e+01	15.2129	48.661616	0.000334	3.344367	1.133102	-0.000134
 624	6.1989e+01	15.1776	48.592984	0.000172	1.722856	0.583719	-0.000069
 625	6.2088e+01	15.1279	48.447647	0.000365	3.648400	1.236111	-0.000146
 626	6.2188e+01	15.0846	48.387090	0.000152	1.520167	0.515046	-0.000061
 627	6.2287e+01	15.0541	48.253865	0.000334	3.344367	1.133102	-0.000134
 628	6.2386e+01	15.0092	48.132751	0.000304	3.040334	1.030093	-0.000122
 629	6.2486e+01	14.9723	48.027785	0.000263	2.634956	0.892747	-0.000105
 630	6.2586e+01	14.9242	47.930894	0.000243	2.432267	0.824074	-0.000097
 631	6.2685e+01	14.8921	47.801706	0.000324	3.243022	1.098766	-0.000130
 632	6.2785e+01	14.8552	47.676554	0.000314	3.141678	1.064429	-0.000126
 633	6.2884e+01	14.8151	47.571589	0.000263	2.634956	0.892747	-0.000105
 634	6.2983e+01	14.7686	47.482772	0.000223	2.229578	0.755401	-0.000089
 635	6.3083e+01	14.7349	47.349547	0.000334	3.344367	1.133102	-0.000134
 636	6.3182e+01	14.7028	47.272841	0.000193	1.925545	0.652392	-0.000077
 637	6.3282e+01	14.6595	47.127504	0.000365	3.648400	1.236111	-0.000146
 638	6.3382e+01	14.6097	47.018501	0.000274	2.736300	0.927084	-0.000110
 639	6.3481e+01	14.5777	46.933722	0.000213	2.128233	0.721065	-0.000085
 640	6.3581e+01	14.5311	46.816645	0.000294	2.938989	0.995756	-0.000118
 641	6.3680e+01	14.4991	46.727828	0.000223	2.229578	0.755401	-0.000089
 642	6.3779e+01	14.4509	46.586528	0.000355	3.547056	1.201775	-0.000142
 643	6.3879e+01	14.4156	46.505785	0.000203	2.026889	0.686729	-0.000081
 644	6.3978e+01	14.3787	46.376597	0.000324	3.243022	1.098766	-0.000130
 645	6.4078e+01	14.3338	46.336225	0.000101	1.013445	0.343364	-0.000041
 646	6.4177e+01	14.2921	46.166666	0.000426	4.256467	1.442130	-0.000170
 647	6.4277e+01	14.2600	46.077849	0.000223	2.229578	0.755401	-0.000089
 648	6.4376e+01	14.2119	45.936549	0.000355	3.547056	1.201775	-0.000142
 649	6.4476e+01	14.1734	45.851769	0.000213	2.128233	0.721065	-0.000085
 650	6.4576e+01	14.1349	45.754878	0.000243	2.432267	0.824074	-0.000097
 651	6.4675e+01	14.0980	45.613578	0.000355	3.547056	1.201775	-0.000142
 652	6.4775e+01	14.0499	45.504575	0.000274	2.736300	0.927084	-0.000110
 653	6.4874e+01	14.0146	45.472278	0.000081	0.810756	0.274691	-0.000032
 654	6.4974e+01	13.9825	45.310793	0.000405	4.053778	1.373457	-0.000162
 655	6.5073e+01	13.9344	45.201790	0.000274	2.736300	0.927084	-0.000110
 656	6.5172e+01	13.9087	45.088750	0.000284	2.837645	0.961420	-0.000114
 657	6.5272e+01	13.8509	44.959562	0.000324	3.243022	1.098766	-0.000130
 658	6.5371e+01	13.8205	44.890931	0.000172	1.722856	0.583719	-0.000069
 659	6.5471e+01	13.7723	44.757705	0.000334	3.344367	1.133102	-0.000134
 660	6.5570e+01	13.7354	44.705223	0.000132	1.317478	0.446374	-0.000053
 661	6.5670e+01	13.7034	44.547774	0.000395	3.952434	1.339121	-0.000158
 662	6.5769e+01	13.6584	44.442809	0.000263	2.634956	0.892747	-0.000105
 663	6.5869e+01	13.6247	44.329769	0.000284	2.837645	0.961420	-0.000114
 664	6.5969e+01	13.5798	44.220766	0.000274	2.736300	0.927084	-0.000110
 665	6.6068e+01	13.5349	44.123875	0.000243	2.432267	0.824074	-0.000097
 666	6.6168e+01	13.4948	44.010835	0.000284	2.837645	0.961420	-0.000114
 667	6.6267e+01	13.4627	43.917981	0.000233	2.330922	0.789738	-0.000093
 668	6.6367e+01	13.4178	43.808978	0.000274	2.736300	0.927084	-0.000110
 669	6.6466e+01	13.3793	43.683827	0.000314	3.141678	1.064429	-0.000126
 670	6.6566e+01	13.3360	43.611159	0.000182	1.824200	0.618056	-0.000073
 671	6.6665e+01	13.2943	43.477933	0.000334	3.344367	1.133102	-0.000134
 672	6.6764e+01	13.2686	43.389116	0.000223	2.229578	0.755401	-0.000089
 673	6.6864e+01	13.2221	43.243779	0.000365	3.648400	1.236111	-0.000146
 674	6.6963e+01	13.1868	43.171111	0.000182	1.824200	0.618056	-0.000073
 675	6.7063e+01	13.1419	43.062108	0.000274	2.736300	0.927084	-0.000110
 676	6.7162e+01	13.1050	42.945031	0.000294	2.938989	0.995756	-0.000118
 677	6.7262e+01	13.0536	42.831992	0.000284	2.837645	0.961420	-0.000114
 678	6.7362e+01	13.0167	42.714915	0.000294	2.938989	0.995756	-0.000118
 679	6.7461e+01	12.9766	42.589763	0.000314	3.141678	1.064429	-0.000126
 680	6.7561e+01	12.9430	42.545355	0.000111	1.114789	0.377701	-0.000045
 681	6.7660e+01	12.9012	42.416167	0.000324	3.243022	1.098766	-0.000130
 682	6.7760e+01	12.8643	42.347535	0.000172	1.722856	0.583719	-0.000069
 683	6.7859e+01	12.8210	42.190087	0.000395	3.952434	1.339121	-0.000158
 684	6.7959e+01	12.7889	42.089159	0.000253	2.533611	0.858411	-0.000101
 685	6.8058e+01	12.7424	41.951896	0.000345	3.445711	1.167439	-0.000138
 686	6.8157e+01	12.7103	41.850968	0.000253	2.533611	0.858411	-0.000101
 687	6.8257e+01	12.6638	41.701594	0.000375	3.749745	1.270448	-0.000150
 688	6.8356e+01	12.6093	41.636999	0.000162	1.621511	0.549383	-0.000065
 689	6.8456e+01	12.5804	41.483588	0.000385	3.851089	1.304784	-0.000154
 690	6.8555e+01	12.5419	41.386697	0.000243	2.432267	0.824074	-0.000097
 691	6.8655e+01	12.5050	41.241360	0.000365	3.648400	1.236111	-0.000146
 692	6.8754e+01	12.4665	41.168692	0.000182	1.824200	0.618056	-0.000073
 693	6.8854e+01	12.4328	41.063726	0.000263	2.634956	0.892747	-0.000105
 694	6.8954e+01	12.3831	40.962798	0.000253	2.533611	0.858411	-0.000101
 695	6.9053e+01	12.3414	40.849758	0.000284	2.837645	0.961420	-0.000114
 696	6.9153e+01	12.3093	40.736718	0.000284	2.837645	0.961420	-0.000114
 697	6.9252e+01	12.2724	40.635790	0.000253	2.533611	0.858411	-0.000101
 698	6.9352e+01	12.2210	40.478341	0.000395	3.952434	1.339121	-0.000158
 699	6.9451e+01	12.1954	40.333005	0.000365	3.648400	1.236111	-0.000146
 700	6.9550e+01	12.1473	40.256299	0.000193	1.925545	0.652392	-0.000077
 701	6.9650e+01	12.1087	40.147296	0.000274	2.736300	0.927084	-0.000110
 702	6.9749e+01	12.0735	40.042331	0.000263	2.634956	0.892747	-0.000105
 703	6.9849e+01	12.0237	39.933328	0.000274	2.736300	0.927084	-0.000110
 704	6.9948e+01	11.9852	39.820288	0.000284	2.837645	0.961420	-0.000114
 705	7.0048e+01	11.9483	39.707249	0.000284	2.837645	0.961420	-0.000114
 706	7.0147e+01	11.8986	39.594209	0.000284	2.837645	0.961420	-0.000114
 707	7.0247e+01	11.8681	39.473095	0.000304	3.040334	1.030093	-0.000122
 708	7.0347e+01	11.8296	39.396389	0.000193	1.925545	0.652392	-0.000077
 709	7.0446e+01	11.7879	39.247015	0.000375	3.749745	1.270448	-0.000150
 710	7.0546e+01	11.7446	39.202607	0.000111	1.114789	0.377701	-0.000045
 711	7.0645e+01	11.7061	39.057270	0.000365	3.648400	1.236111	-0.000146
 712	7.0745e+01	11.6724	38.911933	0.000365	3.648400	1.236111	-0.000146
 713	7.0844e+01	11.6275	38.802930	0.000274	2.736300	0.927084	-0.000110
 714	7.0944e+01	11.5890	38.681816	0.000304	3.040334	1.030093	-0.000122
 715	7.1043e+01	11.5376	38.556665	0.000314	3.141678	1.064429	-0.000126
 716	7.1142e+01	11.5040	38.443625	0.000284	2.837645	0.961420	-0.000114
 717	7.1242e+01	11.4622	38.407291	0.000091	0.912100	0.309028	-0.000037
 718	7.1341e+01	11.4286	38.225620	0.000456	4.560500	1.545139	-0.000183
 719	7.1441e+01	11.3933	38.120654	0.000263	2.634956	0.892747	-0.000105
 720	7.1540e+01	11.3516	37.999540	0.000304	3.040334	1.030093	-0.000122
 721	7.1640e+01	11.3130	37.906686	0.000233	2.330922	0.789738	-0.000093
 722	7.1740e+01	11.2745	37.737126	0.000426	4.256467	1.442130	-0.000170
 723	7.1839e+01	11.2232	37.636198	0.000253	2.533611	0.858411	-0.000101
 724	7.1939e+01	11.1895	37.567567	0.000172	1.722856	0.583719	-0.000069
 725	7.2038e+01	11.1526	37.393970	0.000436	4.357811	1.476466	-0.000174
 726	7.2138e+01	11.1061	37.289004	0.000263	2.634956	0.892747	-0.000105
 727	7.2237e+01	11.0644	37.155779	0.000334	3.344367	1.133102	-0.000134
 728	7.2337e+01	11.0275	37.050813	0.000263	2.634956	0.892747	-0.000105
 729	7.2436e+01	10.9922	36.949885	0.000253	2.533611	0.858411	-0.000101
 730	7.2535e+01	10.9521	36.796474	0.000385	3.851089	1.304784	-0.000154
 731	7.2635e+01	10.9056	36.687471	0.000274	2.736300	0.927084	-0.000110
 732	7.2734e+01	10.8783	36.586543	0.000253	2.533611	0.858411	-0.000101
 733	7.2834e+01	10.8286	36.469466	0.000294	2.938989	0.995756	-0.000118
 734	7.2933e+01	10.7901	36.348352	0.000304	3.040334	1.030093	-0.000122
 735	7.3033e+01	10.7452	36.235312	0.000284	2.837645	0.961420	-0.000114
 736	7.3132e+01	10.7066	36.102086	0.000334	3.344367	1.133102	-0.000134
 737	7.3232e+01	10.6746	35.989047	0.000284	2.837645	0.961420	-0.000114
 738	7.3332e+01	10.6361	35.876007	0.000284	2.837645	0.961420	-0.000114
 739	7.3431e+01	10.5911	35.750856	0.000314	3.141678	1.064429	-0.000126
 740	7.3531e+01	10.5591	35.633779	0.000294	2.938989	0.995756	-0.000118
 741	7.3630e+01	10.5141	35.528813	0.000263	2.634956	0.892747	-0.000105
 742	7.3730e+01	10.4708	35.411736	0.000294	2.938989	0.995756	-0.000118
 743	7.3829e+01	10.4243	35.270436	0.000355	3.547056	1.201775	-0.000142
 744	7.3928e+01	10.3970	35.181619	0.000223	2.229578	0.755401	-0.000089
 745	7.4028e+01	10.3521	35.012060	0.000426	4.256467	1.442130	-0.000170
 746	7.4127e+01	10.3248	34.911131	0.000253	2.533611	0.858411	-0.000101
 747	7.4227e+01	10.2751	34.798091	0.000284	2.837645	0.961420	-0.000114
 748	7.4326e+01	10.2382	34.648717	0.000375	3.749745	1.270448	-0.000150
 749	7.4426e+01	10.1933	34.523566	0.000314	3.141678	1.064429	-0.000126
 750	7.4525e+01	10.1484	34.394378	0.000324	3.243022	1.098766	-0.000130
 751	7.4625e+01	10.1147	34.281338	0.000284	2.837645	0.961420	-0.000114
 752	7.4725e+01	10.0666	34.144076	0.000345	3.445711	1.167439	-0.000138
 753	7.4824e+01	10.0297	34.039110	0.000263	2.634956	0.892747	-0.000105
 754	7.4924e+01	9.9992	33.909922	0.000324	3.243022	1.098766	-0.000130
 755	7.5023e+01	9.9655	33.780733	0.000324	3.243022	1.098766	-0.000130
 756	7.5123e+01	9.9029	33.643471	0.000345	3.445711	1.167439	-0.000138
 757	7.5222e+01	9.8773	33.538505	0.000263	2.634956	0.892747	-0.000105
 758	7.5322e+01	9.8323	33.381057	0.000395	3.952434	1.339121	-0.000158
 759	7.5421e+01	9.7954	33.288203	0.000233	2.330922	0.789738	-0.000093
 760	7.5520e+01	9.7634	33.171126	0.000294	2.938989	0.995756	-0.000118
 761	7.5620e+01	9.7152	33.045975	0.000314	3.141678	1.064429	-0.000126
 762	7.5719e+01	9.6703	32.920823	0.000314	3.141678	1.064429	-0.000126
 763	7.5819e+01	9.6398	32.767412	0.000385	3.851089	1.304784	-0.000154
 764	7.5918e+01	9.5901	32.662447	0.000263	2.634956	0.892747	-0.000105
 765	7.6018e+01	9.5564	32.553444	0.000274	2.736300	0.927084	-0.000110
 766	7.6118e+01	9.5211	32.391959	0.000405	4.053778	1.373457	-0.000162
 767	7.6217e+01	9.4778	32.270845	0.000304	3.040334	1.030093	-0.000122
 768	7.6317e+01	9.4345	32.177990	0.000233	2.330922	0.789738	-0.000093
 769	7.6416e+01	9.3992	32.068988	0.000274	2.736300	0.927084	-0.000110
 770	7.6516e+01	9.3575	31.931725	0.000345	3.445711	1.167439	-0.000138
 771	7.6615e+01	9.3142	31.850982	0.000203	2.026889	0.686729	-0.000081
 772	7.6715e+01	9.2805	31.725831	0.000314	3.141678	1.064429	-0.000126
 773	7.6814e+01	9.2420	31.572420	0.000385	3.851089	1.304784	-0.000154
 774	7.6913e+01	9.2003	31.414972	0.000395	3.952434	1.339121	-0.000158
 775	7.7013e+01	9.1634	31.334229	0.000203	2.026889	0.686729	-0.000081
 776	7.7112e+01	9.1185	31.184855	0.000375	3.749745	1.270448	-0.000150
 777	7.7212e+01	9.0816	31.031444	0.000385	3.851089	1.304784	-0.000154
 778	7.7311e+01	9.0318	30.946664	0.000213	2.128233	0.721065	-0.000085
 779	7.7411e+01	8.9917	30.837661	0.000274	2.736300	0.927084	-0.000110
 780	7.7510e+01	8.9628	30.720584	0.000294	2.938989	0.995756	-0.000118
 781	7.7610e+01	8.9195	30.555062	0.000416	4.155123	1.407794	-0.000166
 782	7.7710e+01	8.8778	30.450096	0.000263	2.634956	0.892747	-0.000105
 783	7.7809e+01	8.8361	30.304759	0.000365	3.648400	1.236111	-0.000146
 784	7.7909e+01	8.8072	30.228054	0.000193	1.925545	0.652392	-0.000077
 785	7.8008e+01	8.7575	30.074643	0.000385	3.851089	1.304784	-0.000154
 786	7.8108e+01	8.7190	29.941417	0.000334	3.344367	1.133102	-0.000134
 787	7.8207e+01	8.6725	29.828377	0.000284	2.837645	0.961420	-0.000114
 788	7.8306e+01	8.6484	29.695152	0.000334	3.344367	1.133102	-0.000134
 789	7.8406e+01	8.5955	29.574038	0.000304	3.040334	1.030093	-0.000122
 790	7.8505e+01	8.5666	29.456961	0.000294	2.938989	0.995756	-0.000118
 791	7.8605e+01	8.5121	29.323735	0.000334	3.344367	1.133102	-0.000134
 792	7.8704e+01	8.4800	29.198584	0.000314	3.141678	1.064429	-0.000126
 793	7.8804e+01	8.4463	29.057284	0.000355	3.547056	1.201775	-0.000142
 794	7.8903e+01	8.4062	28.976542	0.000203	2.026889	0.686729	-0.000081
 795	7.9003e+01	8.3613	28.819093	0.000395	3.952434	1.339121	-0.000158
 796	7.9103e+01	8.3276	28.677794	0.000355	3.547056	1.201775	-0.000142
 797	7.9202e+01	8.2810	28.536494	0.000355	3.547056	1.201775	-0.000142
 798	7.9302e+01	8.2329	28.399231	0.000345	3.445711	1.167439	-0.000138
 799	7.9401e+01	8.2008	28.318489	0.000203	2.026889	0.686729	-0.000081
 800	7.9501e+01	8.1704	28.189300	0.000324	3.243022	1.098766	-0.000130
 801	7.9600e+01	8.1190	28.035889	0.000385	3.851089	1.304784	-0.000154
 802	7.9700e+01	8.0741	27.926886	0.000274	2.736300	0.927084	-0.000110
 803	7.9799e+01	8.0436	27.785587	0.000355	3.547056	1.201775	-0.000142
 804	7.9898e+01	8.0083	27.704844	0.000203	2.026889	0.686729	-0.000081
 805	7.9998e+01	7.9570	27.539321	0.000416	4.155123	1.407794	-0.000166
 806	8.0097e+01	7.9185	27.406096	0.000334	3.344367	1.133102	-0.000134
 807	8.0197e+01	7.8880	27.301130	0.000263	2.634956	0.892747	-0.000105
 808	8.0296e+01	7.8351	27.204239	0.000243	2.432267	0.824074	-0.000097
 809	8.0396e+01	7.8062	27.066977	0.000345	3.445711	1.167439	-0.000138
 810	8.0496e+01	7.7613	26.925677	0.000355	3.547056	1.201775	-0.000142
 811	8.0595e+01	7.7260	26.832823	0.000233	2.330922	0.789738	-0.000093
 812	8.0695e+01	7.6730	26.683449	0.000375	3.749745	1.270448	-0.000150
 813	8.0794e+01	7.6490	26.574446	0.000274	2.736300	0.927084	-0.000110
 814	8.0894e+01	7.6137	26.404886	0.000426	4.256467	1.442130	-0.000170
 815	8.0993e+01	7.5543	26.336255	0.000172	1.722856	0.583719	-0.000069
 816	8.1093e+01	7.5190	26.182844	0.000385	3.851089	1.304784	-0.000154
 817	8.1192e+01	7.4886	26.065767	0.000294	2.938989	0.995756	-0.000118
 818	8.1291e+01	7.4452	25.936579	0.000324	3.243022	1.098766	-0.000130
 819	8.1391e+01	7.4116	25.807390	0.000324	3.243022	1.098766	-0.000130
 820	8.1490e+01	7.3634	25.678202	0.000324	3.243022	1.098766	-0.000130
 821	8.1590e+01	7.3249	25.561125	0.000294	2.938989	0.995756	-0.000118
 822	8.1689e+01	7.2800	25.411751	0.000375	3.749745	1.270448	-0.000150
 823	8.1789e+01	7.2495	25.306785	0.000263	2.634956	0.892747	-0.000105
 824	8.1888e+01	7.2046	25.193746	0.000284	2.837645	0.961420	-0.000114
 825	8.1988e+01	7.1645	25.064557	0.000324	3.243022	1.098766	-0.000130
 826	8.2088e+01	7.1228	24.927295	0.000345	3.445711	1.167439	-0.000138
 827	8.2187e+01	7.0843	24.790032	0.000345	3.445711	1.167439	-0.000138
 828	8.2287e+01	7.0426	24.701215	0.000223	2.229578	0.755401	-0.000089
 829	8.2386e+01	7.0009	24.547804	0.000385	3.851089	1.304784	-0.000154
 830	8.2486e+01	6.9624	24.430727	0.000294	2.938989	0.995756	-0.000118
 831	8.2585e+01	6.9335	24.281353	0.000375	3.749745	1.270448	-0.000150
 832	8.2684e+01	6.8854	24.228870	0.000132	1.317478	0.446374	-0.000053
 833	8.2784e+01	6.8421	24.087570	0.000355	3.547056	1.201775	-0.000142
 834	8.2883e+01	6.8084	23.954345	0.000334	3.344367	1.133102	-0.000134
 835	8.2983e+01	6.7683	23.841305	0.000284	2.837645	0.961420	-0.000114
 836	8.3082e+01	6.7217	23.663671	0.000446	4.459156	1.510803	-0.000179
 837	8.3182e+01	6.6880	23.595040	0.000172	1.722856	0.583719	-0.000069
 838	8.3281e+01	6.6511	23.473926	0.000304	3.040334	1.030093	-0.000122
 839	8.3381e+01	6.6110	23.336663	0.000345	3.445711	1.167439	-0.000138
 840	8.3481e+01	6.5661	23.215549	0.000304	3.040334	1.030093	-0.000122
 841	8.3580e+01	6.5196	23.082324	0.000334	3.344367	1.133102	-0.000134
 842	8.3680e+01	6.4875	22.957172	0.000314	3.141678	1.064429	-0.000126
 843	8.3779e+01	6.4538	22.840095	0.000294	2.938989	0.995756	-0.000118
 844	8.3879e+01	6.4233	22.735130	0.000263	2.634956	0.892747	-0.000105
 845	8.3978e+01	6.3768	22.585756	0.000375	3.749745	1.270448	-0.000150
 846	8.4078e+01	6.3319	22.452530	0.000334	3.344367	1.133102	-0.000134
 847	8.4177e+01	6.2790	22.307194	0.000365	3.648400	1.236111	-0.000146
 848	8.4276e+01	6.2565	22.230488	0.000193	1.925545	0.652392	-0.000077
 849	8.4376e+01	6.2132	22.093225	0.000345	3.445711	1.167439	-0.000138
 850	8.4475e+01	6.1763	21.984223	0.000274	2.736300	0.927084	-0.000110
 851	8.4575e+01	6.1346	21.818700	0.000416	4.155123	1.407794	-0.000166
 852	8.4674e+01	6.0865	21.665289	0.000385	3.851089	1.304784	-0.000154
 853	8.4774e+01	6.0480	21.616843	0.000122	1.216133	0.412037	-0.000049
 854	8.4874e+01	6.0175	21.455358	0.000405	4.053778	1.373457	-0.000162
 855	8.4973e+01	5.9661	21.314058	0.000355	3.547056	1.201775	-0.000142
 856	8.5073e+01	5.9325	21.188907	0.000314	3.141678	1.064429	-0.000126
 857	8.5172e+01	5.8923	21.035496	0.000385	3.851089	1.304784	-0.000154
 858	8.5272e+01	5.8426	20.926493	0.000274	2.736300	0.927084	-0.000110
 859	8.5371e+01	5.8073	20.857862	0.000172	1.722856	0.583719	-0.000069
 860	8.5471e+01	5.7784	20.696376	0.000405	4.053778	1.373457	-0.000162
 861	8.5570e+01	5.7335	20.559114	0.000345	3.445711	1.167439	-0.000138
 862	8.5669e+01	5.6822	20.446074	0.000284	2.837645	0.961420	-0.000114
 863	8.5769e+01	5.6421	20.288626	0.000395	3.952434	1.339121	-0.000158
 864	8.5868e+01	5.6196	20.183660	0.000263	2.634956	0.892747	-0.000105
 865	8.5968e+01	5.5859	20.046398	0.000345	3.445711	1.167439	-0.000138
 866	8.6067e+01	5.5330	19.888949	0.000395	3.952434	1.339121	-0.000158
 867	8.6167e+01	5.4929	19.800132	0.000223	2.229578	0.755401	-0.000089
 868	8.6266e+01	5.4512	19.687092	0.000284	2.837645	0.961420	-0.000114
 869	8.6366e+01	5.4159	19.505421	0.000456	4.560500	1.545139	-0.000183
 870	8.6466e+01	5.3742	19.380270	0.000314	3.141678	1.064429	-0.000126
 871	8.6565e+01	5.3293	19.283379	0.000243	2.432267	0.824074	-0.000097
 872	8.6665e+01	5.2924	19.162265	0.000304	3.040334	1.030093	-0.000122
 873	8.6764e+01	5.2490	19.041151	0.000304	3.040334	1.030093	-0.000122
 874	8.6864e+01	5.2154	18.907925	0.000334	3.344367	1.133102	-0.000134
 875	8.6963e+01	5.1720	18.754514	0.000385	3.851089	1.304784	-0.000154
 876	8.7063e+01	5.1239	18.641474	0.000284	2.837645	0.961420	-0.000114
 877	8.7162e+01	5.1015	18.508249	0.000334	3.344367	1.133102	-0.000134
 878	8.7261e+01	5.0501	18.375023	0.000334	3.344367	1.133102	-0.000134
 879	8.7361e+01	5.0100	18.261984	0.000284	2.837645	0.961420	-0.000114
 880	8.7460e+01	4.9683	18.128758	0.000334	3.344367	1.133102	-0.000134
 881	8.7560e+01	4.9362	17.999570	0.000324	3.243022	1.098766	-0.000130
 882	8.7659e+01	4.9009	17.874418	0.000314	3.141678	1.064429	-0.000126
 883	8.7759e+01	4.8512	17.761379	0.000284	2.837645	0.961420	-0.000114
 884	8.7859e+01	4.8143	17.603930	0.000395	3.952434	1.339121	-0.000158
 885	8.7958e+01	4.7790	17.507039	0.000243	2.432267	0.824074	-0.000097
 886	8.8058e+01	4.7293	17.402074	0.000263	2.634956	0.892747	-0.000105
 887	8.8157e+01	4.6924	17.256737	0.000365	3.648400	1.236111	-0.000146
 888	8.8257e+01	4.6651	17.103326	0.000385	3.851089	1.304784	-0.000154
 889	8.8356e+01	4.6138	16.998360	0.000263	2.634956	0.892747	-0.000105
 890	8.8456e+01	4.5801	16.897432	0.000253	2.533611	0.858411	-0.000101
 891	8.8555e+01	4.5336	16.719798	0.000446	4.459156	1.510803	-0.000179
 892	8.8654e+01	4.4999	16.574461	0.000365	3.648400	1.236111	-0.000146
 893	8.8754e+01	4.4614	16.469495	0.000263	2.634956	0.892747	-0.000105
 894	8.8853e+01	4.4181	16.348381	0.000304	3.040334	1.030093	-0.000122
 895	8.8953e+01	4.3828	16.182859	0.000416	4.155123	1.407794	-0.000166
 896	8.9052e+01	4.3298	16.081930	0.000253	2.533611	0.858411	-0.000101
 897	8.9152e+01	4.2913	15.916408	0.000416	4.155123	1.407794	-0.000166
 898	8.9251e+01	4.2608	15.779145	0.000345	3.445711	1.167439	-0.000138
 899	8.9351e+01	4.2159	15.658031	0.000304	3.040334	1.030093	-0.000122
 900	8.9451e+01	4.1822	15.520768	0.000345	3.445711	1.167439	-0.000138
 901	8.9550e+01	4.1389	15.391580	0.000324	3.243022	1.098766	-0.000130
 902	8.9650e+01	4.0924	15.270466	0.000304	3.040334	1.030093	-0.000122
 903	8.9749e+01	4.0571	15.108980	0.000405	4.053778	1.373457	-0.000162
 904	8.9849e+01	4.0154	15.008052	0.000253	2.533611	0.858411	-0.000101
 905	8.9948e+01	3.9753	14.890975	0.000294	2.938989	0.995756	-0.000118
 906	9.0047e+01	3.9416	14.737564	0.000385	3.851089	1.304784	-0.000154
 907	9.0147e+01	3.8951	14.596264	0.000355	3.547056	1.201775	-0.000142
 908	9.0246e+01	3.8566	14.442853	0.000385	3.851089	1.304784	-0.000154
 909	9.0346e+01	3.8277	14.358073	0.000213	2.128233	0.721065	-0.000085
 910	9.0445e+01	3.7844	14.192551	0.000416	4.155123	1.407794	-0.000166
 911	9.0545e+01	3.7298	14.087585	0.000263	2.634956	0.892747	-0.000105
 912	9.0644e+01	3.7042	13.934174	0.000385	3.851089	1.304784	-0.000154
 913	9.0744e+01	3.6593	13.825171	0.000274	2.736300	0.927084	-0.000110
 914	9.0844e+01	3.6224	13.631389	0.000486	4.864534	1.648149	-0.000195
 915	9.0943e+01	3.5790	13.534498	0.000243	2.432267	0.824074	-0.000097
 916	9.1043e+01	3.5357	13.373012	0.000405	4.053778	1.373457	-0.000162
 917	9.1142e+01	3.5020	13.296307	0.000193	1.925545	0.652392	-0.000077
 918	9.1242e+01	3.4491	13.126747	0.000426	4.256467	1.442130	-0.000170
 919	9.1341e+01	3.4266	12.989484	0.000345	3.445711	1.167439	-0.000138
 920	9.1441e+01	3.3833	12.836073	0.000385	3.851089	1.304784	-0.000154
 921	9.1540e+01	3.3416	12.714959	0.000304	3.040334	1.030093	-0.000122
 922	9.1639e+01	3.3015	12.585771	0.000324	3.243022	1.098766	-0.000130
 923	9.1739e+01	3.2598	12.460619	0.000314	3.141678	1.064429	-0.000126
 924	9.1838e+01	3.2149	12.311245	0.000375	3.749745	1.270448	-0.000150
 925	9.1938e+01	3.1764	12.141686	0.000426	4.256467	1.442130	-0.000170
 926	9.2037e+01	3.1427	11.992312	0.000375	3.749745	1.270448	-0.000150
 927	9.2137e+01	3.1042	11.867161	0.000314	3.141678	1.064429	-0.000126
 928	9.2237e+01	3.0641	11.778344	0.000223	2.229578	0.755401	-0.000089
 929	9.2336e+01	3.0208	11.649155	0.000324	3.243022	1.098766	-0.000130
 930	9.2436e+01	2.9871	11.475558	0.000436	4.357811	1.476466	-0.000174
 931	9.2535e+01	2.9534	11.338296	0.000345	3.445711	1.167439	-0.000138
 932	9.2635e+01	2.9021	11.249479	0.000223	2.229578	0.755401	-0.000089
 933	9.2734e+01	2.8700	11.051659	0.000497	4.965878	1.682485	-0.000199
 934	9.2834e+01	2.8251	10.930545	0.000304	3.040334	1.030093	-0.000122
 935	9.2933e+01	2.7833	10.817505	0.000284	2.837645	0.961420	-0.000114
 936	9.3032e+01	2.7481	10.692354	0.000314	3.141678	1.064429	-0.000126
 937	9.3132e+01	2.7031	10.559129	0.000334	3.344367	1.133102	-0.000134
 938	9.3231e+01	2.6694	10.433977	0.000314	3.141678	1.064429	-0.000126
 939	9.3331e+01	2.6181	10.280566	0.000385	3.851089	1.304784	-0.000154
 940	9.3430e+01	2.5860	10.167526	0.000284	2.837645	0.961420	-0.000114
 941	9.3530e+01	2.5411	9.997967	0.000426	4.256467	1.442130	-0.000170
 942	9.3629e+01	2.5058	9.840518	0.000395	3.952434	1.339121	-0.000158
 943	9.3729e+01	2.4657	9.747664	0.000233	2.330922	0.789738	-0.000093
 944	9.3829e+01	2.4224	9.622513	0.000314	3.141678	1.064429	-0.000126
 945	9.3928e+01	2.3871	9.465065	0.000395	3.952434	1.339121	-0.000158
 946	9.4028e+01	2.3422	9.331839	0.000334	3.344367	1.133102	-0.000134
 947	9.4127e+01	2.3037	9.202651	0.000324	3.243022	1.098766	-0.000130
 948	9.4227e+01	2.2668	9.061351	0.000355	3.547056	1.201775	-0.000142
 949	9.4326e+01	2.2138	8.960423	0.000253	2.533611	0.858411	-0.000101
 950	9.4425e+01	2.1898	8.802974	0.000395	3.952434	1.339121	-0.000158
 951	9.4525e+01	2.1336	8.669749	0.000334	3.344367	1.133102	-0.000134
 952	9.4624e+01	2.1048	8.536524	0.000334	3.344367	1.133102	-0.000134
 953	9.4724e+01	2.0743	8.375038	0.000405	4.053778	1.373457	-0.000162
 954	9.4823e+01	2.0245	8.253924	0.000304	3.040334	1.030093	-0.000122
 955	9.4923e+01	1.9828	8.148958	0.000263	2.634956	0.892747	-0.000105
 956	9.5022e+01	1.9363	7.967287	0.000456	4.560500	1.545139	-0.000183
 957	9.5122e+01	1.9106	7.878470	0.000223	2.229578	0.755401	-0.000089
 958	9.5222e+01	1.8625	7.692762	0.000466	4.661845	1.579476	-0.000187
 959	9.5321e+01	1.8256	7.571648	0.000304	3.040334	1.030093	-0.000122
 960	9.5421e+01	1.7903	7.426311	0.000365	3.648400	1.236111	-0.000146
 961	9.5520e+01	1.7534	7.256751	0.000426	4.256467	1.442130	-0.000170
 962	9.5620e+01	1.7069	7.151786	0.000263	2.634956	0.892747	-0.000105
 963	9.5719e+01	1.6668	7.014523	0.000345	3.445711	1.167439	-0.000138
 964	9.5819e+01	1.6267	6.861112	0.000385	3.851089	1.304784	-0.000154
 965	9.5918e+01	1.5898	6.792481	0.000172	1.722856	0.583719	-0.000069
 966	9.6017e+01	1.5577	6.594661	0.000497	4.965878	1.682485	-0.000199
 967	9.6117e+01	1.5064	6.453361	0.000355	3.547056	1.201775	-0.000142
 968	9.6216e+01	1.4631	6.336285	0.000294	2.938989	0.995756	-0.000118
 969	9.6316e+01	1.4358	6.190948	0.000365	3.648400	1.236111	-0.000146
 970	9.6415e+01	1.3925	6.081945	0.000274	2.736300	0.927084	-0.000110
 971	9.6515e+01	1.3508	5.944682	0.000345	3.445711	1.167439	-0.000138
 972	9.6615e+01	1.3042	5.795308	0.000375	3.749745	1.270448	-0.000150
 973	9.6714e+01	1.2722	5.649971	0.000365	3.648400	1.236111	-0.000146
 974	9.6814e+01	1.2176	5.532895	0.000294	2.938989	0.995756	-0.000118
 975	9.6913e+01	1.1871	5.395632	0.000345	3.445711	1.167439	-0.000138
 976	9.7013e+01	1.1438	5.246258	0.000375	3.749745	1.270448	-0.000150
 977	9.7112e+01	1.1133	5.145329	0.000253	2.533611	0.858411	-0.000101
 978	9.7212e+01	1.0668	4.995955	0.000375	3.749745	1.270448	-0.000150
 979	9.7311e+01	1.0251	4.842544	0.000385	3.851089	1.304784	-0.000154
 980	9.7410e+01	0.9946	4.713356	0.000324	3.243022	1.098766	-0.000130
 981	9.7510e+01	0.9497	4.604353	0.000274	2.736300	0.927084	-0.000110
 982	9.7609e+01	0.9032	4.442868	0.000405	4.053778	1.373457	-0.000162
 983	9.7709e+01	0.8631	4.309642	0.000334	3.344367	1.133102	-0.000134
 984	9.7808e+01	0.8390	4.228900	0.000203	2.026889	0.686729	-0.000081
 985	9.7908e+01	0.7893	4.047229	0.000456	4.560500	1.545139	-0.000183
 986	9.8007e+01	0.7460	3.918040	0.000324	3.243022	1.098766	-0.000130
 987	9.8107e+01	0.7091	3.796926	0.000304	3.040334	1.030093	-0.000122
 988	9.8207e+01	0.6738	3.643515	0.000385	3.851089	1.304784	-0.000154
 989	9.8306e+01	0.6208	3.526438	0.000294	2.938989	0.995756	-0.000118
 990	9.8406e+01	0.5823	3.373027	0.000385	3.851089	1.304784	-0.000154
 991	9.8505e+01	0.5454	3.247876	0.000314	3.141678	1.064429	-0.000126
 992	9.8605e+01	0.5021	3.146947	0.000253	2.533611	0.858411	-0.000101
 993	9.8704e+01	0.4716	2.961239	0.000466	4.661845	1.579476	-0.000187
 994	9.8803e+01	0.4299	2.868385	0.000233	2.330922	0.789738	-0.000093
 995	9.8903e+01	0.3946	2.702862	0.000416	4.155123	1.407794	-0.000166
 996	9.9002e+01	0.3497	2.549451	0.000385	3.851089	1.304784	-0.000154
 997	9.9102e+01	0.3064	2.448523	0.000253	2.533611	0.858411	-0.000101
 998	9.9201e+01	0.2679	2.355669	0.000233	2.330922	0.789738	-0.000093
 999	9.9301e+01	0.2358	2.214369	0.000355	3.547056	1.201775	-0.000142
1000	9.9400e+01	0.1909	2.032698	0.000456	4.560500	1.545139	-0.000183
1001	9.9500e+01	0.1604	1.935807	0.000243	2.432267	0.824074	-0.000097
1002	9.9600e+01	0.1171	1.778358	0.000395	3.952434	1.339121	-0.000158
1003	9.9699e+01	0.0658	1.665318	0.000284	2.837645	0.961420	-0.000114
1004	9.9799e+01	0.0257	1.560353	0.000263	2.634956	0.892747	-0.000105
1005	9.9898e+01	0.0016	1.435202	0.000314	3.141678	1.064429	-0.000126
1006	9.9998e+01	-0.0385	1.289865	0.000365	3.648400	1.236111	-0.000146
1007	1.0010e+02	-0.0770	1.201048	0.000223	2.229578	0.755401	-0.000089
1008	1.0020e+02	-0.1171	1.031488	0.000426	4.256467	1.442130	-0.000170
1009	1.0030e+02	-0.1556	0.878077	0.000385	3.851089	1.304784	-0.000154
1010	1.0040e+02	-0.2021	0.756963	0.000304	3.040334	1.030093	-0.000122
1011	1.0050e+02	-0.2471	0.651997	0.000263	2.634956	0.892747	-0.000105
1012	1.0059e+02	-0.2695	0.542995	0.000274	2.736300	0.927084	-0.000110
1013	1.0069e+02	-0.3289	0.365361	0.000446	4.459156	1.510803	-0.000179
1014	1.0079e+02	-0.3642	0.256358	0.000274	2.736300	0.927084	-0.000110
1015	1.0089e+02	-0.4027	0.098910	0.000395	3.952434	1.339121	-0.000158
1016	1.0099e+02	-0.4283	0.002019	0.000243	2.432267	0.824074	-0.000097
1017	1.0109e+02	-0.4845	-0.175615	0.000446	4.459156	1.510803	-0.000179
1018	1.0119e+02	-0.5166	-0.236172	0.000152	1.520167	0.515046	-0.000061
1019	1.0129e+02	-0.5615	-0.393621	0.000395	3.952434	1.339121	-0.000158
1020	1.0139e+02	-0.6048	-0.526846	0.000334	3.344367	1.133102	-0.000134
1021	1.0149e+02	-0.6433	-0.676220	0.000375	3.749745	1.270448	-0.000150
1022	1.0159e+02	-0.6754	-0.853854	0.000446	4.459156	1.510803	-0.000179
1023	1.0169e+02	-0.7123	-0.946708	0.000233	2.330922	0.789738	-0.000093
1024	1.0179e+02	-0.7572	-1.092045	0.000365	3.648400	1.236111	-0.000146
1025	1.0189e+02	-0.7973	-1.192974	0.000253	2.533611	0.858411	-0.000101
1026	1.0199e+02	-0.8374	-1.334273	0.000355	3.547056	1.201775	-0.000142
1027	1.0209e+02	-0.8727	-1.459425	0.000314	3.141678	1.064429	-0.000126
1028	1.0219e+02	-0.9144	-1.604761	0.000365	3.648400	1.236111	-0.000146
1029	1.0229e+02	-0.9561	-1.725876	0.000304	3.040334	1.030093	-0.000122
1030	1.0239e+02	-0.9882	-1.887361	0.000405	4.053778	1.373457	-0.000162
1031	1.0248e+02	-1.0379	-1.996364	0.000274	2.736300	0.927084	-0.000110
1032	1.0258e+02	-1.0764	-2.133626	0.000345	3.445711	1.167439	-0.000138
1033	1.0268e+02	-1.1198	-2.278963	0.000365	3.648400	1.236111	-0.000146
1034	1.0278e+02	-1.1518	-2.440449	0.000405	4.053778	1.373457	-0.000162
1035	1.0288e+02	-1.1935	-2.492931	0.000132	1.317478	0.446374	-0.000053
1036	1.0298e+02	-1.2321	-2.638268	0.000365	3.648400	1.236111	-0.000146
1037	1.0308e+02	-1.2722	-2.775531	0.000345	3.445711	1.167439	-0.000138
1038	1.0318e+02	-1.3139	-2.953165	0.000446	4.459156	1.510803	-0.000179
1039	1.0328e+02	-1.3556	-3.074279	0.000304	3.040334	1.030093	-0.000122
1040	1.0338e+02	-1.4021	-3.227690	0.000385	3.851089	1.304784	-0.000154
1041	1.0348e+02	-1.4390	-3.320544	0.000233	2.330922	0.789738	-0.000093
1042	1.0358e+02	-1.4855	-3.469918	0.000375	3.749745	1.270448	-0.000150
1043	1.0368e+02	-1.5240	-3.578921	0.000274	2.736300	0.927084	-0.000110
1044	1.0378e+02	-1.5545	-3.720221	0.000355	3.547056	1.201775	-0.000142
1045	1.0388e+02	-1.5994	-3.849409	0.000324	3.243022	1.098766	-0.000130
1046	1.0398e+02	-1.6331	-3.978597	0.000324	3.243022	1.098766	-0.000130
1047	1.0408e+02	-1.6780	-4.123934	0.000365	3.648400	1.236111	-0.000146
1048	1.0418e+02	-1.7149	-4.269271	0.000365	3.648400	1.236111	-0.000146
1049	1.0428e+02	-1.7470	-4.382311	0.000284	2.837645	0.961420	-0.000114
1050	1.0438e+02	-1.7999	-4.523611	0.000355	3.547056	1.201775	-0.000142
1051	1.0447e+02	-1.8272	-4.685096	0.000405	4.053778	1.373457	-0.000162
1052	1.0457e+02	-1.8641	-4.769876	0.000213	2.128233	0.721065	-0.000085
1053	1.0467e+02	-1.9090	-4.939436	0.000426	4.256467	1.442130	-0.000170
1054	1.0477e+02	-1.9524	-5.056513	0.000294	2.938989	0.995756	-0.000118
1055	1.0487e+02	-1.9860	-5.193775	0.000345	3.445711	1.167439	-0.000138
1056	1.0497e+02	-2.0278	-5.318926	0.000314	3.141678	1.064429	-0.000126
1057	1.0507e+02	-2.0791	-5.419855	0.000253	2.533611	0.858411	-0.000101
1058	1.0517e+02	-2.1112	-5.557117	0.000345	3.445711	1.167439	-0.000138
1059	1.0527e+02	-2.1497	-5.722640	0.000416	4.155123	1.407794	-0.000166
1060	1.0537e+02	-2.1850	-5.843754	0.000304	3.040334	1.030093	-0.000122
1061	1.0547e+02	-2.2347	-5.997165	0.000385	3.851089	1.304784	-0.000154
1062	1.0557e+02	-2.2732	-6.122316	0.000314	3.141678	1.064429	-0.000126
1063	1.0567e+02	-2.3165	-6.231319	0.000274	2.736300	0.927084	-0.000110
1064	1.0577e+02	-2.3470	-6.372619	0.000355	3.547056	1.201775	-0.000142
1065	1.0587e+02	-2.3855	-6.509881	0.000345	3.445711	1.167439	-0.000138
1066	1.0597e+02	-2.4336	-6.655218	0.000365	3.648400	1.236111	-0.000146
1067	1.0607e+02	-2.4689	-6.804592	0.000375	3.749745	1.270448	-0.000150
1068	1.0617e+02	-2.5090	-6.921669	0.000294	2.938989	0.995756	-0.000118
1069	1.0627e+02	-2.5571	-7.058932	0.000345	3.445711	1.167439	-0.000138
1070	1.0637e+02	-2.5973	-7.212343	0.000385	3.851089	1.304784	-0.000154
1071	1.0647e+02	-2.6325	-7.349606	0.000345	3.445711	1.167439	-0.000138
1072	1.0656e+02	-2.6678	-7.434385	0.000213	2.128233	0.721065	-0.000085
1073	1.0666e+02	-2.7128	-7.612019	0.000446	4.459156	1.510803	-0.000179
1074	1.0676e+02	-2.7625	-7.741208	0.000324	3.243022	1.098766	-0.000130
1075	1.0686e+02	-2.7849	-7.882508	0.000355	3.547056	1.201775	-0.000142
1076	1.0696e+02	-2.8347	-8.007659	0.000314	3.141678	1.064429	-0.000126
1077	1.0706e+02	-2.8700	-8.189330	0.000456	4.560500	1.545139	-0.000183
1078	1.0716e+02	-2.9037	-8.261998	0.000182	1.824200	0.618056	-0.000073
1079	1.0726e+02	-2.9502	-8.439632	0.000446	4.459156	1.510803	-0.000179
1080	1.0736e+02	-2.9839	-8.548635	0.000274	2.736300	0.927084	-0.000110
1081	1.0746e+02	-3.0400	-8.689935	0.000355	3.547056	1.201775	-0.000142
1082	1.0756e+02	-3.0785	-8.802974	0.000284	2.837645	0.961420	-0.000114
1083	1.0766e+02	-3.0978	-8.972534	0.000426	4.256467	1.442130	-0.000170
1084	1.0776e+02	-3.1507	-9.105760	0.000334	3.344367	1.133102	-0.000134
1085	1.0786e+02	-3.1892	-9.218799	0.000284	2.837645	0.961420	-0.000114
1086	1.0796e+02	-3.2293	-9.388359	0.000426	4.256467	1.442130	-0.000170
1087	1.0806e+02	-3.2742	-9.485250	0.000243	2.432267	0.824074	-0.000097
1088	1.0816e+02	-3.3031	-9.630587	0.000365	3.648400	1.236111	-0.000146
1089	1.0826e+02	-3.3496	-9.788036	0.000395	3.952434	1.339121	-0.000158
1090	1.0836e+02	-3.3849	-9.913187	0.000314	3.141678	1.064429	-0.000126
1091	1.0845e+02	-3.4202	-10.046412	0.000334	3.344367	1.133102	-0.000134
1092	1.0855e+02	-3.4587	-10.215972	0.000426	4.256467	1.442130	-0.000170
1093	1.0865e+02	-3.5004	-10.312863	0.000243	2.432267	0.824074	-0.000097
1094	1.0875e+02	-3.5502	-10.466274	0.000385	3.851089	1.304784	-0.000154
1095	1.0885e+02	-3.5871	-10.635834	0.000426	4.256467	1.442130	-0.000170
1096	1.0895e+02	-3.6240	-10.728688	0.000233	2.330922	0.789738	-0.000093
1097	1.0905e+02	-3.6657	-10.874025	0.000365	3.648400	1.236111	-0.000146
1098	1.0915e+02	-3.7042	-11.019362	0.000365	3.648400	1.236111	-0.000146
1099	1.0925e+02	-3.7459	-11.128365	0.000274	2.736300	0.927084	-0.000110
1100	1.0935e+02	-3.7892	-11.281776	0.000385	3.851089	1.304784	-0.000154
1101	1.0945e+02	-3.8293	-11.390778	0.000274	2.736300	0.927084	-0.000110
1102	1.0955e+02	-3.8646	-11.552264	0.000405	4.053778	1.373457	-0.000162
1103	1.0965e+02	-3.9063	-11.669341	0.000294	2.938989	0.995756	-0.000118
1104	1.0975e+02	-3.9384	-11.822752	0.000385	3.851089	1.304784	-0.000154
1105	1.0985e+02	-3.9833	-11.923680	0.000253	2.533611	0.858411	-0.000101
1106	1.0995e+02	-4.0282	-12.093240	0.000426	4.256467	1.442130	-0.000170
1107	1.1005e+02	-4.0699	-12.242614	0.000375	3.749745	1.270448	-0.000150
1108	1.1015e+02	-4.1052	-12.335468	0.000233	2.330922	0.789738	-0.000093
1109	1.1025e+02	-4.1453	-12.509065	0.000436	4.357811	1.476466	-0.000174
1110	1.1035e+02	-4.1870	-12.609993	0.000253	2.533611	0.858411	-0.000101
1111	1.1044e+02	-4.2304	-12.743219	0.000334	3.344367	1.133102	-0.000134
1112	1.1054e+02	-4.2689	-12.928927	0.000466	4.661845	1.579476	-0.000187
1113	1.1064e+02	-4.2913	-13.009670	0.000203	2.026889	0.686729	-0.000081
1114	1.1074e+02	-4.3459	-13.110598	0.000253	2.533611	0.858411	-0.000101
1115	1.1084e+02	-4.3747	-13.264009	0.000385	3.851089	1.304784	-0.000154
1116	1.1094e+02	-4.4277	-13.393198	0.000324	3.243022	1.098766	-0.000130
1117	1.1104e+02	-4.4678	-13.518349	0.000314	3.141678	1.064429	-0.000126
1118	1.1114e+02	-4.5047	-13.675797	0.000395	3.952434	1.339121	-0.000158
1119	1.1124e+02	-4.5400	-13.825171	0.000375	3.749745	1.270448	-0.000150
1120	1.1134e+02	-4.5897	-13.950323	0.000314	3.141678	1.064429	-0.000126
1121	1.1144e+02	-4.6202	-14.079511	0.000324	3.243022	1.098766	-0.000130
1122	1.1154e+02	-4.6635	-14.180439	0.000253	2.533611	0.858411	-0.000101
1123	1.1164e+02	-4.7036	-14.341925	0.000405	4.053778	1.373457	-0.000162
1124	1.1174e+02	-4.7325	-14.507447	0.000416	4.155123	1.407794	-0.000166
1125	1.1184e+02	-4.7758	-14.624524	0.000294	2.938989	0.995756	-0.000118
1126	1.1194e+02	-4.8207	-14.753713	0.000324	3.243022	1.098766	-0.000130
1127	1.1204e+02	-4.8640	-14.870789	0.000294	2.938989	0.995756	-0.000118
1128	1.1214e+02	-4.8961	-15.004015	0.000334	3.344367	1.133102	-0.000134
1129	1.1224e+02	-4.9442	-15.145315	0.000355	3.547056	1.201775	-0.000142
1130	1.1234e+02	-4.9827	-15.258355	0.000284	2.837645	0.961420	-0.000114
1131	1.1244e+02	-5.0277	-15.407729	0.000375	3.749745	1.270448	-0.000150
1132	1.1253e+02	-5.0598	-15.492508	0.000213	2.128233	0.721065	-0.000085
1133	1.1263e+02	-5.0999	-15.678217	0.000466	4.661845	1.579476	-0.000187
1134	1.1273e+02	-5.1480	-15.783182	0.000263	2.634956	0.892747	-0.000105
1135	1.1283e+02	-5.1817	-15.972928	0.000476	4.763189	1.613812	-0.000191
1136	1.1293e+02	-5.2186	-16.114227	0.000355	3.547056	1.201775	-0.000142
1137	1.1303e+02	-5.2619	-16.219193	0.000263	2.634956	0.892747	-0.000105
1138	1.1313e+02	-5.2988	-16.291861	0.000182	1.824200	0.618056	-0.000073
1139	1.1323e+02	-5.3469	-16.453347	0.000405	4.053778	1.373457	-0.000162
1140	1.1333e+02	-5.3774	-16.586572	0.000334	3.344367	1.133102	-0.000134
1141	1.1343e+02	-5.4255	-16.715761	0.000324	3.243022	1.098766	-0.000130
1142	1.1353e+02	-5.4512	-16.832837	0.000294	2.938989	0.995756	-0.000118
1143	1.1363e+02	-5.5041	-16.978174	0.000365	3.648400	1.236111	-0.000146
1144	1.1373e+02	-5.5378	-17.119474	0.000355	3.547056	1.201775	-0.000142
1145	1.1383e+02	-5.5795	-17.216365	0.000243	2.432267	0.824074	-0.000097
1146	1.1393e+02	-5.6100	-17.389962	0.000436	4.357811	1.476466	-0.000174
1147	1.1403e+02	-5.6613	-17.490891	0.000253	2.533611	0.858411	-0.000101
1148	1.1413e+02	-5.6902	-17.624116	0.000334	3.344367	1.133102	-0.000134
1149	1.1423e+02	-5.7448	-17.765416	0.000355	3.547056	1.201775	-0.000142
1150	1.1433e+02	-5.7833	-17.902678	0.000345	3.445711	1.167439	-0.000138
1151	1.1442e+02	-5.8202	-18.023793	0.000304	3.040334	1.030093	-0.000122
1152	1.1452e+02	-5.8635	-18.104535	0.000203	2.026889	0.686729	-0.000081
1153	1.1462e+02	-5.9052	-18.274095	0.000426	4.256467	1.442130	-0.000170
1154	1.1472e+02	-5.9485	-18.366949	0.000233	2.330922	0.789738	-0.000093
1155	1.1482e+02	-5.9806	-18.516323	0.000375	3.749745	1.270448	-0.000150
1156	1.1492e+02	-6.0239	-18.641474	0.000314	3.141678	1.064429	-0.000126
1157	1.1502e+02	-6.0624	-18.758551	0.000294	2.938989	0.995756	-0.000118
1158	1.1512e+02	-6.0977	-18.911962	0.000385	3.851089	1.304784	-0.000154
1159	1.1522e+02	-6.1346	-19.037114	0.000314	3.141678	1.064429	-0.000126
1160	1.1532e+02	-6.1827	-19.198599	0.000405	4.053778	1.373457	-0.000162
1161	1.1542e+02	-6.2116	-19.283379	0.000213	2.128233	0.721065	-0.000085
1162	1.1552e+02	-6.2613	-19.396419	0.000284	2.837645	0.961420	-0.000114
1163	1.1562e+02	-6.2854	-19.557904	0.000405	4.053778	1.373457	-0.000162
1164	1.1572e+02	-6.3383	-19.658832	0.000253	2.533611	0.858411	-0.000101
1165	1.1582e+02	-6.3752	-19.796095	0.000345	3.445711	1.167439	-0.000138
1166	1.1592e+02	-6.4153	-19.892986	0.000243	2.432267	0.824074	-0.000097
1167	1.1602e+02	-6.4506	-20.030249	0.000345	3.445711	1.167439	-0.000138
1168	1.1612e+02	-6.4939	-20.175586	0.000365	3.648400	1.236111	-0.000146
1169	1.1622e+02	-6.5308	-20.308811	0.000334	3.344367	1.133102	-0.000134
1170	1.1632e+02	-6.5758	-20.393591	0.000213	2.128233	0.721065	-0.000085
1171	1.1642e+02	-6.6078	-20.526817	0.000334	3.344367	1.133102	-0.000134
1172	1.1651e+02	-6.6592	-20.684265	0.000395	3.952434	1.339121	-0.000158
1173	1.1661e+02	-6.6897	-20.789230	0.000263	2.634956	0.892747	-0.000105
1174	1.1671e+02	-6.7282	-20.890159	0.000253	2.533611	0.858411	-0.000101
1175	1.1681e+02	-6.7843	-20.987050	0.000243	2.432267	0.824074	-0.000097
1176	1.1691e+02	-6.8100	-21.128350	0.000355	3.547056	1.201775	-0.000142
1177	1.1701e+02	-6.8517	-21.265613	0.000345	3.445711	1.167439	-0.000138
1178	1.1711e+02	-6.8886	-21.414987	0.000375	3.749745	1.270448	-0.000150
1179	1.1721e+02	-6.9287	-21.515915	0.000253	2.533611	0.858411	-0.000101
1180	1.1731e+02	-6.9624	-21.628955	0.000284	2.837645	0.961420	-0.000114
1181	1.1741e+02	-7.0249	-21.778329	0.000375	3.749745	1.270448	-0.000150
1182	1.1751e+02	-7.0538	-21.875220	0.000243	2.432267	0.824074	-0.000097
1183	1.1761e+02	-7.0923	-22.004408	0.000324	3.243022	1.098766	-0.000130
1184	1.1771e+02	-7.1212	-22.133597	0.000324	3.243022	1.098766	-0.000130
1185	1.1781e+02	-7.1645	-22.278934	0.000365	3.648400	1.236111	-0.000146
1186	1.1791e+02	-7.2174	-22.383899	0.000263	2.634956	0.892747	-0.000105
1187	1.1801e+02	-7.2495	-22.521162	0.000345	3.445711	1.167439	-0.000138
1188	1.1811e+02	-7.2944	-22.638239	0.000294	2.938989	0.995756	-0.000118
1189	1.1821e+02	-7.3362	-22.787613	0.000375	3.749745	1.270448	-0.000150
1190	1.1831e+02	-7.3747	-22.876430	0.000223	2.229578	0.755401	-0.000089
1191	1.1841e+02	-7.4116	-22.989469	0.000284	2.837645	0.961420	-0.000114
1192	1.1850e+02	-7.4501	-23.086361	0.000243	2.432267	0.824074	-0.000097
1193	1.1860e+02	-7.4886	-23.247846	0.000405	4.053778	1.373457	-0.000162
1194	1.1870e+02	-7.5239	-23.393183	0.000365	3.648400	1.236111	-0.000146
1195	1.1880e+02	-7.5672	-23.522371	0.000324	3.243022	1.098766	-0.000130
1196	1.1890e+02	-7.6105	-23.647523	0.000314	3.141678	1.064429	-0.000126
1197	1.1900e+02	-7.6442	-23.728265	0.000203	2.026889	0.686729	-0.000081
1198	1.1910e+02	-7.6923	-23.869565	0.000355	3.547056	1.201775	-0.000142
1199	1.1920e+02	-7.7308	-23.974531	0.000263	2.634956	0.892747	-0.000105
1200	1.1930e+02	-7.7661	-24.107756	0.000334	3.344367	1.133102	-0.000134
1201	1.1940e+02	-7.8158	-24.236944	0.000324	3.243022	1.098766	-0.000130
1202	1.1950e+02	-7.8511	-24.378244	0.000355	3.547056	1.201775	-0.000142
1203	1.1960e+02	-7.8848	-24.491284	0.000284	2.837645	0.961420	-0.000114
1204	1.1970e+02	-7.9089	-24.608361	0.000294	2.938989	0.995756	-0.000118
1205	1.1980e+02	-7.9682	-24.737549	0.000324	3.243022	1.098766	-0.000130
1206	1.1990e+02	-8.0083	-24.842515	0.000263	2.634956	0.892747	-0.000105
1207	1.2000e+02	-8.0516	-24.995926	0.000385	3.851089	1.304784	-0.000154
1208	1.2010e+02	-8.0934	-25.100891	0.000263	2.634956	0.892747	-0.000105
1209	1.2020e+02	-8.1222	-25.238154	0.000345	3.445711	1.167439	-0.000138
1210	1.2030e+02	-8.1639	-25.371380	0.000334	3.344367	1.133102	-0.000134
1211	1.2039e+02	-8.2073	-25.468271	0.000243	2.432267	0.824074	-0.000097
1212	1.2049e+02	-8.2506	-25.601496	0.000334	3.344367	1.133102	-0.000134
1213	1.2059e+02	-8.2859	-25.690313	0.000223	2.229578	0.755401	-0.000089
1214	1.2069e+02	-8.3308	-25.859873	0.000426	4.256467	1.442130	-0.000170
1215	1.2079e+02	-8.3661	-26.001173	0.000355	3.547056	1.201775	-0.000142
1216	1.2089e+02	-8.4126	-26.085953	0.000213	2.128233	0.721065	-0.000085
1217	1.2099e+02	-8.4399	-26.211104	0.000314	3.141678	1.064429	-0.000126
1218	1.2109e+02	-8.4848	-26.344329	0.000334	3.344367	1.133102	-0.000134
1219	1.2119e+02	-8.5249	-26.437183	0.000233	2.330922	0.789738	-0.000093
1220	1.2129e+02	-8.5698	-26.598669	0.000405	4.053778	1.373457	-0.000162
1221	1.2139e+02	-8.6035	-26.671337	0.000182	1.824200	0.618056	-0.000073
1222	1.2149e+02	-8.6436	-26.820711	0.000375	3.749745	1.270448	-0.000150
1223	1.2159e+02	-8.6789	-26.949900	0.000324	3.243022	1.098766	-0.000130
1224	1.2169e+02	-8.7238	-27.046791	0.000243	2.432267	0.824074	-0.000097
1225	1.2179e+02	-8.7768	-27.200202	0.000385	3.851089	1.304784	-0.000154
1226	1.2189e+02	-8.7992	-27.325353	0.000314	3.141678	1.064429	-0.000126
1227	1.2199e+02	-8.8361	-27.462616	0.000345	3.445711	1.167439	-0.000138
1228	1.2209e+02	-8.8778	-27.563544	0.000253	2.533611	0.858411	-0.000101
1229	1.2219e+02	-8.9195	-27.688695	0.000314	3.141678	1.064429	-0.000126
1230	1.2229e+02	-8.9661	-27.829995	0.000355	3.547056	1.201775	-0.000142
1231	1.2239e+02	-9.0030	-27.930924	0.000253	2.533611	0.858411	-0.000101
1232	1.2248e+02	-9.0479	-28.060112	0.000324	3.243022	1.098766	-0.000130
1233	1.2258e+02	-9.0800	-28.152966	0.000233	2.330922	0.789738	-0.000093
1234	1.2268e+02	-9.1265	-28.342711	0.000476	4.763189	1.613812	-0.000191
1235	1.2278e+02	-9.1618	-28.419417	0.000193	1.925545	0.652392	-0.000077
1236	1.2288e+02	-9.2035	-28.536494	0.000294	2.938989	0.995756	-0.000118
1237	1.2298e+02	-9.2500	-28.673757	0.000345	3.445711	1.167439	-0.000138
1238	1.2308e+02	-9.2789	-28.806982	0.000334	3.344367	1.133102	-0.000134
1239	1.2318e+02	-9.3238	-28.907910	0.000253	2.533611	0.858411	-0.000101
1240	1.2328e+02	-9.3623	-29.037099	0.000324	3.243022	1.098766	-0.000130
1241	1.2338e+02	-9.4056	-29.166287	0.000324	3.243022	1.098766	-0.000130
1242	1.2348e+02	-9.4393	-29.263178	0.000243	2.432267	0.824074	-0.000097
1243	1.2358e+02	-9.4762	-29.420627	0.000395	3.952434	1.339121	-0.000158
1244	1.2368e+02	-9.5163	-29.529629	0.000274	2.736300	0.927084	-0.000110
1245	1.2378e+02	-9.5548	-29.630558	0.000253	2.533611	0.858411	-0.000101
1246	1.2388e+02	-9.5949	-29.800117	0.000426	4.256467	1.442130	-0.000170
1247	1.2398e+02	-9.6398	-29.909120	0.000274	2.736300	0.927084	-0.000110
1248	1.2408e+02	-9.6783	-30.066568	0.000395	3.952434	1.339121	-0.000158
1249	1.2418e+02	-9.7217	-30.159423	0.000233	2.330922	0.789738	-0.000093
1250	1.2428e+02	-9.7537	-30.308797	0.000375	3.749745	1.270448	-0.000150
1251	1.2438e+02	-9.8051	-30.474319	0.000416	4.155123	1.407794	-0.000166
1252	1.2447e+02	-9.8436	-30.559099	0.000213	2.128233	0.721065	-0.000085
1253	1.2457e+02	-9.8741	-30.684250	0.000314	3.141678	1.064429	-0.000126
1254	1.2467e+02	-9.9254	-30.773067	0.000223	2.229578	0.755401	-0.000089
1255	1.2477e+02	-9.9671	-30.898218	0.000314	3.141678	1.064429	-0.000126
1256	1.2487e+02	-9.9976	-31.015295	0.000294	2.938989	0.995756	-0.000118
1257	1.2497e+02	-10.0409	-31.144484	0.000324	3.243022	1.098766	-0.000130
1258	1.2507e+02	-10.0826	-31.297895	0.000385	3.851089	1.304784	-0.000154
1259	1.2517e+02	-10.1163	-31.443232	0.000365	3.648400	1.236111	-0.000146
1260	1.2527e+02	-10.1516	-31.536086	0.000233	2.330922	0.789738	-0.000093
1261	1.2537e+02	-10.1949	-31.677386	0.000355	3.547056	1.201775	-0.000142
1262	1.2547e+02	-10.2382	-31.826760	0.000375	3.749745	1.270448	-0.000150
1263	1.2557e+02	-10.2815	-31.911539	0.000213	2.128233	0.721065	-0.000085
1264	1.2567e+02	-10.3200	-32.036691	0.000314	3.141678	1.064429	-0.000126
1265	1.2577e+02	-10.3617	-32.153768	0.000294	2.938989	0.995756	-0.000118
1266	1.2587e+02	-10.3890	-32.291030	0.000345	3.445711	1.167439	-0.000138
1267	1.2597e+02	-10.4436	-32.391959	0.000253	2.533611	0.858411	-0.000101
1268	1.2607e+02	-10.4724	-32.525184	0.000334	3.344367	1.133102	-0.000134
1269	1.2617e+02	-10.5141	-32.642261	0.000294	2.938989	0.995756	-0.000118
1270	1.2627e+02	-10.5559	-32.779524	0.000345	3.445711	1.167439	-0.000138
1271	1.2636e+02	-10.5992	-32.900638	0.000304	3.040334	1.030093	-0.000122
1272	1.2646e+02	-10.6377	-33.005603	0.000263	2.634956	0.892747	-0.000105
1273	1.2656e+02	-10.6778	-33.146903	0.000355	3.547056	1.201775	-0.000142
1274	1.2666e+02	-10.7195	-33.235720	0.000223	2.229578	0.755401	-0.000089
1275	1.2676e+02	-10.7516	-33.364908	0.000324	3.243022	1.098766	-0.000130
1276	1.2686e+02	-10.7949	-33.469874	0.000263	2.634956	0.892747	-0.000105
1277	1.2696e+02	-10.8366	-33.627322	0.000395	3.952434	1.339121	-0.000158
1278	1.2706e+02	-10.8751	-33.744399	0.000294	2.938989	0.995756	-0.000118
1279	1.2716e+02	-10.9232	-33.861476	0.000294	2.938989	0.995756	-0.000118
1280	1.2726e+02	-10.9505	-33.970479	0.000274	2.736300	0.927084	-0.000110
1281	1.2736e+02	-10.9842	-34.131964	0.000405	4.053778	1.373457	-0.000162
1282	1.2746e+02	-11.0275	-34.220781	0.000223	2.229578	0.755401	-0.000089
1283	1.2756e+02	-11.0788	-34.362081	0.000355	3.547056	1.201775	-0.000142
1284	1.2766e+02	-11.1189	-34.503381	0.000355	3.547056	1.201775	-0.000142
1285	1.2776e+02	-11.1510	-34.584123	0.000203	2.026889	0.686729	-0.000081
1286	1.2786e+02	-11.2024	-34.701200	0.000294	2.938989	0.995756	-0.000118
1287	1.2796e+02	-11.2393	-34.862686	0.000405	4.053778	1.373457	-0.000162
1288	1.2806e+02	-11.2762	-34.959577	0.000243	2.432267	0.824074	-0.000097
1289	1.2816e+02	-11.3227	-35.072617	0.000284	2.837645	0.961420	-0.000114
1290	1.2826e+02	-11.3564	-35.213916	0.000355	3.547056	1.201775	-0.000142
1291	1.2835e+02	-11.3949	-35.339068	0.000314	3.141678	1.064429	-0.000126
1292	1.2845e+02	-11.4302	-35.439996	0.000253	2.533611	0.858411	-0.000101
1293	1.2855e+02	-11.4767	-35.536887	0.000243	2.432267	0.824074	-0.000097
1294	1.2865e+02	-11.5136	-35.662039	0.000314	3.141678	1.064429	-0.000126
1295	1.2875e+02	-11.5457	-35.783153	0.000304	3.040334	1.030093	-0.000122
1296	1.2885e+02	-11.5986	-35.904267	0.000304	3.040334	1.030093	-0.000122
1297	1.2895e+02	-11.6339	-36.037492	0.000334	3.344367	1.133102	-0.000134
1298	1.2905e+02	-11.6724	-36.158606	0.000304	3.040334	1.030093	-0.000122
1299	1.2915e+02	-11.7157	-36.255497	0.000243	2.432267	0.824074	-0.000097
1300	1.2925e+02	-11.7654	-36.433131	0.000446	4.459156	1.510803	-0.000179
1301	1.2935e+02	-11.7959	-36.525986	0.000233	2.330922	0.789738	-0.000093
1302	1.2945e+02	-11.8424	-36.647100	0.000304	3.040334	1.030093	-0.000122
1303	1.2955e+02	-11.8649	-36.760139	0.000284	2.837645	0.961420	-0.000114
1304	1.2965e+02	-11.9098	-36.861068	0.000253	2.533611	0.858411	-0.000101
1305	1.2975e+02	-11.9467	-37.042739	0.000456	4.560500	1.545139	-0.000183
1306	1.2985e+02	-11.9804	-37.151742	0.000274	2.736300	0.927084	-0.000110
1307	1.2995e+02	-12.0350	-37.276893	0.000314	3.141678	1.064429	-0.000126
1308	1.3005e+02	-12.0735	-37.345524	0.000172	1.722856	0.583719	-0.000069
1309	1.3015e+02	-12.1216	-37.454527	0.000274	2.736300	0.927084	-0.000110
1310	1.3025e+02	-12.1505	-37.599864	0.000365	3.648400	1.236111	-0.000146
1311	1.3034e+02	-12.1922	-37.741163	0.000355	3.547056	1.201775	-0.000142
1312	1.3044e+02	-12.2371	-37.817869	0.000193	1.925545	0.652392	-0.000077
1313	1.3054e+02	-12.2692	-37.975317	0.000395	3.952434	1.339121	-0.000158
1314	1.3064e+02	-12.3093	-38.100469	0.000314	3.141678	1.064429	-0.000126
1315	1.3074e+02	-12.3574	-38.205434	0.000263	2.634956	0.892747	-0.000105
1316	1.3084e+02	-12.3943	-38.286177	0.000203	2.026889	0.686729	-0.000081
1317	1.3094e+02	-12.4312	-38.419402	0.000334	3.344367	1.133102	-0.000134
1318	1.3104e+02	-12.4617	-38.564739	0.000365	3.648400	1.236111	-0.000146
1319	1.3114e+02	-12.5082	-38.609148	0.000111	1.114789	0.377701	-0.000045
1320	1.3124e+02	-12.5467	-38.762559	0.000385	3.851089	1.304784	-0.000154
1321	1.3134e+02	-12.5980	-38.891747	0.000324	3.243022	1.098766	-0.000130
1322	1.3144e+02	-12.6253	-38.980564	0.000223	2.229578	0.755401	-0.000089
1323	1.3154e+02	-12.6702	-39.097641	0.000294	2.938989	0.995756	-0.000118
1324	1.3164e+02	-12.7055	-39.247015	0.000375	3.749745	1.270448	-0.000150
1325	1.3174e+02	-12.7520	-39.339869	0.000233	2.330922	0.789738	-0.000093
1326	1.3184e+02	-12.7938	-39.444835	0.000263	2.634956	0.892747	-0.000105
1327	1.3194e+02	-12.8307	-39.569986	0.000314	3.141678	1.064429	-0.000126
1328	1.3204e+02	-12.8708	-39.670914	0.000253	2.533611	0.858411	-0.000101
1329	1.3214e+02	-12.9044	-39.808177	0.000345	3.445711	1.167439	-0.000138
1330	1.3224e+02	-12.9478	-39.872771	0.000162	1.621511	0.549383	-0.000065
1331	1.3234e+02	-12.9847	-40.014071	0.000355	3.547056	1.201775	-0.000142
1332	1.3243e+02	-13.0280	-40.163445	0.000375	3.749745	1.270448	-0.000150
1333	1.3253e+02	-13.0601	-40.232076	0.000172	1.722856	0.583719	-0.000069
1334	1.3263e+02	-13.0986	-40.373376	0.000355	3.547056	1.201775	-0.000142
1335	1.3273e+02	-13.1531	-40.446044	0.000182	1.824200	0.618056	-0.000073
1336	1.3283e+02	-13.1884	-40.575233	0.000324	3.243022	1.098766	-0.000130
1337	1.3293e+02	-13.2253	-40.676161	0.000253	2.533611	0.858411	-0.000101
1338	1.3303e+02	-13.2654	-40.793238	0.000294	2.938989	0.995756	-0.000118
1339	1.3313e+02	-13.3183	-40.930501	0.000345	3.445711	1.167439	-0.000138
1340	1.3323e+02	-13.3520	-41.039503	0.000274	2.736300	0.927084	-0.000110
1341	1.3333e+02	-13.3921	-41.104098	0.000162	1.621511	0.549383	-0.000065
1342	1.3343e+02	-13.4178	-41.281731	0.000446	4.459156	1.510803	-0.000179
1343	1.3353e+02	-13.4627	-41.386697	0.000263	2.634956	0.892747	-0.000105
1344	1.3363e+02	-13.5157	-41.459365	0.000182	1.824200	0.618056	-0.000073
1345	1.3373e+02	-13.5461	-41.536071	0.000193	1.925545	0.652392	-0.000077
1346	1.3383e+02	-13.5895	-41.693519	0.000395	3.952434	1.339121	-0.000158
1347	1.3393e+02	-13.6247	-41.794448	0.000253	2.533611	0.858411	-0.000101
1348	1.3403e+02	-13.6697	-41.899413	0.000263	2.634956	0.892747	-0.000105
1349	1.3413e+02	-13.6953	-42.036676	0.000345	3.445711	1.167439	-0.000138
1350	1.3423e+02	-13.7499	-42.125493	0.000223	2.229578	0.755401	-0.000089
1351	1.3432e+02	-13.7836	-42.262755	0.000345	3.445711	1.167439	-0.000138
1352	1.3442e+02	-13.8092	-42.371758	0.000274	2.736300	0.927084	-0.000110
1353	1.3452e+02	-13.8670	-42.452501	0.000203	2.026889	0.686729	-0.000081
1354	1.3462e+02	-13.9007	-42.537281	0.000213	2.128233	0.721065	-0.000085
1355	1.3472e+02	-13.9424	-42.674543	0.000345	3.445711	1.167439	-0.000138
1356	1.3482e+02	-13.9745	-42.811806	0.000345	3.445711	1.167439	-0.000138
1357	1.3492e+02	-14.0258	-42.924846	0.000284	2.837645	0.961420	-0.000114
1358	1.3502e+02	-14.0595	-43.054034	0.000324	3.243022	1.098766	-0.000130
1359	1.3512e+02	-14.1108	-43.142851	0.000223	2.229578	0.755401	-0.000089
1360	1.3522e+02	-14.1381	-43.231668	0.000223	2.229578	0.755401	-0.000089
1361	1.3532e+02	-14.1862	-43.352782	0.000304	3.040334	1.030093	-0.000122
1362	1.3542e+02	-14.2263	-43.477933	0.000314	3.141678	1.064429	-0.000126
1363	1.3552e+02	-14.2697	-43.595010	0.000294	2.938989	0.995756	-0.000118
1364	1.3562e+02	-14.3033	-43.712087	0.000294	2.938989	0.995756	-0.000118
1365	1.3572e+02	-14.3467	-43.804941	0.000233	2.330922	0.789738	-0.000093
1366	1.3582e+02	-14.3900	-43.909907	0.000263	2.634956	0.892747	-0.000105
1367	1.3592e+02	-14.4253	-44.031021	0.000304	3.040334	1.030093	-0.000122
1368	1.3602e+02	-14.4638	-44.135986	0.000263	2.634956	0.892747	-0.000105
1369	1.3612e+02	-14.5071	-44.293435	0.000395	3.952434	1.339121	-0.000158
1370	1.3622e+02	-14.5376	-44.362066	0.000172	1.722856	0.583719	-0.000069
1371	1.3631e+02	-14.5841	-44.495292	0.000334	3.344367	1.133102	-0.000134
1372	1.3641e+02	-14.6210	-44.624480	0.000324	3.243022	1.098766	-0.000130
1373	1.3651e+02	-14.6707	-44.717334	0.000233	2.330922	0.789738	-0.000093
1374	1.3661e+02	-14.7028	-44.882857	0.000416	4.155123	1.407794	-0.000166
1375	1.3671e+02	-14.7397	-44.923228	0.000101	1.013445	0.343364	-0.000041
1376	1.3681e+02	-14.7862	-45.048379	0.000314	3.141678	1.064429	-0.000126
1377	1.3691e+02	-14.8231	-45.129122	0.000203	2.026889	0.686729	-0.000081
1378	1.3701e+02	-14.8616	-45.250236	0.000304	3.040334	1.030093	-0.000122
1379	1.3711e+02	-14.9033	-45.363276	0.000284	2.837645	0.961420	-0.000114
1380	1.3721e+02	-14.9338	-45.496501	0.000334	3.344367	1.133102	-0.000134
1381	1.3731e+02	-14.9803	-45.589355	0.000233	2.330922	0.789738	-0.000093
1382	1.3741e+02	-15.0252	-45.698358	0.000274	2.736300	0.927084	-0.000110
1383	1.3751e+02	-15.0557	-45.795249	0.000243	2.432267	0.824074	-0.000097
1384	1.3761e+02	-15.1006	-45.932512	0.000345	3.445711	1.167439	-0.000138
1385	1.3771e+02	-15.1391	-45.997106	0.000162	1.621511	0.549383	-0.000065
1386	1.3781e+02	-15.1728	-46.150517	0.000385	3.851089	1.304784	-0.000154
1387	1.3791e+02	-15.2370	-46.219148	0.000172	1.722856	0.583719	-0.000069
1388	1.3801e+02	-15.2514	-46.384671	0.000416	4.155123	1.407794	-0.000166
1389	1.3811e+02	-15.2996	-46.433117	0.000122	1.216133	0.412037	-0.000049
1390	1.3821e+02	-15.3397	-46.598639	0.000416	4.155123	1.407794	-0.000166
1391	1.3831e+02	-15.3750	-46.707642	0.000274	2.736300	0.927084	-0.000110
1392	1.3840e+02	-15.4263	-46.804533	0.000243	2.432267	0.824074	-0.000097
1393	1.3850e+02	-15.4536	-46.933722	0.000324	3.243022	1.098766	-0.000130
1394	1.3860e+02	-15.4985	-47.046761	0.000284	2.837645	0.961420	-0.000114
1395	1.3870e+02	-15.5418	-47.139615	0.000233	2.330922	0.789738	-0.000093
1396	1.3880e+02	-15.5819	-47.276878	0.000345	3.445711	1.167439	-0.000138
1397	1.3890e+02	-15.6140	-47.389918	0.000284	2.837645	0.961420	-0.000114
1398	1.3900e+02	-15.6637	-47.442401	0.000132	1.317478	0.446374	-0.000053
1399	1.3910e+02	-15.6974	-47.575626	0.000334	3.344367	1.133102	-0.000134
1400	1.3920e+02	-15.7391	-47.712889	0.000345	3.445711	1.167439	-0.000138
1401	1.3930e+02	-15.7857	-47.821891	0.000274	2.736300	0.927084	-0.000110
1402	1.3940e+02	-15.8225	-47.890523	0.000172	1.722856	0.583719	-0.000069
1403	1.3950e+02	-15.8530	-48.019711	0.000324	3.243022	1.098766	-0.000130
1404	1.3960e+02	-15.9060	-48.169085	0.000375	3.749745	1.270448	-0.000150
1405	1.3970e+02	-15.9381	-48.265976	0.000243	2.432267	0.824074	-0.000097
1406	1.3980e+02	-15.9798	-48.387090	0.000304	3.040334	1.030093	-0.000122
1407	1.3990e+02	-16.0231	-48.488019	0.000253	2.533611	0.858411	-0.000101
1408	1.4000e+02	-16.0600	-48.592984	0.000263	2.634956	0.892747	-0.000105
1409	1.4010e+02	-16.1017	-48.710061	0.000294	2.938989	0.995756	-0.000118
1410	1.4020e+02	-16.1241	-48.806953	0.000243	2.432267	0.824074	-0.000097
1411	1.4029e+02	-16.1691	-48.919992	0.000284	2.837645	0.961420	-0.000114
1412	1.4039e+02	-16.2172	-49.057255	0.000345	3.445711	1.167439	-0.000138
1413	1.4049e+02	-16.2605	-49.150109	0.000233	2.330922	0.789738	-0.000093
1414	1.4059e+02	-16.2926	-49.263149	0.000284	2.837645	0.961420	-0.000114
1415	1.4069e+02	-16.3423	-49.380226	0.000294	2.938989	0.995756	-0.000118
1416	1.4079e+02	-16.3808	-49.485191	0.000263	2.634956	0.892747	-0.000105
1417	1.4089e+02	-16.4129	-49.594194	0.000274	2.736300	0.927084	-0.000110
1418	1.4099e+02	-16.4498	-49.727419	0.000334	3.344367	1.133102	-0.000134
1419	1.4109e+02	-16.4995	-49.832385	0.000263	2.634956	0.892747	-0.000105
1420	1.4119e+02	-16.5445	-49.977722	0.000365	3.648400	1.236111	-0.000146
1421	1.4129e+02	-16.5830	-50.034242	0.000142	1.418822	0.480710	-0.000057
1422	1.4139e+02	-16.6070	-50.171504	0.000345	3.445711	1.167439	-0.000138
1423	1.4149e+02	-16.6503	-50.292618	0.000304	3.040334	1.030093	-0.000122
1424	1.4159e+02	-16.6920	-50.425844	0.000334	3.344367	1.133102	-0.000134
1425	1.4169e+02	-16.7370	-50.506587	0.000203	2.026889	0.686729	-0.000081
1426	1.4179e+02	-16.7787	-50.635775	0.000324	3.243022	1.098766	-0.000130
1427	1.4189e+02	-16.8140	-50.748815	0.000284	2.837645	0.961420	-0.000114
1428	1.4199e+02	-16.8541	-50.869929	0.000304	3.040334	1.030093	-0.000122
1429	1.4209e+02	-16.8958	-50.982969	0.000284	2.837645	0.961420	-0.000114
1430	1.4219e+02	-16.9247	-51.108120	0.000314	3.141678	1.064429	-0.000126
1431	1.4228e+02	-16.9792	-51.200974	0.000233	2.330922	0.789738	-0.000093
1432	1.4238e+02	-17.0129	-51.342274	0.000355	3.547056	1.201775	-0.000142
1433	1.4248e+02	-17.0578	-51.435128	0.000233	2.330922	0.789738	-0.000093
1434	1.4258e+02	-17.1043	-51.519908	0.000213	2.128233	0.721065	-0.000085
1435	1.4268e+02	-17.1268	-51.628910	0.000274	2.736300	0.927084	-0.000110
1436	1.4278e+02	-17.1765	-51.766173	0.000345	3.445711	1.167439	-0.000138
1437	1.4288e+02	-17.2134	-51.846916	0.000203	2.026889	0.686729	-0.000081
1438	1.4298e+02	-17.2551	-51.959956	0.000284	2.837645	0.961420	-0.000114
1439	1.4308e+02	-17.2936	-52.085107	0.000314	3.141678	1.064429	-0.000126
1440	1.4318e+02	-17.3402	-52.181998	0.000243	2.432267	0.824074	-0.000097
1441	1.4328e+02	-17.3738	-52.307149	0.000314	3.141678	1.064429	-0.000126
1442	1.4338e+02	-17.4075	-52.424226	0.000294	2.938989	0.995756	-0.000118
1443	1.4348e+02	-17.4476	-52.529192	0.000263	2.634956	0.892747	-0.000105
1444	1.4358e+02	-17.4958	-52.654343	0.000314	3.141678	1.064429	-0.000126
1445	1.4368e+02	-17.5343	-52.755271	0.000253	2.533611	0.858411	-0.000101
1446	1.4378e+02	-17.5744	-52.872348	0.000294	2.938989	0.995756	-0.000118
1447	1.4388e+02	-17.6113	-52.949054	0.000193	1.925545	0.652392	-0.000077
1448	1.4398e+02	-17.6466	-53.098428	0.000375	3.749745	1.270448	-0.000150
1449	1.4408e+02	-17.6947	-53.211468	0.000284	2.837645	0.961420	-0.000114
1450	1.4418e+02	-17.7252	-53.300285	0.000223	2.229578	0.755401	-0.000089
1451	1.4428e+02	-17.7653	-53.393139	0.000233	2.330922	0.789738	-0.000093
1452	1.4437e+02	-17.8086	-53.510216	0.000294	2.938989	0.995756	-0.000118
1453	1.4447e+02	-17.8599	-53.627293	0.000294	2.938989	0.995756	-0.000118
1454	1.4457e+02	-17.8888	-53.748407	0.000304	3.040334	1.030093	-0.000122
1455	1.4467e+02	-17.9289	-53.849335	0.000253	2.533611	0.858411	-0.000101
1456	1.4477e+02	-17.9658	-53.942189	0.000233	2.330922	0.789738	-0.000093
1457	1.4487e+02	-18.0059	-54.091563	0.000375	3.749745	1.270448	-0.000150
1458	1.4497e+02	-18.0460	-54.192492	0.000253	2.533611	0.858411	-0.000101
1459	1.4507e+02	-18.0941	-54.285346	0.000233	2.330922	0.789738	-0.000093
1460	1.4517e+02	-18.1262	-54.406460	0.000304	3.040334	1.030093	-0.000122
1461	1.4527e+02	-18.1711	-54.519500	0.000284	2.837645	0.961420	-0.000114
1462	1.4537e+02	-18.2113	-54.660799	0.000355	3.547056	1.201775	-0.000142
1463	1.4547e+02	-18.2465	-54.737505	0.000193	1.925545	0.652392	-0.000077
1464	1.4557e+02	-18.2947	-54.858619	0.000304	3.040334	1.030093	-0.000122
1465	1.4567e+02	-18.3300	-54.975696	0.000294	2.938989	0.995756	-0.000118
1466	1.4577e+02	-18.3749	-55.092773	0.000294	2.938989	0.995756	-0.000118
1467	1.4587e+02	-18.4054	-55.185627	0.000233	2.330922	0.789738	-0.000093
1468	1.4597e+02	-18.4503	-55.326927	0.000355	3.547056	1.201775	-0.000142
1469	1.4607e+02	-18.4920	-55.448041	0.000304	3.040334	1.030093	-0.000122
1470	1.4617e+02	-18.5241	-55.548969	0.000253	2.533611	0.858411	-0.000101
1471	1.4626e+02	-18.5594	-55.670083	0.000304	3.040334	1.030093	-0.000122
1472	1.4636e+02	-18.6027	-55.783123	0.000284	2.837645	0.961420	-0.000114
1473	1.4646e+02	-18.6428	-55.896163	0.000284	2.837645	0.961420	-0.000114
1474	1.4656e+02	-18.6909	-55.993054	0.000243	2.432267	0.824074	-0.000097
1475	1.4666e+02	-18.7230	-56.126280	0.000334	3.344367	1.133102	-0.000134
1476	1.4676e+02	-18.7631	-56.243357	0.000294	2.938989	0.995756	-0.000118
1477	1.4686e+02	-18.7984	-56.372545	0.000324	3.243022	1.098766	-0.000130
1478	1.4696e+02	-18.8449	-56.497696	0.000314	3.141678	1.064429	-0.000126
1479	1.4706e+02	-18.8834	-56.610736	0.000284	2.837645	0.961420	-0.000114
1480	1.4716e+02	-18.9316	-56.731850	0.000304	3.040334	1.030093	-0.000122
1481	1.4726e+02	-18.9684	-56.865075	0.000334	3.344367	1.133102	-0.000134
1482	1.4736e+02	-19.0134	-56.978115	0.000284	2.837645	0.961420	-0.000114
1483	1.4746e+02	-19.0567	-57.103266	0.000314	3.141678	1.064429	-0.000126
1484	1.4756e+02	-19.0904	-57.216306	0.000284	2.837645	0.961420	-0.000114
1485	1.4766e+02	-19.1225	-57.329346	0.000284	2.837645	0.961420	-0.000114
1486	1.4776e+02	-19.1610	-57.442386	0.000284	2.837645	0.961420	-0.000114
1487	1.4786e+02	-19.2027	-57.595797	0.000385	3.851089	1.304784	-0.000154
1488	1.4796e+02	-19.2492	-57.700763	0.000263	2.634956	0.892747	-0.000105
1489	1.4806e+02	-19.2941	-57.846099	0.000365	3.648400	1.236111	-0.000146
1490	1.4816e+02	-19.3150	-57.938954	0.000233	2.330922	0.789738	-0.000093
1491	1.4825e+02	-19.3631	-58.124662	0.000466	4.661845	1.579476	-0.000187
1492	1.4835e+02	-19.3984	-58.197330	0.000182	1.824200	0.618056	-0.000073
1493	1.4845e+02	-19.4513	-58.383038	0.000466	4.661845	1.579476	-0.000187
1494	1.4855e+02	-19.4754	-58.463781	0.000203	2.026889	0.686729	-0.000081
1495	1.4865e+02	-19.5187	-58.601044	0.000345	3.445711	1.167439	-0.000138
1496	1.4875e+02	-19.5668	-58.758492	0.000395	3.952434	1.339121	-0.000158
1497	1.4885e+02	-19.6085	-58.883643	0.000314	3.141678	1.064429	-0.000126
1498	1.4895e+02	-19.6326	-59.020906	0.000345	3.445711	1.167439	-0.000138
1499	1.4905e+02	-19.6855	-59.133946	0.000284	2.837645	0.961420	-0.000114
1500	1.4915e+02	-19.7128	-59.299468	0.000416	4.155123	1.407794	-0.000166
1501	1.4925e+02	-19.7593	-59.392322	0.000233	2.330922	0.789738	-0.000093
1502	1.4935e+02	-19.8026	-59.533622	0.000355	3.547056	1.201775	-0.000142
1503	1.4945e+02	-19.8395	-59.687033	0.000385	3.851089	1.304784	-0.000154
1504	1.4955e+02	-19.8813	-59.828333	0.000355	3.547056	1.201775	-0.000142
1505	1.4965e+02	-19.9198	-59.985781	0.000395	3.952434	1.339121	-0.000158
1506	1.4975e+02	-19.9663	-60.078635	0.000233	2.330922	0.789738	-0.000093
1507	1.4985e+02	-19.9984	-60.223972	0.000365	3.648400	1.236111	-0.000146
1508	1.4995e+02	-19.9567	-60.236084	-0.000030	-0.304033	-0.103009	-0.000012
1509	1.5005e+02	-19.9294	-60.123044	0.000284	2.837645	0.961420	0.000114
1510	1.5015e+02	-19.8813	-60.110933	0.000030	0.304033	0.103009	0.000012
1511	1.5025e+02	-19.8379	-60.010004	0.000253	2.533611	0.858411	0.000101
1512	1.5034e+02	-19.8043	-59.925224	0.000213	2.128233	0.721065	0.000085
1513	1.5044e+02	-19.7641	-59.905039	0.000051	0.506722	0.171682	0.000020
1514	1.5054e+02	-19.7176	-59.828333	0.000193	1.925545	0.652392	0.000077
1515	1.5064e+02	-19.6807	-59.767776	0.000152	1.520167	0.515046	0.000061
1516	1.5074e+02	-19.6422	-59.658773	0.000274	2.736300	0.927084	0.000110
1517	1.5084e+02	-19.6053	-59.622439	0.000091	0.912100	0.309028	0.000037
1518	1.5094e+02	-19.5652	-59.565919	0.000142	1.418822	0.480710	0.000057
1519	1.5104e+02	-19.5123	-59.448842	0.000294	2.938989	0.995756	0.000118
1520	1.5114e+02	-19.4754	-59.376174	0.000182	1.824200	0.618056	0.000073
1521	1.5124e+02	-19.4465	-59.327728	0.000122	1.216133	0.412037	0.000049
1522	1.5134e+02	-19.4000	-59.202577	0.000314	3.141678	1.064429	0.000126
1523	1.5144e+02	-19.3631	-59.158169	0.000111	1.114789	0.377701	0.000045
1524	1.5154e+02	-19.3230	-59.057240	0.000253	2.533611	0.858411	0.000101
1525	1.5164e+02	-19.2877	-58.992646	0.000162	1.621511	0.549383	0.000065
1526	1.5174e+02	-19.2476	-58.928052	0.000162	1.621511	0.549383	0.000065
1527	1.5184e+02	-19.2091	-58.831161	0.000243	2.432267	0.824074	0.000097
1528	1.5194e+02	-19.1706	-58.770604	0.000152	1.520167	0.515046	0.000061
1529	1.5204e+02	-19.1160	-58.629304	0.000355	3.547056	1.201775	0.000142
1530	1.5214e+02	-19.0872	-58.588932	0.000101	1.013445	0.343364	0.000041
1531	1.5224e+02	-19.0438	-58.475893	0.000284	2.837645	0.961420	0.000114
1532	1.5233e+02	-19.0053	-58.403224	0.000182	1.824200	0.618056	0.000073
1533	1.5243e+02	-18.9636	-58.326519	0.000193	1.925545	0.652392	0.000077
1534	1.5253e+02	-18.9299	-58.257887	0.000172	1.722856	0.583719	0.000069
1535	1.5263e+02	-18.8818	-58.177145	0.000203	2.026889	0.686729	0.000081
1536	1.5273e+02	-18.8401	-58.068142	0.000274	2.736300	0.927084	0.000110
1537	1.5283e+02	-18.8032	-57.991436	0.000193	1.925545	0.652392	0.000077
1538	1.5293e+02	-18.7631	-57.918768	0.000182	1.824200	0.618056	0.000073
1539	1.5303e+02	-18.7166	-57.773431	0.000365	3.648400	1.236111	0.000146
1540	1.5313e+02	-18.6909	-57.700763	0.000182	1.824200	0.618056	0.000073
1541	1.5323e+02	-18.6572	-57.644243	0.000142	1.418822	0.480710	0.000057
1542	1.5333e+02	-18.6091	-57.523129	0.000304	3.040334	1.030093	0.000122
1543	1.5343e+02	-18.5674	-57.422200	0.000253	2.533611	0.858411	0.000101
1544	1.5353e+02	-18.5225	-57.381829	0.000101	1.013445	0.343364	0.000041
1545	1.5363e+02	-18.4808	-57.284938	0.000243	2.432267	0.824074	0.000097
1546	1.5373e+02	-18.4567	-57.147675	0.000345	3.445711	1.167439	0.000138
1547	1.5383e+02	-18.4070	-57.079044	0.000172	1.722856	0.583719	0.000069
1548	1.5393e+02	-18.3733	-57.030598	0.000122	1.216133	0.412037	0.000049
1549	1.5403e+02	-18.3332	-56.913521	0.000294	2.938989	0.995756	0.000118
1550	1.5413e+02	-18.2915	-56.844890	0.000172	1.722856	0.583719	0.000069
1551	1.5422e+02	-18.2465	-56.780296	0.000162	1.621511	0.549383	0.000065
1552	1.5432e+02	-18.2145	-56.610736	0.000426	4.256467	1.442130	0.000170
1553	1.5442e+02	-18.1695	-56.562290	0.000122	1.216133	0.412037	0.000049
1554	1.5452e+02	-18.1310	-56.453288	0.000274	2.736300	0.927084	0.000110
1555	1.5462e+02	-18.0829	-56.388693	0.000162	1.621511	0.549383	0.000065
1556	1.5472e+02	-18.0396	-56.267579	0.000304	3.040334	1.030093	0.000122
1557	1.5482e+02	-18.0139	-56.190874	0.000193	1.925545	0.652392	0.000077
1558	1.5492e+02	-17.9706	-56.089945	0.000253	2.533611	0.858411	0.000101
1559	1.5502e+02	-17.9337	-56.001128	0.000223	2.229578	0.755401	0.000089
1560	1.5512e+02	-17.8824	-55.928460	0.000182	1.824200	0.618056	0.000073
1561	1.5522e+02	-17.8503	-55.839643	0.000223	2.229578	0.755401	0.000089
1562	1.5532e+02	-17.8118	-55.718529	0.000304	3.040334	1.030093	0.000122
1563	1.5542e+02	-17.7701	-55.613563	0.000263	2.634956	0.892747	0.000105
1564	1.5552e+02	-17.7380	-55.557043	0.000142	1.418822	0.480710	0.000057
1565	1.5562e+02	-17.6931	-55.431892	0.000314	3.141678	1.064429	0.000126
1566	1.5572e+02	-17.6530	-55.359224	0.000182	1.824200	0.618056	0.000073
1567	1.5582e+02	-17.6113	-55.298667	0.000152	1.520167	0.515046	0.000061
1568	1.5592e+02	-17.5712	-55.177553	0.000304	3.040334	1.030093	0.000122
1569	1.5602e+02	-17.5262	-55.137181	0.000101	1.013445	0.343364	0.000041
1570	1.5612e+02	-17.5022	-55.028179	0.000274	2.736300	0.927084	0.000110
1571	1.5622e+02	-17.4589	-54.927250	0.000253	2.533611	0.858411	0.000101
1572	1.5631e+02	-17.4204	-54.886879	0.000101	1.013445	0.343364	0.000041
1573	1.5641e+02	-17.3722	-54.757691	0.000324	3.243022	1.098766	0.000130
1574	1.5651e+02	-17.3257	-54.648688	0.000274	2.736300	0.927084	0.000110
1575	1.5661e+02	-17.2984	-54.600242	0.000122	1.216133	0.412037	0.000049
1576	1.5671e+02	-17.2471	-54.479128	0.000304	3.040334	1.030093	0.000122
1577	1.5681e+02	-17.2134	-54.402423	0.000193	1.925545	0.652392	0.000077
1578	1.5691e+02	-17.1717	-54.333791	0.000172	1.722856	0.583719	0.000069
1579	1.5701e+02	-17.1332	-54.204603	0.000324	3.243022	1.098766	0.000130
1580	1.5711e+02	-17.0915	-54.099637	0.000263	2.634956	0.892747	0.000105
1581	1.5721e+02	-17.0546	-54.022932	0.000193	1.925545	0.652392	0.000077
1582	1.5731e+02	-17.0081	-53.917966	0.000263	2.634956	0.892747	0.000105
1583	1.5741e+02	-16.9744	-53.845298	0.000182	1.824200	0.618056	0.000073
1584	1.5751e+02	-16.9359	-53.788778	0.000142	1.418822	0.480710	0.000057
1585	1.5761e+02	-16.8910	-53.655553	0.000334	3.344367	1.133102	0.000134
1586	1.5771e+02	-16.8557	-53.574810	0.000203	2.026889	0.686729	0.000081
1587	1.5781e+02	-16.8124	-53.494067	0.000203	2.026889	0.686729	0.000081
1588	1.5791e+02	-16.7755	-53.405250	0.000223	2.229578	0.755401	0.000089
1589	1.5801e+02	-16.7321	-53.272025	0.000334	3.344367	1.133102	0.000134
1590	1.5811e+02	-16.6888	-53.215505	0.000142	1.418822	0.480710	0.000057
1591	1.5821e+02	-16.6535	-53.146873	0.000172	1.722856	0.583719	0.000069
1592	1.5830e+02	-16.6022	-53.074205	0.000182	1.824200	0.618056	0.000073
1593	1.5840e+02	-16.5717	-52.953091	0.000304	3.040334	1.030093	0.000122
1594	1.5850e+02	-16.5364	-52.860237	0.000233	2.330922	0.789738	0.000093
1595	1.5860e+02	-16.4963	-52.767383	0.000233	2.330922	0.789738	0.000093
1596	1.5870e+02	-16.4562	-52.686640	0.000203	2.026889	0.686729	0.000081
1597	1.5880e+02	-16.4209	-52.634157	0.000132	1.317478	0.446374	0.000053
1598	1.5890e+02	-16.3760	-52.496895	0.000345	3.445711	1.167439	0.000138
1599	1.5900e+02	-16.3327	-52.440375	0.000142	1.418822	0.480710	0.000057
1600	1.5910e+02	-16.2942	-52.315223	0.000314	3.141678	1.064429	0.000126
1601	1.5920e+02	-16.2525	-52.262741	0.000132	1.317478	0.446374	0.000053
1602	1.5930e+02	-16.2156	-52.149701	0.000284	2.837645	0.961420	0.000114
1603	1.5940e+02	-16.1787	-52.044735	0.000263	2.634956	0.892747	0.000105
1604	1.5950e+02	-16.1402	-51.935733	0.000274	2.736300	0.927084	0.000110
1605	1.5960e+02	-16.0905	-51.854990	0.000203	2.026889	0.686729	0.000081
1606	1.5970e+02	-16.0552	-51.774247	0.000203	2.026889	0.686729	0.000081
1607	1.5980e+02	-16.0215	-51.657170	0.000294	2.938989	0.995756	0.000118
1608	1.5990e+02	-15.9701	-51.588539	0.000172	1.722856	0.583719	0.000069
1609	1.6000e+02	-15.9429	-51.491648	0.000243	2.432267	0.824074	0.000097
1610	1.6010e+02	-15.8963	-51.394757	0.000243	2.432267	0.824074	0.000097
1611	1.6019e+02	-15.8627	-51.273642	0.000304	3.040334	1.030093	0.000122
1612	1.6029e+02	-15.8145	-51.168677	0.000263	2.634956	0.892747	0.000105
1613	1.6039e+02	-15.7760	-51.083897	0.000213	2.128233	0.721065	0.000085
1614	1.6049e+02	-15.7375	-50.999117	0.000213	2.128233	0.721065	0.000085
1615	1.6059e+02	-15.6974	-50.946634	0.000132	1.317478	0.446374	0.000053
1616	1.6069e+02	-15.6589	-50.805335	0.000355	3.547056	1.201775	0.000142
1617	1.6079e+02	-15.6204	-50.724592	0.000203	2.026889	0.686729	0.000081
1618	1.6089e+02	-15.5739	-50.619626	0.000263	2.634956	0.892747	0.000105
1619	1.6099e+02	-15.5370	-50.538884	0.000203	2.026889	0.686729	0.000081
1620	1.6109e+02	-15.4921	-50.429881	0.000274	2.736300	0.927084	0.000110
1621	1.6119e+02	-15.4504	-50.328953	0.000253	2.533611	0.858411	0.000101
1622	1.6129e+02	-15.4167	-50.260321	0.000172	1.722856	0.583719	0.000069
1623	1.6139e+02	-15.3798	-50.163430	0.000243	2.432267	0.824074	0.000097
1624	1.6149e+02	-15.3333	-50.038279	0.000314	3.141678	1.064429	0.000126
1625	1.6159e+02	-15.2996	-49.981759	0.000142	1.418822	0.480710	0.000057
1626	1.6169e+02	-15.2595	-49.868719	0.000284	2.837645	0.961420	0.000114
1627	1.6179e+02	-15.2306	-49.800088	0.000172	1.722856	0.583719	0.000069
1628	1.6189e+02	-15.1857	-49.666862	0.000334	3.344367	1.133102	0.000134
1629	1.6199e+02	-15.1359	-49.602268	0.000162	1.621511	0.549383	0.000065
1630	1.6209e+02	-15.1022	-49.473080	0.000324	3.243022	1.098766	0.000130
1631	1.6219e+02	-15.0654	-49.396374	0.000193	1.925545	0.652392	0.000077
1632	1.6228e+02	-15.0140	-49.299483	0.000243	2.432267	0.824074	0.000097
1633	1.6238e+02	-14.9771	-49.186443	0.000284	2.837645	0.961420	0.000114
1634	1.6248e+02	-14.9466	-49.101663	0.000213	2.128233	0.721065	0.000085
1635	1.6258e+02	-14.8985	-48.956327	0.000365	3.648400	1.236111	0.000146
1636	1.6268e+02	-14.8584	-48.911918	0.000111	1.114789	0.377701	0.000045
1637	1.6278e+02	-14.8263	-48.790804	0.000304	3.040334	1.030093	0.000122
1638	1.6288e+02	-14.7814	-48.738321	0.000132	1.317478	0.446374	0.000053
1639	1.6298e+02	-14.7301	-48.625281	0.000284	2.837645	0.961420	0.000114
1640	1.6308e+02	-14.7044	-48.524353	0.000253	2.533611	0.858411	0.000101
1641	1.6318e+02	-14.6675	-48.435536	0.000223	2.229578	0.755401	0.000089
1642	1.6328e+02	-14.6242	-48.314422	0.000304	3.040334	1.030093	0.000122
1643	1.6338e+02	-14.5809	-48.217531	0.000243	2.432267	0.824074	0.000097
1644	1.6348e+02	-14.5424	-48.148899	0.000172	1.722856	0.583719	0.000069
1645	1.6358e+02	-14.5023	-48.007600	0.000355	3.547056	1.201775	0.000142
1646	1.6368e+02	-14.4573	-47.926857	0.000203	2.026889	0.686729	0.000081
1647	1.6378e+02	-14.4204	-47.846114	0.000203	2.026889	0.686729	0.000081
1648	1.6388e+02	-14.3836	-47.720963	0.000314	3.141678	1.064429	0.000126
1649	1.6398e+02	-14.3402	-47.636183	0.000213	2.128233	0.721065	0.000085
1650	1.6408e+02	-14.3114	-47.563515	0.000182	1.824200	0.618056	0.000073
1651	1.6418e+02	-14.2616	-47.438363	0.000314	3.141678	1.064429	0.000126
1652	1.6427e+02	-14.2215	-47.297064	0.000355	3.547056	1.201775	0.000142
1653	1.6437e+02	-14.1846	-47.220358	0.000193	1.925545	0.652392	0.000077
1654	1.6447e+02	-14.1525	-47.087133	0.000334	3.344367	1.133102	0.000134
1655	1.6457e+02	-14.1076	-47.018501	0.000172	1.722856	0.583719	0.000069
1656	1.6467e+02	-14.0499	-46.941796	0.000193	1.925545	0.652392	0.000077
1657	1.6477e+02	-14.0210	-46.832793	0.000274	2.736300	0.927084	0.000110
1658	1.6487e+02	-13.9889	-46.687456	0.000365	3.648400	1.236111	0.000146
1659	1.6497e+02	-13.9424	-46.602676	0.000213	2.128233	0.721065	0.000085
1660	1.6507e+02	-13.9055	-46.509822	0.000233	2.330922	0.789738	0.000093
1661	1.6517e+02	-13.8638	-46.400820	0.000274	2.736300	0.927084	0.000110
1662	1.6527e+02	-13.8253	-46.307965	0.000233	2.330922	0.789738	0.000093
1663	1.6537e+02	-13.7948	-46.235297	0.000182	1.824200	0.618056	0.000073
1664	1.6547e+02	-13.7515	-46.073812	0.000405	4.053778	1.373457	0.000162
1665	1.6557e+02	-13.7146	-45.984995	0.000223	2.229578	0.755401	0.000089
1666	1.6567e+02	-13.6584	-45.863881	0.000304	3.040334	1.030093	0.000122
1667	1.6577e+02	-13.6280	-45.791212	0.000182	1.824200	0.618056	0.000073
1668	1.6587e+02	-13.5798	-45.670098	0.000304	3.040334	1.030093	0.000122
1669	1.6597e+02	-13.5574	-45.573207	0.000243	2.432267	0.824074	0.000097
1670	1.6607e+02	-13.4964	-45.427870	0.000365	3.648400	1.236111	0.000146
1671	1.6616e+02	-13.4740	-45.339053	0.000223	2.229578	0.755401	0.000089
1672	1.6626e+02	-13.4274	-45.230050	0.000274	2.736300	0.927084	0.000110
1673	1.6636e+02	-13.3873	-45.165456	0.000162	1.621511	0.549383	0.000065
1674	1.6646e+02	-13.3488	-44.975711	0.000476	4.763189	1.613812	0.000191
1675	1.6656e+02	-13.3151	-44.947451	0.000071	0.709411	0.240355	0.000028
1676	1.6666e+02	-13.2734	-44.798077	0.000375	3.749745	1.270448	0.000150
1677	1.6676e+02	-13.2237	-44.705223	0.000233	2.330922	0.789738	0.000093
1678	1.6686e+02	-13.1868	-44.620443	0.000213	2.128233	0.721065	0.000085
1679	1.6696e+02	-13.1451	-44.450883	0.000426	4.256467	1.442130	0.000170
1680	1.6706e+02	-13.1066	-44.398400	0.000132	1.317478	0.446374	0.000053
1681	1.6716e+02	-13.0569	-44.269212	0.000324	3.243022	1.098766	0.000130
1682	1.6726e+02	-13.0151	-44.184432	0.000213	2.128233	0.721065	0.000085
1683	1.6736e+02	-12.9927	-44.059281	0.000314	3.141678	1.064429	0.000126
1684	1.6746e+02	-12.9430	-43.974501	0.000213	2.128233	0.721065	0.000085
1685	1.6756e+02	-12.9077	-43.861461	0.000284	2.837645	0.961420	0.000114
1686	1.6766e+02	-12.8692	-43.752459	0.000274	2.736300	0.927084	0.000110
1687	1.6776e+02	-12.8242	-43.643456	0.000274	2.736300	0.927084	0.000110
1688	1.6786e+02	-12.7889	-43.566750	0.000193	1.925545	0.652392	0.000077
1689	1.6796e+02	-12.7456	-43.409302	0.000395	3.952434	1.339121	0.000158
1690	1.6806e+02	-12.7087	-43.292225	0.000294	2.938989	0.995756	0.000118
1691	1.6816e+02	-12.6702	-43.231668	0.000152	1.520167	0.515046	0.000061
1692	1.6825e+02	-12.6349	-43.126703	0.000263	2.634956	0.892747	0.000105
1693	1.6835e+02	-12.5916	-42.973291	0.000385	3.851089	1.304784	0.000154
1694	1.6845e+02	-12.5595	-42.912734	0.000152	1.520167	0.515046	0.000061
1695	1.6855e+02	-12.5130	-42.763360	0.000375	3.749745	1.270448	0.000150
1696	1.6865e+02	-12.4697	-42.662432	0.000253	2.533611	0.858411	0.000101
1697	1.6875e+02	-12.4280	-42.569578	0.000233	2.330922	0.789738	0.000093
1698	1.6885e+02	-12.3959	-42.492872	0.000193	1.925545	0.652392	0.000077
1699	1.6895e+02	-12.3526	-42.339461	0.000385	3.851089	1.304784	0.000154
1700	1.6905e+02	-12.3077	-42.266793	0.000182	1.824200	0.618056	0.000073
1701	1.6915e+02	-12.2660	-42.133567	0.000334	3.344367	1.133102	0.000134
1702	1.6925e+02	-12.2291	-42.012453	0.000304	3.040334	1.030093	0.000122
1703	1.6935e+02	-12.1890	-41.911525	0.000253	2.533611	0.858411	0.000101
1704	1.6945e+02	-12.1505	-41.814633	0.000243	2.432267	0.824074	0.000097
1705	1.6955e+02	-12.1071	-41.741965	0.000182	1.824200	0.618056	0.000073
1706	1.6965e+02	-12.0719	-41.649111	0.000233	2.330922	0.789738	0.000093
1707	1.6975e+02	-12.0317	-41.511848	0.000345	3.445711	1.167439	0.000138
1708	1.6985e+02	-11.9948	-41.427068	0.000213	2.128233	0.721065	0.000085
1709	1.6995e+02	-11.9563	-41.269620	0.000395	3.952434	1.339121	0.000158
1710	1.7005e+02	-11.9146	-41.164655	0.000263	2.634956	0.892747	0.000105
1711	1.7015e+02	-11.8842	-41.096023	0.000172	1.722856	0.583719	0.000069
1712	1.7024e+02	-11.8392	-40.987021	0.000274	2.736300	0.927084	0.000110
1713	1.7034e+02	-11.7959	-40.861869	0.000314	3.141678	1.064429	0.000126
1714	1.7044e+02	-11.7462	-40.728644	0.000334	3.344367	1.133102	0.000134
1715	1.7054e+02	-11.7173	-40.631753	0.000243	2.432267	0.824074	0.000097
1716	1.7064e+02	-11.6772	-40.530824	0.000253	2.533611	0.858411	0.000101
1717	1.7074e+02	-11.6323	-40.401636	0.000324	3.243022	1.098766	0.000130
1718	1.7084e+02	-11.5761	-40.284559	0.000294	2.938989	0.995756	0.000118
1719	1.7094e+02	-11.5601	-40.195742	0.000223	2.229578	0.755401	0.000089
1720	1.7104e+02	-11.5200	-40.090776	0.000263	2.634956	0.892747	0.000105
1721	1.7114e+02	-11.4719	-39.965625	0.000314	3.141678	1.064429	0.000126
1722	1.7124e+02	-11.4286	-39.852585	0.000284	2.837645	0.961420	0.000114
1723	1.7134e+02	-11.3868	-39.775880	0.000193	1.925545	0.652392	0.000077
1724	1.7144e+02	-11.3612	-39.646692	0.000324	3.243022	1.098766	0.000130
1725	1.7154e+02	-11.3195	-39.505392	0.000355	3.547056	1.201775	0.000142
1726	1.7164e+02	-11.2778	-39.448872	0.000142	1.418822	0.480710	0.000057
1727	1.7174e+02	-11.2312	-39.295461	0.000385	3.851089	1.304784	0.000154
1728	1.7184e+02	-11.1975	-39.206644	0.000223	2.229578	0.755401	0.000089
1729	1.7194e+02	-11.1574	-39.081493	0.000314	3.141678	1.064429	0.000126
1730	1.7204e+02	-11.1238	-38.988638	0.000233	2.330922	0.789738	0.000093
1731	1.7213e+02	-11.0788	-38.867524	0.000304	3.040334	1.030093	0.000122
1732	1.7223e+02	-11.0355	-38.794856	0.000182	1.824200	0.618056	0.000073
1733	1.7233e+02	-11.0050	-38.673742	0.000304	3.040334	1.030093	0.000122
1734	1.7243e+02	-10.9569	-38.576851	0.000243	2.432267	0.824074	0.000097
1735	1.7253e+02	-10.9200	-38.435551	0.000355	3.547056	1.201775	0.000142
1736	1.7263e+02	-10.8719	-38.330585	0.000263	2.634956	0.892747	0.000105
1737	1.7273e+02	-10.8462	-38.265991	0.000162	1.621511	0.549383	0.000065
1738	1.7283e+02	-10.7981	-38.116617	0.000375	3.749745	1.270448	0.000150
1739	1.7293e+02	-10.7516	-38.011652	0.000263	2.634956	0.892747	0.000105
1740	1.7303e+02	-10.7179	-37.902649	0.000274	2.736300	0.927084	0.000110
1741	1.7313e+02	-10.6762	-37.834018	0.000172	1.722856	0.583719	0.000069
1742	1.7323e+02	-10.6393	-37.716941	0.000294	2.938989	0.995756	0.000118
1743	1.7333e+02	-10.5911	-37.579678	0.000345	3.445711	1.167439	0.000138
1744	1.7343e+02	-10.5607	-37.507010	0.000182	1.824200	0.618056	0.000073
1745	1.7353e+02	-10.5222	-37.365710	0.000355	3.547056	1.201775	0.000142
1746	1.7363e+02	-10.4788	-37.260744	0.000263	2.634956	0.892747	0.000105
1747	1.7373e+02	-10.4420	-37.135593	0.000314	3.141678	1.064429	0.000126
1748	1.7383e+02	-10.3954	-37.022553	0.000284	2.837645	0.961420	0.000114
1749	1.7393e+02	-10.3585	-36.917588	0.000263	2.634956	0.892747	0.000105
1750	1.7403e+02	-10.3136	-36.820696	0.000243	2.432267	0.824074	0.000097
1751	1.7413e+02	-10.2831	-36.715731	0.000263	2.634956	0.892747	0.000105
1752	1.7422e+02	-10.2334	-36.614803	0.000253	2.533611	0.858411	0.000101
1753	1.7432e+02	-10.1949	-36.505800	0.000274	2.736300	0.927084	0.000110
1754	1.7442e+02	-10.1612	-36.404872	0.000253	2.533611	0.858411	0.000101
1755	1.7452e+02	-10.1211	-36.255497	0.000375	3.749745	1.270448	0.000150
1756	1.7462e+02	-10.0730	-36.198978	0.000142	1.418822	0.480710	0.000057
1757	1.7472e+02	-10.0425	-36.110161	0.000223	2.229578	0.755401	0.000089
1758	1.7482e+02	-10.0008	-35.924452	0.000466	4.661845	1.579476	0.000187
1759	1.7492e+02	-9.9639	-35.867932	0.000142	1.418822	0.480710	0.000057
1760	1.7502e+02	-9.9110	-35.742781	0.000314	3.141678	1.064429	0.000126
1761	1.7512e+02	-9.8821	-35.645890	0.000243	2.432267	0.824074	0.000097
1762	1.7522e+02	-9.8452	-35.528813	0.000294	2.938989	0.995756	0.000118
1763	1.7532e+02	-9.8099	-35.403662	0.000314	3.141678	1.064429	0.000126
1764	1.7542e+02	-9.7634	-35.330993	0.000182	1.824200	0.618056	0.000073
1765	1.7552e+02	-9.7281	-35.193731	0.000345	3.445711	1.167439	0.000138
1766	1.7562e+02	-9.6767	-35.108951	0.000213	2.128233	0.721065	0.000085
1767	1.7572e+02	-9.6430	-35.024171	0.000213	2.128233	0.721065	0.000085
1768	1.7582e+02	-9.6045	-34.870760	0.000385	3.851089	1.304784	0.000154
1769	1.7592e+02	-9.5692	-34.777906	0.000233	2.330922	0.789738	0.000093
1770	1.7602e+02	-9.5227	-34.644680	0.000334	3.344367	1.133102	0.000134
1771	1.7612e+02	-9.4810	-34.551826	0.000233	2.330922	0.789738	0.000093
1772	1.7621e+02	-9.4425	-34.430712	0.000304	3.040334	1.030093	0.000122
1773	1.7631e+02	-9.4072	-34.329784	0.000253	2.533611	0.858411	0.000101
1774	1.7641e+02	-9.3639	-34.204633	0.000314	3.141678	1.064429	0.000126
1775	1.7651e+02	-9.3254	-34.099667	0.000263	2.634956	0.892747	0.000105
1776	1.7661e+02	-9.2869	-33.962404	0.000345	3.445711	1.167439	0.000138
1777	1.7671e+02	-9.2388	-33.885699	0.000193	1.925545	0.652392	0.000077
1778	1.7681e+02	-9.2051	-33.768622	0.000294	2.938989	0.995756	0.000118
1779	1.7691e+02	-9.1570	-33.631359	0.000345	3.445711	1.167439	0.000138
1780	1.7701e+02	-9.1217	-33.534468	0.000243	2.432267	0.824074	0.000097
1781	1.7711e+02	-9.0880	-33.457762	0.000193	1.925545	0.652392	0.000077
1782	1.7721e+02	-9.0543	-33.312426	0.000365	3.648400	1.236111	0.000146
1783	1.7731e+02	-9.0046	-33.231683	0.000203	2.026889	0.686729	0.000081
1784	1.7741e+02	-8.9693	-33.098457	0.000334	3.344367	1.133102	0.000134
1785	1.7751e+02	-8.9260	-33.017715	0.000203	2.026889	0.686729	0.000081
1786	1.7761e+02	-8.8746	-32.892563	0.000314	3.141678	1.064429	0.000126
1787	1.7771e+02	-8.8425	-32.727041	0.000416	4.155123	1.407794	0.000166
1788	1.7781e+02	-8.7992	-32.650335	0.000193	1.925545	0.652392	0.000077
1789	1.7791e+02	-8.7735	-32.541333	0.000274	2.736300	0.927084	0.000110
1790	1.7801e+02	-8.7206	-32.416181	0.000314	3.141678	1.064429	0.000126
1791	1.7810e+02	-8.6885	-32.291030	0.000314	3.141678	1.064429	0.000126
1792	1.7820e+02	-8.6372	-32.182028	0.000274	2.736300	0.927084	0.000110
1793	1.7830e+02	-8.5955	-32.040728	0.000355	3.547056	1.201775	0.000142
1794	1.7840e+02	-8.5650	-31.992282	0.000122	1.216133	0.412037	0.000049
1795	1.7850e+02	-8.5329	-31.814648	0.000446	4.459156	1.510803	0.000179
1796	1.7860e+02	-8.4816	-31.721794	0.000233	2.330922	0.789738	0.000093
1797	1.7870e+02	-8.4463	-31.649126	0.000182	1.824200	0.618056	0.000073
1798	1.7880e+02	-8.4094	-31.503789	0.000365	3.648400	1.236111	0.000146
1799	1.7890e+02	-8.3709	-31.410935	0.000233	2.330922	0.789738	0.000093
1800	1.7900e+02	-8.3212	-31.285783	0.000314	3.141678	1.064429	0.000126
1801	1.7910e+02	-8.2746	-31.180818	0.000263	2.634956	0.892747	0.000105
1802	1.7920e+02	-8.2409	-31.059704	0.000304	3.040334	1.030093	0.000122
1803	1.7930e+02	-8.1960	-30.934553	0.000314	3.141678	1.064429	0.000126
1804	1.7940e+02	-8.1639	-30.861884	0.000182	1.824200	0.618056	0.000073
1805	1.7950e+02	-8.1270	-30.748844	0.000284	2.837645	0.961420	0.000114
1806	1.7960e+02	-8.0869	-30.627730	0.000304	3.040334	1.030093	0.000122
1807	1.7970e+02	-8.0452	-30.486431	0.000355	3.547056	1.201775	0.000142
1808	1.7980e+02	-8.0051	-30.385502	0.000253	2.533611	0.858411	0.000101
1809	1.7990e+02	-7.9698	-30.272462	0.000284	2.837645	0.961420	0.000114
1810	1.8000e+02	-7.9329	-30.143274	0.000324	3.243022	1.098766	0.000130
1811	1.8009e+02	-7.8864	-30.026197	0.000294	2.938989	0.995756	0.000118
1812	1.8019e+02	-7.8495	-29.856637	0.000426	4.256467	1.442130	0.000170
1813	1.8029e+02	-7.8046	-29.788006	0.000172	1.722856	0.583719	0.000069
1814	1.8039e+02	-7.7645	-29.658818	0.000324	3.243022	1.098766	0.000130
1815	1.8049e+02	-7.7372	-29.578075	0.000203	2.026889	0.686729	0.000081
1816	1.8059e+02	-7.6891	-29.444850	0.000334	3.344367	1.133102	0.000134
1817	1.8069e+02	-7.6506	-29.315661	0.000324	3.243022	1.098766	0.000130
1818	1.8079e+02	-7.6041	-29.198584	0.000294	2.938989	0.995756	0.000118
1819	1.8089e+02	-7.5624	-29.097656	0.000253	2.533611	0.858411	0.000101
1820	1.8099e+02	-7.5367	-28.952319	0.000365	3.648400	1.236111	0.000146
1821	1.8109e+02	-7.4966	-28.871576	0.000203	2.026889	0.686729	0.000081
1822	1.8119e+02	-7.4549	-28.742388	0.000324	3.243022	1.098766	0.000130
1823	1.8129e+02	-7.4083	-28.617237	0.000314	3.141678	1.064429	0.000126
1824	1.8139e+02	-7.3779	-28.459788	0.000395	3.952434	1.339121	0.000158
1825	1.8149e+02	-7.3329	-28.379046	0.000203	2.026889	0.686729	0.000081
1826	1.8159e+02	-7.3025	-28.253894	0.000314	3.141678	1.064429	0.000126
1827	1.8169e+02	-7.2479	-28.148929	0.000263	2.634956	0.892747	0.000105
1828	1.8179e+02	-7.2078	-28.019741	0.000324	3.243022	1.098766	0.000130
1829	1.8189e+02	-7.1709	-27.882478	0.000345	3.445711	1.167439	0.000138
1830	1.8199e+02	-7.1260	-27.797698	0.000213	2.128233	0.721065	0.000085
1831	1.8209e+02	-7.0907	-27.680621	0.000294	2.938989	0.995756	0.000118
1832	1.8218e+02	-7.0586	-27.555470	0.000314	3.141678	1.064429	0.000126
1833	1.8228e+02	-7.0201	-27.410133	0.000365	3.648400	1.236111	0.000146
1834	1.8238e+02	-6.9704	-27.280945	0.000324	3.243022	1.098766	0.000130
1835	1.8248e+02	-6.9271	-27.159831	0.000304	3.040334	1.030093	0.000122
1836	1.8258e+02	-6.8966	-27.038717	0.000304	3.040334	1.030093	0.000122
1837	1.8268e+02	-6.8533	-26.921640	0.000294	2.938989	0.995756	0.000118
1838	1.8278e+02	-6.8068	-26.800526	0.000304	3.040334	1.030093	0.000122
1839	1.8288e+02	-6.7715	-26.675374	0.000314	3.141678	1.064429	0.000126
1840	1.8298e+02	-6.7362	-26.570409	0.000263	2.634956	0.892747	0.000105
1841	1.8308e+02	-6.7025	-26.408923	0.000405	4.053778	1.373457	0.000162
1842	1.8318e+02	-6.6495	-26.299921	0.000274	2.736300	0.927084	0.000110
1843	1.8328e+02	-6.6062	-26.190918	0.000274	2.736300	0.927084	0.000110
1844	1.8338e+02	-6.5725	-26.057693	0.000334	3.344367	1.133102	0.000134
1845	1.8348e+02	-6.5260	-25.908319	0.000375	3.749745	1.270448	0.000150
1846	1.8358e+02	-6.4907	-25.835650	0.000182	1.824200	0.618056	0.000073
1847	1.8368e+02	-6.4506	-25.730685	0.000263	2.634956	0.892747	0.000105
1848	1.8378e+02	-6.4089	-25.565162	0.000416	4.155123	1.407794	0.000166
1849	1.8388e+02	-6.3768	-25.456159	0.000274	2.736300	0.927084	0.000110
1850	1.8398e+02	-6.3303	-25.310823	0.000365	3.648400	1.236111	0.000146
1851	1.8407e+02	-6.2950	-25.169523	0.000355	3.547056	1.201775	0.000142
1852	1.8417e+02	-6.2613	-25.076669	0.000233	2.330922	0.789738	0.000093
1853	1.8427e+02	-6.2196	-24.947480	0.000324	3.243022	1.098766	0.000130
1854	1.8437e+02	-6.1683	-24.810218	0.000345	3.445711	1.167439	0.000138
1855	1.8447e+02	-6.1330	-24.709289	0.000253	2.533611	0.858411	0.000101
1856	1.8457e+02	-6.1009	-24.580101	0.000324	3.243022	1.098766	0.000130
1857	1.8467e+02	-6.0608	-24.487247	0.000233	2.330922	0.789738	0.000093
1858	1.8477e+02	-6.0223	-24.321724	0.000416	4.155123	1.407794	0.000166
1859	1.8487e+02	-5.9726	-24.216759	0.000263	2.634956	0.892747	0.000105
1860	1.8497e+02	-5.9501	-24.095645	0.000304	3.040334	1.030093	0.000122
1861	1.8507e+02	-5.9036	-23.982605	0.000284	2.837645	0.961420	0.000114
1862	1.8517e+02	-5.8619	-23.857454	0.000314	3.141678	1.064429	0.000126
1863	1.8527e+02	-5.8266	-23.712117	0.000365	3.648400	1.236111	0.000146
1864	1.8537e+02	-5.7817	-23.627337	0.000213	2.128233	0.721065	0.000085
1865	1.8547e+02	-5.7528	-23.477963	0.000375	3.749745	1.270448	0.000150
1866	1.8557e+02	-5.6950	-23.417406	0.000152	1.520167	0.515046	0.000061
1867	1.8567e+02	-5.6533	-23.227660	0.000476	4.763189	1.613812	0.000191
1868	1.8577e+02	-5.6132	-23.094435	0.000334	3.344367	1.133102	0.000134
1869	1.8587e+02	-5.5827	-23.005618	0.000223	2.229578	0.755401	0.000089
1870	1.8597e+02	-5.5346	-22.844133	0.000405	4.053778	1.373457	0.000162
1871	1.8606e+02	-5.4993	-22.759353	0.000213	2.128233	0.721065	0.000085
1872	1.8616e+02	-5.4624	-22.634202	0.000314	3.141678	1.064429	0.000126
1873	1.8626e+02	-5.4287	-22.472716	0.000405	4.053778	1.373457	0.000162
1874	1.8636e+02	-5.3838	-22.363713	0.000274	2.736300	0.927084	0.000110
1875	1.8646e+02	-5.3405	-22.250674	0.000284	2.837645	0.961420	0.000114
1876	1.8656e+02	-5.2972	-22.101300	0.000375	3.749745	1.270448	0.000150
1877	1.8666e+02	-5.2619	-21.976148	0.000314	3.141678	1.064429	0.000126
1878	1.8676e+02	-5.2186	-21.846960	0.000324	3.243022	1.098766	0.000130
1879	1.8686e+02	-5.1833	-21.701623	0.000365	3.648400	1.236111	0.000146
1880	1.8696e+02	-5.1416	-21.632992	0.000172	1.722856	0.583719	0.000069
1881	1.8706e+02	-5.0950	-21.487655	0.000365	3.648400	1.236111	0.000146
1882	1.8716e+02	-5.0614	-21.358467	0.000324	3.243022	1.098766	0.000130
1883	1.8726e+02	-5.0261	-21.233315	0.000314	3.141678	1.064429	0.000126
1884	1.8736e+02	-4.9860	-21.087979	0.000365	3.648400	1.236111	0.000146
1885	1.8746e+02	-4.9378	-20.938605	0.000375	3.749745	1.270448	0.000150
1886	1.8756e+02	-4.9009	-20.849788	0.000223	2.229578	0.755401	0.000089
1887	1.8766e+02	-4.8512	-20.744822	0.000263	2.634956	0.892747	0.000105
1888	1.8776e+02	-4.8191	-20.587374	0.000395	3.952434	1.339121	0.000158
1889	1.8786e+02	-4.7822	-20.462222	0.000314	3.141678	1.064429	0.000126
1890	1.8796e+02	-4.7325	-20.365331	0.000243	2.432267	0.824074	0.000097
1891	1.8806e+02	-4.6988	-20.276514	0.000223	2.229578	0.755401	0.000089
1892	1.8815e+02	-4.6715	-20.066583	0.000527	5.269911	1.785494	0.000211
1893	1.8825e+02	-4.6234	-19.969692	0.000243	2.432267	0.824074	0.000097
1894	1.8835e+02	-4.5897	-19.848578	0.000304	3.040334	1.030093	0.000122
1895	1.8845e+02	-4.5480	-19.751687	0.000243	2.432267	0.824074	0.000097
1896	1.8855e+02	-4.5063	-19.594238	0.000395	3.952434	1.339121	0.000158
1897	1.8865e+02	-4.4678	-19.481199	0.000284	2.837645	0.961420	0.000114
1898	1.8875e+02	-4.4213	-19.364122	0.000294	2.938989	0.995756	0.000118
1899	1.8885e+02	-4.3763	-19.222822	0.000355	3.547056	1.201775	0.000142
1900	1.8895e+02	-4.3394	-19.121893	0.000253	2.533611	0.858411	0.000101
1901	1.8905e+02	-4.3009	-18.976557	0.000365	3.648400	1.236111	0.000146
1902	1.8915e+02	-4.2641	-18.891777	0.000213	2.128233	0.721065	0.000085
1903	1.8925e+02	-4.2223	-18.730291	0.000405	4.053778	1.373457	0.000162
1904	1.8935e+02	-4.1854	-18.568806	0.000405	4.053778	1.373457	0.000162
1905	1.8945e+02	-4.1469	-18.496137	0.000182	1.824200	0.618056	0.000073
1906	1.8955e+02	-4.1052	-18.375023	0.000304	3.040334	1.030093	0.000122
1907	1.8965e+02	-4.0587	-18.241798	0.000334	3.344367	1.133102	0.000134
1908	1.8975e+02	-4.0298	-18.120684	0.000304	3.040334	1.030093	0.000122
1909	1.8985e+02	-3.9897	-18.003607	0.000294	2.938989	0.995756	0.000118
1910	1.8995e+02	-3.9544	-17.882493	0.000304	3.040334	1.030093	0.000122
1911	1.9004e+02	-3.9015	-17.737156	0.000365	3.648400	1.236111	0.000146
1912	1.9014e+02	-3.8662	-17.620079	0.000294	2.938989	0.995756	0.000118
1913	1.9024e+02	-3.8245	-17.482816	0.000345	3.445711	1.167439	0.000138
1914	1.9034e+02	-3.7908	-17.341517	0.000355	3.547056	1.201775	0.000142
1915	1.9044e+02	-3.7475	-17.232514	0.000274	2.736300	0.927084	0.000110
1916	1.9054e+02	-3.6994	-17.046806	0.000466	4.661845	1.579476	0.000187
1917	1.9064e+02	-3.6673	-16.998360	0.000122	1.216133	0.412037	0.000049
1918	1.9074e+02	-3.6208	-16.881283	0.000294	2.938989	0.995756	0.000118
1919	1.9084e+02	-3.5855	-16.772280	0.000274	2.736300	0.927084	0.000110
1920	1.9094e+02	-3.5502	-16.622906	0.000375	3.749745	1.270448	0.000150
1921	1.9104e+02	-3.5085	-16.489681	0.000334	3.344367	1.133102	0.000134
1922	1.9114e+02	-3.4732	-16.400864	0.000223	2.229578	0.755401	0.000089
1923	1.9124e+02	-3.4282	-16.235341	0.000416	4.155123	1.407794	0.000166
1924	1.9134e+02	-3.3946	-16.146524	0.000223	2.229578	0.755401	0.000089
1925	1.9144e+02	-3.3432	-16.013299	0.000334	3.344367	1.133102	0.000134
1926	1.9154e+02	-3.3143	-15.876036	0.000345	3.445711	1.167439	0.000138
1927	1.9164e+02	-3.2646	-15.795294	0.000203	2.026889	0.686729	0.000081
1928	1.9174e+02	-3.2213	-15.645920	0.000375	3.749745	1.270448	0.000150
1929	1.9184e+02	-3.1956	-15.532880	0.000284	2.837645	0.961420	0.000114
1930	1.9194e+02	-3.1587	-15.363320	0.000426	4.256467	1.442130	0.000170
1931	1.9203e+02	-3.1026	-15.302763	0.000152	1.520167	0.515046	0.000061
1932	1.9213e+02	-3.0705	-15.153389	0.000375	3.749745	1.270448	0.000150
1933	1.9223e+02	-3.0272	-15.028238	0.000314	3.141678	1.064429	0.000126
1934	1.9233e+02	-2.9887	-14.890975	0.000345	3.445711	1.167439	0.000138
1935	1.9243e+02	-2.9598	-14.777935	0.000284	2.837645	0.961420	0.000114
1936	1.9253e+02	-2.9117	-14.648747	0.000324	3.243022	1.098766	0.000130
1937	1.9263e+02	-2.8684	-14.515522	0.000334	3.344367	1.133102	0.000134
1938	1.9273e+02	-2.8218	-14.390370	0.000314	3.141678	1.064429	0.000126
1939	1.9283e+02	-2.7978	-14.265219	0.000314	3.141678	1.064429	0.000126
1940	1.9293e+02	-2.7513	-14.131994	0.000334	3.344367	1.133102	0.000134
1941	1.9303e+02	-2.7240	-13.998768	0.000334	3.344367	1.133102	0.000134
1942	1.9313e+02	-2.6694	-13.909951	0.000223	2.229578	0.755401	0.000089
1943	1.9323e+02	-2.6325	-13.768651	0.000355	3.547056	1.201775	0.000142
1944	1.9333e+02	-2.5892	-13.635426	0.000334	3.344367	1.133102	0.000134
1945	1.9343e+02	-2.5475	-13.502200	0.000334	3.344367	1.133102	0.000134
1946	1.9353e+02	-2.5106	-13.356864	0.000365	3.648400	1.236111	0.000146
1947	1.9363e+02	-2.4641	-13.243824	0.000284	2.837645	0.961420	0.000114
1948	1.9373e+02	-2.4336	-13.130784	0.000284	2.837645	0.961420	0.000114
1949	1.9383e+02	-2.3903	-12.977373	0.000385	3.851089	1.304784	0.000154
1950	1.9393e+02	-2.3582	-12.872407	0.000263	2.634956	0.892747	0.000105
1951	1.9403e+02	-2.3165	-12.743219	0.000324	3.243022	1.098766	0.000130
1952	1.9412e+02	-2.2780	-12.601919	0.000355	3.547056	1.201775	0.000142
1953	1.9422e+02	-2.2363	-12.468694	0.000334	3.344367	1.133102	0.000134
1954	1.9432e+02	-2.1882	-12.359691	0.000274	2.736300	0.927084	0.000110
1955	1.9442e+02	-2.1481	-12.202243	0.000395	3.952434	1.339121	0.000158
1956	1.9452e+02	-2.1144	-12.089203	0.000284	2.837645	0.961420	0.000114
1957	1.9462e+02	-2.0679	-11.951940	0.000345	3.445711	1.167439	0.000138
1958	1.9472e+02	-2.0261	-11.871198	0.000203	2.026889	0.686729	0.000081
1959	1.9482e+02	-1.9941	-11.721824	0.000375	3.749745	1.270448	0.000150
1960	1.9492e+02	-1.9507	-11.560338	0.000405	4.053778	1.373457	0.000162
1961	1.9502e+02	-1.9203	-11.451336	0.000274	2.736300	0.927084	0.000110
1962	1.9512e+02	-1.8753	-11.326184	0.000314	3.141678	1.064429	0.000126
1963	1.9522e+02	-1.8368	-11.205070	0.000304	3.040334	1.030093	0.000122
1964	1.9532e+02	-1.8048	-11.071845	0.000334	3.344367	1.133102	0.000134
1965	1.9542e+02	-1.7502	-10.958805	0.000284	2.837645	0.961420	0.000114
1966	1.9552e+02	-1.7197	-10.813468	0.000365	3.648400	1.236111	0.000146
1967	1.9562e+02	-1.6732	-10.688317	0.000314	3.141678	1.064429	0.000126
1968	1.9572e+02	-1.6315	-10.571240	0.000294	2.938989	0.995756	0.000118
1969	1.9582e+02	-1.5930	-10.433977	0.000345	3.445711	1.167439	0.000138
1970	1.9592e+02	-1.5609	-10.300752	0.000334	3.344367	1.133102	0.000134
1971	1.9601e+02	-1.5192	-10.175601	0.000314	3.141678	1.064429	0.000126
1972	1.9611e+02	-1.4663	-10.034301	0.000355	3.547056	1.201775	0.000142
1973	1.9621e+02	-1.4374	-9.917224	0.000294	2.938989	0.995756	0.000118
1974	1.9631e+02	-1.3973	-9.788036	0.000324	3.243022	1.098766	0.000130
1975	1.9641e+02	-1.3540	-9.683070	0.000263	2.634956	0.892747	0.000105
1976	1.9651e+02	-1.3123	-9.521585	0.000405	4.053778	1.373457	0.000162
1977	1.9661e+02	-1.2802	-9.420656	0.000253	2.533611	0.858411	0.000101
1978	1.9671e+02	-1.2449	-9.263208	0.000395	3.952434	1.339121	0.000158
1979	1.9681e+02	-1.2032	-9.174391	0.000223	2.229578	0.755401	0.000089
1980	1.9691e+02	-1.1647	-8.996757	0.000446	4.459156	1.510803	0.000179
1981	1.9701e+02	-1.1117	-8.879680	0.000294	2.938989	0.995756	0.000118
1982	1.9711e+02	-1.0861	-8.730306	0.000375	3.749745	1.270448	0.000150
1983	1.9721e+02	-1.0395	-8.601118	0.000324	3.243022	1.098766	0.000130
1984	1.9731e+02	-0.9914	-8.492115	0.000274	2.736300	0.927084	0.000110
1985	1.9741e+02	-0.9561	-8.362927	0.000324	3.243022	1.098766	0.000130
1986	1.9751e+02	-0.9176	-8.221627	0.000355	3.547056	1.201775	0.000142
1987	1.9761e+02	-0.8743	-8.027844	0.000486	4.864534	1.648149	0.000195
1988	1.9771e+02	-0.8326	-7.967287	0.000152	1.520167	0.515046	0.000061
1989	1.9781e+02	-0.7829	-7.817913	0.000375	3.749745	1.270448	0.000150
1990	1.9791e+02	-0.7588	-7.696799	0.000304	3.040334	1.030093	0.000122
1991	1.9800e+02	-0.7219	-7.531277	0.000416	4.155123	1.407794	0.000166
1992	1.9810e+02	-0.6818	-7.402088	0.000324	3.243022	1.098766	0.000130
1993	1.9820e+02	-0.6449	-7.252714	0.000375	3.749745	1.270448	0.000150
1994	1.9830e+02	-0.6000	-7.135637	0.000294	2.938989	0.995756	0.000118
1995	1.9840e+02	-0.5486	-7.038746	0.000243	2.432267	0.824074	0.000097
1996	1.9850e+02	-0.5101	-6.897446	0.000355	3.547056	1.201775	0.000142
1997	1.9860e+02	-0.4765	-6.752110	0.000365	3.648400	1.236111	0.000146
1998	1.9870e+02	-0.4364	-6.639070	0.000284	2.837645	0.961420	0.000114
1999	1.9880e+02	-0.3914	-6.493733	0.000365	3.648400	1.236111	0.000146
2000	1.9890e+02	-0.3561	-6.364544	0.000324	3.243022	1.098766	0.000130
2001	1.9900e+02	-0.3225	-6.194985	0.000426	4.256467	1.442130	0.000170
2002	1.9910e+02	-0.2743	-6.077908	0.000294	2.938989	0.995756	0.000118
2003	1.9920e+02	-0.2374	-5.892200	0.000466	4.661845	1.579476	0.000187
2004	1.9930e+02	-0.1989	-5.799345	0.000233	2.330922	0.789738	0.000093
2005	1.9940e+02	-0.1588	-5.613637	0.000466	4.661845	1.579476	0.000187
2006	1.9950e+02	-0.1219	-5.540969	0.000182	1.824200	0.618056	0.000073
2007	1.9960e+02	-0.0850	-5.379483	0.000405	4.053778	1.373457	0.000162
2008	1.9970e+02	-0.0337	-5.258369	0.000304	3.040334	1.030093	0.000122
2009	1.9980e+02	-0.0016	-5.108995	0.000304	3.040334	1.030093	0.000150

PMax (uC/cm2):	6.21e+01
Pr (uC/cm2):	3.29e+00
-Pr (uC/cm2):	-3.25e+00
PLoss (uC/cm2):	-3.29e+00
-Vc:	-9.83e-01
C (Max-Eff) (nF):	3.10e-01
K (Eff):	1.05e+03
Vert. (+/-Pr) Shift (uC/cm2):	1.93e-02
Offset (uC/cm2):	1.86e+00

A (Loop Area - uC/cm2·Volts):	9.20e-03



Hysteresis Version: 5.48.1 - Radiant Technologies, Inc., 1999 - 9/12/24

