»»»»»»»»»»»»»»»»»»»»»»»»»»»»»»»»»»»» Hysteresis ««««««««««««««««««««««««««««««««««««
»»»  Executed Version:	5.48.1
»»»  Vision Version:	5.48.4 (R)
»»»  Vision Compiled:	9/18/24
»»»  Driver Version:	5.47.0
»»»  Windows Version:	Windows 8 or 8.1
»»»  Processor Information:	x86 (AMD or Intel) - 32 Processors
»»»  Tester Name:	PMF21124-494 (100V)
»»»  Tester S/N:	PMF21124-494
»»»  Internal Amp Type:	100V RevK 270k
»»»  Internal Amp S/N:	iAB2-596/K     
»»»  Execution Count:	1
»»»»»»»»»»»»»»»»»»»»»»»»»»»»»»»»»»»»»»»»»»««««««««««««««««««««««««««««««««««««««««««

Stored:	6/3/2025 - 17:56:51
Configured:	06/03/25 04:16:08 PM
Executed:	06/03/25 05:56:11 PM

»»»»»»»»»»»»»»»»»»»»»»»»»»»»»»»»»»» Sample Info ««««««««««««««««««««««««««««««««««««
Sample Name:	
Lot Name:	
Wafer Name:	
Die Row/Column:	0/0
Capacitor Number:	0
Sample Area (cm2):	1.00e-04
Sample Thickness (microns):	3.00e-01

Amplifier:	Internal

»»»»»»»»»»»»»»»»»»»»»»»»»»»»»»»»»»» Tester Info «««««««««««««««««««««««««««««««««««
Tester Name:	PMF21124-494 (100V)
Tester Serial Number:	PMF21124-494
Return Signal Amp. Level:	0.19 [Index: 3]

»»»»»»»»»»»»»»»»»»»»»»»»»»»»»»»» Hysteresis Info ««««««««««««««««««««««««««««««««««
Task Name:	Hyst-2
Volts:	20.00
Field:	666.67 (kV/cm)
DCBias:	0.00
DCField:	0.00 (kV/cm)
Hysteresis Period (ms):	2.00e+02
Preset:	Enabled
Preset Delay (ms):	1.00e+03
Profile:	Standard Bipolar

»»»»»»»»»»»»»»»»»»»»»»»»»»»»»»»»»»»»»» Data «««««««««««««««««««««««««««««««««««««««
Points:	2009

Valid Data

Point	Time (ms)	Drive Voltage	Measured Polarization (uC/cm2)	Capacitance (uF)	Normalized Capacitance (uF/cm2)	Dielectric Constant	Instantaneous Current (mA)
   1	0.0000e+00	-0.0048	-2.603953	0.000000	0.000000	0.000000	0.000000
   2	9.9500e-02	0.0337	-2.603953	0.000000	0.000000	0.000000	0.000000
   3	1.9900e-01	0.0642	-2.583767	0.000051	0.506509	0.171610	0.000020
   4	2.9850e-01	0.1123	-2.575693	0.000020	0.202604	0.068644	0.000008
   5	3.9800e-01	0.1636	-2.587804	-0.000030	-0.303905	-0.102966	-0.000012
   6	4.9750e-01	0.1989	-2.535321	0.000132	1.316923	0.446186	0.000053
   7	5.9700e-01	0.2310	-2.519173	0.000041	0.405207	0.137288	0.000016
   8	6.9650e-01	0.2711	-2.474764	0.000111	1.114320	0.377542	0.000045
   9	7.9600e-01	0.3192	-2.434393	0.000101	1.013018	0.343220	0.000041
  10	8.9550e-01	0.3593	-2.438430	-0.000010	-0.101302	-0.034322	-0.000004
  11	9.9500e-01	0.3850	-2.369799	0.000172	1.722130	0.583474	0.000069
  12	1.0945e+00	0.4347	-2.341539	0.000071	0.709113	0.240254	0.000028
  13	1.1940e+00	0.4636	-2.244647	0.000243	2.431243	0.823727	0.000097
  14	1.2935e+00	0.5085	-2.212350	0.000081	0.810414	0.274576	0.000032
  15	1.3930e+00	0.5519	-2.131608	0.000203	2.026036	0.686439	0.000081
  16	1.4925e+00	0.6000	-2.010494	0.000304	3.039054	1.029659	0.000122
  17	1.5920e+00	0.6273	-1.974159	0.000091	0.911716	0.308898	0.000037
  18	1.6915e+00	0.6738	-1.881305	0.000233	2.329941	0.789405	0.000093
  19	1.7910e+00	0.7187	-1.808637	0.000182	1.823432	0.617796	0.000073
  20	1.8905e+00	0.7492	-1.719820	0.000223	2.228639	0.755083	0.000089
  21	1.9900e+00	0.7989	-1.610817	0.000274	2.735148	0.926693	0.000110
  22	2.0895e+00	0.8246	-1.530074	0.000203	2.026036	0.686439	0.000081
  23	2.1890e+00	0.8695	-1.461443	0.000172	1.722130	0.583474	0.000069
  24	2.2885e+00	0.9128	-1.384738	0.000192	1.924734	0.652118	0.000077
  25	2.3880e+00	0.9481	-1.291883	0.000233	2.329941	0.789405	0.000093
  26	2.4875e+00	0.9882	-1.190955	0.000253	2.532545	0.858049	0.000101
  27	2.5870e+00	1.0251	-1.073878	0.000294	2.937752	0.995337	0.000118
  28	2.6865e+00	1.0732	-0.985061	0.000223	2.228639	0.755083	0.000089
  29	2.7860e+00	1.1037	-0.859910	0.000314	3.140355	1.063981	0.000126
  30	2.8855e+00	1.1518	-0.763019	0.000243	2.431243	0.823727	0.000097
  31	2.9850e+00	1.1935	-0.637867	0.000314	3.140355	1.063981	0.000126
  32	3.0845e+00	1.2176	-0.520791	0.000294	2.937752	0.995337	0.000118
  33	3.1840e+00	1.2641	-0.399676	0.000304	3.039054	1.029659	0.000122
  34	3.2835e+00	1.3042	-0.290674	0.000274	2.735148	0.926693	0.000110
  35	3.3830e+00	1.3508	-0.181671	0.000274	2.735148	0.926693	0.000110
  36	3.4825e+00	1.3973	-0.020186	0.000405	4.052071	1.372879	0.000162
  37	3.5820e+00	1.4278	0.088817	0.000274	2.735148	0.926693	0.000110
  38	3.6815e+00	1.4711	0.262414	0.000436	4.355977	1.475845	0.000174
  39	3.7810e+00	1.5128	0.468308	0.000517	5.166391	1.750421	0.000207
  40	3.8805e+00	1.5529	0.718610	0.000628	6.280711	2.127962	0.000252
  41	3.9800e+00	1.5850	0.972950	0.000638	6.382013	2.162284	0.000256
  42	4.0795e+00	1.6235	1.267661	0.000740	7.395030	2.505504	0.000296
  43	4.1790e+00	1.6604	1.554297	0.000719	7.192427	2.436860	0.000288
  44	4.2785e+00	1.7053	1.800563	0.000618	6.179409	2.093640	0.000248
  45	4.3780e+00	1.7454	2.038754	0.000598	5.976805	2.024997	0.000239
  46	4.4775e+00	1.7903	2.240610	0.000507	5.065089	1.716099	0.000203
  47	4.5770e+00	1.8272	2.414207	0.000436	4.355977	1.475845	0.000174
  48	4.6765e+00	1.8673	2.527247	0.000284	2.836450	0.961015	0.000114
  49	4.7760e+00	1.9090	2.616064	0.000223	2.228639	0.755083	0.000089
  50	4.8755e+00	1.9459	2.680658	0.000162	1.620829	0.549152	0.000065
  51	4.9750e+00	1.9860	2.777549	0.000243	2.431243	0.823727	0.000097
  52	5.0745e+00	2.0326	2.858292	0.000203	2.026036	0.686439	0.000081
  53	5.1740e+00	2.0663	2.930961	0.000182	1.823432	0.617796	0.000073
  54	5.2735e+00	2.1128	3.044000	0.000284	2.836450	0.961015	0.000114
  55	5.3730e+00	2.1320	3.165114	0.000304	3.039054	1.029659	0.000122
  56	5.4725e+00	2.1834	3.249894	0.000213	2.127338	0.720761	0.000085
  57	5.5720e+00	2.2331	3.358897	0.000274	2.735148	0.926693	0.000110
  58	5.6715e+00	2.2652	3.475974	0.000294	2.937752	0.995337	0.000118
  59	5.7710e+00	2.2957	3.645534	0.000425	4.254675	1.441523	0.000170
  60	5.8705e+00	2.3486	3.762611	0.000294	2.937752	0.995337	0.000118
  61	5.9700e+00	2.3871	3.855465	0.000233	2.329941	0.789405	0.000093
  62	6.0695e+00	2.4224	3.992727	0.000344	3.444261	1.166947	0.000138
  63	6.1690e+00	2.4657	4.097693	0.000263	2.633846	0.892371	0.000105
  64	6.2685e+00	2.5058	4.271290	0.000436	4.355977	1.475845	0.000174
  65	6.3680e+00	2.5379	4.372218	0.000253	2.532545	0.858049	0.000101
  66	6.4675e+00	2.5908	4.553889	0.000456	4.558580	1.544489	0.000183
  67	6.5670e+00	2.6229	4.755746	0.000507	5.065089	1.716099	0.000203
  68	6.6665e+00	2.6662	5.203868	0.001124	11.244498	3.809739	0.000450
  69	6.7660e+00	2.7031	5.962849	0.001904	19.044736	6.452531	0.000763
  70	6.8655e+00	2.7400	6.108186	0.000365	3.646864	1.235591	0.000146
  71	6.9650e+00	2.7930	6.281783	0.000436	4.355977	1.475845	0.000174
  72	7.0645e+00	2.8218	6.366563	0.000213	2.127338	0.720761	0.000085
  73	7.1640e+00	2.8716	6.503826	0.000344	3.444261	1.166947	0.000138
  74	7.2635e+00	2.9069	6.612828	0.000274	2.735148	0.926693	0.000110
  75	7.3630e+00	2.9422	6.681460	0.000172	1.722130	0.583474	0.000069
  76	7.4625e+00	2.9823	6.879279	0.000496	4.963788	1.681777	0.000199
  77	7.5620e+00	3.0208	7.081136	0.000507	5.065089	1.716099	0.000203
  78	7.6615e+00	3.0609	7.222436	0.000355	3.545563	1.201269	0.000142
  79	7.7610e+00	3.0994	7.351624	0.000324	3.241657	1.098303	0.000130
  80	7.8605e+00	3.1411	7.509072	0.000395	3.950770	1.338557	0.000158
  81	7.9600e+00	3.1748	7.658446	0.000375	3.748166	1.269913	0.000150
  82	8.0595e+00	3.2181	7.803783	0.000365	3.646864	1.235591	0.000146
  83	8.1590e+00	3.2694	7.977380	0.000436	4.355977	1.475845	0.000174
  84	8.2585e+00	3.3079	8.082346	0.000263	2.633846	0.892371	0.000105
  85	8.3580e+00	3.3448	8.191348	0.000274	2.735148	0.926693	0.000110
  86	8.4575e+00	3.3865	8.332648	0.000355	3.545563	1.201269	0.000142
  87	8.5570e+00	3.4186	8.449725	0.000294	2.937752	0.995337	0.000118
  88	8.6565e+00	3.4667	8.647545	0.000496	4.963788	1.681777	0.000199
  89	8.7560e+00	3.4972	8.796919	0.000375	3.748166	1.269913	0.000150
  90	8.8555e+00	3.5421	8.938219	0.000355	3.545563	1.201269	0.000142
  91	8.9550e+00	3.5871	9.079518	0.000355	3.545563	1.201269	0.000142
  92	9.0545e+00	3.6095	9.204669	0.000314	3.140355	1.063981	0.000126
  93	9.1540e+00	3.6673	9.398452	0.000486	4.862486	1.647455	0.000195
  94	9.2535e+00	3.6978	9.503418	0.000263	2.633846	0.892371	0.000105
  95	9.3530e+00	3.7475	9.672977	0.000425	4.254675	1.441523	0.000170
  96	9.4525e+00	3.7796	9.765831	0.000233	2.329941	0.789405	0.000093
  97	9.5520e+00	3.8245	9.959614	0.000486	4.862486	1.647455	0.000195
  98	9.6515e+00	3.8534	10.072654	0.000284	2.836450	0.961015	0.000114
  99	9.7510e+00	3.9047	10.234139	0.000405	4.052071	1.372879	0.000162
 100	9.8505e+00	3.9352	10.347179	0.000284	2.836450	0.961015	0.000114
 101	9.9500e+00	3.9705	10.508664	0.000405	4.052071	1.372879	0.000162
 102	1.0050e+01	4.0202	10.662075	0.000385	3.849468	1.304235	0.000154
 103	1.0149e+01	4.0603	10.827598	0.000415	4.153373	1.407201	0.000166
 104	1.0248e+01	4.0956	10.916415	0.000223	2.228639	0.755083	0.000089
 105	1.0348e+01	4.1421	11.073863	0.000395	3.950770	1.338557	0.000158
 106	1.0447e+01	4.1838	11.243423	0.000425	4.254675	1.441523	0.000170
 107	1.0547e+01	4.2175	11.364537	0.000304	3.039054	1.029659	0.000122
 108	1.0646e+01	4.2673	11.493725	0.000324	3.241657	1.098303	0.000130
 109	1.0746e+01	4.2961	11.639062	0.000365	3.646864	1.235591	0.000146
 110	1.0845e+01	4.3443	11.735954	0.000243	2.431243	0.823727	0.000097
 111	1.0945e+01	4.3796	11.897439	0.000405	4.052071	1.372879	0.000162
 112	1.1044e+01	4.4245	12.095259	0.000496	4.963788	1.681777	0.000199
 113	1.1144e+01	4.4517	12.188113	0.000233	2.329941	0.789405	0.000093
 114	1.1243e+01	4.4983	12.361710	0.000436	4.355977	1.475845	0.000174
 115	1.1343e+01	4.5416	12.478787	0.000294	2.937752	0.995337	0.000118
 116	1.1443e+01	4.5801	12.591826	0.000284	2.836450	0.961015	0.000114
 117	1.1542e+01	4.6138	12.741200	0.000375	3.748166	1.269913	0.000150
 118	1.1642e+01	4.6571	12.878463	0.000344	3.444261	1.166947	0.000138
 119	1.1741e+01	4.6956	13.043986	0.000415	4.153373	1.407201	0.000166
 120	1.1841e+01	4.7373	13.173174	0.000324	3.241657	1.098303	0.000130
 121	1.1940e+01	4.7742	13.282177	0.000274	2.735148	0.926693	0.000110
 122	1.2040e+01	4.8191	13.443662	0.000405	4.052071	1.372879	0.000162
 123	1.2139e+01	4.8464	13.568813	0.000314	3.140355	1.063981	0.000126
 124	1.2239e+01	4.9041	13.689927	0.000304	3.039054	1.029659	0.000122
 125	1.2338e+01	4.9394	13.847376	0.000395	3.950770	1.338557	0.000158
 126	1.2438e+01	4.9795	13.980601	0.000334	3.342959	1.132625	0.000134
 127	1.2537e+01	5.0132	14.134012	0.000385	3.849468	1.304235	0.000154
 128	1.2636e+01	5.0565	14.263201	0.000324	3.241657	1.098303	0.000130
 129	1.2736e+01	5.0950	14.408537	0.000365	3.646864	1.235591	0.000146
 130	1.2835e+01	5.1335	14.533689	0.000314	3.140355	1.063981	0.000126
 131	1.2935e+01	5.1704	14.666914	0.000334	3.342959	1.132625	0.000134
 132	1.3034e+01	5.2138	14.808214	0.000355	3.545563	1.201269	0.000142
 133	1.3134e+01	5.2587	14.961625	0.000385	3.849468	1.304235	0.000154
 134	1.3233e+01	5.2956	15.086776	0.000314	3.140355	1.063981	0.000126
 135	1.3333e+01	5.3437	15.240187	0.000385	3.849468	1.304235	0.000154
 136	1.3432e+01	5.3710	15.357264	0.000294	2.937752	0.995337	0.000118
 137	1.3532e+01	5.4175	15.502601	0.000365	3.646864	1.235591	0.000146
 138	1.3632e+01	5.4560	15.635827	0.000334	3.342959	1.132625	0.000134
 139	1.3731e+01	5.4945	15.752904	0.000294	2.937752	0.995337	0.000118
 140	1.3831e+01	5.5282	15.882092	0.000324	3.241657	1.098303	0.000130
 141	1.3930e+01	5.5715	16.067800	0.000466	4.659882	1.578811	0.000187
 142	1.4030e+01	5.6100	16.180840	0.000284	2.836450	0.961015	0.000114
 143	1.4129e+01	5.6517	16.305991	0.000314	3.140355	1.063981	0.000126
 144	1.4229e+01	5.6918	16.455365	0.000375	3.748166	1.269913	0.000150
 145	1.4328e+01	5.7255	16.588591	0.000334	3.342959	1.132625	0.000134
 146	1.4428e+01	5.7784	16.709705	0.000304	3.039054	1.029659	0.000122
 147	1.4527e+01	5.8218	16.851005	0.000355	3.545563	1.201269	0.000142
 148	1.4627e+01	5.8522	16.960007	0.000274	2.735148	0.926693	0.000110
 149	1.4726e+01	5.8972	17.149753	0.000476	4.761184	1.613133	0.000191
 150	1.4825e+01	5.9357	17.266830	0.000294	2.937752	0.995337	0.000118
 151	1.4925e+01	5.9661	17.420241	0.000385	3.849468	1.304235	0.000154
 152	1.5024e+01	6.0079	17.525206	0.000263	2.633846	0.892371	0.000105
 153	1.5124e+01	6.0528	17.702840	0.000446	4.457279	1.510167	0.000179
 154	1.5223e+01	6.0929	17.799731	0.000243	2.431243	0.823727	0.000097
 155	1.5323e+01	6.1282	17.949105	0.000375	3.748166	1.269913	0.000150
 156	1.5422e+01	6.1667	18.122702	0.000436	4.355977	1.475845	0.000174
 157	1.5522e+01	6.2148	18.199408	0.000192	1.924734	0.652118	0.000077
 158	1.5621e+01	6.2485	18.364930	0.000415	4.153373	1.407201	0.000166
 159	1.5721e+01	6.2902	18.482007	0.000294	2.937752	0.995337	0.000118
 160	1.5820e+01	6.3271	18.635419	0.000385	3.849468	1.304235	0.000154
 161	1.5920e+01	6.3752	18.800941	0.000415	4.153373	1.407201	0.000166
 162	1.6020e+01	6.4057	18.897832	0.000243	2.431243	0.823727	0.000097
 163	1.6119e+01	6.4458	19.035095	0.000344	3.444261	1.166947	0.000138
 164	1.6218e+01	6.4859	19.164283	0.000324	3.241657	1.098303	0.000130
 165	1.6318e+01	6.5244	19.293472	0.000324	3.241657	1.098303	0.000130
 166	1.6418e+01	6.5725	19.398437	0.000263	2.633846	0.892371	0.000105
 167	1.6517e+01	6.6062	19.563960	0.000415	4.153373	1.407201	0.000166
 168	1.6616e+01	6.6576	19.677000	0.000284	2.836450	0.961015	0.000114
 169	1.6716e+01	6.6880	19.834448	0.000395	3.950770	1.338557	0.000158
 170	1.6816e+01	6.7330	19.963636	0.000324	3.241657	1.098303	0.000130
 171	1.6915e+01	6.7715	20.129159	0.000415	4.153373	1.407201	0.000166
 172	1.7015e+01	6.8212	20.234124	0.000263	2.633846	0.892371	0.000105
 173	1.7114e+01	6.8404	20.363313	0.000324	3.241657	1.098303	0.000130
 174	1.7213e+01	6.8870	20.504612	0.000355	3.545563	1.201269	0.000142
 175	1.7313e+01	6.9255	20.633801	0.000324	3.241657	1.098303	0.000130
 176	1.7413e+01	6.9624	20.734729	0.000253	2.532545	0.858049	0.000101
 177	1.7512e+01	7.0185	20.884103	0.000375	3.748166	1.269913	0.000150
 178	1.7611e+01	7.0378	21.001180	0.000294	2.937752	0.995337	0.000118
 179	1.7711e+01	7.0875	21.154591	0.000385	3.849468	1.304235	0.000154
 180	1.7811e+01	7.1164	21.279742	0.000314	3.140355	1.063981	0.000126
 181	1.7910e+01	7.1725	21.408931	0.000324	3.241657	1.098303	0.000130
 182	1.8009e+01	7.2094	21.594639	0.000466	4.659882	1.578811	0.000187
 183	1.8109e+01	7.2447	21.679419	0.000213	2.127338	0.720761	0.000085
 184	1.8209e+01	7.2832	21.816682	0.000344	3.444261	1.166947	0.000138
 185	1.8308e+01	7.3281	21.937796	0.000304	3.039054	1.029659	0.000122
 186	1.8407e+01	7.3634	22.083132	0.000365	3.646864	1.235591	0.000146
 187	1.8507e+01	7.4051	22.240581	0.000395	3.950770	1.338557	0.000158
 188	1.8607e+01	7.4485	22.305175	0.000162	1.620829	0.549152	0.000065
 189	1.8706e+01	7.4821	22.478772	0.000436	4.355977	1.475845	0.000174
 190	1.8805e+01	7.5287	22.648331	0.000425	4.254675	1.441523	0.000170
 191	1.8905e+01	7.5704	22.737148	0.000223	2.228639	0.755083	0.000089
 192	1.9005e+01	7.6089	22.862300	0.000314	3.140355	1.063981	0.000126
 193	1.9104e+01	7.6426	23.007637	0.000365	3.646864	1.235591	0.000146
 194	1.9203e+01	7.6779	23.161048	0.000385	3.849468	1.304235	0.000154
 195	1.9303e+01	7.7324	23.306385	0.000365	3.646864	1.235591	0.000146
 196	1.9402e+01	7.7597	23.439610	0.000334	3.342959	1.132625	0.000134
 197	1.9502e+01	7.7950	23.605133	0.000415	4.153373	1.407201	0.000166
 198	1.9602e+01	7.8527	23.710098	0.000263	2.633846	0.892371	0.000105
 199	1.9701e+01	7.8752	23.847361	0.000344	3.444261	1.166947	0.000138
 200	1.9800e+01	7.9329	23.984623	0.000344	3.444261	1.166947	0.000138
 201	1.9900e+01	7.9602	24.121886	0.000344	3.444261	1.166947	0.000138
 202	2.0000e+01	7.9987	24.267223	0.000365	3.646864	1.235591	0.000146
 203	2.0099e+01	8.0436	24.352003	0.000213	2.127338	0.720761	0.000085
 204	2.0198e+01	8.0837	24.493303	0.000355	3.545563	1.201269	0.000142
 205	2.0298e+01	8.1190	24.634602	0.000355	3.545563	1.201269	0.000142
 206	2.0398e+01	8.1591	24.759753	0.000314	3.140355	1.063981	0.000126
 207	2.0497e+01	8.2040	24.913165	0.000385	3.849468	1.304235	0.000154
 208	2.0596e+01	8.2458	25.070613	0.000395	3.950770	1.338557	0.000158
 209	2.0696e+01	8.2891	25.195764	0.000314	3.140355	1.063981	0.000126
 210	2.0796e+01	8.3163	25.345138	0.000375	3.748166	1.269913	0.000150
 211	2.0895e+01	8.3564	25.429918	0.000213	2.127338	0.720761	0.000085
 212	2.0994e+01	8.4014	25.555069	0.000314	3.140355	1.063981	0.000126
 213	2.1094e+01	8.4479	25.595441	0.000101	1.013018	0.343220	0.000041
 214	2.1194e+01	8.4752	25.635812	0.000101	1.013018	0.343220	0.000041
 215	2.1293e+01	8.5265	25.684258	0.000122	1.215621	0.411864	0.000049
 216	2.1392e+01	8.5570	25.777112	0.000233	2.329941	0.789405	0.000093
 217	2.1492e+01	8.6051	25.869966	0.000233	2.329941	0.789405	0.000093
 218	2.1591e+01	8.6388	25.999154	0.000324	3.241657	1.098303	0.000130
 219	2.1691e+01	8.6853	26.035488	0.000091	0.911716	0.308898	0.000037
 220	2.1791e+01	8.7254	26.092008	0.000142	1.418225	0.480508	0.000057
 221	2.1890e+01	8.7607	26.140454	0.000122	1.215621	0.411864	0.000049
 222	2.1989e+01	8.8008	26.192937	0.000132	1.316923	0.446186	0.000053
 223	2.2089e+01	8.8425	26.289828	0.000243	2.431243	0.823727	0.000097
 224	2.2189e+01	8.8810	26.398831	0.000274	2.735148	0.926693	0.000110
 225	2.2288e+01	8.9260	26.447276	0.000122	1.215621	0.411864	0.000049
 226	2.2387e+01	8.9564	26.511870	0.000162	1.620829	0.549152	0.000065
 227	2.2487e+01	8.9933	26.624910	0.000284	2.836450	0.961015	0.000114
 228	2.2587e+01	9.0447	26.632984	0.000020	0.202604	0.068644	0.000008
 229	2.2686e+01	9.0767	26.733913	0.000253	2.532545	0.858049	0.000101
 230	2.2785e+01	9.1104	26.842916	0.000274	2.735148	0.926693	0.000110
 231	2.2885e+01	9.1570	26.919621	0.000192	1.924734	0.652118	0.000077
 232	2.2985e+01	9.1939	27.044772	0.000314	3.140355	1.063981	0.000126
 233	2.3084e+01	9.2356	27.214332	0.000425	4.254675	1.441523	0.000170
 234	2.3183e+01	9.2821	27.371780	0.000395	3.950770	1.338557	0.000158
 235	2.3283e+01	9.3286	27.509043	0.000344	3.444261	1.166947	0.000138
 236	2.3383e+01	9.3543	27.670528	0.000405	4.052071	1.372879	0.000162
 237	2.3482e+01	9.4008	27.791642	0.000304	3.039054	1.029659	0.000122
 238	2.3581e+01	9.4329	27.989462	0.000496	4.963788	1.681777	0.000199
 239	2.3681e+01	9.4762	28.126725	0.000344	3.444261	1.166947	0.000138
 240	2.3780e+01	9.5179	28.268024	0.000355	3.545563	1.201269	0.000142
 241	2.3880e+01	9.5580	28.417398	0.000375	3.748166	1.269913	0.000150
 242	2.3980e+01	9.5917	28.590995	0.000436	4.355977	1.475845	0.000174
 243	2.4079e+01	9.6430	28.728258	0.000344	3.444261	1.166947	0.000138
 244	2.4178e+01	9.6719	28.873595	0.000365	3.646864	1.235591	0.000146
 245	2.4278e+01	9.7072	29.027006	0.000385	3.849468	1.304235	0.000154
 246	2.4378e+01	9.7521	29.156194	0.000324	3.241657	1.098303	0.000130
 247	2.4477e+01	9.8035	29.269234	0.000284	2.836450	0.961015	0.000114
 248	2.4576e+01	9.8339	29.442831	0.000436	4.355977	1.475845	0.000174
 249	2.4676e+01	9.8773	29.580094	0.000344	3.444261	1.166947	0.000138
 250	2.4776e+01	9.9126	29.749653	0.000425	4.254675	1.441523	0.000170
 251	2.4875e+01	9.9639	29.862693	0.000284	2.836450	0.961015	0.000114
 252	2.4974e+01	10.0040	29.979770	0.000294	2.937752	0.995337	0.000118
 253	2.5074e+01	10.0329	30.161441	0.000456	4.558580	1.544489	0.000183
 254	2.5174e+01	10.0698	30.250258	0.000223	2.228639	0.755083	0.000089
 255	2.5273e+01	10.1163	30.415781	0.000415	4.153373	1.407201	0.000166
 256	2.5372e+01	10.1516	30.589377	0.000436	4.355977	1.475845	0.000174
 257	2.5472e+01	10.1933	30.694343	0.000263	2.633846	0.892371	0.000105
 258	2.5572e+01	10.2414	30.847754	0.000385	3.849468	1.304235	0.000154
 259	2.5671e+01	10.2687	30.980980	0.000334	3.342959	1.132625	0.000134
 260	2.5770e+01	10.3152	31.122279	0.000355	3.545563	1.201269	0.000142
 261	2.5870e+01	10.3521	31.223208	0.000253	2.532545	0.858049	0.000101
 262	2.5970e+01	10.3970	31.368545	0.000365	3.646864	1.235591	0.000146
 263	2.6069e+01	10.4355	31.542142	0.000436	4.355977	1.475845	0.000174
 264	2.6169e+01	10.4724	31.651144	0.000274	2.735148	0.926693	0.000110
 265	2.6268e+01	10.5174	31.772258	0.000304	3.039054	1.029659	0.000122
 266	2.6367e+01	10.5510	31.970078	0.000496	4.963788	1.681777	0.000199
 267	2.6467e+01	10.5960	32.083118	0.000284	2.836450	0.961015	0.000114
 268	2.6567e+01	10.6313	32.220380	0.000344	3.444261	1.166947	0.000138
 269	2.6666e+01	10.6665	32.393977	0.000436	4.355977	1.475845	0.000174
 270	2.6765e+01	10.7131	32.490868	0.000243	2.431243	0.823727	0.000097
 271	2.6865e+01	10.7484	32.607945	0.000294	2.937752	0.995337	0.000118
 272	2.6965e+01	10.7949	32.753282	0.000365	3.646864	1.235591	0.000146
 273	2.7064e+01	10.8430	32.874396	0.000304	3.039054	1.029659	0.000122
 274	2.7163e+01	10.8735	33.027807	0.000385	3.849468	1.304235	0.000154
 275	2.7263e+01	10.8992	33.140847	0.000284	2.836450	0.961015	0.000114
 276	2.7363e+01	10.9585	33.298296	0.000395	3.950770	1.338557	0.000158
 277	2.7462e+01	10.9922	33.395187	0.000243	2.431243	0.823727	0.000097
 278	2.7561e+01	11.0307	33.536487	0.000355	3.545563	1.201269	0.000142
 279	2.7661e+01	11.0644	33.673749	0.000344	3.444261	1.166947	0.000138
 280	2.7761e+01	11.1093	33.823123	0.000375	3.748166	1.269913	0.000150
 281	2.7860e+01	11.1558	33.992683	0.000425	4.254675	1.441523	0.000170
 282	2.7959e+01	11.1879	34.109760	0.000294	2.937752	0.995337	0.000118
 283	2.8059e+01	11.2360	34.251060	0.000355	3.545563	1.201269	0.000142
 284	2.8159e+01	11.2729	34.380248	0.000324	3.241657	1.098303	0.000130
 285	2.8258e+01	11.3114	34.529622	0.000375	3.748166	1.269913	0.000150
 286	2.8358e+01	11.3564	34.687070	0.000395	3.950770	1.338557	0.000158
 287	2.8457e+01	11.3901	34.804147	0.000294	2.937752	0.995337	0.000118
 288	2.8556e+01	11.4302	34.905076	0.000253	2.532545	0.858049	0.000101
 289	2.8656e+01	11.4735	35.115007	0.000527	5.267693	1.784743	0.000211
 290	2.8756e+01	11.5120	35.232084	0.000294	2.937752	0.995337	0.000118
 291	2.8855e+01	11.5505	35.320901	0.000223	2.228639	0.755083	0.000089
 292	2.8954e+01	11.5954	35.502572	0.000456	4.558580	1.544489	0.000183
 293	2.9054e+01	11.6211	35.607537	0.000263	2.633846	0.892371	0.000105
 294	2.9154e+01	11.6740	35.752874	0.000365	3.646864	1.235591	0.000146
 295	2.9253e+01	11.7093	35.906285	0.000385	3.849468	1.304235	0.000154
 296	2.9352e+01	11.7526	36.011251	0.000263	2.633846	0.892371	0.000105
 297	2.9452e+01	11.7927	36.140439	0.000324	3.241657	1.098303	0.000130
 298	2.9552e+01	11.8264	36.285776	0.000365	3.646864	1.235591	0.000146
 299	2.9651e+01	11.8713	36.410927	0.000314	3.140355	1.063981	0.000126
 300	2.9750e+01	11.9050	36.560301	0.000375	3.748166	1.269913	0.000150
 301	2.9850e+01	11.9483	36.649118	0.000223	2.228639	0.755083	0.000089
 302	2.9950e+01	11.9932	36.798492	0.000375	3.748166	1.269913	0.000150
 303	3.0049e+01	12.0317	36.955941	0.000395	3.950770	1.338557	0.000158
 304	3.0148e+01	12.0751	37.097240	0.000355	3.545563	1.201269	0.000142
 305	3.0248e+01	12.1039	37.177983	0.000203	2.026036	0.686439	0.000081
 306	3.0348e+01	12.1424	37.291023	0.000284	2.836450	0.961015	0.000114
 307	3.0447e+01	12.1841	37.420211	0.000324	3.241657	1.098303	0.000130
 308	3.0547e+01	12.2210	37.597845	0.000446	4.457279	1.510167	0.000179
 309	3.0646e+01	12.2660	37.682625	0.000213	2.127338	0.720761	0.000085
 310	3.0745e+01	12.3077	37.799702	0.000294	2.937752	0.995337	0.000118
 311	3.0845e+01	12.3333	37.993484	0.000486	4.862486	1.647455	0.000195
 312	3.0945e+01	12.3831	38.078264	0.000213	2.127338	0.720761	0.000085
 313	3.1044e+01	12.4248	38.219564	0.000355	3.545563	1.201269	0.000142
 314	3.1143e+01	12.4729	38.328567	0.000274	2.735148	0.926693	0.000110
 315	3.1243e+01	12.5050	38.473904	0.000365	3.646864	1.235591	0.000146
 316	3.1343e+01	12.5563	38.586943	0.000284	2.836450	0.961015	0.000114
 317	3.1442e+01	12.5820	38.736317	0.000375	3.748166	1.269913	0.000150
 318	3.1541e+01	12.6301	38.841283	0.000263	2.633846	0.892371	0.000105
 319	3.1641e+01	12.6670	38.978546	0.000344	3.444261	1.166947	0.000138
 320	3.1741e+01	12.7103	39.087548	0.000274	2.735148	0.926693	0.000110
 321	3.1840e+01	12.7488	39.240959	0.000385	3.849468	1.304235	0.000154
 322	3.1939e+01	12.7922	39.362073	0.000304	3.039054	1.029659	0.000122
 323	3.2039e+01	12.8194	39.454928	0.000233	2.329941	0.789405	0.000093
 324	3.2139e+01	12.8659	39.596227	0.000355	3.545563	1.201269	0.000142
 325	3.2238e+01	12.9028	39.753676	0.000395	3.950770	1.338557	0.000158
 326	3.2337e+01	12.9365	39.886901	0.000334	3.342959	1.132625	0.000134
 327	3.2437e+01	12.9766	39.943421	0.000142	1.418225	0.480508	0.000057
 328	3.2536e+01	13.0200	40.072609	0.000324	3.241657	1.098303	0.000130
 329	3.2636e+01	13.0649	40.230058	0.000395	3.950770	1.338557	0.000158
 330	3.2736e+01	13.0954	40.355209	0.000314	3.140355	1.063981	0.000126
 331	3.2835e+01	13.1483	40.423840	0.000172	1.722130	0.583474	0.000069
 332	3.2934e+01	13.1756	40.609548	0.000466	4.659882	1.578811	0.000187
 333	3.3034e+01	13.2189	40.706440	0.000243	2.431243	0.823727	0.000097
 334	3.3133e+01	13.2606	40.851777	0.000365	3.646864	1.235591	0.000146
 335	3.3233e+01	13.2927	40.960779	0.000274	2.735148	0.926693	0.000110
 336	3.3333e+01	13.3392	41.037485	0.000192	1.924734	0.652118	0.000077
 337	3.3432e+01	13.3745	41.166673	0.000324	3.241657	1.098303	0.000130
 338	3.3532e+01	13.4290	41.328159	0.000405	4.052071	1.372879	0.000162
 339	3.3631e+01	13.4579	41.416976	0.000223	2.228639	0.755083	0.000089
 340	3.3730e+01	13.4820	41.534052	0.000294	2.937752	0.995337	0.000118
 341	3.3830e+01	13.5301	41.707649	0.000436	4.355977	1.475845	0.000174
 342	3.3929e+01	13.5782	41.780318	0.000182	1.823432	0.617796	0.000073
 343	3.4029e+01	13.6231	41.877209	0.000243	2.431243	0.823727	0.000097
 344	3.4129e+01	13.6633	42.038694	0.000405	4.052071	1.372879	0.000162
 345	3.4228e+01	13.6985	42.135586	0.000243	2.431243	0.823727	0.000097
 346	3.4328e+01	13.7370	42.272848	0.000344	3.444261	1.166947	0.000138
 347	3.4427e+01	13.7852	42.389925	0.000294	2.937752	0.995337	0.000118
 348	3.4526e+01	13.8221	42.502965	0.000284	2.836450	0.961015	0.000114
 349	3.4626e+01	13.8670	42.620042	0.000294	2.937752	0.995337	0.000118
 350	3.4725e+01	13.8943	42.716933	0.000243	2.431243	0.823727	0.000097
 351	3.4825e+01	13.9376	42.858233	0.000355	3.545563	1.201269	0.000142
 352	3.4925e+01	13.9793	42.967236	0.000274	2.735148	0.926693	0.000110
 353	3.5024e+01	14.0178	43.100461	0.000334	3.342959	1.132625	0.000134
 354	3.5123e+01	14.0595	43.253872	0.000385	3.849468	1.304235	0.000154
 355	3.5223e+01	14.0900	43.387098	0.000334	3.342959	1.132625	0.000134
 356	3.5322e+01	14.1333	43.520323	0.000334	3.342959	1.132625	0.000134
 357	3.5422e+01	14.1782	43.625289	0.000263	2.633846	0.892371	0.000105
 358	3.5522e+01	14.2199	43.726217	0.000253	2.532545	0.858049	0.000101
 359	3.5621e+01	14.2440	43.867517	0.000355	3.545563	1.201269	0.000142
 360	3.5721e+01	14.2937	44.024965	0.000395	3.950770	1.338557	0.000158
 361	3.5820e+01	14.3354	44.073411	0.000122	1.215621	0.411864	0.000049
 362	3.5919e+01	14.3739	44.226822	0.000385	3.849468	1.304235	0.000154
 363	3.6019e+01	14.4188	44.343899	0.000294	2.937752	0.995337	0.000118
 364	3.6118e+01	14.4590	44.473087	0.000324	3.241657	1.098303	0.000130
 365	3.6218e+01	14.4975	44.586127	0.000284	2.836450	0.961015	0.000114
 366	3.6318e+01	14.5408	44.723390	0.000344	3.444261	1.166947	0.000138
 367	3.6417e+01	14.5696	44.820281	0.000243	2.431243	0.823727	0.000097
 368	3.6517e+01	14.6178	44.997915	0.000446	4.457279	1.510167	0.000179
 369	3.6616e+01	14.6482	45.098843	0.000253	2.532545	0.858049	0.000101
 370	3.6715e+01	14.6916	45.256292	0.000395	3.950770	1.338557	0.000158
 371	3.6815e+01	14.7301	45.377406	0.000304	3.039054	1.029659	0.000122
 372	3.6914e+01	14.7782	45.518705	0.000355	3.545563	1.201269	0.000142
 373	3.7014e+01	14.8135	45.631745	0.000284	2.836450	0.961015	0.000114
 374	3.7114e+01	14.8520	45.704414	0.000182	1.823432	0.617796	0.000073
 375	3.7213e+01	14.9001	45.857825	0.000385	3.849468	1.304235	0.000154
 376	3.7313e+01	14.9290	45.962790	0.000263	2.633846	0.892371	0.000105
 377	3.7412e+01	14.9771	46.079867	0.000294	2.937752	0.995337	0.000118
 378	3.7511e+01	15.0140	46.196944	0.000294	2.937752	0.995337	0.000118
 379	3.7611e+01	15.0557	46.314021	0.000294	2.937752	0.995337	0.000118
 380	3.7711e+01	15.0862	46.394764	0.000203	2.026036	0.686439	0.000081
 381	3.7810e+01	15.1295	46.483581	0.000223	2.228639	0.755083	0.000089
 382	3.7910e+01	15.1776	46.628918	0.000365	3.646864	1.235591	0.000146
 383	3.8009e+01	15.2145	46.713698	0.000213	2.127338	0.720761	0.000085
 384	3.8108e+01	15.2530	46.818663	0.000263	2.633846	0.892371	0.000105
 385	3.8208e+01	15.2851	46.943814	0.000314	3.140355	1.063981	0.000126
 386	3.8307e+01	15.3381	47.081077	0.000344	3.444261	1.166947	0.000138
 387	3.8407e+01	15.3621	47.266785	0.000466	4.659882	1.578811	0.000187
 388	3.8507e+01	15.4022	47.367714	0.000253	2.532545	0.858049	0.000101
 389	3.8606e+01	15.4536	47.488828	0.000304	3.039054	1.029659	0.000122
 390	3.8706e+01	15.5049	47.650313	0.000405	4.052071	1.372879	0.000162
 391	3.8805e+01	15.5354	47.791613	0.000355	3.545563	1.201269	0.000142
 392	3.8904e+01	15.5755	47.916764	0.000314	3.140355	1.063981	0.000126
 393	3.9004e+01	15.6108	48.138807	0.000557	5.571598	1.887709	0.000223
 394	3.9103e+01	15.6445	48.284143	0.000365	3.646864	1.235591	0.000146
 395	3.9203e+01	15.6878	48.312403	0.000071	0.709113	0.240254	0.000028
 396	3.9303e+01	15.7391	48.461777	0.000375	3.748166	1.269913	0.000150
 397	3.9402e+01	15.7760	48.538483	0.000192	1.924734	0.652118	0.000077
 398	3.9502e+01	15.8081	48.687857	0.000375	3.748166	1.269913	0.000150
 399	3.9601e+01	15.8418	48.760525	0.000182	1.823432	0.617796	0.000073
 400	3.9700e+01	15.9012	48.905862	0.000365	3.646864	1.235591	0.000146
 401	3.9800e+01	15.9268	48.978531	0.000182	1.823432	0.617796	0.000073
 402	3.9900e+01	15.9669	49.103682	0.000314	3.140355	1.063981	0.000126
 403	3.9999e+01	16.0151	49.240945	0.000344	3.444261	1.166947	0.000138
 404	4.0099e+01	16.0568	49.362059	0.000304	3.039054	1.029659	0.000122
 405	4.0198e+01	16.0872	49.430690	0.000172	1.722130	0.583474	0.000069
 406	4.0297e+01	16.1306	49.656770	0.000567	5.672900	1.922031	0.000227
 407	4.0397e+01	16.1659	50.048372	0.000983	9.826273	3.329232	0.000394
 408	4.0496e+01	16.2108	50.339046	0.000729	7.293729	2.471182	0.000292
 409	4.0596e+01	16.2557	50.540902	0.000507	5.065089	1.716099	0.000203
 410	4.0696e+01	16.2878	50.702388	0.000405	4.052071	1.372879	0.000162
 411	4.0795e+01	16.3327	50.831576	0.000324	3.241657	1.098303	0.000130
 412	4.0895e+01	16.3696	50.940579	0.000274	2.735148	0.926693	0.000110
 413	4.0994e+01	16.4033	51.077841	0.000344	3.444261	1.166947	0.000138
 414	4.1093e+01	16.4498	51.219141	0.000355	3.545563	1.201269	0.000142
 415	4.1193e+01	16.4899	51.328144	0.000274	2.735148	0.926693	0.000110
 416	4.1292e+01	16.5300	51.437146	0.000274	2.735148	0.926693	0.000110
 417	4.1392e+01	16.5733	51.525963	0.000223	2.228639	0.755083	0.000089
 418	4.1492e+01	16.6054	51.651115	0.000314	3.140355	1.063981	0.000126
 419	4.1591e+01	16.6519	51.788377	0.000344	3.444261	1.166947	0.000138
 420	4.1691e+01	16.6872	51.945826	0.000395	3.950770	1.338557	0.000158
 421	4.1790e+01	16.7273	52.038680	0.000233	2.329941	0.789405	0.000093
 422	4.1889e+01	16.7706	52.188054	0.000375	3.748166	1.269913	0.000150
 423	4.1989e+01	16.8108	52.284945	0.000243	2.431243	0.823727	0.000097
 424	4.2089e+01	16.8477	52.442393	0.000395	3.950770	1.338557	0.000158
 425	4.2188e+01	16.8846	52.539284	0.000243	2.431243	0.823727	0.000097
 426	4.2288e+01	16.9343	52.696733	0.000395	3.950770	1.338557	0.000158
 427	4.2387e+01	16.9632	52.777476	0.000203	2.026036	0.686439	0.000081
 428	4.2486e+01	16.9936	52.930887	0.000385	3.849468	1.304235	0.000154
 429	4.2586e+01	17.0434	53.076224	0.000365	3.646864	1.235591	0.000146
 430	4.2685e+01	17.0899	53.189263	0.000284	2.836450	0.961015	0.000114
 431	4.2785e+01	17.1284	53.310377	0.000304	3.039054	1.029659	0.000122
 432	4.2885e+01	17.1669	53.407269	0.000243	2.431243	0.823727	0.000097
 433	4.2984e+01	17.2022	53.532420	0.000314	3.140355	1.063981	0.000126
 434	4.3084e+01	17.2535	53.673720	0.000355	3.545563	1.201269	0.000142
 435	4.3183e+01	17.2824	53.782722	0.000274	2.735148	0.926693	0.000110
 436	4.3282e+01	17.3321	53.911911	0.000324	3.241657	1.098303	0.000130
 437	4.3382e+01	17.3562	54.016876	0.000263	2.633846	0.892371	0.000105
 438	4.3481e+01	17.4043	54.133953	0.000294	2.937752	0.995337	0.000118
 439	4.3581e+01	17.4492	54.246993	0.000284	2.836450	0.961015	0.000114
 440	4.3681e+01	17.4845	54.384256	0.000344	3.444261	1.166947	0.000138
 441	4.3780e+01	17.5246	54.509407	0.000314	3.140355	1.063981	0.000126
 442	4.3880e+01	17.5647	54.618409	0.000274	2.735148	0.926693	0.000110
 443	4.3979e+01	17.6016	54.771821	0.000385	3.849468	1.304235	0.000154
 444	4.4078e+01	17.6417	54.864675	0.000233	2.329941	0.789405	0.000093
 445	4.4178e+01	17.6915	54.985789	0.000304	3.039054	1.029659	0.000122
 446	4.4278e+01	17.7252	55.074606	0.000223	2.228639	0.755083	0.000089
 447	4.4377e+01	17.7653	55.223980	0.000375	3.748166	1.269913	0.000150
 448	4.4477e+01	17.7974	55.312797	0.000223	2.228639	0.755083	0.000089
 449	4.4576e+01	17.8391	55.433911	0.000304	3.039054	1.029659	0.000122
 450	4.4675e+01	17.8792	55.559062	0.000314	3.140355	1.063981	0.000126
 451	4.4775e+01	17.9225	55.676139	0.000294	2.937752	0.995337	0.000118
 452	4.4874e+01	17.9610	55.805327	0.000324	3.241657	1.098303	0.000130
 453	4.4974e+01	18.0043	55.877996	0.000182	1.823432	0.617796	0.000073
 454	4.5074e+01	18.0444	56.015258	0.000344	3.444261	1.166947	0.000138
 455	4.5173e+01	18.0749	56.136372	0.000304	3.039054	1.029659	0.000122
 456	4.5273e+01	18.1278	56.237301	0.000253	2.532545	0.858049	0.000101
 457	4.5372e+01	18.1599	56.390712	0.000385	3.849468	1.304235	0.000154
 458	4.5471e+01	18.2032	56.467418	0.000192	1.924734	0.652118	0.000077
 459	4.5571e+01	18.2465	56.592569	0.000314	3.140355	1.063981	0.000126
 460	4.5670e+01	18.2770	56.709646	0.000294	2.937752	0.995337	0.000118
 461	4.5770e+01	18.3187	56.846908	0.000344	3.444261	1.166947	0.000138
 462	4.5870e+01	18.3653	56.935725	0.000223	2.228639	0.755083	0.000089
 463	4.5969e+01	18.4086	57.052802	0.000294	2.937752	0.995337	0.000118
 464	4.6069e+01	18.4423	57.157768	0.000263	2.633846	0.892371	0.000105
 465	4.6168e+01	18.4824	57.311179	0.000385	3.849468	1.304235	0.000154
 466	4.6267e+01	18.5209	57.347513	0.000091	0.911716	0.308898	0.000037
 467	4.6367e+01	18.5690	57.492850	0.000365	3.646864	1.235591	0.000146
 468	4.6467e+01	18.6027	57.605890	0.000284	2.836450	0.961015	0.000114
 469	4.6566e+01	18.6428	57.718930	0.000284	2.836450	0.961015	0.000114
 470	4.6666e+01	18.6749	57.880415	0.000405	4.052071	1.372879	0.000162
 471	4.6765e+01	18.7182	57.916749	0.000091	0.911716	0.308898	0.000037
 472	4.6864e+01	18.7695	58.066123	0.000375	3.748166	1.269913	0.000150
 473	4.6964e+01	18.8000	58.203386	0.000344	3.444261	1.166947	0.000138
 474	4.7063e+01	18.8433	58.288166	0.000213	2.127338	0.720761	0.000085
 475	4.7163e+01	18.8738	58.368909	0.000203	2.026036	0.686439	0.000081
 476	4.7263e+01	18.9235	58.534431	0.000415	4.153373	1.407201	0.000166
 477	4.7362e+01	18.9556	58.594988	0.000152	1.519527	0.514830	0.000061
 478	4.7462e+01	18.9893	58.740325	0.000365	3.646864	1.235591	0.000146
 479	4.7561e+01	19.0455	58.865476	0.000314	3.140355	1.063981	0.000126
 480	4.7660e+01	19.0840	58.938145	0.000182	1.823432	0.617796	0.000073
 481	4.7760e+01	19.1225	59.047147	0.000274	2.735148	0.926693	0.000110
 482	4.7859e+01	19.1610	59.148076	0.000253	2.532545	0.858049	0.000101
 483	4.7959e+01	19.2123	59.293413	0.000365	3.646864	1.235591	0.000146
 484	4.8059e+01	19.2412	59.398378	0.000263	2.633846	0.892371	0.000105
 485	4.8158e+01	19.2845	59.511418	0.000284	2.836450	0.961015	0.000114
 486	4.8258e+01	19.3150	59.640606	0.000324	3.241657	1.098303	0.000130
 487	4.8357e+01	19.3519	59.737498	0.000243	2.431243	0.823727	0.000097
 488	4.8456e+01	19.3984	59.818240	0.000203	2.026036	0.686439	0.000081
 489	4.8556e+01	19.4321	59.943391	0.000314	3.140355	1.063981	0.000126
 490	4.8656e+01	19.4738	60.040283	0.000243	2.431243	0.823727	0.000097
 491	4.8755e+01	19.5219	60.177545	0.000344	3.444261	1.166947	0.000138
 492	4.8855e+01	19.5508	60.290585	0.000284	2.836450	0.961015	0.000114
 493	4.8954e+01	19.5957	60.391514	0.000253	2.532545	0.858049	0.000101
 494	4.9053e+01	19.6262	60.508590	0.000294	2.937752	0.995337	0.000118
 495	4.9153e+01	19.6711	60.621630	0.000284	2.836450	0.961015	0.000114
 496	4.9252e+01	19.7192	60.726596	0.000263	2.633846	0.892371	0.000105
 497	4.9352e+01	19.7625	60.827524	0.000253	2.532545	0.858049	0.000101
 498	4.9452e+01	19.8043	60.924415	0.000243	2.431243	0.823727	0.000097
 499	4.9551e+01	19.8428	61.021307	0.000243	2.431243	0.823727	0.000097
 500	4.9651e+01	19.8780	61.150495	0.000324	3.241657	1.098303	0.000130
 501	4.9750e+01	19.9262	61.275646	0.000314	3.140355	1.063981	0.000126
 502	4.9849e+01	19.9567	61.364463	0.000223	2.228639	0.755083	0.000089
 503	4.9949e+01	20.0000	61.477503	0.000284	2.836450	0.961015	0.000114
 504	5.0048e+01	19.9567	61.404835	0.000182	1.823432	0.617796	-0.000073
 505	5.0148e+01	19.9053	61.320055	0.000213	2.127338	0.720761	-0.000085
 506	5.0248e+01	19.8845	61.223163	0.000243	2.431243	0.823727	-0.000097
 507	5.0347e+01	19.8379	61.138384	0.000213	2.127338	0.720761	-0.000085
 508	5.0447e+01	19.7962	61.085901	0.000132	1.316923	0.446186	-0.000053
 509	5.0546e+01	19.7561	60.968824	0.000294	2.937752	0.995337	-0.000118
 510	5.0645e+01	19.7096	60.884044	0.000213	2.127338	0.720761	-0.000085
 511	5.0745e+01	19.6823	60.799264	0.000213	2.127338	0.720761	-0.000085
 512	5.0844e+01	19.6230	60.706410	0.000233	2.329941	0.789405	-0.000093
 513	5.0944e+01	19.6005	60.613556	0.000233	2.329941	0.789405	-0.000093
 514	5.1044e+01	19.5588	60.524739	0.000223	2.228639	0.755083	-0.000089
 515	5.1143e+01	19.5155	60.448033	0.000192	1.924734	0.652118	-0.000077
 516	5.1242e+01	19.4786	60.330956	0.000294	2.937752	0.995337	-0.000118
 517	5.1342e+01	19.4369	60.246177	0.000213	2.127338	0.720761	-0.000085
 518	5.1441e+01	19.3936	60.165434	0.000203	2.026036	0.686439	-0.000081
 519	5.1541e+01	19.3599	60.092765	0.000182	1.823432	0.617796	-0.000073
 520	5.1641e+01	19.3198	59.967614	0.000314	3.140355	1.063981	-0.000126
 521	5.1740e+01	19.2781	59.894946	0.000182	1.823432	0.617796	-0.000073
 522	5.1840e+01	19.2380	59.773832	0.000304	3.039054	1.029659	-0.000122
 523	5.1939e+01	19.1898	59.685015	0.000223	2.228639	0.755083	-0.000089
 524	5.2038e+01	19.1658	59.612346	0.000182	1.823432	0.617796	-0.000073
 525	5.2138e+01	19.1225	59.531604	0.000203	2.026036	0.686439	-0.000081
 526	5.2237e+01	19.0807	59.418564	0.000284	2.836450	0.961015	-0.000114
 527	5.2337e+01	19.0390	59.317635	0.000253	2.532545	0.858049	-0.000101
 528	5.2437e+01	19.0037	59.261115	0.000142	1.418225	0.480508	-0.000057
 529	5.2536e+01	18.9556	59.111741	0.000375	3.748166	1.269913	-0.000150
 530	5.2636e+01	18.9171	59.026962	0.000213	2.127338	0.720761	-0.000085
 531	5.2735e+01	18.8786	58.934108	0.000233	2.329941	0.789405	-0.000093
 532	5.2834e+01	18.8433	58.861439	0.000182	1.823432	0.617796	-0.000073
 533	5.2934e+01	18.8080	58.760511	0.000253	2.532545	0.858049	-0.000101
 534	5.3033e+01	18.7567	58.663619	0.000243	2.431243	0.823727	-0.000097
 535	5.3133e+01	18.7262	58.594988	0.000172	1.722130	0.583474	-0.000069
 536	5.3233e+01	18.6877	58.510208	0.000213	2.127338	0.720761	-0.000085
 537	5.3332e+01	18.6380	58.368909	0.000355	3.545563	1.201269	-0.000142
 538	5.3431e+01	18.6091	58.292203	0.000192	1.924734	0.652118	-0.000077
 539	5.3531e+01	18.5642	58.203386	0.000223	2.228639	0.755083	-0.000089
 540	5.3630e+01	18.5209	58.163015	0.000101	1.013018	0.343220	-0.000041
 541	5.3730e+01	18.4872	58.037863	0.000314	3.140355	1.063981	-0.000126
 542	5.3830e+01	18.4439	57.969232	0.000172	1.722130	0.583474	-0.000069
 543	5.3929e+01	18.4150	57.856192	0.000284	2.836450	0.961015	-0.000114
 544	5.4029e+01	18.3749	57.759301	0.000243	2.431243	0.823727	-0.000097
 545	5.4128e+01	18.3219	57.658373	0.000253	2.532545	0.858049	-0.000101
 546	5.4227e+01	18.2818	57.577630	0.000203	2.026036	0.686439	-0.000081
 547	5.4327e+01	18.2433	57.557444	0.000051	0.506509	0.171610	-0.000020
 548	5.4426e+01	18.2032	57.529184	0.000071	0.709113	0.240254	-0.000028
 549	5.4526e+01	18.1599	57.448442	0.000203	2.026036	0.686439	-0.000081
 550	5.4626e+01	18.1166	57.359625	0.000223	2.228639	0.755083	-0.000089
 551	5.4725e+01	18.0877	57.266770	0.000233	2.329941	0.789405	-0.000093
 552	5.4825e+01	18.0412	57.218325	0.000122	1.215621	0.411864	-0.000049
 553	5.4924e+01	17.9979	57.153731	0.000162	1.620829	0.549152	-0.000065
 554	5.5023e+01	17.9610	57.137582	0.000041	0.405207	0.137288	-0.000016
 555	5.5123e+01	17.9257	57.081062	0.000142	1.418225	0.480508	-0.000057
 556	5.5222e+01	17.8824	57.048765	0.000081	0.810414	0.274576	-0.000032
 557	5.5322e+01	17.8407	56.980134	0.000172	1.722130	0.583474	-0.000069
 558	5.5422e+01	17.7942	56.955911	0.000061	0.607811	0.205932	-0.000024
 559	5.5521e+01	17.7621	56.883243	0.000182	1.823432	0.617796	-0.000073
 560	5.5620e+01	17.7236	56.778277	0.000263	2.633846	0.892371	-0.000105
 561	5.5720e+01	17.6899	56.681386	0.000243	2.431243	0.823727	-0.000097
 562	5.5819e+01	17.6401	56.523937	0.000395	3.950770	1.338557	-0.000158
 563	5.5919e+01	17.6016	56.491640	0.000081	0.810414	0.274576	-0.000032
 564	5.6019e+01	17.5663	56.503752	-0.000030	-0.303905	-0.102966	0.000012
 565	5.6118e+01	17.5278	56.451269	0.000132	1.316923	0.446186	-0.000053
 566	5.6218e+01	17.4910	56.370526	0.000203	2.026036	0.686439	-0.000081
 567	5.6317e+01	17.4412	56.362452	0.000020	0.202604	0.068644	-0.000008
 568	5.6416e+01	17.4107	56.358415	0.000010	0.101302	0.034322	-0.000004
 569	5.6516e+01	17.3706	55.405651	0.002391	23.907222	8.099986	-0.000958
 570	5.6615e+01	17.3257	55.300685	0.000263	2.633846	0.892371	-0.000105
 571	5.6715e+01	17.2808	55.195720	0.000263	2.633846	0.892371	-0.000105
 572	5.6815e+01	17.2423	55.098829	0.000243	2.431243	0.823727	-0.000097
 573	5.6914e+01	17.2070	54.981752	0.000294	2.937752	0.995337	-0.000118
 574	5.7014e+01	17.1669	54.913120	0.000172	1.722130	0.583474	-0.000069
 575	5.7113e+01	17.1252	54.787969	0.000314	3.140355	1.063981	-0.000126
 576	5.7212e+01	17.0883	54.666855	0.000304	3.039054	1.029659	-0.000122
 577	5.7312e+01	17.0418	54.590149	0.000192	1.924734	0.652118	-0.000077
 578	5.7411e+01	17.0145	54.541704	0.000122	1.215621	0.411864	-0.000049
 579	5.7511e+01	16.9696	54.404441	0.000344	3.444261	1.166947	-0.000138
 580	5.7611e+01	16.9150	54.307550	0.000243	2.431243	0.823727	-0.000097
 581	5.7710e+01	16.8846	54.255067	0.000132	1.316923	0.446186	-0.000053
 582	5.7809e+01	16.8460	54.093582	0.000405	4.052071	1.372879	-0.000162
 583	5.7909e+01	16.8043	54.037062	0.000142	1.418225	0.480508	-0.000057
 584	5.8008e+01	16.7803	53.911911	0.000314	3.140355	1.063981	-0.000126
 585	5.8108e+01	16.7338	53.839242	0.000182	1.823432	0.617796	-0.000073
 586	5.8208e+01	16.6808	53.738314	0.000253	2.532545	0.858049	-0.000101
 587	5.8307e+01	16.6471	53.592977	0.000365	3.646864	1.235591	-0.000146
 588	5.8407e+01	16.5990	53.548568	0.000111	1.114320	0.377542	-0.000045
 589	5.8506e+01	16.5701	53.419380	0.000324	3.241657	1.098303	-0.000130
 590	5.8605e+01	16.5252	53.306340	0.000284	2.836450	0.961015	-0.000114
 591	5.8705e+01	16.4835	53.249820	0.000142	1.418225	0.480508	-0.000057
 592	5.8804e+01	16.4530	53.156966	0.000233	2.329941	0.789405	-0.000093
 593	5.8904e+01	16.3969	53.047964	0.000274	2.735148	0.926693	-0.000110
 594	5.9004e+01	16.3680	52.983369	0.000162	1.620829	0.549152	-0.000065
 595	5.9103e+01	16.3215	52.886478	0.000243	2.431243	0.823727	-0.000097
 596	5.9203e+01	16.2878	52.793624	0.000233	2.329941	0.789405	-0.000093
 597	5.9302e+01	16.2621	52.692696	0.000253	2.532545	0.858049	-0.000101
 598	5.9401e+01	16.2092	52.591767	0.000253	2.532545	0.858049	-0.000101
 599	5.9501e+01	16.1642	52.466616	0.000314	3.140355	1.063981	-0.000126
 600	5.9600e+01	16.1290	52.377799	0.000223	2.228639	0.755083	-0.000089
 601	5.9700e+01	16.0840	52.268796	0.000274	2.735148	0.926693	-0.000110
 602	5.9800e+01	16.0455	52.163831	0.000263	2.633846	0.892371	-0.000105
 603	5.9899e+01	16.0086	52.050791	0.000284	2.836450	0.961015	-0.000114
 604	5.9998e+01	15.9685	51.994271	0.000142	1.418225	0.480508	-0.000057
 605	6.0098e+01	15.9316	51.881231	0.000284	2.836450	0.961015	-0.000114
 606	6.0197e+01	15.8996	51.792414	0.000223	2.228639	0.755083	-0.000089
 607	6.0297e+01	15.8530	51.695523	0.000243	2.431243	0.823727	-0.000097
 608	6.0397e+01	15.8129	51.598632	0.000243	2.431243	0.823727	-0.000097
 609	6.0496e+01	15.7712	51.489629	0.000274	2.735148	0.926693	-0.000110
 610	6.0596e+01	15.7343	51.380627	0.000274	2.735148	0.926693	-0.000110
 611	6.0695e+01	15.6926	51.283735	0.000243	2.431243	0.823727	-0.000097
 612	6.0794e+01	15.6509	51.186844	0.000243	2.431243	0.823727	-0.000097
 613	6.0894e+01	15.6156	51.098027	0.000223	2.228639	0.755083	-0.000089
 614	6.0993e+01	15.5707	50.989024	0.000274	2.735148	0.926693	-0.000110
 615	6.1093e+01	15.5306	50.867910	0.000304	3.039054	1.029659	-0.000122
 616	6.1193e+01	15.4857	50.766982	0.000253	2.532545	0.858049	-0.000101
 617	6.1292e+01	15.4488	50.657979	0.000274	2.735148	0.926693	-0.000110
 618	6.1392e+01	15.4071	50.581274	0.000192	1.924734	0.652118	-0.000077
 619	6.1491e+01	15.3766	50.476308	0.000263	2.633846	0.892371	-0.000105
 620	6.1590e+01	15.3317	50.379417	0.000243	2.431243	0.823727	-0.000097
 621	6.1690e+01	15.2835	50.250229	0.000324	3.241657	1.098303	-0.000130
 622	6.1789e+01	15.2611	50.125077	0.000314	3.140355	1.063981	-0.000126
 623	6.1889e+01	15.2145	50.044335	0.000203	2.026036	0.686439	-0.000081
 624	6.1989e+01	15.1760	49.935332	0.000274	2.735148	0.926693	-0.000110
 625	6.2088e+01	15.1343	49.818255	0.000294	2.937752	0.995337	-0.000118
 626	6.2188e+01	15.1022	49.680992	0.000344	3.444261	1.166947	-0.000138
 627	6.2287e+01	15.0557	49.592175	0.000223	2.228639	0.755083	-0.000089
 628	6.2386e+01	15.0108	49.483173	0.000274	2.735148	0.926693	-0.000110
 629	6.2486e+01	14.9691	49.398393	0.000213	2.127338	0.720761	-0.000085
 630	6.2586e+01	14.9258	49.289390	0.000274	2.735148	0.926693	-0.000110
 631	6.2685e+01	14.8905	49.204610	0.000213	2.127338	0.720761	-0.000085
 632	6.2785e+01	14.8552	49.055236	0.000375	3.748166	1.269913	-0.000150
 633	6.2884e+01	14.8167	48.922011	0.000334	3.342959	1.132625	-0.000134
 634	6.2983e+01	14.7846	48.881640	0.000101	1.013018	0.343220	-0.000041
 635	6.3083e+01	14.7285	48.728228	0.000385	3.849468	1.304235	-0.000154
 636	6.3182e+01	14.7092	48.631337	0.000243	2.431243	0.823727	-0.000097
 637	6.3282e+01	14.6499	48.510223	0.000304	3.039054	1.029659	-0.000122
 638	6.3382e+01	14.6194	48.413332	0.000243	2.431243	0.823727	-0.000097
 639	6.3481e+01	14.5616	48.304329	0.000274	2.735148	0.926693	-0.000110
 640	6.3581e+01	14.5295	48.215512	0.000223	2.228639	0.755083	-0.000089
 641	6.3680e+01	14.4910	48.090361	0.000314	3.140355	1.063981	-0.000126
 642	6.3779e+01	14.4541	47.993470	0.000243	2.431243	0.823727	-0.000097
 643	6.3879e+01	14.4188	47.844096	0.000375	3.748166	1.269913	-0.000150
 644	6.3978e+01	14.3787	47.755279	0.000223	2.228639	0.755083	-0.000089
 645	6.4078e+01	14.3338	47.759316	-0.000010	-0.101302	-0.034322	0.000004
 646	6.4177e+01	14.2985	47.690684	0.000172	1.722130	0.583474	-0.000069
 647	6.4277e+01	14.2552	47.674536	0.000041	0.405207	0.137288	-0.000016
 648	6.4376e+01	14.2151	47.626090	0.000122	1.215621	0.411864	-0.000049
 649	6.4476e+01	14.1830	47.557459	0.000172	1.722130	0.583474	-0.000069
 650	6.4576e+01	14.1349	47.412122	0.000365	3.646864	1.235591	-0.000146
 651	6.4675e+01	14.0932	47.242562	0.000425	4.254675	1.441523	-0.000170
 652	6.4775e+01	14.0595	47.089151	0.000385	3.849468	1.304235	-0.000154
 653	6.4874e+01	14.0178	46.972074	0.000294	2.937752	0.995337	-0.000118
 654	6.4974e+01	13.9825	46.846923	0.000314	3.140355	1.063981	-0.000126
 655	6.5073e+01	13.9392	46.774255	0.000182	1.823432	0.617796	-0.000073
 656	6.5172e+01	13.8975	46.693512	0.000203	2.026036	0.686439	-0.000081
 657	6.5272e+01	13.8622	46.649103	0.000111	1.114320	0.377542	-0.000045
 658	6.5371e+01	13.8173	46.527989	0.000304	3.039054	1.029659	-0.000122
 659	6.5471e+01	13.7755	46.366504	0.000405	4.052071	1.372879	-0.000162
 660	6.5570e+01	13.7386	46.152536	0.000537	5.368995	1.819065	-0.000215
 661	6.5670e+01	13.6969	46.027385	0.000314	3.140355	1.063981	-0.000126
 662	6.5769e+01	13.6600	45.962790	0.000162	1.620829	0.549152	-0.000065
 663	6.5869e+01	13.6231	45.882048	0.000203	2.026036	0.686439	-0.000081
 664	6.5969e+01	13.5798	45.837639	0.000111	1.114320	0.377542	-0.000045
 665	6.6068e+01	13.5269	45.720562	0.000294	2.937752	0.995337	-0.000118
 666	6.6168e+01	13.4948	45.696339	0.000061	0.607811	0.205932	-0.000024
 667	6.6267e+01	13.4563	45.631745	0.000162	1.620829	0.549152	-0.000065
 668	6.6367e+01	13.4274	45.518705	0.000284	2.836450	0.961015	-0.000114
 669	6.6466e+01	13.3873	45.446037	0.000182	1.823432	0.617796	-0.000073
 670	6.6566e+01	13.3536	45.405666	0.000101	1.013018	0.343220	-0.000041
 671	6.6665e+01	13.3071	45.312812	0.000233	2.329941	0.789405	-0.000093
 672	6.6764e+01	13.2622	45.195735	0.000294	2.937752	0.995337	-0.000118
 673	6.6864e+01	13.2141	45.046361	0.000375	3.748166	1.269913	-0.000150
 674	6.6963e+01	13.1836	44.981766	0.000162	1.620829	0.549152	-0.000065
 675	6.7063e+01	13.1451	44.816244	0.000415	4.153373	1.407201	-0.000166
 676	6.7162e+01	13.1002	44.275268	0.001357	13.574439	4.599145	-0.000544
 677	6.7262e+01	13.0713	44.093597	0.000456	4.558580	1.544489	-0.000183
 678	6.7362e+01	13.0151	43.924037	0.000425	4.254675	1.441523	-0.000170
 679	6.7461e+01	12.9798	43.819071	0.000263	2.633846	0.892371	-0.000105
 680	6.7561e+01	12.9430	43.685846	0.000334	3.342959	1.132625	-0.000134
 681	6.7660e+01	12.9061	43.556657	0.000324	3.241657	1.098303	-0.000130
 682	6.7760e+01	12.8579	43.423432	0.000334	3.342959	1.132625	-0.000134
 683	6.7859e+01	12.8355	43.326541	0.000243	2.431243	0.823727	-0.000097
 684	6.7959e+01	12.7841	43.221575	0.000263	2.633846	0.892371	-0.000105
 685	6.8058e+01	12.7456	43.088350	0.000334	3.342959	1.132625	-0.000134
 686	6.8157e+01	12.7087	42.975310	0.000284	2.836450	0.961015	-0.000114
 687	6.8257e+01	12.6670	42.838047	0.000344	3.444261	1.166947	-0.000138
 688	6.8356e+01	12.6349	42.749230	0.000223	2.228639	0.755083	-0.000089
 689	6.8456e+01	12.5900	42.628116	0.000304	3.039054	1.029659	-0.000122
 690	6.8555e+01	12.5387	42.563522	0.000162	1.620829	0.549152	-0.000065
 691	6.8655e+01	12.5002	42.523151	0.000101	1.013018	0.343220	-0.000041
 692	6.8754e+01	12.4649	42.442408	0.000203	2.026036	0.686439	-0.000081
 693	6.8854e+01	12.4264	42.377814	0.000162	1.620829	0.549152	-0.000065
 694	6.8954e+01	12.3863	42.272848	0.000263	2.633846	0.892371	-0.000105
 695	6.9053e+01	12.3462	42.208254	0.000162	1.620829	0.549152	-0.000065
 696	6.9153e+01	12.3045	42.127511	0.000203	2.026036	0.686439	-0.000081
 697	6.9252e+01	12.2644	42.022546	0.000263	2.633846	0.892371	-0.000105
 698	6.9352e+01	12.2275	41.873172	0.000375	3.748166	1.269913	-0.000150
 699	6.9451e+01	12.1954	41.772243	0.000253	2.532545	0.858049	-0.000101
 700	6.9550e+01	12.1521	41.651129	0.000304	3.039054	1.029659	-0.000122
 701	6.9650e+01	12.1055	41.509830	0.000355	3.545563	1.201269	-0.000142
 702	6.9749e+01	12.0622	41.400827	0.000274	2.735148	0.926693	-0.000110
 703	6.9849e+01	12.0317	41.267602	0.000334	3.342959	1.132625	-0.000134
 704	6.9948e+01	11.9852	41.142450	0.000314	3.140355	1.063981	-0.000126
 705	7.0048e+01	11.9419	41.005188	0.000344	3.444261	1.166947	-0.000138
 706	7.0147e+01	11.9082	40.888111	0.000294	2.937752	0.995337	-0.000118
 707	7.0247e+01	11.8697	40.791219	0.000243	2.431243	0.823727	-0.000097
 708	7.0347e+01	11.8312	40.621660	0.000425	4.254675	1.441523	-0.000170
 709	7.0446e+01	11.7879	40.492471	0.000324	3.241657	1.098303	-0.000130
 710	7.0546e+01	11.7526	40.387506	0.000263	2.633846	0.892371	-0.000105
 711	7.0645e+01	11.7125	40.254280	0.000334	3.342959	1.132625	-0.000134
 712	7.0745e+01	11.6676	40.133166	0.000304	3.039054	1.029659	-0.000122
 713	7.0844e+01	11.6307	40.036275	0.000243	2.431243	0.823727	-0.000097
 714	7.0944e+01	11.5890	39.931310	0.000263	2.633846	0.892371	-0.000105
 715	7.1043e+01	11.5601	39.785973	0.000365	3.646864	1.235591	-0.000146
 716	7.1142e+01	11.5072	39.693119	0.000233	2.329941	0.789405	-0.000093
 717	7.1242e+01	11.4735	39.563930	0.000324	3.241657	1.098303	-0.000130
 718	7.1341e+01	11.4270	39.458965	0.000263	2.633846	0.892371	-0.000105
 719	7.1441e+01	11.3949	39.333813	0.000314	3.140355	1.063981	-0.000126
 720	7.1540e+01	11.3612	39.216737	0.000294	2.937752	0.995337	-0.000118
 721	7.1640e+01	11.3050	39.071400	0.000365	3.646864	1.235591	-0.000146
 722	7.1740e+01	11.2713	38.982583	0.000223	2.228639	0.755083	-0.000089
 723	7.1839e+01	11.2296	38.853394	0.000324	3.241657	1.098303	-0.000130
 724	7.1939e+01	11.1895	38.760540	0.000233	2.329941	0.789405	-0.000093
 725	7.2038e+01	11.1494	38.615203	0.000365	3.646864	1.235591	-0.000146
 726	7.2138e+01	11.1221	38.526386	0.000223	2.228639	0.755083	-0.000089
 727	7.2237e+01	11.0660	38.356827	0.000425	4.254675	1.441523	-0.000170
 728	7.2337e+01	11.0291	38.255898	0.000253	2.532545	0.858049	-0.000101
 729	7.2436e+01	10.9890	38.183230	0.000182	1.823432	0.617796	-0.000073
 730	7.2535e+01	10.9473	38.054041	0.000324	3.241657	1.098303	-0.000130
 731	7.2635e+01	10.9072	37.916779	0.000344	3.444261	1.166947	-0.000138
 732	7.2734e+01	10.8687	37.787591	0.000324	3.241657	1.098303	-0.000130
 733	7.2834e+01	10.8318	37.714922	0.000182	1.823432	0.617796	-0.000073
 734	7.2933e+01	10.7933	37.585734	0.000324	3.241657	1.098303	-0.000130
 735	7.3033e+01	10.7516	37.436360	0.000375	3.748166	1.269913	-0.000150
 736	7.3132e+01	10.7034	37.359654	0.000192	1.924734	0.652118	-0.000077
 737	7.3232e+01	10.6746	37.242577	0.000294	2.937752	0.995337	-0.000118
 738	7.3332e+01	10.6393	37.117426	0.000314	3.140355	1.063981	-0.000126
 739	7.3431e+01	10.5911	36.976126	0.000355	3.545563	1.201269	-0.000142
 740	7.3531e+01	10.5526	36.859049	0.000294	2.937752	0.995337	-0.000118
 741	7.3630e+01	10.5157	36.729861	0.000324	3.241657	1.098303	-0.000130
 742	7.3730e+01	10.4644	36.608747	0.000304	3.039054	1.029659	-0.000122
 743	7.3829e+01	10.4484	36.511856	0.000243	2.431243	0.823727	-0.000097
 744	7.3928e+01	10.3922	36.402853	0.000274	2.735148	0.926693	-0.000110
 745	7.4028e+01	10.3553	36.281739	0.000304	3.039054	1.029659	-0.000122
 746	7.4127e+01	10.3024	36.148513	0.000334	3.342959	1.132625	-0.000134
 747	7.4227e+01	10.2719	36.031436	0.000294	2.937752	0.995337	-0.000118
 748	7.4326e+01	10.2366	35.906285	0.000314	3.140355	1.063981	-0.000126
 749	7.4426e+01	10.1869	35.789208	0.000294	2.937752	0.995337	-0.000118
 750	7.4525e+01	10.1468	35.660020	0.000324	3.241657	1.098303	-0.000130
 751	7.4625e+01	10.1083	35.595426	0.000162	1.620829	0.549152	-0.000065
 752	7.4725e+01	10.0730	35.421829	0.000436	4.355977	1.475845	-0.000174
 753	7.4824e+01	10.0377	35.292641	0.000324	3.241657	1.098303	-0.000130
 754	7.4924e+01	9.9928	35.187675	0.000263	2.633846	0.892371	-0.000105
 755	7.5023e+01	9.9575	35.050412	0.000344	3.444261	1.166947	-0.000138
 756	7.5123e+01	9.9190	34.949484	0.000253	2.532545	0.858049	-0.000101
 757	7.5222e+01	9.8757	34.808184	0.000355	3.545563	1.201269	-0.000142
 758	7.5322e+01	9.8452	34.743590	0.000162	1.620829	0.549152	-0.000065
 759	7.5421e+01	9.8019	34.638625	0.000263	2.633846	0.892371	-0.000105
 760	7.5520e+01	9.7585	34.473102	0.000415	4.153373	1.407201	-0.000166
 761	7.5620e+01	9.7184	34.380248	0.000233	2.329941	0.789405	-0.000093
 762	7.5719e+01	9.6703	34.259134	0.000304	3.039054	1.029659	-0.000122
 763	7.5819e+01	9.6366	34.138020	0.000304	3.039054	1.029659	-0.000122
 764	7.5918e+01	9.5965	34.004794	0.000334	3.342959	1.132625	-0.000134
 765	7.6018e+01	9.5548	33.887717	0.000294	2.937752	0.995337	-0.000118
 766	7.6118e+01	9.5179	33.774678	0.000284	2.836450	0.961015	-0.000114
 767	7.6217e+01	9.4746	33.645489	0.000324	3.241657	1.098303	-0.000130
 768	7.6317e+01	9.4441	33.576858	0.000172	1.722130	0.583474	-0.000069
 769	7.6416e+01	9.3992	33.427484	0.000375	3.748166	1.269913	-0.000150
 770	7.6516e+01	9.3543	33.326556	0.000253	2.532545	0.858049	-0.000101
 771	7.6615e+01	9.3254	33.165070	0.000405	4.052071	1.372879	-0.000162
 772	7.6715e+01	9.2885	33.035882	0.000324	3.241657	1.098303	-0.000130
 773	7.6814e+01	9.2388	32.930916	0.000263	2.633846	0.892371	-0.000105
 774	7.6913e+01	9.1971	32.793654	0.000344	3.444261	1.166947	-0.000138
 775	7.7013e+01	9.1554	32.684651	0.000274	2.735148	0.926693	-0.000110
 776	7.7112e+01	9.1233	32.567574	0.000294	2.937752	0.995337	-0.000118
 777	7.7212e+01	9.0880	32.474720	0.000233	2.329941	0.789405	-0.000093
 778	7.7311e+01	9.0447	32.289012	0.000466	4.659882	1.578811	-0.000187
 779	7.7411e+01	8.9965	32.180009	0.000274	2.735148	0.926693	-0.000110
 780	7.7510e+01	8.9612	32.075043	0.000263	2.633846	0.892371	-0.000105
 781	7.7610e+01	8.9227	31.945855	0.000324	3.241657	1.098303	-0.000130
 782	7.7710e+01	8.8746	31.836852	0.000274	2.735148	0.926693	-0.000110
 783	7.7809e+01	8.8345	31.695553	0.000355	3.545563	1.201269	-0.000142
 784	7.7909e+01	8.8040	31.558290	0.000344	3.444261	1.166947	-0.000138
 785	7.8008e+01	8.7639	31.461399	0.000243	2.431243	0.823727	-0.000097
 786	7.8108e+01	8.7206	31.344322	0.000294	2.937752	0.995337	-0.000118
 787	7.8207e+01	8.6837	31.211096	0.000334	3.342959	1.132625	-0.000134
 788	7.8306e+01	8.6324	31.077871	0.000334	3.342959	1.132625	-0.000134
 789	7.8406e+01	8.5923	30.936571	0.000355	3.545563	1.201269	-0.000142
 790	7.8505e+01	8.5682	30.847754	0.000223	2.228639	0.755083	-0.000089
 791	7.8605e+01	8.5169	30.706454	0.000355	3.545563	1.201269	-0.000142
 792	7.8704e+01	8.4752	30.577266	0.000324	3.241657	1.098303	-0.000130
 793	7.8804e+01	8.4431	30.480375	0.000243	2.431243	0.823727	-0.000097
 794	7.8903e+01	8.4030	30.326964	0.000385	3.849468	1.304235	-0.000154
 795	7.9003e+01	8.3597	30.185664	0.000355	3.545563	1.201269	-0.000142
 796	7.9103e+01	8.3228	30.084736	0.000253	2.532545	0.858049	-0.000101
 797	7.9202e+01	8.2810	29.943436	0.000355	3.545563	1.201269	-0.000142
 798	7.9302e+01	8.2393	29.814247	0.000324	3.241657	1.098303	-0.000130
 799	7.9401e+01	8.2073	29.685059	0.000324	3.241657	1.098303	-0.000130
 800	7.9501e+01	8.1559	29.535685	0.000375	3.748166	1.269913	-0.000150
 801	7.9600e+01	8.1270	29.430720	0.000263	2.633846	0.892371	-0.000105
 802	7.9700e+01	8.0773	29.265197	0.000415	4.153373	1.407201	-0.000166
 803	7.9799e+01	8.0420	29.164269	0.000253	2.532545	0.858049	-0.000101
 804	7.9898e+01	7.9987	29.018932	0.000365	3.646864	1.235591	-0.000146
 805	7.9998e+01	7.9586	28.893780	0.000314	3.140355	1.063981	-0.000126
 806	8.0097e+01	7.9201	28.744406	0.000375	3.748166	1.269913	-0.000150
 807	8.0197e+01	7.8848	28.651552	0.000233	2.329941	0.789405	-0.000093
 808	8.0296e+01	7.8511	28.510253	0.000355	3.545563	1.201269	-0.000142
 809	8.0396e+01	7.8062	28.352804	0.000395	3.950770	1.338557	-0.000158
 810	8.0496e+01	7.7661	28.235727	0.000294	2.937752	0.995337	-0.000118
 811	8.0595e+01	7.7196	28.094428	0.000355	3.545563	1.201269	-0.000142
 812	8.0695e+01	7.6875	27.993499	0.000253	2.532545	0.858049	-0.000101
 813	8.0794e+01	7.6426	27.811828	0.000456	4.558580	1.544489	-0.000183
 814	8.0894e+01	7.6025	27.662454	0.000375	3.748166	1.269913	-0.000150
 815	8.0993e+01	7.5688	27.565563	0.000243	2.431243	0.823727	-0.000097
 816	8.1093e+01	7.5287	27.452523	0.000284	2.836450	0.961015	-0.000114
 817	8.1192e+01	7.4821	27.295075	0.000395	3.950770	1.338557	-0.000158
 818	8.1291e+01	7.4468	27.173961	0.000304	3.039054	1.029659	-0.000122
 819	8.1391e+01	7.4051	27.052847	0.000304	3.039054	1.029659	-0.000122
 820	8.1490e+01	7.3618	26.899435	0.000385	3.849468	1.304235	-0.000154
 821	8.1590e+01	7.3249	26.758136	0.000355	3.545563	1.201269	-0.000142
 822	8.1689e+01	7.2880	26.612799	0.000365	3.646864	1.235591	-0.000146
 823	8.1789e+01	7.2511	26.491685	0.000304	3.039054	1.029659	-0.000122
 824	8.1888e+01	7.1982	26.354422	0.000344	3.444261	1.166947	-0.000138
 825	8.1988e+01	7.1565	26.217159	0.000344	3.444261	1.166947	-0.000138
 826	8.2088e+01	7.1244	26.083934	0.000334	3.342959	1.132625	-0.000134
 827	8.2187e+01	7.0827	25.946671	0.000344	3.444261	1.166947	-0.000138
 828	8.2287e+01	7.0426	25.781149	0.000415	4.153373	1.407201	-0.000166
 829	8.2386e+01	7.0057	25.684258	0.000243	2.431243	0.823727	-0.000097
 830	8.2486e+01	6.9704	25.551032	0.000334	3.342959	1.132625	-0.000134
 831	8.2585e+01	6.9239	25.369361	0.000456	4.558580	1.544489	-0.000183
 832	8.2684e+01	6.8902	25.179616	0.000476	4.761184	1.613133	-0.000191
 833	8.2784e+01	6.8421	25.010056	0.000425	4.254675	1.441523	-0.000170
 834	8.2883e+01	6.8180	24.860682	0.000375	3.748166	1.269913	-0.000150
 835	8.2983e+01	6.7715	24.711308	0.000375	3.748166	1.269913	-0.000150
 836	8.3082e+01	6.7265	24.590194	0.000304	3.039054	1.029659	-0.000122
 837	8.3182e+01	6.6848	24.465043	0.000314	3.140355	1.063981	-0.000126
 838	8.3281e+01	6.6495	24.331817	0.000334	3.342959	1.132625	-0.000134
 839	8.3381e+01	6.6078	24.158220	0.000436	4.355977	1.475845	-0.000174
 840	8.3481e+01	6.5693	24.065366	0.000233	2.329941	0.789405	-0.000093
 841	8.3580e+01	6.5260	23.899844	0.000415	4.153373	1.407201	-0.000166
 842	8.3680e+01	6.4907	23.778729	0.000304	3.039054	1.029659	-0.000122
 843	8.3779e+01	6.4554	23.649541	0.000324	3.241657	1.098303	-0.000130
 844	8.3879e+01	6.4153	23.492093	0.000395	3.950770	1.338557	-0.000158
 845	8.3978e+01	6.3688	23.383090	0.000274	2.735148	0.926693	-0.000110
 846	8.4078e+01	6.3287	23.209493	0.000436	4.355977	1.475845	-0.000174
 847	8.4177e+01	6.2870	23.056082	0.000385	3.849468	1.304235	-0.000154
 848	8.4276e+01	6.2565	22.955154	0.000253	2.532545	0.858049	-0.000101
 849	8.4376e+01	6.2116	22.789631	0.000415	4.153373	1.407201	-0.000166
 850	8.4475e+01	6.1731	22.656406	0.000334	3.342959	1.132625	-0.000134
 851	8.4575e+01	6.1394	22.547403	0.000274	2.735148	0.926693	-0.000110
 852	8.4674e+01	6.0993	22.406103	0.000355	3.545563	1.201269	-0.000142
 853	8.4774e+01	6.0447	22.276915	0.000324	3.241657	1.098303	-0.000130
 854	8.4874e+01	6.0143	22.131578	0.000365	3.646864	1.235591	-0.000146
 855	8.4973e+01	5.9597	21.982204	0.000375	3.748166	1.269913	-0.000150
 856	8.5073e+01	5.9276	21.865127	0.000294	2.937752	0.995337	-0.000118
 857	8.5172e+01	5.8843	21.675382	0.000476	4.761184	1.613133	-0.000191
 858	8.5272e+01	5.8410	21.614825	0.000152	1.519527	0.514830	-0.000061
 859	8.5371e+01	5.8153	21.445265	0.000425	4.254675	1.441523	-0.000170
 860	8.5471e+01	5.7688	21.283780	0.000405	4.052071	1.372879	-0.000162
 861	8.5570e+01	5.7303	21.211111	0.000182	1.823432	0.617796	-0.000073
 862	8.5669e+01	5.6982	21.154591	0.000142	1.418225	0.480508	-0.000057
 863	8.5769e+01	5.6533	21.069811	0.000213	2.127338	0.720761	-0.000085
 864	8.5868e+01	5.6068	21.009254	0.000152	1.519527	0.514830	-0.000061
 865	8.5968e+01	5.5699	20.980994	0.000071	0.709113	0.240254	-0.000028
 866	8.6067e+01	5.5378	20.859880	0.000304	3.039054	1.029659	-0.000122
 867	8.6167e+01	5.4977	20.762989	0.000243	2.431243	0.823727	-0.000097
 868	8.6266e+01	5.4464	20.682246	0.000203	2.026036	0.686439	-0.000081
 869	8.6366e+01	5.4159	20.569207	0.000284	2.836450	0.961015	-0.000114
 870	8.6466e+01	5.3758	20.431944	0.000344	3.444261	1.166947	-0.000138
 871	8.6565e+01	5.3293	20.310830	0.000304	3.039054	1.029659	-0.000122
 872	8.6665e+01	5.2972	20.165493	0.000365	3.646864	1.235591	-0.000146
 873	8.6764e+01	5.2507	20.080713	0.000213	2.127338	0.720761	-0.000085
 874	8.6864e+01	5.2202	19.911153	0.000425	4.254675	1.441523	-0.000170
 875	8.6963e+01	5.1656	19.834448	0.000192	1.924734	0.652118	-0.000077
 876	8.7063e+01	5.1464	19.652777	0.000456	4.558580	1.544489	-0.000183
 877	8.7162e+01	5.0950	19.559923	0.000233	2.329941	0.789405	-0.000093
 878	8.7261e+01	5.0598	19.406511	0.000385	3.849468	1.304235	-0.000154
 879	8.7361e+01	5.0084	19.281360	0.000314	3.140355	1.063981	-0.000126
 880	8.7460e+01	4.9795	19.160246	0.000304	3.039054	1.029659	-0.000122
 881	8.7560e+01	4.9282	19.031058	0.000324	3.241657	1.098303	-0.000130
 882	8.7659e+01	4.9009	18.869572	0.000405	4.052071	1.372879	-0.000162
 883	8.7759e+01	4.8640	18.720198	0.000375	3.748166	1.269913	-0.000150
 884	8.7859e+01	4.8095	18.538527	0.000456	4.558580	1.544489	-0.000183
 885	8.7958e+01	4.7758	18.413376	0.000314	3.140355	1.063981	-0.000126
 886	8.8058e+01	4.7453	18.264002	0.000375	3.748166	1.269913	-0.000150
 887	8.8157e+01	4.7084	18.122702	0.000355	3.545563	1.201269	-0.000142
 888	8.8257e+01	4.6587	17.977365	0.000365	3.646864	1.235591	-0.000146
 889	8.8356e+01	4.6138	17.819917	0.000395	3.950770	1.338557	-0.000158
 890	8.8456e+01	4.5849	17.706877	0.000284	2.836450	0.961015	-0.000114
 891	8.8555e+01	4.5384	17.569615	0.000344	3.444261	1.166947	-0.000138
 892	8.8654e+01	4.5031	17.452538	0.000294	2.937752	0.995337	-0.000118
 893	8.8754e+01	4.4517	17.323349	0.000324	3.241657	1.098303	-0.000130
 894	8.8853e+01	4.4148	17.190124	0.000334	3.342959	1.132625	-0.000134
 895	8.8953e+01	4.3780	17.024601	0.000415	4.153373	1.407201	-0.000166
 896	8.9052e+01	4.3346	16.951933	0.000182	1.823432	0.617796	-0.000073
 897	8.9152e+01	4.3106	16.802559	0.000375	3.748166	1.269913	-0.000150
 898	8.9251e+01	4.2544	16.673371	0.000324	3.241657	1.098303	-0.000130
 899	8.9351e+01	4.2143	16.511885	0.000405	4.052071	1.372879	-0.000162
 900	8.9451e+01	4.1710	16.338288	0.000436	4.355977	1.475845	-0.000174
 901	8.9550e+01	4.1437	16.237360	0.000253	2.532545	0.858049	-0.000101
 902	8.9650e+01	4.0988	16.087986	0.000375	3.748166	1.269913	-0.000150
 903	8.9749e+01	4.0587	15.950723	0.000344	3.444261	1.166947	-0.000138
 904	8.9849e+01	4.0122	15.817498	0.000334	3.342959	1.132625	-0.000134
 905	8.9948e+01	3.9865	15.688309	0.000324	3.241657	1.098303	-0.000130
 906	9.0047e+01	3.9432	15.530861	0.000395	3.950770	1.338557	-0.000158
 907	9.0147e+01	3.8903	15.341116	0.000476	4.761184	1.613133	-0.000191
 908	9.0246e+01	3.8550	15.280559	0.000152	1.519527	0.514830	-0.000061
 909	9.0346e+01	3.8165	15.143296	0.000344	3.444261	1.166947	-0.000138
 910	9.0445e+01	3.7796	14.961625	0.000456	4.558580	1.544489	-0.000183
 911	9.0545e+01	3.7427	14.860697	0.000253	2.532545	0.858049	-0.000101
 912	9.0644e+01	3.7058	14.703248	0.000395	3.950770	1.338557	-0.000158
 913	9.0744e+01	3.6577	14.598283	0.000263	2.633846	0.892371	-0.000105
 914	9.0844e+01	3.6159	14.456983	0.000355	3.545563	1.201269	-0.000142
 915	9.0943e+01	3.5790	14.352018	0.000263	2.633846	0.892371	-0.000105
 916	9.1043e+01	3.5373	14.202644	0.000375	3.748166	1.269913	-0.000150
 917	9.1142e+01	3.5004	14.049232	0.000385	3.849468	1.304235	-0.000154
 918	9.1242e+01	3.4571	13.936193	0.000284	2.836450	0.961015	-0.000114
 919	9.1341e+01	3.4138	13.819116	0.000294	2.937752	0.995337	-0.000118
 920	9.1441e+01	3.3833	13.702039	0.000294	2.937752	0.995337	-0.000118
 921	9.1540e+01	3.3352	13.544590	0.000395	3.950770	1.338557	-0.000158
 922	9.1639e+01	3.2983	13.431551	0.000284	2.836450	0.961015	-0.000114
 923	9.1739e+01	3.2662	13.233731	0.000496	4.963788	1.681777	-0.000199
 924	9.1838e+01	3.2213	13.116654	0.000294	2.937752	0.995337	-0.000118
 925	9.1938e+01	3.1764	13.007651	0.000274	2.735148	0.926693	-0.000110
 926	9.2037e+01	3.1427	12.858277	0.000375	3.748166	1.269913	-0.000150
 927	9.2137e+01	3.1010	12.729089	0.000324	3.241657	1.098303	-0.000130
 928	9.2237e+01	3.0577	12.575678	0.000385	3.849468	1.304235	-0.000154
 929	9.2336e+01	3.0224	12.466675	0.000274	2.735148	0.926693	-0.000110
 930	9.2436e+01	2.9807	12.321338	0.000365	3.646864	1.235591	-0.000146
 931	9.2535e+01	2.9422	12.216373	0.000263	2.633846	0.892371	-0.000105
 932	9.2635e+01	2.9069	12.075073	0.000355	3.545563	1.201269	-0.000142
 933	9.2734e+01	2.8539	11.917625	0.000395	3.950770	1.338557	-0.000158
 934	9.2834e+01	2.8267	11.812659	0.000263	2.633846	0.892371	-0.000105
 935	9.2933e+01	2.7769	11.707694	0.000263	2.633846	0.892371	-0.000105
 936	9.3032e+01	2.7352	11.558320	0.000375	3.748166	1.269913	-0.000150
 937	9.3132e+01	2.6935	11.380686	0.000446	4.457279	1.510167	-0.000179
 938	9.3231e+01	2.6614	11.251497	0.000324	3.241657	1.098303	-0.000130
 939	9.3331e+01	2.6245	11.154606	0.000243	2.431243	0.823727	-0.000097
 940	9.3430e+01	2.5812	11.013306	0.000355	3.545563	1.201269	-0.000142
 941	9.3530e+01	2.5523	10.876044	0.000344	3.444261	1.166947	-0.000138
 942	9.3629e+01	2.5074	10.746855	0.000324	3.241657	1.098303	-0.000130
 943	9.3729e+01	2.4625	10.569221	0.000446	4.457279	1.510167	-0.000179
 944	9.3829e+01	2.4240	10.423884	0.000365	3.646864	1.235591	-0.000146
 945	9.3928e+01	2.3839	10.306808	0.000294	2.937752	0.995337	-0.000118
 946	9.4028e+01	2.3406	10.181656	0.000314	3.140355	1.063981	-0.000126
 947	9.4127e+01	2.3069	10.036319	0.000365	3.646864	1.235591	-0.000146
 948	9.4227e+01	2.2652	9.870797	0.000415	4.153373	1.407201	-0.000166
 949	9.4326e+01	2.2267	9.777943	0.000233	2.329941	0.789405	-0.000093
 950	9.4425e+01	2.1882	9.640680	0.000344	3.444261	1.166947	-0.000138
 951	9.4525e+01	2.1433	9.471120	0.000425	4.254675	1.441523	-0.000170
 952	9.4624e+01	2.1015	9.345969	0.000314	3.140355	1.063981	-0.000126
 953	9.4724e+01	2.0663	9.224855	0.000304	3.039054	1.029659	-0.000122
 954	9.4823e+01	2.0294	9.079518	0.000365	3.646864	1.235591	-0.000146
 955	9.4923e+01	1.9973	8.930144	0.000375	3.748166	1.269913	-0.000150
 956	9.5022e+01	1.9395	8.813067	0.000294	2.937752	0.995337	-0.000118
 957	9.5122e+01	1.9058	8.675805	0.000344	3.444261	1.166947	-0.000138
 958	9.5222e+01	1.8689	8.538542	0.000344	3.444261	1.166947	-0.000138
 959	9.5321e+01	1.8272	8.397242	0.000355	3.545563	1.201269	-0.000142
 960	9.5421e+01	1.7871	8.223645	0.000436	4.355977	1.475845	-0.000174
 961	9.5520e+01	1.7550	8.098494	0.000314	3.140355	1.063981	-0.000126
 962	9.5620e+01	1.7101	7.941046	0.000395	3.950770	1.338557	-0.000158
 963	9.5719e+01	1.6684	7.840118	0.000253	2.532545	0.858049	-0.000101
 964	9.5819e+01	1.6235	7.658446	0.000456	4.558580	1.544489	-0.000183
 965	9.5918e+01	1.5898	7.517147	0.000355	3.545563	1.201269	-0.000142
 966	9.6017e+01	1.5465	7.436404	0.000203	2.026036	0.686439	-0.000081
 967	9.6117e+01	1.5112	7.266844	0.000425	4.254675	1.441523	-0.000170
 968	9.6216e+01	1.4647	7.141693	0.000314	3.140355	1.063981	-0.000126
 969	9.6316e+01	1.4310	6.960022	0.000456	4.558580	1.544489	-0.000183
 970	9.6415e+01	1.3780	6.814685	0.000365	3.646864	1.235591	-0.000146
 971	9.6515e+01	1.3524	6.685497	0.000324	3.241657	1.098303	-0.000130
 972	9.6615e+01	1.3026	6.552271	0.000334	3.342959	1.132625	-0.000134
 973	9.6714e+01	1.2593	6.447306	0.000263	2.633846	0.892371	-0.000105
 974	9.6814e+01	1.2256	6.293895	0.000385	3.849468	1.304235	-0.000154
 975	9.6913e+01	1.1855	6.132409	0.000405	4.052071	1.372879	-0.000162
 976	9.7013e+01	1.1486	6.003221	0.000324	3.241657	1.098303	-0.000130
 977	9.7112e+01	1.1037	5.837698	0.000415	4.153373	1.407201	-0.000166
 978	9.7212e+01	1.0652	5.720621	0.000294	2.937752	0.995337	-0.000118
 979	9.7311e+01	1.0235	5.555099	0.000415	4.153373	1.407201	-0.000166
 980	9.7410e+01	0.9866	5.401688	0.000385	3.849468	1.304235	-0.000154
 981	9.7510e+01	0.9481	5.268462	0.000334	3.342959	1.132625	-0.000134
 982	9.7609e+01	0.9032	5.151385	0.000294	2.937752	0.995337	-0.000118
 983	9.7709e+01	0.8663	4.969714	0.000456	4.558580	1.544489	-0.000183
 984	9.7808e+01	0.8342	4.836489	0.000334	3.342959	1.132625	-0.000134
 985	9.7908e+01	0.7925	4.683077	0.000385	3.849468	1.304235	-0.000154
 986	9.8007e+01	0.7444	4.574075	0.000274	2.735148	0.926693	-0.000110
 987	9.8107e+01	0.7091	4.388367	0.000466	4.659882	1.578811	-0.000187
 988	9.8207e+01	0.6722	4.243030	0.000365	3.646864	1.235591	-0.000146
 989	9.8306e+01	0.6305	4.121916	0.000304	3.039054	1.029659	-0.000122
 990	9.8406e+01	0.5888	3.988690	0.000334	3.342959	1.132625	-0.000134
 991	9.8505e+01	0.5454	3.867576	0.000304	3.039054	1.029659	-0.000122
 992	9.8605e+01	0.5134	3.693979	0.000436	4.355977	1.475845	-0.000174
 993	9.8704e+01	0.4700	3.540568	0.000385	3.849468	1.304235	-0.000154
 994	9.8803e+01	0.4331	3.403305	0.000344	3.444261	1.166947	-0.000138
 995	9.8903e+01	0.3978	3.270080	0.000334	3.342959	1.132625	-0.000134
 996	9.9002e+01	0.3449	3.169152	0.000253	2.532545	0.858049	-0.000101
 997	9.9102e+01	0.3128	2.995555	0.000436	4.355977	1.475845	-0.000174
 998	9.9201e+01	0.2727	2.817921	0.000446	4.457279	1.510167	-0.000179
 999	9.9301e+01	0.2326	2.704881	0.000284	2.836450	0.961015	-0.000114
1000	9.9400e+01	0.1973	2.539358	0.000415	4.153373	1.407201	-0.000166
1001	9.9500e+01	0.1540	2.398059	0.000355	3.545563	1.201269	-0.000142
1002	9.9600e+01	0.1107	2.224462	0.000436	4.355977	1.475845	-0.000174
1003	9.9699e+01	0.0770	2.087199	0.000344	3.444261	1.166947	-0.000138
1004	9.9799e+01	0.0289	1.966085	0.000304	3.039054	1.029659	-0.000122
1005	9.9898e+01	0.0016	1.780377	0.000466	4.659882	1.578811	-0.000187
1006	9.9998e+01	-0.0433	1.663300	0.000294	2.937752	0.995337	-0.000118
1007	1.0010e+02	-0.0722	1.538149	0.000314	3.140355	1.063981	-0.000126
1008	1.0020e+02	-0.1219	1.400886	0.000344	3.444261	1.166947	-0.000138
1009	1.0030e+02	-0.1604	1.231326	0.000425	4.254675	1.441523	-0.000170
1010	1.0040e+02	-0.2021	1.073878	0.000395	3.950770	1.338557	-0.000158
1011	1.0050e+02	-0.2374	0.972950	0.000253	2.532545	0.858049	-0.000101
1012	1.0059e+02	-0.2791	0.803390	0.000425	4.254675	1.441523	-0.000170
1013	1.0069e+02	-0.3257	0.662090	0.000355	3.545563	1.201269	-0.000142
1014	1.0079e+02	-0.3481	0.528865	0.000334	3.342959	1.132625	-0.000134
1015	1.0089e+02	-0.3995	0.391602	0.000344	3.444261	1.166947	-0.000138
1016	1.0099e+02	-0.4364	0.230117	0.000405	4.052071	1.372879	-0.000162
1017	1.0109e+02	-0.4877	0.109003	0.000304	3.039054	1.029659	-0.000122
1018	1.0119e+02	-0.5166	-0.044408	0.000385	3.849468	1.304235	-0.000154
1019	1.0129e+02	-0.5519	-0.201857	0.000395	3.950770	1.338557	-0.000158
1020	1.0139e+02	-0.6000	-0.339119	0.000344	3.444261	1.166947	-0.000138
1021	1.0149e+02	-0.6353	-0.468308	0.000324	3.241657	1.098303	-0.000130
1022	1.0159e+02	-0.6818	-0.605570	0.000344	3.444261	1.166947	-0.000138
1023	1.0169e+02	-0.7203	-0.783204	0.000446	4.457279	1.510167	-0.000179
1024	1.0179e+02	-0.7492	-0.912393	0.000324	3.241657	1.098303	-0.000130
1025	1.0189e+02	-0.8005	-1.081952	0.000425	4.254675	1.441523	-0.000170
1026	1.0199e+02	-0.8310	-1.190955	0.000274	2.735148	0.926693	-0.000110
1027	1.0209e+02	-0.8647	-1.380700	0.000476	4.761184	1.613133	-0.000191
1028	1.0219e+02	-0.9160	-1.497777	0.000294	2.937752	0.995337	-0.000118
1029	1.0229e+02	-0.9674	-1.659263	0.000405	4.052071	1.372879	-0.000162
1030	1.0239e+02	-1.0010	-1.808637	0.000375	3.748166	1.269913	-0.000150
1031	1.0248e+02	-1.0395	-1.917639	0.000274	2.735148	0.926693	-0.000110
1032	1.0258e+02	-1.0700	-2.163905	0.000618	6.179409	2.093640	-0.000248
1033	1.0268e+02	-1.1198	-2.321353	0.000395	3.950770	1.338557	-0.000158
1034	1.0278e+02	-1.1486	-2.474764	0.000385	3.849468	1.304235	-0.000154
1035	1.0288e+02	-1.1968	-2.595878	0.000304	3.039054	1.029659	-0.000122
1036	1.0298e+02	-1.2369	-2.757364	0.000405	4.052071	1.372879	-0.000162
1037	1.0308e+02	-1.2722	-2.898663	0.000355	3.545563	1.201269	-0.000142
1038	1.0318e+02	-1.3107	-3.112632	0.000537	5.368995	1.819065	-0.000215
1039	1.0328e+02	-1.3652	-3.233746	0.000304	3.039054	1.029659	-0.000122
1040	1.0338e+02	-1.3909	-3.371008	0.000344	3.444261	1.166947	-0.000138
1041	1.0348e+02	-1.4374	-3.492122	0.000304	3.039054	1.029659	-0.000122
1042	1.0358e+02	-1.4807	-3.649571	0.000395	3.950770	1.338557	-0.000158
1043	1.0368e+02	-1.5128	-3.778759	0.000324	3.241657	1.098303	-0.000130
1044	1.0378e+02	-1.5513	-3.940244	0.000405	4.052071	1.372879	-0.000162
1045	1.0388e+02	-1.5930	-4.097693	0.000395	3.950770	1.338557	-0.000158
1046	1.0398e+02	-1.6315	-4.238993	0.000355	3.545563	1.201269	-0.000142
1047	1.0408e+02	-1.6748	-4.388367	0.000375	3.748166	1.269913	-0.000150
1048	1.0418e+02	-1.7165	-4.513518	0.000314	3.140355	1.063981	-0.000126
1049	1.0428e+02	-1.7663	-4.650780	0.000344	3.444261	1.166947	-0.000138
1050	1.0438e+02	-1.7839	-4.796117	0.000365	3.646864	1.235591	-0.000146
1051	1.0447e+02	-1.8288	-4.957603	0.000405	4.052071	1.372879	-0.000162
1052	1.0457e+02	-1.8770	-5.042383	0.000213	2.127338	0.720761	-0.000085
1053	1.0467e+02	-1.9138	-5.159459	0.000294	2.937752	0.995337	-0.000118
1054	1.0477e+02	-1.9556	-5.300759	0.000355	3.545563	1.201269	-0.000142
1055	1.0487e+02	-1.9909	-5.421873	0.000304	3.039054	1.029659	-0.000122
1056	1.0497e+02	-2.0278	-5.538950	0.000294	2.937752	0.995337	-0.000118
1057	1.0507e+02	-2.0807	-5.664101	0.000314	3.140355	1.063981	-0.000126
1058	1.0517e+02	-2.1128	-5.760993	0.000243	2.431243	0.823727	-0.000097
1059	1.0527e+02	-2.1481	-5.898255	0.000344	3.444261	1.166947	-0.000138
1060	1.0537e+02	-2.1946	-6.055704	0.000395	3.950770	1.338557	-0.000158
1061	1.0547e+02	-2.2299	-6.192966	0.000344	3.444261	1.166947	-0.000138
1062	1.0557e+02	-2.2620	-6.338303	0.000365	3.646864	1.235591	-0.000146
1063	1.0567e+02	-2.3085	-6.471529	0.000334	3.342959	1.132625	-0.000134
1064	1.0577e+02	-2.3550	-6.584568	0.000284	2.836450	0.961015	-0.000114
1065	1.0587e+02	-2.4015	-6.729905	0.000365	3.646864	1.235591	-0.000146
1066	1.0597e+02	-2.4240	-6.838908	0.000274	2.735148	0.926693	-0.000110
1067	1.0607e+02	-2.4705	-6.988282	0.000375	3.748166	1.269913	-0.000150
1068	1.0617e+02	-2.5074	-7.121507	0.000334	3.342959	1.132625	-0.000134
1069	1.0627e+02	-2.5571	-7.266844	0.000365	3.646864	1.235591	-0.000146
1070	1.0637e+02	-2.5924	-7.387958	0.000304	3.039054	1.029659	-0.000122
1071	1.0647e+02	-2.6245	-7.541370	0.000385	3.849468	1.304235	-0.000154
1072	1.0656e+02	-2.6662	-7.686706	0.000365	3.646864	1.235591	-0.000146
1073	1.0666e+02	-2.7176	-7.811858	0.000314	3.140355	1.063981	-0.000126
1074	1.0676e+02	-2.7577	-7.949120	0.000344	3.444261	1.166947	-0.000138
1075	1.0686e+02	-2.7866	-8.058123	0.000274	2.735148	0.926693	-0.000110
1076	1.0696e+02	-2.8251	-8.227683	0.000425	4.254675	1.441523	-0.000170
1077	1.0706e+02	-2.8620	-8.348797	0.000304	3.039054	1.029659	-0.000122
1078	1.0716e+02	-2.9053	-8.486059	0.000344	3.444261	1.166947	-0.000138
1079	1.0726e+02	-2.9454	-8.671768	0.000466	4.659882	1.578811	-0.000187
1080	1.0736e+02	-2.9823	-8.825179	0.000385	3.849468	1.304235	-0.000154
1081	1.0746e+02	-3.0288	-8.938219	0.000284	2.836450	0.961015	-0.000114
1082	1.0756e+02	-3.0785	-9.099704	0.000405	4.052071	1.372879	-0.000162
1083	1.0766e+02	-3.1042	-9.245041	0.000365	3.646864	1.235591	-0.000146
1084	1.0776e+02	-3.1427	-9.370192	0.000314	3.140355	1.063981	-0.000126
1085	1.0786e+02	-3.1940	-9.459009	0.000223	2.228639	0.755083	-0.000089
1086	1.0796e+02	-3.2293	-9.632606	0.000436	4.355977	1.475845	-0.000174
1087	1.0806e+02	-3.2630	-9.749683	0.000294	2.937752	0.995337	-0.000118
1088	1.0816e+02	-3.3031	-9.931354	0.000456	4.558580	1.544489	-0.000183
1089	1.0826e+02	-3.3368	-10.004022	0.000182	1.823432	0.617796	-0.000073
1090	1.0836e+02	-3.3865	-10.161471	0.000395	3.950770	1.338557	-0.000158
1091	1.0845e+02	-3.4218	-10.246251	0.000213	2.127338	0.720761	-0.000085
1092	1.0855e+02	-3.4635	-10.472330	0.000567	5.672900	1.922031	-0.000227
1093	1.0865e+02	-3.5004	-10.597481	0.000314	3.140355	1.063981	-0.000126
1094	1.0875e+02	-3.5534	-10.750892	0.000385	3.849468	1.304235	-0.000154
1095	1.0885e+02	-3.5935	-10.892192	0.000355	3.545563	1.201269	-0.000142
1096	1.0895e+02	-3.6304	-11.017343	0.000314	3.140355	1.063981	-0.000126
1097	1.0905e+02	-3.6625	-11.110198	0.000233	2.329941	0.789405	-0.000093
1098	1.0915e+02	-3.7138	-11.279757	0.000425	4.254675	1.441523	-0.000170
1099	1.0925e+02	-3.7459	-11.388760	0.000274	2.735148	0.926693	-0.000110
1100	1.0935e+02	-3.7812	-11.546208	0.000395	3.950770	1.338557	-0.000158
1101	1.0945e+02	-3.8309	-11.663285	0.000294	2.937752	0.995337	-0.000118
1102	1.0955e+02	-3.8646	-11.796511	0.000334	3.342959	1.132625	-0.000134
1103	1.0965e+02	-3.9079	-11.921662	0.000314	3.140355	1.063981	-0.000126
1104	1.0975e+02	-3.9480	-12.075073	0.000385	3.849468	1.304235	-0.000154
1105	1.0985e+02	-3.9961	-12.171964	0.000243	2.431243	0.823727	-0.000097
1106	1.0995e+02	-4.0234	-12.349598	0.000446	4.457279	1.510167	-0.000179
1107	1.1005e+02	-4.0683	-12.478787	0.000324	3.241657	1.098303	-0.000130
1108	1.1015e+02	-4.0972	-12.636235	0.000395	3.950770	1.338557	-0.000158
1109	1.1025e+02	-4.1421	-12.785609	0.000375	3.748166	1.269913	-0.000150
1110	1.1035e+02	-4.1870	-12.898649	0.000284	2.836450	0.961015	-0.000114
1111	1.1044e+02	-4.2207	-13.015726	0.000294	2.937752	0.995337	-0.000118
1112	1.1054e+02	-4.2689	-13.120691	0.000263	2.633846	0.892371	-0.000105
1113	1.1064e+02	-4.3009	-13.266028	0.000365	3.646864	1.235591	-0.000146
1114	1.1074e+02	-4.3427	-13.395216	0.000324	3.241657	1.098303	-0.000130
1115	1.1084e+02	-4.3908	-13.528442	0.000334	3.342959	1.132625	-0.000134
1116	1.1094e+02	-4.4261	-13.661667	0.000334	3.342959	1.132625	-0.000134
1117	1.1104e+02	-4.4630	-13.778744	0.000294	2.937752	0.995337	-0.000118
1118	1.1114e+02	-4.4902	-13.903895	0.000314	3.140355	1.063981	-0.000126
1119	1.1124e+02	-4.5464	-14.093641	0.000476	4.761184	1.613133	-0.000191
1120	1.1134e+02	-4.5817	-14.174384	0.000203	2.026036	0.686439	-0.000081
1121	1.1144e+02	-4.6202	-14.283386	0.000274	2.735148	0.926693	-0.000110
1122	1.1154e+02	-4.6667	-14.440835	0.000395	3.950770	1.338557	-0.000158
1123	1.1164e+02	-4.7052	-14.570023	0.000324	3.241657	1.098303	-0.000130
1124	1.1174e+02	-4.7405	-14.703248	0.000334	3.342959	1.132625	-0.000134
1125	1.1184e+02	-4.7758	-14.812251	0.000274	2.735148	0.926693	-0.000110
1126	1.1194e+02	-4.8239	-14.953551	0.000355	3.545563	1.201269	-0.000142
1127	1.1204e+02	-4.8624	-15.082739	0.000324	3.241657	1.098303	-0.000130
1128	1.1214e+02	-4.8961	-15.248262	0.000415	4.153373	1.407201	-0.000166
1129	1.1224e+02	-4.9491	-15.369376	0.000304	3.039054	1.029659	-0.000122
1130	1.1234e+02	-4.9811	-15.494527	0.000314	3.140355	1.063981	-0.000126
1131	1.1244e+02	-5.0148	-15.651975	0.000395	3.950770	1.338557	-0.000158
1132	1.1253e+02	-5.0565	-15.756941	0.000263	2.633846	0.892371	-0.000105
1133	1.1263e+02	-5.1031	-15.886129	0.000324	3.241657	1.098303	-0.000130
1134	1.1273e+02	-5.1400	-16.035503	0.000375	3.748166	1.269913	-0.000150
1135	1.1283e+02	-5.1817	-16.164691	0.000324	3.241657	1.098303	-0.000130
1136	1.1293e+02	-5.2186	-16.293880	0.000324	3.241657	1.098303	-0.000130
1137	1.1303e+02	-5.2619	-16.459402	0.000415	4.153373	1.407201	-0.000166
1138	1.1313e+02	-5.2924	-16.592628	0.000334	3.342959	1.132625	-0.000134
1139	1.1323e+02	-5.3485	-16.721816	0.000324	3.241657	1.098303	-0.000130
1140	1.1333e+02	-5.3838	-16.814670	0.000233	2.329941	0.789405	-0.000093
1141	1.1343e+02	-5.4335	-16.927710	0.000284	2.836450	0.961015	-0.000114
1142	1.1353e+02	-5.4560	-17.133604	0.000517	5.166391	1.750421	-0.000207
1143	1.1363e+02	-5.5009	-17.218384	0.000213	2.127338	0.720761	-0.000085
1144	1.1373e+02	-5.5442	-17.379869	0.000405	4.052071	1.372879	-0.000162
1145	1.1383e+02	-5.5811	-17.500983	0.000304	3.039054	1.029659	-0.000122
1146	1.1393e+02	-5.6196	-17.666506	0.000415	4.153373	1.407201	-0.000166
1147	1.1403e+02	-5.6597	-17.763397	0.000243	2.431243	0.823727	-0.000097
1148	1.1413e+02	-5.6950	-17.880474	0.000294	2.937752	0.995337	-0.000118
1149	1.1423e+02	-5.7432	-17.997551	0.000294	2.937752	0.995337	-0.000118
1150	1.1433e+02	-5.7736	-18.118665	0.000304	3.039054	1.029659	-0.000122
1151	1.1442e+02	-5.8105	-18.292262	0.000436	4.355977	1.475845	-0.000174
1152	1.1452e+02	-5.8554	-18.441636	0.000375	3.748166	1.269913	-0.000150
1153	1.1462e+02	-5.8956	-18.522379	0.000203	2.026036	0.686439	-0.000081
1154	1.1472e+02	-5.9325	-18.683864	0.000405	4.052071	1.372879	-0.000162
1155	1.1482e+02	-5.9774	-18.809015	0.000314	3.140355	1.063981	-0.000126
1156	1.1492e+02	-6.0127	-18.885721	0.000192	1.924734	0.652118	-0.000077
1157	1.1502e+02	-6.0576	-19.099689	0.000537	5.368995	1.819065	-0.000215
1158	1.1512e+02	-6.0977	-19.220803	0.000304	3.039054	1.029659	-0.000122
1159	1.1522e+02	-6.1298	-19.325769	0.000263	2.633846	0.892371	-0.000105
1160	1.1532e+02	-6.1875	-19.463031	0.000344	3.444261	1.166947	-0.000138
1161	1.1542e+02	-6.2164	-19.592220	0.000324	3.241657	1.098303	-0.000130
1162	1.1552e+02	-6.2661	-19.761779	0.000425	4.254675	1.441523	-0.000170
1163	1.1562e+02	-6.2902	-19.826374	0.000162	1.620829	0.549152	-0.000065
1164	1.1572e+02	-6.3319	-19.987859	0.000405	4.052071	1.372879	-0.000162
1165	1.1582e+02	-6.3704	-20.145307	0.000395	3.950770	1.338557	-0.000158
1166	1.1592e+02	-6.4185	-20.278533	0.000334	3.342959	1.132625	-0.000134
1167	1.1602e+02	-6.4538	-20.379461	0.000253	2.532545	0.858049	-0.000101
1168	1.1612e+02	-6.4907	-20.500575	0.000304	3.039054	1.029659	-0.000122
1169	1.1622e+02	-6.5405	-20.653986	0.000385	3.849468	1.304235	-0.000154
1170	1.1632e+02	-6.5741	-20.775101	0.000304	3.039054	1.029659	-0.000122
1171	1.1642e+02	-6.6126	-20.855843	0.000203	2.026036	0.686439	-0.000081
1172	1.1651e+02	-6.6511	-21.033477	0.000446	4.457279	1.510167	-0.000179
1173	1.1661e+02	-6.6913	-21.194963	0.000405	4.052071	1.372879	-0.000162
1174	1.1671e+02	-6.7265	-21.324151	0.000324	3.241657	1.098303	-0.000130
1175	1.1681e+02	-6.7667	-21.453339	0.000324	3.241657	1.098303	-0.000130
1176	1.1691e+02	-6.8164	-21.586565	0.000334	3.342959	1.132625	-0.000134
1177	1.1701e+02	-6.8517	-21.691530	0.000263	2.633846	0.892371	-0.000105
1178	1.1711e+02	-6.8854	-21.844941	0.000385	3.849468	1.304235	-0.000154
1179	1.1721e+02	-6.9319	-21.945870	0.000253	2.532545	0.858049	-0.000101
1180	1.1731e+02	-6.9688	-22.127541	0.000456	4.558580	1.544489	-0.000183
1181	1.1741e+02	-7.0089	-22.248655	0.000304	3.039054	1.029659	-0.000122
1182	1.1751e+02	-7.0506	-22.373806	0.000314	3.140355	1.063981	-0.000126
1183	1.1761e+02	-7.0923	-22.535292	0.000405	4.052071	1.372879	-0.000162
1184	1.1771e+02	-7.1292	-22.648331	0.000284	2.836450	0.961015	-0.000114
1185	1.1781e+02	-7.1725	-22.801743	0.000385	3.849468	1.304235	-0.000154
1186	1.1791e+02	-7.2110	-22.939005	0.000344	3.444261	1.166947	-0.000138
1187	1.1801e+02	-7.2431	-23.108565	0.000425	4.254675	1.441523	-0.000170
1188	1.1811e+02	-7.2912	-23.229679	0.000304	3.039054	1.029659	-0.000122
1189	1.1821e+02	-7.3265	-23.358867	0.000324	3.241657	1.098303	-0.000130
1190	1.1831e+02	-7.3779	-23.427499	0.000172	1.722130	0.583474	-0.000069
1191	1.1841e+02	-7.4132	-23.609170	0.000456	4.558580	1.544489	-0.000183
1192	1.1850e+02	-7.4468	-23.718172	0.000274	2.735148	0.926693	-0.000110
1193	1.1860e+02	-7.4950	-23.843324	0.000314	3.140355	1.063981	-0.000126
1194	1.1870e+02	-7.5287	-23.944252	0.000253	2.532545	0.858049	-0.000101
1195	1.1880e+02	-7.5688	-24.049218	0.000263	2.633846	0.892371	-0.000105
1196	1.1890e+02	-7.6105	-24.154183	0.000263	2.633846	0.892371	-0.000105
1197	1.1900e+02	-7.6474	-24.206666	0.000132	1.316923	0.446186	-0.000053
1198	1.1910e+02	-7.6843	-24.311631	0.000263	2.633846	0.892371	-0.000105
1199	1.1920e+02	-7.7260	-24.388337	0.000192	1.924734	0.652118	-0.000077
1200	1.1930e+02	-7.7693	-24.521562	0.000334	3.342959	1.132625	-0.000134
1201	1.1940e+02	-7.8078	-24.614417	0.000233	2.329941	0.789405	-0.000093
1202	1.1950e+02	-7.8447	-24.683048	0.000172	1.722130	0.583474	-0.000069
1203	1.1960e+02	-7.8816	-24.828385	0.000365	3.646864	1.235591	-0.000146
1204	1.1970e+02	-7.9169	-24.949499	0.000304	3.039054	1.029659	-0.000122
1205	1.1980e+02	-7.9538	-24.997944	0.000122	1.215621	0.411864	-0.000049
1206	1.1990e+02	-7.9987	-25.102910	0.000263	2.633846	0.892371	-0.000105
1207	1.2000e+02	-8.0436	-25.199801	0.000243	2.431243	0.823727	-0.000097
1208	1.2010e+02	-8.0885	-25.288618	0.000223	2.228639	0.755083	-0.000089
1209	1.2020e+02	-8.1174	-25.369361	0.000203	2.026036	0.686439	-0.000081
1210	1.2030e+02	-8.1671	-25.442029	0.000182	1.823432	0.617796	-0.000073
1211	1.2039e+02	-8.2153	-25.542958	0.000253	2.532545	0.858049	-0.000101
1212	1.2049e+02	-8.2442	-25.660035	0.000294	2.937752	0.995337	-0.000118
1213	1.2059e+02	-8.2907	-25.752889	0.000233	2.329941	0.789405	-0.000093
1214	1.2069e+02	-8.3196	-25.946671	0.000486	4.862486	1.647455	-0.000195
1215	1.2079e+02	-8.3629	-26.217159	0.000679	6.787220	2.299572	-0.000272
1216	1.2089e+02	-8.4110	-26.455350	0.000598	5.976805	2.024997	-0.000239
1217	1.2099e+02	-8.4399	-26.746024	0.000729	7.293729	2.471182	-0.000292
1218	1.2109e+02	-8.4848	-26.976141	0.000577	5.774202	1.956353	-0.000231
1219	1.2119e+02	-8.5281	-27.206258	0.000577	5.774202	1.956353	-0.000231
1220	1.2129e+02	-8.5650	-27.416189	0.000527	5.267693	1.784743	-0.000211
1221	1.2139e+02	-8.6115	-27.577674	0.000405	4.052071	1.372879	-0.000162
1222	1.2149e+02	-8.6436	-27.723011	0.000365	3.646864	1.235591	-0.000146
1223	1.2159e+02	-8.6885	-27.811828	0.000223	2.228639	0.755083	-0.000089
1224	1.2169e+02	-8.7238	-27.977351	0.000415	4.153373	1.407201	-0.000166
1225	1.2179e+02	-8.7607	-28.066168	0.000223	2.228639	0.755083	-0.000089
1226	1.2189e+02	-8.8040	-28.183245	0.000294	2.937752	0.995337	-0.000118
1227	1.2199e+02	-8.8361	-28.348767	0.000415	4.153373	1.407201	-0.000166
1228	1.2209e+02	-8.8810	-28.486030	0.000344	3.444261	1.166947	-0.000138
1229	1.2219e+02	-8.9211	-28.574847	0.000223	2.228639	0.755083	-0.000089
1230	1.2229e+02	-8.9693	-28.699998	0.000314	3.140355	1.063981	-0.000126
1231	1.2239e+02	-9.0046	-28.788815	0.000223	2.228639	0.755083	-0.000089
1232	1.2248e+02	-9.0447	-28.966449	0.000446	4.457279	1.510167	-0.000179
1233	1.2258e+02	-9.0767	-29.079489	0.000284	2.836450	0.961015	-0.000114
1234	1.2268e+02	-9.1169	-29.216751	0.000344	3.444261	1.166947	-0.000138
1235	1.2278e+02	-9.1714	-29.321717	0.000263	2.633846	0.892371	-0.000105
1236	1.2288e+02	-9.2099	-29.418608	0.000243	2.431243	0.823727	-0.000097
1237	1.2298e+02	-9.2484	-29.584131	0.000415	4.153373	1.407201	-0.000166
1238	1.2308e+02	-9.2741	-29.717356	0.000334	3.342959	1.132625	-0.000134
1239	1.2318e+02	-9.3238	-29.826359	0.000274	2.735148	0.926693	-0.000110
1240	1.2328e+02	-9.3607	-29.935361	0.000274	2.735148	0.926693	-0.000110
1241	1.2338e+02	-9.4024	-30.036290	0.000253	2.532545	0.858049	-0.000101
1242	1.2348e+02	-9.4345	-30.209887	0.000436	4.355977	1.475845	-0.000174
1243	1.2358e+02	-9.4858	-30.318889	0.000274	2.735148	0.926693	-0.000110
1244	1.2368e+02	-9.5275	-30.484412	0.000415	4.153373	1.407201	-0.000166
1245	1.2378e+02	-9.5564	-30.565155	0.000203	2.026036	0.686439	-0.000081
1246	1.2388e+02	-9.5965	-30.674157	0.000274	2.735148	0.926693	-0.000110
1247	1.2398e+02	-9.6430	-30.811420	0.000344	3.444261	1.166947	-0.000138
1248	1.2408e+02	-9.6896	-30.920423	0.000274	2.735148	0.926693	-0.000110
1249	1.2418e+02	-9.7217	-31.045574	0.000314	3.140355	1.063981	-0.000126
1250	1.2428e+02	-9.7650	-31.150539	0.000263	2.633846	0.892371	-0.000105
1251	1.2438e+02	-9.8003	-31.279728	0.000324	3.241657	1.098303	-0.000130
1252	1.2447e+02	-9.8404	-31.433139	0.000385	3.849468	1.304235	-0.000154
1253	1.2457e+02	-9.8757	-31.525993	0.000233	2.329941	0.789405	-0.000093
1254	1.2467e+02	-9.9238	-31.643070	0.000294	2.937752	0.995337	-0.000118
1255	1.2477e+02	-9.9559	-31.756110	0.000284	2.836450	0.961015	-0.000114
1256	1.2487e+02	-9.9928	-31.869150	0.000284	2.836450	0.961015	-0.000114
1257	1.2497e+02	-10.0441	-32.034672	0.000415	4.153373	1.407201	-0.000166
1258	1.2507e+02	-10.0794	-32.167898	0.000334	3.342959	1.132625	-0.000134
1259	1.2517e+02	-10.1243	-32.244603	0.000192	1.924734	0.652118	-0.000077
1260	1.2527e+02	-10.1628	-32.353606	0.000274	2.735148	0.926693	-0.000110
1261	1.2537e+02	-10.1965	-32.494906	0.000355	3.545563	1.201269	-0.000142
1262	1.2547e+02	-10.2350	-32.628131	0.000334	3.342959	1.132625	-0.000134
1263	1.2557e+02	-10.2815	-32.741171	0.000284	2.836450	0.961015	-0.000114
1264	1.2567e+02	-10.3184	-32.834025	0.000233	2.329941	0.789405	-0.000093
1265	1.2577e+02	-10.3585	-32.979362	0.000365	3.646864	1.235591	-0.000146
1266	1.2587e+02	-10.3954	-33.092402	0.000284	2.836450	0.961015	-0.000114
1267	1.2597e+02	-10.4355	-33.221590	0.000324	3.241657	1.098303	-0.000130
1268	1.2607e+02	-10.4772	-33.346741	0.000314	3.140355	1.063981	-0.000126
1269	1.2617e+02	-10.5190	-33.403261	0.000142	1.418225	0.480508	-0.000057
1270	1.2627e+02	-10.5462	-33.564747	0.000405	4.052071	1.372879	-0.000162
1271	1.2636e+02	-10.5895	-33.645489	0.000203	2.026036	0.686439	-0.000081
1272	1.2646e+02	-10.6361	-33.762566	0.000294	2.937752	0.995337	-0.000118
1273	1.2656e+02	-10.6842	-33.891755	0.000324	3.241657	1.098303	-0.000130
1274	1.2666e+02	-10.7179	-34.033054	0.000355	3.545563	1.201269	-0.000142
1275	1.2676e+02	-10.7516	-34.093611	0.000152	1.519527	0.514830	-0.000061
1276	1.2686e+02	-10.7933	-34.251060	0.000395	3.950770	1.338557	-0.000158
1277	1.2696e+02	-10.8414	-34.315654	0.000162	1.620829	0.549152	-0.000065
1278	1.2706e+02	-10.8703	-34.501362	0.000466	4.659882	1.578811	-0.000187
1279	1.2716e+02	-10.9152	-34.602290	0.000253	2.532545	0.858049	-0.000101
1280	1.2726e+02	-10.9569	-34.687070	0.000213	2.127338	0.720761	-0.000085
1281	1.2736e+02	-10.9986	-34.856630	0.000425	4.254675	1.441523	-0.000170
1282	1.2746e+02	-11.0371	-34.929298	0.000182	1.823432	0.617796	-0.000073
1283	1.2756e+02	-11.0708	-35.074635	0.000365	3.646864	1.235591	-0.000146
1284	1.2766e+02	-11.1157	-35.175564	0.000253	2.532545	0.858049	-0.000101
1285	1.2776e+02	-11.1639	-35.288603	0.000284	2.836450	0.961015	-0.000114
1286	1.2786e+02	-11.1943	-35.405680	0.000294	2.937752	0.995337	-0.000118
1287	1.2796e+02	-11.2264	-35.546980	0.000355	3.545563	1.201269	-0.000142
1288	1.2806e+02	-11.2794	-35.676169	0.000324	3.241657	1.098303	-0.000130
1289	1.2816e+02	-11.3195	-35.744800	0.000172	1.722130	0.583474	-0.000069
1290	1.2826e+02	-11.3548	-35.906285	0.000405	4.052071	1.372879	-0.000162
1291	1.2835e+02	-11.3965	-36.047585	0.000355	3.545563	1.201269	-0.000142
1292	1.2845e+02	-11.4286	-36.124291	0.000192	1.924734	0.652118	-0.000077
1293	1.2855e+02	-11.4703	-36.237330	0.000284	2.836450	0.961015	-0.000114
1294	1.2865e+02	-11.5136	-36.394779	0.000395	3.950770	1.338557	-0.000158
1295	1.2875e+02	-11.5521	-36.568376	0.000436	4.355977	1.475845	-0.000174
1296	1.2885e+02	-11.5906	-36.608747	0.000101	1.013018	0.343220	-0.000041
1297	1.2895e+02	-11.6371	-36.758121	0.000375	3.748166	1.269913	-0.000150
1298	1.2905e+02	-11.6676	-36.871161	0.000284	2.836450	0.961015	-0.000114
1299	1.2915e+02	-11.7109	-36.988238	0.000294	2.937752	0.995337	-0.000118
1300	1.2925e+02	-11.7462	-37.125500	0.000344	3.444261	1.166947	-0.000138
1301	1.2935e+02	-11.7991	-37.198169	0.000182	1.823432	0.617796	-0.000073
1302	1.2945e+02	-11.8328	-37.319283	0.000304	3.039054	1.029659	-0.000122
1303	1.2955e+02	-11.8681	-37.488842	0.000425	4.254675	1.441523	-0.000170
1304	1.2965e+02	-11.9194	-37.577659	0.000223	2.228639	0.755083	-0.000089
1305	1.2975e+02	-11.9563	-37.662439	0.000213	2.127338	0.720761	-0.000085
1306	1.2985e+02	-11.9916	-37.831999	0.000425	4.254675	1.441523	-0.000170
1307	1.2995e+02	-12.0317	-37.957150	0.000314	3.140355	1.063981	-0.000126
1308	1.3005e+02	-12.0719	-38.062116	0.000263	2.633846	0.892371	-0.000105
1309	1.3015e+02	-12.1039	-38.146896	0.000213	2.127338	0.720761	-0.000085
1310	1.3025e+02	-12.1537	-38.292232	0.000365	3.646864	1.235591	-0.000146
1311	1.3034e+02	-12.1938	-38.445644	0.000385	3.849468	1.304235	-0.000154
1312	1.3044e+02	-12.2307	-38.562721	0.000294	2.937752	0.995337	-0.000118
1313	1.3054e+02	-12.2724	-38.655575	0.000233	2.329941	0.789405	-0.000093
1314	1.3064e+02	-12.3093	-38.764577	0.000274	2.735148	0.926693	-0.000110
1315	1.3074e+02	-12.3494	-38.913951	0.000375	3.748166	1.269913	-0.000150
1316	1.3084e+02	-12.3911	-38.990657	0.000192	1.924734	0.652118	-0.000077
1317	1.3094e+02	-12.4296	-39.119845	0.000324	3.241657	1.098303	-0.000130
1318	1.3104e+02	-12.4761	-39.216737	0.000243	2.431243	0.823727	-0.000097
1319	1.3114e+02	-12.5130	-39.341888	0.000314	3.140355	1.063981	-0.000126
1320	1.3124e+02	-12.5563	-39.495299	0.000385	3.849468	1.304235	-0.000154
1321	1.3134e+02	-12.5900	-39.628524	0.000334	3.342959	1.132625	-0.000134
1322	1.3144e+02	-12.6317	-39.721379	0.000233	2.329941	0.789405	-0.000093
1323	1.3154e+02	-12.6686	-39.866715	0.000365	3.646864	1.235591	-0.000146
1324	1.3164e+02	-12.7168	-39.959570	0.000233	2.329941	0.789405	-0.000093
1325	1.3174e+02	-12.7520	-40.104906	0.000365	3.646864	1.235591	-0.000146
1326	1.3184e+02	-12.7922	-40.181612	0.000192	1.924734	0.652118	-0.000077
1327	1.3194e+02	-12.8242	-40.318875	0.000344	3.444261	1.166947	-0.000138
1328	1.3204e+02	-12.8740	-40.456137	0.000344	3.444261	1.166947	-0.000138
1329	1.3214e+02	-12.9028	-40.540917	0.000213	2.127338	0.720761	-0.000085
1330	1.3224e+02	-12.9430	-40.706440	0.000415	4.153373	1.407201	-0.000166
1331	1.3234e+02	-12.9895	-40.839665	0.000334	3.342959	1.132625	-0.000134
1332	1.3243e+02	-13.0312	-40.916371	0.000192	1.924734	0.652118	-0.000077
1333	1.3253e+02	-13.0729	-41.017299	0.000253	2.532545	0.858049	-0.000101
1334	1.3263e+02	-13.1066	-41.142450	0.000314	3.140355	1.063981	-0.000126
1335	1.3273e+02	-13.1403	-41.279713	0.000344	3.444261	1.166947	-0.000138
1336	1.3283e+02	-13.1852	-41.384678	0.000263	2.633846	0.892371	-0.000105
1337	1.3293e+02	-13.2317	-41.534052	0.000375	3.748166	1.269913	-0.000150
1338	1.3303e+02	-13.2702	-41.651129	0.000294	2.937752	0.995337	-0.000118
1339	1.3313e+02	-13.3071	-41.748021	0.000243	2.431243	0.823727	-0.000097
1340	1.3323e+02	-13.3488	-41.840875	0.000233	2.329941	0.789405	-0.000093
1341	1.3333e+02	-13.3873	-41.974100	0.000334	3.342959	1.132625	-0.000134
1342	1.3343e+02	-13.4274	-42.139623	0.000415	4.153373	1.407201	-0.000166
1343	1.3353e+02	-13.4515	-42.264774	0.000314	3.140355	1.063981	-0.000126
1344	1.3363e+02	-13.5028	-42.333405	0.000172	1.722130	0.583474	-0.000069
1345	1.3373e+02	-13.5381	-42.466631	0.000334	3.342959	1.132625	-0.000134
1346	1.3383e+02	-13.5830	-42.611968	0.000365	3.646864	1.235591	-0.000146
1347	1.3393e+02	-13.6247	-42.737119	0.000314	3.140355	1.063981	-0.000126
1348	1.3403e+02	-13.6665	-42.870344	0.000334	3.342959	1.132625	-0.000134
1349	1.3413e+02	-13.6953	-42.934939	0.000162	1.620829	0.549152	-0.000065
1350	1.3423e+02	-13.7435	-43.080275	0.000365	3.646864	1.235591	-0.000146
1351	1.3432e+02	-13.7884	-43.189278	0.000274	2.735148	0.926693	-0.000110
1352	1.3442e+02	-13.8365	-43.298281	0.000274	2.735148	0.926693	-0.000110
1353	1.3452e+02	-13.8670	-43.431506	0.000334	3.342959	1.132625	-0.000134
1354	1.3462e+02	-13.9055	-43.528398	0.000243	2.431243	0.823727	-0.000097
1355	1.3472e+02	-13.9504	-43.681809	0.000385	3.849468	1.304235	-0.000154
1356	1.3482e+02	-13.9857	-43.810997	0.000324	3.241657	1.098303	-0.000130
1357	1.3492e+02	-14.0210	-43.940185	0.000324	3.241657	1.098303	-0.000130
1358	1.3502e+02	-14.0611	-44.029002	0.000223	2.228639	0.755083	-0.000089
1359	1.3512e+02	-14.1076	-44.178376	0.000375	3.748166	1.269913	-0.000150
1360	1.3522e+02	-14.1429	-44.319676	0.000355	3.545563	1.201269	-0.000142
1361	1.3532e+02	-14.1846	-44.368122	0.000122	1.215621	0.411864	-0.000049
1362	1.3542e+02	-14.2215	-44.501347	0.000334	3.342959	1.132625	-0.000134
1363	1.3552e+02	-14.2648	-44.630536	0.000324	3.241657	1.098303	-0.000130
1364	1.3562e+02	-14.3049	-44.787984	0.000395	3.950770	1.338557	-0.000158
1365	1.3572e+02	-14.3434	-44.824318	0.000091	0.911716	0.308898	-0.000037
1366	1.3582e+02	-14.3803	-44.989841	0.000415	4.153373	1.407201	-0.000166
1367	1.3592e+02	-14.4301	-45.098843	0.000274	2.735148	0.926693	-0.000110
1368	1.3602e+02	-14.4590	-45.175549	0.000192	1.924734	0.652118	-0.000077
1369	1.3612e+02	-14.5039	-45.328960	0.000385	3.849468	1.304235	-0.000154
1370	1.3622e+02	-14.5392	-45.454111	0.000314	3.140355	1.063981	-0.000126
1371	1.3631e+02	-14.5729	-45.538891	0.000213	2.127338	0.720761	-0.000085
1372	1.3641e+02	-14.6306	-45.660005	0.000304	3.039054	1.029659	-0.000122
1373	1.3651e+02	-14.6643	-45.777082	0.000294	2.937752	0.995337	-0.000118
1374	1.3661e+02	-14.6980	-45.910308	0.000334	3.342959	1.132625	-0.000134
1375	1.3671e+02	-14.7397	-45.995087	0.000213	2.127338	0.720761	-0.000085
1376	1.3681e+02	-14.7782	-46.120239	0.000314	3.140355	1.063981	-0.000126
1377	1.3691e+02	-14.8167	-46.229241	0.000274	2.735148	0.926693	-0.000110
1378	1.3701e+02	-14.8632	-46.334207	0.000263	2.633846	0.892371	-0.000105
1379	1.3711e+02	-14.8985	-46.423024	0.000223	2.228639	0.755083	-0.000089
1380	1.3721e+02	-14.9290	-46.556249	0.000334	3.342959	1.132625	-0.000134
1381	1.3731e+02	-14.9787	-46.685438	0.000324	3.241657	1.098303	-0.000130
1382	1.3741e+02	-15.0172	-46.838849	0.000385	3.849468	1.304235	-0.000154
1383	1.3751e+02	-15.0621	-46.899406	0.000152	1.519527	0.514830	-0.000061
1384	1.3761e+02	-15.1039	-47.020520	0.000304	3.039054	1.029659	-0.000122
1385	1.3771e+02	-15.1359	-47.133560	0.000284	2.836450	0.961015	-0.000114
1386	1.3781e+02	-15.1841	-47.234488	0.000253	2.532545	0.858049	-0.000101
1387	1.3791e+02	-15.2145	-47.347528	0.000284	2.836450	0.961015	-0.000114
1388	1.3801e+02	-15.2627	-47.460568	0.000284	2.836450	0.961015	-0.000114
1389	1.3811e+02	-15.3044	-47.565533	0.000263	2.633846	0.892371	-0.000105
1390	1.3821e+02	-15.3349	-47.698759	0.000334	3.342959	1.132625	-0.000134
1391	1.3831e+02	-15.3782	-47.803724	0.000263	2.633846	0.892371	-0.000105
1392	1.3840e+02	-15.4183	-47.957135	0.000385	3.849468	1.304235	-0.000154
1393	1.3850e+02	-15.4552	-48.033841	0.000192	1.924734	0.652118	-0.000077
1394	1.3860e+02	-15.4969	-48.150918	0.000294	2.937752	0.995337	-0.000118
1395	1.3870e+02	-15.5402	-48.211475	0.000152	1.519527	0.514830	-0.000061
1396	1.3880e+02	-15.5675	-48.352775	0.000355	3.545563	1.201269	-0.000142
1397	1.3890e+02	-15.6108	-48.465815	0.000284	2.836450	0.961015	-0.000114
1398	1.3900e+02	-15.6525	-48.603077	0.000344	3.444261	1.166947	-0.000138
1399	1.3910e+02	-15.6990	-48.663634	0.000152	1.519527	0.514830	-0.000061
1400	1.3920e+02	-15.7295	-48.792823	0.000324	3.241657	1.098303	-0.000130
1401	1.3930e+02	-15.7728	-48.913937	0.000304	3.039054	1.029659	-0.000122
1402	1.3940e+02	-15.8049	-49.018902	0.000263	2.633846	0.892371	-0.000105
1403	1.3950e+02	-15.8450	-49.156165	0.000344	3.444261	1.166947	-0.000138
1404	1.3960e+02	-15.8915	-49.236907	0.000203	2.026036	0.686439	-0.000081
1405	1.3970e+02	-15.9413	-49.358022	0.000304	3.039054	1.029659	-0.000122
1406	1.3980e+02	-15.9750	-49.422616	0.000162	1.620829	0.549152	-0.000065
1407	1.3990e+02	-16.0135	-49.580064	0.000395	3.950770	1.338557	-0.000158
1408	1.4000e+02	-16.0600	-49.676955	0.000243	2.431243	0.823727	-0.000097
1409	1.4010e+02	-16.0969	-49.802106	0.000314	3.140355	1.063981	-0.000126
1410	1.4020e+02	-16.1418	-49.919183	0.000294	2.937752	0.995337	-0.000118
1411	1.4029e+02	-16.1691	-49.959555	0.000101	1.013018	0.343220	-0.000041
1412	1.4039e+02	-16.2060	-50.133152	0.000436	4.355977	1.475845	-0.000174
1413	1.4049e+02	-16.2509	-50.189671	0.000142	1.418225	0.480508	-0.000057
1414	1.4059e+02	-16.2974	-50.326934	0.000344	3.444261	1.166947	-0.000138
1415	1.4069e+02	-16.3359	-50.480345	0.000385	3.849468	1.304235	-0.000154
1416	1.4079e+02	-16.3728	-50.548977	0.000172	1.722130	0.583474	-0.000069
1417	1.4089e+02	-16.4193	-50.670091	0.000304	3.039054	1.029659	-0.000122
1418	1.4099e+02	-16.4578	-50.787168	0.000294	2.937752	0.995337	-0.000118
1419	1.4109e+02	-16.4851	-50.867910	0.000203	2.026036	0.686439	-0.000081
1420	1.4119e+02	-16.5364	-51.005173	0.000344	3.444261	1.166947	-0.000138
1421	1.4129e+02	-16.5781	-51.150510	0.000365	3.646864	1.235591	-0.000146
1422	1.4139e+02	-16.6134	-51.275661	0.000314	3.140355	1.063981	-0.000126
1423	1.4149e+02	-16.6503	-51.320070	0.000111	1.114320	0.377542	-0.000045
1424	1.4159e+02	-16.7001	-51.408886	0.000223	2.228639	0.755083	-0.000089
1425	1.4169e+02	-16.7434	-51.525963	0.000294	2.937752	0.995337	-0.000118
1426	1.4179e+02	-16.7787	-51.651115	0.000314	3.140355	1.063981	-0.000126
1427	1.4189e+02	-16.8188	-51.748006	0.000243	2.431243	0.823727	-0.000097
1428	1.4199e+02	-16.8541	-51.865083	0.000294	2.937752	0.995337	-0.000118
1429	1.4209e+02	-16.9038	-51.982160	0.000294	2.937752	0.995337	-0.000118
1430	1.4219e+02	-16.9247	-52.103274	0.000304	3.039054	1.029659	-0.000122
1431	1.4228e+02	-16.9744	-52.192091	0.000223	2.228639	0.755083	-0.000089
1432	1.4238e+02	-17.0193	-52.288982	0.000243	2.431243	0.823727	-0.000097
1433	1.4248e+02	-17.0546	-52.385873	0.000243	2.431243	0.823727	-0.000097
1434	1.4258e+02	-17.0883	-52.527173	0.000355	3.545563	1.201269	-0.000142
1435	1.4268e+02	-17.1316	-52.591767	0.000162	1.620829	0.549152	-0.000065
1436	1.4278e+02	-17.1669	-52.700770	0.000274	2.735148	0.926693	-0.000110
1437	1.4288e+02	-17.2102	-52.821884	0.000304	3.039054	1.029659	-0.000122
1438	1.4298e+02	-17.2535	-52.894552	0.000182	1.823432	0.617796	-0.000073
1439	1.4308e+02	-17.2872	-53.039889	0.000365	3.646864	1.235591	-0.000146
1440	1.4318e+02	-17.3273	-53.148892	0.000274	2.735148	0.926693	-0.000110
1441	1.4328e+02	-17.3770	-53.278080	0.000324	3.241657	1.098303	-0.000130
1442	1.4338e+02	-17.4107	-53.358823	0.000203	2.026036	0.686439	-0.000081
1443	1.4348e+02	-17.4460	-53.496086	0.000344	3.444261	1.166947	-0.000138
1444	1.4358e+02	-17.4910	-53.592977	0.000243	2.431243	0.823727	-0.000097
1445	1.4368e+02	-17.5327	-53.706017	0.000284	2.836450	0.961015	-0.000114
1446	1.4378e+02	-17.5583	-53.790797	0.000213	2.127338	0.720761	-0.000085
1447	1.4388e+02	-17.6161	-53.936133	0.000365	3.646864	1.235591	-0.000146
1448	1.4398e+02	-17.6417	-54.045136	0.000274	2.735148	0.926693	-0.000110
1449	1.4408e+02	-17.6835	-54.186436	0.000355	3.545563	1.201269	-0.000142
1450	1.4418e+02	-17.7236	-54.295439	0.000274	2.735148	0.926693	-0.000110
1451	1.4428e+02	-17.7749	-54.355996	0.000152	1.519527	0.514830	-0.000061
1452	1.4437e+02	-17.8022	-54.485184	0.000324	3.241657	1.098303	-0.000130
1453	1.4447e+02	-17.8423	-54.598224	0.000284	2.836450	0.961015	-0.000114
1454	1.4457e+02	-17.8872	-54.731449	0.000334	3.342959	1.132625	-0.000134
1455	1.4467e+02	-17.9369	-54.848526	0.000294	2.937752	0.995337	-0.000118
1456	1.4477e+02	-17.9690	-54.969640	0.000304	3.039054	1.029659	-0.000122
1457	1.4487e+02	-18.0059	-55.066531	0.000243	2.431243	0.823727	-0.000097
1458	1.4497e+02	-18.0508	-55.183608	0.000294	2.937752	0.995337	-0.000118
1459	1.4507e+02	-18.0909	-55.280500	0.000243	2.431243	0.823727	-0.000097
1460	1.4517e+02	-18.1262	-55.446022	0.000415	4.153373	1.407201	-0.000166
1461	1.4527e+02	-18.1711	-55.534839	0.000223	2.228639	0.755083	-0.000089
1462	1.4537e+02	-18.1984	-55.676139	0.000355	3.545563	1.201269	-0.000142
1463	1.4547e+02	-18.2498	-55.813402	0.000344	3.444261	1.166947	-0.000138
1464	1.4557e+02	-18.2866	-55.910293	0.000243	2.431243	0.823727	-0.000097
1465	1.4567e+02	-18.3300	-56.059667	0.000375	3.748166	1.269913	-0.000150
1466	1.4577e+02	-18.3733	-56.136372	0.000192	1.924734	0.652118	-0.000077
1467	1.4587e+02	-18.4118	-56.241338	0.000263	2.633846	0.892371	-0.000105
1468	1.4597e+02	-18.4535	-56.350341	0.000274	2.735148	0.926693	-0.000110
1469	1.4607e+02	-18.4808	-56.519900	0.000425	4.254675	1.441523	-0.000170
1470	1.4617e+02	-18.5289	-56.632940	0.000284	2.836450	0.961015	-0.000114
1471	1.4626e+02	-18.5626	-56.758091	0.000314	3.140355	1.063981	-0.000126
1472	1.4636e+02	-18.6107	-56.895354	0.000344	3.444261	1.166947	-0.000138
1473	1.4646e+02	-18.6412	-57.020505	0.000314	3.140355	1.063981	-0.000126
1474	1.4656e+02	-18.6845	-57.121434	0.000253	2.532545	0.858049	-0.000101
1475	1.4666e+02	-18.7198	-57.250622	0.000324	3.241657	1.098303	-0.000130
1476	1.4676e+02	-18.7631	-57.399996	0.000375	3.748166	1.269913	-0.000150
1477	1.4686e+02	-18.8016	-57.529184	0.000324	3.241657	1.098303	-0.000130
1478	1.4696e+02	-18.8401	-57.654335	0.000314	3.140355	1.063981	-0.000126
1479	1.4706e+02	-18.8818	-57.763338	0.000274	2.735148	0.926693	-0.000110
1480	1.4716e+02	-18.9235	-57.920786	0.000395	3.950770	1.338557	-0.000158
1481	1.4726e+02	-18.9668	-58.009603	0.000223	2.228639	0.755083	-0.000089
1482	1.4736e+02	-19.0005	-58.142829	0.000334	3.342959	1.132625	-0.000134
1483	1.4746e+02	-19.0438	-58.276054	0.000334	3.342959	1.132625	-0.000134
1484	1.4756e+02	-19.0856	-58.376983	0.000253	2.532545	0.858049	-0.000101
1485	1.4766e+02	-19.1273	-58.550580	0.000436	4.355977	1.475845	-0.000174
1486	1.4776e+02	-19.1594	-58.675731	0.000314	3.140355	1.063981	-0.000126
1487	1.4786e+02	-19.2059	-58.808956	0.000334	3.342959	1.132625	-0.000134
1488	1.4796e+02	-19.2428	-58.958330	0.000375	3.748166	1.269913	-0.000150
1489	1.4806e+02	-19.2781	-59.067333	0.000274	2.735148	0.926693	-0.000110
1490	1.4816e+02	-19.3262	-59.204596	0.000344	3.444261	1.166947	-0.000138
1491	1.4825e+02	-19.3695	-59.333784	0.000324	3.241657	1.098303	-0.000130
1492	1.4835e+02	-19.4064	-59.406452	0.000182	1.823432	0.617796	-0.000073
1493	1.4845e+02	-19.4497	-59.584086	0.000446	4.457279	1.510167	-0.000179
1494	1.4855e+02	-19.4866	-59.741535	0.000395	3.950770	1.338557	-0.000158
1495	1.4865e+02	-19.5219	-59.846500	0.000263	2.633846	0.892371	-0.000105
1496	1.4875e+02	-19.5620	-59.959540	0.000284	2.836450	0.961015	-0.000114
1497	1.4885e+02	-19.6021	-60.088728	0.000324	3.241657	1.098303	-0.000130
1498	1.4895e+02	-19.6374	-60.209842	0.000304	3.039054	1.029659	-0.000122
1499	1.4905e+02	-19.6807	-60.355179	0.000365	3.646864	1.235591	-0.000146
1500	1.4915e+02	-19.7208	-60.484368	0.000324	3.241657	1.098303	-0.000130
1501	1.4925e+02	-19.7625	-60.609519	0.000314	3.140355	1.063981	-0.000126
1502	1.4935e+02	-19.7978	-60.803301	0.000486	4.862486	1.647455	-0.000195
1503	1.4945e+02	-19.8315	-60.928453	0.000314	3.140355	1.063981	-0.000126
1504	1.4955e+02	-19.8845	-61.025344	0.000243	2.431243	0.823727	-0.000097
1505	1.4965e+02	-19.9262	-61.182792	0.000395	3.950770	1.338557	-0.000158
1506	1.4975e+02	-19.9631	-61.332166	0.000375	3.748166	1.269913	-0.000150
1507	1.4985e+02	-20.0048	-61.477503	0.000365	3.646864	1.235591	-0.000146
1508	1.4995e+02	-19.9599	-61.433095	0.000111	1.114320	0.377542	0.000045
1509	1.5005e+02	-19.9230	-61.368500	0.000162	1.620829	0.549152	0.000065
1510	1.5015e+02	-19.8716	-61.336203	0.000081	0.810414	0.274576	0.000032
1511	1.5025e+02	-19.8379	-61.299869	0.000091	0.911716	0.308898	0.000037
1512	1.5034e+02	-19.8010	-61.239312	0.000152	1.519527	0.514830	0.000061
1513	1.5044e+02	-19.7625	-61.219126	0.000051	0.506509	0.171610	0.000020
1514	1.5054e+02	-19.7176	-61.122235	0.000243	2.431243	0.823727	0.000097
1515	1.5064e+02	-19.6855	-61.065715	0.000142	1.418225	0.480508	0.000057
1516	1.5074e+02	-19.6422	-61.029381	0.000091	0.911716	0.308898	0.000037
1517	1.5084e+02	-19.6005	-60.948638	0.000203	2.026036	0.686439	0.000081
1518	1.5094e+02	-19.5716	-60.912304	0.000091	0.911716	0.308898	0.000037
1519	1.5104e+02	-19.5267	-60.827524	0.000213	2.127338	0.720761	0.000085
1520	1.5114e+02	-19.4754	-60.795227	0.000081	0.810414	0.274576	0.000032
1521	1.5124e+02	-19.4353	-60.702373	0.000233	2.329941	0.789405	0.000093
1522	1.5134e+02	-19.4016	-60.641816	0.000152	1.519527	0.514830	0.000061
1523	1.5144e+02	-19.3679	-60.565110	0.000192	1.924734	0.652118	0.000077
1524	1.5154e+02	-19.3230	-60.488405	0.000192	1.924734	0.652118	0.000077
1525	1.5164e+02	-19.2781	-60.448033	0.000101	1.013018	0.343220	0.000041
1526	1.5174e+02	-19.2460	-60.363254	0.000213	2.127338	0.720761	0.000085
1527	1.5184e+02	-19.2027	-60.314808	0.000122	1.215621	0.411864	0.000049
1528	1.5194e+02	-19.1690	-60.262325	0.000132	1.316923	0.446186	0.000053
1529	1.5204e+02	-19.1160	-60.153322	0.000274	2.735148	0.926693	0.000110
1530	1.5214e+02	-19.0791	-60.088728	0.000162	1.620829	0.549152	0.000065
1531	1.5224e+02	-19.0374	-59.979726	0.000274	2.735148	0.926693	0.000110
1532	1.5233e+02	-19.0053	-59.903020	0.000192	1.924734	0.652118	0.000077
1533	1.5243e+02	-18.9620	-59.862649	0.000101	1.013018	0.343220	0.000041
1534	1.5253e+02	-18.9235	-59.769795	0.000233	2.329941	0.789405	0.000093
1535	1.5263e+02	-18.8850	-59.664829	0.000263	2.633846	0.892371	0.000105
1536	1.5273e+02	-18.8465	-59.620421	0.000111	1.114320	0.377542	0.000045
1537	1.5283e+02	-18.8048	-59.551789	0.000172	1.722130	0.583474	0.000069
1538	1.5293e+02	-18.7679	-59.475084	0.000192	1.924734	0.652118	0.000077
1539	1.5303e+02	-18.7294	-59.374155	0.000253	2.532545	0.858049	0.000101
1540	1.5313e+02	-18.6845	-59.297450	0.000192	1.924734	0.652118	0.000077
1541	1.5323e+02	-18.6508	-59.240930	0.000142	1.418225	0.480508	0.000057
1542	1.5333e+02	-18.6107	-59.148076	0.000233	2.329941	0.789405	0.000093
1543	1.5343e+02	-18.5722	-59.059259	0.000223	2.228639	0.755083	0.000089
1544	1.5353e+02	-18.5321	-58.998702	0.000152	1.519527	0.514830	0.000061
1545	1.5363e+02	-18.4840	-58.873550	0.000314	3.140355	1.063981	0.000126
1546	1.5373e+02	-18.4471	-58.804919	0.000172	1.722130	0.583474	0.000069
1547	1.5383e+02	-18.4102	-58.736288	0.000172	1.722130	0.583474	0.000069
1548	1.5393e+02	-18.3669	-58.663619	0.000182	1.823432	0.617796	0.000073
1549	1.5403e+02	-18.3348	-58.562691	0.000253	2.532545	0.858049	0.000101
1550	1.5413e+02	-18.2802	-58.449651	0.000284	2.836450	0.961015	0.000114
1551	1.5422e+02	-18.2514	-58.393131	0.000142	1.418225	0.480508	0.000057
1552	1.5432e+02	-18.2080	-58.312389	0.000203	2.026036	0.686439	0.000081
1553	1.5442e+02	-18.1711	-58.215497	0.000243	2.431243	0.823727	0.000097
1554	1.5452e+02	-18.1262	-58.130717	0.000213	2.127338	0.720761	0.000085
1555	1.5462e+02	-18.0974	-58.037863	0.000233	2.329941	0.789405	0.000093
1556	1.5472e+02	-18.0492	-57.969232	0.000172	1.722130	0.583474	0.000069
1557	1.5482e+02	-18.0043	-57.844081	0.000314	3.140355	1.063981	0.000126
1558	1.5492e+02	-17.9706	-57.799672	0.000111	1.114320	0.377542	0.000045
1559	1.5502e+02	-17.9305	-57.670484	0.000324	3.241657	1.098303	0.000130
1560	1.5512e+02	-17.8808	-57.597816	0.000182	1.823432	0.617796	0.000073
1561	1.5522e+02	-17.8551	-57.533221	0.000162	1.620829	0.549152	0.000065
1562	1.5532e+02	-17.8054	-57.456516	0.000192	1.924734	0.652118	0.000077
1563	1.5542e+02	-17.7701	-57.327327	0.000324	3.241657	1.098303	0.000130
1564	1.5552e+02	-17.7252	-57.246585	0.000203	2.026036	0.686439	0.000081
1565	1.5562e+02	-17.6899	-57.186028	0.000152	1.519527	0.514830	0.000061
1566	1.5572e+02	-17.6482	-57.081062	0.000263	2.633846	0.892371	0.000105
1567	1.5582e+02	-17.6032	-56.992245	0.000223	2.228639	0.755083	0.000089
1568	1.5592e+02	-17.5680	-56.887280	0.000263	2.633846	0.892371	0.000105
1569	1.5602e+02	-17.5295	-56.822686	0.000162	1.620829	0.549152	0.000065
1570	1.5612e+02	-17.4958	-56.725794	0.000243	2.431243	0.823727	0.000097
1571	1.5622e+02	-17.4492	-56.653126	0.000182	1.823432	0.617796	0.000073
1572	1.5631e+02	-17.4059	-56.552197	0.000253	2.532545	0.858049	0.000101
1573	1.5641e+02	-17.3754	-56.431083	0.000304	3.039054	1.029659	0.000122
1574	1.5651e+02	-17.3305	-56.362452	0.000172	1.722130	0.583474	0.000069
1575	1.5661e+02	-17.2936	-56.293821	0.000172	1.722130	0.583474	0.000069
1576	1.5671e+02	-17.2503	-56.213078	0.000203	2.026036	0.686439	0.000081
1577	1.5681e+02	-17.2214	-56.083890	0.000324	3.241657	1.098303	0.000130
1578	1.5691e+02	-17.1685	-55.999110	0.000213	2.127338	0.720761	0.000085
1579	1.5701e+02	-17.1252	-55.906256	0.000233	2.329941	0.789405	0.000093
1580	1.5711e+02	-17.0931	-55.833587	0.000182	1.823432	0.617796	0.000073
1581	1.5721e+02	-17.0402	-55.740733	0.000233	2.329941	0.789405	0.000093
1582	1.5731e+02	-17.0129	-55.631730	0.000274	2.735148	0.926693	0.000110
1583	1.5741e+02	-16.9744	-55.518691	0.000284	2.836450	0.961015	0.000114
1584	1.5751e+02	-16.9359	-55.429874	0.000223	2.228639	0.755083	0.000089
1585	1.5761e+02	-16.8878	-55.316834	0.000284	2.836450	0.961015	0.000114
1586	1.5771e+02	-16.8573	-55.248203	0.000172	1.722130	0.583474	0.000069
1587	1.5781e+02	-16.8092	-55.167460	0.000203	2.026036	0.686439	0.000081
1588	1.5791e+02	-16.7755	-55.070569	0.000243	2.431243	0.823727	0.000097
1589	1.5801e+02	-16.7257	-54.961566	0.000274	2.735148	0.926693	0.000110
1590	1.5811e+02	-16.6856	-54.880823	0.000203	2.026036	0.686439	0.000081
1591	1.5821e+02	-16.6535	-54.804118	0.000192	1.924734	0.652118	0.000077
1592	1.5830e+02	-16.6086	-54.727412	0.000192	1.924734	0.652118	0.000077
1593	1.5840e+02	-16.5797	-54.590149	0.000344	3.444261	1.166947	0.000138
1594	1.5850e+02	-16.5316	-54.469035	0.000304	3.039054	1.029659	0.000122
1595	1.5860e+02	-16.4915	-54.404441	0.000162	1.620829	0.549152	0.000065
1596	1.5870e+02	-16.4546	-54.279290	0.000314	3.140355	1.063981	0.000126
1597	1.5880e+02	-16.4209	-54.226807	0.000132	1.316923	0.446186	0.000053
1598	1.5890e+02	-16.3696	-54.113767	0.000284	2.836450	0.961015	0.000114
1599	1.5900e+02	-16.3375	-53.992653	0.000304	3.039054	1.029659	0.000122
1600	1.5910e+02	-16.3006	-53.919985	0.000182	1.823432	0.617796	0.000073
1601	1.5920e+02	-16.2669	-53.802908	0.000294	2.937752	0.995337	0.000118
1602	1.5930e+02	-16.2236	-53.734277	0.000172	1.722130	0.583474	0.000069
1603	1.5940e+02	-16.1851	-53.605088	0.000324	3.241657	1.098303	0.000130
1604	1.5950e+02	-16.1370	-53.548568	0.000142	1.418225	0.480508	0.000057
1605	1.5960e+02	-16.0937	-53.431491	0.000294	2.937752	0.995337	0.000118
1606	1.5970e+02	-16.0552	-53.358823	0.000182	1.823432	0.617796	0.000073
1607	1.5980e+02	-16.0151	-53.245783	0.000284	2.836450	0.961015	0.000114
1608	1.5990e+02	-15.9862	-53.104483	0.000355	3.545563	1.201269	0.000142
1609	1.6000e+02	-15.9364	-53.035852	0.000172	1.722130	0.583474	0.000069
1610	1.6010e+02	-15.8867	-52.926850	0.000274	2.735148	0.926693	0.000110
1611	1.6019e+02	-15.8546	-52.842070	0.000213	2.127338	0.720761	0.000085
1612	1.6029e+02	-15.8097	-52.761327	0.000203	2.026036	0.686439	0.000081
1613	1.6039e+02	-15.7744	-52.599842	0.000405	4.052071	1.372879	0.000162
1614	1.6049e+02	-15.7231	-52.539284	0.000152	1.519527	0.514830	0.000061
1615	1.6059e+02	-15.7086	-52.418170	0.000304	3.039054	1.029659	0.000122
1616	1.6069e+02	-15.6557	-52.349539	0.000172	1.722130	0.583474	0.000069
1617	1.6079e+02	-15.6108	-52.220351	0.000324	3.241657	1.098303	0.000130
1618	1.6089e+02	-15.5707	-52.171905	0.000122	1.215621	0.411864	0.000049
1619	1.6099e+02	-15.5418	-52.022531	0.000375	3.748166	1.269913	0.000150
1620	1.6109e+02	-15.4921	-51.953900	0.000172	1.722130	0.583474	0.000069
1621	1.6119e+02	-15.4664	-51.820674	0.000334	3.342959	1.132625	0.000134
1622	1.6129e+02	-15.4199	-51.780303	0.000101	1.013018	0.343220	0.000041
1623	1.6139e+02	-15.3782	-51.679375	0.000253	2.532545	0.858049	0.000101
1624	1.6149e+02	-15.3333	-51.590558	0.000223	2.228639	0.755083	0.000089
1625	1.6159e+02	-15.2980	-51.497703	0.000233	2.329941	0.789405	0.000093
1626	1.6169e+02	-15.2627	-51.368515	0.000324	3.241657	1.098303	0.000130
1627	1.6179e+02	-15.2194	-51.320070	0.000122	1.215621	0.411864	0.000049
1628	1.6189e+02	-15.1841	-51.194918	0.000314	3.140355	1.063981	0.000126
1629	1.6199e+02	-15.1391	-51.093990	0.000253	2.532545	0.858049	0.000101
1630	1.6209e+02	-15.0974	-51.033433	0.000152	1.519527	0.514830	0.000061
1631	1.6219e+02	-15.0573	-50.880022	0.000385	3.849468	1.304235	0.000154
1632	1.6228e+02	-15.0188	-50.791205	0.000223	2.228639	0.755083	0.000089
1633	1.6238e+02	-14.9707	-50.754870	0.000091	0.911716	0.308898	0.000037
1634	1.6248e+02	-14.9322	-50.585311	0.000425	4.254675	1.441523	0.000170
1635	1.6258e+02	-14.8985	-50.516679	0.000172	1.722130	0.583474	0.000069
1636	1.6268e+02	-14.8584	-50.403640	0.000284	2.836450	0.961015	0.000114
1637	1.6278e+02	-14.8199	-50.343083	0.000152	1.519527	0.514830	0.000061
1638	1.6288e+02	-14.7878	-50.250229	0.000233	2.329941	0.789405	0.000093
1639	1.6298e+02	-14.7365	-50.137189	0.000284	2.836450	0.961015	0.000114
1640	1.6308e+02	-14.7108	-50.020112	0.000294	2.937752	0.995337	0.000118
1641	1.6318e+02	-14.6643	-49.927258	0.000233	2.329941	0.789405	0.000093
1642	1.6328e+02	-14.6130	-49.838441	0.000223	2.228639	0.755083	0.000089
1643	1.6338e+02	-14.5761	-49.741549	0.000243	2.431243	0.823727	0.000097
1644	1.6348e+02	-14.5392	-49.644658	0.000243	2.431243	0.823727	0.000097
1645	1.6358e+02	-14.5055	-49.503358	0.000355	3.545563	1.201269	0.000142
1646	1.6368e+02	-14.4590	-49.450876	0.000132	1.316923	0.446186	0.000053
1647	1.6378e+02	-14.4092	-49.337836	0.000284	2.836450	0.961015	0.000114
1648	1.6388e+02	-14.3868	-49.285353	0.000132	1.316923	0.446186	0.000053
1649	1.6398e+02	-14.3483	-49.188462	0.000243	2.431243	0.823727	0.000097
1650	1.6408e+02	-14.3065	-49.071385	0.000294	2.937752	0.995337	0.000118
1651	1.6418e+02	-14.2616	-48.954308	0.000294	2.937752	0.995337	0.000118
1652	1.6427e+02	-14.2231	-48.869528	0.000213	2.127338	0.720761	0.000085
1653	1.6437e+02	-14.1862	-48.804934	0.000162	1.620829	0.549152	0.000065
1654	1.6447e+02	-14.1397	-48.679783	0.000314	3.140355	1.063981	0.000126
1655	1.6457e+02	-14.0964	-48.570780	0.000274	2.735148	0.926693	0.000110
1656	1.6467e+02	-14.0595	-48.465815	0.000263	2.633846	0.892371	0.000105
1657	1.6477e+02	-14.0242	-48.368923	0.000243	2.431243	0.823727	0.000097
1658	1.6487e+02	-13.9809	-48.304329	0.000162	1.620829	0.549152	0.000065
1659	1.6497e+02	-13.9424	-48.179178	0.000314	3.140355	1.063981	0.000126
1660	1.6507e+02	-13.9135	-48.106509	0.000182	1.823432	0.617796	0.000073
1661	1.6517e+02	-13.8670	-48.001544	0.000263	2.633846	0.892371	0.000105
1662	1.6527e+02	-13.8237	-47.908690	0.000233	2.329941	0.789405	0.000093
1663	1.6537e+02	-13.7804	-47.823910	0.000213	2.127338	0.720761	0.000085
1664	1.6547e+02	-13.7499	-47.682610	0.000355	3.545563	1.201269	0.000142
1665	1.6557e+02	-13.7001	-47.593793	0.000223	2.228639	0.755083	0.000089
1666	1.6567e+02	-13.6713	-47.492865	0.000253	2.532545	0.858049	0.000101
1667	1.6577e+02	-13.6312	-47.412122	0.000203	2.026036	0.686439	0.000081
1668	1.6587e+02	-13.5911	-47.303119	0.000274	2.735148	0.926693	0.000110
1669	1.6597e+02	-13.5365	-47.198154	0.000263	2.633846	0.892371	0.000105
1670	1.6607e+02	-13.5060	-47.085114	0.000284	2.836450	0.961015	0.000114
1671	1.6616e+02	-13.4707	-46.992260	0.000233	2.329941	0.789405	0.000093
1672	1.6626e+02	-13.4210	-46.887294	0.000263	2.633846	0.892371	0.000105
1673	1.6636e+02	-13.3857	-46.794440	0.000233	2.329941	0.789405	0.000093
1674	1.6646e+02	-13.3440	-46.701586	0.000233	2.329941	0.789405	0.000093
1675	1.6656e+02	-13.3055	-46.608732	0.000233	2.329941	0.789405	0.000093
1676	1.6666e+02	-13.2734	-46.499729	0.000274	2.735148	0.926693	0.000110
1677	1.6676e+02	-13.2285	-46.402838	0.000243	2.431243	0.823727	0.000097
1678	1.6686e+02	-13.1980	-46.338244	0.000162	1.620829	0.549152	0.000065
1679	1.6696e+02	-13.1419	-46.209056	0.000324	3.241657	1.098303	0.000130
1680	1.6706e+02	-13.1162	-46.176759	0.000081	0.810414	0.274576	0.000032
1681	1.6716e+02	-13.0665	-46.019310	0.000395	3.950770	1.338557	0.000158
1682	1.6726e+02	-13.0296	-45.926456	0.000233	2.329941	0.789405	0.000093
1683	1.6736e+02	-12.9863	-45.829565	0.000243	2.431243	0.823727	0.000097
1684	1.6746e+02	-12.9526	-45.760934	0.000172	1.722130	0.583474	0.000069
1685	1.6756e+02	-12.9093	-45.660005	0.000253	2.532545	0.858049	0.000101
1686	1.6766e+02	-12.8692	-45.555040	0.000263	2.633846	0.892371	0.000105
1687	1.6776e+02	-12.8290	-45.462186	0.000233	2.329941	0.789405	0.000093
1688	1.6786e+02	-12.7905	-45.353183	0.000274	2.735148	0.926693	0.000110
1689	1.6796e+02	-12.7520	-45.260329	0.000233	2.329941	0.789405	0.000093
1690	1.6806e+02	-12.7119	-45.187660	0.000182	1.823432	0.617796	0.000073
1691	1.6816e+02	-12.6718	-45.038286	0.000375	3.748166	1.269913	0.000150
1692	1.6825e+02	-12.6237	-44.977729	0.000152	1.519527	0.514830	0.000061
1693	1.6835e+02	-12.5964	-44.844504	0.000334	3.342959	1.132625	0.000134
1694	1.6845e+02	-12.5531	-44.723390	0.000304	3.039054	1.029659	0.000122
1695	1.6855e+02	-12.5130	-44.666870	0.000142	1.418225	0.480508	0.000057
1696	1.6865e+02	-12.4665	-44.565941	0.000253	2.532545	0.858049	0.000101
1697	1.6875e+02	-12.4248	-44.473087	0.000233	2.329941	0.789405	0.000093
1698	1.6885e+02	-12.3895	-44.400419	0.000182	1.823432	0.617796	0.000073
1699	1.6895e+02	-12.3542	-44.238933	0.000405	4.052071	1.372879	0.000162
1700	1.6905e+02	-12.3061	-44.158191	0.000203	2.026036	0.686439	0.000081
1701	1.6915e+02	-12.2724	-44.020928	0.000344	3.444261	1.166947	0.000138
1702	1.6925e+02	-12.2355	-43.972482	0.000122	1.215621	0.411864	0.000049
1703	1.6935e+02	-12.1970	-43.847331	0.000314	3.140355	1.063981	0.000126
1704	1.6945e+02	-12.1569	-43.746403	0.000253	2.532545	0.858049	0.000101
1705	1.6955e+02	-12.1104	-43.641437	0.000263	2.633846	0.892371	0.000105
1706	1.6965e+02	-12.0735	-43.536472	0.000263	2.633846	0.892371	0.000105
1707	1.6975e+02	-12.0269	-43.407283	0.000324	3.241657	1.098303	0.000130
1708	1.6985e+02	-11.9932	-43.298281	0.000274	2.735148	0.926693	0.000110
1709	1.6995e+02	-11.9499	-43.225612	0.000182	1.823432	0.617796	0.000073
1710	1.7005e+02	-11.9194	-43.120647	0.000263	2.633846	0.892371	0.000105
1711	1.7015e+02	-11.8777	-42.991458	0.000324	3.241657	1.098303	0.000130
1712	1.7024e+02	-11.8296	-42.890530	0.000253	2.532545	0.858049	0.000101
1713	1.7034e+02	-11.7959	-42.821899	0.000172	1.722130	0.583474	0.000069
1714	1.7044e+02	-11.7574	-42.644265	0.000446	4.457279	1.510167	0.000179
1715	1.7054e+02	-11.7125	-42.603893	0.000101	1.013018	0.343220	0.000041
1716	1.7064e+02	-11.6708	-42.498928	0.000263	2.633846	0.892371	0.000105
1717	1.7074e+02	-11.6339	-42.373777	0.000314	3.140355	1.063981	0.000126
1718	1.7084e+02	-11.5922	-42.284960	0.000223	2.228639	0.755083	0.000089
1719	1.7094e+02	-11.5537	-42.127511	0.000395	3.950770	1.338557	0.000158
1720	1.7104e+02	-11.5088	-42.062917	0.000162	1.620829	0.549152	0.000065
1721	1.7114e+02	-11.4751	-41.978137	0.000213	2.127338	0.720761	0.000085
1722	1.7124e+02	-11.4189	-41.796466	0.000456	4.558580	1.544489	0.000183
1723	1.7134e+02	-11.3852	-41.743984	0.000132	1.316923	0.446186	0.000053
1724	1.7144e+02	-11.3564	-41.606721	0.000344	3.444261	1.166947	0.000138
1725	1.7154e+02	-11.3163	-41.485607	0.000304	3.039054	1.029659	0.000122
1726	1.7164e+02	-11.2794	-41.360456	0.000314	3.140355	1.063981	0.000126
1727	1.7174e+02	-11.2344	-41.320084	0.000101	1.013018	0.343220	0.000041
1728	1.7184e+02	-11.2008	-41.182822	0.000344	3.444261	1.166947	0.000138
1729	1.7194e+02	-11.1510	-41.073819	0.000274	2.735148	0.926693	0.000110
1730	1.7204e+02	-11.1221	-40.948668	0.000314	3.140355	1.063981	0.000126
1731	1.7213e+02	-11.0756	-40.799294	0.000375	3.748166	1.269913	0.000150
1732	1.7223e+02	-11.0307	-40.710477	0.000223	2.228639	0.755083	0.000089
1733	1.7233e+02	-10.9954	-40.617623	0.000233	2.329941	0.789405	0.000093
1734	1.7243e+02	-10.9569	-40.508620	0.000274	2.735148	0.926693	0.000110
1735	1.7253e+02	-10.9264	-40.347135	0.000405	4.052071	1.372879	0.000162
1736	1.7263e+02	-10.8735	-40.310800	0.000091	0.911716	0.308898	0.000037
1737	1.7273e+02	-10.8430	-40.185649	0.000314	3.140355	1.063981	0.000126
1738	1.7283e+02	-10.7949	-40.064535	0.000304	3.039054	1.029659	0.000122
1739	1.7293e+02	-10.7484	-39.959570	0.000263	2.633846	0.892371	0.000105
1740	1.7303e+02	-10.7179	-39.850567	0.000274	2.735148	0.926693	0.000110
1741	1.7313e+02	-10.6810	-39.773861	0.000192	1.924734	0.652118	0.000077
1742	1.7323e+02	-10.6280	-39.664859	0.000274	2.735148	0.926693	0.000110
1743	1.7333e+02	-10.5927	-39.511447	0.000385	3.849468	1.304235	0.000154
1744	1.7343e+02	-10.5559	-39.394371	0.000294	2.937752	0.995337	0.000118
1745	1.7353e+02	-10.5125	-39.281331	0.000284	2.836450	0.961015	0.000114
1746	1.7363e+02	-10.4788	-39.208662	0.000182	1.823432	0.617796	0.000073
1747	1.7373e+02	-10.4436	-39.059288	0.000375	3.748166	1.269913	0.000150
1748	1.7383e+02	-10.3954	-38.998731	0.000152	1.519527	0.514830	0.000061
1749	1.7393e+02	-10.3585	-38.833209	0.000415	4.153373	1.407201	0.000166
1750	1.7403e+02	-10.3184	-38.748429	0.000213	2.127338	0.720761	0.000085
1751	1.7413e+02	-10.2815	-38.607129	0.000355	3.545563	1.201269	0.000142
1752	1.7422e+02	-10.2334	-38.498126	0.000274	2.735148	0.926693	0.000110
1753	1.7432e+02	-10.1997	-38.368938	0.000324	3.241657	1.098303	0.000130
1754	1.7442e+02	-10.1612	-38.296270	0.000182	1.823432	0.617796	0.000073
1755	1.7452e+02	-10.1131	-38.138821	0.000395	3.950770	1.338557	0.000158
1756	1.7462e+02	-10.0794	-38.094413	0.000111	1.114320	0.377542	0.000045
1757	1.7472e+02	-10.0409	-37.916779	0.000446	4.457279	1.510167	0.000179
1758	1.7482e+02	-9.9912	-37.815850	0.000253	2.532545	0.858049	0.000101
1759	1.7492e+02	-9.9543	-37.702811	0.000284	2.836450	0.961015	0.000114
1760	1.7502e+02	-9.9238	-37.581697	0.000304	3.039054	1.029659	0.000122
1761	1.7512e+02	-9.8805	-37.492880	0.000223	2.228639	0.755083	0.000089
1762	1.7522e+02	-9.8436	-37.315246	0.000446	4.457279	1.510167	0.000179
1763	1.7532e+02	-9.8067	-37.266800	0.000122	1.215621	0.411864	0.000049
1764	1.7542e+02	-9.7602	-37.153760	0.000284	2.836450	0.961015	0.000114
1765	1.7552e+02	-9.7200	-37.004386	0.000375	3.748166	1.269913	0.000150
1766	1.7562e+02	-9.6848	-36.903458	0.000253	2.532545	0.858049	0.000101
1767	1.7572e+02	-9.6495	-36.794455	0.000274	2.735148	0.926693	0.000110
1768	1.7582e+02	-9.5997	-36.677378	0.000294	2.937752	0.995337	0.000118
1769	1.7592e+02	-9.5660	-36.507818	0.000425	4.254675	1.441523	0.000170
1770	1.7602e+02	-9.5163	-36.435150	0.000182	1.823432	0.617796	0.000073
1771	1.7612e+02	-9.4858	-36.330185	0.000263	2.633846	0.892371	0.000105
1772	1.7621e+02	-9.4345	-36.180810	0.000375	3.748166	1.269913	0.000150
1773	1.7631e+02	-9.3976	-36.116216	0.000162	1.620829	0.549152	0.000065
1774	1.7641e+02	-9.3687	-35.999139	0.000294	2.937752	0.995337	0.000118
1775	1.7651e+02	-9.3254	-35.958768	0.000101	1.013018	0.343220	0.000041
1776	1.7661e+02	-9.2805	-35.853802	0.000263	2.633846	0.892371	0.000105
1777	1.7671e+02	-9.2404	-35.781134	0.000182	1.823432	0.617796	0.000073
1778	1.7681e+02	-9.1987	-35.651946	0.000324	3.241657	1.098303	0.000130
1779	1.7691e+02	-9.1698	-35.587352	0.000162	1.620829	0.549152	0.000065
1780	1.7701e+02	-9.1233	-35.454126	0.000334	3.342959	1.132625	0.000134
1781	1.7711e+02	-9.0784	-35.304752	0.000375	3.748166	1.269913	0.000150
1782	1.7721e+02	-9.0447	-35.264381	0.000101	1.013018	0.343220	0.000041
1783	1.7731e+02	-8.9997	-35.179601	0.000213	2.127338	0.720761	0.000085
1784	1.7741e+02	-8.9661	-35.050412	0.000324	3.241657	1.098303	0.000130
1785	1.7751e+02	-8.9292	-34.945447	0.000263	2.633846	0.892371	0.000105
1786	1.7761e+02	-8.8810	-34.844519	0.000253	2.532545	0.858049	0.000101
1787	1.7771e+02	-8.8522	-34.711293	0.000334	3.342959	1.132625	0.000134
1788	1.7781e+02	-8.7944	-34.642662	0.000172	1.722130	0.583474	0.000069
1789	1.7791e+02	-8.7623	-34.505399	0.000344	3.444261	1.166947	0.000138
1790	1.7801e+02	-8.7238	-34.436768	0.000172	1.722130	0.583474	0.000069
1791	1.7810e+02	-8.6869	-34.356025	0.000203	2.026036	0.686439	0.000081
1792	1.7820e+02	-8.6468	-34.206651	0.000375	3.748166	1.269913	0.000150
1793	1.7830e+02	-8.5955	-34.150131	0.000142	1.418225	0.480508	0.000057
1794	1.7840e+02	-8.5586	-34.000757	0.000375	3.748166	1.269913	0.000150
1795	1.7850e+02	-8.5345	-33.891755	0.000274	2.735148	0.926693	0.000110
1796	1.7860e+02	-8.4832	-33.790826	0.000253	2.532545	0.858049	0.000101
1797	1.7870e+02	-8.4351	-33.637415	0.000385	3.849468	1.304235	0.000154
1798	1.7880e+02	-8.4078	-33.544561	0.000233	2.329941	0.789405	0.000093
1799	1.7890e+02	-8.3693	-33.467855	0.000192	1.924734	0.652118	0.000077
1800	1.7900e+02	-8.3260	-33.334630	0.000334	3.342959	1.132625	0.000134
1801	1.7910e+02	-8.2827	-33.274073	0.000152	1.519527	0.514830	0.000061
1802	1.7920e+02	-8.2490	-33.165070	0.000274	2.735148	0.926693	0.000110
1803	1.7930e+02	-8.2105	-33.031845	0.000334	3.342959	1.132625	0.000134
1804	1.7940e+02	-8.1607	-32.959176	0.000182	1.823432	0.617796	0.000073
1805	1.7950e+02	-8.1270	-32.809802	0.000375	3.748166	1.269913	0.000150
1806	1.7960e+02	-8.0789	-32.696762	0.000284	2.836450	0.961015	0.000114
1807	1.7970e+02	-8.0436	-32.636205	0.000152	1.519527	0.514830	0.000061
1808	1.7980e+02	-8.0067	-32.486831	0.000375	3.748166	1.269913	0.000150
1809	1.7990e+02	-7.9634	-32.361680	0.000314	3.140355	1.063981	0.000126
1810	1.8000e+02	-7.9249	-32.301123	0.000152	1.519527	0.514830	0.000061
1811	1.8009e+02	-7.8848	-32.159823	0.000355	3.545563	1.201269	0.000142
1812	1.8019e+02	-7.8463	-32.091192	0.000172	1.722130	0.583474	0.000069
1813	1.8029e+02	-7.8142	-31.953929	0.000344	3.444261	1.166947	0.000138
1814	1.8039e+02	-7.7661	-31.848964	0.000263	2.633846	0.892371	0.000105
1815	1.8049e+02	-7.7324	-31.752073	0.000243	2.431243	0.823727	0.000097
1816	1.8059e+02	-7.6859	-31.618847	0.000334	3.342959	1.132625	0.000134
1817	1.8069e+02	-7.6538	-31.521956	0.000243	2.431243	0.823727	0.000097
1818	1.8079e+02	-7.6009	-31.404879	0.000294	2.937752	0.995337	0.000118
1819	1.8089e+02	-7.5768	-31.271653	0.000334	3.342959	1.132625	0.000134
1820	1.8099e+02	-7.5239	-31.142465	0.000324	3.241657	1.098303	0.000130
1821	1.8109e+02	-7.4966	-31.077871	0.000162	1.620829	0.549152	0.000065
1822	1.8119e+02	-7.4468	-30.944645	0.000334	3.342959	1.132625	0.000134
1823	1.8129e+02	-7.4100	-30.799309	0.000365	3.646864	1.235591	0.000146
1824	1.8139e+02	-7.3747	-30.694343	0.000263	2.633846	0.892371	0.000105
1825	1.8149e+02	-7.3265	-30.605526	0.000223	2.228639	0.755083	0.000089
1826	1.8159e+02	-7.2912	-30.427892	0.000446	4.457279	1.510167	0.000179
1827	1.8169e+02	-7.2415	-30.322927	0.000263	2.633846	0.892371	0.000105
1828	1.8179e+02	-7.2142	-30.274481	0.000122	1.215621	0.411864	0.000049
1829	1.8189e+02	-7.1661	-30.133181	0.000355	3.545563	1.201269	0.000142
1830	1.8199e+02	-7.1324	-29.987844	0.000365	3.646864	1.235591	0.000146
1831	1.8209e+02	-7.1003	-29.894990	0.000233	2.329941	0.789405	0.000093
1832	1.8218e+02	-7.0490	-29.761765	0.000334	3.342959	1.132625	0.000134
1833	1.8228e+02	-7.0073	-29.672948	0.000223	2.228639	0.755083	0.000089
1834	1.8238e+02	-6.9672	-29.567982	0.000263	2.633846	0.892371	0.000105
1835	1.8248e+02	-6.9335	-29.418608	0.000375	3.748166	1.269913	0.000150
1836	1.8258e+02	-6.8854	-29.273271	0.000365	3.646864	1.235591	0.000146
1837	1.8268e+02	-6.8485	-29.180417	0.000233	2.329941	0.789405	0.000093
1838	1.8278e+02	-6.8132	-29.075452	0.000263	2.633846	0.892371	0.000105
1839	1.8288e+02	-6.7747	-28.966449	0.000274	2.735148	0.926693	0.000110
1840	1.8298e+02	-6.7346	-28.845335	0.000304	3.039054	1.029659	0.000122
1841	1.8308e+02	-6.7009	-28.732295	0.000284	2.836450	0.961015	0.000114
1842	1.8318e+02	-6.6560	-28.615218	0.000294	2.937752	0.995337	0.000118
1843	1.8328e+02	-6.6078	-28.486030	0.000324	3.241657	1.098303	0.000130
1844	1.8338e+02	-6.5709	-28.381064	0.000263	2.633846	0.892371	0.000105
1845	1.8348e+02	-6.5356	-28.280136	0.000253	2.532545	0.858049	0.000101
1846	1.8358e+02	-6.4875	-28.126725	0.000385	3.849468	1.304235	0.000154
1847	1.8368e+02	-6.4522	-28.009648	0.000294	2.937752	0.995337	0.000118
1848	1.8378e+02	-6.4089	-27.912756	0.000243	2.431243	0.823727	0.000097
1849	1.8388e+02	-6.3800	-27.840088	0.000182	1.823432	0.617796	0.000073
1850	1.8398e+02	-6.3351	-27.706863	0.000334	3.342959	1.132625	0.000134
1851	1.8407e+02	-6.2950	-27.553451	0.000385	3.849468	1.304235	0.000154
1852	1.8417e+02	-6.2533	-27.448486	0.000263	2.633846	0.892371	0.000105
1853	1.8427e+02	-6.2148	-27.335446	0.000284	2.836450	0.961015	0.000114
1854	1.8437e+02	-6.1795	-27.230481	0.000263	2.633846	0.892371	0.000105
1855	1.8447e+02	-6.1346	-27.145701	0.000213	2.127338	0.720761	0.000085
1856	1.8457e+02	-6.0993	-26.968067	0.000446	4.457279	1.510167	0.000179
1857	1.8467e+02	-6.0512	-26.907510	0.000152	1.519527	0.514830	0.000061
1858	1.8477e+02	-6.0159	-26.810618	0.000243	2.431243	0.823727	0.000097
1859	1.8487e+02	-5.9790	-26.665282	0.000365	3.646864	1.235591	0.000146
1860	1.8497e+02	-5.9373	-26.532056	0.000334	3.342959	1.132625	0.000134
1861	1.8507e+02	-5.9052	-26.394793	0.000344	3.444261	1.166947	0.000138
1862	1.8517e+02	-5.8538	-26.310014	0.000213	2.127338	0.720761	0.000085
1863	1.8527e+02	-5.8202	-26.172751	0.000344	3.444261	1.166947	0.000138
1864	1.8537e+02	-5.7833	-26.067785	0.000263	2.633846	0.892371	0.000105
1865	1.8547e+02	-5.7383	-25.918411	0.000375	3.748166	1.269913	0.000150
1866	1.8557e+02	-5.6902	-25.837669	0.000203	2.026036	0.686439	0.000081
1867	1.8567e+02	-5.6613	-25.720592	0.000294	2.937752	0.995337	0.000118
1868	1.8577e+02	-5.6260	-25.603515	0.000294	2.937752	0.995337	0.000118
1869	1.8587e+02	-5.5715	-25.437992	0.000415	4.153373	1.407201	0.000166
1870	1.8597e+02	-5.5378	-25.320915	0.000294	2.937752	0.995337	0.000118
1871	1.8606e+02	-5.4897	-25.252284	0.000172	1.722130	0.583474	0.000069
1872	1.8616e+02	-5.4496	-25.086761	0.000415	4.153373	1.407201	0.000166
1873	1.8626e+02	-5.4255	-24.977759	0.000274	2.735148	0.926693	0.000110
1874	1.8636e+02	-5.3742	-24.888942	0.000223	2.228639	0.755083	0.000089
1875	1.8646e+02	-5.3453	-24.751679	0.000344	3.444261	1.166947	0.000138
1876	1.8656e+02	-5.2988	-24.602305	0.000375	3.748166	1.269913	0.000150
1877	1.8666e+02	-5.2555	-24.493303	0.000274	2.735148	0.926693	0.000110
1878	1.8676e+02	-5.2202	-24.364114	0.000324	3.241657	1.098303	0.000130
1879	1.8686e+02	-5.1865	-24.259149	0.000263	2.633846	0.892371	0.000105
1880	1.8696e+02	-5.1432	-24.162257	0.000243	2.431243	0.823727	0.000097
1881	1.8706e+02	-5.0999	-23.964438	0.000496	4.963788	1.681777	0.000199
1882	1.8716e+02	-5.0565	-23.835249	0.000324	3.241657	1.098303	0.000130
1883	1.8726e+02	-5.0229	-23.758544	0.000192	1.924734	0.652118	0.000077
1884	1.8736e+02	-4.9827	-23.617244	0.000355	3.545563	1.201269	0.000142
1885	1.8746e+02	-4.9475	-23.504204	0.000284	2.836450	0.961015	0.000114
1886	1.8756e+02	-4.9009	-23.370979	0.000334	3.342959	1.132625	0.000134
1887	1.8766e+02	-4.8592	-23.225642	0.000365	3.646864	1.235591	0.000146
1888	1.8776e+02	-4.8191	-23.116639	0.000274	2.735148	0.926693	0.000110
1889	1.8786e+02	-4.7822	-23.019748	0.000243	2.431243	0.823727	0.000097
1890	1.8796e+02	-4.7389	-22.854225	0.000415	4.153373	1.407201	0.000166
1891	1.8806e+02	-4.7052	-22.708889	0.000365	3.646864	1.235591	0.000146
1892	1.8815e+02	-4.6651	-22.616034	0.000233	2.329941	0.789405	0.000093
1893	1.8825e+02	-4.6250	-22.450512	0.000415	4.153373	1.407201	0.000166
1894	1.8835e+02	-4.5817	-22.345546	0.000263	2.633846	0.892371	0.000105
1895	1.8845e+02	-4.5400	-22.248655	0.000243	2.431243	0.823727	0.000097
1896	1.8855e+02	-4.5143	-22.087170	0.000405	4.052071	1.372879	0.000162
1897	1.8865e+02	-4.4694	-21.962018	0.000314	3.140355	1.063981	0.000126
1898	1.8875e+02	-4.4261	-21.840904	0.000304	3.039054	1.029659	0.000122
1899	1.8885e+02	-4.3828	-21.719790	0.000304	3.039054	1.029659	0.000122
1900	1.8895e+02	-4.3475	-21.542156	0.000446	4.457279	1.510167	0.000179
1901	1.8905e+02	-4.3042	-21.417005	0.000314	3.140355	1.063981	0.000126
1902	1.8915e+02	-4.2705	-21.320114	0.000243	2.431243	0.823727	0.000097
1903	1.8925e+02	-4.2191	-21.203037	0.000294	2.937752	0.995337	0.000118
1904	1.8935e+02	-4.1951	-21.025403	0.000446	4.457279	1.510167	0.000179
1905	1.8945e+02	-4.1518	-20.948697	0.000192	1.924734	0.652118	0.000077
1906	1.8955e+02	-4.1068	-20.775101	0.000436	4.355977	1.475845	0.000174
1907	1.8965e+02	-4.0571	-20.637838	0.000344	3.444261	1.166947	0.000138
1908	1.8975e+02	-4.0266	-20.500575	0.000344	3.444261	1.166947	0.000138
1909	1.8985e+02	-3.9897	-20.391573	0.000274	2.735148	0.926693	0.000110
1910	1.8995e+02	-3.9464	-20.242199	0.000375	3.748166	1.269913	0.000150
1911	1.9004e+02	-3.9143	-20.088787	0.000385	3.849468	1.304235	0.000154
1912	1.9014e+02	-3.8662	-19.963636	0.000314	3.140355	1.063981	0.000126
1913	1.9024e+02	-3.8229	-19.826374	0.000344	3.444261	1.166947	0.000138
1914	1.9034e+02	-3.7764	-19.681037	0.000365	3.646864	1.235591	0.000146
1915	1.9044e+02	-3.7427	-19.487254	0.000486	4.862486	1.647455	0.000195
1916	1.9054e+02	-3.7138	-19.398437	0.000223	2.228639	0.755083	0.000089
1917	1.9064e+02	-3.6641	-19.281360	0.000294	2.937752	0.995337	0.000118
1918	1.9074e+02	-3.6256	-19.180432	0.000253	2.532545	0.858049	0.000101
1919	1.9084e+02	-3.5871	-18.970501	0.000527	5.267693	1.784743	0.000211
1920	1.9094e+02	-3.5470	-18.849387	0.000304	3.039054	1.029659	0.000122
1921	1.9104e+02	-3.5085	-18.728273	0.000304	3.039054	1.029659	0.000122
1922	1.9114e+02	-3.4555	-18.578899	0.000375	3.748166	1.269913	0.000150
1923	1.9124e+02	-3.4266	-18.461822	0.000294	2.937752	0.995337	0.000118
1924	1.9134e+02	-3.3897	-18.312448	0.000375	3.748166	1.269913	0.000150
1925	1.9144e+02	-3.3464	-18.175185	0.000344	3.444261	1.166947	0.000138
1926	1.9154e+02	-3.3031	-18.017737	0.000395	3.950770	1.338557	0.000158
1927	1.9164e+02	-3.2694	-17.916808	0.000253	2.532545	0.858049	0.000101
1928	1.9174e+02	-3.2309	-17.743212	0.000436	4.355977	1.475845	0.000174
1929	1.9184e+02	-3.1908	-17.646320	0.000243	2.431243	0.823727	0.000097
1930	1.9194e+02	-3.1443	-17.509058	0.000344	3.444261	1.166947	0.000138
1931	1.9203e+02	-3.1074	-17.387944	0.000304	3.039054	1.029659	0.000122
1932	1.9213e+02	-3.0641	-17.242607	0.000365	3.646864	1.235591	0.000146
1933	1.9223e+02	-3.0304	-17.137641	0.000263	2.633846	0.892371	0.000105
1934	1.9233e+02	-2.9871	-17.012490	0.000314	3.140355	1.063981	0.000126
1935	1.9243e+02	-2.9422	-16.842930	0.000425	4.254675	1.441523	0.000170
1936	1.9253e+02	-2.9037	-16.774299	0.000172	1.722130	0.583474	0.000069
1937	1.9263e+02	-2.8732	-16.632999	0.000355	3.545563	1.201269	0.000142
1938	1.9273e+02	-2.8299	-16.491699	0.000355	3.545563	1.201269	0.000142
1939	1.9283e+02	-2.7930	-16.447291	0.000111	1.114320	0.377542	0.000045
1940	1.9293e+02	-2.7513	-16.289843	0.000395	3.950770	1.338557	0.000158
1941	1.9303e+02	-2.7015	-16.156617	0.000334	3.342959	1.132625	0.000134
1942	1.9313e+02	-2.6710	-16.027429	0.000324	3.241657	1.098303	0.000130
1943	1.9323e+02	-2.6277	-15.898241	0.000324	3.241657	1.098303	0.000130
1944	1.9333e+02	-2.5892	-15.833646	0.000162	1.620829	0.549152	0.000065
1945	1.9343e+02	-2.5475	-15.615641	0.000547	5.470297	1.853387	0.000219
1946	1.9353e+02	-2.5122	-15.514713	0.000253	2.532545	0.858049	0.000101
1947	1.9363e+02	-2.4721	-15.349190	0.000415	4.153373	1.407201	0.000166
1948	1.9373e+02	-2.4320	-15.284596	0.000162	1.620829	0.549152	0.000065
1949	1.9383e+02	-2.3951	-15.074665	0.000527	5.267693	1.784743	0.000211
1950	1.9393e+02	-2.3486	-14.921254	0.000385	3.849468	1.304235	0.000154
1951	1.9403e+02	-2.3117	-14.808214	0.000284	2.836450	0.961015	0.000114
1952	1.9412e+02	-2.2716	-14.634617	0.000436	4.355977	1.475845	0.000174
1953	1.9422e+02	-2.2331	-14.489280	0.000365	3.646864	1.235591	0.000146
1954	1.9432e+02	-2.1914	-14.315683	0.000436	4.355977	1.475845	0.000174
1955	1.9442e+02	-2.1497	-14.178421	0.000344	3.444261	1.166947	0.000138
1956	1.9452e+02	-2.1096	-14.012898	0.000415	4.153373	1.407201	0.000166
1957	1.9462e+02	-2.0759	-13.879673	0.000334	3.342959	1.132625	0.000134
1958	1.9472e+02	-2.0294	-13.758559	0.000304	3.039054	1.029659	0.000122
1959	1.9482e+02	-1.9892	-13.605147	0.000385	3.849468	1.304235	0.000154
1960	1.9492e+02	-1.9443	-13.443662	0.000405	4.052071	1.372879	0.000162
1961	1.9502e+02	-1.9058	-13.249879	0.000486	4.862486	1.647455	0.000195
1962	1.9512e+02	-1.8657	-13.112617	0.000344	3.444261	1.166947	0.000138
1963	1.9522e+02	-1.8368	-12.939020	0.000436	4.355977	1.475845	0.000174
1964	1.9532e+02	-1.7935	-12.777535	0.000405	4.052071	1.372879	0.000162
1965	1.9542e+02	-1.7502	-12.587789	0.000476	4.761184	1.613133	0.000191
1966	1.9552e+02	-1.7165	-12.466675	0.000304	3.039054	1.029659	0.000122
1967	1.9562e+02	-1.6716	-12.297115	0.000425	4.254675	1.441523	0.000170
1968	1.9572e+02	-1.6347	-12.107370	0.000476	4.761184	1.613133	0.000191
1969	1.9582e+02	-1.5962	-11.937810	0.000425	4.254675	1.441523	0.000170
1970	1.9592e+02	-1.5577	-11.792473	0.000365	3.646864	1.235591	0.000146
1971	1.9601e+02	-1.5128	-11.655211	0.000344	3.444261	1.166947	0.000138
1972	1.9611e+02	-1.4711	-11.453354	0.000507	5.065089	1.716099	0.000203
1973	1.9621e+02	-1.4294	-11.283794	0.000425	4.254675	1.441523	0.000170
1974	1.9631e+02	-1.3957	-11.166717	0.000294	2.937752	0.995337	0.000118
1975	1.9641e+02	-1.3508	-11.049641	0.000294	2.937752	0.995337	0.000118
1976	1.9651e+02	-1.3074	-10.876044	0.000436	4.355977	1.475845	0.000174
1977	1.9661e+02	-1.2754	-10.758967	0.000294	2.937752	0.995337	0.000118
1978	1.9671e+02	-1.2449	-10.613630	0.000365	3.646864	1.235591	0.000146
1979	1.9681e+02	-1.1968	-10.468293	0.000365	3.646864	1.235591	0.000146
1980	1.9691e+02	-1.1550	-10.339105	0.000324	3.241657	1.098303	0.000130
1981	1.9701e+02	-1.1198	-10.201842	0.000344	3.444261	1.166947	0.000138
1982	1.9711e+02	-1.0684	-10.060542	0.000355	3.545563	1.201269	0.000142
1983	1.9721e+02	-1.0379	-9.951540	0.000274	2.735148	0.926693	0.000110
1984	1.9731e+02	-1.0059	-9.786017	0.000415	4.153373	1.407201	0.000166
1985	1.9741e+02	-0.9545	-9.656829	0.000324	3.241657	1.098303	0.000130
1986	1.9751e+02	-0.9160	-9.527640	0.000324	3.241657	1.098303	0.000130
1987	1.9761e+02	-0.8791	-9.402489	0.000314	3.140355	1.063981	0.000126
1988	1.9771e+02	-0.8374	-9.265227	0.000344	3.444261	1.166947	0.000138
1989	1.9781e+02	-0.7941	-9.123927	0.000355	3.545563	1.201269	0.000142
1990	1.9791e+02	-0.7636	-8.994738	0.000324	3.241657	1.098303	0.000130
1991	1.9800e+02	-0.7139	-8.873624	0.000304	3.039054	1.029659	0.000122
1992	1.9810e+02	-0.6786	-8.768659	0.000263	2.633846	0.892371	0.000105
1993	1.9820e+02	-0.6305	-8.599099	0.000425	4.254675	1.441523	0.000170
1994	1.9830e+02	-0.6048	-8.494134	0.000263	2.633846	0.892371	0.000105
1995	1.9840e+02	-0.5567	-8.332648	0.000405	4.052071	1.372879	0.000162
1996	1.9850e+02	-0.5182	-8.187311	0.000365	3.646864	1.235591	0.000146
1997	1.9860e+02	-0.4749	-8.054086	0.000334	3.342959	1.132625	0.000134
1998	1.9870e+02	-0.4428	-7.941046	0.000284	2.836450	0.961015	0.000114
1999	1.9880e+02	-0.4027	-7.791672	0.000375	3.748166	1.269913	0.000150
2000	1.9890e+02	-0.3626	-7.638261	0.000385	3.849468	1.304235	0.000154
2001	1.9900e+02	-0.3241	-7.484850	0.000385	3.849468	1.304235	0.000154
2002	1.9910e+02	-0.2856	-7.371810	0.000284	2.836450	0.961015	0.000114
2003	1.9920e+02	-0.2406	-7.202250	0.000425	4.254675	1.441523	0.000170
2004	1.9930e+02	-0.1957	-7.165916	0.000091	0.911716	0.308898	0.000037
2005	1.9940e+02	-0.1652	-6.931762	0.000588	5.875504	1.990675	0.000235
2006	1.9950e+02	-0.1171	-6.871205	0.000152	1.519527	0.514830	0.000061
2007	1.9960e+02	-0.0850	-6.721831	0.000375	3.748166	1.269913	0.000150
2008	1.9970e+02	-0.0401	-6.572457	0.000375	3.748166	1.269913	0.000150
2009	1.9980e+02	0.0096	-6.439232	0.000375	3.748166	1.269913	0.000134

PMax (uC/cm2):	6.40e+01
Pr (uC/cm2):	4.34e+00
-Pr (uC/cm2):	-3.87e+00
PLoss (uC/cm2):	-3.84e+00
-Vc:	-1.19e+00
C (Max-Eff) (nF):	3.20e-01
K (Eff):	1.08e+03
Vert. (+/-Pr) Shift (uC/cm2):	2.36e-01
Offset (uC/cm2):	2.57e+00

A (Loop Area - uC/cm2·Volts):	6.37e-02



Hysteresis Version: 5.48.1 - Radiant Technologies, Inc., 1999 - 9/12/24

