»»»»»»»»»»»»»»»»»»»»»»»»»»»»»»»»»»»» Hysteresis ««««««««««««««««««««««««««««««««««««
»»»  Executed Version:	5.48.1
»»»  Vision Version:	5.48.4 (R)
»»»  Vision Compiled:	9/18/24
»»»  Driver Version:	5.47.0
»»»  Windows Version:	Windows 8 or 8.1
»»»  Processor Information:	x86 (AMD or Intel) - 32 Processors
»»»  Tester Name:	PMF21124-494 (100V)
»»»  Tester S/N:	PMF21124-494
»»»  Internal Amp Type:	100V RevK 270k
»»»  Internal Amp S/N:	iAB2-596/K     
»»»  Execution Count:	1
»»»»»»»»»»»»»»»»»»»»»»»»»»»»»»»»»»»»»»»»»»««««««««««««««««««««««««««««««««««««««««««

Stored:	6/4/2025 - 11:41:30
Configured:	06/04/25 11:24:55 AM
Executed:	06/04/25 11:40:41 AM

»»»»»»»»»»»»»»»»»»»»»»»»»»»»»»»»»»» Sample Info ««««««««««««««««««««««««««««««««««««
Sample Name:	
Lot Name:	
Wafer Name:	
Die Row/Column:	0/0
Capacitor Number:	0
Sample Area (cm2):	1.00e-04
Sample Thickness (microns):	3.00e-01

Amplifier:	Internal

»»»»»»»»»»»»»»»»»»»»»»»»»»»»»»»»»»» Tester Info «««««««««««««««««««««««««««««««««««
Tester Name:	PMF21124-494 (100V)
Tester Serial Number:	PMF21124-494
Return Signal Amp. Level:	0.19 [Index: 3]

»»»»»»»»»»»»»»»»»»»»»»»»»»»»»»»» Hysteresis Info ««««««««««««««««««««««««««««««««««
Task Name:	Hyst-2
Volts:	20.00
Field:	666.67 (kV/cm)
DCBias:	0.00
DCField:	0.00 (kV/cm)
Hysteresis Period (ms):	2.00e+02
Preset:	Enabled
Preset Delay (ms):	1.00e+03
Profile:	Standard Bipolar

»»»»»»»»»»»»»»»»»»»»»»»»»»»»»»»»»»»»»» Data «««««««««««««««««««««««««««««««««««««««
Points:	2009

Valid Data

Point	Time (ms)	Drive Voltage	Measured Polarization (uC/cm2)	Capacitance (uF)	Normalized Capacitance (uF/cm2)	Dielectric Constant	Instantaneous Current (mA)
   1	0.0000e+00	-0.0064	-1.951955	0.000263	2.634797	0.892693	0.000105
   2	9.9500e-02	0.0225	-1.846990	0.000263	2.634797	0.892693	0.000105
   3	1.9900e-01	0.0594	-1.701653	0.000365	3.648181	1.236037	0.000146
   4	2.9850e-01	0.0963	-1.572464	0.000324	3.242827	1.098700	0.000130
   5	3.9800e-01	0.1412	-1.439239	0.000334	3.344166	1.133034	0.000134
   6	4.9750e-01	0.1700	-1.301976	0.000345	3.445504	1.167368	0.000138
   7	5.9700e-01	0.2246	-1.160677	0.000355	3.546842	1.201703	0.000142
   8	6.9650e-01	0.2615	-1.043600	0.000294	2.938812	0.995697	0.000118
   9	7.9600e-01	0.3032	-0.890188	0.000385	3.850857	1.304706	0.000154
  10	8.9550e-01	0.3497	-0.732740	0.000395	3.952196	1.339040	0.000158
  11	9.9500e-01	0.3882	-0.623737	0.000274	2.736136	0.927028	0.000110
  12	1.0945e+00	0.4139	-0.482438	0.000355	3.546842	1.201703	0.000142
  13	1.1940e+00	0.4540	-0.329027	0.000385	3.850857	1.304706	0.000154
  14	1.2935e+00	0.5069	-0.207912	0.000304	3.040151	1.030031	0.000122
  15	1.3930e+00	0.5390	-0.062576	0.000365	3.648181	1.236037	0.000146
  16	1.4925e+00	0.5823	0.066613	0.000324	3.242827	1.098700	0.000130
  17	1.5920e+00	0.6128	0.195801	0.000324	3.242827	1.098700	0.000130
  18	1.6915e+00	0.6706	0.333064	0.000345	3.445504	1.167368	0.000138
  19	1.7910e+00	0.7027	0.490512	0.000395	3.952196	1.339040	0.000158
  20	1.8905e+00	0.7379	0.635849	0.000365	3.648181	1.236037	0.000146
  21	1.9900e+00	0.7748	0.728703	0.000233	2.330782	0.789690	0.000093
  22	2.0895e+00	0.8230	0.898263	0.000426	4.256211	1.442043	0.000170
  23	2.1890e+00	0.8631	1.055711	0.000395	3.952196	1.339040	0.000158
  24	2.2885e+00	0.9000	1.205085	0.000375	3.749519	1.270371	0.000150
  25	2.3880e+00	0.9353	1.297939	0.000233	2.330782	0.789690	0.000093
  26	2.4875e+00	0.9738	1.459425	0.000405	4.053534	1.373375	0.000162
  27	2.5870e+00	1.0123	1.600724	0.000355	3.546842	1.201703	0.000142
  28	2.6865e+00	1.0620	1.790470	0.000476	4.762903	1.613715	0.000191
  29	2.7860e+00	1.1037	1.879287	0.000223	2.229444	0.755356	0.000089
  30	2.8855e+00	1.1310	2.036735	0.000395	3.952196	1.339040	0.000158
  31	2.9850e+00	1.1871	2.194183	0.000395	3.952196	1.339040	0.000158
  32	3.0845e+00	1.2128	2.331446	0.000345	3.445504	1.167368	0.000138
  33	3.1840e+00	1.2593	2.484857	0.000385	3.850857	1.304706	0.000154
  34	3.2835e+00	1.2882	2.610008	0.000314	3.141489	1.064365	0.000126
  35	3.3830e+00	1.3331	2.719011	0.000274	2.736136	0.927028	0.000110
  36	3.4825e+00	1.3716	2.908756	0.000476	4.762903	1.613715	0.000191
  37	3.5820e+00	1.4214	3.062167	0.000385	3.850857	1.304706	0.000154
  38	3.6815e+00	1.4550	3.175207	0.000284	2.837474	0.961362	0.000114
  39	3.7810e+00	1.5048	3.304396	0.000324	3.242827	1.098700	0.000130
  40	3.8805e+00	1.5433	3.469918	0.000415	4.154873	1.407709	0.000166
  41	3.9800e+00	1.5705	3.607181	0.000345	3.445504	1.167368	0.000138
  42	4.0795e+00	1.6171	3.756555	0.000375	3.749519	1.270371	0.000150
  43	4.1790e+00	1.6588	3.905929	0.000375	3.749519	1.270371	0.000150
  44	4.2785e+00	1.6957	4.039154	0.000334	3.344166	1.133034	0.000134
  45	4.3780e+00	1.7294	4.188528	0.000375	3.749519	1.270371	0.000150
  46	4.4775e+00	1.7711	4.366162	0.000446	4.458888	1.510712	0.000179
  47	4.5770e+00	1.8128	4.495351	0.000324	3.242827	1.098700	0.000130
  48	4.6765e+00	1.8545	4.612428	0.000294	2.938812	0.995697	0.000118
  49	4.7760e+00	1.9074	4.814284	0.000507	5.066918	1.716718	0.000203
  50	4.8755e+00	1.9299	4.943473	0.000324	3.242827	1.098700	0.000130
  51	4.9750e+00	1.9780	5.044401	0.000253	2.533459	0.858359	0.000101
  52	5.0745e+00	2.0037	5.266444	0.000557	5.573610	1.888390	0.000223
  53	5.1740e+00	2.0534	5.403706	0.000345	3.445504	1.167368	0.000138
  54	5.2735e+00	2.0839	5.524820	0.000304	3.040151	1.030031	0.000122
  55	5.3730e+00	2.1384	5.678231	0.000385	3.850857	1.304706	0.000154
  56	5.4725e+00	2.1689	5.859903	0.000456	4.560226	1.545046	0.000183
  57	5.5720e+00	2.2106	5.960831	0.000253	2.533459	0.858359	0.000101
  58	5.6715e+00	2.2556	6.146539	0.000466	4.661564	1.579381	0.000187
  59	5.7710e+00	2.2908	6.312062	0.000415	4.154873	1.407709	0.000166
  60	5.8705e+00	2.3342	6.481621	0.000426	4.256211	1.442043	0.000170
  61	5.9700e+00	2.3743	6.550253	0.000172	1.722752	0.583684	0.000069
  62	6.0695e+00	2.4063	6.715775	0.000415	4.154873	1.407709	0.000166
  63	6.1690e+00	2.4481	6.893409	0.000446	4.458888	1.510712	0.000179
  64	6.2685e+00	2.4834	7.058932	0.000415	4.154873	1.407709	0.000166
  65	6.3680e+00	2.5283	7.180046	0.000304	3.040151	1.030031	0.000122
  66	6.4675e+00	2.5700	7.341531	0.000405	4.053534	1.373375	0.000162
  67	6.5670e+00	2.6069	7.486868	0.000365	3.648181	1.236037	0.000146
  68	6.6665e+00	2.6518	7.599908	0.000284	2.837474	0.961362	0.000114
  69	6.7660e+00	2.6887	7.781579	0.000456	4.560226	1.545046	0.000183
  70	6.8655e+00	2.7272	7.922879	0.000355	3.546842	1.201703	0.000142
  71	6.9650e+00	2.7737	8.072253	0.000375	3.749519	1.270371	0.000150
  72	7.0645e+00	2.8106	8.225664	0.000385	3.850857	1.304706	0.000154
  73	7.1640e+00	2.8571	8.358890	0.000334	3.344166	1.133034	0.000134
  74	7.2635e+00	2.8940	8.532486	0.000436	4.357549	1.476378	0.000174
  75	7.3630e+00	2.9357	8.673786	0.000355	3.546842	1.201703	0.000142
  76	7.4625e+00	2.9759	8.815086	0.000355	3.546842	1.201703	0.000142
  77	7.5620e+00	3.0095	8.988683	0.000436	4.357549	1.476378	0.000174
  78	7.6615e+00	3.0561	9.162280	0.000436	4.357549	1.476378	0.000174
  79	7.7610e+00	3.0833	9.287431	0.000314	3.141489	1.064365	0.000126
  80	7.8605e+00	3.1315	9.412582	0.000314	3.141489	1.064365	0.000126
  81	7.9600e+00	3.1700	9.561956	0.000375	3.749519	1.270371	0.000150
  82	8.0595e+00	3.2133	9.731516	0.000426	4.256211	1.442043	0.000170
  83	8.1590e+00	3.2470	9.880890	0.000375	3.749519	1.270371	0.000150
  84	8.2585e+00	3.2919	9.989892	0.000274	2.736136	0.927028	0.000110
  85	8.3580e+00	3.3304	10.167526	0.000446	4.458888	1.510712	0.000179
  86	8.4575e+00	3.3689	10.312863	0.000365	3.648181	1.236037	0.000146
  87	8.5570e+00	3.4138	10.498571	0.000466	4.661564	1.579381	0.000187
  88	8.6565e+00	3.4475	10.635834	0.000345	3.445504	1.167368	0.000138
  89	8.7560e+00	3.4908	10.809431	0.000436	4.357549	1.476378	0.000174
  90	8.8555e+00	3.5357	10.930545	0.000304	3.040151	1.030031	0.000122
  91	8.9550e+00	3.5758	11.039548	0.000274	2.736136	0.927028	0.000110
  92	9.0545e+00	3.6063	11.213145	0.000436	4.357549	1.476378	0.000174
  93	9.1540e+00	3.6432	11.378667	0.000415	4.154873	1.407709	0.000166
  94	9.2535e+00	3.6833	11.491707	0.000284	2.837474	0.961362	0.000114
  95	9.3530e+00	3.7282	11.693564	0.000507	5.066918	1.716718	0.000203
  96	9.4525e+00	3.7716	11.810641	0.000294	2.938812	0.995697	0.000118
  97	9.5520e+00	3.8101	11.980200	0.000426	4.256211	1.442043	0.000170
  98	9.6515e+00	3.8437	12.081129	0.000253	2.533459	0.858359	0.000101
  99	9.7510e+00	3.8806	12.282985	0.000507	5.066918	1.716718	0.000203
 100	9.8505e+00	3.9288	12.420248	0.000345	3.445504	1.167368	0.000138
 101	9.9500e+00	3.9641	12.593845	0.000436	4.357549	1.476378	0.000174
 102	1.0050e+01	4.0106	12.694773	0.000253	2.533459	0.858359	0.000101
 103	1.0149e+01	4.0427	12.836073	0.000355	3.546842	1.201703	0.000142
 104	1.0248e+01	4.0860	13.029856	0.000486	4.864241	1.648049	0.000195
 105	1.0348e+01	4.1389	13.179230	0.000375	3.749519	1.270371	0.000150
 106	1.0447e+01	4.1710	13.328604	0.000375	3.749519	1.270371	0.000150
 107	1.0547e+01	4.2015	13.469903	0.000355	3.546842	1.201703	0.000142
 108	1.0646e+01	4.2432	13.647537	0.000446	4.458888	1.510712	0.000179
 109	1.0746e+01	4.2849	13.800949	0.000385	3.850857	1.304706	0.000154
 110	1.0845e+01	4.3298	13.962434	0.000405	4.053534	1.373375	0.000162
 111	1.0945e+01	4.3651	14.107771	0.000365	3.648181	1.236037	0.000146
 112	1.1044e+01	4.4068	14.265219	0.000395	3.952196	1.339040	0.000158
 113	1.1144e+01	4.4485	14.382296	0.000294	2.938812	0.995697	0.000118
 114	1.1243e+01	4.4902	14.568004	0.000466	4.661564	1.579381	0.000187
 115	1.1343e+01	4.5271	14.664896	0.000243	2.432121	0.824025	0.000097
 116	1.1443e+01	4.5624	14.830418	0.000415	4.154873	1.407709	0.000166
 117	1.1542e+01	4.5977	15.028238	0.000497	4.965579	1.682384	0.000199
 118	1.1642e+01	4.6539	15.173575	0.000365	3.648181	1.236037	0.000146
 119	1.1741e+01	4.6779	15.318912	0.000365	3.648181	1.236037	0.000146
 120	1.1841e+01	4.7164	15.468286	0.000375	3.749519	1.270371	0.000150
 121	1.1940e+01	4.7582	15.605548	0.000345	3.445504	1.167368	0.000138
 122	1.2040e+01	4.7999	15.775108	0.000426	4.256211	1.442043	0.000170
 123	1.2139e+01	4.8448	15.912371	0.000345	3.445504	1.167368	0.000138
 124	1.2239e+01	4.8881	16.110190	0.000497	4.965579	1.682384	0.000199
 125	1.2338e+01	4.9234	16.190933	0.000203	2.026767	0.686687	0.000081
 126	1.2438e+01	4.9619	16.376641	0.000466	4.661564	1.579381	0.000187
 127	1.2537e+01	5.0116	16.517941	0.000355	3.546842	1.201703	0.000142
 128	1.2636e+01	5.0453	16.683463	0.000415	4.154873	1.407709	0.000166
 129	1.2736e+01	5.0870	16.800540	0.000294	2.938812	0.995697	0.000118
 130	1.2835e+01	5.1255	16.957989	0.000395	3.952196	1.339040	0.000158
 131	1.2935e+01	5.1608	17.119474	0.000405	4.053534	1.373375	0.000162
 132	1.3034e+01	5.2105	17.264811	0.000365	3.648181	1.236037	0.000146
 133	1.3134e+01	5.2458	17.430334	0.000415	4.154873	1.407709	0.000166
 134	1.3233e+01	5.2843	17.567596	0.000345	3.445504	1.167368	0.000138
 135	1.3333e+01	5.3277	17.688710	0.000304	3.040151	1.030031	0.000122
 136	1.3432e+01	5.3565	17.834047	0.000365	3.648181	1.236037	0.000146
 137	1.3532e+01	5.4095	17.987458	0.000385	3.850857	1.304706	0.000154
 138	1.3632e+01	5.4400	18.116647	0.000324	3.242827	1.098700	0.000130
 139	1.3731e+01	5.4801	18.266021	0.000375	3.749519	1.270371	0.000150
 140	1.3831e+01	5.5202	18.459803	0.000486	4.864241	1.648049	0.000195
 141	1.3930e+01	5.5555	18.568806	0.000274	2.736136	0.927028	0.000110
 142	1.4030e+01	5.5988	18.762588	0.000486	4.864241	1.648049	0.000195
 143	1.4129e+01	5.6421	18.887740	0.000314	3.141489	1.064365	0.000126
 144	1.4229e+01	5.6806	18.992705	0.000263	2.634797	0.892693	0.000105
 145	1.4328e+01	5.7271	19.146116	0.000385	3.850857	1.304706	0.000154
 146	1.4428e+01	5.7624	19.319713	0.000436	4.357549	1.476378	0.000174
 147	1.4527e+01	5.8041	19.501384	0.000456	4.560226	1.545046	0.000183
 148	1.4627e+01	5.8378	19.642684	0.000355	3.546842	1.201703	0.000142
 149	1.4726e+01	5.8779	19.755724	0.000284	2.837474	0.961362	0.000114
 150	1.4825e+01	5.9292	19.917209	0.000405	4.053534	1.373375	0.000162
 151	1.4925e+01	5.9565	20.090806	0.000436	4.357549	1.476378	0.000174
 152	1.5024e+01	5.9982	20.232106	0.000355	3.546842	1.201703	0.000142
 153	1.5124e+01	6.0415	20.385517	0.000385	3.850857	1.304706	0.000154
 154	1.5223e+01	6.1009	20.530854	0.000365	3.648181	1.236037	0.000146
 155	1.5323e+01	6.1266	20.660042	0.000324	3.242827	1.098700	0.000130
 156	1.5422e+01	6.1635	20.817490	0.000395	3.952196	1.339040	0.000158
 157	1.5522e+01	6.1955	20.938605	0.000304	3.040151	1.030031	0.000122
 158	1.5621e+01	6.2517	21.124313	0.000466	4.661564	1.579381	0.000187
 159	1.5721e+01	6.2790	21.265613	0.000355	3.546842	1.201703	0.000142
 160	1.5820e+01	6.3303	21.410949	0.000365	3.648181	1.236037	0.000146
 161	1.5920e+01	6.3544	21.548212	0.000345	3.445504	1.167368	0.000138
 162	1.6020e+01	6.3993	21.729883	0.000456	4.560226	1.545046	0.000183
 163	1.6119e+01	6.4362	21.859071	0.000324	3.242827	1.098700	0.000130
 164	1.6218e+01	6.4618	22.028631	0.000426	4.256211	1.442043	0.000170
 165	1.6318e+01	6.5148	22.141671	0.000284	2.837474	0.961362	0.000114
 166	1.6418e+01	6.5533	22.291045	0.000375	3.749519	1.270371	0.000150
 167	1.6517e+01	6.5998	22.440419	0.000375	3.749519	1.270371	0.000150
 168	1.6616e+01	6.6415	22.614016	0.000436	4.357549	1.476378	0.000174
 169	1.6716e+01	6.6688	22.727056	0.000284	2.837474	0.961362	0.000114
 170	1.6816e+01	6.7089	22.912764	0.000466	4.661564	1.579381	0.000187
 171	1.6915e+01	6.7538	23.037915	0.000314	3.141489	1.064365	0.000126
 172	1.7015e+01	6.7955	23.223623	0.000466	4.661564	1.579381	0.000187
 173	1.7114e+01	6.8340	23.328589	0.000263	2.634797	0.892693	0.000105
 174	1.7213e+01	6.8773	23.482000	0.000385	3.850857	1.304706	0.000154
 175	1.7313e+01	6.9158	23.655597	0.000436	4.357549	1.476378	0.000174
 176	1.7413e+01	6.9560	23.788822	0.000334	3.344166	1.133034	0.000134
 177	1.7512e+01	6.9993	23.942233	0.000385	3.850857	1.304706	0.000154
 178	1.7611e+01	7.0410	24.067385	0.000314	3.141489	1.064365	0.000126
 179	1.7711e+01	7.0682	24.249056	0.000456	4.560226	1.545046	0.000183
 180	1.7811e+01	7.1180	24.341910	0.000233	2.330782	0.789690	0.000093
 181	1.7910e+01	7.1549	24.507432	0.000415	4.154873	1.407709	0.000166
 182	1.8009e+01	7.1918	24.660844	0.000385	3.850857	1.304706	0.000154
 183	1.8109e+01	7.2319	24.858663	0.000497	4.965579	1.682384	0.000199
 184	1.8209e+01	7.2768	24.975740	0.000294	2.938812	0.995697	0.000118
 185	1.8308e+01	7.3121	25.100891	0.000314	3.141489	1.064365	0.000126
 186	1.8407e+01	7.3570	25.254303	0.000385	3.850857	1.304706	0.000154
 187	1.8507e+01	7.3923	25.411751	0.000395	3.952196	1.339040	0.000158
 188	1.8607e+01	7.4276	25.565162	0.000385	3.850857	1.304706	0.000154
 189	1.8706e+01	7.4645	25.686276	0.000304	3.040151	1.030031	0.000122
 190	1.8805e+01	7.5126	25.855836	0.000426	4.256211	1.442043	0.000170
 191	1.8905e+01	7.5527	25.997136	0.000355	3.546842	1.201703	0.000142
 192	1.9005e+01	7.5912	26.166695	0.000426	4.256211	1.442043	0.000170
 193	1.9104e+01	7.6249	26.324144	0.000395	3.952196	1.339040	0.000158
 194	1.9203e+01	7.6811	26.416998	0.000233	2.330782	0.789690	0.000093
 195	1.9303e+01	7.7067	26.574446	0.000395	3.952196	1.339040	0.000158
 196	1.9402e+01	7.7500	26.723820	0.000375	3.749519	1.270371	0.000150
 197	1.9502e+01	7.7869	26.877231	0.000385	3.850857	1.304706	0.000154
 198	1.9602e+01	7.8351	27.002382	0.000314	3.141489	1.064365	0.000126
 199	1.9701e+01	7.8736	27.171942	0.000426	4.256211	1.442043	0.000170
 200	1.9800e+01	7.9041	27.313242	0.000355	3.546842	1.201703	0.000142
 201	1.9900e+01	7.9586	27.474727	0.000405	4.053534	1.373375	0.000162
 202	2.0000e+01	7.9971	27.620064	0.000365	3.648181	1.236037	0.000146
 203	2.0099e+01	8.0388	27.749252	0.000324	3.242827	1.098700	0.000130
 204	2.0198e+01	8.0645	27.914775	0.000415	4.154873	1.407709	0.000166
 205	2.0298e+01	8.1126	28.039926	0.000314	3.141489	1.064365	0.000126
 206	2.0398e+01	8.1495	28.201412	0.000405	4.053534	1.373375	0.000162
 207	2.0497e+01	8.1944	28.322526	0.000304	3.040151	1.030031	0.000122
 208	2.0596e+01	8.2297	28.475937	0.000385	3.850857	1.304706	0.000154
 209	2.0696e+01	8.2746	28.665682	0.000476	4.762903	1.613715	0.000191
 210	2.0796e+01	8.3051	28.778722	0.000284	2.837474	0.961362	0.000114
 211	2.0895e+01	8.3516	28.907910	0.000324	3.242827	1.098700	0.000130
 212	2.0994e+01	8.3917	29.109767	0.000507	5.066918	1.716718	0.000203
 213	2.1094e+01	8.4335	29.251067	0.000355	3.546842	1.201703	0.000142
 214	2.1194e+01	8.4623	29.364107	0.000284	2.837474	0.961362	0.000114
 215	2.1293e+01	8.5185	29.537704	0.000436	4.357549	1.476378	0.000174
 216	2.1392e+01	8.5506	29.691115	0.000385	3.850857	1.304706	0.000154
 217	2.1492e+01	8.5907	29.852600	0.000405	4.053534	1.373375	0.000162
 218	2.1591e+01	8.6260	29.993900	0.000355	3.546842	1.201703	0.000142
 219	2.1691e+01	8.6580	30.127125	0.000334	3.344166	1.133034	0.000134
 220	2.1791e+01	8.7014	30.296685	0.000426	4.256211	1.442043	0.000170
 221	2.1890e+01	8.7559	30.429911	0.000334	3.344166	1.133034	0.000134
 222	2.1989e+01	8.7928	30.571210	0.000355	3.546842	1.201703	0.000142
 223	2.2089e+01	8.8249	30.752881	0.000456	4.560226	1.545046	0.000183
 224	2.2189e+01	8.8602	30.869958	0.000294	2.938812	0.995697	0.000118
 225	2.2288e+01	8.9067	31.031444	0.000405	4.053534	1.373375	0.000162
 226	2.2387e+01	8.9484	31.184855	0.000385	3.850857	1.304706	0.000154
 227	2.2487e+01	8.9837	31.338266	0.000385	3.850857	1.304706	0.000154
 228	2.2587e+01	9.0238	31.463417	0.000314	3.141489	1.064365	0.000126
 229	2.2686e+01	9.0655	31.632977	0.000426	4.256211	1.442043	0.000170
 230	2.2785e+01	9.1008	31.834834	0.000507	5.066918	1.716718	0.000203
 231	2.2885e+01	9.1489	31.911539	0.000193	1.925429	0.652353	0.000077
 232	2.2985e+01	9.1842	32.052839	0.000355	3.546842	1.201703	0.000142
 233	2.3084e+01	9.2308	32.222399	0.000426	4.256211	1.442043	0.000170
 234	2.3183e+01	9.2660	32.395996	0.000436	4.357549	1.476378	0.000174
 235	2.3283e+01	9.3078	32.500961	0.000263	2.634797	0.892693	0.000105
 236	2.3383e+01	9.3431	32.626112	0.000314	3.141489	1.064365	0.000126
 237	2.3482e+01	9.3928	32.811821	0.000466	4.661564	1.579381	0.000187
 238	2.3581e+01	9.4136	32.957158	0.000365	3.648181	1.236037	0.000146
 239	2.3681e+01	9.4714	33.094420	0.000345	3.445504	1.167368	0.000138
 240	2.3780e+01	9.5067	33.215534	0.000304	3.040151	1.030031	0.000122
 241	2.3880e+01	9.5484	33.372983	0.000395	3.952196	1.339040	0.000158
 242	2.3980e+01	9.5917	33.534468	0.000405	4.053534	1.373375	0.000162
 243	2.4079e+01	9.6318	33.663656	0.000324	3.242827	1.098700	0.000130
 244	2.4178e+01	9.6543	33.837253	0.000436	4.357549	1.476378	0.000174
 245	2.4278e+01	9.7136	33.946256	0.000274	2.736136	0.927028	0.000110
 246	2.4378e+01	9.7505	34.123890	0.000446	4.458888	1.510712	0.000179
 247	2.4477e+01	9.7874	34.245004	0.000304	3.040151	1.030031	0.000122
 248	2.4576e+01	9.8227	34.382267	0.000345	3.445504	1.167368	0.000138
 249	2.4676e+01	9.8692	34.539715	0.000395	3.952196	1.339040	0.000158
 250	2.4776e+01	9.9045	34.685052	0.000365	3.648181	1.236037	0.000146
 251	2.4875e+01	9.9398	34.814240	0.000324	3.242827	1.098700	0.000130
 252	2.4974e+01	9.9847	34.967651	0.000385	3.850857	1.304706	0.000154
 253	2.5074e+01	10.0136	35.125099	0.000395	3.952196	1.339040	0.000158
 254	2.5174e+01	10.0634	35.282548	0.000395	3.952196	1.339040	0.000158
 255	2.5273e+01	10.1019	35.399625	0.000294	2.938812	0.995697	0.000118
 256	2.5372e+01	10.1436	35.597444	0.000497	4.965579	1.682384	0.000199
 257	2.5472e+01	10.1901	35.694336	0.000243	2.432121	0.824025	0.000097
 258	2.5572e+01	10.2238	35.843710	0.000375	3.749519	1.270371	0.000150
 259	2.5671e+01	10.2591	35.993084	0.000375	3.749519	1.270371	0.000150
 260	2.5770e+01	10.3184	36.110161	0.000294	2.938812	0.995697	0.000118
 261	2.5870e+01	10.3377	36.247423	0.000345	3.445504	1.167368	0.000138
 262	2.5970e+01	10.3826	36.421020	0.000436	4.357549	1.476378	0.000174
 263	2.6069e+01	10.4243	36.546171	0.000314	3.141489	1.064365	0.000126
 264	2.6169e+01	10.4580	36.711694	0.000415	4.154873	1.407709	0.000166
 265	2.6268e+01	10.5045	36.844919	0.000334	3.344166	1.133034	0.000134
 266	2.6367e+01	10.5430	36.978145	0.000334	3.344166	1.133034	0.000134
 267	2.6467e+01	10.5735	37.079073	0.000253	2.533459	0.858359	0.000101
 268	2.6567e+01	10.6184	37.256707	0.000446	4.458888	1.510712	0.000179
 269	2.6666e+01	10.6553	37.402044	0.000365	3.648181	1.236037	0.000146
 270	2.6765e+01	10.6970	37.543344	0.000355	3.546842	1.201703	0.000142
 271	2.6865e+01	10.7403	37.696755	0.000385	3.850857	1.304706	0.000154
 272	2.6965e+01	10.7885	37.834018	0.000345	3.445504	1.167368	0.000138
 273	2.7064e+01	10.8238	37.979354	0.000365	3.648181	1.236037	0.000146
 274	2.7163e+01	10.8607	38.140840	0.000405	4.053534	1.373375	0.000162
 275	2.7263e+01	10.8959	38.241768	0.000253	2.533459	0.858359	0.000101
 276	2.7363e+01	10.9457	38.387105	0.000365	3.648181	1.236037	0.000146
 277	2.7462e+01	10.9858	38.560702	0.000436	4.357549	1.476378	0.000174
 278	2.7561e+01	11.0307	38.714113	0.000385	3.850857	1.304706	0.000154
 279	2.7661e+01	11.0500	38.827153	0.000284	2.837474	0.961362	0.000114
 280	2.7761e+01	11.0949	38.956341	0.000324	3.242827	1.098700	0.000130
 281	2.7860e+01	11.1430	39.146087	0.000476	4.762903	1.613715	0.000191
 282	2.7959e+01	11.1751	39.303535	0.000395	3.952196	1.339040	0.000158
 283	2.8059e+01	11.2216	39.432723	0.000324	3.242827	1.098700	0.000130
 284	2.8159e+01	11.2569	39.582097	0.000375	3.749519	1.270371	0.000150
 285	2.8258e+01	11.3002	39.727434	0.000365	3.648181	1.236037	0.000146
 286	2.8358e+01	11.3371	39.844511	0.000294	2.938812	0.995697	0.000118
 287	2.8457e+01	11.3676	39.985811	0.000355	3.546842	1.201703	0.000142
 288	2.8556e+01	11.4173	40.135185	0.000375	3.749519	1.270371	0.000150
 289	2.8656e+01	11.4671	40.260336	0.000314	3.141489	1.064365	0.000126
 290	2.8756e+01	11.4991	40.425859	0.000415	4.154873	1.407709	0.000166
 291	2.8855e+01	11.5344	40.599456	0.000436	4.357549	1.476378	0.000174
 292	2.8954e+01	11.5794	40.684235	0.000213	2.128105	0.721022	0.000085
 293	2.9054e+01	11.6275	40.845721	0.000405	4.053534	1.373375	0.000162
 294	2.9154e+01	11.6531	40.954723	0.000274	2.736136	0.927028	0.000110
 295	2.9253e+01	11.7029	41.116209	0.000405	4.053534	1.373375	0.000162
 296	2.9352e+01	11.7334	41.245397	0.000324	3.242827	1.098700	0.000130
 297	2.9452e+01	11.7751	41.386697	0.000355	3.546842	1.201703	0.000142
 298	2.9552e+01	11.8232	41.527997	0.000355	3.546842	1.201703	0.000142
 299	2.9651e+01	11.8633	41.645074	0.000294	2.938812	0.995697	0.000118
 300	2.9750e+01	11.8906	41.806559	0.000405	4.053534	1.373375	0.000162
 301	2.9850e+01	11.9371	41.915562	0.000274	2.736136	0.927028	0.000110
 302	2.9950e+01	11.9756	42.064936	0.000375	3.749519	1.270371	0.000150
 303	3.0049e+01	12.0157	42.190087	0.000314	3.141489	1.064365	0.000126
 304	3.0148e+01	12.0590	42.319275	0.000324	3.242827	1.098700	0.000130
 305	3.0248e+01	12.0943	42.476724	0.000395	3.952196	1.339040	0.000158
 306	3.0348e+01	12.1360	42.597838	0.000304	3.040151	1.030031	0.000122
 307	3.0447e+01	12.1809	42.751249	0.000385	3.850857	1.304706	0.000154
 308	3.0547e+01	12.2243	42.884474	0.000334	3.344166	1.133034	0.000134
 309	3.0646e+01	12.2563	43.033848	0.000375	3.749519	1.270371	0.000150
 310	3.0745e+01	12.3013	43.154962	0.000304	3.040151	1.030031	0.000122
 311	3.0845e+01	12.3333	43.300299	0.000365	3.648181	1.236037	0.000146
 312	3.0945e+01	12.3654	43.441599	0.000355	3.546842	1.201703	0.000142
 313	3.1044e+01	12.4103	43.526379	0.000213	2.128105	0.721022	0.000085
 314	3.1143e+01	12.4505	43.663642	0.000345	3.445504	1.167368	0.000138
 315	3.1243e+01	12.5034	43.845313	0.000456	4.560226	1.545046	0.000183
 316	3.1343e+01	12.5371	43.950278	0.000263	2.634797	0.892693	0.000105
 317	3.1442e+01	12.5836	44.115801	0.000415	4.154873	1.407709	0.000166
 318	3.1541e+01	12.6109	44.253063	0.000345	3.445504	1.167368	0.000138
 319	3.1641e+01	12.6574	44.394363	0.000355	3.546842	1.201703	0.000142
 320	3.1741e+01	12.7023	44.495292	0.000253	2.533459	0.858359	0.000101
 321	3.1840e+01	12.7360	44.648703	0.000385	3.850857	1.304706	0.000154
 322	3.1939e+01	12.7761	44.806151	0.000395	3.952196	1.339040	0.000158
 323	3.2039e+01	12.8258	44.939376	0.000334	3.344166	1.133034	0.000134
 324	3.2139e+01	12.8595	45.060491	0.000304	3.040151	1.030031	0.000122
 325	3.2238e+01	12.8932	45.177567	0.000294	2.938812	0.995697	0.000118
 326	3.2337e+01	12.9333	45.326941	0.000375	3.749519	1.270371	0.000150
 327	3.2437e+01	12.9718	45.444018	0.000294	2.938812	0.995697	0.000118
 328	3.2536e+01	13.0071	45.589355	0.000365	3.648181	1.236037	0.000146
 329	3.2636e+01	13.0520	45.706432	0.000294	2.938812	0.995697	0.000118
 330	3.2736e+01	13.0970	45.859843	0.000385	3.850857	1.304706	0.000154
 331	3.2835e+01	13.1355	45.984995	0.000314	3.141489	1.064365	0.000126
 332	3.2934e+01	13.1708	46.114183	0.000324	3.242827	1.098700	0.000130
 333	3.3034e+01	13.2028	46.267594	0.000385	3.850857	1.304706	0.000154
 334	3.3133e+01	13.2478	46.433117	0.000415	4.154873	1.407709	0.000166
 335	3.3233e+01	13.2975	46.590565	0.000395	3.952196	1.339040	0.000158
 336	3.3333e+01	13.3328	46.683419	0.000233	2.330782	0.789690	0.000093
 337	3.3432e+01	13.3617	46.812607	0.000324	3.242827	1.098700	0.000130
 338	3.3532e+01	13.4226	46.949870	0.000345	3.445504	1.167368	0.000138
 339	3.3631e+01	13.4515	47.083096	0.000334	3.344166	1.133034	0.000134
 340	3.3730e+01	13.4820	47.204210	0.000304	3.040151	1.030031	0.000122
 341	3.3830e+01	13.5349	47.373769	0.000426	4.256211	1.442043	0.000170
 342	3.3929e+01	13.5686	47.470661	0.000243	2.432121	0.824025	0.000097
 343	3.4029e+01	13.6087	47.652332	0.000456	4.560226	1.545046	0.000183
 344	3.4129e+01	13.6488	47.741149	0.000223	2.229444	0.755356	0.000089
 345	3.4228e+01	13.6841	47.894560	0.000385	3.850857	1.304706	0.000154
 346	3.4328e+01	13.7290	48.015674	0.000304	3.040151	1.030031	0.000122
 347	3.4427e+01	13.7675	48.185234	0.000426	4.256211	1.442043	0.000170
 348	3.4526e+01	13.7980	48.302311	0.000294	2.938812	0.995697	0.000118
 349	3.4626e+01	13.8445	48.455722	0.000385	3.850857	1.304706	0.000154
 350	3.4725e+01	13.8846	48.572799	0.000294	2.938812	0.995697	0.000118
 351	3.4825e+01	13.9247	48.685838	0.000284	2.837474	0.961362	0.000114
 352	3.4925e+01	13.9665	48.831175	0.000365	3.648181	1.236037	0.000146
 353	3.5024e+01	14.0033	48.960364	0.000324	3.242827	1.098700	0.000130
 354	3.5123e+01	14.0467	49.105701	0.000365	3.648181	1.236037	0.000146
 355	3.5223e+01	14.0948	49.234889	0.000324	3.242827	1.098700	0.000130
 356	3.5322e+01	14.1253	49.372152	0.000345	3.445504	1.167368	0.000138
 357	3.5422e+01	14.1654	49.509414	0.000345	3.445504	1.167368	0.000138
 358	3.5522e+01	14.2071	49.646677	0.000345	3.445504	1.167368	0.000138
 359	3.5621e+01	14.2552	49.767791	0.000304	3.040151	1.030031	0.000122
 360	3.5721e+01	14.2857	49.884868	0.000294	2.938812	0.995697	0.000118
 361	3.5820e+01	14.3226	50.010019	0.000314	3.141489	1.064365	0.000126
 362	3.5919e+01	14.3739	50.127096	0.000294	2.938812	0.995697	0.000118
 363	3.6019e+01	14.3980	50.272433	0.000365	3.648181	1.236037	0.000146
 364	3.6118e+01	14.4461	50.417770	0.000365	3.648181	1.236037	0.000146
 365	3.6218e+01	14.4991	50.534847	0.000294	2.938812	0.995697	0.000118
 366	3.6318e+01	14.5360	50.659998	0.000314	3.141489	1.064365	0.000126
 367	3.6417e+01	14.5632	50.829558	0.000426	4.256211	1.442043	0.000170
 368	3.6517e+01	14.6097	50.942597	0.000284	2.837474	0.961362	0.000114
 369	3.6616e+01	14.6434	51.059674	0.000294	2.938812	0.995697	0.000118
 370	3.6715e+01	14.6932	51.188863	0.000324	3.242827	1.098700	0.000130
 371	3.6815e+01	14.7269	51.309977	0.000304	3.040151	1.030031	0.000122
 372	3.6914e+01	14.7670	51.455314	0.000365	3.648181	1.236037	0.000146
 373	3.7014e+01	14.8007	51.612762	0.000395	3.952196	1.339040	0.000158
 374	3.7114e+01	14.8375	51.733876	0.000304	3.040151	1.030031	0.000122
 375	3.7213e+01	14.8841	51.846916	0.000284	2.837474	0.961362	0.000114
 376	3.7313e+01	14.9258	51.968030	0.000304	3.040151	1.030031	0.000122
 377	3.7412e+01	14.9659	52.157775	0.000476	4.762903	1.613715	0.000191
 378	3.7511e+01	15.0076	52.258704	0.000253	2.533459	0.858359	0.000101
 379	3.7611e+01	15.0397	52.391929	0.000334	3.344166	1.133034	0.000134
 380	3.7711e+01	15.0814	52.488820	0.000243	2.432121	0.824025	0.000097
 381	3.7810e+01	15.1199	52.658380	0.000426	4.256211	1.442043	0.000170
 382	3.7910e+01	15.1568	52.799680	0.000355	3.546842	1.201703	0.000142
 383	3.8009e+01	15.1969	52.916757	0.000294	2.938812	0.995697	0.000118
 384	3.8108e+01	15.2498	53.049982	0.000334	3.344166	1.133034	0.000134
 385	3.8208e+01	15.2755	53.175133	0.000314	3.141489	1.064365	0.000126
 386	3.8307e+01	15.3204	53.324507	0.000375	3.749519	1.270371	0.000150
 387	3.8407e+01	15.3669	53.473881	0.000375	3.749519	1.270371	0.000150
 388	3.8507e+01	15.4071	53.586921	0.000284	2.837474	0.961362	0.000114
 389	3.8606e+01	15.4407	53.716110	0.000324	3.242827	1.098700	0.000130
 390	3.8706e+01	15.4873	53.861446	0.000365	3.648181	1.236037	0.000146
 391	3.8805e+01	15.5258	54.031006	0.000426	4.256211	1.442043	0.000170
 392	3.8904e+01	15.5739	54.123860	0.000233	2.330782	0.789690	0.000093
 393	3.9004e+01	15.5931	54.265160	0.000355	3.546842	1.201703	0.000142
 394	3.9103e+01	15.6413	54.382237	0.000294	2.938812	0.995697	0.000118
 395	3.9203e+01	15.6830	54.547760	0.000415	4.154873	1.407709	0.000166
 396	3.9303e+01	15.7231	54.640614	0.000233	2.330782	0.789690	0.000093
 397	3.9402e+01	15.7632	54.794025	0.000385	3.850857	1.304706	0.000154
 398	3.9502e+01	15.7969	54.898990	0.000263	2.634797	0.892693	0.000105
 399	3.9601e+01	15.8466	55.072587	0.000436	4.357549	1.476378	0.000174
 400	3.9700e+01	15.8819	55.161404	0.000223	2.229444	0.755356	0.000089
 401	3.9800e+01	15.9220	55.330964	0.000426	4.256211	1.442043	0.000170
 402	3.9900e+01	15.9637	55.448041	0.000294	2.938812	0.995697	0.000118
 403	3.9999e+01	15.9942	55.557043	0.000274	2.736136	0.927028	0.000110
 404	4.0099e+01	16.0375	55.694306	0.000345	3.445504	1.167368	0.000138
 405	4.0198e+01	16.0792	55.831569	0.000345	3.445504	1.167368	0.000138
 406	4.0297e+01	16.1225	55.960757	0.000324	3.242827	1.098700	0.000130
 407	4.0397e+01	16.1642	56.081871	0.000304	3.040151	1.030031	0.000122
 408	4.0496e+01	16.1979	56.231245	0.000375	3.749519	1.270371	0.000150
 409	4.0596e+01	16.2396	56.376582	0.000365	3.648181	1.236037	0.000146
 410	4.0696e+01	16.2894	56.477510	0.000253	2.533459	0.858359	0.000101
 411	4.0795e+01	16.3247	56.618810	0.000355	3.546842	1.201703	0.000142
 412	4.0895e+01	16.3648	56.719739	0.000253	2.533459	0.858359	0.000101
 413	4.0994e+01	16.3969	56.844890	0.000314	3.141489	1.064365	0.000126
 414	4.1093e+01	16.4386	57.006375	0.000405	4.053534	1.373375	0.000162
 415	4.1193e+01	16.4835	57.107304	0.000253	2.533459	0.858359	0.000101
 416	4.1292e+01	16.5188	57.232455	0.000314	3.141489	1.064365	0.000126
 417	4.1392e+01	16.5509	57.389903	0.000395	3.952196	1.339040	0.000158
 418	4.1492e+01	16.6022	57.502943	0.000284	2.837474	0.961362	0.000114
 419	4.1591e+01	16.6423	57.636168	0.000334	3.344166	1.133034	0.000134
 420	4.1691e+01	16.6728	57.773431	0.000345	3.445504	1.167368	0.000138
 421	4.1790e+01	16.7177	57.926842	0.000385	3.850857	1.304706	0.000154
 422	4.1889e+01	16.7578	58.043919	0.000294	2.938812	0.995697	0.000118
 423	4.1989e+01	16.8011	58.128699	0.000213	2.128105	0.721022	0.000085
 424	4.2089e+01	16.8444	58.318444	0.000476	4.762903	1.613715	0.000191
 425	4.2188e+01	16.8701	58.415336	0.000243	2.432121	0.824025	0.000097
 426	4.2288e+01	16.9134	58.520301	0.000263	2.634797	0.892693	0.000105
 427	4.2387e+01	16.9551	58.661601	0.000355	3.546842	1.201703	0.000142
 428	4.2486e+01	16.9952	58.766566	0.000263	2.634797	0.892693	0.000105
 429	4.2586e+01	17.0370	58.903829	0.000345	3.445504	1.167368	0.000138
 430	4.2685e+01	17.0819	59.016869	0.000284	2.837474	0.961362	0.000114
 431	4.2785e+01	17.1268	59.190466	0.000436	4.357549	1.476378	0.000174
 432	4.2885e+01	17.1573	59.283320	0.000233	2.330782	0.789690	0.000093
 433	4.2984e+01	17.1958	59.428657	0.000365	3.648181	1.236037	0.000146
 434	4.3084e+01	17.2423	59.561882	0.000334	3.344166	1.133034	0.000134
 435	4.3183e+01	17.2744	59.634551	0.000182	1.824090	0.618019	0.000073
 436	4.3282e+01	17.3177	59.828333	0.000486	4.864241	1.648049	0.000195
 437	4.3382e+01	17.3578	59.880816	0.000132	1.317399	0.446347	0.000053
 438	4.3481e+01	17.3995	60.050376	0.000426	4.256211	1.442043	0.000170
 439	4.3581e+01	17.4316	60.211861	0.000405	4.053534	1.373375	0.000162
 440	4.3681e+01	17.4781	60.300678	0.000223	2.229444	0.755356	0.000089
 441	4.3780e+01	17.5198	60.441978	0.000355	3.546842	1.201703	0.000142
 442	4.3880e+01	17.5519	60.587315	0.000365	3.648181	1.236037	0.000146
 443	4.3979e+01	17.5936	60.700354	0.000284	2.837474	0.961362	0.000114
 444	4.4078e+01	17.6417	60.845691	0.000365	3.648181	1.236037	0.000146
 445	4.4178e+01	17.6802	60.986991	0.000355	3.546842	1.201703	0.000142
 446	4.4278e+01	17.7188	61.079845	0.000233	2.330782	0.789690	0.000093
 447	4.4377e+01	17.7556	61.217108	0.000345	3.445504	1.167368	0.000138
 448	4.4477e+01	17.7909	61.334185	0.000294	2.938812	0.995697	0.000118
 449	4.4576e+01	17.8423	61.447225	0.000284	2.837474	0.961362	0.000114
 450	4.4675e+01	17.8679	61.564301	0.000294	2.938812	0.995697	0.000118
 451	4.4775e+01	17.9129	61.709638	0.000365	3.648181	1.236037	0.000146
 452	4.4874e+01	17.9498	61.814604	0.000263	2.634797	0.892693	0.000105
 453	4.4974e+01	17.9915	61.951866	0.000345	3.445504	1.167368	0.000138
 454	4.5074e+01	18.0348	62.072981	0.000304	3.040151	1.030031	0.000122
 455	4.5173e+01	18.0733	62.234466	0.000405	4.053534	1.373375	0.000162
 456	4.5273e+01	18.1118	62.331357	0.000243	2.432121	0.824025	0.000097
 457	4.5372e+01	18.1503	62.428248	0.000243	2.432121	0.824025	0.000097
 458	4.5471e+01	18.1936	62.581660	0.000385	3.850857	1.304706	0.000154
 459	4.5571e+01	18.2337	62.694699	0.000284	2.837474	0.961362	0.000114
 460	4.5670e+01	18.2690	62.848111	0.000385	3.850857	1.304706	0.000154
 461	4.5770e+01	18.3235	62.973262	0.000314	3.141489	1.064365	0.000126
 462	4.5870e+01	18.3620	63.070153	0.000243	2.432121	0.824025	0.000097
 463	4.5969e+01	18.3909	63.219527	0.000375	3.749519	1.270371	0.000150
 464	4.6069e+01	18.4310	63.300270	0.000203	2.026767	0.686687	0.000081
 465	4.6168e+01	18.4824	63.421384	0.000304	3.040151	1.030031	0.000122
 466	4.6267e+01	18.5112	63.566721	0.000365	3.648181	1.236037	0.000146
 467	4.6367e+01	18.5530	63.687835	0.000304	3.040151	1.030031	0.000122
 468	4.6467e+01	18.5931	63.812986	0.000314	3.141489	1.064365	0.000126
 469	4.6566e+01	18.6187	63.946212	0.000334	3.344166	1.133034	0.000134
 470	4.6666e+01	18.6733	64.026954	0.000203	2.026767	0.686687	0.000081
 471	4.6765e+01	18.7005	64.208625	0.000456	4.560226	1.545046	0.000183
 472	4.6864e+01	18.7471	64.305517	0.000243	2.432121	0.824025	0.000097
 473	4.6964e+01	18.7904	64.386259	0.000203	2.026767	0.686687	0.000081
 474	4.7063e+01	18.8273	64.515448	0.000324	3.242827	1.098700	0.000130
 475	4.7163e+01	18.8738	64.640599	0.000314	3.141489	1.064365	0.000126
 476	4.7263e+01	18.9171	64.761713	0.000304	3.040151	1.030031	0.000122
 477	4.7362e+01	18.9524	64.870716	0.000274	2.736136	0.927028	0.000110
 478	4.7462e+01	18.9941	64.967607	0.000243	2.432121	0.824025	0.000097
 479	4.7561e+01	19.0278	65.121018	0.000385	3.850857	1.304706	0.000154
 480	4.7660e+01	19.0631	65.238095	0.000294	2.938812	0.995697	0.000118
 481	4.7760e+01	19.1080	65.371320	0.000334	3.344166	1.133034	0.000134
 482	4.7859e+01	19.1481	65.492435	0.000304	3.040151	1.030031	0.000122
 483	4.7959e+01	19.1898	65.565103	0.000182	1.824090	0.618019	0.000073
 484	4.8059e+01	19.2283	65.726588	0.000405	4.053534	1.373375	0.000162
 485	4.8158e+01	19.2700	65.827517	0.000253	2.533459	0.858359	0.000101
 486	4.8258e+01	19.3134	65.940557	0.000284	2.837474	0.961362	0.000114
 487	4.8357e+01	19.3438	66.045522	0.000263	2.634797	0.892693	0.000105
 488	4.8456e+01	19.3839	66.215082	0.000426	4.256211	1.442043	0.000170
 489	4.8556e+01	19.4305	66.328122	0.000284	2.837474	0.961362	0.000114
 490	4.8656e+01	19.4658	66.473458	0.000365	3.648181	1.236037	0.000146
 491	4.8755e+01	19.5107	66.554201	0.000203	2.026767	0.686687	0.000081
 492	4.8855e+01	19.5412	66.663204	0.000274	2.736136	0.927028	0.000110
 493	4.8954e+01	19.5845	66.832764	0.000426	4.256211	1.442043	0.000170
 494	4.9053e+01	19.6166	66.929655	0.000243	2.432121	0.824025	0.000097
 495	4.9153e+01	19.6631	67.034620	0.000263	2.634797	0.892693	0.000105
 496	4.9252e+01	19.7176	67.151697	0.000294	2.938812	0.995697	0.000118
 497	4.9352e+01	19.7465	67.288960	0.000345	3.445504	1.167368	0.000138
 498	4.9452e+01	19.7882	67.422185	0.000334	3.344166	1.133034	0.000134
 499	4.9551e+01	19.8203	67.523114	0.000253	2.533459	0.858359	0.000101
 500	4.9651e+01	19.8636	67.640191	0.000294	2.938812	0.995697	0.000118
 501	4.9750e+01	19.9005	67.745156	0.000263	2.634797	0.892693	0.000105
 502	4.9849e+01	19.9406	67.874345	0.000324	3.242827	1.098700	0.000130
 503	4.9949e+01	19.9887	68.023719	0.000375	3.749519	1.270371	0.000150
 504	5.0048e+01	19.9486	67.914716	0.000274	2.736136	0.927028	-0.000110
 505	5.0148e+01	19.9005	67.833973	0.000203	2.026767	0.686687	-0.000081
 506	5.0248e+01	19.8604	67.737082	0.000243	2.432121	0.824025	-0.000097
 507	5.0347e+01	19.8267	67.652302	0.000213	2.128105	0.721022	-0.000085
 508	5.0447e+01	19.7914	67.591745	0.000152	1.520075	0.515015	-0.000061
 509	5.0546e+01	19.7513	67.494854	0.000243	2.432121	0.824025	-0.000097
 510	5.0645e+01	19.7064	67.406037	0.000223	2.229444	0.755356	-0.000089
 511	5.0745e+01	19.6695	67.236477	0.000426	4.256211	1.442043	-0.000170
 512	5.0844e+01	19.6198	67.196106	0.000101	1.013384	0.343344	-0.000041
 513	5.0944e+01	19.5781	67.111326	0.000213	2.128105	0.721022	-0.000085
 514	5.1044e+01	19.5347	67.030583	0.000203	2.026767	0.686687	-0.000081
 515	5.1143e+01	19.5027	66.941766	0.000223	2.229444	0.755356	-0.000089
 516	5.1242e+01	19.4658	66.808541	0.000334	3.344166	1.133034	-0.000134
 517	5.1342e+01	19.4241	66.747984	0.000152	1.520075	0.515015	-0.000061
 518	5.1441e+01	19.3807	66.622833	0.000314	3.141489	1.064365	-0.000126
 519	5.1541e+01	19.3470	66.550164	0.000182	1.824090	0.618019	-0.000073
 520	5.1641e+01	19.3053	66.449236	0.000253	2.533459	0.858359	-0.000101
 521	5.1740e+01	19.2684	66.364456	0.000213	2.128105	0.721022	-0.000085
 522	5.1840e+01	19.2315	66.263527	0.000253	2.533459	0.858359	-0.000101
 523	5.1939e+01	19.1898	66.154525	0.000274	2.736136	0.927028	-0.000110
 524	5.2038e+01	19.1481	66.077819	0.000193	1.925429	0.652353	-0.000077
 525	5.2138e+01	19.1112	65.960742	0.000294	2.938812	0.995697	-0.000118
 526	5.2237e+01	19.0743	65.855777	0.000263	2.634797	0.892693	-0.000105
 527	5.2337e+01	19.0262	65.746774	0.000274	2.736136	0.927028	-0.000110
 528	5.2437e+01	18.9941	65.661994	0.000213	2.128105	0.721022	-0.000085
 529	5.2536e+01	18.9476	65.561066	0.000253	2.533459	0.858359	-0.000101
 530	5.2636e+01	18.9203	65.508583	0.000132	1.317399	0.446347	-0.000053
 531	5.2735e+01	18.8674	65.403618	0.000263	2.634797	0.892693	-0.000105
 532	5.2834e+01	18.8321	65.258281	0.000365	3.648181	1.236037	-0.000146
 533	5.2934e+01	18.7856	65.116981	0.000355	3.546842	1.201703	-0.000142
 534	5.3033e+01	18.7535	65.072572	0.000111	1.114722	0.377678	-0.000045
 535	5.3133e+01	18.7070	64.923198	0.000375	3.749519	1.270371	-0.000150
 536	5.3233e+01	18.6781	64.838419	0.000213	2.128105	0.721022	-0.000085
 537	5.3332e+01	18.6332	64.781899	0.000142	1.418737	0.480681	-0.000057
 538	5.3431e+01	18.5915	64.632525	0.000375	3.749519	1.270371	-0.000150
 539	5.3531e+01	18.5465	64.527559	0.000263	2.634797	0.892693	-0.000105
 540	5.3630e+01	18.5048	64.467002	0.000152	1.520075	0.515015	-0.000061
 541	5.3730e+01	18.4679	64.345888	0.000304	3.040151	1.030031	-0.000122
 542	5.3830e+01	18.4358	64.248997	0.000243	2.432121	0.824025	-0.000097
 543	5.3929e+01	18.3861	64.111734	0.000345	3.445504	1.167368	-0.000138
 544	5.4029e+01	18.3380	64.039066	0.000182	1.824090	0.618019	-0.000073
 545	5.4128e+01	18.3139	63.930063	0.000274	2.736136	0.927028	-0.000110
 546	5.4227e+01	18.2690	63.837209	0.000233	2.330782	0.789690	-0.000093
 547	5.4327e+01	18.2337	63.764540	0.000182	1.824090	0.618019	-0.000073
 548	5.4426e+01	18.1952	63.627278	0.000345	3.445504	1.167368	-0.000138
 549	5.4526e+01	18.1439	63.502127	0.000314	3.141489	1.064365	-0.000126
 550	5.4626e+01	18.1102	63.421384	0.000203	2.026767	0.686687	-0.000081
 551	5.4725e+01	18.0733	63.300270	0.000304	3.040151	1.030031	-0.000122
 552	5.4825e+01	18.0316	63.203379	0.000243	2.432121	0.824025	-0.000097
 553	5.4924e+01	17.9931	63.114562	0.000223	2.229444	0.755356	-0.000089
 554	5.5023e+01	17.9433	63.017670	0.000243	2.432121	0.824025	-0.000097
 555	5.5123e+01	17.9177	62.900593	0.000294	2.938812	0.995697	-0.000118
 556	5.5222e+01	17.8776	62.835999	0.000162	1.621414	0.549350	-0.000065
 557	5.5322e+01	17.8310	62.722959	0.000284	2.837474	0.961362	-0.000114
 558	5.5422e+01	17.7958	62.646254	0.000193	1.925429	0.652353	-0.000077
 559	5.5521e+01	17.7508	62.504954	0.000355	3.546842	1.201703	-0.000142
 560	5.5620e+01	17.7155	62.404026	0.000253	2.533459	0.858359	-0.000101
 561	5.5720e+01	17.6738	62.311172	0.000233	2.330782	0.789690	-0.000093
 562	5.5819e+01	17.6305	62.222355	0.000223	2.229444	0.755356	-0.000089
 563	5.5919e+01	17.5952	62.109315	0.000284	2.837474	0.961362	-0.000114
 564	5.6019e+01	17.5599	61.984164	0.000314	3.141489	1.064365	-0.000126
 565	5.6118e+01	17.5166	61.907458	0.000193	1.925429	0.652353	-0.000077
 566	5.6218e+01	17.4749	61.758084	0.000375	3.749519	1.270371	-0.000150
 567	5.6317e+01	17.4380	61.701564	0.000142	1.418737	0.480681	-0.000057
 568	5.6416e+01	17.3915	61.560264	0.000355	3.546842	1.201703	-0.000142
 569	5.6516e+01	17.3514	61.447225	0.000284	2.837474	0.961362	-0.000114
 570	5.6615e+01	17.3193	61.366482	0.000203	2.026767	0.686687	-0.000081
 571	5.6715e+01	17.2760	61.237293	0.000324	3.242827	1.098700	-0.000130
 572	5.6815e+01	17.2311	61.148476	0.000223	2.229444	0.755356	-0.000089
 573	5.6914e+01	17.1894	61.031400	0.000294	2.938812	0.995697	-0.000118
 574	5.7014e+01	17.1557	60.954694	0.000193	1.925429	0.652353	-0.000077
 575	5.7113e+01	17.1059	60.853766	0.000253	2.533459	0.858359	-0.000101
 576	5.7212e+01	17.0819	60.728614	0.000314	3.141489	1.064365	-0.000126
 577	5.7312e+01	17.0353	60.607500	0.000304	3.040151	1.030031	-0.000122
 578	5.7411e+01	16.9985	60.466201	0.000355	3.546842	1.201703	-0.000142
 579	5.7511e+01	16.9519	60.373346	0.000233	2.330782	0.789690	-0.000093
 580	5.7611e+01	16.9214	60.280492	0.000233	2.330782	0.789690	-0.000093
 581	5.7710e+01	16.8781	60.159378	0.000304	3.040151	1.030031	-0.000122
 582	5.7809e+01	16.8332	60.070561	0.000223	2.229444	0.755356	-0.000089
 583	5.7909e+01	16.7915	59.981744	0.000223	2.229444	0.755356	-0.000089
 584	5.8008e+01	16.7546	59.852556	0.000324	3.242827	1.098700	-0.000130
 585	5.8108e+01	16.7273	59.739516	0.000284	2.837474	0.961362	-0.000114
 586	5.8208e+01	16.6808	59.642625	0.000243	2.432121	0.824025	-0.000097
 587	5.8307e+01	16.6407	59.557845	0.000213	2.128105	0.721022	-0.000085
 588	5.8407e+01	16.6022	59.420582	0.000345	3.445504	1.167368	-0.000138
 589	5.8506e+01	16.5621	59.323691	0.000243	2.432121	0.824025	-0.000097
 590	5.8605e+01	16.5140	59.178354	0.000365	3.648181	1.236037	-0.000146
 591	5.8705e+01	16.4707	59.101649	0.000193	1.925429	0.652353	-0.000077
 592	5.8804e+01	16.4466	58.996683	0.000263	2.634797	0.892693	-0.000105
 593	5.8904e+01	16.3953	58.871532	0.000314	3.141489	1.064365	-0.000126
 594	5.9004e+01	16.3568	58.758492	0.000284	2.837474	0.961362	-0.000114
 595	5.9103e+01	16.3086	58.661601	0.000243	2.432121	0.824025	-0.000097
 596	5.9203e+01	16.2910	58.540487	0.000304	3.040151	1.030031	-0.000122
 597	5.9302e+01	16.2348	58.443596	0.000243	2.432121	0.824025	-0.000097
 598	5.9401e+01	16.2028	58.334593	0.000274	2.736136	0.927028	-0.000110
 599	5.9501e+01	16.1594	58.217516	0.000294	2.938812	0.995697	-0.000118
 600	5.9600e+01	16.1209	58.092365	0.000314	3.141489	1.064365	-0.000126
 601	5.9700e+01	16.0889	57.991436	0.000253	2.533459	0.858359	-0.000101
 602	5.9800e+01	16.0375	57.846099	0.000365	3.648181	1.236037	-0.000146
 603	5.9899e+01	15.9926	57.785542	0.000152	1.520075	0.515015	-0.000061
 604	5.9998e+01	15.9637	57.660391	0.000314	3.141489	1.064365	-0.000126
 605	6.0098e+01	15.9236	57.527166	0.000334	3.344166	1.133034	-0.000134
 606	6.0197e+01	15.8819	57.454497	0.000182	1.824090	0.618019	-0.000073
 607	6.0297e+01	15.8370	57.345495	0.000274	2.736136	0.927028	-0.000110
 608	6.0397e+01	15.8033	57.200158	0.000365	3.648181	1.236037	-0.000146
 609	6.0496e+01	15.7600	57.091155	0.000274	2.736136	0.927028	-0.000110
 610	6.0596e+01	15.7231	56.990227	0.000253	2.533459	0.858359	-0.000101
 611	6.0695e+01	15.6878	56.897373	0.000233	2.330782	0.789690	-0.000093
 612	6.0794e+01	15.6349	56.772221	0.000314	3.141489	1.064365	-0.000126
 613	6.0894e+01	15.5996	56.651107	0.000304	3.040151	1.030031	-0.000122
 614	6.0993e+01	15.5643	56.538067	0.000284	2.837474	0.961362	-0.000114
 615	6.1093e+01	15.5177	56.425028	0.000284	2.837474	0.961362	-0.000114
 616	6.1193e+01	15.4841	56.307951	0.000294	2.938812	0.995697	-0.000118
 617	6.1292e+01	15.4456	56.202985	0.000263	2.634797	0.892693	-0.000105
 618	6.1392e+01	15.4087	56.085908	0.000294	2.938812	0.995697	-0.000118
 619	6.1491e+01	15.3637	55.980943	0.000263	2.634797	0.892693	-0.000105
 620	6.1590e+01	15.3284	55.867903	0.000284	2.837474	0.961362	-0.000114
 621	6.1690e+01	15.2771	55.750826	0.000294	2.938812	0.995697	-0.000118
 622	6.1789e+01	15.2402	55.686232	0.000162	1.621414	0.549350	-0.000065
 623	6.1889e+01	15.2065	55.548969	0.000345	3.445504	1.167368	-0.000138
 624	6.1989e+01	15.1616	55.411707	0.000345	3.445504	1.167368	-0.000138
 625	6.2088e+01	15.1231	55.282518	0.000324	3.242827	1.098700	-0.000130
 626	6.2188e+01	15.0702	55.217924	0.000162	1.621414	0.549350	-0.000065
 627	6.2287e+01	15.0429	55.068550	0.000375	3.749519	1.270371	-0.000150
 628	6.2386e+01	15.0092	54.967622	0.000253	2.533459	0.858359	-0.000101
 629	6.2486e+01	14.9659	54.818248	0.000375	3.749519	1.270371	-0.000150
 630	6.2586e+01	14.9258	54.717319	0.000253	2.533459	0.858359	-0.000101
 631	6.2685e+01	14.8857	54.555834	0.000405	4.053534	1.373375	-0.000162
 632	6.2785e+01	14.8375	54.479128	0.000193	1.925429	0.652353	-0.000077
 633	6.2884e+01	14.7910	54.378200	0.000253	2.533459	0.858359	-0.000101
 634	6.2983e+01	14.7605	54.228826	0.000375	3.749519	1.270371	-0.000150
 635	6.3083e+01	14.7204	54.099637	0.000324	3.242827	1.098700	-0.000130
 636	6.3182e+01	14.6851	54.039080	0.000152	1.520075	0.515015	-0.000061
 637	6.3282e+01	14.6370	53.865484	0.000436	4.357549	1.476378	-0.000174
 638	6.3382e+01	14.6065	53.756481	0.000274	2.736136	0.927028	-0.000110
 639	6.3481e+01	14.5712	53.655553	0.000253	2.533459	0.858359	-0.000101
 640	6.3581e+01	14.5215	53.526364	0.000324	3.242827	1.098700	-0.000130
 641	6.3680e+01	14.4846	53.389102	0.000345	3.445504	1.167368	-0.000138
 642	6.3779e+01	14.4509	53.296247	0.000233	2.330782	0.789690	-0.000093
 643	6.3879e+01	14.4092	53.138799	0.000395	3.952196	1.339040	-0.000158
 644	6.3978e+01	14.3707	53.045945	0.000233	2.330782	0.789690	-0.000093
 645	6.4078e+01	14.3178	52.912720	0.000334	3.344166	1.133034	-0.000134
 646	6.4177e+01	14.2873	52.807754	0.000263	2.634797	0.892693	-0.000105
 647	6.4277e+01	14.2440	52.690677	0.000294	2.938812	0.995697	-0.000118
 648	6.4376e+01	14.2071	52.577637	0.000284	2.837474	0.961362	-0.000114
 649	6.4476e+01	14.1702	52.432300	0.000365	3.648181	1.236037	-0.000146
 650	6.4576e+01	14.1221	52.323298	0.000274	2.736136	0.927028	-0.000110
 651	6.4675e+01	14.0804	52.210258	0.000284	2.837474	0.961362	-0.000114
 652	6.4775e+01	14.0483	52.081070	0.000324	3.242827	1.098700	-0.000130
 653	6.4874e+01	14.0098	51.968030	0.000284	2.837474	0.961362	-0.000114
 654	6.4974e+01	13.9648	51.854990	0.000284	2.837474	0.961362	-0.000114
 655	6.5073e+01	13.9279	51.733876	0.000304	3.040151	1.030031	-0.000122
 656	6.5172e+01	13.8894	51.604688	0.000324	3.242827	1.098700	-0.000130
 657	6.5272e+01	13.8477	51.499722	0.000263	2.634797	0.892693	-0.000105
 658	6.5371e+01	13.8044	51.342274	0.000395	3.952196	1.339040	-0.000158
 659	6.5471e+01	13.7659	51.200974	0.000355	3.546842	1.201703	-0.000142
 660	6.5570e+01	13.7242	51.128306	0.000182	1.824090	0.618019	-0.000073
 661	6.5670e+01	13.6921	51.031414	0.000243	2.432121	0.824025	-0.000097
 662	6.5769e+01	13.6488	50.918374	0.000284	2.837474	0.961362	-0.000114
 663	6.5869e+01	13.6167	50.744778	0.000436	4.357549	1.476378	-0.000174
 664	6.5969e+01	13.5670	50.651924	0.000233	2.330782	0.789690	-0.000093
 665	6.6068e+01	13.5333	50.522735	0.000324	3.242827	1.098700	-0.000130
 666	6.6168e+01	13.4900	50.393547	0.000324	3.242827	1.098700	-0.000130
 667	6.6267e+01	13.4467	50.260321	0.000334	3.344166	1.133034	-0.000134
 668	6.6367e+01	13.4098	50.167467	0.000233	2.330782	0.789690	-0.000093
 669	6.6466e+01	13.3729	50.062502	0.000263	2.634797	0.892693	-0.000105
 670	6.6566e+01	13.3280	49.872756	0.000476	4.762903	1.613715	-0.000191
 671	6.6665e+01	13.2879	49.771828	0.000253	2.533459	0.858359	-0.000101
 672	6.6764e+01	13.2542	49.646677	0.000314	3.141489	1.064365	-0.000126
 673	6.6864e+01	13.2044	49.521526	0.000314	3.141489	1.064365	-0.000126
 674	6.6963e+01	13.1708	49.440783	0.000203	2.026767	0.686687	-0.000081
 675	6.7063e+01	13.1274	49.303520	0.000345	3.445504	1.167368	-0.000138
 676	6.7162e+01	13.0921	49.170295	0.000334	3.344166	1.133034	-0.000134
 677	6.7262e+01	13.0585	49.028995	0.000355	3.546842	1.201703	-0.000142
 678	6.7362e+01	13.0135	48.972475	0.000142	1.418737	0.480681	-0.000057
 679	6.7461e+01	12.9782	48.786767	0.000466	4.661564	1.579381	-0.000187
 680	6.7561e+01	12.9333	48.677764	0.000274	2.736136	0.927028	-0.000110
 681	6.7660e+01	12.9028	48.560687	0.000294	2.938812	0.995697	-0.000118
 682	6.7760e+01	12.8483	48.455722	0.000263	2.634797	0.892693	-0.000105
 683	6.7859e+01	12.8146	48.318459	0.000345	3.445504	1.167368	-0.000138
 684	6.7959e+01	12.7841	48.189271	0.000324	3.242827	1.098700	-0.000130
 685	6.8058e+01	12.7312	48.072194	0.000294	2.938812	0.995697	-0.000118
 686	6.8157e+01	12.6959	47.926857	0.000365	3.648181	1.236037	-0.000146
 687	6.8257e+01	12.6526	47.829966	0.000243	2.432121	0.824025	-0.000097
 688	6.8356e+01	12.6141	47.712889	0.000294	2.938812	0.995697	-0.000118
 689	6.8456e+01	12.5724	47.591775	0.000304	3.040151	1.030031	-0.000122
 690	6.8555e+01	12.5371	47.434326	0.000395	3.952196	1.339040	-0.000158
 691	6.8655e+01	12.5002	47.325324	0.000274	2.736136	0.927028	-0.000110
 692	6.8754e+01	12.4553	47.224395	0.000253	2.533459	0.858359	-0.000101
 693	6.8854e+01	12.4248	47.075021	0.000375	3.749519	1.270371	-0.000150
 694	6.8954e+01	12.3831	46.929684	0.000365	3.648181	1.236037	-0.000146
 695	6.9053e+01	12.3253	46.861053	0.000172	1.722752	0.583684	-0.000069
 696	6.9153e+01	12.2980	46.707642	0.000385	3.850857	1.304706	-0.000154
 697	6.9252e+01	12.2515	46.578454	0.000324	3.242827	1.098700	-0.000130
 698	6.9352e+01	12.2226	46.465414	0.000284	2.837474	0.961362	-0.000114
 699	6.9451e+01	12.1841	46.336225	0.000324	3.242827	1.098700	-0.000130
 700	6.9550e+01	12.1408	46.190889	0.000365	3.648181	1.236037	-0.000146
 701	6.9650e+01	12.0959	46.025366	0.000415	4.154873	1.407709	-0.000166
 702	6.9749e+01	12.0590	45.920400	0.000263	2.634797	0.892693	-0.000105
 703	6.9849e+01	12.0125	45.783138	0.000345	3.445504	1.167368	-0.000138
 704	6.9948e+01	11.9756	45.662024	0.000304	3.040151	1.030031	-0.000122
 705	7.0048e+01	11.9451	45.536873	0.000314	3.141489	1.064365	-0.000126
 706	7.0147e+01	11.8777	45.379424	0.000395	3.952196	1.339040	-0.000158
 707	7.0247e+01	11.8505	45.270422	0.000274	2.736136	0.927028	-0.000110
 708	7.0347e+01	11.8152	45.133159	0.000345	3.445504	1.167368	-0.000138
 709	7.0446e+01	11.7783	45.036268	0.000243	2.432121	0.824025	-0.000097
 710	7.0546e+01	11.7398	44.931302	0.000263	2.634797	0.892693	-0.000105
 711	7.0645e+01	11.6965	44.773854	0.000395	3.952196	1.339040	-0.000158
 712	7.0745e+01	11.6580	44.656777	0.000294	2.938812	0.995697	-0.000118
 713	7.0844e+01	11.6146	44.555849	0.000253	2.533459	0.858359	-0.000101
 714	7.0944e+01	11.5697	44.353992	0.000507	5.066918	1.716718	-0.000203
 715	7.1043e+01	11.5344	44.293435	0.000152	1.520075	0.515015	-0.000061
 716	7.1142e+01	11.4975	44.192506	0.000253	2.533459	0.858359	-0.000101
 717	7.1242e+01	11.4574	44.059281	0.000334	3.344166	1.133034	-0.000134
 718	7.1341e+01	11.4173	43.909907	0.000375	3.749519	1.270371	-0.000150
 719	7.1441e+01	11.3756	43.804941	0.000263	2.634797	0.892693	-0.000105
 720	7.1540e+01	11.3339	43.659604	0.000365	3.648181	1.236037	-0.000146
 721	7.1640e+01	11.2986	43.570787	0.000223	2.229444	0.755356	-0.000089
 722	7.1740e+01	11.2697	43.413339	0.000395	3.952196	1.339040	-0.000158
 723	7.1839e+01	11.2136	43.280114	0.000334	3.344166	1.133034	-0.000134
 724	7.1939e+01	11.1815	43.138814	0.000355	3.546842	1.201703	-0.000142
 725	7.2038e+01	11.1318	43.013663	0.000314	3.141489	1.064365	-0.000126
 726	7.2138e+01	11.1077	42.892549	0.000304	3.040151	1.030031	-0.000122
 727	7.2237e+01	11.0532	42.819880	0.000182	1.824090	0.618019	-0.000073
 728	7.2337e+01	11.0066	42.642246	0.000446	4.458888	1.510712	-0.000179
 729	7.2436e+01	10.9874	42.537281	0.000263	2.634797	0.892693	-0.000105
 730	7.2535e+01	10.9457	42.432315	0.000263	2.634797	0.892693	-0.000105
 731	7.2635e+01	10.9040	42.278904	0.000385	3.850857	1.304706	-0.000154
 732	7.2734e+01	10.8623	42.173938	0.000263	2.634797	0.892693	-0.000105
 733	7.2834e+01	10.8254	42.056862	0.000294	2.938812	0.995697	-0.000118
 734	7.2933e+01	10.7692	41.867116	0.000476	4.762903	1.613715	-0.000191
 735	7.3033e+01	10.7403	41.798485	0.000172	1.722752	0.583684	-0.000069
 736	7.3132e+01	10.7050	41.641037	0.000395	3.952196	1.339040	-0.000158
 737	7.3232e+01	10.6633	41.511848	0.000324	3.242827	1.098700	-0.000130
 738	7.3332e+01	10.6280	41.370548	0.000355	3.546842	1.201703	-0.000142
 739	7.3431e+01	10.5815	41.285769	0.000213	2.128105	0.721022	-0.000085
 740	7.3531e+01	10.5318	41.124283	0.000405	4.053534	1.373375	-0.000162
 741	7.3630e+01	10.4981	40.995095	0.000324	3.242827	1.098700	-0.000130
 742	7.3730e+01	10.4580	40.906278	0.000223	2.229444	0.755356	-0.000089
 743	7.3829e+01	10.4227	40.769015	0.000345	3.445504	1.167368	-0.000138
 744	7.3928e+01	10.3778	40.631753	0.000345	3.445504	1.167368	-0.000138
 745	7.4028e+01	10.3345	40.462193	0.000426	4.256211	1.442043	-0.000170
 746	7.4127e+01	10.2976	40.365302	0.000243	2.432121	0.824025	-0.000097
 747	7.4227e+01	10.2591	40.191705	0.000436	4.357549	1.476378	-0.000174
 748	7.4326e+01	10.2222	40.074628	0.000294	2.938812	0.995697	-0.000118
 749	7.4426e+01	10.1837	39.993885	0.000203	2.026767	0.686687	-0.000081
 750	7.4525e+01	10.1436	39.856623	0.000345	3.445504	1.167368	-0.000138
 751	7.4625e+01	10.1019	39.662840	0.000486	4.864241	1.648049	-0.000195
 752	7.4725e+01	10.0682	39.537689	0.000314	3.141489	1.064365	-0.000126
 753	7.4824e+01	10.0152	39.465020	0.000182	1.824090	0.618019	-0.000073
 754	7.4924e+01	9.9831	39.303535	0.000405	4.053534	1.373375	-0.000162
 755	7.5023e+01	9.9462	39.210681	0.000233	2.330782	0.789690	-0.000093
 756	7.5123e+01	9.9013	39.037084	0.000436	4.357549	1.476378	-0.000174
 757	7.5222e+01	9.8580	38.915970	0.000304	3.040151	1.030031	-0.000122
 758	7.5322e+01	9.8275	38.786782	0.000324	3.242827	1.098700	-0.000130
 759	7.5421e+01	9.7826	38.649519	0.000345	3.445504	1.167368	-0.000138
 760	7.5520e+01	9.7489	38.516294	0.000334	3.344166	1.133034	-0.000134
 761	7.5620e+01	9.7072	38.370957	0.000365	3.648181	1.236037	-0.000146
 762	7.5719e+01	9.6735	38.270028	0.000253	2.533459	0.858359	-0.000101
 763	7.5819e+01	9.6270	38.148914	0.000304	3.040151	1.030031	-0.000122
 764	7.5918e+01	9.5853	37.991466	0.000395	3.952196	1.339040	-0.000158
 765	7.6018e+01	9.5500	37.874389	0.000294	2.938812	0.995697	-0.000118
 766	7.6118e+01	9.5115	37.704829	0.000426	4.256211	1.442043	-0.000170
 767	7.6217e+01	9.4698	37.583715	0.000304	3.040151	1.030031	-0.000122
 768	7.6317e+01	9.4217	37.450490	0.000334	3.344166	1.133034	-0.000134
 769	7.6416e+01	9.3767	37.317264	0.000334	3.344166	1.133034	-0.000134
 770	7.6516e+01	9.3543	37.163853	0.000385	3.850857	1.304706	-0.000154
 771	7.6615e+01	9.3110	37.058888	0.000263	2.634797	0.892693	-0.000105
 772	7.6715e+01	9.2709	36.925662	0.000334	3.344166	1.133034	-0.000134
 773	7.6814e+01	9.2340	36.776288	0.000375	3.749519	1.270371	-0.000150
 774	7.6913e+01	9.1906	36.630951	0.000365	3.648181	1.236037	-0.000146
 775	7.7013e+01	9.1521	36.497726	0.000334	3.344166	1.133034	-0.000134
 776	7.7112e+01	9.1185	36.400834	0.000243	2.432121	0.824025	-0.000097
 777	7.7212e+01	9.0655	36.235312	0.000415	4.154873	1.407709	-0.000166
 778	7.7311e+01	9.0270	36.106123	0.000324	3.242827	1.098700	-0.000130
 779	7.7411e+01	8.9837	35.989047	0.000294	2.938812	0.995697	-0.000118
 780	7.7510e+01	8.9500	35.855821	0.000334	3.344166	1.133034	-0.000134
 781	7.7610e+01	8.9019	35.722596	0.000334	3.344166	1.133034	-0.000134
 782	7.7710e+01	8.8650	35.581296	0.000355	3.546842	1.201703	-0.000142
 783	7.7809e+01	8.8265	35.460182	0.000304	3.040151	1.030031	-0.000122
 784	7.7909e+01	8.7928	35.298696	0.000405	4.053534	1.373375	-0.000162
 785	7.8008e+01	8.7495	35.173545	0.000314	3.141489	1.064365	-0.000126
 786	7.8108e+01	8.7030	35.040320	0.000334	3.344166	1.133034	-0.000134
 787	7.8207e+01	8.6629	34.923243	0.000294	2.938812	0.995697	-0.000118
 788	7.8306e+01	8.6260	34.781943	0.000355	3.546842	1.201703	-0.000142
 789	7.8406e+01	8.5859	34.644680	0.000345	3.445504	1.167368	-0.000138
 790	7.8505e+01	8.5441	34.503381	0.000355	3.546842	1.201703	-0.000142
 791	7.8605e+01	8.5185	34.370155	0.000334	3.344166	1.133034	-0.000134
 792	7.8704e+01	8.4784	34.228855	0.000355	3.546842	1.201703	-0.000142
 793	7.8804e+01	8.4335	34.144076	0.000213	2.128105	0.721022	-0.000085
 794	7.8903e+01	8.3901	33.974516	0.000426	4.256211	1.442043	-0.000170
 795	7.9003e+01	8.3532	33.825142	0.000375	3.749519	1.270371	-0.000150
 796	7.9103e+01	8.3083	33.675768	0.000375	3.749519	1.270371	-0.000150
 797	7.9202e+01	8.2746	33.554654	0.000304	3.040151	1.030031	-0.000122
 798	7.9302e+01	8.2249	33.401243	0.000385	3.850857	1.304706	-0.000154
 799	7.9401e+01	8.1944	33.272054	0.000324	3.242827	1.098700	-0.000130
 800	7.9501e+01	8.1511	33.118643	0.000385	3.850857	1.304706	-0.000154
 801	7.9600e+01	8.1142	32.997529	0.000304	3.040151	1.030031	-0.000122
 802	7.9700e+01	8.0725	32.827969	0.000426	4.256211	1.442043	-0.000170
 803	7.9799e+01	8.0372	32.674558	0.000385	3.850857	1.304706	-0.000154
 804	7.9898e+01	7.9843	32.541333	0.000334	3.344166	1.133034	-0.000134
 805	7.9998e+01	7.9538	32.444441	0.000243	2.432121	0.824025	-0.000097
 806	8.0097e+01	7.9137	32.270845	0.000436	4.357549	1.476378	-0.000174
 807	8.0197e+01	7.8784	32.121470	0.000375	3.749519	1.270371	-0.000150
 808	8.0296e+01	7.8335	32.020542	0.000253	2.533459	0.858359	-0.000101
 809	8.0396e+01	7.7869	31.859057	0.000405	4.053534	1.373375	-0.000162
 810	8.0496e+01	7.7565	31.721794	0.000345	3.445504	1.167368	-0.000138
 811	8.0595e+01	7.7132	31.560309	0.000405	4.053534	1.373375	-0.000162
 812	8.0695e+01	7.6634	31.455343	0.000263	2.634797	0.892693	-0.000105
 813	8.0794e+01	7.6201	31.305969	0.000375	3.749519	1.270371	-0.000150
 814	8.0894e+01	7.5928	31.148521	0.000395	3.952196	1.339040	-0.000158
 815	8.0993e+01	7.5591	30.995110	0.000385	3.850857	1.304706	-0.000154
 816	8.1093e+01	7.5110	30.873996	0.000304	3.040151	1.030031	-0.000122
 817	8.1192e+01	7.4789	30.736733	0.000345	3.445504	1.167368	-0.000138
 818	8.1291e+01	7.4372	30.591396	0.000365	3.648181	1.236037	-0.000146
 819	8.1391e+01	7.3907	30.462208	0.000324	3.242827	1.098700	-0.000130
 820	8.1490e+01	7.3474	30.300722	0.000405	4.053534	1.373375	-0.000162
 821	8.1590e+01	7.3153	30.199794	0.000253	2.533459	0.858359	-0.000101
 822	8.1689e+01	7.2736	30.038308	0.000405	4.053534	1.373375	-0.000162
 823	8.1789e+01	7.2351	29.884897	0.000385	3.850857	1.304706	-0.000154
 824	8.1888e+01	7.1902	29.735523	0.000375	3.749519	1.270371	-0.000150
 825	8.1988e+01	7.1469	29.561926	0.000436	4.357549	1.476378	-0.000174
 826	8.2088e+01	7.1148	29.444850	0.000294	2.938812	0.995697	-0.000118
 827	8.2187e+01	7.0666	29.319698	0.000314	3.141489	1.064365	-0.000126
 828	8.2287e+01	7.0249	29.186473	0.000334	3.344166	1.133034	-0.000134
 829	8.2386e+01	6.9864	29.029025	0.000395	3.952196	1.339040	-0.000158
 830	8.2486e+01	6.9672	28.899836	0.000324	3.242827	1.098700	-0.000130
 831	8.2585e+01	6.9175	28.742388	0.000395	3.952196	1.339040	-0.000158
 832	8.2684e+01	6.8725	28.593014	0.000375	3.749519	1.270371	-0.000150
 833	8.2784e+01	6.8372	28.447677	0.000365	3.648181	1.236037	-0.000146
 834	8.2883e+01	6.7955	28.314451	0.000334	3.344166	1.133034	-0.000134
 835	8.2983e+01	6.7522	28.177189	0.000345	3.445504	1.167368	-0.000138
 836	8.3082e+01	6.7201	28.068186	0.000274	2.736136	0.927028	-0.000110
 837	8.3182e+01	6.6784	27.870367	0.000497	4.965579	1.682384	-0.000199
 838	8.3281e+01	6.6367	27.761364	0.000274	2.736136	0.927028	-0.000110
 839	8.3381e+01	6.5934	27.591804	0.000426	4.256211	1.442043	-0.000170
 840	8.3481e+01	6.5581	27.458579	0.000334	3.344166	1.133034	-0.000134
 841	8.3580e+01	6.5132	27.305168	0.000385	3.850857	1.304706	-0.000154
 842	8.3680e+01	6.4747	27.192128	0.000284	2.837474	0.961362	-0.000114
 843	8.3779e+01	6.4410	27.079088	0.000284	2.837474	0.961362	-0.000114
 844	8.3879e+01	6.3993	26.901454	0.000446	4.458888	1.510712	-0.000179
 845	8.3978e+01	6.3576	26.748043	0.000385	3.850857	1.304706	-0.000154
 846	8.4078e+01	6.3175	26.622892	0.000314	3.141489	1.064365	-0.000126
 847	8.4177e+01	6.2790	26.461406	0.000405	4.053534	1.373375	-0.000162
 848	8.4276e+01	6.2389	26.356441	0.000263	2.634797	0.892693	-0.000105
 849	8.4376e+01	6.1939	26.174770	0.000456	4.560226	1.545046	-0.000183
 850	8.4475e+01	6.1699	26.029433	0.000365	3.648181	1.236037	-0.000146
 851	8.4575e+01	6.1185	25.892170	0.000345	3.445504	1.167368	-0.000138
 852	8.4674e+01	6.0816	25.726647	0.000415	4.154873	1.407709	-0.000166
 853	8.4774e+01	6.0464	25.613608	0.000284	2.837474	0.961362	-0.000114
 854	8.4874e+01	5.9950	25.476345	0.000345	3.445504	1.167368	-0.000138
 855	8.4973e+01	5.9629	25.314860	0.000405	4.053534	1.373375	-0.000162
 856	8.5073e+01	5.9292	25.193746	0.000304	3.040151	1.030031	-0.000122
 857	8.5172e+01	5.8795	25.024186	0.000426	4.256211	1.442043	-0.000170
 858	8.5272e+01	5.8346	24.899035	0.000314	3.141489	1.064365	-0.000126
 859	8.5371e+01	5.8025	24.737549	0.000405	4.053534	1.373375	-0.000162
 860	8.5471e+01	5.7624	24.624509	0.000284	2.837474	0.961362	-0.000114
 861	8.5570e+01	5.7127	24.442838	0.000456	4.560226	1.545046	-0.000183
 862	8.5669e+01	5.6838	24.325761	0.000294	2.938812	0.995697	-0.000118
 863	8.5769e+01	5.6421	24.144090	0.000456	4.560226	1.545046	-0.000183
 864	8.5868e+01	5.6084	24.010865	0.000334	3.344166	1.133034	-0.000134
 865	8.5968e+01	5.5715	23.885714	0.000314	3.141489	1.064365	-0.000126
 866	8.6067e+01	5.5202	23.736340	0.000375	3.749519	1.270371	-0.000150
 867	8.6167e+01	5.4817	23.562743	0.000436	4.357549	1.476378	-0.000174
 868	8.6266e+01	5.4416	23.381072	0.000456	4.560226	1.545046	-0.000183
 869	8.6366e+01	5.3982	23.243809	0.000345	3.445504	1.167368	-0.000138
 870	8.6466e+01	5.3613	23.134806	0.000274	2.736136	0.927028	-0.000110
 871	8.6565e+01	5.3212	23.001581	0.000334	3.344166	1.133034	-0.000134
 872	8.6665e+01	5.2843	22.856244	0.000365	3.648181	1.236037	-0.000146
 873	8.6764e+01	5.2442	22.674573	0.000456	4.560226	1.545046	-0.000183
 874	8.6864e+01	5.1977	22.500976	0.000436	4.357549	1.476378	-0.000174
 875	8.6963e+01	5.1576	22.400048	0.000253	2.533459	0.858359	-0.000101
 876	8.7063e+01	5.1223	22.254711	0.000365	3.648181	1.236037	-0.000146
 877	8.7162e+01	5.0854	22.093225	0.000405	4.053534	1.373375	-0.000162
 878	8.7261e+01	5.0485	21.915591	0.000446	4.458888	1.510712	-0.000179
 879	8.7361e+01	4.9972	21.794477	0.000304	3.040151	1.030031	-0.000122
 880	8.7460e+01	4.9731	21.665289	0.000324	3.242827	1.098700	-0.000130
 881	8.7560e+01	4.9202	21.528026	0.000345	3.445504	1.167368	-0.000138
 882	8.7659e+01	4.8833	21.382689	0.000365	3.648181	1.236037	-0.000146
 883	8.7759e+01	4.8480	21.261575	0.000304	3.040151	1.030031	-0.000122
 884	8.7859e+01	4.8031	21.079904	0.000456	4.560226	1.545046	-0.000183
 885	8.7958e+01	4.7646	20.930530	0.000375	3.749519	1.270371	-0.000150
 886	8.8058e+01	4.7261	20.837676	0.000233	2.330782	0.789690	-0.000093
 887	8.8157e+01	4.6892	20.672154	0.000415	4.154873	1.407709	-0.000166
 888	8.8257e+01	4.6378	20.547002	0.000314	3.141489	1.064365	-0.000126
 889	8.8356e+01	4.6074	20.345146	0.000507	5.066918	1.716718	-0.000203
 890	8.8456e+01	4.5689	20.219994	0.000314	3.141489	1.064365	-0.000126
 891	8.8555e+01	4.5304	20.078695	0.000355	3.546842	1.201703	-0.000142
 892	8.8654e+01	4.4919	19.965655	0.000284	2.837474	0.961362	-0.000114
 893	8.8754e+01	4.4437	19.775909	0.000476	4.762903	1.613715	-0.000191
 894	8.8853e+01	4.4052	19.666907	0.000274	2.736136	0.927028	-0.000110
 895	8.8953e+01	4.3699	19.473124	0.000486	4.864241	1.648049	-0.000195
 896	8.9052e+01	4.3298	19.380270	0.000233	2.330782	0.789690	-0.000093
 897	8.9152e+01	4.2817	19.202636	0.000446	4.458888	1.510712	-0.000179
 898	8.9251e+01	4.2480	19.089596	0.000284	2.837474	0.961362	-0.000114
 899	8.9351e+01	4.2063	18.928111	0.000405	4.053534	1.373375	-0.000162
 900	8.9451e+01	4.1630	18.794885	0.000334	3.344166	1.133034	-0.000134
 901	8.9550e+01	4.1341	18.625326	0.000426	4.256211	1.442043	-0.000170
 902	8.9650e+01	4.0876	18.484026	0.000355	3.546842	1.201703	-0.000142
 903	8.9749e+01	4.0475	18.330615	0.000385	3.850857	1.304706	-0.000154
 904	8.9849e+01	4.0010	18.189315	0.000355	3.546842	1.201703	-0.000142
 905	8.9948e+01	3.9657	18.039941	0.000375	3.749519	1.270371	-0.000150
 906	9.0047e+01	3.9288	17.902678	0.000345	3.445504	1.167368	-0.000138
 907	9.0147e+01	3.8855	17.757342	0.000365	3.648181	1.236037	-0.000146
 908	9.0246e+01	3.8486	17.599893	0.000395	3.952196	1.339040	-0.000158
 909	9.0346e+01	3.8149	17.474742	0.000314	3.141489	1.064365	-0.000126
 910	9.0445e+01	3.7683	17.305182	0.000426	4.256211	1.442043	-0.000170
 911	9.0545e+01	3.7347	17.147734	0.000395	3.952196	1.339040	-0.000158
 912	9.0644e+01	3.6897	17.026620	0.000304	3.040151	1.030031	-0.000122
 913	9.0744e+01	3.6448	16.889357	0.000345	3.445504	1.167368	-0.000138
 914	9.0844e+01	3.6095	16.715761	0.000436	4.357549	1.476378	-0.000174
 915	9.0943e+01	3.5630	16.546201	0.000426	4.256211	1.442043	-0.000170
 916	9.1043e+01	3.5277	16.412975	0.000334	3.344166	1.133034	-0.000134
 917	9.1142e+01	3.4956	16.255527	0.000395	3.952196	1.339040	-0.000158
 918	9.1242e+01	3.4395	16.098079	0.000395	3.952196	1.339040	-0.000158
 919	9.1341e+01	3.4010	15.968890	0.000324	3.242827	1.098700	-0.000130
 920	9.1441e+01	3.3657	15.811442	0.000395	3.952196	1.339040	-0.000158
 921	9.1540e+01	3.3304	15.686291	0.000314	3.141489	1.064365	-0.000126
 922	9.1639e+01	3.2807	15.512694	0.000436	4.357549	1.476378	-0.000174
 923	9.1739e+01	3.2438	15.375431	0.000345	3.445504	1.167368	-0.000138
 924	9.1838e+01	3.2133	15.222020	0.000385	3.850857	1.304706	-0.000154
 925	9.1938e+01	3.1684	15.096869	0.000314	3.141489	1.064365	-0.000126
 926	9.2037e+01	3.1315	14.963644	0.000334	3.344166	1.133034	-0.000134
 927	9.2137e+01	3.0785	14.790047	0.000436	4.357549	1.476378	-0.000174
 928	9.2237e+01	3.0529	14.636636	0.000385	3.850857	1.304706	-0.000154
 929	9.2336e+01	3.0176	14.463039	0.000436	4.357549	1.476378	-0.000174
 930	9.2436e+01	2.9678	14.297516	0.000415	4.154873	1.407709	-0.000166
 931	9.2535e+01	2.9293	14.164291	0.000334	3.344166	1.133034	-0.000134
 932	9.2635e+01	2.8892	14.043177	0.000304	3.040151	1.030031	-0.000122
 933	9.2734e+01	2.8379	13.845357	0.000497	4.965579	1.682384	-0.000199
 934	9.2834e+01	2.8122	13.708094	0.000345	3.445504	1.167368	-0.000138
 935	9.2933e+01	2.7721	13.578906	0.000324	3.242827	1.098700	-0.000130
 936	9.3032e+01	2.7272	13.437606	0.000355	3.546842	1.201703	-0.000142
 937	9.3132e+01	2.6871	13.259972	0.000446	4.458888	1.510712	-0.000179
 938	9.3231e+01	2.6486	13.122710	0.000345	3.445504	1.167368	-0.000138
 939	9.3331e+01	2.6085	12.949113	0.000436	4.357549	1.476378	-0.000174
 940	9.3430e+01	2.5796	12.807813	0.000355	3.546842	1.201703	-0.000142
 941	9.3530e+01	2.5235	12.666513	0.000355	3.546842	1.201703	-0.000142
 942	9.3629e+01	2.4914	12.521176	0.000365	3.648181	1.236037	-0.000146
 943	9.3729e+01	2.4481	12.363728	0.000395	3.952196	1.339040	-0.000158
 944	9.3829e+01	2.4096	12.222428	0.000355	3.546842	1.201703	-0.000142
 945	9.3928e+01	2.3775	12.081129	0.000355	3.546842	1.201703	-0.000142
 946	9.4028e+01	2.3342	11.919643	0.000405	4.053534	1.373375	-0.000162
 947	9.4127e+01	2.2941	11.758158	0.000405	4.053534	1.373375	-0.000162
 948	9.4227e+01	2.2556	11.633007	0.000314	3.141489	1.064365	-0.000126
 949	9.4326e+01	2.2138	11.447298	0.000466	4.661564	1.579381	-0.000187
 950	9.4425e+01	2.1657	11.305999	0.000355	3.546842	1.201703	-0.000142
 951	9.4525e+01	2.1368	11.156625	0.000375	3.749519	1.270371	-0.000150
 952	9.4624e+01	2.0983	11.039548	0.000294	2.938812	0.995697	-0.000118
 953	9.4724e+01	2.0663	10.865951	0.000436	4.357549	1.476378	-0.000174
 954	9.4823e+01	2.0133	10.732725	0.000334	3.344166	1.133034	-0.000134
 955	9.4923e+01	1.9796	10.522794	0.000527	5.269594	1.785387	-0.000211
 956	9.5022e+01	1.9395	10.417829	0.000263	2.634797	0.892693	-0.000105
 957	9.5122e+01	1.8866	10.264418	0.000385	3.850857	1.304706	-0.000154
 958	9.5222e+01	1.8593	10.159452	0.000263	2.634797	0.892693	-0.000105
 959	9.5321e+01	1.8256	9.985855	0.000436	4.357549	1.476378	-0.000174
 960	9.5421e+01	1.7695	9.816296	0.000426	4.256211	1.442043	-0.000170
 961	9.5520e+01	1.7278	9.650773	0.000415	4.154873	1.407709	-0.000166
 962	9.5620e+01	1.6973	9.497362	0.000385	3.850857	1.304706	-0.000154
 963	9.5719e+01	1.6556	9.364136	0.000334	3.344166	1.133034	-0.000134
 964	9.5819e+01	1.6203	9.182465	0.000456	4.560226	1.545046	-0.000183
 965	9.5918e+01	1.5705	9.057314	0.000314	3.141489	1.064365	-0.000126
 966	9.6017e+01	1.5369	8.887754	0.000426	4.256211	1.442043	-0.000170
 967	9.6117e+01	1.4984	8.734343	0.000385	3.850857	1.304706	-0.000154
 968	9.6216e+01	1.4518	8.572858	0.000405	4.053534	1.373375	-0.000162
 969	9.6316e+01	1.4149	8.415409	0.000395	3.952196	1.339040	-0.000158
 970	9.6415e+01	1.3764	8.286221	0.000324	3.242827	1.098700	-0.000130
 971	9.6515e+01	1.3363	8.100513	0.000466	4.661564	1.579381	-0.000187
 972	9.6615e+01	1.2962	7.939027	0.000405	4.053534	1.373375	-0.000162
 973	9.6714e+01	1.2641	7.789653	0.000375	3.749519	1.270371	-0.000150
 974	9.6814e+01	1.2128	7.628168	0.000405	4.053534	1.373375	-0.000162
 975	9.6913e+01	1.1775	7.482831	0.000365	3.648181	1.236037	-0.000146
 976	9.7013e+01	1.1374	7.377866	0.000263	2.634797	0.892693	-0.000105
 977	9.7112e+01	1.1053	7.143712	0.000588	5.877625	1.991393	-0.000235
 978	9.7212e+01	1.0636	6.978189	0.000415	4.154873	1.407709	-0.000166
 979	9.7311e+01	1.0123	6.832852	0.000365	3.648181	1.236037	-0.000146
 980	9.7410e+01	0.9818	6.687515	0.000365	3.648181	1.236037	-0.000146
 981	9.7510e+01	0.9337	6.558327	0.000324	3.242827	1.098700	-0.000130
 982	9.7609e+01	0.9016	6.380693	0.000446	4.458888	1.510712	-0.000179
 983	9.7709e+01	0.8599	6.223245	0.000395	3.952196	1.339040	-0.000158
 984	9.7808e+01	0.8198	6.049648	0.000436	4.357549	1.476378	-0.000174
 985	9.7908e+01	0.7748	5.900274	0.000375	3.749519	1.270371	-0.000150
 986	9.8007e+01	0.7379	5.750900	0.000375	3.749519	1.270371	-0.000150
 987	9.8107e+01	0.6994	5.585377	0.000415	4.154873	1.407709	-0.000166
 988	9.8207e+01	0.6625	5.468300	0.000294	2.938812	0.995697	-0.000118
 989	9.8306e+01	0.6144	5.250295	0.000547	5.472271	1.854056	-0.000219
 990	9.8406e+01	0.5695	5.108995	0.000355	3.546842	1.201703	-0.000142
 991	9.8505e+01	0.5470	4.979807	0.000324	3.242827	1.098700	-0.000130
 992	9.8605e+01	0.5005	4.850619	0.000324	3.242827	1.098700	-0.000130
 993	9.8704e+01	0.4652	4.636650	0.000537	5.370933	1.819721	-0.000215
 994	9.8803e+01	0.4283	4.503425	0.000334	3.344166	1.133034	-0.000134
 995	9.8903e+01	0.3802	4.337902	0.000415	4.154873	1.407709	-0.000166
 996	9.9002e+01	0.3369	4.192565	0.000365	3.648181	1.236037	-0.000146
 997	9.9102e+01	0.3000	4.067414	0.000314	3.141489	1.064365	-0.000126
 998	9.9201e+01	0.2663	3.889780	0.000446	4.458888	1.510712	-0.000179
 999	9.9301e+01	0.2214	3.704072	0.000466	4.661564	1.579381	-0.000187
1000	9.9400e+01	0.1909	3.562772	0.000355	3.546842	1.201703	-0.000142
1001	9.9500e+01	0.1396	3.381101	0.000456	4.560226	1.545046	-0.000183
1002	9.9600e+01	0.1027	3.259987	0.000304	3.040151	1.030031	-0.000122
1003	9.9699e+01	0.0578	3.078316	0.000456	4.560226	1.545046	-0.000183
1004	9.9799e+01	0.0209	2.916831	0.000405	4.053534	1.373375	-0.000162
1005	9.9898e+01	-0.0080	2.783605	0.000334	3.344166	1.133034	-0.000134
1006	9.9998e+01	-0.0545	2.666528	0.000294	2.938812	0.995697	-0.000118
1007	1.0010e+02	-0.0850	2.488894	0.000446	4.458888	1.510712	-0.000179
1008	1.0020e+02	-0.1299	2.335483	0.000385	3.850857	1.304706	-0.000154
1009	1.0030e+02	-0.1733	2.182072	0.000385	3.850857	1.304706	-0.000154
1010	1.0040e+02	-0.2053	2.044809	0.000345	3.445504	1.167368	-0.000138
1011	1.0050e+02	-0.2519	1.883324	0.000405	4.053534	1.373375	-0.000162
1012	1.0059e+02	-0.2888	1.713764	0.000426	4.256211	1.442043	-0.000170
1013	1.0069e+02	-0.3353	1.564390	0.000375	3.749519	1.270371	-0.000150
1014	1.0079e+02	-0.3706	1.415016	0.000375	3.749519	1.270371	-0.000150
1015	1.0089e+02	-0.4059	1.273716	0.000355	3.546842	1.201703	-0.000142
1016	1.0099e+02	-0.4492	1.100119	0.000436	4.357549	1.476378	-0.000174
1017	1.0109e+02	-0.4845	0.958820	0.000355	3.546842	1.201703	-0.000142
1018	1.0119e+02	-0.5198	0.785223	0.000436	4.357549	1.476378	-0.000174
1019	1.0129e+02	-0.5599	0.623737	0.000405	4.053534	1.373375	-0.000162
1020	1.0139e+02	-0.5984	0.474363	0.000375	3.749519	1.270371	-0.000150
1021	1.0149e+02	-0.6529	0.300767	0.000436	4.357549	1.476378	-0.000174
1022	1.0159e+02	-0.6834	0.175615	0.000314	3.141489	1.064365	-0.000126
1023	1.0169e+02	-0.7267	0.018167	0.000395	3.952196	1.339040	-0.000158
1024	1.0179e+02	-0.7748	-0.131207	0.000375	3.749519	1.270371	-0.000150
1025	1.0189e+02	-0.8021	-0.292692	0.000405	4.053534	1.373375	-0.000162
1026	1.0199e+02	-0.8454	-0.466289	0.000436	4.357549	1.476378	-0.000174
1027	1.0209e+02	-0.8823	-0.571255	0.000263	2.634797	0.892693	-0.000105
1028	1.0219e+02	-0.9272	-0.785223	0.000537	5.370933	1.819721	-0.000215
1029	1.0229e+02	-0.9657	-0.942671	0.000395	3.952196	1.339040	-0.000158
1030	1.0239e+02	-1.0091	-1.079934	0.000345	3.445504	1.167368	-0.000138
1031	1.0248e+02	-1.0540	-1.233345	0.000385	3.850857	1.304706	-0.000154
1032	1.0258e+02	-1.0877	-1.419053	0.000466	4.661564	1.579381	-0.000187
1033	1.0268e+02	-1.1278	-1.576502	0.000395	3.952196	1.339040	-0.000158
1034	1.0278e+02	-1.1791	-1.758173	0.000456	4.560226	1.545046	-0.000183
1035	1.0288e+02	-1.2064	-1.919658	0.000405	4.053534	1.373375	-0.000162
1036	1.0298e+02	-1.2465	-2.044809	0.000314	3.141489	1.064365	-0.000126
1037	1.0308e+02	-1.2818	-2.149775	0.000263	2.634797	0.892693	-0.000105
1038	1.0318e+02	-1.3235	-2.335483	0.000466	4.661564	1.579381	-0.000187
1039	1.0328e+02	-1.3668	-2.537340	0.000507	5.066918	1.716718	-0.000203
1040	1.0338e+02	-1.4037	-2.682677	0.000365	3.648181	1.236037	-0.000146
1041	1.0348e+02	-1.4454	-2.832051	0.000375	3.749519	1.270371	-0.000150
1042	1.0358e+02	-1.4935	-2.993536	0.000405	4.053534	1.373375	-0.000162
1043	1.0368e+02	-1.5272	-3.138873	0.000365	3.648181	1.236037	-0.000146
1044	1.0378e+02	-1.5657	-3.296321	0.000395	3.952196	1.339040	-0.000158
1045	1.0388e+02	-1.6010	-3.453770	0.000395	3.952196	1.339040	-0.000158
1046	1.0398e+02	-1.6492	-3.603144	0.000375	3.749519	1.270371	-0.000150
1047	1.0408e+02	-1.6909	-3.788852	0.000466	4.661564	1.579381	-0.000187
1048	1.0418e+02	-1.7262	-3.922077	0.000334	3.344166	1.133034	-0.000134
1049	1.0428e+02	-1.7759	-4.047229	0.000314	3.141489	1.064365	-0.000126
1050	1.0438e+02	-1.8032	-4.220825	0.000436	4.357549	1.476378	-0.000174
1051	1.0447e+02	-1.8497	-4.337902	0.000294	2.938812	0.995697	-0.000118
1052	1.0457e+02	-1.8866	-4.515536	0.000446	4.458888	1.510712	-0.000179
1053	1.0467e+02	-1.9235	-4.656836	0.000355	3.546842	1.201703	-0.000142
1054	1.0477e+02	-1.9636	-4.826396	0.000426	4.256211	1.442043	-0.000170
1055	1.0487e+02	-2.0085	-5.004030	0.000446	4.458888	1.510712	-0.000179
1056	1.0497e+02	-2.0422	-5.121107	0.000294	2.938812	0.995697	-0.000118
1057	1.0507e+02	-2.0855	-5.262406	0.000355	3.546842	1.201703	-0.000142
1058	1.0517e+02	-2.1224	-5.407743	0.000365	3.648181	1.236037	-0.000146
1059	1.0527e+02	-2.1593	-5.561154	0.000385	3.850857	1.304706	-0.000154
1060	1.0537e+02	-2.2122	-5.714566	0.000385	3.850857	1.304706	-0.000154
1061	1.0547e+02	-2.2395	-5.884125	0.000426	4.256211	1.442043	-0.000170
1062	1.0557e+02	-2.2796	-6.025425	0.000355	3.546842	1.201703	-0.000142
1063	1.0567e+02	-2.3213	-6.170762	0.000365	3.648181	1.236037	-0.000146
1064	1.0577e+02	-2.3678	-6.340322	0.000426	4.256211	1.442043	-0.000170
1065	1.0587e+02	-2.4015	-6.493733	0.000385	3.850857	1.304706	-0.000154
1066	1.0597e+02	-2.4465	-6.647144	0.000385	3.850857	1.304706	-0.000154
1067	1.0607e+02	-2.4801	-6.772295	0.000314	3.141489	1.064365	-0.000126
1068	1.0617e+02	-2.5251	-6.974152	0.000507	5.066918	1.716718	-0.000203
1069	1.0627e+02	-2.5604	-7.079118	0.000263	2.634797	0.892693	-0.000105
1070	1.0637e+02	-2.6005	-7.260789	0.000456	4.560226	1.545046	-0.000183
1071	1.0647e+02	-2.6374	-7.406126	0.000365	3.648181	1.236037	-0.000146
1072	1.0656e+02	-2.6871	-7.551462	0.000365	3.648181	1.236037	-0.000146
1073	1.0666e+02	-2.7176	-7.684688	0.000334	3.344166	1.133034	-0.000134
1074	1.0676e+02	-2.7657	-7.846173	0.000405	4.053534	1.373375	-0.000162
1075	1.0686e+02	-2.7978	-7.995547	0.000375	3.749519	1.270371	-0.000150
1076	1.0696e+02	-2.8507	-8.132810	0.000345	3.445504	1.167368	-0.000138
1077	1.0706e+02	-2.8812	-8.294295	0.000405	4.053534	1.373375	-0.000162
1078	1.0716e+02	-2.9197	-8.475966	0.000456	4.560226	1.545046	-0.000183
1079	1.0726e+02	-2.9598	-8.661675	0.000466	4.661564	1.579381	-0.000187
1080	1.0736e+02	-2.9983	-8.774715	0.000284	2.837474	0.961362	-0.000114
1081	1.0746e+02	-3.0384	-8.924089	0.000375	3.749519	1.270371	-0.000150
1082	1.0756e+02	-3.0721	-9.089611	0.000415	4.154873	1.407709	-0.000166
1083	1.0766e+02	-3.1218	-9.206688	0.000294	2.938812	0.995697	-0.000118
1084	1.0776e+02	-3.1555	-9.352025	0.000365	3.648181	1.236037	-0.000146
1085	1.0786e+02	-3.1956	-9.533696	0.000456	4.560226	1.545046	-0.000183
1086	1.0796e+02	-3.2357	-9.650773	0.000294	2.938812	0.995697	-0.000118
1087	1.0806e+02	-3.2791	-9.816296	0.000415	4.154873	1.407709	-0.000166
1088	1.0816e+02	-3.3176	-9.981818	0.000415	4.154873	1.407709	-0.000166
1089	1.0826e+02	-3.3641	-10.106969	0.000314	3.141489	1.064365	-0.000126
1090	1.0836e+02	-3.3978	-10.272492	0.000415	4.154873	1.407709	-0.000166
1091	1.0845e+02	-3.4443	-10.442052	0.000426	4.256211	1.442043	-0.000170
1092	1.0855e+02	-3.4812	-10.547017	0.000263	2.634797	0.892693	-0.000105
1093	1.0865e+02	-3.5245	-10.736762	0.000476	4.762903	1.613715	-0.000191
1094	1.0875e+02	-3.5598	-10.906322	0.000426	4.256211	1.442043	-0.000170
1095	1.0885e+02	-3.6015	-11.039548	0.000334	3.344166	1.133034	-0.000134
1096	1.0895e+02	-3.6432	-11.172773	0.000334	3.344166	1.133034	-0.000134
1097	1.0905e+02	-3.6817	-11.350407	0.000446	4.458888	1.510712	-0.000179
1098	1.0915e+02	-3.7090	-11.483633	0.000334	3.344166	1.133034	-0.000134
1099	1.0925e+02	-3.7603	-11.596672	0.000284	2.837474	0.961362	-0.000114
1100	1.0935e+02	-3.7940	-11.786418	0.000476	4.762903	1.613715	-0.000191
1101	1.0945e+02	-3.8309	-11.943866	0.000395	3.952196	1.339040	-0.000158
1102	1.0955e+02	-3.8774	-12.077092	0.000334	3.344166	1.133034	-0.000134
1103	1.0965e+02	-3.9207	-12.242614	0.000415	4.154873	1.407709	-0.000166
1104	1.0975e+02	-3.9576	-12.347580	0.000263	2.634797	0.892693	-0.000105
1105	1.0985e+02	-3.9961	-12.533288	0.000466	4.661564	1.579381	-0.000187
1106	1.0995e+02	-4.0362	-12.694773	0.000405	4.053534	1.373375	-0.000162
1107	1.1005e+02	-4.0748	-12.787627	0.000233	2.330782	0.789690	-0.000093
1108	1.1015e+02	-4.1229	-12.977373	0.000476	4.762903	1.613715	-0.000191
1109	1.1025e+02	-4.1566	-13.106561	0.000324	3.242827	1.098700	-0.000130
1110	1.1035e+02	-4.1935	-13.272084	0.000415	4.154873	1.407709	-0.000166
1111	1.1044e+02	-4.2368	-13.441643	0.000426	4.256211	1.442043	-0.000170
1112	1.1054e+02	-4.2737	-13.558720	0.000294	2.938812	0.995697	-0.000118
1113	1.1064e+02	-4.3122	-13.712132	0.000385	3.850857	1.304706	-0.000154
1114	1.1074e+02	-4.3555	-13.857468	0.000365	3.648181	1.236037	-0.000146
1115	1.1084e+02	-4.4036	-14.018954	0.000405	4.053534	1.373375	-0.000162
1116	1.1094e+02	-4.4309	-14.188514	0.000426	4.256211	1.442043	-0.000170
1117	1.1104e+02	-4.4758	-14.325776	0.000345	3.445504	1.167368	-0.000138
1118	1.1114e+02	-4.5095	-14.422667	0.000243	2.432121	0.824025	-0.000097
1119	1.1124e+02	-4.5592	-14.600301	0.000446	4.458888	1.510712	-0.000179
1120	1.1134e+02	-4.5881	-14.729490	0.000324	3.242827	1.098700	-0.000130
1121	1.1144e+02	-4.6250	-14.895012	0.000415	4.154873	1.407709	-0.000166
1122	1.1154e+02	-4.6795	-15.056498	0.000405	4.053534	1.373375	-0.000162
1123	1.1164e+02	-4.7100	-15.189723	0.000334	3.344166	1.133034	-0.000134
1124	1.1174e+02	-4.7549	-15.302763	0.000284	2.837474	0.961362	-0.000114
1125	1.1184e+02	-4.7886	-15.464248	0.000405	4.053534	1.373375	-0.000162
1126	1.1194e+02	-4.8448	-15.662068	0.000497	4.965579	1.682384	-0.000199
1127	1.1204e+02	-4.8656	-15.807405	0.000365	3.648181	1.236037	-0.000146
1128	1.1214e+02	-4.9170	-15.964853	0.000395	3.952196	1.339040	-0.000158
1129	1.1224e+02	-4.9475	-16.057707	0.000233	2.330782	0.789690	-0.000093
1130	1.1234e+02	-4.9924	-16.227267	0.000426	4.256211	1.442043	-0.000170
1131	1.1244e+02	-5.0389	-16.360493	0.000334	3.344166	1.133034	-0.000134
1132	1.1253e+02	-5.0774	-16.526015	0.000415	4.154873	1.407709	-0.000166
1133	1.1263e+02	-5.1239	-16.655203	0.000324	3.242827	1.098700	-0.000130
1134	1.1273e+02	-5.1608	-16.812652	0.000395	3.952196	1.339040	-0.000158
1135	1.1283e+02	-5.1897	-16.953952	0.000355	3.546842	1.201703	-0.000142
1136	1.1293e+02	-5.2474	-17.091214	0.000345	3.445504	1.167368	-0.000138
1137	1.1303e+02	-5.2779	-17.256737	0.000415	4.154873	1.407709	-0.000166
1138	1.1313e+02	-5.3116	-17.414185	0.000395	3.952196	1.339040	-0.000158
1139	1.1323e+02	-5.3565	-17.579708	0.000415	4.154873	1.407709	-0.000166
1140	1.1333e+02	-5.3934	-17.733119	0.000385	3.850857	1.304706	-0.000154
1141	1.1343e+02	-5.4319	-17.894604	0.000405	4.053534	1.373375	-0.000162
1142	1.1353e+02	-5.4720	-17.971310	0.000193	1.925429	0.652353	-0.000077
1143	1.1363e+02	-5.5170	-18.161055	0.000476	4.762903	1.613715	-0.000191
1144	1.1373e+02	-5.5522	-18.322541	0.000405	4.053534	1.373375	-0.000162
1145	1.1383e+02	-5.6004	-18.447692	0.000314	3.141489	1.064365	-0.000126
1146	1.1393e+02	-5.6260	-18.617251	0.000426	4.256211	1.442043	-0.000170
1147	1.1403e+02	-5.6678	-18.750477	0.000334	3.344166	1.133034	-0.000134
1148	1.1413e+02	-5.7063	-18.891777	0.000355	3.546842	1.201703	-0.000142
1149	1.1423e+02	-5.7560	-19.049225	0.000395	3.952196	1.339040	-0.000158
1150	1.1433e+02	-5.7849	-19.158228	0.000274	2.736136	0.927028	-0.000110
1151	1.1442e+02	-5.8266	-19.372196	0.000537	5.370933	1.819721	-0.000215
1152	1.1452e+02	-5.8667	-19.505421	0.000334	3.344166	1.133034	-0.000134
1153	1.1462e+02	-5.9100	-19.614424	0.000274	2.736136	0.927028	-0.000110
1154	1.1472e+02	-5.9533	-19.763798	0.000375	3.749519	1.270371	-0.000150
1155	1.1482e+02	-5.9918	-19.909135	0.000365	3.648181	1.236037	-0.000146
1156	1.1492e+02	-6.0335	-20.062546	0.000385	3.850857	1.304706	-0.000154
1157	1.1502e+02	-6.0672	-20.244217	0.000456	4.560226	1.545046	-0.000183
1158	1.1512e+02	-6.1137	-20.357257	0.000284	2.837474	0.961362	-0.000114
1159	1.1522e+02	-6.1570	-20.498557	0.000355	3.546842	1.201703	-0.000142
1160	1.1532e+02	-6.1939	-20.680228	0.000456	4.560226	1.545046	-0.000183
1161	1.1542e+02	-6.2308	-20.813453	0.000334	3.344166	1.133034	-0.000134
1162	1.1552e+02	-6.2758	-20.983013	0.000426	4.256211	1.442043	-0.000170
1163	1.1562e+02	-6.3143	-21.092016	0.000274	2.736136	0.927028	-0.000110
1164	1.1572e+02	-6.3512	-21.257538	0.000415	4.154873	1.407709	-0.000166
1165	1.1582e+02	-6.3848	-21.390764	0.000334	3.344166	1.133034	-0.000134
1166	1.1592e+02	-6.4217	-21.560323	0.000426	4.256211	1.442043	-0.000170
1167	1.1602e+02	-6.4699	-21.657215	0.000243	2.432121	0.824025	-0.000097
1168	1.1612e+02	-6.5068	-21.778329	0.000304	3.040151	1.030031	-0.000122
1169	1.1622e+02	-6.5501	-21.968074	0.000476	4.762903	1.613715	-0.000191
1170	1.1632e+02	-6.5870	-22.101300	0.000334	3.344166	1.133034	-0.000134
1171	1.1642e+02	-6.6287	-22.222414	0.000304	3.040151	1.030031	-0.000122
1172	1.1651e+02	-6.6592	-22.383899	0.000405	4.053534	1.373375	-0.000162
1173	1.1661e+02	-6.6977	-22.517125	0.000334	3.344166	1.133034	-0.000134
1174	1.1671e+02	-6.7474	-22.658424	0.000355	3.546842	1.201703	-0.000142
1175	1.1681e+02	-6.7827	-22.860281	0.000507	5.066918	1.716718	-0.000203
1176	1.1691e+02	-6.8196	-22.973321	0.000284	2.837474	0.961362	-0.000114
1177	1.1701e+02	-6.8613	-23.098472	0.000314	3.141489	1.064365	-0.000126
1178	1.1711e+02	-6.8982	-23.255920	0.000395	3.952196	1.339040	-0.000158
1179	1.1721e+02	-6.9527	-23.389146	0.000334	3.344166	1.133034	-0.000134
1180	1.1731e+02	-6.9880	-23.542557	0.000385	3.850857	1.304706	-0.000154
1181	1.1741e+02	-7.0169	-23.655597	0.000284	2.837474	0.961362	-0.000114
1182	1.1751e+02	-7.0634	-23.821119	0.000415	4.154873	1.407709	-0.000166
1183	1.1761e+02	-7.1084	-23.966456	0.000365	3.648181	1.236037	-0.000146
1184	1.1771e+02	-7.1485	-24.107756	0.000355	3.546842	1.201703	-0.000142
1185	1.1781e+02	-7.1918	-24.245019	0.000345	3.445504	1.167368	-0.000138
1186	1.1791e+02	-7.2223	-24.386318	0.000355	3.546842	1.201703	-0.000142
1187	1.1801e+02	-7.2624	-24.503395	0.000294	2.938812	0.995697	-0.000118
1188	1.1811e+02	-7.2993	-24.644695	0.000355	3.546842	1.201703	-0.000142
1189	1.1821e+02	-7.3394	-24.790032	0.000365	3.648181	1.236037	-0.000146
1190	1.1831e+02	-7.3827	-24.947480	0.000395	3.952196	1.339040	-0.000158
1191	1.1841e+02	-7.4276	-25.088780	0.000355	3.546842	1.201703	-0.000142
1192	1.1850e+02	-7.4613	-25.246228	0.000395	3.952196	1.339040	-0.000158
1193	1.1860e+02	-7.4966	-25.387528	0.000355	3.546842	1.201703	-0.000142
1194	1.1870e+02	-7.5415	-25.520754	0.000334	3.344166	1.133034	-0.000134
1195	1.1880e+02	-7.5832	-25.633793	0.000284	2.837474	0.961362	-0.000114
1196	1.1890e+02	-7.6233	-25.803353	0.000426	4.256211	1.442043	-0.000170
1197	1.1900e+02	-7.6618	-25.960801	0.000395	3.952196	1.339040	-0.000158
1198	1.1910e+02	-7.6971	-26.089990	0.000324	3.242827	1.098700	-0.000130
1199	1.1920e+02	-7.7388	-26.219178	0.000324	3.242827	1.098700	-0.000130
1200	1.1930e+02	-7.7773	-26.372589	0.000385	3.850857	1.304706	-0.000154
1201	1.1940e+02	-7.8206	-26.538112	0.000415	4.154873	1.407709	-0.000166
1202	1.1950e+02	-7.8607	-26.651152	0.000284	2.837474	0.961362	-0.000114
1203	1.1960e+02	-7.8960	-26.836860	0.000466	4.661564	1.579381	-0.000187
1204	1.1970e+02	-7.9426	-26.986234	0.000375	3.749519	1.270371	-0.000150
1205	1.1980e+02	-7.9827	-27.066977	0.000203	2.026767	0.686687	-0.000081
1206	1.1990e+02	-8.0196	-27.252685	0.000466	4.661564	1.579381	-0.000187
1207	1.2000e+02	-8.0613	-27.410133	0.000395	3.952196	1.339040	-0.000158
1208	1.2010e+02	-8.1046	-27.507024	0.000243	2.432121	0.824025	-0.000097
1209	1.2020e+02	-8.1447	-27.680621	0.000436	4.357549	1.476378	-0.000174
1210	1.2030e+02	-8.1848	-27.789624	0.000274	2.736136	0.927028	-0.000110
1211	1.2039e+02	-8.2185	-27.979369	0.000476	4.762903	1.613715	-0.000191
1212	1.2049e+02	-8.2506	-28.092409	0.000284	2.837474	0.961362	-0.000114
1213	1.2059e+02	-8.2987	-28.169115	0.000193	1.925429	0.652353	-0.000077
1214	1.2069e+02	-8.3420	-28.330600	0.000405	4.053534	1.373375	-0.000162
1215	1.2079e+02	-8.3821	-28.512271	0.000456	4.560226	1.545046	-0.000183
1216	1.2089e+02	-8.4158	-28.665682	0.000385	3.850857	1.304706	-0.000154
1217	1.2099e+02	-8.4479	-28.766611	0.000253	2.533459	0.858359	-0.000101
1218	1.2109e+02	-8.4944	-28.899836	0.000334	3.344166	1.133034	-0.000134
1219	1.2119e+02	-8.5425	-29.057284	0.000395	3.952196	1.339040	-0.000158
1220	1.2129e+02	-8.5842	-29.186473	0.000324	3.242827	1.098700	-0.000130
1221	1.2139e+02	-8.6163	-29.303550	0.000294	2.938812	0.995697	-0.000118
1222	1.2149e+02	-8.6548	-29.460998	0.000395	3.952196	1.339040	-0.000158
1223	1.2159e+02	-8.6982	-29.610372	0.000375	3.749519	1.270371	-0.000150
1224	1.2169e+02	-8.7399	-29.715338	0.000263	2.634797	0.892693	-0.000105
1225	1.2179e+02	-8.7832	-29.812229	0.000243	2.432121	0.824025	-0.000097
1226	1.2189e+02	-8.8104	-29.977751	0.000415	4.154873	1.407709	-0.000166
1227	1.2199e+02	-8.8538	-30.155385	0.000446	4.458888	1.510712	-0.000179
1228	1.2209e+02	-8.8955	-30.252277	0.000243	2.432121	0.824025	-0.000097
1229	1.2219e+02	-8.9324	-30.405688	0.000385	3.850857	1.304706	-0.000154
1230	1.2229e+02	-8.9805	-30.538913	0.000334	3.344166	1.133034	-0.000134
1231	1.2239e+02	-9.0142	-30.660027	0.000304	3.040151	1.030031	-0.000122
1232	1.2248e+02	-9.0575	-30.785179	0.000314	3.141489	1.064365	-0.000126
1233	1.2258e+02	-9.0976	-30.942627	0.000395	3.952196	1.339040	-0.000158
1234	1.2268e+02	-9.1265	-31.063741	0.000304	3.040151	1.030031	-0.000122
1235	1.2278e+02	-9.1778	-31.209078	0.000365	3.648181	1.236037	-0.000146
1236	1.2288e+02	-9.2099	-31.334229	0.000314	3.141489	1.064365	-0.000126
1237	1.2298e+02	-9.2516	-31.471492	0.000345	3.445504	1.167368	-0.000138
1238	1.2308e+02	-9.2949	-31.616829	0.000365	3.648181	1.236037	-0.000146
1239	1.2318e+02	-9.3431	-31.729868	0.000284	2.837474	0.961362	-0.000114
1240	1.2328e+02	-9.3751	-31.867131	0.000345	3.445504	1.167368	-0.000138
1241	1.2338e+02	-9.4152	-32.020542	0.000385	3.850857	1.304706	-0.000154
1242	1.2348e+02	-9.4553	-32.153768	0.000334	3.344166	1.133034	-0.000134
1243	1.2358e+02	-9.4938	-32.282956	0.000324	3.242827	1.098700	-0.000130
1244	1.2368e+02	-9.5307	-32.408107	0.000314	3.141489	1.064365	-0.000126
1245	1.2378e+02	-9.5660	-32.573630	0.000415	4.154873	1.407709	-0.000166
1246	1.2388e+02	-9.6158	-32.702818	0.000324	3.242827	1.098700	-0.000130
1247	1.2398e+02	-9.6479	-32.844118	0.000355	3.546842	1.201703	-0.000142
1248	1.2408e+02	-9.6912	-32.965232	0.000304	3.040151	1.030031	-0.000122
1249	1.2418e+02	-9.7377	-33.102494	0.000345	3.445504	1.167368	-0.000138
1250	1.2428e+02	-9.7730	-33.259943	0.000395	3.952196	1.339040	-0.000158
1251	1.2438e+02	-9.8099	-33.389131	0.000324	3.242827	1.098700	-0.000130
1252	1.2447e+02	-9.8468	-33.486022	0.000243	2.432121	0.824025	-0.000097
1253	1.2457e+02	-9.8949	-33.659619	0.000436	4.357549	1.476378	-0.000174
1254	1.2467e+02	-9.9318	-33.780733	0.000304	3.040151	1.030031	-0.000122
1255	1.2477e+02	-9.9751	-33.913959	0.000334	3.344166	1.133034	-0.000134
1256	1.2487e+02	-10.0072	-34.039110	0.000314	3.141489	1.064365	-0.000126
1257	1.2497e+02	-10.0569	-34.184447	0.000365	3.648181	1.236037	-0.000146
1258	1.2507e+02	-10.0986	-34.301524	0.000294	2.938812	0.995697	-0.000118
1259	1.2517e+02	-10.1355	-34.467046	0.000415	4.154873	1.407709	-0.000166
1260	1.2527e+02	-10.1724	-34.608346	0.000355	3.546842	1.201703	-0.000142
1261	1.2537e+02	-10.2142	-34.681015	0.000182	1.824090	0.618019	-0.000073
1262	1.2547e+02	-10.2543	-34.858649	0.000446	4.458888	1.510712	-0.000179
1263	1.2557e+02	-10.2960	-35.036283	0.000446	4.458888	1.510712	-0.000179
1264	1.2567e+02	-10.3264	-35.137211	0.000253	2.533459	0.858359	-0.000101
1265	1.2577e+02	-10.3762	-35.250251	0.000284	2.837474	0.961362	-0.000114
1266	1.2587e+02	-10.4147	-35.399625	0.000375	3.749519	1.270371	-0.000150
1267	1.2597e+02	-10.4516	-35.544962	0.000365	3.648181	1.236037	-0.000146
1268	1.2607e+02	-10.4885	-35.670113	0.000314	3.141489	1.064365	-0.000126
1269	1.2617e+02	-10.5286	-35.807375	0.000345	3.445504	1.167368	-0.000138
1270	1.2627e+02	-10.5687	-35.928490	0.000304	3.040151	1.030031	-0.000122
1271	1.2636e+02	-10.6088	-36.073826	0.000365	3.648181	1.236037	-0.000146
1272	1.2646e+02	-10.6569	-36.194940	0.000304	3.040151	1.030031	-0.000122
1273	1.2656e+02	-10.6906	-36.368537	0.000436	4.357549	1.476378	-0.000174
1274	1.2666e+02	-10.7307	-36.445243	0.000193	1.925429	0.652353	-0.000077
1275	1.2676e+02	-10.7756	-36.566357	0.000304	3.040151	1.030031	-0.000122
1276	1.2686e+02	-10.8045	-36.727842	0.000405	4.053534	1.373375	-0.000162
1277	1.2696e+02	-10.8526	-36.844919	0.000294	2.938812	0.995697	-0.000118
1278	1.2706e+02	-10.8831	-36.990256	0.000365	3.648181	1.236037	-0.000146
1279	1.2716e+02	-10.9280	-37.099259	0.000274	2.736136	0.927028	-0.000110
1280	1.2726e+02	-10.9681	-37.244596	0.000365	3.648181	1.236037	-0.000146
1281	1.2736e+02	-11.0034	-37.385896	0.000355	3.546842	1.201703	-0.000142
1282	1.2746e+02	-11.0419	-37.539307	0.000385	3.850857	1.304706	-0.000154
1283	1.2756e+02	-11.0836	-37.624087	0.000213	2.128105	0.721022	-0.000085
1284	1.2766e+02	-11.1254	-37.765386	0.000355	3.546842	1.201703	-0.000142
1285	1.2776e+02	-11.1767	-37.926872	0.000405	4.053534	1.373375	-0.000162
1286	1.2786e+02	-11.2088	-38.064134	0.000345	3.445504	1.167368	-0.000138
1287	1.2796e+02	-11.2457	-38.136803	0.000182	1.824090	0.618019	-0.000073
1288	1.2806e+02	-11.2826	-38.310400	0.000436	4.357549	1.476378	-0.000174
1289	1.2816e+02	-11.3275	-38.403254	0.000233	2.330782	0.789690	-0.000093
1290	1.2826e+02	-11.3628	-38.540516	0.000345	3.445504	1.167368	-0.000138
1291	1.2835e+02	-11.4189	-38.693927	0.000385	3.850857	1.304706	-0.000154
1292	1.2845e+02	-11.4446	-38.831190	0.000345	3.445504	1.167368	-0.000138
1293	1.2855e+02	-11.4847	-38.924044	0.000233	2.330782	0.789690	-0.000093
1294	1.2865e+02	-11.5184	-39.069381	0.000365	3.648181	1.236037	-0.000146
1295	1.2875e+02	-11.5745	-39.218755	0.000375	3.749519	1.270371	-0.000150
1296	1.2885e+02	-11.5970	-39.360055	0.000355	3.546842	1.201703	-0.000142
1297	1.2895e+02	-11.6564	-39.452909	0.000233	2.330782	0.789690	-0.000093
1298	1.2905e+02	-11.6772	-39.594209	0.000355	3.546842	1.201703	-0.000142
1299	1.2915e+02	-11.7205	-39.735509	0.000355	3.546842	1.201703	-0.000142
1300	1.2925e+02	-11.7558	-39.856623	0.000304	3.040151	1.030031	-0.000122
1301	1.2935e+02	-11.8072	-40.005997	0.000375	3.749519	1.270371	-0.000150
1302	1.2945e+02	-11.8473	-40.139222	0.000334	3.344166	1.133034	-0.000134
1303	1.2955e+02	-11.8970	-40.280522	0.000355	3.546842	1.201703	-0.000142
1304	1.2965e+02	-11.9259	-40.425859	0.000365	3.648181	1.236037	-0.000146
1305	1.2975e+02	-11.9644	-40.559084	0.000334	3.344166	1.133034	-0.000134
1306	1.2985e+02	-12.0061	-40.712495	0.000385	3.850857	1.304706	-0.000154
1307	1.2995e+02	-12.0366	-40.817461	0.000263	2.634797	0.892693	-0.000105
1308	1.3005e+02	-12.0927	-40.922426	0.000263	2.634797	0.892693	-0.000105
1309	1.3015e+02	-12.1280	-41.083912	0.000405	4.053534	1.373375	-0.000162
1310	1.3025e+02	-12.1601	-41.213100	0.000324	3.242827	1.098700	-0.000130
1311	1.3034e+02	-12.2002	-41.390734	0.000446	4.458888	1.510712	-0.000179
1312	1.3044e+02	-12.2547	-41.475514	0.000213	2.128105	0.721022	-0.000085
1313	1.3054e+02	-12.2804	-41.620851	0.000365	3.648181	1.236037	-0.000146
1314	1.3064e+02	-12.3269	-41.721779	0.000253	2.533459	0.858359	-0.000101
1315	1.3074e+02	-12.3686	-41.891339	0.000426	4.256211	1.442043	-0.000170
1316	1.3084e+02	-12.3991	-42.016490	0.000314	3.141489	1.064365	-0.000126
1317	1.3094e+02	-12.4392	-42.129530	0.000284	2.837474	0.961362	-0.000114
1318	1.3104e+02	-12.4825	-42.291015	0.000405	4.053534	1.373375	-0.000162
1319	1.3114e+02	-12.5226	-42.387907	0.000243	2.432121	0.824025	-0.000097
1320	1.3124e+02	-12.5595	-42.549392	0.000405	4.053534	1.373375	-0.000162
1321	1.3134e+02	-12.5996	-42.642246	0.000233	2.330782	0.789690	-0.000093
1322	1.3144e+02	-12.6446	-42.783546	0.000355	3.546842	1.201703	-0.000142
1323	1.3154e+02	-12.6863	-42.908697	0.000314	3.141489	1.064365	-0.000126
1324	1.3164e+02	-12.7184	-43.066145	0.000395	3.952196	1.339040	-0.000158
1325	1.3174e+02	-12.7569	-43.219557	0.000385	3.850857	1.304706	-0.000154
1326	1.3184e+02	-12.8066	-43.336634	0.000294	2.938812	0.995697	-0.000118
1327	1.3194e+02	-12.8355	-43.409302	0.000182	1.824090	0.618019	-0.000073
1328	1.3204e+02	-12.8836	-43.595010	0.000466	4.661564	1.579381	-0.000187
1329	1.3214e+02	-12.9253	-43.695939	0.000253	2.533459	0.858359	-0.000101
1330	1.3224e+02	-12.9654	-43.857424	0.000405	4.053534	1.373375	-0.000162
1331	1.3234e+02	-13.0055	-44.018910	0.000405	4.053534	1.373375	-0.000162
1332	1.3243e+02	-13.0328	-44.091578	0.000182	1.824090	0.618019	-0.000073
1333	1.3253e+02	-13.0793	-44.236915	0.000365	3.648181	1.236037	-0.000146
1334	1.3263e+02	-13.1210	-44.366103	0.000324	3.242827	1.098700	-0.000130
1335	1.3273e+02	-13.1531	-44.487217	0.000304	3.040151	1.030031	-0.000122
1336	1.3283e+02	-13.1916	-44.656777	0.000426	4.256211	1.442043	-0.000170
1337	1.3293e+02	-13.2349	-44.749631	0.000233	2.330782	0.789690	-0.000093
1338	1.3303e+02	-13.2766	-44.858634	0.000274	2.736136	0.927028	-0.000110
1339	1.3313e+02	-13.3135	-45.040305	0.000456	4.560226	1.545046	-0.000183
1340	1.3323e+02	-13.3472	-45.129122	0.000223	2.229444	0.755356	-0.000089
1341	1.3333e+02	-13.4082	-45.258310	0.000324	3.242827	1.098700	-0.000130
1342	1.3343e+02	-13.4258	-45.399610	0.000355	3.546842	1.201703	-0.000142
1343	1.3353e+02	-13.4740	-45.544947	0.000365	3.648181	1.236037	-0.000146
1344	1.3363e+02	-13.5173	-45.653949	0.000274	2.736136	0.927028	-0.000110
1345	1.3373e+02	-13.5558	-45.799286	0.000365	3.648181	1.236037	-0.000146
1346	1.3383e+02	-13.5927	-45.875992	0.000193	1.925429	0.652353	-0.000077
1347	1.3393e+02	-13.6360	-46.057663	0.000456	4.560226	1.545046	-0.000183
1348	1.3403e+02	-13.6825	-46.174740	0.000294	2.938812	0.995697	-0.000118
1349	1.3413e+02	-13.7098	-46.316040	0.000355	3.546842	1.201703	-0.000142
1350	1.3423e+02	-13.7563	-46.388708	0.000182	1.824090	0.618019	-0.000073
1351	1.3432e+02	-13.7964	-46.546156	0.000395	3.952196	1.339040	-0.000158
1352	1.3442e+02	-13.8461	-46.679382	0.000334	3.344166	1.133034	-0.000134
1353	1.3452e+02	-13.8734	-46.820682	0.000355	3.546842	1.201703	-0.000142
1354	1.3462e+02	-13.9135	-46.933722	0.000284	2.837474	0.961362	-0.000114
1355	1.3472e+02	-13.9665	-47.058873	0.000314	3.141489	1.064365	-0.000126
1356	1.3482e+02	-13.9937	-47.204210	0.000365	3.648181	1.236037	-0.000146
1357	1.3492e+02	-14.0402	-47.317249	0.000284	2.837474	0.961362	-0.000114
1358	1.3502e+02	-14.0691	-47.442401	0.000314	3.141489	1.064365	-0.000126
1359	1.3512e+02	-14.1092	-47.559478	0.000294	2.938812	0.995697	-0.000118
1360	1.3522e+02	-14.1493	-47.712889	0.000385	3.850857	1.304706	-0.000154
1361	1.3532e+02	-14.1878	-47.805743	0.000233	2.330782	0.789690	-0.000093
1362	1.3542e+02	-14.2376	-47.975303	0.000426	4.256211	1.442043	-0.000170
1363	1.3552e+02	-14.2745	-48.088342	0.000284	2.837474	0.961362	-0.000114
1364	1.3562e+02	-14.3146	-48.233679	0.000365	3.648181	1.236037	-0.000146
1365	1.3572e+02	-14.3611	-48.366905	0.000334	3.344166	1.133034	-0.000134
1366	1.3582e+02	-14.4028	-48.459759	0.000233	2.330782	0.789690	-0.000093
1367	1.3592e+02	-14.4269	-48.597021	0.000345	3.445504	1.167368	-0.000138
1368	1.3602e+02	-14.4750	-48.734284	0.000345	3.445504	1.167368	-0.000138
1369	1.3612e+02	-14.5199	-48.883658	0.000375	3.749519	1.270371	-0.000150
1370	1.3622e+02	-14.5616	-49.016884	0.000334	3.344166	1.133034	-0.000134
1371	1.3631e+02	-14.5969	-49.113775	0.000243	2.432121	0.824025	-0.000097
1372	1.3641e+02	-14.6306	-49.247000	0.000334	3.344166	1.133034	-0.000134
1373	1.3651e+02	-14.6771	-49.392337	0.000365	3.648181	1.236037	-0.000146
1374	1.3661e+02	-14.7124	-49.497303	0.000263	2.634797	0.892693	-0.000105
1375	1.3671e+02	-14.7525	-49.598231	0.000253	2.533459	0.858359	-0.000101
1376	1.3681e+02	-14.7990	-49.747605	0.000375	3.749519	1.270371	-0.000150
1377	1.3691e+02	-14.8343	-49.872756	0.000314	3.141489	1.064365	-0.000126
1378	1.3701e+02	-14.8761	-50.018093	0.000365	3.648181	1.236037	-0.000146
1379	1.3711e+02	-14.9081	-50.106910	0.000223	2.229444	0.755356	-0.000089
1380	1.3721e+02	-14.9498	-50.260321	0.000385	3.850857	1.304706	-0.000154
1381	1.3731e+02	-15.0012	-50.421807	0.000405	4.053534	1.373375	-0.000162
1382	1.3741e+02	-15.0349	-50.486401	0.000162	1.621414	0.549350	-0.000065
1383	1.3751e+02	-15.0605	-50.639812	0.000385	3.850857	1.304706	-0.000154
1384	1.3761e+02	-15.1071	-50.760926	0.000304	3.040151	1.030031	-0.000122
1385	1.3771e+02	-15.1648	-50.890115	0.000324	3.242827	1.098700	-0.000130
1386	1.3781e+02	-15.1953	-51.031414	0.000355	3.546842	1.201703	-0.000142
1387	1.3791e+02	-15.2290	-51.128306	0.000243	2.432121	0.824025	-0.000097
1388	1.3801e+02	-15.2755	-51.241345	0.000284	2.837474	0.961362	-0.000114
1389	1.3811e+02	-15.3156	-51.394757	0.000385	3.850857	1.304706	-0.000154
1390	1.3821e+02	-15.3573	-51.487611	0.000233	2.330782	0.789690	-0.000093
1391	1.3831e+02	-15.3958	-51.628910	0.000355	3.546842	1.201703	-0.000142
1392	1.3840e+02	-15.4279	-51.754062	0.000314	3.141489	1.064365	-0.000126
1393	1.3850e+02	-15.4632	-51.867101	0.000284	2.837474	0.961362	-0.000114
1394	1.3860e+02	-15.5097	-51.980141	0.000284	2.837474	0.961362	-0.000114
1395	1.3870e+02	-15.5562	-52.129515	0.000375	3.749519	1.270371	-0.000150
1396	1.3880e+02	-15.6012	-52.234481	0.000263	2.634797	0.892693	-0.000105
1397	1.3890e+02	-15.6300	-52.335409	0.000253	2.533459	0.858359	-0.000101
1398	1.3900e+02	-15.6573	-52.468635	0.000334	3.344166	1.133034	-0.000134
1399	1.3910e+02	-15.7103	-52.573600	0.000263	2.634797	0.892693	-0.000105
1400	1.3920e+02	-15.7471	-52.747197	0.000436	4.357549	1.476378	-0.000174
1401	1.3930e+02	-15.7905	-52.819865	0.000182	1.824090	0.618019	-0.000073
1402	1.3940e+02	-15.8306	-52.997499	0.000446	4.458888	1.510712	-0.000179
1403	1.3950e+02	-15.8627	-53.086316	0.000223	2.229444	0.755356	-0.000089
1404	1.3960e+02	-15.8996	-53.219542	0.000334	3.344166	1.133034	-0.000134
1405	1.3970e+02	-15.9573	-53.320470	0.000253	2.533459	0.858359	-0.000101
1406	1.3980e+02	-15.9846	-53.465807	0.000365	3.648181	1.236037	-0.000146
1407	1.3990e+02	-16.0311	-53.603070	0.000345	3.445504	1.167368	-0.000138
1408	1.4000e+02	-16.0648	-53.720147	0.000294	2.938812	0.995697	-0.000118
1409	1.4010e+02	-16.1065	-53.885669	0.000415	4.154873	1.407709	-0.000166
1410	1.4020e+02	-16.1450	-53.950263	0.000162	1.621414	0.549350	-0.000065
1411	1.4029e+02	-16.1915	-54.095600	0.000365	3.648181	1.236037	-0.000146
1412	1.4039e+02	-16.2236	-54.257086	0.000405	4.053534	1.373375	-0.000162
1413	1.4049e+02	-16.2653	-54.337828	0.000203	2.026767	0.686687	-0.000081
1414	1.4059e+02	-16.3070	-54.454905	0.000294	2.938812	0.995697	-0.000118
1415	1.4069e+02	-16.3407	-54.616391	0.000405	4.053534	1.373375	-0.000162
1416	1.4079e+02	-16.3888	-54.705208	0.000223	2.229444	0.755356	-0.000089
1417	1.4089e+02	-16.4322	-54.862656	0.000395	3.952196	1.339040	-0.000158
1418	1.4099e+02	-16.4642	-54.955510	0.000233	2.330782	0.789690	-0.000093
1419	1.4109e+02	-16.5011	-55.100847	0.000365	3.648181	1.236037	-0.000146
1420	1.4119e+02	-16.5477	-55.217924	0.000294	2.938812	0.995697	-0.000118
1421	1.4129e+02	-16.5830	-55.351150	0.000334	3.344166	1.133034	-0.000134
1422	1.4139e+02	-16.6295	-55.508598	0.000395	3.952196	1.339040	-0.000158
1423	1.4149e+02	-16.6616	-55.597415	0.000223	2.229444	0.755356	-0.000089
1424	1.4159e+02	-16.7065	-55.722566	0.000314	3.141489	1.064365	-0.000126
1425	1.4169e+02	-16.7466	-55.867903	0.000365	3.648181	1.236037	-0.000146
1426	1.4179e+02	-16.7931	-55.980943	0.000284	2.837474	0.961362	-0.000114
1427	1.4189e+02	-16.8284	-56.150502	0.000426	4.256211	1.442043	-0.000170
1428	1.4199e+02	-16.8637	-56.235282	0.000213	2.128105	0.721022	-0.000085
1429	1.4209e+02	-16.9150	-56.368508	0.000334	3.344166	1.133034	-0.000134
1430	1.4219e+02	-16.9455	-56.489622	0.000304	3.040151	1.030031	-0.000122
1431	1.4228e+02	-16.9840	-56.622847	0.000334	3.344166	1.133034	-0.000134
1432	1.4238e+02	-17.0273	-56.792407	0.000426	4.256211	1.442043	-0.000170
1433	1.4248e+02	-17.0610	-56.877187	0.000213	2.128105	0.721022	-0.000085
1434	1.4258e+02	-17.0995	-57.034635	0.000395	3.952196	1.339040	-0.000158
1435	1.4268e+02	-17.1476	-57.151712	0.000294	2.938812	0.995697	-0.000118
1436	1.4278e+02	-17.1845	-57.293012	0.000355	3.546842	1.201703	-0.000142
1437	1.4288e+02	-17.2263	-57.426237	0.000334	3.344166	1.133034	-0.000134
1438	1.4298e+02	-17.2664	-57.575611	0.000375	3.749519	1.270371	-0.000150
1439	1.4308e+02	-17.3065	-57.664428	0.000223	2.229444	0.755356	-0.000089
1440	1.4318e+02	-17.3482	-57.842062	0.000446	4.458888	1.510712	-0.000179
1441	1.4328e+02	-17.3787	-57.955102	0.000284	2.837474	0.961362	-0.000114
1442	1.4338e+02	-17.4316	-58.064105	0.000274	2.736136	0.927028	-0.000110
1443	1.4348e+02	-17.4621	-58.221553	0.000395	3.952196	1.339040	-0.000158
1444	1.4358e+02	-17.4990	-58.346704	0.000314	3.141489	1.064365	-0.000126
1445	1.4368e+02	-17.5455	-58.471855	0.000314	3.141489	1.064365	-0.000126
1446	1.4378e+02	-17.5856	-58.592970	0.000304	3.040151	1.030031	-0.000122
1447	1.4388e+02	-17.6305	-58.734269	0.000355	3.546842	1.201703	-0.000142
1448	1.4398e+02	-17.6642	-58.851346	0.000294	2.938812	0.995697	-0.000118
1449	1.4408e+02	-17.7059	-59.008795	0.000395	3.952196	1.339040	-0.000158
1450	1.4418e+02	-17.7428	-59.146057	0.000345	3.445504	1.167368	-0.000138
1451	1.4428e+02	-17.7925	-59.279283	0.000334	3.344166	1.133034	-0.000134
1452	1.4437e+02	-17.8198	-59.412508	0.000334	3.344166	1.133034	-0.000134
1453	1.4447e+02	-17.8615	-59.557845	0.000365	3.648181	1.236037	-0.000146
1454	1.4457e+02	-17.9016	-59.703182	0.000365	3.648181	1.236037	-0.000146
1455	1.4467e+02	-17.9353	-59.828333	0.000314	3.141489	1.064365	-0.000126
1456	1.4477e+02	-17.9883	-59.953484	0.000314	3.141489	1.064365	-0.000126
1457	1.4487e+02	-18.0203	-60.106895	0.000385	3.850857	1.304706	-0.000154
1458	1.4497e+02	-18.0540	-60.252232	0.000365	3.648181	1.236037	-0.000146
1459	1.4507e+02	-18.1006	-60.393532	0.000355	3.546842	1.201703	-0.000142
1460	1.4517e+02	-18.1407	-60.538869	0.000365	3.648181	1.236037	-0.000146
1461	1.4527e+02	-18.1872	-60.712466	0.000436	4.357549	1.476378	-0.000174
1462	1.4537e+02	-18.2161	-60.849728	0.000345	3.445504	1.167368	-0.000138
1463	1.4547e+02	-18.2642	-60.962768	0.000284	2.837474	0.961362	-0.000114
1464	1.4557e+02	-18.3043	-61.108105	0.000365	3.648181	1.236037	-0.000146
1465	1.4567e+02	-18.3348	-61.249405	0.000355	3.546842	1.201703	-0.000142
1466	1.4577e+02	-18.3813	-61.410890	0.000405	4.053534	1.373375	-0.000162
1467	1.4587e+02	-18.4230	-61.544116	0.000334	3.344166	1.133034	-0.000134
1468	1.4597e+02	-18.4567	-61.685416	0.000355	3.546842	1.201703	-0.000142
1469	1.4607e+02	-18.5064	-61.850938	0.000415	4.154873	1.407709	-0.000166
1470	1.4617e+02	-18.5417	-62.024535	0.000436	4.357549	1.476378	-0.000174
1471	1.4626e+02	-18.5738	-62.161798	0.000345	3.445504	1.167368	-0.000138
1472	1.4636e+02	-18.6171	-62.323283	0.000405	4.053534	1.373375	-0.000162
1473	1.4646e+02	-18.6701	-62.456508	0.000334	3.344166	1.133034	-0.000134
1474	1.4656e+02	-18.7005	-62.638180	0.000456	4.560226	1.545046	-0.000183
1475	1.4666e+02	-18.7342	-62.787554	0.000375	3.749519	1.270371	-0.000150
1476	1.4676e+02	-18.7743	-62.908668	0.000304	3.040151	1.030031	-0.000122
1477	1.4686e+02	-18.8257	-63.090339	0.000456	4.560226	1.545046	-0.000183
1478	1.4696e+02	-18.8562	-63.239713	0.000375	3.749519	1.270371	-0.000150
1479	1.4706e+02	-18.9027	-63.381013	0.000355	3.546842	1.201703	-0.000142
1480	1.4716e+02	-18.9364	-63.594981	0.000537	5.370933	1.819721	-0.000215
1481	1.4726e+02	-18.9749	-63.732243	0.000345	3.445504	1.167368	-0.000138
1482	1.4736e+02	-19.0182	-63.885654	0.000385	3.850857	1.304706	-0.000154
1483	1.4746e+02	-19.0583	-64.022917	0.000345	3.445504	1.167368	-0.000138
1484	1.4756e+02	-19.1000	-64.228811	0.000517	5.168256	1.751053	-0.000207
1485	1.4766e+02	-19.1401	-64.366074	0.000345	3.445504	1.167368	-0.000138
1486	1.4776e+02	-19.1754	-64.503336	0.000345	3.445504	1.167368	-0.000138
1487	1.4786e+02	-19.2219	-64.676933	0.000436	4.357549	1.476378	-0.000174
1488	1.4796e+02	-19.2556	-64.846493	0.000426	4.256211	1.442043	-0.000170
1489	1.4806e+02	-19.2957	-65.016052	0.000426	4.256211	1.442043	-0.000170
1490	1.4816e+02	-19.3454	-65.193686	0.000446	4.458888	1.510712	-0.000179
1491	1.4825e+02	-19.3775	-65.351135	0.000395	3.952196	1.339040	-0.000158
1492	1.4835e+02	-19.4192	-65.504546	0.000385	3.850857	1.304706	-0.000154
1493	1.4845e+02	-19.4577	-65.657957	0.000385	3.850857	1.304706	-0.000154
1494	1.4855e+02	-19.4914	-65.799257	0.000355	3.546842	1.201703	-0.000142
1495	1.4865e+02	-19.5299	-65.980928	0.000456	4.560226	1.545046	-0.000183
1496	1.4875e+02	-19.5732	-66.194896	0.000537	5.370933	1.819721	-0.000215
1497	1.4885e+02	-19.6214	-66.299862	0.000263	2.634797	0.892693	-0.000105
1498	1.4895e+02	-19.6454	-66.469421	0.000426	4.256211	1.442043	-0.000170
1499	1.4905e+02	-19.6936	-66.663204	0.000486	4.864241	1.648049	-0.000195
1500	1.4915e+02	-19.7369	-66.820652	0.000395	3.952196	1.339040	-0.000158
1501	1.4925e+02	-19.7866	-66.986175	0.000415	4.154873	1.407709	-0.000166
1502	1.4935e+02	-19.8203	-67.179957	0.000486	4.864241	1.648049	-0.000195
1503	1.4945e+02	-19.8556	-67.329331	0.000375	3.749519	1.270371	-0.000150
1504	1.4955e+02	-19.8861	-67.519077	0.000476	4.762903	1.613715	-0.000191
1505	1.4965e+02	-19.9422	-67.660376	0.000355	3.546842	1.201703	-0.000142
1506	1.4975e+02	-19.9615	-67.854159	0.000486	4.864241	1.648049	-0.000195
1507	1.4985e+02	-20.0112	-68.023719	0.000426	4.256211	1.442043	-0.000170
1508	1.4995e+02	-19.9743	-67.991422	0.000081	0.810707	0.274675	0.000032
1509	1.5005e+02	-19.9310	-68.011607	-0.000051	-0.506692	-0.171672	-0.000020
1510	1.5015e+02	-19.8909	-67.959124	0.000132	1.317399	0.446347	0.000053
1511	1.5025e+02	-19.8508	-67.890493	0.000172	1.722752	0.583684	0.000069
1512	1.5034e+02	-19.8107	-67.866270	0.000061	0.608030	0.206006	0.000024
1513	1.5044e+02	-19.7706	-67.801676	0.000162	1.621414	0.549350	0.000065
1514	1.5054e+02	-19.7305	-67.765342	0.000091	0.912045	0.309009	0.000037
1515	1.5064e+02	-19.6887	-67.741119	0.000061	0.608030	0.206006	0.000024
1516	1.5074e+02	-19.6535	-67.648265	0.000233	2.330782	0.789690	0.000093
1517	1.5084e+02	-19.6230	-67.611931	0.000091	0.912045	0.309009	0.000037
1518	1.5094e+02	-19.5732	-67.551374	0.000152	1.520075	0.515015	0.000061
1519	1.5104e+02	-19.5444	-67.446408	0.000263	2.634797	0.892693	0.000105
1520	1.5114e+02	-19.4978	-67.369703	0.000193	1.925429	0.652353	0.000077
1521	1.5124e+02	-19.4609	-67.317220	0.000132	1.317399	0.446347	0.000053
1522	1.5134e+02	-19.4048	-67.240514	0.000193	1.925429	0.652353	0.000077
1523	1.5144e+02	-19.3839	-67.171883	0.000172	1.722752	0.583684	0.000069
1524	1.5154e+02	-19.3294	-67.115363	0.000142	1.418737	0.480681	0.000057
1525	1.5164e+02	-19.2941	-67.018472	0.000243	2.432121	0.824025	0.000097
1526	1.5174e+02	-19.2540	-66.937729	0.000203	2.026767	0.686687	0.000081
1527	1.5184e+02	-19.2203	-66.869098	0.000172	1.722752	0.583684	0.000069
1528	1.5194e+02	-19.1786	-66.768169	0.000253	2.533459	0.858359	0.000101
1529	1.5204e+02	-19.1433	-66.731835	0.000091	0.912045	0.309009	0.000037
1530	1.5214e+02	-19.0984	-66.647055	0.000213	2.128105	0.721022	0.000085
1531	1.5224e+02	-19.0503	-66.602647	0.000111	1.114722	0.377678	0.000045
1532	1.5233e+02	-19.0118	-66.501718	0.000253	2.533459	0.858359	0.000101
1533	1.5243e+02	-18.9813	-66.412901	0.000223	2.229444	0.755356	0.000089
1534	1.5253e+02	-18.9428	-66.307936	0.000263	2.634797	0.892693	0.000105
1535	1.5263e+02	-18.9059	-66.227193	0.000203	2.026767	0.686687	0.000081
1536	1.5273e+02	-18.8610	-66.174710	0.000132	1.317399	0.446347	0.000053
1537	1.5283e+02	-18.8193	-66.085893	0.000223	2.229444	0.755356	0.000089
1538	1.5293e+02	-18.7791	-65.968817	0.000294	2.938812	0.995697	0.000118
1539	1.5303e+02	-18.7390	-65.920371	0.000122	1.216060	0.412012	0.000049
1540	1.5313e+02	-18.7021	-65.811368	0.000274	2.736136	0.927028	0.000110
1541	1.5323e+02	-18.6685	-65.738700	0.000182	1.824090	0.618019	0.000073
1542	1.5333e+02	-18.6155	-65.653920	0.000213	2.128105	0.721022	0.000085
1543	1.5343e+02	-18.5786	-65.569140	0.000213	2.128105	0.721022	0.000085
1544	1.5353e+02	-18.5353	-65.472249	0.000243	2.432121	0.824025	0.000097
1545	1.5363e+02	-18.4872	-65.399580	0.000182	1.824090	0.618019	0.000073
1546	1.5373e+02	-18.4583	-65.270392	0.000324	3.242827	1.098700	0.000130
1547	1.5383e+02	-18.4246	-65.205798	0.000162	1.621414	0.549350	0.000065
1548	1.5393e+02	-18.3861	-65.125055	0.000203	2.026767	0.686687	0.000081
1549	1.5403e+02	-18.3412	-65.048350	0.000193	1.925429	0.652353	0.000077
1550	1.5413e+02	-18.2995	-64.959533	0.000223	2.229444	0.755356	0.000089
1551	1.5422e+02	-18.2610	-64.866678	0.000233	2.330782	0.789690	0.000093
1552	1.5432e+02	-18.2225	-64.761713	0.000263	2.634797	0.892693	0.000105
1553	1.5442e+02	-18.1792	-64.652710	0.000274	2.736136	0.927028	0.000110
1554	1.5452e+02	-18.1439	-64.576005	0.000193	1.925429	0.652353	0.000077
1555	1.5462e+02	-18.1070	-64.458928	0.000294	2.938812	0.995697	0.000118
1556	1.5472e+02	-18.0621	-64.394334	0.000162	1.621414	0.549350	0.000065
1557	1.5482e+02	-18.0300	-64.265145	0.000324	3.242827	1.098700	0.000130
1558	1.5492e+02	-17.9867	-64.180365	0.000213	2.128105	0.721022	0.000085
1559	1.5502e+02	-17.9449	-64.095586	0.000213	2.128105	0.721022	0.000085
1560	1.5512e+02	-17.8904	-63.982546	0.000284	2.837474	0.961362	0.000114
1561	1.5522e+02	-17.8551	-63.885654	0.000243	2.432121	0.824025	0.000097
1562	1.5532e+02	-17.8198	-63.768578	0.000294	2.938812	0.995697	0.000118
1563	1.5542e+02	-17.7893	-63.699946	0.000172	1.722752	0.583684	0.000069
1564	1.5552e+02	-17.7476	-63.607092	0.000233	2.330782	0.789690	0.000093
1565	1.5562e+02	-17.7027	-63.514238	0.000233	2.330782	0.789690	0.000093
1566	1.5572e+02	-17.6674	-63.421384	0.000233	2.330782	0.789690	0.000093
1567	1.5582e+02	-17.6257	-63.292196	0.000324	3.242827	1.098700	0.000130
1568	1.5592e+02	-17.5840	-63.215490	0.000193	1.925429	0.652353	0.000077
1569	1.5602e+02	-17.5503	-63.098413	0.000294	2.938812	0.995697	0.000118
1570	1.5612e+02	-17.5054	-62.993447	0.000263	2.634797	0.892693	0.000105
1571	1.5622e+02	-17.4621	-62.912705	0.000203	2.026767	0.686687	0.000081
1572	1.5631e+02	-17.4284	-62.827925	0.000213	2.128105	0.721022	0.000085
1573	1.5641e+02	-17.3787	-62.731034	0.000243	2.432121	0.824025	0.000097
1574	1.5651e+02	-17.3450	-62.626068	0.000263	2.634797	0.892693	0.000105
1575	1.5661e+02	-17.3065	-62.488806	0.000345	3.445504	1.167368	0.000138
1576	1.5671e+02	-17.2583	-62.456508	0.000081	0.810707	0.274675	0.000032
1577	1.5681e+02	-17.2311	-62.343469	0.000284	2.837474	0.961362	0.000114
1578	1.5691e+02	-17.1926	-62.242540	0.000253	2.533459	0.858359	0.000101
1579	1.5701e+02	-17.1589	-62.165835	0.000193	1.925429	0.652353	0.000077
1580	1.5711e+02	-17.0995	-62.060869	0.000263	2.634797	0.892693	0.000105
1581	1.5721e+02	-17.0690	-61.963978	0.000243	2.432121	0.824025	0.000097
1582	1.5731e+02	-17.0386	-61.859012	0.000263	2.634797	0.892693	0.000105
1583	1.5741e+02	-16.9936	-61.733861	0.000314	3.141489	1.064365	0.000126
1584	1.5751e+02	-16.9503	-61.636970	0.000243	2.432121	0.824025	0.000097
1585	1.5761e+02	-16.9054	-61.507782	0.000324	3.242827	1.098700	0.000130
1586	1.5771e+02	-16.8637	-61.427039	0.000203	2.026767	0.686687	0.000081
1587	1.5781e+02	-16.8252	-61.346296	0.000203	2.026767	0.686687	0.000081
1588	1.5791e+02	-16.7771	-61.253442	0.000233	2.330782	0.789690	0.000093
1589	1.5801e+02	-16.7530	-61.148476	0.000263	2.634797	0.892693	0.000105
1590	1.5811e+02	-16.7081	-61.015251	0.000334	3.344166	1.133034	0.000134
1591	1.5821e+02	-16.6632	-60.942583	0.000182	1.824090	0.618019	0.000073
1592	1.5830e+02	-16.6391	-60.853766	0.000223	2.229444	0.755356	0.000089
1593	1.5840e+02	-16.5894	-60.724577	0.000324	3.242827	1.098700	0.000130
1594	1.5850e+02	-16.5525	-60.615575	0.000274	2.736136	0.927028	0.000110
1595	1.5860e+02	-16.5043	-60.526758	0.000223	2.229444	0.755356	0.000089
1596	1.5870e+02	-16.4707	-60.425829	0.000253	2.533459	0.858359	0.000101
1597	1.5880e+02	-16.4225	-60.341049	0.000213	2.128105	0.721022	0.000085
1598	1.5890e+02	-16.3824	-60.223972	0.000294	2.938812	0.995697	0.000118
1599	1.5900e+02	-16.3503	-60.110933	0.000284	2.837474	0.961362	0.000114
1600	1.5910e+02	-16.3086	-60.018078	0.000233	2.330782	0.789690	0.000093
1601	1.5920e+02	-16.2717	-59.937336	0.000203	2.026767	0.686687	0.000081
1602	1.5930e+02	-16.2252	-59.779887	0.000395	3.952196	1.339040	0.000158
1603	1.5940e+02	-16.1931	-59.703182	0.000193	1.925429	0.652353	0.000077
1604	1.5950e+02	-16.1530	-59.606291	0.000243	2.432121	0.824025	0.000097
1605	1.5960e+02	-16.1065	-59.489214	0.000294	2.938812	0.995697	0.000118
1606	1.5970e+02	-16.0680	-59.412508	0.000193	1.925429	0.652353	0.000077
1607	1.5980e+02	-16.0263	-59.303505	0.000274	2.736136	0.927028	0.000110
1608	1.5990e+02	-15.9830	-59.210651	0.000233	2.330782	0.789690	0.000093
1609	1.6000e+02	-15.9541	-59.117797	0.000233	2.330782	0.789690	0.000093
1610	1.6010e+02	-15.9060	-59.004757	0.000284	2.837474	0.961362	0.000114
1611	1.6019e+02	-15.8675	-58.903829	0.000253	2.533459	0.858359	0.000101
1612	1.6029e+02	-15.8242	-58.806938	0.000243	2.432121	0.824025	0.000097
1613	1.6039e+02	-15.7937	-58.653527	0.000385	3.850857	1.304706	0.000154
1614	1.6049e+02	-15.7552	-58.560672	0.000233	2.330782	0.789690	0.000093
1615	1.6059e+02	-15.7103	-58.463781	0.000243	2.432121	0.824025	0.000097
1616	1.6069e+02	-15.6589	-58.350741	0.000284	2.837474	0.961362	0.000114
1617	1.6079e+02	-15.6316	-58.282110	0.000172	1.722752	0.583684	0.000069
1618	1.6089e+02	-15.5867	-58.132736	0.000375	3.749519	1.270371	0.000150
1619	1.6099e+02	-15.5562	-58.051993	0.000203	2.026767	0.686687	0.000081
1620	1.6109e+02	-15.5129	-57.938954	0.000284	2.837474	0.961362	0.000114
1621	1.6119e+02	-15.4712	-57.850137	0.000223	2.229444	0.755356	0.000089
1622	1.6129e+02	-15.4327	-57.716911	0.000334	3.344166	1.133034	0.000134
1623	1.6139e+02	-15.3942	-57.636168	0.000203	2.026767	0.686687	0.000081
1624	1.6149e+02	-15.3573	-57.482757	0.000385	3.850857	1.304706	0.000154
1625	1.6159e+02	-15.3156	-57.426237	0.000142	1.418737	0.480681	0.000057
1626	1.6169e+02	-15.2739	-57.288975	0.000345	3.445504	1.167368	0.000138
1627	1.6179e+02	-15.2402	-57.196121	0.000233	2.330782	0.789690	0.000093
1628	1.6189e+02	-15.1905	-57.103266	0.000233	2.330782	0.789690	0.000093
1629	1.6199e+02	-15.1616	-56.994264	0.000274	2.736136	0.927028	0.000110
1630	1.6209e+02	-15.1199	-56.857001	0.000345	3.445504	1.167368	0.000138
1631	1.6219e+02	-15.0718	-56.760110	0.000243	2.432121	0.824025	0.000097
1632	1.6228e+02	-15.0301	-56.647070	0.000284	2.837474	0.961362	0.000114
1633	1.6238e+02	-14.9916	-56.566327	0.000203	2.026767	0.686687	0.000081
1634	1.6248e+02	-14.9434	-56.437139	0.000324	3.242827	1.098700	0.000130
1635	1.6258e+02	-14.9178	-56.356396	0.000203	2.026767	0.686687	0.000081
1636	1.6268e+02	-14.8793	-56.231245	0.000314	3.141489	1.064365	0.000126
1637	1.6278e+02	-14.8311	-56.162614	0.000172	1.722752	0.583684	0.000069
1638	1.6288e+02	-14.7942	-56.029388	0.000334	3.344166	1.133034	0.000134
1639	1.6298e+02	-14.7445	-55.880014	0.000375	3.749519	1.270371	0.000150
1640	1.6308e+02	-14.7253	-55.835606	0.000111	1.114722	0.377678	0.000045
1641	1.6318e+02	-14.6755	-55.714492	0.000304	3.040151	1.030031	0.000122
1642	1.6328e+02	-14.6370	-55.641823	0.000182	1.824090	0.618019	0.000073
1643	1.6338e+02	-14.5937	-55.544932	0.000243	2.432121	0.824025	0.000097
1644	1.6348e+02	-14.5472	-55.403632	0.000355	3.546842	1.201703	0.000142
1645	1.6358e+02	-14.5071	-55.359224	0.000111	1.114722	0.377678	0.000045
1646	1.6368e+02	-14.4734	-55.189664	0.000426	4.256211	1.442043	0.000170
1647	1.6378e+02	-14.4285	-55.104884	0.000213	2.128105	0.721022	0.000085
1648	1.6388e+02	-14.3884	-54.987807	0.000294	2.938812	0.995697	0.000118
1649	1.6398e+02	-14.3579	-54.907065	0.000203	2.026767	0.686687	0.000081
1650	1.6408e+02	-14.3178	-54.794025	0.000284	2.837474	0.961362	0.000114
1651	1.6418e+02	-14.2809	-54.676948	0.000294	2.938812	0.995697	0.000118
1652	1.6427e+02	-14.2424	-54.567945	0.000274	2.736136	0.927028	0.000110
1653	1.6437e+02	-14.1910	-54.487202	0.000203	2.026767	0.686687	0.000081
1654	1.6447e+02	-14.1574	-54.325717	0.000405	4.053534	1.373375	0.000162
1655	1.6457e+02	-14.1108	-54.269197	0.000142	1.418737	0.480681	0.000057
1656	1.6467e+02	-14.0771	-54.180380	0.000223	2.229444	0.755356	0.000089
1657	1.6477e+02	-14.0306	-54.026969	0.000385	3.850857	1.304706	0.000154
1658	1.6487e+02	-13.9873	-53.901818	0.000314	3.141489	1.064365	0.000126
1659	1.6497e+02	-13.9568	-53.808964	0.000233	2.330782	0.789690	0.000093
1660	1.6507e+02	-13.9167	-53.699961	0.000274	2.736136	0.927028	0.000110
1661	1.6517e+02	-13.8798	-53.590958	0.000274	2.736136	0.927028	0.000110
1662	1.6527e+02	-13.8429	-53.477919	0.000284	2.837474	0.961362	0.000114
1663	1.6537e+02	-13.7980	-53.385064	0.000233	2.330782	0.789690	0.000093
1664	1.6547e+02	-13.7499	-53.272025	0.000284	2.837474	0.961362	0.000114
1665	1.6557e+02	-13.7146	-53.154948	0.000294	2.938812	0.995697	0.000118
1666	1.6567e+02	-13.6809	-53.033834	0.000304	3.040151	1.030031	0.000122
1667	1.6577e+02	-13.6408	-52.981351	0.000132	1.317399	0.446347	0.000053
1668	1.6587e+02	-13.5862	-52.827940	0.000385	3.850857	1.304706	0.000154
1669	1.6597e+02	-13.5558	-52.743160	0.000213	2.128105	0.721022	0.000085
1670	1.6607e+02	-13.5141	-52.609934	0.000334	3.344166	1.133034	0.000134
1671	1.6616e+02	-13.4804	-52.492857	0.000294	2.938812	0.995697	0.000118
1672	1.6626e+02	-13.4371	-52.412115	0.000203	2.026767	0.686687	0.000081
1673	1.6636e+02	-13.3986	-52.270815	0.000355	3.546842	1.201703	0.000142
1674	1.6646e+02	-13.3552	-52.153738	0.000294	2.938812	0.995697	0.000118
1675	1.6656e+02	-13.3119	-52.064921	0.000223	2.229444	0.755356	0.000089
1676	1.6666e+02	-13.2814	-51.927658	0.000345	3.445504	1.167368	0.000138
1677	1.6676e+02	-13.2317	-51.859027	0.000172	1.722752	0.583684	0.000069
1678	1.6686e+02	-13.1932	-51.745987	0.000284	2.837474	0.961362	0.000114
1679	1.6696e+02	-13.1579	-51.608725	0.000345	3.445504	1.167368	0.000138
1680	1.6706e+02	-13.1242	-51.519908	0.000223	2.229444	0.755356	0.000089
1681	1.6716e+02	-13.0745	-51.427054	0.000233	2.330782	0.789690	0.000093
1682	1.6726e+02	-13.0376	-51.281717	0.000365	3.648181	1.236037	0.000146
1683	1.6736e+02	-12.9927	-51.160603	0.000304	3.040151	1.030031	0.000122
1684	1.6746e+02	-12.9510	-51.047563	0.000284	2.837474	0.961362	0.000114
1685	1.6756e+02	-12.9189	-50.938560	0.000274	2.736136	0.927028	0.000110
1686	1.6766e+02	-12.8772	-50.841669	0.000243	2.432121	0.824025	0.000097
1687	1.6776e+02	-12.8387	-50.712481	0.000324	3.242827	1.098700	0.000130
1688	1.6786e+02	-12.8098	-50.603478	0.000274	2.736136	0.927028	0.000110
1689	1.6796e+02	-12.7585	-50.490438	0.000284	2.837474	0.961362	0.000114
1690	1.6806e+02	-12.7264	-50.357213	0.000334	3.344166	1.133034	0.000134
1691	1.6816e+02	-12.6799	-50.260321	0.000243	2.432121	0.824025	0.000097
1692	1.6825e+02	-12.6478	-50.203801	0.000142	1.418737	0.480681	0.000057
1693	1.6835e+02	-12.6045	-50.070576	0.000334	3.344166	1.133034	0.000134
1694	1.6845e+02	-12.5660	-49.921202	0.000375	3.749519	1.270371	0.000150
1695	1.6855e+02	-12.5242	-49.800088	0.000304	3.040151	1.030031	0.000122
1696	1.6865e+02	-12.4809	-49.691085	0.000274	2.736136	0.927028	0.000110
1697	1.6875e+02	-12.4424	-49.630528	0.000152	1.520075	0.515015	0.000061
1698	1.6885e+02	-12.4087	-49.473080	0.000395	3.952196	1.339040	0.000158
1699	1.6895e+02	-12.3718	-49.372152	0.000253	2.533459	0.858359	0.000101
1700	1.6905e+02	-12.3189	-49.255075	0.000294	2.938812	0.995697	0.000118
1701	1.6915e+02	-12.2804	-49.125886	0.000324	3.242827	1.098700	0.000130
1702	1.6925e+02	-12.2419	-49.020921	0.000263	2.634797	0.892693	0.000105
1703	1.6935e+02	-12.2066	-48.928067	0.000233	2.330782	0.789690	0.000093
1704	1.6945e+02	-12.1601	-48.770618	0.000395	3.952196	1.339040	0.000158
1705	1.6955e+02	-12.1232	-48.685838	0.000213	2.128105	0.721022	0.000085
1706	1.6965e+02	-12.0863	-48.564724	0.000304	3.040151	1.030031	0.000122
1707	1.6975e+02	-12.0462	-48.488019	0.000193	1.925429	0.652353	0.000077
1708	1.6985e+02	-12.0189	-48.338645	0.000375	3.749519	1.270371	0.000150
1709	1.6995e+02	-11.9628	-48.229642	0.000274	2.736136	0.927028	0.000110
1710	1.7005e+02	-11.9307	-48.136788	0.000233	2.330782	0.789690	0.000093
1711	1.7015e+02	-11.8890	-48.027785	0.000274	2.736136	0.927028	0.000110
1712	1.7024e+02	-11.8473	-47.874374	0.000385	3.850857	1.304706	0.000154
1713	1.7034e+02	-11.8152	-47.805743	0.000172	1.722752	0.583684	0.000069
1714	1.7044e+02	-11.7638	-47.648295	0.000395	3.952196	1.339040	0.000158
1715	1.7054e+02	-11.7318	-47.555440	0.000233	2.330782	0.789690	0.000093
1716	1.7064e+02	-11.6884	-47.406066	0.000375	3.749519	1.270371	0.000150
1717	1.7074e+02	-11.6612	-47.325324	0.000203	2.026767	0.686687	0.000081
1718	1.7084e+02	-11.6098	-47.179987	0.000365	3.648181	1.236037	0.000146
1719	1.7094e+02	-11.5729	-47.103281	0.000193	1.925429	0.652353	0.000077
1720	1.7104e+02	-11.5280	-46.945833	0.000395	3.952196	1.339040	0.000158
1721	1.7114e+02	-11.4911	-46.840867	0.000263	2.634797	0.892693	0.000105
1722	1.7124e+02	-11.4446	-46.675345	0.000415	4.154873	1.407709	0.000166
1723	1.7134e+02	-11.3997	-46.598639	0.000193	1.925429	0.652353	0.000077
1724	1.7144e+02	-11.3644	-46.473488	0.000314	3.141489	1.064365	0.000126
1725	1.7154e+02	-11.3307	-46.332188	0.000355	3.546842	1.201703	0.000142
1726	1.7164e+02	-11.2858	-46.227223	0.000263	2.634797	0.892693	0.000105
1727	1.7174e+02	-11.2473	-46.081886	0.000365	3.648181	1.236037	0.000146
1728	1.7184e+02	-11.2120	-45.980957	0.000253	2.533459	0.858359	0.000101
1729	1.7194e+02	-11.1671	-45.871955	0.000274	2.736136	0.927028	0.000110
1730	1.7204e+02	-11.1302	-45.746804	0.000314	3.141489	1.064365	0.000126
1731	1.7213e+02	-11.0836	-45.585318	0.000405	4.053534	1.373375	0.000162
1732	1.7223e+02	-11.0467	-45.480353	0.000263	2.634797	0.892693	0.000105
1733	1.7233e+02	-11.0066	-45.375387	0.000263	2.634797	0.892693	0.000105
1734	1.7243e+02	-10.9697	-45.238125	0.000345	3.445504	1.167368	0.000138
1735	1.7253e+02	-10.9168	-45.125085	0.000284	2.837474	0.961362	0.000114
1736	1.7263e+02	-10.8879	-45.020119	0.000263	2.634797	0.892693	0.000105
1737	1.7273e+02	-10.8558	-44.911117	0.000274	2.736136	0.927028	0.000110
1738	1.7283e+02	-10.8061	-44.773854	0.000345	3.445504	1.167368	0.000138
1739	1.7293e+02	-10.7708	-44.612368	0.000405	4.053534	1.373375	0.000162
1740	1.7303e+02	-10.7291	-44.543737	0.000172	1.722752	0.583684	0.000069
1741	1.7313e+02	-10.6938	-44.382252	0.000405	4.053534	1.373375	0.000162
1742	1.7323e+02	-10.6441	-44.313620	0.000172	1.722752	0.583684	0.000069
1743	1.7333e+02	-10.6056	-44.131949	0.000456	4.560226	1.545046	0.000183
1744	1.7343e+02	-10.5687	-43.994687	0.000345	3.445504	1.167368	0.000138
1745	1.7353e+02	-10.5382	-43.946241	0.000122	1.216060	0.412012	0.000049
1746	1.7363e+02	-10.4869	-43.776681	0.000426	4.256211	1.442043	0.000170
1747	1.7373e+02	-10.4484	-43.667679	0.000274	2.736136	0.927028	0.000110
1748	1.7383e+02	-10.4034	-43.522342	0.000365	3.648181	1.236037	0.000146
1749	1.7393e+02	-10.3762	-43.477933	0.000111	1.114722	0.377678	0.000045
1750	1.7403e+02	-10.3297	-43.340671	0.000345	3.445504	1.167368	0.000138
1751	1.7413e+02	-10.2944	-43.159000	0.000456	4.560226	1.545046	0.000183
1752	1.7422e+02	-10.2559	-43.058071	0.000253	2.533459	0.858359	0.000101
1753	1.7432e+02	-10.2109	-42.989440	0.000172	1.722752	0.583684	0.000069
1754	1.7442e+02	-10.1805	-42.811806	0.000446	4.458888	1.510712	0.000179
1755	1.7452e+02	-10.1291	-42.739137	0.000182	1.824090	0.618019	0.000073
1756	1.7462e+02	-10.0938	-42.573615	0.000415	4.154873	1.407709	0.000166
1757	1.7472e+02	-10.0505	-42.412129	0.000405	4.053534	1.373375	0.000162
1758	1.7482e+02	-10.0104	-42.299090	0.000284	2.837474	0.961362	0.000114
1759	1.7492e+02	-9.9703	-42.218347	0.000203	2.026767	0.686687	0.000081
1760	1.7502e+02	-9.9350	-42.073010	0.000365	3.648181	1.236037	0.000146
1761	1.7512e+02	-9.8869	-41.964007	0.000274	2.736136	0.927028	0.000110
1762	1.7522e+02	-9.8516	-41.810596	0.000385	3.850857	1.304706	0.000154
1763	1.7532e+02	-9.8115	-41.693519	0.000294	2.938812	0.995697	0.000118
1764	1.7542e+02	-9.7794	-41.580480	0.000284	2.837474	0.961362	0.000114
1765	1.7552e+02	-9.7393	-41.475514	0.000263	2.634797	0.892693	0.000105
1766	1.7562e+02	-9.6864	-41.334214	0.000355	3.546842	1.201703	0.000142
1767	1.7572e+02	-9.6463	-41.209063	0.000314	3.141489	1.064365	0.000126
1768	1.7582e+02	-9.6174	-41.075838	0.000334	3.344166	1.133034	0.000134
1769	1.7592e+02	-9.5773	-40.966835	0.000274	2.736136	0.927028	0.000110
1770	1.7602e+02	-9.5404	-40.865907	0.000253	2.533459	0.858359	0.000101
1771	1.7612e+02	-9.4906	-40.769015	0.000243	2.432121	0.824025	0.000097
1772	1.7621e+02	-9.4586	-40.571196	0.000497	4.965579	1.682384	0.000199
1773	1.7631e+02	-9.4120	-40.470267	0.000253	2.533459	0.858359	0.000101
1774	1.7641e+02	-9.3767	-40.341079	0.000324	3.242827	1.098700	0.000130
1775	1.7651e+02	-9.3350	-40.232076	0.000274	2.736136	0.927028	0.000110
1776	1.7661e+02	-9.2949	-40.086739	0.000365	3.648181	1.236037	0.000146
1777	1.7671e+02	-9.2564	-39.981774	0.000263	2.634797	0.892693	0.000105
1778	1.7681e+02	-9.2179	-39.828363	0.000385	3.850857	1.304706	0.000154
1779	1.7691e+02	-9.1634	-39.763768	0.000162	1.621414	0.549350	0.000065
1780	1.7701e+02	-9.1313	-39.569986	0.000486	4.864241	1.648049	0.000195
1781	1.7711e+02	-9.1024	-39.481169	0.000223	2.229444	0.755356	0.000089
1782	1.7721e+02	-9.0575	-39.339869	0.000355	3.546842	1.201703	0.000142
1783	1.7731e+02	-9.0158	-39.222792	0.000294	2.938812	0.995697	0.000118
1784	1.7741e+02	-8.9741	-39.069381	0.000385	3.850857	1.304706	0.000154
1785	1.7751e+02	-8.9356	-38.964416	0.000263	2.634797	0.892693	0.000105
1786	1.7761e+02	-8.9019	-38.863487	0.000253	2.533459	0.858359	0.000101
1787	1.7771e+02	-8.8489	-38.710076	0.000385	3.850857	1.304706	0.000154
1788	1.7781e+02	-8.8185	-38.588962	0.000304	3.040151	1.030031	0.000122
1789	1.7791e+02	-8.7703	-38.435551	0.000385	3.850857	1.304706	0.000154
1790	1.7801e+02	-8.7334	-38.306362	0.000324	3.242827	1.098700	0.000130
1791	1.7810e+02	-8.6917	-38.201397	0.000263	2.634797	0.892693	0.000105
1792	1.7820e+02	-8.6580	-38.076246	0.000314	3.141489	1.064365	0.000126
1793	1.7830e+02	-8.6179	-37.930909	0.000365	3.648181	1.236037	0.000146
1794	1.7840e+02	-8.5762	-37.809795	0.000304	3.040151	1.030031	0.000122
1795	1.7850e+02	-8.5457	-37.684644	0.000314	3.141489	1.064365	0.000126
1796	1.7860e+02	-8.4896	-37.555455	0.000324	3.242827	1.098700	0.000130
1797	1.7870e+02	-8.4527	-37.406081	0.000375	3.749519	1.270371	0.000150
1798	1.7880e+02	-8.4254	-37.293041	0.000284	2.837474	0.961362	0.000114
1799	1.7890e+02	-8.3741	-37.192113	0.000253	2.533459	0.858359	0.000101
1800	1.7900e+02	-8.3372	-37.014479	0.000446	4.458888	1.510712	0.000179
1801	1.7910e+02	-8.2955	-36.925662	0.000223	2.229444	0.755356	0.000089
1802	1.7920e+02	-8.2570	-36.784362	0.000355	3.546842	1.201703	0.000142
1803	1.7930e+02	-8.2169	-36.639025	0.000365	3.648181	1.236037	0.000146
1804	1.7940e+02	-8.1800	-36.542134	0.000243	2.432121	0.824025	0.000097
1805	1.7950e+02	-8.1431	-36.396797	0.000365	3.648181	1.236037	0.000146
1806	1.7960e+02	-8.0966	-36.303943	0.000233	2.330782	0.789690	0.000093
1807	1.7970e+02	-8.0645	-36.122272	0.000456	4.560226	1.545046	0.000183
1808	1.7980e+02	-8.0180	-36.041529	0.000203	2.026767	0.686687	0.000081
1809	1.7990e+02	-7.9778	-35.900230	0.000355	3.546842	1.201703	0.000142
1810	1.8000e+02	-7.9393	-35.783153	0.000294	2.938812	0.995697	0.000118
1811	1.8009e+02	-7.8992	-35.613593	0.000426	4.256211	1.442043	0.000170
1812	1.8019e+02	-7.8704	-35.585333	0.000071	0.709368	0.240341	0.000028
1813	1.8029e+02	-7.8206	-35.419810	0.000415	4.154873	1.407709	0.000166
1814	1.8039e+02	-7.7869	-35.278511	0.000355	3.546842	1.201703	0.000142
1815	1.8049e+02	-7.7436	-35.145285	0.000334	3.344166	1.133034	0.000134
1816	1.8059e+02	-7.7003	-35.036283	0.000274	2.736136	0.927028	0.000110
1817	1.8069e+02	-7.6650	-34.939391	0.000243	2.432121	0.824025	0.000097
1818	1.8079e+02	-7.6217	-34.769832	0.000426	4.256211	1.442043	0.000170
1819	1.8089e+02	-7.5816	-34.681015	0.000223	2.229444	0.755356	0.000089
1820	1.8099e+02	-7.5383	-34.547789	0.000334	3.344166	1.133034	0.000134
1821	1.8109e+02	-7.5014	-34.410526	0.000345	3.445504	1.167368	0.000138
1822	1.8119e+02	-7.4581	-34.297487	0.000284	2.837474	0.961362	0.000114
1823	1.8129e+02	-7.4180	-34.144076	0.000385	3.850857	1.304706	0.000154
1824	1.8139e+02	-7.3763	-33.994701	0.000375	3.749519	1.270371	0.000150
1825	1.8149e+02	-7.3426	-33.865513	0.000324	3.242827	1.098700	0.000130
1826	1.8159e+02	-7.2961	-33.748436	0.000294	2.938812	0.995697	0.000118
1827	1.8169e+02	-7.2624	-33.607136	0.000355	3.546842	1.201703	0.000142
1828	1.8179e+02	-7.2255	-33.465837	0.000355	3.546842	1.201703	0.000142
1829	1.8189e+02	-7.1886	-33.348760	0.000294	2.938812	0.995697	0.000118
1830	1.8199e+02	-7.1436	-33.251869	0.000243	2.432121	0.824025	0.000097
1831	1.8209e+02	-7.1035	-33.086346	0.000415	4.154873	1.407709	0.000166
1832	1.8218e+02	-7.0586	-32.953120	0.000334	3.344166	1.133034	0.000134
1833	1.8228e+02	-7.0281	-32.832006	0.000304	3.040151	1.030031	0.000122
1834	1.8238e+02	-6.9768	-32.706855	0.000314	3.141489	1.064365	0.000126
1835	1.8248e+02	-6.9447	-32.569593	0.000345	3.445504	1.167368	0.000138
1836	1.8258e+02	-6.9062	-32.452516	0.000294	2.938812	0.995697	0.000118
1837	1.8268e+02	-6.8645	-32.331402	0.000304	3.040151	1.030031	0.000122
1838	1.8278e+02	-6.8276	-32.202213	0.000324	3.242827	1.098700	0.000130
1839	1.8288e+02	-6.7971	-32.048802	0.000385	3.850857	1.304706	0.000154
1840	1.8298e+02	-6.7442	-31.931725	0.000294	2.938812	0.995697	0.000118
1841	1.8308e+02	-6.7089	-31.790425	0.000355	3.546842	1.201703	0.000142
1842	1.8318e+02	-6.6624	-31.661237	0.000324	3.242827	1.098700	0.000130
1843	1.8328e+02	-6.6239	-31.532049	0.000324	3.242827	1.098700	0.000130
1844	1.8338e+02	-6.5854	-31.414972	0.000294	2.938812	0.995697	0.000118
1845	1.8348e+02	-6.5501	-31.253486	0.000405	4.053534	1.373375	0.000162
1846	1.8358e+02	-6.4955	-31.160632	0.000233	2.330782	0.789690	0.000093
1847	1.8368e+02	-6.4618	-30.995110	0.000415	4.154873	1.407709	0.000166
1848	1.8378e+02	-6.4314	-30.878033	0.000294	2.938812	0.995697	0.000118
1849	1.8388e+02	-6.3897	-30.736733	0.000355	3.546842	1.201703	0.000142
1850	1.8398e+02	-6.3463	-30.595433	0.000355	3.546842	1.201703	0.000142
1851	1.8407e+02	-6.3078	-30.478356	0.000294	2.938812	0.995697	0.000118
1852	1.8417e+02	-6.2758	-30.361279	0.000294	2.938812	0.995697	0.000118
1853	1.8427e+02	-6.2212	-30.207868	0.000385	3.850857	1.304706	0.000154
1854	1.8437e+02	-6.1875	-30.054457	0.000385	3.850857	1.304706	0.000154
1855	1.8447e+02	-6.1554	-29.941417	0.000284	2.837474	0.961362	0.000114
1856	1.8457e+02	-6.1121	-29.800117	0.000355	3.546842	1.201703	0.000142
1857	1.8467e+02	-6.0736	-29.703226	0.000243	2.432121	0.824025	0.000097
1858	1.8477e+02	-6.0271	-29.541741	0.000405	4.053534	1.373375	0.000162
1859	1.8487e+02	-5.9918	-29.416590	0.000314	3.141489	1.064365	0.000126
1860	1.8497e+02	-5.9501	-29.283364	0.000334	3.344166	1.133034	0.000134
1861	1.8507e+02	-5.9084	-29.142064	0.000355	3.546842	1.201703	0.000142
1862	1.8517e+02	-5.8731	-28.984616	0.000395	3.952196	1.339040	0.000158
1863	1.8527e+02	-5.8378	-28.875613	0.000274	2.736136	0.927028	0.000110
1864	1.8537e+02	-5.7929	-28.742388	0.000334	3.344166	1.133034	0.000134
1865	1.8547e+02	-5.7480	-28.580902	0.000405	4.053534	1.373375	0.000162
1866	1.8557e+02	-5.7143	-28.439603	0.000355	3.546842	1.201703	0.000142
1867	1.8567e+02	-5.6662	-28.330600	0.000274	2.736136	0.927028	0.000110
1868	1.8577e+02	-5.6276	-28.177189	0.000385	3.850857	1.304706	0.000154
1869	1.8587e+02	-5.5924	-28.048001	0.000324	3.242827	1.098700	0.000130
1870	1.8597e+02	-5.5474	-27.967258	0.000203	2.026767	0.686687	0.000081
1871	1.8606e+02	-5.5121	-27.785587	0.000456	4.560226	1.545046	0.000183
1872	1.8616e+02	-5.4672	-27.672547	0.000284	2.837474	0.961362	0.000114
1873	1.8626e+02	-5.4351	-27.535284	0.000345	3.445504	1.167368	0.000138
1874	1.8636e+02	-5.3918	-27.458579	0.000193	1.925429	0.652353	0.000077
1875	1.8646e+02	-5.3549	-27.248648	0.000527	5.269594	1.785387	0.000211
1876	1.8656e+02	-5.3068	-27.139645	0.000274	2.736136	0.927028	0.000110
1877	1.8666e+02	-5.2747	-26.978160	0.000405	4.053534	1.373375	0.000162
1878	1.8676e+02	-5.2314	-26.840897	0.000345	3.445504	1.167368	0.000138
1879	1.8686e+02	-5.1945	-26.723820	0.000294	2.938812	0.995697	0.000118
1880	1.8696e+02	-5.1496	-26.550223	0.000436	4.357549	1.476378	0.000174
1881	1.8706e+02	-5.1079	-26.437183	0.000284	2.837474	0.961362	0.000114
1882	1.8716e+02	-5.0726	-26.291846	0.000365	3.648181	1.236037	0.000146
1883	1.8726e+02	-5.0277	-26.203030	0.000223	2.229444	0.755356	0.000089
1884	1.8736e+02	-4.9892	-26.029433	0.000436	4.357549	1.476378	0.000174
1885	1.8746e+02	-4.9539	-25.871984	0.000395	3.952196	1.339040	0.000158
1886	1.8756e+02	-4.9154	-25.762982	0.000274	2.736136	0.927028	0.000110
1887	1.8766e+02	-4.8721	-25.617645	0.000365	3.648181	1.236037	0.000146
1888	1.8776e+02	-4.8336	-25.435974	0.000456	4.560226	1.545046	0.000183
1889	1.8786e+02	-4.7902	-25.318897	0.000294	2.938812	0.995697	0.000118
1890	1.8796e+02	-4.7517	-25.201820	0.000294	2.938812	0.995697	0.000118
1891	1.8806e+02	-4.7132	-25.036297	0.000415	4.154873	1.407709	0.000166
1892	1.8815e+02	-4.6763	-24.919220	0.000294	2.938812	0.995697	0.000118
1893	1.8825e+02	-4.6298	-24.761772	0.000395	3.952196	1.339040	0.000158
1894	1.8835e+02	-4.6041	-24.644695	0.000294	2.938812	0.995697	0.000118
1895	1.8845e+02	-4.5496	-24.467061	0.000446	4.458888	1.510712	0.000179
1896	1.8855e+02	-4.5223	-24.333836	0.000334	3.344166	1.133034	0.000134
1897	1.8865e+02	-4.4758	-24.188499	0.000365	3.648181	1.236037	0.000146
1898	1.8875e+02	-4.4357	-24.035088	0.000385	3.850857	1.304706	0.000154
1899	1.8885e+02	-4.3956	-23.889751	0.000365	3.648181	1.236037	0.000146
1900	1.8895e+02	-4.3603	-23.752488	0.000345	3.445504	1.167368	0.000138
1901	1.8905e+02	-4.3202	-23.611188	0.000355	3.546842	1.201703	0.000142
1902	1.8915e+02	-4.2737	-23.498149	0.000284	2.837474	0.961362	0.000114
1903	1.8925e+02	-4.2384	-23.304366	0.000486	4.864241	1.648049	0.000195
1904	1.8935e+02	-4.1967	-23.203438	0.000253	2.533459	0.858359	0.000101
1905	1.8945e+02	-4.1566	-23.025804	0.000446	4.458888	1.510712	0.000179
1906	1.8955e+02	-4.1165	-22.884504	0.000355	3.546842	1.201703	0.000142
1907	1.8965e+02	-4.0780	-22.763390	0.000304	3.040151	1.030031	0.000122
1908	1.8975e+02	-4.0379	-22.638239	0.000314	3.141489	1.064365	0.000126
1909	1.8985e+02	-3.9977	-22.529236	0.000274	2.736136	0.927028	0.000110
1910	1.8995e+02	-3.9592	-22.331416	0.000497	4.965579	1.682384	0.000199
1911	1.9004e+02	-3.9240	-22.194154	0.000345	3.445504	1.167368	0.000138
1912	1.9014e+02	-3.8726	-22.052854	0.000355	3.546842	1.201703	0.000142
1913	1.9024e+02	-3.8309	-21.895406	0.000395	3.952196	1.339040	0.000158
1914	1.9034e+02	-3.7876	-21.754106	0.000355	3.546842	1.201703	0.000142
1915	1.9044e+02	-3.7651	-21.624918	0.000324	3.242827	1.098700	0.000130
1916	1.9054e+02	-3.7170	-21.459395	0.000415	4.154873	1.407709	0.000166
1917	1.9064e+02	-3.6769	-21.314058	0.000365	3.648181	1.236037	0.000146
1918	1.9074e+02	-3.6400	-21.184870	0.000324	3.242827	1.098700	0.000130
1919	1.9084e+02	-3.5999	-21.019347	0.000415	4.154873	1.407709	0.000166
1920	1.9094e+02	-3.5566	-20.914382	0.000263	2.634797	0.892693	0.000105
1921	1.9104e+02	-3.5261	-20.720599	0.000486	4.864241	1.648049	0.000195
1922	1.9114e+02	-3.4780	-20.599485	0.000304	3.040151	1.030031	0.000122
1923	1.9124e+02	-3.4411	-20.502594	0.000243	2.432121	0.824025	0.000097
1924	1.9134e+02	-3.4010	-20.349183	0.000385	3.850857	1.304706	0.000154
1925	1.9144e+02	-3.3673	-20.179623	0.000426	4.256211	1.442043	0.000170
1926	1.9154e+02	-3.3176	-20.026212	0.000385	3.850857	1.304706	0.000154
1927	1.9164e+02	-3.2678	-19.884912	0.000355	3.546842	1.201703	0.000142
1928	1.9174e+02	-3.2406	-19.735538	0.000375	3.749519	1.270371	0.000150
1929	1.9184e+02	-3.2197	-19.626535	0.000274	2.736136	0.927028	0.000110
1930	1.9194e+02	-3.1603	-19.477161	0.000375	3.749519	1.270371	0.000150
1931	1.9203e+02	-3.1218	-19.343936	0.000334	3.344166	1.133034	0.000134
1932	1.9213e+02	-3.0833	-19.190525	0.000385	3.850857	1.304706	0.000154
1933	1.9223e+02	-3.0432	-19.049225	0.000355	3.546842	1.201703	0.000142
1934	1.9233e+02	-2.9951	-18.859480	0.000476	4.762903	1.613715	0.000191
1935	1.9243e+02	-2.9662	-18.718180	0.000355	3.546842	1.201703	0.000142
1936	1.9253e+02	-2.9277	-18.584954	0.000334	3.344166	1.133034	0.000134
1937	1.9263e+02	-2.8828	-18.467877	0.000294	2.938812	0.995697	0.000118
1938	1.9273e+02	-2.8411	-18.318503	0.000375	3.749519	1.270371	0.000150
1939	1.9283e+02	-2.7978	-18.140869	0.000446	4.458888	1.510712	0.000179
1940	1.9293e+02	-2.7625	-18.052052	0.000223	2.229444	0.755356	0.000089
1941	1.9303e+02	-2.7192	-17.858270	0.000486	4.864241	1.648049	0.000195
1942	1.9313e+02	-2.6791	-17.700822	0.000395	3.952196	1.339040	0.000158
1943	1.9323e+02	-2.6406	-17.571633	0.000324	3.242827	1.098700	0.000130
1944	1.9333e+02	-2.5973	-17.442445	0.000324	3.242827	1.098700	0.000130
1945	1.9343e+02	-2.5748	-17.280960	0.000405	4.053534	1.373375	0.000162
1946	1.9353e+02	-2.5315	-17.147734	0.000334	3.344166	1.133034	0.000134
1947	1.9363e+02	-2.4817	-16.978174	0.000426	4.256211	1.442043	0.000170
1948	1.9373e+02	-2.4384	-16.848986	0.000324	3.242827	1.098700	0.000130
1949	1.9383e+02	-2.4080	-16.679426	0.000426	4.256211	1.442043	0.000170
1950	1.9393e+02	-2.3582	-16.534089	0.000365	3.648181	1.236037	0.000146
1951	1.9403e+02	-2.3245	-16.380678	0.000385	3.850857	1.304706	0.000154
1952	1.9412e+02	-2.2876	-16.227267	0.000385	3.850857	1.304706	0.000154
1953	1.9422e+02	-2.2459	-16.134413	0.000233	2.330782	0.789690	0.000093
1954	1.9432e+02	-2.2058	-15.948705	0.000466	4.661564	1.579381	0.000187
1955	1.9442e+02	-2.1769	-15.787219	0.000405	4.053534	1.373375	0.000162
1956	1.9452e+02	-2.1192	-15.621697	0.000415	4.154873	1.407709	0.000166
1957	1.9462e+02	-2.0791	-15.472323	0.000375	3.749519	1.270371	0.000150
1958	1.9472e+02	-2.0438	-15.326986	0.000365	3.648181	1.236037	0.000146
1959	1.9482e+02	-1.9989	-15.181649	0.000365	3.648181	1.236037	0.000146
1960	1.9492e+02	-1.9716	-15.036312	0.000365	3.648181	1.236037	0.000146
1961	1.9502e+02	-1.9267	-14.858678	0.000446	4.458888	1.510712	0.000179
1962	1.9512e+02	-1.8898	-14.725453	0.000334	3.344166	1.133034	0.000134
1963	1.9522e+02	-1.8433	-14.523596	0.000507	5.066918	1.716718	0.000203
1964	1.9532e+02	-1.8080	-14.479187	0.000111	1.114722	0.377678	0.000045
1965	1.9542e+02	-1.7679	-14.293479	0.000466	4.661564	1.579381	0.000187
1966	1.9552e+02	-1.7310	-14.107771	0.000466	4.661564	1.579381	0.000187
1967	1.9562e+02	-1.6796	-13.966471	0.000355	3.546842	1.201703	0.000142
1968	1.9572e+02	-1.6475	-13.837283	0.000324	3.242827	1.098700	0.000130
1969	1.9582e+02	-1.6042	-13.687909	0.000375	3.749519	1.270371	0.000150
1970	1.9592e+02	-1.5689	-13.530460	0.000395	3.952196	1.339040	0.000158
1971	1.9601e+02	-1.5272	-13.405309	0.000314	3.141489	1.064365	0.000126
1972	1.9611e+02	-1.4839	-13.227675	0.000446	4.458888	1.510712	0.000179
1973	1.9621e+02	-1.4438	-13.114635	0.000284	2.837474	0.961362	0.000114
1974	1.9631e+02	-1.4069	-12.969299	0.000365	3.648181	1.236037	0.000146
1975	1.9641e+02	-1.3732	-12.836073	0.000334	3.344166	1.133034	0.000134
1976	1.9651e+02	-1.3283	-12.666513	0.000426	4.256211	1.442043	0.000170
1977	1.9661e+02	-1.2770	-12.521176	0.000365	3.648181	1.236037	0.000146
1978	1.9671e+02	-1.2481	-12.363728	0.000395	3.952196	1.339040	0.000158
1979	1.9681e+02	-1.2032	-12.230503	0.000334	3.344166	1.133034	0.000134
1980	1.9691e+02	-1.1567	-12.069017	0.000405	4.053534	1.373375	0.000162
1981	1.9701e+02	-1.1294	-11.883309	0.000466	4.661564	1.579381	0.000187
1982	1.9711e+02	-1.0861	-11.766232	0.000294	2.938812	0.995697	0.000118
1983	1.9721e+02	-1.0476	-11.633007	0.000334	3.344166	1.133034	0.000134
1984	1.9731e+02	-1.0123	-11.463447	0.000426	4.256211	1.442043	0.000170
1985	1.9741e+02	-0.9674	-11.318110	0.000365	3.648181	1.236037	0.000146
1986	1.9751e+02	-0.9272	-11.172773	0.000365	3.648181	1.236037	0.000146
1987	1.9761e+02	-0.8743	-11.019362	0.000385	3.850857	1.304706	0.000154
1988	1.9771e+02	-0.8535	-10.865951	0.000385	3.850857	1.304706	0.000154
1989	1.9781e+02	-0.8117	-10.724651	0.000355	3.546842	1.201703	0.000142
1990	1.9791e+02	-0.7572	-10.607574	0.000294	2.938812	0.995697	0.000118
1991	1.9800e+02	-0.7331	-10.421866	0.000466	4.661564	1.579381	0.000187
1992	1.9810e+02	-0.6866	-10.280566	0.000355	3.546842	1.201703	0.000142
1993	1.9820e+02	-0.6513	-10.151378	0.000324	3.242827	1.098700	0.000130
1994	1.9830e+02	-0.6128	-9.945484	0.000517	5.168256	1.751053	0.000207
1995	1.9840e+02	-0.5743	-9.824370	0.000304	3.040151	1.030031	0.000122
1996	1.9850e+02	-0.5246	-9.687107	0.000345	3.445504	1.167368	0.000138
1997	1.9860e+02	-0.4877	-9.521585	0.000415	4.154873	1.407709	0.000166
1998	1.9870e+02	-0.4524	-9.372211	0.000375	3.749519	1.270371	0.000150
1999	1.9880e+02	-0.4107	-9.218799	0.000385	3.850857	1.304706	0.000154
2000	1.9890e+02	-0.3674	-9.085574	0.000334	3.344166	1.133034	0.000134
2001	1.9900e+02	-0.3289	-8.899866	0.000466	4.661564	1.579381	0.000187
2002	1.9910e+02	-0.2775	-8.770677	0.000324	3.242827	1.098700	0.000130
2003	1.9920e+02	-0.2454	-8.601118	0.000426	4.256211	1.442043	0.000170
2004	1.9930e+02	-0.2102	-8.467892	0.000334	3.344166	1.133034	0.000134
2005	1.9940e+02	-0.1829	-8.306407	0.000405	4.053534	1.373375	0.000162
2006	1.9950e+02	-0.1348	-8.124736	0.000456	4.560226	1.545046	0.000183
2007	1.9960e+02	-0.0866	-8.007659	0.000294	2.938812	0.995697	0.000118
2008	1.9970e+02	-0.0497	-7.870396	0.000345	3.445504	1.167368	0.000138
2009	1.9980e+02	-0.0112	-7.716985	0.000345	3.445504	1.167368	0.000154

Center data before PMax,+/-Pr and +/-Vc Calc.

PMax (uC/cm2):	6.80e+01
Pr (uC/cm2):	2.82e+00
-Pr (uC/cm2):	-7.72e+00
PLoss (uC/cm2):	-5.77e+00
Vc:	5.60e-01
-Vc:	-7.33e-01
C (Max-Eff) (nF):	3.40e-01
K (Eff):	1.15e+03
Vert. (+/-Pr) Shift (uC/cm2):	-2.45e+00
Horiz. Shift (+/-Vc):	-8.63e-02
Offset (uC/cm2):	1.93e+00

A (Loop Area - uC/cm2·Volts):	4.01e-02



Hysteresis Version: 5.48.1 - Radiant Technologies, Inc., 1999 - 9/12/24

