»»»»»»»»»»»»»»»»»»»»»»»»»»»»»»»»»»»» Hysteresis ««««««««««««««««««««««««««««««««««««
»»»  Executed Version:	5.48.1
»»»  Vision Version:	5.48.4 (R)
»»»  Vision Compiled:	9/18/24
»»»  Driver Version:	5.47.0
»»»  Windows Version:	Windows 8 or 8.1
»»»  Processor Information:	x86 (AMD or Intel) - 32 Processors
»»»  Tester Name:	PMF21124-494 (100V)
»»»  Tester S/N:	PMF21124-494
»»»  Internal Amp Type:	100V RevK 270k
»»»  Internal Amp S/N:	iAB2-596/K     
»»»  Execution Count:	1
»»»»»»»»»»»»»»»»»»»»»»»»»»»»»»»»»»»»»»»»»»««««««««««««««««««««««««««««««««««««««««««

Stored:	6/4/2025 - 13:52:23
Configured:	06/04/25 01:46:06 PM
Executed:	06/04/25 01:51:39 PM

»»»»»»»»»»»»»»»»»»»»»»»»»»»»»»»»»»» Sample Info ««««««««««««««««««««««««««««««««««««
Sample Name:	
Lot Name:	
Wafer Name:	
Die Row/Column:	0/0
Capacitor Number:	0
Sample Area (cm2):	1.00e-04
Sample Thickness (microns):	3.00e-01

Amplifier:	Internal

»»»»»»»»»»»»»»»»»»»»»»»»»»»»»»»»»»» Tester Info «««««««««««««««««««««««««««««««««««
Tester Name:	PMF21124-494 (100V)
Tester Serial Number:	PMF21124-494
Return Signal Amp. Level:	0.19 [Index: 3]

»»»»»»»»»»»»»»»»»»»»»»»»»»»»»»»» Hysteresis Info ««««««««««««««««««««««««««««««««««
Task Name:	Hyst-37
Volts:	20.00
Field:	666.67 (kV/cm)
DCBias:	0.00
DCField:	0.00 (kV/cm)
Hysteresis Period (ms):	2.00e+02
Preset:	Enabled
Preset Delay (ms):	1.00e+03
Profile:	Standard Bipolar

»»»»»»»»»»»»»»»»»»»»»»»»»»»»»»»»»»»»»» Data «««««««««««««««««««««««««««««««««««««««
Points:	2009

Valid Data

Point	Time (ms)	Drive Voltage	Measured Polarization (uC/cm2)	Capacitance (uF)	Normalized Capacitance (uF/cm2)	Dielectric Constant	Instantaneous Current (mA)
   1	0.0000e+00	-0.0321	-3.845372	0.000213	2.128660	0.721210	0.000085
   2	9.9500e-02	0.0000	-3.760592	0.000213	2.128660	0.721210	0.000085
   3	1.9900e-01	0.0497	-3.623329	0.000345	3.446403	1.167673	0.000138
   4	2.9850e-01	0.0802	-3.473955	0.000375	3.750497	1.270703	0.000150
   5	3.9800e-01	0.1219	-3.336693	0.000345	3.446403	1.167673	0.000138
   6	4.9750e-01	0.1620	-3.167133	0.000426	4.257321	1.442419	0.000170
   7	5.9700e-01	0.2069	-3.005648	0.000405	4.054591	1.373733	0.000162
   8	6.9650e-01	0.2406	-2.791679	0.000537	5.372333	1.820196	0.000215
   9	7.9600e-01	0.2727	-2.593860	0.000497	4.966874	1.682823	0.000199
  10	8.9550e-01	0.3192	-2.436411	0.000395	3.953226	1.339389	0.000158
  11	9.9500e-01	0.3674	-2.278963	0.000395	3.953226	1.339389	0.000158
  12	1.0945e+00	0.3978	-2.145738	0.000335	3.345038	1.133329	0.000134
  13	1.1940e+00	0.4428	-1.919658	0.000568	5.676428	1.923226	0.000227
  14	1.2935e+00	0.4781	-1.758173	0.000405	4.054591	1.373733	0.000162
  15	1.3930e+00	0.5150	-1.584576	0.000436	4.358686	1.476763	0.000174
  16	1.4925e+00	0.5535	-1.410979	0.000436	4.358686	1.476763	0.000174
  17	1.5920e+00	0.6000	-1.225271	0.000466	4.662780	1.579793	0.000187
  18	1.6915e+00	0.6465	-1.015340	0.000527	5.270969	1.785853	0.000211
  19	1.7910e+00	0.6738	-0.861928	0.000385	3.851862	1.305046	0.000154
  20	1.8905e+00	0.7187	-0.708517	0.000385	3.851862	1.305046	0.000154
  21	1.9900e+00	0.7668	-0.555106	0.000385	3.851862	1.305046	0.000154
  22	2.0895e+00	0.8005	-0.377472	0.000446	4.460050	1.511106	0.000179
  23	2.1890e+00	0.8406	-0.203875	0.000436	4.358686	1.476763	0.000174
  24	2.2885e+00	0.8775	-0.014130	0.000476	4.764145	1.614136	0.000191
  25	2.3880e+00	0.9144	0.195801	0.000527	5.270969	1.785853	0.000211
  26	2.4875e+00	0.9625	0.316915	0.000304	3.040943	1.030300	0.000122
  27	2.5870e+00	0.9994	0.478401	0.000405	4.054591	1.373733	0.000162
  28	2.6865e+00	1.0363	0.627775	0.000375	3.750497	1.270703	0.000150
  29	2.7860e+00	1.0764	0.744852	0.000294	2.939579	0.995956	0.000118
  30	2.8855e+00	1.1230	0.942671	0.000497	4.966874	1.682823	0.000199
  31	2.9850e+00	1.1615	1.027451	0.000213	2.128660	0.721210	0.000085
  32	3.0845e+00	1.1919	1.233345	0.000517	5.169604	1.751509	0.000207
  33	3.1840e+00	1.2369	1.406942	0.000436	4.358686	1.476763	0.000174
  34	3.2835e+00	1.2738	1.503833	0.000243	2.432755	0.824240	0.000097
  35	3.3830e+00	1.3123	1.669356	0.000416	4.155956	1.408076	0.000166
  36	3.4825e+00	1.3524	1.766247	0.000243	2.432755	0.824240	0.000097
  37	3.5820e+00	1.4069	1.859101	0.000233	2.331390	0.789896	0.000093
  38	3.6815e+00	1.4406	1.951955	0.000233	2.331390	0.789896	0.000093
  39	3.7810e+00	1.4759	2.069032	0.000294	2.939579	0.995956	0.000118
  40	3.8805e+00	1.5240	2.157849	0.000223	2.230025	0.755553	0.000089
  41	3.9800e+00	1.5625	2.238592	0.000203	2.027296	0.686866	0.000081
  42	4.0795e+00	1.5914	2.331446	0.000233	2.331390	0.789896	0.000093
  43	4.1790e+00	1.6443	2.484857	0.000385	3.851862	1.305046	0.000154
  44	4.2785e+00	1.6877	2.573674	0.000223	2.230025	0.755553	0.000089
  45	4.3780e+00	1.7149	2.597897	0.000061	0.608189	0.206060	0.000024
  46	4.4775e+00	1.7566	2.597897	0.000000	0.000000	0.000000	0.000000
  47	4.5770e+00	1.7951	2.614045	0.000041	0.405459	0.137373	0.000016
  48	4.6765e+00	1.8320	2.642305	0.000071	0.709553	0.240403	0.000028
  49	4.7760e+00	1.8866	2.622120	-0.000051	-0.506824	-0.171717	-0.000020
  50	4.8755e+00	1.9026	2.638268	0.000041	0.405459	0.137373	0.000016
  51	4.9750e+00	1.9540	2.642305	0.000010	0.101365	0.034343	0.000004
  52	5.0745e+00	1.9957	2.634231	-0.000020	-0.202730	-0.068687	-0.000008
  53	5.1740e+00	2.0374	2.662491	0.000071	0.709553	0.240403	0.000028
  54	5.2735e+00	2.0743	2.723048	0.000152	1.520472	0.515150	0.000061
  55	5.3730e+00	2.1192	2.690751	-0.000081	-0.810918	-0.274747	-0.000032
  56	5.4725e+00	2.1593	2.739197	0.000122	1.216377	0.412120	0.000049
  57	5.5720e+00	2.1962	2.743234	0.000010	0.101365	0.034343	0.000004
  58	5.6715e+00	2.2411	2.714974	-0.000071	-0.709553	-0.240403	-0.000028
  59	5.7710e+00	2.2844	2.755345	0.000101	1.013648	0.343433	0.000041
  60	5.8705e+00	2.3197	2.751308	-0.000010	-0.101365	-0.034343	-0.000004
  61	5.9700e+00	2.3550	2.747271	-0.000010	-0.101365	-0.034343	-0.000004
  62	6.0695e+00	2.4015	2.767457	0.000051	0.506824	0.171717	0.000020
  63	6.1690e+00	2.4368	2.799754	0.000081	0.810918	0.274747	0.000032
  64	6.2685e+00	2.4689	2.844162	0.000112	1.115013	0.377776	0.000045
  65	6.3680e+00	2.5106	2.823976	-0.000051	-0.506824	-0.171717	-0.000020
  66	6.4675e+00	2.5507	2.872422	0.000122	1.216377	0.412120	0.000049
  67	6.5670e+00	2.5956	2.924905	0.000132	1.317742	0.446463	0.000053
  68	6.6665e+00	2.6374	3.086390	0.000405	4.054591	1.373733	0.000162
  69	6.7660e+00	2.6775	4.539759	0.003649	36.491321	12.363594	0.001461
  70	6.8655e+00	2.7192	8.419447	0.009741	97.411554	33.003928	0.003899
  71	6.9650e+00	2.7545	8.681860	0.000659	6.588711	2.232316	0.000264
  72	7.0645e+00	2.7930	8.911977	0.000578	5.777793	1.957569	0.000231
  73	7.1640e+00	2.8347	9.109797	0.000497	4.966874	1.682823	0.000199
  74	7.2635e+00	2.8700	9.360099	0.000628	6.284616	2.129286	0.000252
  75	7.3630e+00	2.9181	9.360099	0.000000	0.000000	0.000000	0.000000
  76	7.4625e+00	2.9486	9.380285	0.000051	0.506824	0.171717	0.000020
  77	7.5620e+00	2.9871	9.388359	0.000020	0.202730	0.068687	0.000008
  78	7.6615e+00	3.0272	9.380285	-0.000020	-0.202730	-0.068687	-0.000008
  79	7.7610e+00	3.0705	9.412582	0.000081	0.810918	0.274747	0.000032
  80	7.8605e+00	3.1170	9.404508	-0.000020	-0.202730	-0.068687	-0.000008
  81	7.9600e+00	3.1507	9.376248	-0.000071	-0.709553	-0.240403	-0.000028
  82	8.0595e+00	3.1892	9.388359	0.000030	0.304094	0.103030	0.000012
  83	8.1590e+00	3.2341	9.380285	-0.000020	-0.202730	-0.068687	-0.000008
  84	8.2585e+00	3.2823	9.392396	0.000030	0.304094	0.103030	0.000012
  85	8.3580e+00	3.3176	9.420656	0.000071	0.709553	0.240403	0.000028
  86	8.4575e+00	3.3464	9.372211	-0.000122	-1.216377	-0.412120	-0.000049
  87	8.5570e+00	3.3881	9.420656	0.000122	1.216377	0.412120	0.000049
  88	8.6565e+00	3.4347	9.424693	0.000010	0.101365	0.034343	0.000004
  89	8.7560e+00	3.4700	9.416619	-0.000020	-0.202730	-0.068687	-0.000008
  90	8.8555e+00	3.5085	9.440842	0.000061	0.608189	0.206060	0.000024
  91	8.9550e+00	3.5470	9.452953	0.000030	0.304094	0.103030	0.000012
  92	9.0545e+00	3.5999	9.448916	-0.000010	-0.101365	-0.034343	-0.000004
  93	9.1540e+00	3.6320	9.469102	0.000051	0.506824	0.171717	0.000020
  94	9.2535e+00	3.6673	9.493325	0.000061	0.608189	0.206060	0.000024
  95	9.3530e+00	3.7074	9.477176	-0.000041	-0.405459	-0.137373	-0.000016
  96	9.4525e+00	3.7475	9.513510	0.000091	0.912283	0.309090	0.000037
  97	9.5520e+00	3.7892	9.537733	0.000061	0.608189	0.206060	0.000024
  98	9.6515e+00	3.8213	9.586179	0.000122	1.216377	0.412120	0.000049
  99	9.7510e+00	3.8614	9.630587	0.000112	1.115013	0.377776	0.000045
 100	9.8505e+00	3.9159	9.650773	0.000051	0.506824	0.171717	0.000020
 101	9.9500e+00	3.9432	9.711330	0.000152	1.520472	0.515150	0.000061
 102	1.0050e+01	3.9929	9.751701	0.000101	1.013648	0.343433	0.000041
 103	1.0149e+01	4.0250	9.763813	0.000030	0.304094	0.103030	0.000012
 104	1.0248e+01	4.0764	9.860704	0.000243	2.432755	0.824240	0.000097
 105	1.0348e+01	4.1100	9.937410	0.000193	1.925931	0.652523	0.000077
 106	1.0447e+01	4.1469	9.977781	0.000101	1.013648	0.343433	0.000041
 107	1.0547e+01	4.1951	10.034301	0.000142	1.419107	0.480806	0.000057
 108	1.0646e+01	4.2255	10.139266	0.000264	2.635484	0.892926	0.000105
 109	1.0746e+01	4.2769	10.228083	0.000223	2.230025	0.755553	0.000089
 110	1.0845e+01	4.3074	10.256343	0.000071	0.709553	0.240403	0.000028
 111	1.0945e+01	4.3507	10.333049	0.000193	1.925931	0.652523	0.000077
 112	1.1044e+01	4.3876	10.429940	0.000243	2.432755	0.824240	0.000097
 113	1.1144e+01	4.4357	10.490497	0.000152	1.520472	0.515150	0.000061
 114	1.1243e+01	4.4678	10.607574	0.000294	2.939579	0.995956	0.000118
 115	1.1343e+01	4.5015	10.712540	0.000264	2.635484	0.892926	0.000105
 116	1.1443e+01	4.5496	10.817505	0.000264	2.635484	0.892926	0.000105
 117	1.1542e+01	4.5817	10.946694	0.000324	3.243673	1.098986	0.000130
 118	1.1642e+01	4.6250	11.075882	0.000324	3.243673	1.098986	0.000130
 119	1.1741e+01	4.6587	11.253516	0.000446	4.460050	1.511106	0.000179
 120	1.1841e+01	4.7068	11.447298	0.000487	4.865509	1.648479	0.000195
 121	1.1940e+01	4.7437	11.649155	0.000507	5.068239	1.717166	0.000203
 122	1.2040e+01	4.7886	11.766232	0.000294	2.939579	0.995956	0.000118
 123	1.2139e+01	4.8031	11.907532	0.000355	3.547767	1.202016	0.000142
 124	1.2239e+01	4.8688	12.133611	0.000568	5.676428	1.923226	0.000227
 125	1.2338e+01	4.9009	12.270874	0.000345	3.446403	1.167673	0.000138
 126	1.2438e+01	4.9539	12.412174	0.000355	3.547767	1.202016	0.000142
 127	1.2537e+01	4.9844	12.618068	0.000517	5.169604	1.751509	0.000207
 128	1.2636e+01	5.0293	12.763405	0.000365	3.649132	1.236359	0.000146
 129	1.2736e+01	5.0630	12.969299	0.000517	5.169604	1.751509	0.000207
 130	1.2835e+01	5.1047	13.155007	0.000466	4.662780	1.579793	0.000187
 131	1.2935e+01	5.1480	13.328604	0.000436	4.358686	1.476763	0.000174
 132	1.3034e+01	5.1881	13.469903	0.000355	3.547767	1.202016	0.000142
 133	1.3134e+01	5.2250	13.647537	0.000446	4.460050	1.511106	0.000179
 134	1.3233e+01	5.2683	13.845357	0.000497	4.966874	1.682823	0.000199
 135	1.3333e+01	5.3036	13.966471	0.000304	3.040943	1.030300	0.000122
 136	1.3432e+01	5.3517	14.172365	0.000517	5.169604	1.751509	0.000207
 137	1.3532e+01	5.3886	14.285405	0.000284	2.838214	0.961613	0.000114
 138	1.3632e+01	5.4191	14.511484	0.000568	5.676428	1.923226	0.000227
 139	1.3731e+01	5.4688	14.717378	0.000517	5.169604	1.751509	0.000207
 140	1.3831e+01	5.4977	14.959606	0.000608	6.081887	2.060599	0.000243
 141	1.3930e+01	5.5378	15.113018	0.000385	3.851862	1.305046	0.000154
 142	1.4030e+01	5.5891	15.298726	0.000466	4.662780	1.579793	0.000187
 143	1.4129e+01	5.6212	15.496546	0.000497	4.966874	1.682823	0.000199
 144	1.4229e+01	5.6629	15.698402	0.000507	5.068239	1.717166	0.000203
 145	1.4328e+01	5.6998	15.936593	0.000598	5.980522	2.026256	0.000239
 146	1.4428e+01	5.7399	16.130376	0.000487	4.865509	1.648479	0.000195
 147	1.4527e+01	5.7801	16.392790	0.000659	6.588711	2.232316	0.000264
 148	1.4627e+01	5.8202	16.582535	0.000476	4.764145	1.614136	0.000191
 149	1.4726e+01	5.8651	16.764206	0.000456	4.561415	1.545449	0.000183
 150	1.4825e+01	5.9068	16.945877	0.000456	4.561415	1.545449	0.000183
 151	1.4925e+01	5.9437	17.147734	0.000507	5.068239	1.717166	0.000203
 152	1.5024e+01	5.9822	17.345554	0.000497	4.966874	1.682823	0.000199
 153	1.5124e+01	6.0223	17.535299	0.000476	4.764145	1.614136	0.000191
 154	1.5223e+01	6.0528	17.749267	0.000537	5.372333	1.820196	0.000215
 155	1.5323e+01	6.1041	17.922864	0.000436	4.358686	1.476763	0.000174
 156	1.5422e+01	6.1394	18.165092	0.000608	6.081887	2.060599	0.000243
 157	1.5522e+01	6.1827	18.346763	0.000456	4.561415	1.545449	0.000183
 158	1.5621e+01	6.2276	18.560732	0.000537	5.372333	1.820196	0.000215
 159	1.5721e+01	6.2549	18.742403	0.000456	4.561415	1.545449	0.000183
 160	1.5820e+01	6.3014	19.045188	0.000760	7.602359	2.575749	0.000304
 161	1.5920e+01	6.3431	19.230896	0.000466	4.662780	1.579793	0.000187
 162	1.6020e+01	6.3897	19.452939	0.000558	5.575063	1.888882	0.000223
 163	1.6119e+01	6.4233	19.679018	0.000568	5.676428	1.923226	0.000227
 164	1.6218e+01	6.4618	19.925283	0.000618	6.183252	2.094942	0.000248
 165	1.6318e+01	6.4971	20.123103	0.000497	4.966874	1.682823	0.000199
 166	1.6418e+01	6.5356	20.377443	0.000639	6.385981	2.163629	0.000256
 167	1.6517e+01	6.5758	20.571225	0.000487	4.865509	1.648479	0.000195
 168	1.6616e+01	6.6207	20.760971	0.000476	4.764145	1.614136	0.000191
 169	1.6716e+01	6.6528	21.011273	0.000628	6.284616	2.129286	0.000252
 170	1.6816e+01	6.7041	21.225241	0.000537	5.372333	1.820196	0.000215
 171	1.6915e+01	6.7362	21.427098	0.000507	5.068239	1.717166	0.000203
 172	1.7015e+01	6.7827	21.612806	0.000466	4.662780	1.579793	0.000187
 173	1.7114e+01	6.8084	21.794477	0.000456	4.561415	1.545449	0.000183
 174	1.7213e+01	6.8661	22.028631	0.000588	5.879157	1.991912	0.000235
 175	1.7313e+01	6.8934	22.270859	0.000608	6.081887	2.060599	0.000243
 176	1.7413e+01	6.9463	22.472716	0.000507	5.068239	1.717166	0.000203
 177	1.7512e+01	6.9720	22.666499	0.000487	4.865509	1.648479	0.000195
 178	1.7611e+01	7.0153	22.880467	0.000537	5.372333	1.820196	0.000215
 179	1.7711e+01	7.0506	23.082324	0.000507	5.068239	1.717166	0.000203
 180	1.7811e+01	7.0907	23.348775	0.000669	6.690076	2.266659	0.000268
 181	1.7910e+01	7.1404	23.574854	0.000568	5.676428	1.923226	0.000227
 182	1.8009e+01	7.1789	23.809008	0.000588	5.879157	1.991912	0.000235
 183	1.8109e+01	7.2126	23.990679	0.000456	4.561415	1.545449	0.000183
 184	1.8209e+01	7.2559	24.249056	0.000649	6.487346	2.197972	0.000260
 185	1.8308e+01	7.2977	24.503395	0.000639	6.385981	2.163629	0.000256
 186	1.8407e+01	7.3329	24.685066	0.000456	4.561415	1.545449	0.000183
 187	1.8507e+01	7.3795	24.975740	0.000730	7.298264	2.472719	0.000292
 188	1.8607e+01	7.4164	25.201820	0.000568	5.676428	1.923226	0.000227
 189	1.8706e+01	7.4517	25.440011	0.000598	5.980522	2.026256	0.000239
 190	1.8805e+01	7.4934	25.641868	0.000507	5.068239	1.717166	0.000203
 191	1.8905e+01	7.5447	25.855836	0.000537	5.372333	1.820196	0.000215
 192	1.9005e+01	7.5736	26.017321	0.000405	4.054591	1.373733	0.000162
 193	1.9104e+01	7.6121	26.211104	0.000487	4.865509	1.648479	0.000195
 194	1.9203e+01	7.6618	26.421035	0.000527	5.270969	1.785853	0.000211
 195	1.9303e+01	7.6939	26.635003	0.000537	5.372333	1.820196	0.000215
 196	1.9402e+01	7.7324	26.836860	0.000507	5.068239	1.717166	0.000203
 197	1.9502e+01	7.7709	26.962011	0.000314	3.142308	1.064643	0.000126
 198	1.9602e+01	7.8110	27.127534	0.000416	4.155956	1.408076	0.000166
 199	1.9701e+01	7.8511	27.284982	0.000395	3.953226	1.339389	0.000158
 200	1.9800e+01	7.8912	27.543359	0.000649	6.487346	2.197972	0.000260
 201	1.9900e+01	7.9297	27.652361	0.000274	2.736849	0.927270	0.000110
 202	2.0000e+01	7.9827	27.793661	0.000355	3.547767	1.202016	0.000142
 203	2.0099e+01	8.0131	27.882478	0.000223	2.230025	0.755553	0.000089
 204	2.0198e+01	8.0468	27.999555	0.000294	2.939579	0.995956	0.000118
 205	2.0298e+01	8.0918	28.165077	0.000416	4.155956	1.408076	0.000166
 206	2.0398e+01	8.1383	28.245820	0.000203	2.027296	0.686866	0.000081
 207	2.0497e+01	8.1623	28.334637	0.000223	2.230025	0.755553	0.000089
 208	2.0596e+01	8.2137	28.431528	0.000243	2.432755	0.824240	0.000097
 209	2.0696e+01	8.2554	28.512271	0.000203	2.027296	0.686866	0.000081
 210	2.0796e+01	8.2923	28.645497	0.000335	3.345038	1.133329	0.000134
 211	2.0895e+01	8.3340	28.774685	0.000324	3.243673	1.098986	0.000130
 212	2.0994e+01	8.3661	28.948282	0.000436	4.358686	1.476763	0.000174
 213	2.1094e+01	8.4126	29.158213	0.000527	5.270969	1.785853	0.000211
 214	2.1194e+01	8.4575	29.396404	0.000598	5.980522	2.026256	0.000239
 215	2.1293e+01	8.4880	29.574038	0.000446	4.460050	1.511106	0.000179
 216	2.1392e+01	8.5361	34.810203	0.013147	131.470121	44.543283	0.005262
 217	2.1492e+01	8.5698	35.157397	0.000872	8.717371	2.953525	0.000349
 218	2.1591e+01	8.6067	35.367328	0.000527	5.270969	1.785853	0.000211
 219	2.1691e+01	8.6548	35.601482	0.000588	5.879157	1.991912	0.000235
 220	2.1791e+01	8.6885	35.795264	0.000487	4.865509	1.648479	0.000195
 221	2.1890e+01	8.7318	36.005195	0.000527	5.270969	1.785853	0.000211
 222	2.1989e+01	8.7687	36.223200	0.000547	5.473698	1.854539	0.000219
 223	2.2089e+01	8.8153	36.364500	0.000355	3.547767	1.202016	0.000142
 224	2.2189e+01	8.8425	36.562320	0.000497	4.966874	1.682823	0.000199
 225	2.2288e+01	8.8874	36.739954	0.000446	4.460050	1.511106	0.000179
 226	2.2387e+01	8.9308	36.913551	0.000436	4.358686	1.476763	0.000174
 227	2.2487e+01	8.9628	37.091185	0.000446	4.460050	1.511106	0.000179
 228	2.2587e+01	9.0126	37.305153	0.000537	5.372333	1.820196	0.000215
 229	2.2686e+01	9.0495	37.507010	0.000507	5.068239	1.717166	0.000203
 230	2.2785e+01	9.0832	37.624087	0.000294	2.939579	0.995956	0.000118
 231	2.2885e+01	9.1297	37.821906	0.000497	4.966874	1.682823	0.000199
 232	2.2985e+01	9.1698	38.019726	0.000497	4.966874	1.682823	0.000199
 233	2.3084e+01	9.2147	38.197360	0.000446	4.460050	1.511106	0.000179
 234	2.3183e+01	9.2516	38.326548	0.000324	3.243673	1.098986	0.000130
 235	2.3283e+01	9.2869	38.520331	0.000487	4.865509	1.648479	0.000195
 236	2.3383e+01	9.3350	38.685853	0.000416	4.155956	1.408076	0.000166
 237	2.3482e+01	9.3671	38.851376	0.000416	4.155956	1.408076	0.000166
 238	2.3581e+01	9.4056	39.033047	0.000456	4.561415	1.545449	0.000183
 239	2.3681e+01	9.4409	39.222792	0.000476	4.764145	1.614136	0.000191
 240	2.3780e+01	9.4874	39.408501	0.000466	4.662780	1.579793	0.000187
 241	2.3880e+01	9.5243	39.574023	0.000416	4.155956	1.408076	0.000166
 242	2.3980e+01	9.5725	39.727434	0.000385	3.851862	1.305046	0.000154
 243	2.4079e+01	9.6029	39.901031	0.000436	4.358686	1.476763	0.000174
 244	2.4178e+01	9.6495	40.131148	0.000578	5.777793	1.957569	0.000231
 245	2.4278e+01	9.6896	40.288596	0.000395	3.953226	1.339389	0.000158
 246	2.4378e+01	9.7217	40.389524	0.000253	2.534120	0.858583	0.000101
 247	2.4477e+01	9.7650	40.599456	0.000527	5.270969	1.785853	0.000211
 248	2.4576e+01	9.8083	40.789201	0.000476	4.764145	1.614136	0.000191
 249	2.4676e+01	9.8404	40.930501	0.000355	3.547767	1.202016	0.000142
 250	2.4776e+01	9.8837	41.144469	0.000537	5.372333	1.820196	0.000215
 251	2.4875e+01	9.9270	41.293843	0.000375	3.750497	1.270703	0.000150
 252	2.4974e+01	9.9687	41.423031	0.000324	3.243673	1.098986	0.000130
 253	2.5074e+01	10.0040	41.596628	0.000436	4.358686	1.476763	0.000174
 254	2.5174e+01	10.0425	41.770225	0.000436	4.358686	1.476763	0.000174
 255	2.5273e+01	10.0810	41.988230	0.000547	5.473698	1.854539	0.000219
 256	2.5372e+01	10.1179	42.105307	0.000294	2.939579	0.995956	0.000118
 257	2.5472e+01	10.1628	42.299090	0.000487	4.865509	1.648479	0.000195
 258	2.5572e+01	10.2061	42.472687	0.000436	4.358686	1.476763	0.000174
 259	2.5671e+01	10.2543	42.642246	0.000426	4.257321	1.442419	0.000170
 260	2.5770e+01	10.2815	42.815843	0.000436	4.358686	1.476763	0.000174
 261	2.5870e+01	10.3248	43.013663	0.000497	4.966874	1.682823	0.000199
 262	2.5970e+01	10.3633	43.138814	0.000314	3.142308	1.064643	0.000126
 263	2.6069e+01	10.4002	43.320485	0.000456	4.561415	1.545449	0.000183
 264	2.6169e+01	10.4387	43.486008	0.000416	4.155956	1.408076	0.000166
 265	2.6268e+01	10.4917	43.679790	0.000487	4.865509	1.648479	0.000195
 266	2.6367e+01	10.5157	43.813016	0.000335	3.345038	1.133329	0.000134
 267	2.6467e+01	10.5703	44.031021	0.000547	5.473698	1.854539	0.000219
 268	2.6567e+01	10.5992	44.164246	0.000335	3.345038	1.133329	0.000134
 269	2.6666e+01	10.6377	44.305546	0.000355	3.547767	1.202016	0.000142
 270	2.6765e+01	10.6810	44.511440	0.000517	5.169604	1.751509	0.000207
 271	2.6865e+01	10.7259	44.660814	0.000375	3.750497	1.270703	0.000150
 272	2.6965e+01	10.7644	44.850559	0.000476	4.764145	1.614136	0.000191
 273	2.7064e+01	10.7981	44.983785	0.000335	3.345038	1.133329	0.000134
 274	2.7163e+01	10.8350	45.173530	0.000476	4.764145	1.614136	0.000191
 275	2.7263e+01	10.8799	45.343090	0.000426	4.257321	1.442419	0.000170
 276	2.7363e+01	10.9280	45.548984	0.000517	5.169604	1.751509	0.000207
 277	2.7462e+01	10.9649	45.698358	0.000375	3.750497	1.270703	0.000150
 278	2.7561e+01	10.9970	45.867918	0.000426	4.257321	1.442419	0.000170
 279	2.7661e+01	11.0419	45.960772	0.000233	2.331390	0.789896	0.000093
 280	2.7761e+01	11.0756	46.194926	0.000588	5.879157	1.991912	0.000235
 281	2.7860e+01	11.1141	46.360448	0.000416	4.155956	1.408076	0.000166
 282	2.7959e+01	11.1590	46.525971	0.000416	4.155956	1.408076	0.000166
 283	2.8059e+01	11.2040	46.675345	0.000375	3.750497	1.270703	0.000150
 284	2.8159e+01	11.2409	46.869127	0.000487	4.865509	1.648479	0.000195
 285	2.8258e+01	11.2906	46.998316	0.000324	3.243673	1.098986	0.000130
 286	2.8358e+01	11.3066	47.196135	0.000497	4.966874	1.682823	0.000199
 287	2.8457e+01	11.3596	47.381844	0.000466	4.662780	1.579793	0.000187
 288	2.8556e+01	11.4013	47.515069	0.000335	3.345038	1.133329	0.000134
 289	2.8656e+01	11.4398	47.696740	0.000456	4.561415	1.545449	0.000183
 290	2.8756e+01	11.4783	47.846114	0.000375	3.750497	1.270703	0.000150
 291	2.8855e+01	11.5088	48.056045	0.000527	5.270969	1.785853	0.000211
 292	2.8954e+01	11.5713	48.173122	0.000294	2.939579	0.995956	0.000118
 293	2.9054e+01	11.5906	48.358830	0.000466	4.662780	1.579793	0.000187
 294	2.9154e+01	11.6371	48.536464	0.000446	4.460050	1.511106	0.000179
 295	2.9253e+01	11.6820	48.706024	0.000426	4.257321	1.442419	0.000170
 296	2.9352e+01	11.7173	48.887695	0.000456	4.561415	1.545449	0.000183
 297	2.9452e+01	11.7622	49.016884	0.000324	3.243673	1.098986	0.000130
 298	2.9552e+01	11.7975	49.166258	0.000375	3.750497	1.270703	0.000150
 299	2.9651e+01	11.8312	49.351966	0.000466	4.662780	1.579793	0.000187
 300	2.9750e+01	11.8874	49.517488	0.000416	4.155956	1.408076	0.000166
 301	2.9850e+01	11.9178	49.691085	0.000436	4.358686	1.476763	0.000174
 302	2.9950e+01	11.9580	49.844496	0.000385	3.851862	1.305046	0.000154
 303	3.0049e+01	11.9981	50.005982	0.000405	4.054591	1.373733	0.000162
 304	3.0148e+01	12.0301	50.175542	0.000426	4.257321	1.442419	0.000170
 305	3.0248e+01	12.0751	50.284544	0.000274	2.736849	0.927270	0.000110
 306	3.0348e+01	12.1087	50.474290	0.000476	4.764145	1.614136	0.000191
 307	3.0447e+01	12.1601	50.627701	0.000385	3.851862	1.305046	0.000154
 308	3.0547e+01	12.1922	50.797260	0.000426	4.257321	1.442419	0.000170
 309	3.0646e+01	12.2339	50.966820	0.000426	4.257321	1.442419	0.000170
 310	3.0745e+01	12.2772	51.116194	0.000375	3.750497	1.270703	0.000150
 311	3.0845e+01	12.3045	51.305940	0.000476	4.764145	1.614136	0.000191
 312	3.0945e+01	12.3606	51.447239	0.000355	3.547767	1.202016	0.000142
 313	3.1044e+01	12.3975	51.624873	0.000446	4.460050	1.511106	0.000179
 314	3.1143e+01	12.4328	51.750024	0.000314	3.142308	1.064643	0.000126
 315	3.1243e+01	12.4665	51.915547	0.000416	4.155956	1.408076	0.000166
 316	3.1343e+01	12.5114	52.101255	0.000466	4.662780	1.579793	0.000187
 317	3.1442e+01	12.5611	52.254666	0.000385	3.851862	1.305046	0.000154
 318	3.1541e+01	12.5948	52.424226	0.000426	4.257321	1.442419	0.000170
 319	3.1641e+01	12.6414	52.573600	0.000375	3.750497	1.270703	0.000150
 320	3.1741e+01	12.6766	52.759308	0.000466	4.662780	1.579793	0.000187
 321	3.1840e+01	12.7087	52.900608	0.000355	3.547767	1.202016	0.000142
 322	3.1939e+01	12.7617	53.074205	0.000436	4.358686	1.476763	0.000174
 323	3.2039e+01	12.8018	53.231653	0.000395	3.953226	1.339389	0.000158
 324	3.2139e+01	12.8323	53.401213	0.000426	4.257321	1.442419	0.000170
 325	3.2238e+01	12.8772	53.530401	0.000324	3.243673	1.098986	0.000130
 326	3.2337e+01	12.9157	53.671701	0.000355	3.547767	1.202016	0.000142
 327	3.2437e+01	12.9590	53.833186	0.000405	4.054591	1.373733	0.000162
 328	3.2536e+01	12.9943	54.014858	0.000456	4.561415	1.545449	0.000183
 329	3.2636e+01	13.0264	54.164232	0.000375	3.750497	1.270703	0.000150
 330	3.2736e+01	13.0777	54.289383	0.000314	3.142308	1.064643	0.000126
 331	3.2835e+01	13.1050	54.551797	0.000659	6.588711	2.232316	0.000264
 332	3.2934e+01	13.1515	54.656762	0.000264	2.635484	0.892926	0.000105
 333	3.3034e+01	13.1964	54.769802	0.000284	2.838214	0.961613	0.000114
 334	3.3133e+01	13.2301	54.971659	0.000507	5.068239	1.717166	0.000203
 335	3.3233e+01	13.2766	55.108921	0.000345	3.446403	1.167673	0.000138
 336	3.3333e+01	13.3135	55.254258	0.000365	3.649132	1.236359	0.000146
 337	3.3432e+01	13.3520	55.423818	0.000426	4.257321	1.442419	0.000170
 338	3.3532e+01	13.3921	55.565118	0.000355	3.547767	1.202016	0.000142
 339	3.3631e+01	13.4290	55.738715	0.000436	4.358686	1.476763	0.000174
 340	3.3730e+01	13.4595	55.900200	0.000405	4.054591	1.373733	0.000162
 341	3.3830e+01	13.5092	56.021314	0.000304	3.040943	1.030300	0.000122
 342	3.3929e+01	13.5510	56.190874	0.000426	4.257321	1.442419	0.000170
 343	3.4029e+01	13.5959	56.368508	0.000446	4.460050	1.511106	0.000179
 344	3.4129e+01	13.6328	56.497696	0.000324	3.243673	1.098986	0.000130
 345	3.4228e+01	13.6713	56.626884	0.000324	3.243673	1.098986	0.000130
 346	3.4328e+01	13.7130	56.828741	0.000507	5.068239	1.717166	0.000203
 347	3.4427e+01	13.7563	56.982152	0.000385	3.851862	1.305046	0.000154
 348	3.4526e+01	13.7884	57.131526	0.000375	3.750497	1.270703	0.000150
 349	3.4626e+01	13.8237	57.260715	0.000324	3.243673	1.098986	0.000130
 350	3.4725e+01	13.8670	57.418163	0.000395	3.953226	1.339389	0.000158
 351	3.4825e+01	13.9103	57.603871	0.000466	4.662780	1.579793	0.000187
 352	3.4925e+01	13.9472	57.716911	0.000284	2.838214	0.961613	0.000114
 353	3.5024e+01	13.9873	57.898582	0.000456	4.561415	1.545449	0.000183
 354	3.5123e+01	14.0274	58.056030	0.000395	3.953226	1.339389	0.000158
 355	3.5223e+01	14.0611	58.205405	0.000375	3.750497	1.270703	0.000150
 356	3.5322e+01	14.1140	58.358816	0.000385	3.851862	1.305046	0.000154
 357	3.5422e+01	14.1429	58.520301	0.000405	4.054591	1.373733	0.000162
 358	3.5522e+01	14.1830	58.645452	0.000314	3.142308	1.064643	0.000126
 359	3.5621e+01	14.2199	58.701972	0.000142	1.419107	0.480806	0.000057
 360	3.5721e+01	14.2697	58.685824	-0.000041	-0.405459	-0.137373	-0.000016
 361	3.5820e+01	14.3082	58.730232	0.000112	1.115013	0.377776	0.000045
 362	3.5919e+01	14.3499	59.206614	0.001196	11.961044	4.052511	0.000479
 363	3.6019e+01	14.3900	59.335803	0.000324	3.243673	1.098986	0.000130
 364	3.6118e+01	14.4365	59.525548	0.000476	4.764145	1.614136	0.000191
 365	3.6218e+01	14.4670	59.699145	0.000436	4.358686	1.476763	0.000174
 366	3.6318e+01	14.5135	59.824296	0.000314	3.142308	1.064643	0.000126
 367	3.6417e+01	14.5488	59.981744	0.000395	3.953226	1.339389	0.000158
 368	3.6517e+01	14.5857	60.094784	0.000284	2.838214	0.961613	0.000114
 369	3.6616e+01	14.6194	60.143230	0.000122	1.216377	0.412120	0.000049
 370	3.6715e+01	14.6611	60.151304	0.000020	0.202730	0.068687	0.000008
 371	3.6815e+01	14.7140	60.191675	0.000101	1.013648	0.343433	0.000041
 372	3.6914e+01	14.7413	60.195712	0.000010	0.101365	0.034343	0.000004
 373	3.7014e+01	14.7894	60.191675	-0.000010	-0.101365	-0.034343	-0.000004
 374	3.7114e+01	14.8359	60.232047	0.000101	1.013648	0.343433	0.000041
 375	3.7213e+01	14.8680	60.260307	0.000071	0.709553	0.240403	0.000028
 376	3.7313e+01	14.9097	60.264344	0.000010	0.101365	0.034343	0.000004
 377	3.7412e+01	14.9434	60.272418	0.000020	0.202730	0.068687	0.000008
 378	3.7511e+01	14.9900	60.304715	0.000081	0.810918	0.274747	0.000032
 379	3.7611e+01	15.0220	60.332975	0.000071	0.709553	0.240403	0.000028
 380	3.7711e+01	15.0670	60.304715	-0.000071	-0.709553	-0.240403	-0.000028
 381	3.7810e+01	15.1071	60.401606	0.000243	2.432755	0.824240	0.000097
 382	3.7910e+01	15.1536	60.437941	0.000091	0.912283	0.309090	0.000037
 383	3.8009e+01	15.1841	60.450052	0.000030	0.304094	0.103030	0.000012
 384	3.8108e+01	15.2194	60.510609	0.000152	1.520472	0.515150	0.000061
 385	3.8208e+01	15.2627	60.555018	0.000112	1.115013	0.377776	0.000045
 386	3.8307e+01	15.3012	60.587315	0.000081	0.810918	0.274747	0.000032
 387	3.8407e+01	15.3413	60.651909	0.000162	1.621836	0.549493	0.000065
 388	3.8507e+01	15.3782	60.720540	0.000172	1.723201	0.583836	0.000069
 389	3.8606e+01	15.4151	60.764949	0.000112	1.115013	0.377776	0.000045
 390	3.8706e+01	15.4600	60.861840	0.000243	2.432755	0.824240	0.000097
 391	3.8805e+01	15.5033	60.942583	0.000203	2.027296	0.686866	0.000081
 392	3.8904e+01	15.5434	61.003140	0.000152	1.520472	0.515150	0.000061
 393	3.9004e+01	15.5787	61.087919	0.000213	2.128660	0.721210	0.000085
 394	3.9103e+01	15.6236	61.184811	0.000243	2.432755	0.824240	0.000097
 395	3.9203e+01	15.6685	61.305925	0.000304	3.040943	1.030300	0.000122
 396	3.9303e+01	15.7006	61.382630	0.000193	1.925931	0.652523	0.000077
 397	3.9402e+01	15.7536	61.495670	0.000284	2.838214	0.961613	0.000114
 398	3.9502e+01	15.7889	61.636970	0.000355	3.547767	1.202016	0.000142
 399	3.9601e+01	15.8193	61.745973	0.000274	2.736849	0.927270	0.000110
 400	3.9700e+01	15.8627	61.923607	0.000446	4.460050	1.511106	0.000179
 401	3.9800e+01	15.9012	62.060869	0.000345	3.446403	1.167673	0.000138
 402	3.9900e+01	15.9461	62.202169	0.000355	3.547767	1.202016	0.000142
 403	3.9999e+01	15.9798	62.424211	0.000558	5.575063	1.888882	0.000223
 404	4.0099e+01	16.0215	62.605882	0.000456	4.561415	1.545449	0.000183
 405	4.0198e+01	16.0552	62.807739	0.000507	5.068239	1.717166	0.000203
 406	4.0297e+01	16.1049	62.940965	0.000335	3.345038	1.133329	0.000134
 407	4.0397e+01	16.1354	63.138784	0.000497	4.966874	1.682823	0.000199
 408	4.0496e+01	16.1851	63.360827	0.000558	5.575063	1.888882	0.000223
 409	4.0596e+01	16.2092	63.578832	0.000547	5.473698	1.854539	0.000219
 410	4.0696e+01	16.2669	63.756466	0.000446	4.460050	1.511106	0.000179
 411	4.0795e+01	16.2974	63.994657	0.000598	5.980522	2.026256	0.000239
 412	4.0895e+01	16.3359	64.164217	0.000426	4.257321	1.442419	0.000170
 413	4.0994e+01	16.3824	64.362037	0.000497	4.966874	1.682823	0.000199
 414	4.1093e+01	16.4322	64.535633	0.000436	4.358686	1.476763	0.000174
 415	4.1193e+01	16.4562	64.729416	0.000487	4.865509	1.648479	0.000195
 416	4.1292e+01	16.4995	64.947421	0.000547	5.473698	1.854539	0.000219
 417	4.1392e+01	16.5445	65.161389	0.000537	5.372333	1.820196	0.000215
 418	4.1492e+01	16.5814	65.399580	0.000598	5.980522	2.026256	0.000239
 419	4.1591e+01	16.6070	65.617586	0.000547	5.473698	1.854539	0.000219
 420	4.1691e+01	16.6616	65.867888	0.000628	6.284616	2.129286	0.000252
 421	4.1790e+01	16.6936	66.126265	0.000649	6.487346	2.197972	0.000260
 422	4.1889e+01	16.7418	66.303899	0.000446	4.460050	1.511106	0.000179
 423	4.1989e+01	16.7803	66.562275	0.000649	6.487346	2.197972	0.000260
 424	4.2089e+01	16.8252	66.747984	0.000466	4.662780	1.579793	0.000187
 425	4.2188e+01	16.8428	66.913506	0.000416	4.155956	1.408076	0.000166
 426	4.2288e+01	16.9022	67.087103	0.000436	4.358686	1.476763	0.000174
 427	4.2387e+01	16.9327	67.224366	0.000345	3.446403	1.167673	0.000138
 428	4.2486e+01	16.9728	67.414111	0.000476	4.764145	1.614136	0.000191
 429	4.2586e+01	17.0129	67.579634	0.000416	4.155956	1.408076	0.000166
 430	4.2685e+01	17.0626	67.757268	0.000446	4.460050	1.511106	0.000179
 431	4.2785e+01	17.0915	67.878382	0.000304	3.040943	1.030300	0.000122
 432	4.2885e+01	17.1428	68.104461	0.000568	5.676428	1.923226	0.000227
 433	4.2984e+01	17.1781	68.221538	0.000294	2.939579	0.995956	0.000118
 434	4.3084e+01	17.2166	68.358801	0.000345	3.446403	1.167673	0.000138
 435	4.3183e+01	17.2599	68.524323	0.000416	4.155956	1.408076	0.000166
 436	4.3282e+01	17.2984	68.710032	0.000466	4.662780	1.579793	0.000187
 437	4.3382e+01	17.3337	68.855369	0.000365	3.649132	1.236359	0.000146
 438	4.3481e+01	17.3803	69.008780	0.000385	3.851862	1.305046	0.000154
 439	4.3581e+01	17.4220	69.218711	0.000527	5.270969	1.785853	0.000211
 440	4.3681e+01	17.4557	69.376159	0.000395	3.953226	1.339389	0.000158
 441	4.3780e+01	17.5054	69.561867	0.000466	4.662780	1.579793	0.000187
 442	4.3880e+01	17.5391	69.747576	0.000466	4.662780	1.579793	0.000187
 443	4.3979e+01	17.5728	69.949432	0.000507	5.068239	1.717166	0.000203
 444	4.4078e+01	17.6145	70.139178	0.000476	4.764145	1.614136	0.000191
 445	4.4178e+01	17.6562	70.308737	0.000426	4.257321	1.442419	0.000170
 446	4.4278e+01	17.6931	70.526743	0.000547	5.473698	1.854539	0.000219
 447	4.4377e+01	17.7300	70.692265	0.000416	4.155956	1.408076	0.000166
 448	4.4477e+01	17.7797	70.914308	0.000558	5.575063	1.888882	0.000223
 449	4.4576e+01	17.8086	71.176722	0.000659	6.588711	2.232316	0.000264
 450	4.4675e+01	17.8551	71.382616	0.000517	5.169604	1.751509	0.000207
 451	4.4775e+01	17.8984	71.572361	0.000476	4.764145	1.614136	0.000191
 452	4.4874e+01	17.9353	71.762106	0.000476	4.764145	1.614136	0.000191
 453	4.4974e+01	17.9786	71.935703	0.000436	4.358686	1.476763	0.000174
 454	4.5074e+01	18.0107	72.169857	0.000588	5.879157	1.991912	0.000235
 455	4.5173e+01	18.0637	72.351528	0.000456	4.561415	1.545449	0.000183
 456	4.5273e+01	18.0909	72.573571	0.000558	5.575063	1.888882	0.000223
 457	4.5372e+01	18.1407	72.743130	0.000426	4.257321	1.442419	0.000170
 458	4.5471e+01	18.1776	72.896541	0.000385	3.851862	1.305046	0.000154
 459	4.5571e+01	18.2080	73.070138	0.000436	4.358686	1.476763	0.000174
 460	4.5670e+01	18.2530	73.251809	0.000456	4.561415	1.545449	0.000183
 461	4.5770e+01	18.2915	73.441555	0.000476	4.764145	1.614136	0.000191
 462	4.5870e+01	18.3316	73.570743	0.000324	3.243673	1.098986	0.000130
 463	4.5969e+01	18.3781	73.716080	0.000365	3.649132	1.236359	0.000146
 464	4.6069e+01	18.4102	73.893714	0.000446	4.460050	1.511106	0.000179
 465	4.6168e+01	18.4471	74.067311	0.000436	4.358686	1.476763	0.000174
 466	4.6267e+01	18.5000	74.196499	0.000324	3.243673	1.098986	0.000130
 467	4.6367e+01	18.5401	74.333762	0.000345	3.446403	1.167673	0.000138
 468	4.6467e+01	18.5786	74.491210	0.000395	3.953226	1.339389	0.000158
 469	4.6566e+01	18.6155	74.620398	0.000324	3.243673	1.098986	0.000130
 470	4.6666e+01	18.6572	74.757661	0.000345	3.446403	1.167673	0.000138
 471	4.6765e+01	18.6877	74.911072	0.000385	3.851862	1.305046	0.000154
 472	4.6864e+01	18.7390	75.072558	0.000405	4.054591	1.373733	0.000162
 473	4.6964e+01	18.7695	75.153300	0.000203	2.027296	0.686866	0.000081
 474	4.7063e+01	18.8160	75.246154	0.000233	2.331390	0.789896	0.000093
 475	4.7163e+01	18.8465	75.435900	0.000476	4.764145	1.614136	0.000191
 476	4.7263e+01	18.8914	75.694277	0.000649	6.487346	2.197972	0.000260
 477	4.7362e+01	18.9235	75.835576	0.000355	3.547767	1.202016	0.000142
 478	4.7462e+01	18.9749	75.972839	0.000345	3.446403	1.167673	0.000138
 479	4.7561e+01	19.0102	76.138361	0.000416	4.155956	1.408076	0.000166
 480	4.7660e+01	19.0535	76.283698	0.000365	3.649132	1.236359	0.000146
 481	4.7760e+01	19.0872	76.416924	0.000335	3.345038	1.133329	0.000134
 482	4.7859e+01	19.1385	76.534001	0.000294	2.939579	0.995956	0.000118
 483	4.7959e+01	19.1674	76.687412	0.000385	3.851862	1.305046	0.000154
 484	4.8059e+01	19.2027	76.808526	0.000304	3.040943	1.030300	0.000122
 485	4.8158e+01	19.2508	76.998271	0.000476	4.764145	1.614136	0.000191
 486	4.8258e+01	19.2829	77.074977	0.000193	1.925931	0.652523	0.000077
 487	4.8357e+01	19.3294	77.115348	0.000101	1.013648	0.343433	0.000041
 488	4.8456e+01	19.3631	77.381799	0.000669	6.690076	2.266659	0.000268
 489	4.8556e+01	19.4128	77.531173	0.000375	3.750497	1.270703	0.000150
 490	4.8656e+01	19.4465	77.692659	0.000405	4.054591	1.373733	0.000162
 491	4.8755e+01	19.4850	77.817810	0.000314	3.142308	1.064643	0.000126
 492	4.8855e+01	19.5251	77.951035	0.000335	3.345038	1.133329	0.000134
 493	4.8954e+01	19.5684	78.080224	0.000324	3.243673	1.098986	0.000130
 494	4.9053e+01	19.6069	78.225561	0.000365	3.649132	1.236359	0.000146
 495	4.9153e+01	19.6567	78.358786	0.000335	3.345038	1.133329	0.000134
 496	4.9252e+01	19.6887	78.496049	0.000345	3.446403	1.167673	0.000138
 497	4.9352e+01	19.7192	78.641386	0.000365	3.649132	1.236359	0.000146
 498	4.9452e+01	19.7706	78.782685	0.000355	3.547767	1.202016	0.000142
 499	4.9551e+01	19.8043	78.907837	0.000314	3.142308	1.064643	0.000126
 500	4.9651e+01	19.8444	79.089508	0.000456	4.561415	1.545449	0.000183
 501	4.9750e+01	19.8877	79.214659	0.000314	3.142308	1.064643	0.000126
 502	4.9849e+01	19.9246	79.339810	0.000314	3.142308	1.064643	0.000126
 503	4.9949e+01	19.9599	79.473036	0.000335	3.345038	1.133329	0.000134
 504	5.0048e+01	19.9246	79.380181	0.000233	2.331390	0.789896	-0.000093
 505	5.0148e+01	19.8845	79.287327	0.000233	2.331390	0.789896	-0.000093
 506	5.0248e+01	19.8444	79.190436	0.000243	2.432755	0.824240	-0.000097
 507	5.0347e+01	19.8155	79.077396	0.000284	2.838214	0.961613	-0.000114
 508	5.0447e+01	19.7690	78.988579	0.000223	2.230025	0.755553	-0.000089
 509	5.0546e+01	19.7256	78.879577	0.000274	2.736849	0.927270	-0.000110
 510	5.0645e+01	19.6920	78.782685	0.000243	2.432755	0.824240	-0.000097
 511	5.0745e+01	19.6470	78.790760	-0.000020	-0.202730	-0.068687	0.000008
 512	5.0844e+01	19.6069	78.774611	0.000041	0.405459	0.137373	-0.000016
 513	5.0944e+01	19.5732	78.746351	0.000071	0.709553	0.240403	-0.000028
 514	5.1044e+01	19.5347	78.689831	0.000142	1.419107	0.480806	-0.000057
 515	5.1143e+01	19.4818	78.637348	0.000132	1.317742	0.446463	-0.000053
 516	5.1242e+01	19.4481	78.637348	-0.000000	-0.000000	-0.000000	0.000000
 517	5.1342e+01	19.4096	78.609089	0.000071	0.709553	0.240403	-0.000028
 518	5.1441e+01	19.3711	78.544494	0.000162	1.621836	0.549493	-0.000065
 519	5.1541e+01	19.3406	78.463752	0.000203	2.027296	0.686866	-0.000081
 520	5.1641e+01	19.2909	78.407232	0.000142	1.419107	0.480806	-0.000057
 521	5.1740e+01	19.2396	78.366860	0.000101	1.013648	0.343433	-0.000041
 522	5.1840e+01	19.2203	78.306303	0.000152	1.520472	0.515150	-0.000061
 523	5.1939e+01	19.1642	78.221523	0.000213	2.128660	0.721210	-0.000085
 524	5.2038e+01	19.1241	78.152892	0.000172	1.723201	0.583836	-0.000069
 525	5.2138e+01	19.0872	78.072149	0.000203	2.027296	0.686866	-0.000081
 526	5.2237e+01	19.0551	78.011592	0.000152	1.520472	0.515150	-0.000061
 527	5.2337e+01	19.0086	77.886441	0.000314	3.142308	1.064643	-0.000126
 528	5.2437e+01	18.9733	77.769364	0.000294	2.939579	0.995956	-0.000118
 529	5.2536e+01	18.9283	77.680547	0.000223	2.230025	0.755553	-0.000089
 530	5.2636e+01	18.8963	77.595767	0.000213	2.128660	0.721210	-0.000085
 531	5.2735e+01	18.8545	77.450431	0.000365	3.649132	1.236359	-0.000146
 532	5.2834e+01	18.8016	77.365651	0.000213	2.128660	0.721210	-0.000085
 533	5.2934e+01	18.7663	77.232425	0.000335	3.345038	1.133329	-0.000134
 534	5.3033e+01	18.7294	77.135534	0.000243	2.432755	0.824240	-0.000097
 535	5.3133e+01	18.6893	77.026531	0.000274	2.736849	0.927270	-0.000110
 536	5.3233e+01	18.6604	76.945789	0.000203	2.027296	0.686866	-0.000081
 537	5.3332e+01	18.6139	76.820637	0.000314	3.142308	1.064643	-0.000126
 538	5.3431e+01	18.5770	76.735858	0.000213	2.128660	0.721210	-0.000085
 539	5.3531e+01	18.5305	76.614743	0.000304	3.040943	1.030300	-0.000122
 540	5.3630e+01	18.4952	76.461332	0.000385	3.851862	1.305046	-0.000154
 541	5.3730e+01	18.4615	76.372515	0.000223	2.230025	0.755553	-0.000089
 542	5.3830e+01	18.4166	76.235253	0.000345	3.446403	1.167673	-0.000138
 543	5.3929e+01	18.3685	76.118176	0.000294	2.939579	0.995956	-0.000118
 544	5.4029e+01	18.3332	75.984950	0.000335	3.345038	1.133329	-0.000134
 545	5.4128e+01	18.2850	75.888059	0.000243	2.432755	0.824240	-0.000097
 546	5.4227e+01	18.2610	75.770982	0.000294	2.939579	0.995956	-0.000118
 547	5.4327e+01	18.2145	75.653905	0.000294	2.939579	0.995956	-0.000118
 548	5.4426e+01	18.1711	75.472234	0.000456	4.561415	1.545449	-0.000183
 549	5.4526e+01	18.1262	75.391491	0.000203	2.027296	0.686866	-0.000081
 550	5.4626e+01	18.0893	75.266340	0.000314	3.142308	1.064643	-0.000126
 551	5.4725e+01	18.0540	75.133115	0.000335	3.345038	1.133329	-0.000134
 552	5.4825e+01	18.0171	75.048335	0.000213	2.128660	0.721210	-0.000085
 553	5.4924e+01	17.9770	74.911072	0.000345	3.446403	1.167673	-0.000138
 554	5.5023e+01	17.9353	74.802070	0.000274	2.736849	0.927270	-0.000110
 555	5.5123e+01	17.8920	74.652695	0.000375	3.750497	1.270703	-0.000150
 556	5.5222e+01	17.8551	74.567916	0.000213	2.128660	0.721210	-0.000085
 557	5.5322e+01	17.8134	74.406430	0.000405	4.054591	1.373733	-0.000162
 558	5.5422e+01	17.7765	74.313576	0.000233	2.331390	0.789896	-0.000093
 559	5.5521e+01	17.7412	74.208611	0.000264	2.635484	0.892926	-0.000105
 560	5.5620e+01	17.6963	74.123831	0.000213	2.128660	0.721210	-0.000085
 561	5.5720e+01	17.6562	73.966382	0.000395	3.953226	1.339389	-0.000158
 562	5.5819e+01	17.6097	73.849305	0.000294	2.939579	0.995956	-0.000118
 563	5.5919e+01	17.5680	73.728191	0.000304	3.040943	1.030300	-0.000122
 564	5.6019e+01	17.5471	73.611114	0.000294	2.939579	0.995956	-0.000118
 565	5.6118e+01	17.5022	73.481926	0.000324	3.243673	1.098986	-0.000130
 566	5.6218e+01	17.4524	73.397146	0.000213	2.128660	0.721210	-0.000085
 567	5.6317e+01	17.4156	73.280069	0.000294	2.939579	0.995956	-0.000118
 568	5.6416e+01	17.3706	73.167030	0.000284	2.838214	0.961613	-0.000114
 569	5.6516e+01	17.3273	73.062064	0.000264	2.635484	0.892926	-0.000105
 570	5.6615e+01	17.2936	72.928839	0.000335	3.345038	1.133329	-0.000134
 571	5.6715e+01	17.2664	72.823873	0.000264	2.635484	0.892926	-0.000105
 572	5.6815e+01	17.2295	72.666425	0.000395	3.953226	1.339389	-0.000158
 573	5.6914e+01	17.1797	72.605868	0.000152	1.520472	0.515150	-0.000061
 574	5.7014e+01	17.1412	72.460531	0.000365	3.649132	1.236359	-0.000146
 575	5.7113e+01	17.0963	72.404011	0.000142	1.419107	0.480806	-0.000057
 576	5.7212e+01	17.0626	72.254637	0.000375	3.750497	1.270703	-0.000150
 577	5.7312e+01	17.0065	72.117374	0.000345	3.446403	1.167673	-0.000138
 578	5.7411e+01	16.9776	71.996260	0.000304	3.040943	1.030300	-0.000122
 579	5.7511e+01	16.9327	71.887258	0.000274	2.736849	0.927270	-0.000110
 580	5.7611e+01	16.9006	71.798441	0.000223	2.230025	0.755553	-0.000089
 581	5.7710e+01	16.8509	71.665215	0.000335	3.345038	1.133329	-0.000134
 582	5.7809e+01	16.8188	71.560250	0.000264	2.635484	0.892926	-0.000105
 583	5.7909e+01	16.7803	71.427024	0.000335	3.345038	1.133329	-0.000134
 584	5.8008e+01	16.7338	71.313984	0.000284	2.838214	0.961613	-0.000114
 585	5.8108e+01	16.7033	71.196907	0.000294	2.939579	0.995956	-0.000118
 586	5.8208e+01	16.6487	71.091942	0.000264	2.635484	0.892926	-0.000105
 587	5.8307e+01	16.6279	70.978902	0.000284	2.838214	0.961613	-0.000114
 588	5.8407e+01	16.5733	70.817417	0.000405	4.054591	1.373733	-0.000162
 589	5.8506e+01	16.5284	70.748785	0.000172	1.723201	0.583836	-0.000069
 590	5.8605e+01	16.5076	70.639783	0.000274	2.736849	0.927270	-0.000110
 591	5.8705e+01	16.4514	70.530780	0.000274	2.736849	0.927270	-0.000110
 592	5.8804e+01	16.4225	70.409666	0.000304	3.040943	1.030300	-0.000122
 593	5.8904e+01	16.3760	70.292589	0.000294	2.939579	0.995956	-0.000118
 594	5.9004e+01	16.3423	70.171475	0.000304	3.040943	1.030300	-0.000122
 595	5.9103e+01	16.2974	70.094769	0.000193	1.925931	0.652523	-0.000077
 596	5.9203e+01	16.2605	69.969618	0.000314	3.142308	1.064643	-0.000126
 597	5.9302e+01	16.2284	69.852541	0.000294	2.939579	0.995956	-0.000118
 598	5.9401e+01	16.1819	69.755650	0.000243	2.432755	0.824240	-0.000097
 599	5.9501e+01	16.1386	69.650684	0.000264	2.635484	0.892926	-0.000105
 600	5.9600e+01	16.0921	69.529570	0.000304	3.040943	1.030300	-0.000122
 601	5.9700e+01	16.0616	69.396345	0.000335	3.345038	1.133329	-0.000134
 602	5.9800e+01	16.0199	69.267156	0.000324	3.243673	1.098986	-0.000130
 603	5.9899e+01	15.9910	69.174302	0.000233	2.331390	0.789896	-0.000093
 604	5.9998e+01	15.9493	69.085485	0.000223	2.230025	0.755553	-0.000089
 605	6.0098e+01	15.9012	68.944186	0.000355	3.547767	1.202016	-0.000142
 606	6.0197e+01	15.8610	68.827109	0.000294	2.939579	0.995956	-0.000118
 607	6.0297e+01	15.8242	68.758477	0.000172	1.723201	0.583836	-0.000069
 608	6.0397e+01	15.7921	68.613140	0.000365	3.649132	1.236359	-0.000146
 609	6.0496e+01	15.7407	68.524323	0.000223	2.230025	0.755553	-0.000089
 610	6.0596e+01	15.7038	68.431469	0.000233	2.331390	0.789896	-0.000093
 611	6.0695e+01	15.6637	68.286132	0.000365	3.649132	1.236359	-0.000146
 612	6.0794e+01	15.6204	68.205390	0.000203	2.027296	0.686866	-0.000081
 613	6.0894e+01	15.5803	68.076201	0.000324	3.243673	1.098986	-0.000130
 614	6.0993e+01	15.5434	67.918753	0.000395	3.953226	1.339389	-0.000158
 615	6.1093e+01	15.5017	67.846085	0.000182	1.824566	0.618180	-0.000073
 616	6.1193e+01	15.4632	67.761305	0.000213	2.128660	0.721210	-0.000085
 617	6.1292e+01	15.4263	67.656339	0.000264	2.635484	0.892926	-0.000105
 618	6.1392e+01	15.3814	67.511002	0.000365	3.649132	1.236359	-0.000146
 619	6.1491e+01	15.3493	67.414111	0.000243	2.432755	0.824240	-0.000097
 620	6.1590e+01	15.2996	67.337406	0.000193	1.925931	0.652523	-0.000077
 621	6.1690e+01	15.2643	67.204180	0.000335	3.345038	1.133329	-0.000134
 622	6.1789e+01	15.2242	67.127474	0.000193	1.925931	0.652523	-0.000077
 623	6.1889e+01	15.1841	66.994249	0.000335	3.345038	1.133329	-0.000134
 624	6.1989e+01	15.1391	66.844875	0.000375	3.750497	1.270703	-0.000150
 625	6.2088e+01	15.1071	66.731835	0.000284	2.838214	0.961613	-0.000114
 626	6.2188e+01	15.0541	66.586498	0.000365	3.649132	1.236359	-0.000146
 627	6.2287e+01	15.0220	66.481533	0.000264	2.635484	0.892926	-0.000105
 628	6.2386e+01	14.9932	64.975681	0.003781	37.809063	12.810057	-0.001513
 629	6.2486e+01	14.9386	64.567930	0.001024	10.237843	3.468675	-0.000410
 630	6.2586e+01	14.9065	64.402408	0.000416	4.155956	1.408076	-0.000166
 631	6.2685e+01	14.8632	64.257071	0.000365	3.649132	1.236359	-0.000146
 632	6.2785e+01	14.8295	64.148068	0.000274	2.736849	0.927270	-0.000110
 633	6.2884e+01	14.7910	63.998694	0.000375	3.750497	1.270703	-0.000150
 634	6.2983e+01	14.7461	63.821060	0.000446	4.460050	1.511106	-0.000179
 635	6.3083e+01	14.7108	63.712058	0.000274	2.736849	0.927270	-0.000110
 636	6.3182e+01	14.6611	63.582869	0.000324	3.243673	1.098986	-0.000130
 637	6.3282e+01	14.6210	63.445607	0.000345	3.446403	1.167673	-0.000138
 638	6.3382e+01	14.5969	63.336604	0.000274	2.736849	0.927270	-0.000110
 639	6.3481e+01	14.5456	63.171081	0.000416	4.155956	1.408076	-0.000166
 640	6.3581e+01	14.5071	63.070153	0.000253	2.534120	0.858583	-0.000101
 641	6.3680e+01	14.4606	62.957113	0.000284	2.838214	0.961613	-0.000114
 642	6.3779e+01	14.4317	62.860222	0.000243	2.432755	0.824240	-0.000097
 643	6.3879e+01	14.3884	62.876371	-0.000041	-0.405459	-0.137373	0.000016
 644	6.3978e+01	14.3370	62.747182	0.000324	3.243673	1.098986	-0.000130
 645	6.4078e+01	14.3082	62.682588	0.000162	1.621836	0.549493	-0.000065
 646	6.4177e+01	14.2713	62.488806	0.000487	4.865509	1.648479	-0.000195
 647	6.4277e+01	14.2247	62.157760	0.000831	8.311912	2.816152	-0.000333
 648	6.4376e+01	14.1910	61.963978	0.000487	4.865509	1.648479	-0.000195
 649	6.4476e+01	14.1493	61.863049	0.000253	2.534120	0.858583	-0.000101
 650	6.4576e+01	14.1092	61.721750	0.000355	3.547767	1.202016	-0.000142
 651	6.4675e+01	14.0659	61.693490	0.000071	0.709553	0.240403	-0.000028
 652	6.4775e+01	14.0210	61.532004	0.000405	4.054591	1.373733	-0.000162
 653	6.4874e+01	13.9841	61.418965	0.000284	2.838214	0.961613	-0.000114
 654	6.4974e+01	13.9424	61.390705	0.000071	0.709553	0.240403	-0.000028
 655	6.5073e+01	13.9103	61.245368	0.000365	3.649132	1.236359	-0.000146
 656	6.5172e+01	13.8686	60.942583	0.000760	7.602359	2.575749	-0.000304
 657	6.5272e+01	13.8285	60.817431	0.000314	3.142308	1.064643	-0.000126
 658	6.5371e+01	13.7884	60.805320	0.000030	0.304094	0.103030	-0.000012
 659	6.5471e+01	13.7370	60.777060	0.000071	0.709553	0.240403	-0.000028
 660	6.5570e+01	13.7130	60.756874	0.000051	0.506824	0.171717	-0.000020
 661	6.5670e+01	13.6681	60.797246	-0.000101	-1.013648	-0.343433	0.000041
 662	6.5769e+01	13.6296	60.744763	0.000132	1.317742	0.446463	-0.000053
 663	6.5869e+01	13.5911	60.768986	-0.000061	-0.608189	-0.206060	0.000024
 664	6.5969e+01	13.5477	60.728614	0.000101	1.013648	0.343433	-0.000041
 665	6.6068e+01	13.5108	60.728614	-0.000000	-0.000000	-0.000000	0.000000
 666	6.6168e+01	13.4707	60.716503	0.000030	0.304094	0.103030	-0.000012
 667	6.6267e+01	13.4306	60.659983	0.000142	1.419107	0.480806	-0.000057
 668	6.6367e+01	13.3953	60.591352	0.000172	1.723201	0.583836	-0.000069
 669	6.6466e+01	13.3504	60.623649	-0.000081	-0.810918	-0.274747	0.000032
 670	6.6566e+01	13.3151	60.579240	0.000112	1.115013	0.377776	-0.000045
 671	6.6665e+01	13.2718	60.506572	0.000182	1.824566	0.618180	-0.000073
 672	6.6764e+01	13.2349	60.425829	0.000203	2.027296	0.686866	-0.000081
 673	6.6864e+01	13.1980	60.320864	0.000264	2.635484	0.892926	-0.000105
 674	6.6963e+01	13.1435	60.223972	0.000243	2.432755	0.824240	-0.000097
 675	6.7063e+01	13.1258	60.114970	0.000274	2.736849	0.927270	-0.000110
 676	6.7162e+01	13.0713	60.018078	0.000243	2.432755	0.824240	-0.000097
 677	6.7262e+01	13.0296	59.917150	0.000253	2.534120	0.858583	-0.000101
 678	6.7362e+01	12.9815	59.779887	0.000345	3.446403	1.167673	-0.000138
 679	6.7461e+01	12.9462	59.658773	0.000304	3.040943	1.030300	-0.000122
 680	6.7561e+01	12.9125	59.513436	0.000365	3.649132	1.236359	-0.000146
 681	6.7660e+01	12.8595	59.400397	0.000284	2.838214	0.961613	-0.000114
 682	6.7760e+01	12.8339	59.234874	0.000416	4.155956	1.408076	-0.000166
 683	6.7859e+01	12.7857	59.101649	0.000335	3.345038	1.133329	-0.000134
 684	6.7959e+01	12.7585	58.972460	0.000324	3.243673	1.098986	-0.000130
 685	6.8058e+01	12.7248	58.819049	0.000385	3.851862	1.305046	-0.000154
 686	6.8157e+01	12.6766	58.669675	0.000375	3.750497	1.270703	-0.000150
 687	6.8257e+01	12.6365	58.500115	0.000426	4.257321	1.442419	-0.000170
 688	6.8356e+01	12.5980	58.379001	0.000304	3.040943	1.030300	-0.000122
 689	6.8456e+01	12.5579	58.245776	0.000335	3.345038	1.133329	-0.000134
 690	6.8555e+01	12.5275	58.092365	0.000385	3.851862	1.305046	-0.000154
 691	6.8655e+01	12.4825	57.918768	0.000436	4.358686	1.476763	-0.000174
 692	6.8754e+01	12.4424	57.761320	0.000395	3.953226	1.339389	-0.000158
 693	6.8854e+01	12.3959	57.640205	0.000304	3.040943	1.030300	-0.000122
 694	6.8954e+01	12.3574	57.478720	0.000405	4.054591	1.373733	-0.000162
 695	6.9053e+01	12.3109	57.329346	0.000375	3.750497	1.270703	-0.000150
 696	6.9153e+01	12.2756	57.167861	0.000405	4.054591	1.373733	-0.000162
 697	6.9252e+01	12.2355	57.042709	0.000314	3.142308	1.064643	-0.000126
 698	6.9352e+01	12.1970	56.881224	0.000405	4.054591	1.373733	-0.000162
 699	6.9451e+01	12.1633	56.723776	0.000395	3.953226	1.339389	-0.000158
 700	6.9550e+01	12.1168	56.546142	0.000446	4.460050	1.511106	-0.000179
 701	6.9650e+01	12.0815	56.420991	0.000314	3.142308	1.064643	-0.000126
 702	6.9749e+01	12.0430	56.283728	0.000345	3.446403	1.167673	-0.000138
 703	6.9849e+01	11.9916	56.118205	0.000416	4.155956	1.408076	-0.000166
 704	6.9948e+01	11.9628	56.025351	0.000233	2.331390	0.789896	-0.000093
 705	7.0048e+01	11.9130	55.843680	0.000456	4.561415	1.545449	-0.000183
 706	7.0147e+01	11.8826	55.758900	0.000213	2.128660	0.721210	-0.000085
 707	7.0247e+01	11.8441	55.585303	0.000436	4.358686	1.476763	-0.000174
 708	7.0347e+01	11.8023	55.415744	0.000426	4.257321	1.442419	-0.000170
 709	7.0446e+01	11.7606	55.278481	0.000345	3.446403	1.167673	-0.000138
 710	7.0546e+01	11.7205	55.116996	0.000405	4.054591	1.373733	-0.000162
 711	7.0645e+01	11.6724	54.967622	0.000375	3.750497	1.270703	-0.000150
 712	7.0745e+01	11.6419	54.846508	0.000304	3.040943	1.030300	-0.000122
 713	7.0844e+01	11.5970	54.709245	0.000345	3.446403	1.167673	-0.000138
 714	7.0944e+01	11.5633	54.567945	0.000355	3.547767	1.202016	-0.000142
 715	7.1043e+01	11.5248	54.450868	0.000294	2.939579	0.995956	-0.000118
 716	7.1142e+01	11.4911	54.297457	0.000385	3.851862	1.305046	-0.000154
 717	7.1242e+01	11.4430	54.131935	0.000416	4.155956	1.408076	-0.000166
 718	7.1341e+01	11.3933	53.974486	0.000395	3.953226	1.339389	-0.000158
 719	7.1441e+01	11.3644	53.821075	0.000385	3.851862	1.305046	-0.000154
 720	7.1540e+01	11.3195	53.699961	0.000304	3.040943	1.030300	-0.000122
 721	7.1640e+01	11.2778	53.530401	0.000426	4.257321	1.442419	-0.000170
 722	7.1740e+01	11.2489	53.376990	0.000385	3.851862	1.305046	-0.000154
 723	7.1839e+01	11.1975	53.207430	0.000426	4.257321	1.442419	-0.000170
 724	7.1939e+01	11.1590	53.094391	0.000284	2.838214	0.961613	-0.000114
 725	7.2038e+01	11.1157	52.924831	0.000426	4.257321	1.442419	-0.000170
 726	7.2138e+01	11.0772	52.775457	0.000375	3.750497	1.270703	-0.000150
 727	7.2237e+01	11.0371	52.678566	0.000243	2.432755	0.824240	-0.000097
 728	7.2337e+01	11.0034	52.496895	0.000456	4.561415	1.545449	-0.000183
 729	7.2436e+01	10.9617	52.303112	0.000487	4.865509	1.648479	-0.000195
 730	7.2535e+01	10.9200	52.161812	0.000355	3.547767	1.202016	-0.000142
 731	7.2635e+01	10.8751	51.984178	0.000446	4.460050	1.511106	-0.000179
 732	7.2734e+01	10.8510	51.842879	0.000355	3.547767	1.202016	-0.000142
 733	7.2834e+01	10.7949	51.717727	0.000314	3.142308	1.064643	-0.000126
 734	7.2933e+01	10.7644	51.564316	0.000385	3.851862	1.305046	-0.000154
 735	7.3033e+01	10.7163	51.418979	0.000365	3.649132	1.236359	-0.000146
 736	7.3132e+01	10.6858	51.225197	0.000487	4.865509	1.648479	-0.000195
 737	7.3232e+01	10.6409	51.096008	0.000324	3.243673	1.098986	-0.000130
 738	7.3332e+01	10.6120	50.974894	0.000304	3.040943	1.030300	-0.000122
 739	7.3431e+01	10.5607	50.813409	0.000405	4.054591	1.373733	-0.000162
 740	7.3531e+01	10.5206	50.611552	0.000507	5.068239	1.717166	-0.000203
 741	7.3630e+01	10.4772	50.446030	0.000416	4.155956	1.408076	-0.000166
 742	7.3730e+01	10.4436	50.292618	0.000385	3.851862	1.305046	-0.000154
 743	7.3829e+01	10.3986	50.179579	0.000284	2.838214	0.961613	-0.000114
 744	7.3928e+01	10.3633	49.993870	0.000466	4.662780	1.579793	-0.000187
 745	7.4028e+01	10.3152	49.844496	0.000375	3.750497	1.270703	-0.000150
 746	7.4127e+01	10.2847	49.703197	0.000355	3.547767	1.202016	-0.000142
 747	7.4227e+01	10.2414	49.525563	0.000446	4.460050	1.511106	-0.000179
 748	7.4326e+01	10.1981	49.392337	0.000335	3.345038	1.133329	-0.000134
 749	7.4426e+01	10.1644	49.242963	0.000375	3.750497	1.270703	-0.000150
 750	7.4525e+01	10.1243	49.073403	0.000426	4.257321	1.442419	-0.000170
 751	7.4625e+01	10.0794	48.883658	0.000476	4.764145	1.614136	-0.000191
 752	7.4725e+01	10.0425	48.734284	0.000375	3.750497	1.270703	-0.000150
 753	7.4824e+01	10.0008	48.576836	0.000395	3.953226	1.339389	-0.000158
 754	7.4924e+01	9.9607	48.423425	0.000385	3.851862	1.305046	-0.000154
 755	7.5023e+01	9.9302	48.241754	0.000456	4.561415	1.545449	-0.000183
 756	7.5123e+01	9.8773	48.072194	0.000426	4.257321	1.442419	-0.000170
 757	7.5222e+01	9.8484	47.938968	0.000335	3.345038	1.133329	-0.000134
 758	7.5322e+01	9.8083	47.785557	0.000385	3.851862	1.305046	-0.000154
 759	7.5421e+01	9.7730	47.607923	0.000446	4.460050	1.511106	-0.000179
 760	7.5520e+01	9.7136	47.402029	0.000517	5.169604	1.751509	-0.000207
 761	7.5620e+01	9.6799	47.252655	0.000375	3.750497	1.270703	-0.000150
 762	7.5719e+01	9.6511	47.062910	0.000476	4.764145	1.614136	-0.000191
 763	7.5819e+01	9.6094	46.957944	0.000264	2.635484	0.892926	-0.000105
 764	7.5918e+01	9.5612	46.756088	0.000507	5.068239	1.717166	-0.000203
 765	7.6018e+01	9.5243	46.626899	0.000324	3.243673	1.098986	-0.000130
 766	7.6118e+01	9.4858	46.461377	0.000416	4.155956	1.408076	-0.000166
 767	7.6217e+01	9.4473	46.299891	0.000405	4.054591	1.373733	-0.000162
 768	7.6317e+01	9.4104	46.130332	0.000426	4.257321	1.442419	-0.000170
 769	7.6416e+01	9.3751	45.980957	0.000375	3.750497	1.270703	-0.000150
 770	7.6516e+01	9.3270	45.839658	0.000355	3.547767	1.202016	-0.000142
 771	7.6615e+01	9.2821	45.637801	0.000507	5.068239	1.717166	-0.000203
 772	7.6715e+01	9.2436	45.456130	0.000456	4.561415	1.545449	-0.000183
 773	7.6814e+01	9.2099	45.266384	0.000476	4.764145	1.614136	-0.000191
 774	7.6913e+01	9.1762	45.145270	0.000304	3.040943	1.030300	-0.000122
 775	7.7013e+01	9.1313	44.967636	0.000446	4.460050	1.511106	-0.000179
 776	7.7112e+01	9.0864	44.790002	0.000446	4.460050	1.511106	-0.000179
 777	7.7212e+01	9.0575	44.608331	0.000456	4.561415	1.545449	-0.000183
 778	7.7311e+01	9.0078	44.438772	0.000426	4.257321	1.442419	-0.000170
 779	7.7411e+01	8.9757	44.277286	0.000405	4.054591	1.373733	-0.000162
 780	7.7510e+01	8.9356	44.131949	0.000365	3.649132	1.236359	-0.000146
 781	7.7610e+01	8.8874	43.974501	0.000395	3.953226	1.339389	-0.000158
 782	7.7710e+01	8.8554	43.813016	0.000405	4.054591	1.373733	-0.000162
 783	7.7809e+01	8.8137	43.647493	0.000416	4.155956	1.408076	-0.000166
 784	7.7909e+01	8.7719	43.514268	0.000335	3.345038	1.133329	-0.000134
 785	7.8008e+01	8.7222	43.332596	0.000456	4.561415	1.545449	-0.000183
 786	7.8108e+01	8.6901	43.179185	0.000385	3.851862	1.305046	-0.000154
 787	7.8207e+01	8.6452	43.078257	0.000253	2.534120	0.858583	-0.000101
 788	7.8306e+01	8.6035	42.949069	0.000324	3.243673	1.098986	-0.000130
 789	7.8406e+01	8.5634	42.852177	0.000243	2.432755	0.824240	-0.000097
 790	7.8505e+01	8.5409	42.779509	0.000182	1.824566	0.618180	-0.000073
 791	7.8605e+01	8.4880	42.674543	0.000264	2.635484	0.892926	-0.000105
 792	7.8704e+01	8.4607	42.565541	0.000274	2.736849	0.927270	-0.000110
 793	7.8804e+01	8.4046	42.440389	0.000314	3.142308	1.064643	-0.000126
 794	7.8903e+01	8.3757	42.327350	0.000284	2.838214	0.961613	-0.000114
 795	7.9003e+01	8.3228	41.927673	0.001004	10.035113	3.399988	-0.000402
 796	7.9103e+01	8.2971	41.673334	0.000639	6.385981	2.163629	-0.000256
 797	7.9202e+01	8.2506	40.292633	0.003467	34.666755	11.745415	-0.001388
 798	7.9302e+01	8.2073	40.135185	0.000395	3.953226	1.339389	-0.000158
 799	7.9401e+01	8.1720	39.953514	0.000456	4.561415	1.545449	-0.000183
 800	7.9501e+01	8.1254	39.844511	0.000274	2.736849	0.927270	-0.000110
 801	7.9600e+01	8.0869	39.848548	-0.000010	-0.101365	-0.034343	0.000004
 802	7.9700e+01	8.0516	39.820288	0.000071	0.709553	0.240403	-0.000028
 803	7.9799e+01	8.0180	39.347943	0.001186	11.859679	4.018168	-0.000475
 804	7.9898e+01	7.9682	39.125901	0.000558	5.575063	1.888882	-0.000223
 805	7.9998e+01	7.9233	38.972490	0.000385	3.851862	1.305046	-0.000154
 806	8.0097e+01	7.8912	38.794856	0.000446	4.460050	1.511106	-0.000179
 807	8.0197e+01	7.8607	38.645482	0.000375	3.750497	1.270703	-0.000150
 808	8.0296e+01	7.8078	38.479959	0.000416	4.155956	1.408076	-0.000166
 809	8.0396e+01	7.7789	38.334622	0.000365	3.649132	1.236359	-0.000146
 810	8.0496e+01	7.7388	38.132766	0.000507	5.068239	1.717166	-0.000203
 811	8.0595e+01	7.6907	38.027800	0.000264	2.635484	0.892926	-0.000105
 812	8.0695e+01	7.6538	37.829980	0.000497	4.966874	1.682823	-0.000199
 813	8.0794e+01	7.6137	37.644272	0.000466	4.662780	1.579793	-0.000187
 814	8.0894e+01	7.5704	37.519121	0.000314	3.142308	1.064643	-0.000126
 815	8.0993e+01	7.5255	37.353598	0.000416	4.155956	1.408076	-0.000166
 816	8.1093e+01	7.4950	37.184039	0.000426	4.257321	1.442419	-0.000170
 817	8.1192e+01	7.4533	37.014479	0.000426	4.257321	1.442419	-0.000170
 818	8.1291e+01	7.4212	36.840882	0.000436	4.358686	1.476763	-0.000174
 819	8.1391e+01	7.3714	36.828771	0.000030	0.304094	0.103030	-0.000012
 820	8.1490e+01	7.3426	36.824734	0.000010	0.101365	0.034343	-0.000004
 821	8.1590e+01	7.2961	36.808585	0.000041	0.405459	0.137373	-0.000016
 822	8.1689e+01	7.2543	36.792437	0.000041	0.405459	0.137373	-0.000016
 823	8.1789e+01	7.2110	36.723805	0.000172	1.723201	0.583836	-0.000069
 824	8.1888e+01	7.1709	36.663248	0.000152	1.520472	0.515150	-0.000061
 825	8.1988e+01	7.1388	36.606728	0.000142	1.419107	0.480806	-0.000057
 826	8.2088e+01	7.0859	36.566357	0.000101	1.013648	0.343433	-0.000041
 827	8.2187e+01	7.0570	36.457354	0.000274	2.736849	0.927270	-0.000110
 828	8.2287e+01	7.0105	36.453317	0.000010	0.101365	0.034343	-0.000004
 829	8.2386e+01	6.9736	36.348352	0.000264	2.635484	0.892926	-0.000105
 830	8.2486e+01	6.9351	36.291832	0.000142	1.419107	0.480806	-0.000057
 831	8.2585e+01	6.8886	36.186866	0.000264	2.635484	0.892926	-0.000105
 832	8.2684e+01	6.8549	36.069789	0.000294	2.939579	0.995956	-0.000118
 833	8.2784e+01	6.8180	35.972898	0.000243	2.432755	0.824240	-0.000097
 834	8.2883e+01	6.7715	35.839673	0.000335	3.345038	1.133329	-0.000134
 835	8.2983e+01	6.7362	35.694336	0.000365	3.649132	1.236359	-0.000146
 836	8.3082e+01	6.6913	35.569184	0.000314	3.142308	1.064643	-0.000126
 837	8.3182e+01	6.6544	35.371365	0.000497	4.966874	1.682823	-0.000199
 838	8.3281e+01	6.6271	35.201805	0.000426	4.257321	1.442419	-0.000170
 839	8.3381e+01	6.5709	34.991874	0.000527	5.270969	1.785853	-0.000211
 840	8.3481e+01	6.5389	34.810203	0.000456	4.561415	1.545449	-0.000183
 841	8.3580e+01	6.4971	34.592198	0.000547	5.473698	1.854539	-0.000219
 842	8.3680e+01	6.4602	34.430712	0.000405	4.054591	1.373733	-0.000162
 843	8.3779e+01	6.4137	34.232892	0.000497	4.966874	1.682823	-0.000199
 844	8.3879e+01	6.3816	34.018924	0.000537	5.372333	1.820196	-0.000215
 845	8.3978e+01	6.3351	33.853402	0.000416	4.155956	1.408076	-0.000166
 846	8.4078e+01	6.2982	33.647508	0.000517	5.169604	1.751509	-0.000207
 847	8.4177e+01	6.2726	33.453725	0.000487	4.865509	1.648479	-0.000195
 848	8.4276e+01	6.2260	33.259943	0.000487	4.865509	1.648479	-0.000195
 849	8.4376e+01	6.1843	33.037900	0.000558	5.575063	1.888882	-0.000223
 850	8.4475e+01	6.1378	32.860266	0.000446	4.460050	1.511106	-0.000179
 851	8.4575e+01	6.0993	32.686670	0.000436	4.358686	1.476763	-0.000174
 852	8.4674e+01	6.0592	32.513073	0.000436	4.358686	1.476763	-0.000174
 853	8.4774e+01	6.0191	32.295067	0.000547	5.473698	1.854539	-0.000219
 854	8.4874e+01	5.9870	32.141656	0.000385	3.851862	1.305046	-0.000154
 855	8.4973e+01	5.9421	31.939799	0.000507	5.068239	1.717166	-0.000203
 856	8.5073e+01	5.8940	31.774277	0.000416	4.155956	1.408076	-0.000166
 857	8.5172e+01	5.8699	31.564346	0.000527	5.270969	1.785853	-0.000211
 858	8.5272e+01	5.8250	31.443232	0.000304	3.040943	1.030300	-0.000122
 859	8.5371e+01	5.7736	31.245412	0.000497	4.966874	1.682823	-0.000199
 860	8.5471e+01	5.7496	31.092001	0.000385	3.851862	1.305046	-0.000154
 861	8.5570e+01	5.7047	30.914367	0.000446	4.460050	1.511106	-0.000179
 862	8.5669e+01	5.6613	30.728659	0.000466	4.662780	1.579793	-0.000187
 863	8.5769e+01	5.6309	30.542950	0.000466	4.662780	1.579793	-0.000187
 864	8.5868e+01	5.5795	30.345131	0.000497	4.966874	1.682823	-0.000199
 865	8.5968e+01	5.5394	30.183645	0.000405	4.054591	1.373733	-0.000162
 866	8.6067e+01	5.4977	29.981789	0.000507	5.068239	1.717166	-0.000203
 867	8.6167e+01	5.4640	29.848563	0.000335	3.345038	1.133329	-0.000134
 868	8.6266e+01	5.4223	29.666892	0.000456	4.561415	1.545449	-0.000183
 869	8.6366e+01	5.3822	29.469072	0.000497	4.966874	1.682823	-0.000199
 870	8.6466e+01	5.3469	29.267216	0.000507	5.068239	1.717166	-0.000203
 871	8.6565e+01	5.3020	29.105730	0.000405	4.054591	1.373733	-0.000162
 872	8.6665e+01	5.2683	28.924059	0.000456	4.561415	1.545449	-0.000183
 873	8.6764e+01	5.2266	28.750462	0.000436	4.358686	1.476763	-0.000174
 874	8.6864e+01	5.1833	28.564754	0.000466	4.662780	1.579793	-0.000187
 875	8.6963e+01	5.1384	28.403268	0.000405	4.054591	1.373733	-0.000162
 876	8.7063e+01	5.0983	28.257932	0.000365	3.649132	1.236359	-0.000146
 877	8.7162e+01	5.0598	28.072223	0.000466	4.662780	1.579793	-0.000187
 878	8.7261e+01	5.0148	27.890552	0.000456	4.561415	1.545449	-0.000183
 879	8.7361e+01	4.9747	27.725030	0.000416	4.155956	1.408076	-0.000166
 880	8.7460e+01	4.9410	27.559507	0.000416	4.155956	1.408076	-0.000166
 881	8.7560e+01	4.9057	27.381873	0.000446	4.460050	1.511106	-0.000179
 882	8.7659e+01	4.8705	27.216351	0.000416	4.155956	1.408076	-0.000166
 883	8.7759e+01	4.8319	27.010457	0.000517	5.169604	1.751509	-0.000207
 884	8.7859e+01	4.7854	26.844934	0.000416	4.155956	1.408076	-0.000166
 885	8.7958e+01	4.7373	26.687486	0.000395	3.953226	1.339389	-0.000158
 886	8.8058e+01	4.7132	26.501778	0.000466	4.662780	1.579793	-0.000187
 887	8.8157e+01	4.6667	26.344329	0.000395	3.953226	1.339389	-0.000158
 888	8.8257e+01	4.6266	26.166695	0.000446	4.460050	1.511106	-0.000179
 889	8.8356e+01	4.5769	25.993098	0.000436	4.358686	1.476763	-0.000174
 890	8.8456e+01	4.5512	25.831613	0.000405	4.054591	1.373733	-0.000162
 891	8.8555e+01	4.4999	25.637831	0.000487	4.865509	1.648479	-0.000195
 892	8.8654e+01	4.4630	25.496531	0.000355	3.547767	1.202016	-0.000142
 893	8.8754e+01	4.4165	25.347157	0.000375	3.750497	1.270703	-0.000150
 894	8.8853e+01	4.3860	25.173560	0.000436	4.358686	1.476763	-0.000174
 895	8.8953e+01	4.3459	24.999963	0.000436	4.358686	1.476763	-0.000174
 896	8.9052e+01	4.3026	24.806181	0.000487	4.865509	1.648479	-0.000195
 897	8.9152e+01	4.2624	24.656807	0.000375	3.750497	1.270703	-0.000150
 898	8.9251e+01	4.2336	24.483210	0.000436	4.358686	1.476763	-0.000174
 899	8.9351e+01	4.1870	24.309613	0.000436	4.358686	1.476763	-0.000174
 900	8.9451e+01	4.1518	24.140053	0.000426	4.257321	1.442419	-0.000170
 901	8.9550e+01	4.0988	24.002791	0.000345	3.446403	1.167673	-0.000138
 902	8.9650e+01	4.0619	23.809008	0.000487	4.865509	1.648479	-0.000195
 903	8.9749e+01	4.0346	23.671745	0.000345	3.446403	1.167673	-0.000138
 904	8.9849e+01	3.9961	23.502186	0.000426	4.257321	1.442419	-0.000170
 905	8.9948e+01	3.9560	23.348775	0.000385	3.851862	1.305046	-0.000154
 906	9.0047e+01	3.9095	23.175178	0.000436	4.358686	1.476763	-0.000174
 907	9.0147e+01	3.8726	23.029841	0.000365	3.649132	1.236359	-0.000146
 908	9.0246e+01	3.8357	22.884504	0.000365	3.649132	1.236359	-0.000146
 909	9.0346e+01	3.7892	22.743204	0.000355	3.547767	1.202016	-0.000142
 910	9.0445e+01	3.7507	22.601904	0.000355	3.547767	1.202016	-0.000142
 911	9.0545e+01	3.7010	22.464642	0.000345	3.446403	1.167673	-0.000138
 912	9.0644e+01	3.6721	22.287008	0.000446	4.460050	1.511106	-0.000179
 913	9.0744e+01	3.6304	22.186079	0.000253	2.534120	0.858583	-0.000101
 914	9.0844e+01	3.5823	22.036705	0.000375	3.750497	1.270703	-0.000150
 915	9.0943e+01	3.5550	21.915591	0.000304	3.040943	1.030300	-0.000122
 916	9.1043e+01	3.5165	21.822737	0.000233	2.331390	0.789896	-0.000093
 917	9.1142e+01	3.4748	21.729883	0.000233	2.331390	0.789896	-0.000093
 918	9.1242e+01	3.4315	21.628955	0.000253	2.534120	0.858583	-0.000101
 919	9.1341e+01	3.3946	21.467469	0.000405	4.054591	1.373733	-0.000162
 920	9.1441e+01	3.3496	21.398838	0.000172	1.723201	0.583836	-0.000069
 921	9.1540e+01	3.3143	21.314058	0.000213	2.128660	0.721210	-0.000085
 922	9.1639e+01	3.2726	21.156610	0.000395	3.953226	1.339389	-0.000158
 923	9.1739e+01	3.2325	21.108164	0.000122	1.216377	0.412120	-0.000049
 924	9.1838e+01	3.1860	20.950716	0.000395	3.953226	1.339389	-0.000158
 925	9.1938e+01	3.1427	20.805379	0.000365	3.649132	1.236359	-0.000146
 926	9.2037e+01	3.1170	20.599485	0.000517	5.169604	1.751509	-0.000207
 927	9.2137e+01	3.0737	20.429925	0.000426	4.257321	1.442419	-0.000170
 928	9.2237e+01	3.0288	20.203846	0.000568	5.676428	1.923226	-0.000227
 929	9.2336e+01	2.9919	20.046398	0.000395	3.953226	1.339389	-0.000158
 930	9.2436e+01	2.9518	19.860689	0.000466	4.662780	1.579793	-0.000187
 931	9.2535e+01	2.9133	18.144907	0.004308	43.080032	14.595910	-0.001724
 932	9.2635e+01	2.8764	17.091214	0.002646	26.456208	8.963606	-0.001059
 933	9.2734e+01	2.8363	16.897432	0.000487	4.865509	1.648479	-0.000195
 934	9.2834e+01	2.7898	16.679426	0.000547	5.473698	1.854539	-0.000219
 935	9.2933e+01	2.7497	16.485644	0.000487	4.865509	1.648479	-0.000195
 936	9.3032e+01	2.7208	16.316084	0.000426	4.257321	1.442419	-0.000170
 937	9.3132e+01	2.6694	16.102116	0.000537	5.372333	1.820196	-0.000215
 938	9.3231e+01	2.6342	15.892185	0.000527	5.270969	1.785853	-0.000211
 939	9.3331e+01	2.5908	15.827591	0.000162	1.621836	0.549493	-0.000065
 940	9.3430e+01	2.5571	15.787219	0.000101	1.013648	0.343433	-0.000041
 941	9.3530e+01	2.5202	15.803368	-0.000041	-0.405459	-0.137373	0.000016
 942	9.3629e+01	2.4689	15.758959	0.000112	1.115013	0.377776	-0.000045
 943	9.3729e+01	2.4400	15.714551	0.000112	1.115013	0.377776	-0.000045
 944	9.3829e+01	2.3903	15.609585	0.000264	2.635484	0.892926	-0.000105
 945	9.3928e+01	2.3582	15.581325	0.000071	0.709553	0.240403	-0.000028
 946	9.4028e+01	2.3149	15.020164	0.001409	14.089705	4.773721	-0.000564
 947	9.4127e+01	2.2700	14.265219	0.001896	18.955214	6.422200	-0.000759
 948	9.4227e+01	2.2443	14.055288	0.000527	5.270969	1.785853	-0.000211
 949	9.4326e+01	2.1978	14.055288	-0.000000	-0.000000	-0.000000	0.000000
 950	9.4425e+01	2.1577	14.047214	0.000020	0.202730	0.068687	-0.000008
 951	9.4525e+01	2.1176	14.079511	-0.000081	-0.810918	-0.274747	0.000032
 952	9.4624e+01	2.0743	14.031065	0.000122	1.216377	0.412120	-0.000049
 953	9.4724e+01	2.0374	13.994731	0.000091	0.912283	0.309090	-0.000037
 954	9.4823e+01	1.9876	14.006842	-0.000030	-0.304094	-0.103030	0.000012
 955	9.4923e+01	1.9572	13.893803	0.000284	2.838214	0.961613	-0.000114
 956	9.5022e+01	1.9155	13.829208	0.000162	1.621836	0.549493	-0.000065
 957	9.5122e+01	1.8802	13.780763	0.000122	1.216377	0.412120	-0.000049
 958	9.5222e+01	1.8481	13.748466	0.000081	0.810918	0.274747	-0.000032
 959	9.5321e+01	1.7967	13.780763	-0.000081	-0.810918	-0.274747	0.000032
 960	9.5421e+01	1.7566	13.740391	0.000101	1.013648	0.343433	-0.000041
 961	9.5520e+01	1.7181	13.687909	0.000132	1.317742	0.446463	-0.000053
 962	9.5620e+01	1.6668	13.671760	0.000041	0.405459	0.137373	-0.000016
 963	9.5719e+01	1.6379	13.627352	0.000112	1.115013	0.377776	-0.000045
 964	9.5819e+01	1.5946	13.647537	-0.000051	-0.506824	-0.171717	0.000020
 965	9.5918e+01	1.5529	13.574869	0.000182	1.824566	0.618180	-0.000073
 966	9.6017e+01	1.5160	13.546609	0.000071	0.709553	0.240403	-0.000028
 967	9.6117e+01	1.4807	13.490089	0.000142	1.419107	0.480806	-0.000057
 968	9.6216e+01	1.4310	13.429532	0.000152	1.520472	0.515150	-0.000061
 969	9.6316e+01	1.3925	13.336678	0.000233	2.331390	0.789896	-0.000093
 970	9.6415e+01	1.3572	13.264009	0.000182	1.824566	0.618180	-0.000073
 971	9.6515e+01	1.3123	13.146933	0.000294	2.939579	0.995956	-0.000118
 972	9.6615e+01	1.2770	12.997559	0.000375	3.750497	1.270703	-0.000150
 973	9.6714e+01	1.2497	12.852222	0.000365	3.649132	1.236359	-0.000146
 974	9.6814e+01	1.2000	12.755330	0.000243	2.432755	0.824240	-0.000097
 975	9.6913e+01	1.1599	12.614031	0.000355	3.547767	1.202016	-0.000142
 976	9.7013e+01	1.1149	12.420248	0.000487	4.865509	1.648479	-0.000195
 977	9.7112e+01	1.0748	12.242614	0.000446	4.460050	1.511106	-0.000179
 978	9.7212e+01	1.0395	11.984237	0.000649	6.487346	2.197972	-0.000260
 979	9.7311e+01	0.9962	11.737972	0.000618	6.183252	2.094942	-0.000248
 980	9.7410e+01	0.9625	11.455373	0.000710	7.095535	2.404032	-0.000284
 981	9.7510e+01	0.9224	11.184885	0.000679	6.791440	2.301002	-0.000272
 982	9.7609e+01	0.8775	10.918434	0.000669	6.690076	2.266659	-0.000268
 983	9.7709e+01	0.8390	10.631797	0.000720	7.196899	2.438376	-0.000288
 984	9.7808e+01	0.8021	10.401680	0.000578	5.777793	1.957569	-0.000231
 985	9.7908e+01	0.7604	10.135229	0.000669	6.690076	2.266659	-0.000268
 986	9.8007e+01	0.7235	9.917224	0.000547	5.473698	1.854539	-0.000219
 987	9.8107e+01	0.6770	9.707293	0.000527	5.270969	1.785853	-0.000211
 988	9.8207e+01	0.6385	9.481213	0.000568	5.676428	1.923226	-0.000227
 989	9.8306e+01	0.6016	9.247059	0.000588	5.879157	1.991912	-0.000235
 990	9.8406e+01	0.5647	9.049240	0.000497	4.966874	1.682823	-0.000199
 991	9.8505e+01	0.5182	8.815086	0.000588	5.879157	1.991912	-0.000235
 992	9.8605e+01	0.4829	8.621303	0.000487	4.865509	1.648479	-0.000195
 993	9.8704e+01	0.4412	8.407335	0.000537	5.372333	1.820196	-0.000215
 994	9.8803e+01	0.4027	8.173181	0.000588	5.879157	1.991912	-0.000235
 995	9.8903e+01	0.3529	7.955176	0.000547	5.473698	1.854539	-0.000219
 996	9.9002e+01	0.3241	7.749282	0.000517	5.169604	1.751509	-0.000207
 997	9.9102e+01	0.2727	7.575685	0.000436	4.358686	1.476763	-0.000174
 998	9.9201e+01	0.2374	7.454571	0.000304	3.040943	1.030300	-0.000122
 999	9.9301e+01	0.2053	7.297123	0.000395	3.953226	1.339389	-0.000158
1000	9.9400e+01	0.1668	7.216380	0.000203	2.027296	0.686866	-0.000081
1001	9.9500e+01	0.1219	7.087192	0.000324	3.243673	1.098986	-0.000130
1002	9.9600e+01	0.0738	7.018560	0.000172	1.723201	0.583836	-0.000069
1003	9.9699e+01	0.0497	6.909558	0.000274	2.736849	0.927270	-0.000110
1004	9.9799e+01	-0.0064	6.820741	0.000223	2.230025	0.755553	-0.000089
1005	9.9898e+01	-0.0273	6.772295	0.000122	1.216377	0.412120	-0.000049
1006	9.9998e+01	-0.0626	6.691552	0.000203	2.027296	0.686866	-0.000081
1007	1.0010e+02	-0.1155	6.614847	0.000193	1.925931	0.652523	-0.000077
1008	1.0020e+02	-0.1428	6.530067	0.000213	2.128660	0.721210	-0.000085
1009	1.0030e+02	-0.1957	6.477584	0.000132	1.317742	0.446463	-0.000053
1010	1.0040e+02	-0.2278	6.388767	0.000223	2.230025	0.755553	-0.000089
1011	1.0050e+02	-0.2679	6.344359	0.000112	1.115013	0.377776	-0.000045
1012	1.0059e+02	-0.3128	6.263616	0.000203	2.027296	0.686866	-0.000081
1013	1.0069e+02	-0.3497	6.166725	0.000243	2.432755	0.824240	-0.000097
1014	1.0079e+02	-0.3930	6.102131	0.000162	1.621836	0.549493	-0.000065
1015	1.0089e+02	-0.4283	6.017351	0.000213	2.128660	0.721210	-0.000085
1016	1.0099e+02	-0.4716	5.981017	0.000091	0.912283	0.309090	-0.000037
1017	1.0109e+02	-0.5101	5.823568	0.000395	3.953226	1.339389	-0.000158
1018	1.0119e+02	-0.5486	5.714566	0.000274	2.736849	0.927270	-0.000110
1019	1.0129e+02	-0.5839	5.654009	0.000152	1.520472	0.515150	-0.000061
1020	1.0139e+02	-0.6305	5.516746	0.000345	3.446403	1.167673	-0.000138
1021	1.0149e+02	-0.6642	5.403706	0.000284	2.838214	0.961613	-0.000114
1022	1.0159e+02	-0.7059	5.230109	0.000436	4.358686	1.476763	-0.000174
1023	1.0169e+02	-0.7508	5.117070	0.000284	2.838214	0.961613	-0.000114
1024	1.0179e+02	-0.7861	4.979807	0.000345	3.446403	1.167673	-0.000138
1025	1.0189e+02	-0.8278	4.794099	0.000466	4.662780	1.579793	-0.000187
1026	1.0199e+02	-0.8615	4.677022	0.000294	2.939579	0.995956	-0.000118
1027	1.0209e+02	-0.9064	4.483239	0.000487	4.865509	1.648479	-0.000195
1028	1.0219e+02	-0.9417	4.325791	0.000395	3.953226	1.339389	-0.000158
1029	1.0229e+02	-0.9834	4.127971	0.000497	4.966874	1.682823	-0.000199
1030	1.0239e+02	-1.0251	3.958412	0.000426	4.257321	1.442419	-0.000170
1031	1.0248e+02	-1.0588	3.784815	0.000436	4.358686	1.476763	-0.000174
1032	1.0258e+02	-1.1037	3.623329	0.000405	4.054591	1.373733	-0.000162
1033	1.0268e+02	-1.1502	3.364953	0.000649	6.487346	2.197972	-0.000260
1034	1.0278e+02	-1.1807	3.163096	0.000507	5.068239	1.717166	-0.000203
1035	1.0288e+02	-1.2224	2.949128	0.000537	5.372333	1.820196	-0.000215
1036	1.0298e+02	-1.2593	2.759382	0.000476	4.764145	1.614136	-0.000191
1037	1.0308e+02	-1.3091	2.561563	0.000497	4.966874	1.682823	-0.000199
1038	1.0318e+02	-1.3411	2.274926	0.000720	7.196899	2.438376	-0.000288
1039	1.0328e+02	-1.3748	2.056921	0.000547	5.473698	1.854539	-0.000219
1040	1.0338e+02	-1.4358	1.838915	0.000547	5.473698	1.854539	-0.000219
1041	1.0348e+02	-1.4727	1.612836	0.000568	5.676428	1.923226	-0.000227
1042	1.0358e+02	-1.5080	1.346385	0.000669	6.690076	2.266659	-0.000268
1043	1.0368e+02	-1.5320	1.120305	0.000568	5.676428	1.923226	-0.000227
1044	1.0378e+02	-1.5834	0.914411	0.000517	5.169604	1.751509	-0.000207
1045	1.0388e+02	-1.6315	0.603552	0.000781	7.805088	2.644435	-0.000312
1046	1.0398e+02	-1.6524	0.405732	0.000497	4.966874	1.682823	-0.000199
1047	1.0408e+02	-1.6957	0.143318	0.000659	6.588711	2.232316	-0.000264
1048	1.0418e+02	-1.7406	-0.127170	0.000679	6.791440	2.301002	-0.000272
1049	1.0428e+02	-1.7695	-0.417844	0.000730	7.298264	2.472719	-0.000292
1050	1.0438e+02	-1.8224	-0.708517	0.000730	7.298264	2.472719	-0.000292
1051	1.0447e+02	-1.8609	-0.962857	0.000639	6.385981	2.163629	-0.000256
1052	1.0457e+02	-1.8994	-1.225271	0.000659	6.588711	2.232316	-0.000264
1053	1.0467e+02	-1.9395	-1.548242	0.000811	8.109182	2.747465	-0.000325
1054	1.0477e+02	-1.9732	-1.818730	0.000679	6.791440	2.301002	-0.000272
1055	1.0487e+02	-2.0294	-2.198220	0.000953	9.528289	3.228272	-0.000381
1056	1.0497e+02	-2.0598	-2.545414	0.000872	8.717371	2.953525	-0.000349
1057	1.0507e+02	-2.0935	-2.924905	0.000953	9.528289	3.228272	-0.000381
1058	1.0517e+02	-2.1497	-3.259987	0.000841	8.413277	2.850495	-0.000337
1059	1.0527e+02	-2.1866	-3.599107	0.000851	8.514642	2.884839	-0.000341
1060	1.0537e+02	-2.2219	-3.954374	0.000892	8.920101	3.022212	-0.000357
1061	1.0547e+02	-2.2636	-4.285420	0.000831	8.311912	2.816152	-0.000333
1062	1.0557e+02	-2.3085	-4.685096	0.001004	10.035113	3.399988	-0.000402
1063	1.0567e+02	-2.3390	-5.096884	0.001034	10.339208	3.503018	-0.000414
1064	1.0577e+02	-2.3823	-5.464263	0.000922	9.224195	3.125242	-0.000369
1065	1.0587e+02	-2.4304	-5.851828	0.000973	9.731019	3.296958	-0.000390
1066	1.0597e+02	-2.4673	-6.146539	0.000740	7.399629	2.507062	-0.000296
1067	1.0607e+02	-2.4962	-6.481621	0.000841	8.413277	2.850495	-0.000337
1068	1.0617e+02	-2.5443	-6.772295	0.000730	7.298264	2.472719	-0.000292
1069	1.0627e+02	-2.5876	-7.018560	0.000618	6.183252	2.094942	-0.000248
1070	1.0637e+02	-2.6149	-7.159860	0.000355	3.547767	1.202016	-0.000142
1071	1.0647e+02	-2.6566	-7.353643	0.000487	4.865509	1.648479	-0.000195
1072	1.0656e+02	-2.6983	-7.482831	0.000324	3.243673	1.098986	-0.000130
1073	1.0666e+02	-2.7464	-7.664502	0.000456	4.561415	1.545449	-0.000183
1074	1.0676e+02	-2.7817	-7.793691	0.000324	3.243673	1.098986	-0.000130
1075	1.0686e+02	-2.8170	-7.999584	0.000517	5.169604	1.751509	-0.000207
1076	1.0696e+02	-2.8555	-8.225664	0.000568	5.676428	1.923226	-0.000227
1077	1.0706e+02	-2.8940	-8.475966	0.000628	6.284616	2.129286	-0.000252
1078	1.0716e+02	-2.9374	-8.734343	0.000649	6.487346	2.197972	-0.000260
1079	1.0726e+02	-2.9791	-9.016943	0.000710	7.095535	2.404032	-0.000284
1080	1.0736e+02	-3.0224	-9.263208	0.000618	6.183252	2.094942	-0.000248
1081	1.0746e+02	-3.0593	-9.565993	0.000760	7.602359	2.575749	-0.000304
1082	1.0756e+02	-3.0946	-9.832444	0.000669	6.690076	2.266659	-0.000268
1083	1.0766e+02	-3.1395	-10.058524	0.000568	5.676428	1.923226	-0.000227
1084	1.0776e+02	-3.1684	-10.207898	0.000375	3.750497	1.270703	-0.000150
1085	1.0786e+02	-3.2229	-10.316900	0.000274	2.736849	0.927270	-0.000110
1086	1.0796e+02	-3.2534	-10.397643	0.000203	2.027296	0.686866	-0.000081
1087	1.0806e+02	-3.2935	-10.482423	0.000213	2.128660	0.721210	-0.000085
1088	1.0816e+02	-3.3304	-10.555091	0.000182	1.824566	0.618180	-0.000073
1089	1.0826e+02	-3.3753	-12.549436	0.005007	50.074202	16.965599	-0.002004
1090	1.0836e+02	-3.4170	-13.110598	0.001409	14.089705	4.773721	-0.000564
1091	1.0845e+02	-3.4587	-13.255935	0.000365	3.649132	1.236359	-0.000146
1092	1.0855e+02	-3.4956	-13.264009	0.000020	0.202730	0.068687	-0.000008
1093	1.0865e+02	-3.5405	-13.259972	-0.000010	-0.101365	-0.034343	0.000004
1094	1.0875e+02	-3.5774	-13.922063	0.001662	16.623824	5.632304	-0.000665
1095	1.0885e+02	-3.6240	-14.103734	0.000456	4.561415	1.545449	-0.000183
1096	1.0895e+02	-3.6577	-14.333850	0.000578	5.777793	1.957569	-0.000231
1097	1.0905e+02	-3.6994	-14.547819	0.000537	5.372333	1.820196	-0.000215
1098	1.0915e+02	-3.7330	-14.681044	0.000335	3.345038	1.133329	-0.000134
1099	1.0925e+02	-3.7716	-14.790047	0.000274	2.736849	0.927270	-0.000110
1100	1.0935e+02	-3.8181	-14.967681	0.000446	4.460050	1.511106	-0.000179
1101	1.0945e+02	-3.8582	-15.020164	0.000132	1.317742	0.446463	-0.000053
1102	1.0955e+02	-3.8999	-15.137240	0.000294	2.939579	0.995956	-0.000118
1103	1.0965e+02	-3.9288	-15.569214	0.001085	10.846032	3.674735	-0.000434
1104	1.0975e+02	-3.9801	-15.867962	0.000750	7.500994	2.541405	-0.000300
1105	1.0985e+02	-4.0154	-16.049633	0.000456	4.561415	1.545449	-0.000183
1106	1.0995e+02	-4.0571	-16.243416	0.000487	4.865509	1.648479	-0.000195
1107	1.1005e+02	-4.0908	-16.388753	0.000365	3.649132	1.236359	-0.000146
1108	1.1015e+02	-4.1293	-16.635018	0.000618	6.183252	2.094942	-0.000248
1109	1.1025e+02	-4.1742	-16.788429	0.000385	3.851862	1.305046	-0.000154
1110	1.1035e+02	-4.2063	-16.970100	0.000456	4.561415	1.545449	-0.000183
1111	1.1044e+02	-4.2592	-16.990286	0.000051	0.506824	0.171717	-0.000020
1112	1.1054e+02	-4.2977	-16.994323	0.000010	0.101365	0.034343	-0.000004
1113	1.1064e+02	-4.3346	-16.990286	-0.000010	-0.101365	-0.034343	0.000004
1114	1.1074e+02	-4.3683	-17.026620	0.000091	0.912283	0.309090	-0.000037
1115	1.1084e+02	-4.4165	-17.066991	0.000101	1.013648	0.343433	-0.000041
1116	1.1094e+02	-4.4598	-17.095251	0.000071	0.709553	0.240403	-0.000028
1117	1.1104e+02	-4.4935	-17.196180	0.000253	2.534120	0.858583	-0.000101
1118	1.1114e+02	-4.5320	-17.268848	0.000182	1.824566	0.618180	-0.000073
1119	1.1124e+02	-4.5705	-17.337479	0.000172	1.723201	0.583836	-0.000069
1120	1.1134e+02	-4.6122	-17.357665	0.000051	0.506824	0.171717	-0.000020
1121	1.1144e+02	-4.6587	-17.462631	0.000264	2.635484	0.892926	-0.000105
1122	1.1154e+02	-4.6924	-17.466668	0.000010	0.101365	0.034343	-0.000004
1123	1.1164e+02	-4.7293	-17.616042	0.000375	3.750497	1.270703	-0.000150
1124	1.1174e+02	-4.7742	-17.688710	0.000182	1.824566	0.618180	-0.000073
1125	1.1184e+02	-4.8095	-17.733119	0.000112	1.115013	0.377776	-0.000045
1126	1.1194e+02	-4.8560	-17.862307	0.000324	3.243673	1.098986	-0.000130
1127	1.1204e+02	-4.8849	-17.975347	0.000284	2.838214	0.961613	-0.000114
1128	1.1214e+02	-4.9362	-18.136832	0.000405	4.054591	1.373733	-0.000162
1129	1.1224e+02	-4.9715	-18.310429	0.000436	4.358686	1.476763	-0.000174
1130	1.1234e+02	-5.0052	-18.488063	0.000446	4.460050	1.511106	-0.000179
1131	1.1244e+02	-5.0598	-18.714143	0.000568	5.676428	1.923226	-0.000227
1132	1.1253e+02	-5.0934	-18.976557	0.000659	6.588711	2.232316	-0.000264
1133	1.1263e+02	-5.1223	-19.214748	0.000598	5.980522	2.026256	-0.000239
1134	1.1273e+02	-5.1704	-19.456976	0.000608	6.081887	2.060599	-0.000243
1135	1.1283e+02	-5.2073	-19.646721	0.000476	4.764145	1.614136	-0.000191
1136	1.1293e+02	-5.2539	-19.856652	0.000527	5.270969	1.785853	-0.000211
1137	1.1303e+02	-5.2876	-20.127140	0.000679	6.791440	2.301002	-0.000272
1138	1.1313e+02	-5.3357	-20.381480	0.000639	6.385981	2.163629	-0.000256
1139	1.1323e+02	-5.3710	-20.583337	0.000507	5.068239	1.717166	-0.000203
1140	1.1333e+02	-5.4175	-20.765008	0.000456	4.561415	1.545449	-0.000183
1141	1.1343e+02	-5.4480	-20.970902	0.000517	5.169604	1.751509	-0.000207
1142	1.1353e+02	-5.4881	-21.156610	0.000466	4.662780	1.579793	-0.000187
1143	1.1363e+02	-5.5250	-21.330207	0.000436	4.358686	1.476763	-0.000174
1144	1.1373e+02	-5.5699	-21.653178	0.000811	8.109182	2.747465	-0.000325
1145	1.1383e+02	-5.6116	-21.984223	0.000831	8.311912	2.816152	-0.000333
1146	1.1393e+02	-5.6453	-22.363713	0.000953	9.528289	3.228272	-0.000381
1147	1.1403e+02	-5.6870	-22.767427	0.001014	10.136478	3.434332	-0.000406
1148	1.1413e+02	-5.7335	-23.094435	0.000821	8.210547	2.781809	-0.000329
1149	1.1423e+02	-5.7720	-23.389146	0.000740	7.399629	2.507062	-0.000296
1150	1.1433e+02	-5.8121	-23.675783	0.000720	7.196899	2.438376	-0.000288
1151	1.1442e+02	-5.8490	-23.922048	0.000618	6.183252	2.094942	-0.000248
1152	1.1452e+02	-5.8907	-24.204647	0.000710	7.095535	2.404032	-0.000284
1153	1.1462e+02	-5.9260	-24.378244	0.000436	4.358686	1.476763	-0.000174
1154	1.1472e+02	-5.9677	-24.608361	0.000578	5.777793	1.957569	-0.000231
1155	1.1482e+02	-6.0095	-24.798106	0.000476	4.764145	1.614136	-0.000191
1156	1.1492e+02	-6.0528	-24.927295	0.000324	3.243673	1.098986	-0.000130
1157	1.1502e+02	-6.0833	-25.137226	0.000527	5.270969	1.785853	-0.000211
1158	1.1512e+02	-6.1282	-25.322934	0.000466	4.662780	1.579793	-0.000187
1159	1.1522e+02	-6.1570	-25.444048	0.000304	3.040943	1.030300	-0.000122
1160	1.1532e+02	-6.2260	-25.637831	0.000487	4.865509	1.648479	-0.000195
1161	1.1542e+02	-6.2517	-25.831613	0.000487	4.865509	1.648479	-0.000195
1162	1.1552e+02	-6.2870	-25.993098	0.000405	4.054591	1.373733	-0.000162
1163	1.1562e+02	-6.3255	-26.194955	0.000507	5.068239	1.717166	-0.000203
1164	1.1572e+02	-6.3704	-26.340292	0.000365	3.649132	1.236359	-0.000146
1165	1.1582e+02	-6.4057	-26.501778	0.000405	4.054591	1.373733	-0.000162
1166	1.1592e+02	-6.4394	-26.655189	0.000385	3.851862	1.305046	-0.000154
1167	1.1602e+02	-6.4859	-26.848971	0.000487	4.865509	1.648479	-0.000195
1168	1.1612e+02	-6.5260	-27.014494	0.000416	4.155956	1.408076	-0.000166
1169	1.1622e+02	-6.5597	-27.143682	0.000324	3.243673	1.098986	-0.000130
1170	1.1632e+02	-6.6046	-27.345539	0.000507	5.068239	1.717166	-0.000203
1171	1.1642e+02	-6.6479	-27.547396	0.000507	5.068239	1.717166	-0.000203
1172	1.1651e+02	-6.6816	-27.692733	0.000365	3.649132	1.236359	-0.000146
1173	1.1661e+02	-6.7185	-27.914775	0.000558	5.575063	1.888882	-0.000223
1174	1.1671e+02	-6.7667	-28.060112	0.000365	3.649132	1.236359	-0.000146
1175	1.1681e+02	-6.7955	-28.225635	0.000416	4.155956	1.408076	-0.000166
1176	1.1691e+02	-6.8340	-28.387120	0.000405	4.054591	1.373733	-0.000162
1177	1.1701e+02	-6.8822	-28.560717	0.000436	4.358686	1.476763	-0.000174
1178	1.1711e+02	-6.9223	-28.702017	0.000355	3.547767	1.202016	-0.000142
1179	1.1721e+02	-6.9672	-28.887725	0.000466	4.662780	1.579793	-0.000187
1180	1.1731e+02	-7.0025	-29.081507	0.000487	4.865509	1.648479	-0.000195
1181	1.1741e+02	-7.0362	-29.214733	0.000335	3.345038	1.133329	-0.000134
1182	1.1751e+02	-7.0795	-29.432738	0.000547	5.473698	1.854539	-0.000219
1183	1.1761e+02	-7.1244	-29.590186	0.000395	3.953226	1.339389	-0.000158
1184	1.1771e+02	-7.1677	-29.731486	0.000355	3.547767	1.202016	-0.000142
1185	1.1781e+02	-7.2030	-29.905083	0.000436	4.358686	1.476763	-0.000174
1186	1.1791e+02	-7.2463	-30.078680	0.000436	4.358686	1.476763	-0.000174
1187	1.1801e+02	-7.2720	-30.232091	0.000385	3.851862	1.305046	-0.000154
1188	1.1811e+02	-7.3281	-30.450096	0.000547	5.473698	1.854539	-0.000219
1189	1.1821e+02	-7.3666	-30.599470	0.000375	3.750497	1.270703	-0.000150
1190	1.1831e+02	-7.4003	-30.781141	0.000456	4.561415	1.545449	-0.000183
1191	1.1841e+02	-7.4501	-30.987035	0.000517	5.169604	1.751509	-0.000207
1192	1.1850e+02	-7.4837	-31.100075	0.000284	2.838214	0.961613	-0.000114
1193	1.1860e+02	-7.5190	-31.297895	0.000497	4.966874	1.682823	-0.000199
1194	1.1870e+02	-7.5527	-31.431120	0.000335	3.345038	1.133329	-0.000134
1195	1.1880e+02	-7.6009	-31.616829	0.000466	4.662780	1.579793	-0.000187
1196	1.1890e+02	-7.6361	-31.778314	0.000405	4.054591	1.373733	-0.000162
1197	1.1900e+02	-7.6746	-31.972096	0.000487	4.865509	1.648479	-0.000195
1198	1.1910e+02	-7.7196	-32.137619	0.000416	4.155956	1.408076	-0.000166
1199	1.1920e+02	-7.7581	-32.327364	0.000476	4.764145	1.614136	-0.000191
1200	1.1930e+02	-7.7789	-32.488850	0.000405	4.054591	1.373733	-0.000162
1201	1.1940e+02	-7.8319	-32.666484	0.000446	4.460050	1.511106	-0.000179
1202	1.1950e+02	-7.8816	-32.832006	0.000416	4.155956	1.408076	-0.000166
1203	1.1960e+02	-7.9185	-33.009640	0.000446	4.460050	1.511106	-0.000179
1204	1.1970e+02	-7.9538	-33.211497	0.000507	5.068239	1.717166	-0.000203
1205	1.1980e+02	-8.0035	-33.389131	0.000446	4.460050	1.511106	-0.000179
1206	1.1990e+02	-8.0372	-33.558691	0.000426	4.257321	1.442419	-0.000170
1207	1.2000e+02	-8.0789	-33.679805	0.000304	3.040943	1.030300	-0.000122
1208	1.2010e+02	-8.1142	-33.845327	0.000416	4.155956	1.408076	-0.000166
1209	1.2020e+02	-8.1575	-34.018924	0.000436	4.358686	1.476763	-0.000174
1210	1.2030e+02	-8.1944	-34.224818	0.000517	5.169604	1.751509	-0.000207
1211	1.2039e+02	-8.2361	-34.378229	0.000385	3.851862	1.305046	-0.000154
1212	1.2049e+02	-8.2778	-34.515492	0.000345	3.446403	1.167673	-0.000138
1213	1.2059e+02	-8.3115	-34.660829	0.000365	3.649132	1.236359	-0.000146
1214	1.2069e+02	-8.3516	-34.870760	0.000527	5.270969	1.785853	-0.000211
1215	1.2079e+02	-8.4014	-35.020134	0.000375	3.750497	1.270703	-0.000150
1216	1.2089e+02	-8.4318	-35.161434	0.000355	3.547767	1.202016	-0.000142
1217	1.2099e+02	-8.4848	-35.234102	0.000182	1.824566	0.618180	-0.000073
1218	1.2109e+02	-8.5153	-35.351179	0.000294	2.939579	0.995956	-0.000118
1219	1.2119e+02	-8.5602	-35.399625	0.000122	1.216377	0.412120	-0.000049
1220	1.2129e+02	-8.5939	-35.492479	0.000233	2.331390	0.789896	-0.000093
1221	1.2139e+02	-8.6388	-35.488442	-0.000010	-0.101365	-0.034343	0.000004
1222	1.2149e+02	-8.6837	-35.553036	0.000162	1.621836	0.549493	-0.000065
1223	1.2159e+02	-8.7110	-35.641853	0.000223	2.230025	0.755553	-0.000089
1224	1.2169e+02	-8.7543	-35.815450	0.000436	4.358686	1.476763	-0.000174
1225	1.2179e+02	-8.7928	-35.876007	0.000152	1.520472	0.515150	-0.000061
1226	1.2189e+02	-8.8281	-35.920415	0.000112	1.115013	0.377776	-0.000045
1227	1.2199e+02	-8.8746	-35.972898	0.000132	1.317742	0.446463	-0.000053
1228	1.2209e+02	-8.9099	-36.089975	0.000294	2.939579	0.995956	-0.000118
1229	1.2219e+02	-8.9452	-36.154569	0.000162	1.621836	0.549493	-0.000065
1230	1.2229e+02	-8.9949	-36.146495	-0.000020	-0.202730	-0.068687	0.000008
1231	1.2239e+02	-9.0318	-36.154569	0.000020	0.202730	0.068687	-0.000008
1232	1.2248e+02	-9.0687	-36.247423	0.000233	2.331390	0.789896	-0.000093
1233	1.2258e+02	-9.1249	-36.312017	0.000162	1.621836	0.549493	-0.000065
1234	1.2268e+02	-9.1473	-38.310400	0.005018	50.175566	16.999942	-0.002008
1235	1.2278e+02	-9.1939	-38.479959	0.000426	4.257321	1.442419	-0.000170
1236	1.2288e+02	-9.2404	-38.681816	0.000507	5.068239	1.717166	-0.000203
1237	1.2298e+02	-9.2677	-38.879636	0.000497	4.966874	1.682823	-0.000199
1238	1.2308e+02	-9.3110	-38.915970	0.000091	0.912283	0.309090	-0.000037
1239	1.2318e+02	-9.3607	-38.920007	0.000010	0.101365	0.034343	-0.000004
1240	1.2328e+02	-9.3944	-38.936156	0.000041	0.405459	0.137373	-0.000016
1241	1.2338e+02	-9.4249	-38.932118	-0.000010	-0.101365	-0.034343	0.000004
1242	1.2348e+02	-9.4714	-38.956341	0.000061	0.608189	0.206060	-0.000024
1243	1.2358e+02	-9.5243	-39.133975	0.000446	4.460050	1.511106	-0.000179
1244	1.2368e+02	-9.5532	-39.222792	0.000223	2.230025	0.755553	-0.000089
1245	1.2378e+02	-9.5853	-39.460983	0.000598	5.980522	2.026256	-0.000239
1246	1.2388e+02	-9.6318	-40.308782	0.002129	21.286604	7.212097	-0.000852
1247	1.2398e+02	-9.6687	-40.522750	0.000537	5.372333	1.820196	-0.000215
1248	1.2408e+02	-9.6960	-40.655975	0.000335	3.345038	1.133329	-0.000134
1249	1.2418e+02	-9.7505	-40.720570	0.000162	1.621836	0.549493	-0.000065
1250	1.2428e+02	-9.7970	-40.724607	0.000010	0.101365	0.034343	-0.000004
1251	1.2438e+02	-9.8388	-40.724607	-0.000000	-0.000000	-0.000000	0.000000
1252	1.2447e+02	-9.8676	-40.720570	-0.000010	-0.101365	-0.034343	0.000004
1253	1.2457e+02	-9.9093	-40.704421	-0.000041	-0.405459	-0.137373	0.000016
1254	1.2467e+02	-9.9495	-40.740755	0.000091	0.912283	0.309090	-0.000037
1255	1.2477e+02	-9.9992	-40.756904	0.000041	0.405459	0.137373	-0.000016
1256	1.2487e+02	-10.0297	-40.748830	-0.000020	-0.202730	-0.068687	0.000008
1257	1.2497e+02	-10.0730	-40.821498	0.000182	1.824566	0.618180	-0.000073
1258	1.2507e+02	-10.1083	-40.825535	0.000010	0.101365	0.034343	-0.000004
1259	1.2517e+02	-10.1596	-40.886092	0.000152	1.520472	0.515150	-0.000061
1260	1.2527e+02	-10.1885	-40.906278	0.000051	0.506824	0.171717	-0.000020
1261	1.2537e+02	-10.2270	-40.914352	0.000020	0.202730	0.068687	-0.000008
1262	1.2547e+02	-10.2783	-40.946649	0.000081	0.810918	0.274747	-0.000032
1263	1.2557e+02	-10.3040	-40.934538	-0.000030	-0.304094	-0.103030	0.000012
1264	1.2567e+02	-10.3473	-40.958761	0.000061	0.608189	0.206060	-0.000024
1265	1.2577e+02	-10.3874	-40.962798	0.000010	0.101365	0.034343	-0.000004
1266	1.2587e+02	-10.4291	-40.974909	0.000030	0.304094	0.103030	-0.000012
1267	1.2597e+02	-10.4676	-40.978946	0.000010	0.101365	0.034343	-0.000004
1268	1.2607e+02	-10.5061	-40.978946	-0.000000	-0.000000	-0.000000	0.000000
1269	1.2617e+02	-10.5398	-40.978946	-0.000000	-0.000000	-0.000000	0.000000
1270	1.2627e+02	-10.5783	-40.970872	-0.000020	-0.202730	-0.068687	0.000008
1271	1.2636e+02	-10.6264	-40.982983	0.000030	0.304094	0.103030	-0.000012
1272	1.2646e+02	-10.6617	-41.023355	0.000101	1.013648	0.343433	-0.000041
1273	1.2656e+02	-10.7050	-41.031429	0.000020	0.202730	0.068687	-0.000008
1274	1.2666e+02	-10.7371	-41.027392	-0.000010	-0.101365	-0.034343	0.000004
1275	1.2676e+02	-10.7869	-41.043540	0.000041	0.405459	0.137373	-0.000016
1276	1.2686e+02	-10.8254	-41.075838	0.000081	0.810918	0.274747	-0.000032
1277	1.2696e+02	-10.8591	-41.079875	0.000010	0.101365	0.034343	-0.000004
1278	1.2706e+02	-10.9056	-41.055652	-0.000061	-0.608189	-0.206060	0.000024
1279	1.2716e+02	-10.9425	-41.120246	0.000162	1.621836	0.549493	-0.000065
1280	1.2726e+02	-10.9778	-41.124283	0.000010	0.101365	0.034343	-0.000004
1281	1.2736e+02	-11.0291	-41.120246	-0.000010	-0.101365	-0.034343	0.000004
1282	1.2746e+02	-11.0612	-41.160617	0.000101	1.013648	0.343433	-0.000041
1283	1.2756e+02	-11.1093	-41.188877	0.000071	0.709553	0.240403	-0.000028
1284	1.2766e+02	-11.1382	-41.196952	0.000020	0.202730	0.068687	-0.000008
1285	1.2776e+02	-11.1831	-41.281731	0.000213	2.128660	0.721210	-0.000085
1286	1.2786e+02	-11.2248	-41.305954	0.000061	0.608189	0.206060	-0.000024
1287	1.2796e+02	-11.2681	-41.406883	0.000253	2.534120	0.858583	-0.000101
1288	1.2806e+02	-11.3002	-41.536071	0.000324	3.243673	1.098986	-0.000130
1289	1.2816e+02	-11.3483	-41.697556	0.000405	4.054591	1.373733	-0.000162
1290	1.2826e+02	-11.3772	-41.850968	0.000385	3.851862	1.305046	-0.000154
1291	1.2835e+02	-11.4237	-41.988230	0.000345	3.446403	1.167673	-0.000138
1292	1.2845e+02	-11.4558	-42.145679	0.000395	3.953226	1.339389	-0.000158
1293	1.2855e+02	-11.5056	-42.323313	0.000446	4.460050	1.511106	-0.000179
1294	1.2865e+02	-11.5505	-42.500946	0.000446	4.460050	1.511106	-0.000179
1295	1.2875e+02	-11.5826	-42.852177	0.000882	8.818736	2.987869	-0.000353
1296	1.2885e+02	-11.6323	-43.348745	0.001247	12.467868	4.224228	-0.000499
1297	1.2895e+02	-11.6660	-44.640628	0.003244	32.436730	10.989862	-0.001298
1298	1.2905e+02	-11.7157	-46.320077	0.004217	42.167749	14.286820	-0.001688
1299	1.2915e+02	-11.7494	-46.776273	0.001145	11.454220	3.880795	-0.000458
1300	1.2925e+02	-11.7735	-47.656369	0.002210	22.097522	7.486843	-0.000885
1301	1.2935e+02	-11.8248	-48.746395	0.002737	27.368491	9.272696	-0.001096
1302	1.2945e+02	-11.8521	-48.915955	0.000426	4.257321	1.442419	-0.000170
1303	1.2955e+02	-11.9146	-49.097626	0.000456	4.561415	1.545449	-0.000183
1304	1.2965e+02	-11.9467	-49.275260	0.000446	4.460050	1.511106	-0.000179
1305	1.2975e+02	-11.9884	-49.380226	0.000264	2.635484	0.892926	-0.000105
1306	1.2985e+02	-12.0221	-49.610343	0.000578	5.777793	1.957569	-0.000231
1307	1.2995e+02	-12.0590	-49.759717	0.000375	3.750497	1.270703	-0.000150
1308	1.3005e+02	-12.1055	-49.921202	0.000405	4.054591	1.373733	-0.000162
1309	1.3015e+02	-12.1424	-50.098836	0.000446	4.460050	1.511106	-0.000179
1310	1.3025e+02	-12.1906	-50.276470	0.000446	4.460050	1.511106	-0.000179
1311	1.3034e+02	-12.2355	-50.421807	0.000365	3.649132	1.236359	-0.000146
1312	1.3044e+02	-12.2547	-50.571181	0.000375	3.750497	1.270703	-0.000150
1313	1.3054e+02	-12.2997	-50.744778	0.000436	4.358686	1.476763	-0.000174
1314	1.3064e+02	-12.3366	-50.914337	0.000426	4.257321	1.442419	-0.000170
1315	1.3074e+02	-12.3751	-51.055637	0.000355	3.547767	1.202016	-0.000142
1316	1.3084e+02	-12.4312	-51.225197	0.000426	4.257321	1.442419	-0.000170
1317	1.3094e+02	-12.4553	-51.358422	0.000335	3.345038	1.133329	-0.000134
1318	1.3104e+02	-12.5066	-51.507796	0.000375	3.750497	1.270703	-0.000150
1319	1.3114e+02	-12.5467	-51.697542	0.000476	4.764145	1.614136	-0.000191
1320	1.3124e+02	-12.5756	-51.830767	0.000335	3.345038	1.133329	-0.000134
1321	1.3134e+02	-12.6301	-52.024550	0.000487	4.865509	1.648479	-0.000195
1322	1.3144e+02	-12.6654	-52.145664	0.000304	3.040943	1.030300	-0.000122
1323	1.3154e+02	-12.7023	-52.286964	0.000355	3.547767	1.202016	-0.000142
1324	1.3164e+02	-12.7376	-52.448449	0.000405	4.054591	1.373733	-0.000162
1325	1.3174e+02	-12.7793	-52.593786	0.000365	3.649132	1.236359	-0.000146
1326	1.3184e+02	-12.8162	-52.743160	0.000375	3.750497	1.270703	-0.000150
1327	1.3194e+02	-12.8563	-52.908682	0.000416	4.155956	1.408076	-0.000166
1328	1.3204e+02	-12.9044	-53.041908	0.000335	3.345038	1.133329	-0.000134
1329	1.3214e+02	-12.9381	-53.247802	0.000517	5.169604	1.751509	-0.000207
1330	1.3224e+02	-12.9831	-53.385064	0.000345	3.446403	1.167673	-0.000138
1331	1.3234e+02	-13.0183	-53.498104	0.000284	2.838214	0.961613	-0.000114
1332	1.3243e+02	-13.0585	-53.699961	0.000507	5.068239	1.717166	-0.000203
1333	1.3253e+02	-13.1050	-53.813001	0.000284	2.838214	0.961613	-0.000114
1334	1.3263e+02	-13.1387	-53.978523	0.000416	4.155956	1.408076	-0.000166
1335	1.3273e+02	-13.1740	-54.152120	0.000436	4.358686	1.476763	-0.000174
1336	1.3283e+02	-13.2221	-54.281309	0.000324	3.243673	1.098986	-0.000130
1337	1.3293e+02	-13.2558	-54.458943	0.000446	4.460050	1.511106	-0.000179
1338	1.3303e+02	-13.2943	-54.588131	0.000324	3.243673	1.098986	-0.000130
1339	1.3313e+02	-13.3360	-54.753653	0.000416	4.155956	1.408076	-0.000166
1340	1.3323e+02	-13.3809	-54.874768	0.000304	3.040943	1.030300	-0.000122
1341	1.3333e+02	-13.4178	-55.056439	0.000456	4.561415	1.545449	-0.000183
1342	1.3343e+02	-13.4611	-55.201776	0.000365	3.649132	1.236359	-0.000146
1343	1.3353e+02	-13.4932	-55.375372	0.000436	4.358686	1.476763	-0.000174
1344	1.3363e+02	-13.5269	-55.496486	0.000304	3.040943	1.030300	-0.000122
1345	1.3373e+02	-13.5766	-55.662009	0.000416	4.155956	1.408076	-0.000166
1346	1.3383e+02	-13.6103	-55.815420	0.000385	3.851862	1.305046	-0.000154
1347	1.3393e+02	-13.6536	-55.989017	0.000436	4.358686	1.476763	-0.000174
1348	1.3403e+02	-13.7001	-56.154540	0.000416	4.155956	1.408076	-0.000166
1349	1.3413e+02	-13.7242	-56.291802	0.000345	3.446403	1.167673	-0.000138
1350	1.3423e+02	-13.7804	-56.449250	0.000395	3.953226	1.339389	-0.000158
1351	1.3432e+02	-13.8157	-56.594587	0.000365	3.649132	1.236359	-0.000146
1352	1.3442e+02	-13.8509	-56.735887	0.000355	3.547767	1.202016	-0.000142
1353	1.3452e+02	-13.9007	-56.877187	0.000355	3.547767	1.202016	-0.000142
1354	1.3462e+02	-13.9360	-57.022524	0.000365	3.649132	1.236359	-0.000146
1355	1.3472e+02	-13.9777	-57.224381	0.000507	5.068239	1.717166	-0.000203
1356	1.3482e+02	-14.0146	-57.341457	0.000294	2.939579	0.995956	-0.000118
1357	1.3492e+02	-14.0451	-57.490831	0.000375	3.750497	1.270703	-0.000150
1358	1.3502e+02	-14.0900	-57.668465	0.000446	4.460050	1.511106	-0.000179
1359	1.3512e+02	-14.1365	-57.821877	0.000385	3.851862	1.305046	-0.000154
1360	1.3522e+02	-14.1766	-57.987399	0.000416	4.155956	1.408076	-0.000166
1361	1.3532e+02	-14.2151	-58.096402	0.000274	2.736849	0.927270	-0.000110
1362	1.3542e+02	-14.2568	-58.261924	0.000416	4.155956	1.408076	-0.000166
1363	1.3552e+02	-14.2937	-58.411298	0.000375	3.750497	1.270703	-0.000150
1364	1.3562e+02	-14.3370	-58.621229	0.000527	5.270969	1.785853	-0.000211
1365	1.3572e+02	-14.3739	-58.750418	0.000324	3.243673	1.098986	-0.000130
1366	1.3582e+02	-14.4140	-58.863458	0.000284	2.838214	0.961613	-0.000114
1367	1.3592e+02	-14.4525	-59.033017	0.000426	4.257321	1.442419	-0.000170
1368	1.3602e+02	-14.4910	-59.202577	0.000426	4.257321	1.442419	-0.000170
1369	1.3612e+02	-14.5360	-59.347914	0.000365	3.649132	1.236359	-0.000146
1370	1.3622e+02	-14.5745	-59.469028	0.000304	3.040943	1.030300	-0.000122
1371	1.3631e+02	-14.6162	-59.634551	0.000416	4.155956	1.408076	-0.000166
1372	1.3641e+02	-14.6482	-59.796036	0.000405	4.054591	1.373733	-0.000162
1373	1.3651e+02	-14.6948	-59.941373	0.000365	3.649132	1.236359	-0.000146
1374	1.3661e+02	-14.7317	-60.119007	0.000446	4.460050	1.511106	-0.000179
1375	1.3671e+02	-14.7654	-60.256269	0.000345	3.446403	1.167673	-0.000138
1376	1.3681e+02	-14.8007	-60.381421	0.000314	3.142308	1.064643	-0.000126
1377	1.3691e+02	-14.8472	-60.421792	0.000101	1.013648	0.343433	-0.000041
1378	1.3701e+02	-14.9001	-60.417755	-0.000010	-0.101365	-0.034343	0.000004
1379	1.3711e+02	-14.9370	-60.498498	0.000203	2.027296	0.686866	-0.000081
1380	1.3721e+02	-14.9627	-60.587315	0.000223	2.230025	0.755553	-0.000089
1381	1.3731e+02	-15.0156	-60.611537	0.000061	0.608189	0.206060	-0.000024
1382	1.3741e+02	-15.0541	-60.740726	0.000324	3.243673	1.098986	-0.000130
1383	1.3751e+02	-15.1022	-60.773023	0.000081	0.810918	0.274747	-0.000032
1384	1.3761e+02	-15.1263	-60.877988	0.000264	2.635484	0.892926	-0.000105
1385	1.3771e+02	-15.1760	-60.877988	-0.000000	-0.000000	-0.000000	0.000000
1386	1.3781e+02	-15.2049	-60.910285	0.000081	0.810918	0.274747	-0.000032
1387	1.3791e+02	-15.2482	-60.978917	0.000172	1.723201	0.583836	-0.000069
1388	1.3801e+02	-15.2851	-61.172699	0.000487	4.865509	1.648479	-0.000195
1389	1.3811e+02	-15.3252	-61.225182	0.000132	1.317742	0.446463	-0.000053
1390	1.3821e+02	-15.3621	-61.326110	0.000253	2.534120	0.858583	-0.000101
1391	1.3831e+02	-15.4215	-61.406853	0.000203	2.027296	0.686866	-0.000081
1392	1.3840e+02	-15.4472	-61.467410	0.000152	1.520472	0.515150	-0.000061
1393	1.3850e+02	-15.4857	-61.641007	0.000436	4.358686	1.476763	-0.000174
1394	1.3860e+02	-15.5322	-61.721750	0.000203	2.027296	0.686866	-0.000081
1395	1.3870e+02	-15.5659	-61.802492	0.000203	2.027296	0.686866	-0.000081
1396	1.3880e+02	-15.6012	-61.834790	0.000081	0.810918	0.274747	-0.000032
1397	1.3890e+02	-15.6525	-61.875161	0.000101	1.013648	0.343433	-0.000041
1398	1.3900e+02	-15.6862	-61.992238	0.000294	2.939579	0.995956	-0.000118
1399	1.3910e+02	-15.7311	-62.904631	0.002291	22.908440	7.761590	-0.000917
1400	1.3920e+02	-15.7632	-62.957113	0.000132	1.317742	0.446463	-0.000053
1401	1.3930e+02	-15.8033	-62.977299	0.000051	0.506824	0.171717	-0.000020
1402	1.3940e+02	-15.8498	-63.017670	0.000101	1.013648	0.343433	-0.000041
1403	1.3950e+02	-15.8867	-64.362037	0.003375	33.754472	11.436325	-0.001351
1404	1.3960e+02	-15.9348	-64.527559	0.000416	4.155956	1.408076	-0.000166
1405	1.3970e+02	-15.9717	-64.664822	0.000345	3.446403	1.167673	-0.000138
1406	1.3980e+02	-16.0038	-64.814196	0.000375	3.750497	1.270703	-0.000150
1407	1.3990e+02	-16.0471	-64.878790	0.000162	1.621836	0.549493	-0.000065
1408	1.4000e+02	-16.0744	-64.999904	0.000304	3.040943	1.030300	-0.000122
1409	1.4010e+02	-16.1402	-65.153315	0.000385	3.851862	1.305046	-0.000154
1410	1.4020e+02	-16.1675	-65.314801	0.000405	4.054591	1.373733	-0.000162
1411	1.4029e+02	-16.2011	-65.403618	0.000223	2.230025	0.755553	-0.000089
1412	1.4039e+02	-16.2396	-65.742737	0.000851	8.514642	2.884839	-0.000341
1413	1.4049e+02	-16.2910	-65.900185	0.000395	3.953226	1.339389	-0.000158
1414	1.4059e+02	-16.3375	-66.017262	0.000294	2.939579	0.995956	-0.000118
1415	1.4069e+02	-16.3696	-66.170673	0.000385	3.851862	1.305046	-0.000154
1416	1.4079e+02	-16.4001	-66.376567	0.000517	5.169604	1.751509	-0.000207
1417	1.4089e+02	-16.4514	-66.505756	0.000324	3.243673	1.098986	-0.000130
1418	1.4099e+02	-16.4851	-66.647055	0.000355	3.547767	1.202016	-0.000142
1419	1.4109e+02	-16.5140	-66.804504	0.000395	3.953226	1.339389	-0.000158
1420	1.4119e+02	-16.5669	-66.961952	0.000395	3.953226	1.339389	-0.000158
1421	1.4129e+02	-16.5974	-67.070955	0.000274	2.736849	0.927270	-0.000110
1422	1.4139e+02	-16.6391	-67.054806	-0.000041	-0.405459	-0.137373	0.000016
1423	1.4149e+02	-16.6824	-67.135549	0.000203	2.027296	0.686866	-0.000081
1424	1.4159e+02	-16.7289	-67.123437	-0.000030	-0.304094	-0.103030	0.000012
1425	1.4169e+02	-16.7674	-67.143623	0.000051	0.506824	0.171717	-0.000020
1426	1.4179e+02	-16.8011	-67.155734	0.000030	0.304094	0.103030	-0.000012
1427	1.4189e+02	-16.8444	-67.232440	0.000193	1.925931	0.652523	-0.000077
1428	1.4199e+02	-16.8813	-67.248589	0.000041	0.405459	0.137373	-0.000016
1429	1.4209e+02	-16.9150	-67.309146	0.000152	1.520472	0.515150	-0.000061
1430	1.4219e+02	-16.9599	-67.385851	0.000193	1.925931	0.652523	-0.000077
1431	1.4228e+02	-17.0033	-67.450445	0.000162	1.621836	0.549493	-0.000065
1432	1.4238e+02	-17.0386	-67.478705	0.000071	0.709553	0.240403	-0.000028
1433	1.4248e+02	-17.0738	-67.571559	0.000233	2.331390	0.789896	-0.000093
1434	1.4258e+02	-17.1172	-67.652302	0.000203	2.027296	0.686866	-0.000081
1435	1.4268e+02	-17.1717	-67.781490	0.000324	3.243673	1.098986	-0.000130
1436	1.4278e+02	-17.2102	-67.797639	0.000041	0.405459	0.137373	-0.000016
1437	1.4288e+02	-17.2407	-67.918753	0.000304	3.040943	1.030300	-0.000122
1438	1.4298e+02	-17.2840	-67.983347	0.000162	1.621836	0.549493	-0.000065
1439	1.4308e+02	-17.3257	-68.088313	0.000264	2.635484	0.892926	-0.000105
1440	1.4318e+02	-17.3674	-68.144833	0.000142	1.419107	0.480806	-0.000057
1441	1.4328e+02	-17.4043	-68.265947	0.000304	3.040943	1.030300	-0.000122
1442	1.4338e+02	-17.4444	-68.306318	0.000101	1.013648	0.343433	-0.000041
1443	1.4348e+02	-17.4797	-68.407247	0.000253	2.534120	0.858583	-0.000101
1444	1.4358e+02	-17.5230	-68.520286	0.000284	2.838214	0.961613	-0.000114
1445	1.4368e+02	-17.5583	-68.588918	0.000172	1.723201	0.583836	-0.000069
1446	1.4378e+02	-17.5984	-68.710032	0.000304	3.040943	1.030300	-0.000122
1447	1.4388e+02	-17.6305	-68.835183	0.000314	3.142308	1.064643	-0.000126
1448	1.4398e+02	-17.6786	-68.903814	0.000172	1.723201	0.583836	-0.000069
1449	1.4408e+02	-17.7188	-69.008780	0.000264	2.635484	0.892926	-0.000105
1450	1.4418e+02	-17.7508	-69.121820	0.000284	2.838214	0.961613	-0.000114
1451	1.4428e+02	-17.7974	-69.234859	0.000284	2.838214	0.961613	-0.000114
1452	1.4437e+02	-17.8455	-69.400382	0.000416	4.155956	1.408076	-0.000166
1453	1.4447e+02	-17.8840	-69.525533	0.000314	3.142308	1.064643	-0.000126
1454	1.4457e+02	-17.9225	-69.678944	0.000385	3.851862	1.305046	-0.000154
1455	1.4467e+02	-17.9594	-69.796021	0.000294	2.939579	0.995956	-0.000118
1456	1.4477e+02	-18.0027	-69.969618	0.000436	4.358686	1.476763	-0.000174
1457	1.4487e+02	-18.0380	-70.151289	0.000456	4.561415	1.545449	-0.000183
1458	1.4497e+02	-18.0845	-70.345072	0.000487	4.865509	1.648479	-0.000195
1459	1.4507e+02	-18.1214	-70.490409	0.000365	3.649132	1.236359	-0.000146
1460	1.4517e+02	-18.1583	-70.744748	0.000639	6.385981	2.163629	-0.000256
1461	1.4527e+02	-18.2048	-70.894122	0.000375	3.750497	1.270703	-0.000150
1462	1.4537e+02	-18.2449	-71.116165	0.000558	5.575063	1.888882	-0.000223
1463	1.4547e+02	-18.2786	-71.293799	0.000446	4.460050	1.511106	-0.000179
1464	1.4557e+02	-18.3203	-71.572361	0.000699	6.994170	2.369689	-0.000280
1465	1.4567e+02	-18.3476	-71.766143	0.000487	4.865509	1.648479	-0.000195
1466	1.4577e+02	-18.3957	-71.992223	0.000568	5.676428	1.923226	-0.000227
1467	1.4587e+02	-18.4374	-72.222340	0.000578	5.777793	1.957569	-0.000231
1468	1.4597e+02	-18.4743	-72.412085	0.000476	4.764145	1.614136	-0.000191
1469	1.4607e+02	-18.5209	-72.650276	0.000598	5.980522	2.026256	-0.000239
1470	1.4617e+02	-18.5562	-72.848096	0.000497	4.966874	1.682823	-0.000199
1471	1.4626e+02	-18.6043	-73.070138	0.000558	5.575063	1.888882	-0.000223
1472	1.4636e+02	-18.6348	-73.296218	0.000568	5.676428	1.923226	-0.000227
1473	1.4646e+02	-18.6765	-73.469815	0.000436	4.358686	1.476763	-0.000174
1474	1.4656e+02	-18.7134	-73.659560	0.000476	4.764145	1.614136	-0.000191
1475	1.4666e+02	-18.7487	-73.889677	0.000578	5.777793	1.957569	-0.000231
1476	1.4676e+02	-18.7872	-74.083459	0.000487	4.865509	1.648479	-0.000195
1477	1.4686e+02	-18.8401	-74.232833	0.000375	3.750497	1.270703	-0.000150
1478	1.4696e+02	-18.8706	-74.422579	0.000476	4.764145	1.614136	-0.000191
1479	1.4706e+02	-18.9235	-74.584064	0.000405	4.054591	1.373733	-0.000162
1480	1.4716e+02	-18.9524	-74.749587	0.000416	4.155956	1.408076	-0.000166
1481	1.4726e+02	-18.9941	-74.931258	0.000456	4.561415	1.545449	-0.000183
1482	1.4736e+02	-19.0278	-75.104855	0.000436	4.358686	1.476763	-0.000174
1483	1.4746e+02	-19.0759	-75.230006	0.000314	3.142308	1.064643	-0.000126
1484	1.4756e+02	-19.1192	-75.387454	0.000395	3.953226	1.339389	-0.000158
1485	1.4766e+02	-19.1577	-75.597385	0.000527	5.270969	1.785853	-0.000211
1486	1.4776e+02	-19.1834	-75.718499	0.000304	3.040943	1.030300	-0.000122
1487	1.4786e+02	-19.2315	-75.888059	0.000426	4.257321	1.442419	-0.000170
1488	1.4796e+02	-19.2781	-76.049544	0.000405	4.054591	1.373733	-0.000162
1489	1.4806e+02	-19.3069	-76.170659	0.000304	3.040943	1.030300	-0.000122
1490	1.4816e+02	-19.3551	-76.348293	0.000446	4.460050	1.511106	-0.000179
1491	1.4825e+02	-19.3968	-76.566298	0.000547	5.473698	1.854539	-0.000219
1492	1.4835e+02	-19.4273	-76.679338	0.000284	2.838214	0.961613	-0.000114
1493	1.4845e+02	-19.4802	-76.836786	0.000395	3.953226	1.339389	-0.000158
1494	1.4855e+02	-19.5123	-76.994234	0.000395	3.953226	1.339389	-0.000158
1495	1.4865e+02	-19.5492	-77.131497	0.000345	3.446403	1.167673	-0.000138
1496	1.4875e+02	-19.5909	-77.284908	0.000385	3.851862	1.305046	-0.000154
1497	1.4885e+02	-19.6374	-77.450431	0.000416	4.155956	1.408076	-0.000166
1498	1.4895e+02	-19.6695	-77.587693	0.000345	3.446403	1.167673	-0.000138
1499	1.4905e+02	-19.7096	-77.769364	0.000456	4.561415	1.545449	-0.000183
1500	1.4915e+02	-19.7465	-77.951035	0.000456	4.561415	1.545449	-0.000183
1501	1.4925e+02	-19.7898	-78.120595	0.000426	4.257321	1.442419	-0.000170
1502	1.4935e+02	-19.8251	-78.237672	0.000294	2.939579	0.995956	-0.000118
1503	1.4945e+02	-19.8636	-78.431455	0.000487	4.865509	1.648479	-0.000195
1504	1.4955e+02	-19.9101	-78.552569	0.000304	3.040943	1.030300	-0.000122
1505	1.4965e+02	-19.9567	-78.742314	0.000476	4.764145	1.614136	-0.000191
1506	1.4975e+02	-19.9871	-78.851317	0.000274	2.736849	0.927270	-0.000110
1507	1.4985e+02	-20.0288	-79.016839	0.000416	4.155956	1.408076	-0.000166
1508	1.4995e+02	-19.9887	-79.158139	-0.000355	-3.547767	-1.202016	-0.000142
1509	1.5005e+02	-19.9518	-79.267142	-0.000274	-2.736849	-0.927270	-0.000110
1510	1.5015e+02	-19.8989	-79.351921	-0.000213	-2.128660	-0.721210	-0.000085
1511	1.5025e+02	-19.8700	-79.355959	-0.000010	-0.101365	-0.034343	-0.000004
1512	1.5034e+02	-19.8331	-79.408441	-0.000132	-1.317742	-0.446463	-0.000053
1513	1.5044e+02	-19.7930	-79.468998	-0.000152	-1.520472	-0.515150	-0.000061
1514	1.5054e+02	-19.7513	-79.444776	0.000061	0.608189	0.206060	0.000024
1515	1.5064e+02	-19.7048	-79.473036	-0.000071	-0.709553	-0.240403	-0.000028
1516	1.5074e+02	-19.6727	-79.428627	0.000112	1.115013	0.377776	0.000045
1517	1.5084e+02	-19.6310	-79.424590	0.000010	0.101365	0.034343	0.000004
1518	1.5094e+02	-19.5925	-79.428627	-0.000010	-0.101365	-0.034343	-0.000004
1519	1.5104e+02	-19.5460	-79.380181	0.000122	1.216377	0.412120	0.000049
1520	1.5114e+02	-19.5107	-79.319624	0.000152	1.520472	0.515150	0.000061
1521	1.5124e+02	-19.4706	-79.303476	0.000041	0.405459	0.137373	0.000016
1522	1.5134e+02	-19.4337	-79.315587	-0.000030	-0.304094	-0.103030	-0.000012
1523	1.5144e+02	-19.3920	-79.210622	0.000264	2.635484	0.892926	0.000105
1524	1.5154e+02	-19.3535	-79.190436	0.000051	0.506824	0.171717	0.000020
1525	1.5164e+02	-19.3150	-79.105656	0.000213	2.128660	0.721210	0.000085
1526	1.5174e+02	-19.2749	-79.077396	0.000071	0.709553	0.240403	0.000028
1527	1.5184e+02	-19.2299	-78.992616	0.000213	2.128660	0.721210	0.000085
1528	1.5194e+02	-19.1850	-79.000691	-0.000020	-0.202730	-0.068687	-0.000008
1529	1.5204e+02	-19.1610	-78.907837	0.000233	2.331390	0.789896	0.000093
1530	1.5214e+02	-19.1225	-78.871502	0.000091	0.912283	0.309090	0.000037
1531	1.5224e+02	-19.0791	-78.847280	0.000061	0.608189	0.206060	0.000024
1532	1.5233e+02	-19.0326	-78.819020	0.000071	0.709553	0.240403	0.000028
1533	1.5243e+02	-19.0021	-78.774611	0.000112	1.115013	0.377776	0.000045
1534	1.5253e+02	-18.9556	-78.738277	0.000091	0.912283	0.309090	0.000037
1535	1.5263e+02	-18.9171	-78.722128	0.000041	0.405459	0.137373	0.000016
1536	1.5273e+02	-18.8802	-78.653497	0.000172	1.723201	0.583836	0.000069
1537	1.5283e+02	-18.8353	-78.685794	-0.000081	-0.810918	-0.274747	-0.000032
1538	1.5293e+02	-18.8000	-78.601014	0.000213	2.128660	0.721210	0.000085
1539	1.5303e+02	-18.7455	-78.528346	0.000182	1.824566	0.618180	0.000073
1540	1.5313e+02	-18.7166	-78.431455	0.000243	2.432755	0.824240	0.000097
1541	1.5323e+02	-18.6765	-78.338600	0.000233	2.331390	0.789896	0.000093
1542	1.5333e+02	-18.6396	-78.269969	0.000172	1.723201	0.583836	0.000069
1543	1.5343e+02	-18.6043	-78.165004	0.000264	2.635484	0.892926	0.000105
1544	1.5353e+02	-18.5690	-77.050754	0.002798	27.976679	9.478756	0.001120
1545	1.5363e+02	-18.5177	-76.974049	0.000193	1.925931	0.652523	0.000077
1546	1.5373e+02	-18.4759	-76.889269	0.000213	2.128660	0.721210	0.000085
1547	1.5383e+02	-18.4439	-76.739895	0.000375	3.750497	1.270703	0.000150
1548	1.5393e+02	-18.4038	-76.691449	0.000122	1.216377	0.412120	0.000049
1549	1.5403e+02	-18.3604	-76.546112	0.000365	3.649132	1.236359	0.000146
1550	1.5413e+02	-18.3107	-76.562261	-0.000041	-0.405459	-0.137373	-0.000016
1551	1.5422e+02	-18.2754	-76.554186	0.000020	0.202730	0.068687	0.000008
1552	1.5432e+02	-18.2305	-76.529964	0.000061	0.608189	0.206060	0.000024
1553	1.5442e+02	-18.1856	-76.493629	0.000091	0.912283	0.309090	0.000037
1554	1.5452e+02	-18.1615	-76.554186	-0.000152	-1.520472	-0.515150	-0.000061
1555	1.5462e+02	-18.1166	-76.433072	0.000304	3.040943	1.030300	0.000122
1556	1.5472e+02	-18.0813	-76.102027	0.000831	8.311912	2.816152	0.000333
1557	1.5482e+02	-18.0348	-75.871910	0.000578	5.777793	1.957569	0.000231
1558	1.5492e+02	-17.9947	-75.867873	0.000010	0.101365	0.034343	0.000004
1559	1.5502e+02	-17.9562	-75.633719	0.000588	5.879157	1.991912	0.000235
1560	1.5512e+02	-17.9225	-75.419751	0.000537	5.372333	1.820196	0.000215
1561	1.5522e+02	-17.8760	-75.314786	0.000264	2.635484	0.892926	0.000105
1562	1.5532e+02	-17.8423	-75.258266	0.000142	1.419107	0.480806	0.000057
1563	1.5542e+02	-17.7925	-75.250192	0.000020	0.202730	0.068687	0.000008
1564	1.5552e+02	-17.7540	-75.238080	0.000030	0.304094	0.103030	0.000012
1565	1.5562e+02	-17.7188	-75.250192	-0.000030	-0.304094	-0.103030	-0.000012
1566	1.5572e+02	-17.6722	-75.242117	0.000020	0.202730	0.068687	0.000008
1567	1.5582e+02	-17.6321	-75.270377	-0.000071	-0.709553	-0.240403	-0.000028
1568	1.5592e+02	-17.5952	-75.234043	0.000091	0.912283	0.309090	0.000037
1569	1.5602e+02	-17.5615	-75.193672	0.000101	1.013648	0.343433	0.000041
1570	1.5612e+02	-17.5262	-75.177523	0.000041	0.405459	0.137373	0.000016
1571	1.5622e+02	-17.4877	-75.181560	-0.000010	-0.101365	-0.034343	-0.000004
1572	1.5631e+02	-17.4348	-75.165412	0.000041	0.405459	0.137373	0.000016
1573	1.5641e+02	-17.3979	-75.108892	0.000142	1.419107	0.480806	0.000057
1574	1.5651e+02	-17.3498	-75.072558	0.000091	0.912283	0.309090	0.000037
1575	1.5661e+02	-17.3193	-75.020075	0.000132	1.317742	0.446463	0.000053
1576	1.5671e+02	-17.2776	-74.995852	0.000061	0.608189	0.206060	0.000024
1577	1.5681e+02	-17.2535	-74.951444	0.000112	1.115013	0.377776	0.000045
1578	1.5691e+02	-17.2054	-74.886849	0.000162	1.621836	0.549493	0.000065
1579	1.5701e+02	-17.1589	-74.826292	0.000152	1.520472	0.515150	0.000061
1580	1.5711e+02	-17.1252	-74.745550	0.000203	2.027296	0.686866	0.000081
1581	1.5721e+02	-17.0803	-74.600213	0.000365	3.649132	1.236359	0.000146
1582	1.5731e+02	-17.0386	-74.515433	0.000213	2.128660	0.721210	0.000085
1583	1.5741e+02	-17.0065	-74.386245	0.000324	3.243673	1.098986	0.000130
1584	1.5751e+02	-16.9664	-74.240908	0.000365	3.649132	1.236359	0.000146
1585	1.5761e+02	-16.9263	-74.156128	0.000213	2.128660	0.721210	0.000085
1586	1.5771e+02	-16.8797	-74.059237	0.000243	2.432755	0.824240	0.000097
1587	1.5781e+02	-16.8428	-73.998680	0.000152	1.520472	0.515150	0.000061
1588	1.5791e+02	-16.8059	-73.913900	0.000213	2.128660	0.721210	0.000085
1589	1.5801e+02	-16.7610	-73.825083	0.000223	2.230025	0.755553	0.000089
1590	1.5811e+02	-16.7241	-73.821046	0.000010	0.101365	0.034343	0.000004
1591	1.5821e+02	-16.6824	-73.728191	0.000233	2.331390	0.789896	0.000093
1592	1.5830e+02	-16.6455	-73.639374	0.000223	2.230025	0.755553	0.000089
1593	1.5840e+02	-16.6022	-73.594966	0.000112	1.115013	0.377776	0.000045
1594	1.5850e+02	-16.5573	-73.518260	0.000193	1.925931	0.652523	0.000077
1595	1.5860e+02	-16.5316	-73.457703	0.000152	1.520472	0.515150	0.000061
1596	1.5870e+02	-16.4867	-73.417332	0.000101	1.013648	0.343433	0.000041
1597	1.5880e+02	-16.4450	-73.288144	0.000324	3.243673	1.098986	0.000130
1598	1.5890e+02	-16.3985	-73.247772	0.000101	1.013648	0.343433	0.000041
1599	1.5900e+02	-16.3600	-73.162992	0.000213	2.128660	0.721210	0.000085
1600	1.5910e+02	-16.3311	-73.049953	0.000284	2.838214	0.961613	0.000114
1601	1.5920e+02	-16.2830	-72.993433	0.000142	1.419107	0.480806	0.000057
1602	1.5930e+02	-16.2380	-72.876356	0.000294	2.939579	0.995956	0.000118
1603	1.5940e+02	-16.2060	-72.771390	0.000264	2.635484	0.892926	0.000105
1604	1.5950e+02	-16.1626	-72.674499	0.000243	2.432755	0.824240	0.000097
1605	1.5960e+02	-16.1257	-72.585682	0.000223	2.230025	0.755553	0.000089
1606	1.5970e+02	-16.0840	-72.436308	0.000375	3.750497	1.270703	0.000150
1607	1.5980e+02	-16.0455	-72.347491	0.000223	2.230025	0.755553	0.000089
1608	1.5990e+02	-16.0118	-72.242525	0.000264	2.635484	0.892926	0.000105
1609	1.6000e+02	-15.9798	-72.157746	0.000213	2.128660	0.721210	0.000085
1610	1.6010e+02	-15.9252	-72.052780	0.000264	2.635484	0.892926	0.000105
1611	1.6019e+02	-15.8947	-71.903406	0.000375	3.750497	1.270703	0.000150
1612	1.6029e+02	-15.8514	-71.786329	0.000294	2.939579	0.995956	0.000118
1613	1.6039e+02	-15.8081	-71.725772	0.000152	1.520472	0.515150	0.000061
1614	1.6049e+02	-15.7664	-71.556212	0.000426	4.257321	1.442419	0.000170
1615	1.6059e+02	-15.7231	-71.422987	0.000335	3.345038	1.133329	0.000134
1616	1.6069e+02	-15.6894	-71.293799	0.000324	3.243673	1.098986	0.000130
1617	1.6079e+02	-15.6589	-71.188833	0.000264	2.635484	0.892926	0.000105
1618	1.6089e+02	-15.6060	-71.055608	0.000335	3.345038	1.133329	0.000134
1619	1.6099e+02	-15.5627	-70.938531	0.000294	2.939579	0.995956	0.000118
1620	1.6109e+02	-15.5274	-70.809342	0.000324	3.243673	1.098986	0.000130
1621	1.6119e+02	-15.4889	-70.684191	0.000314	3.142308	1.064643	0.000126
1622	1.6129e+02	-15.4391	-70.575188	0.000274	2.736849	0.927270	0.000110
1623	1.6139e+02	-15.4103	-70.441963	0.000335	3.345038	1.133329	0.000134
1624	1.6149e+02	-15.3669	-70.312775	0.000324	3.243673	1.098986	0.000130
1625	1.6159e+02	-15.3284	-70.179549	0.000335	3.345038	1.133329	0.000134
1626	1.6169e+02	-15.2899	-70.026138	0.000385	3.851862	1.305046	0.000154
1627	1.6179e+02	-15.2466	-69.900987	0.000314	3.142308	1.064643	0.000126
1628	1.6189e+02	-15.2097	-69.820244	0.000203	2.027296	0.686866	0.000081
1629	1.6199e+02	-15.1696	-69.602239	0.000547	5.473698	1.854539	0.000219
1630	1.6209e+02	-15.1279	-69.444790	0.000395	3.953226	1.339389	0.000158
1631	1.6219e+02	-15.0878	-69.263119	0.000456	4.561415	1.545449	0.000183
1632	1.6228e+02	-15.0445	-69.057225	0.000517	5.169604	1.751509	0.000207
1633	1.6238e+02	-15.0092	-68.806923	0.000628	6.284616	2.129286	0.000252
1634	1.6248e+02	-14.9723	-68.572769	0.000588	5.879157	1.991912	0.000235
1635	1.6258e+02	-14.9274	-68.346689	0.000568	5.676428	1.923226	0.000227
1636	1.6268e+02	-14.8953	-68.108498	0.000598	5.980522	2.026256	0.000239
1637	1.6278e+02	-14.8440	-67.874345	0.000588	5.879157	1.991912	0.000235
1638	1.6288e+02	-14.8087	-67.644228	0.000578	5.777793	1.957569	0.000231
1639	1.6298e+02	-14.7638	-67.474668	0.000426	4.257321	1.442419	0.000170
1640	1.6308e+02	-14.7285	-67.260700	0.000537	5.372333	1.820196	0.000215
1641	1.6318e+02	-14.6916	-67.079029	0.000456	4.561415	1.545449	0.000183
1642	1.6328e+02	-14.6547	-66.881209	0.000497	4.966874	1.682823	0.000199
1643	1.6338e+02	-14.6114	-66.671278	0.000527	5.270969	1.785853	0.000211
1644	1.6348e+02	-14.5777	-66.453273	0.000547	5.473698	1.854539	0.000219
1645	1.6358e+02	-14.5327	-66.275639	0.000446	4.460050	1.511106	0.000179
1646	1.6368e+02	-14.5007	-66.118191	0.000395	3.953226	1.339389	0.000158
1647	1.6378e+02	-14.4573	-65.972854	0.000365	3.649132	1.236359	0.000146
1648	1.6388e+02	-14.4060	-65.791183	0.000456	4.561415	1.545449	0.000183
1649	1.6398e+02	-14.3643	-65.666031	0.000314	3.142308	1.064643	0.000126
1650	1.6408e+02	-14.3258	-65.488397	0.000446	4.460050	1.511106	0.000179
1651	1.6418e+02	-14.2921	-65.290578	0.000497	4.966874	1.682823	0.000199
1652	1.6427e+02	-14.2536	-65.121018	0.000426	4.257321	1.442419	0.000170
1653	1.6437e+02	-14.2087	-64.927236	0.000487	4.865509	1.648479	0.000195
1654	1.6447e+02	-14.1734	-64.729416	0.000497	4.966874	1.682823	0.000199
1655	1.6457e+02	-14.1381	-64.596190	0.000335	3.345038	1.133329	0.000134
1656	1.6467e+02	-14.0932	-64.426631	0.000426	4.257321	1.442419	0.000170
1657	1.6477e+02	-14.0547	-64.297442	0.000324	3.243673	1.098986	0.000130
1658	1.6487e+02	-14.0098	-64.123845	0.000436	4.358686	1.476763	0.000174
1659	1.6497e+02	-13.9729	-63.974471	0.000375	3.750497	1.270703	0.000150
1660	1.6507e+02	-13.9296	-63.740318	0.000588	5.879157	1.991912	0.000235
1661	1.6517e+02	-13.8975	-63.607092	0.000335	3.345038	1.133329	0.000134
1662	1.6527e+02	-13.8493	-63.514238	0.000233	2.331390	0.789896	0.000093
1663	1.6537e+02	-13.8221	-63.364864	0.000375	3.750497	1.270703	0.000150
1664	1.6547e+02	-13.7723	-63.187230	0.000446	4.460050	1.511106	0.000179
1665	1.6557e+02	-13.7338	-63.090339	0.000243	2.432755	0.824240	0.000097
1666	1.6567e+02	-13.6985	-62.904631	0.000466	4.662780	1.579793	0.000187
1667	1.6577e+02	-13.6568	-62.743145	0.000405	4.054591	1.373733	0.000162
1668	1.6587e+02	-13.6071	-62.585697	0.000395	3.953226	1.339389	0.000158
1669	1.6597e+02	-13.5750	-62.488806	0.000243	2.432755	0.824240	0.000097
1670	1.6607e+02	-13.5285	-62.331357	0.000395	3.953226	1.339389	0.000158
1671	1.6616e+02	-13.4948	-62.242540	0.000223	2.230025	0.755553	0.000089
1672	1.6626e+02	-13.4563	-62.093166	0.000375	3.750497	1.270703	0.000150
1673	1.6636e+02	-13.4178	-61.984164	0.000274	2.736849	0.927270	0.000110
1674	1.6646e+02	-13.3697	-61.891309	0.000233	2.331390	0.789896	0.000093
1675	1.6656e+02	-13.3392	-61.850938	0.000101	1.013648	0.343433	0.000041
1676	1.6666e+02	-13.2911	-61.838827	0.000030	0.304094	0.103030	0.000012
1677	1.6676e+02	-13.2686	-61.818641	0.000051	0.506824	0.171717	0.000020
1678	1.6686e+02	-13.2141	-61.762121	0.000142	1.419107	0.480806	0.000057
1679	1.6696e+02	-13.1691	-61.782307	-0.000051	-0.506824	-0.171717	-0.000020
1680	1.6706e+02	-13.1403	-61.745973	0.000091	0.912283	0.309090	0.000037
1681	1.6716e+02	-13.0905	-61.693490	0.000132	1.317742	0.446463	0.000053
1682	1.6726e+02	-13.0601	-61.620821	0.000182	1.824566	0.618180	0.000073
1683	1.6736e+02	-13.0071	-61.628896	-0.000020	-0.202730	-0.068687	-0.000008
1684	1.6746e+02	-12.9815	-61.560264	0.000172	1.723201	0.583836	0.000069
1685	1.6756e+02	-12.9446	-61.552190	0.000020	0.202730	0.068687	0.000008
1686	1.6766e+02	-12.8900	-61.487596	0.000162	1.621836	0.549493	0.000065
1687	1.6776e+02	-12.8659	-61.451262	0.000091	0.912283	0.309090	0.000037
1688	1.6786e+02	-12.8226	-61.418965	0.000081	0.810918	0.274747	0.000032
1689	1.6796e+02	-12.7809	-61.390705	0.000071	0.709553	0.240403	0.000028
1690	1.6806e+02	-12.7456	-59.957521	0.003598	35.984497	12.191878	0.001440
1691	1.6816e+02	-12.7023	-59.666848	0.000730	7.298264	2.472719	0.000292
1692	1.6825e+02	-12.6590	-59.521511	0.000365	3.649132	1.236359	0.000146
1693	1.6835e+02	-12.6221	-59.545734	-0.000061	-0.608189	-0.206060	-0.000024
1694	1.6845e+02	-12.5836	-59.509399	0.000091	0.912283	0.309090	0.000037
1695	1.6855e+02	-12.5483	-59.545734	-0.000091	-0.912283	-0.309090	-0.000037
1696	1.6865e+02	-12.4954	-59.081463	0.001166	11.656950	3.949482	0.000467
1697	1.6875e+02	-12.4601	-58.823086	0.000649	6.487346	2.197972	0.000260
1698	1.6885e+02	-12.4152	-58.693898	0.000324	3.243673	1.098986	0.000130
1699	1.6895e+02	-12.3831	-58.584895	0.000274	2.736849	0.927270	0.000110
1700	1.6905e+02	-12.3446	-58.415336	0.000426	4.257321	1.442419	0.000170
1701	1.6915e+02	-12.3013	-58.330556	0.000213	2.128660	0.721210	0.000085
1702	1.6925e+02	-12.2579	-58.221553	0.000274	2.736849	0.927270	0.000110
1703	1.6935e+02	-12.2178	-58.072179	0.000375	3.750497	1.270703	0.000150
1704	1.6945e+02	-12.1809	-58.031808	0.000101	1.013648	0.343433	0.000041
1705	1.6955e+02	-12.1376	-57.842062	0.000476	4.764145	1.614136	0.000191
1706	1.6965e+02	-12.1039	-57.680577	0.000405	4.054591	1.373733	0.000162
1707	1.6975e+02	-12.0574	-57.652317	0.000071	0.709553	0.240403	0.000028
1708	1.6985e+02	-12.0237	-57.426237	0.000568	5.676428	1.923226	0.000227
1709	1.6995e+02	-11.9820	-57.248603	0.000446	4.460050	1.511106	0.000179
1710	1.7005e+02	-11.9435	-57.115378	0.000335	3.345038	1.133329	0.000134
1711	1.7015e+02	-11.8922	-56.970041	0.000365	3.649132	1.236359	0.000146
1712	1.7024e+02	-11.8649	-56.828741	0.000355	3.547767	1.202016	0.000142
1713	1.7034e+02	-11.8216	-56.747999	0.000203	2.027296	0.686866	0.000081
1714	1.7044e+02	-11.7879	-56.566327	0.000456	4.561415	1.545449	0.000183
1715	1.7054e+02	-11.7478	-56.473473	0.000233	2.331390	0.789896	0.000093
1716	1.7064e+02	-11.7061	-56.336211	0.000345	3.446403	1.167673	0.000138
1717	1.7074e+02	-11.6660	-56.198948	0.000345	3.446403	1.167673	0.000138
1718	1.7084e+02	-11.6195	-56.053611	0.000365	3.649132	1.236359	0.000146
1719	1.7094e+02	-11.5826	-55.908274	0.000365	3.649132	1.236359	0.000146
1720	1.7104e+02	-11.5473	-55.771012	0.000345	3.446403	1.167673	0.000138
1721	1.7114e+02	-11.5072	-55.641823	0.000324	3.243673	1.098986	0.000130
1722	1.7124e+02	-11.4687	-55.500524	0.000355	3.547767	1.202016	0.000142
1723	1.7134e+02	-11.4270	-55.371335	0.000324	3.243673	1.098986	0.000130
1724	1.7144e+02	-11.3804	-55.254258	0.000294	2.939579	0.995956	0.000118
1725	1.7154e+02	-11.3532	-55.092773	0.000405	4.054591	1.373733	0.000162
1726	1.7164e+02	-11.3002	-54.939362	0.000385	3.851862	1.305046	0.000154
1727	1.7174e+02	-11.2633	-54.822285	0.000294	2.939579	0.995956	0.000118
1728	1.7184e+02	-11.2296	-54.660799	0.000405	4.054591	1.373733	0.000162
1729	1.7194e+02	-11.1799	-54.559871	0.000253	2.534120	0.858583	0.000101
1730	1.7204e+02	-11.1462	-54.394348	0.000416	4.155956	1.408076	0.000166
1731	1.7213e+02	-11.0901	-54.249011	0.000365	3.649132	1.236359	0.000146
1732	1.7223e+02	-11.0660	-54.144046	0.000264	2.635484	0.892926	0.000105
1733	1.7233e+02	-11.0307	-54.014858	0.000324	3.243673	1.098986	0.000130
1734	1.7243e+02	-10.9826	-53.849335	0.000416	4.155956	1.408076	0.000166
1735	1.7253e+02	-10.9505	-53.687850	0.000405	4.054591	1.373733	0.000162
1736	1.7263e+02	-10.9008	-53.594995	0.000233	2.331390	0.789896	0.000093
1737	1.7273e+02	-10.8607	-53.437547	0.000395	3.953226	1.339389	0.000158
1738	1.7283e+02	-10.8222	-53.300285	0.000345	3.446403	1.167673	0.000138
1739	1.7293e+02	-10.7917	-53.167059	0.000335	3.345038	1.133329	0.000134
1740	1.7303e+02	-10.7468	-53.045945	0.000304	3.040943	1.030300	0.000122
1741	1.7313e+02	-10.7018	-52.888497	0.000395	3.953226	1.339389	0.000158
1742	1.7323e+02	-10.6585	-52.747197	0.000355	3.547767	1.202016	0.000142
1743	1.7333e+02	-10.6216	-52.585712	0.000405	4.054591	1.373733	0.000162
1744	1.7343e+02	-10.5927	-52.484783	0.000253	2.534120	0.858583	0.000101
1745	1.7353e+02	-10.5510	-52.339446	0.000365	3.649132	1.236359	0.000146
1746	1.7363e+02	-10.4981	-52.222369	0.000294	2.939579	0.995956	0.000118
1747	1.7373e+02	-10.4708	-52.081070	0.000355	3.547767	1.202016	0.000142
1748	1.7383e+02	-10.4259	-51.899398	0.000456	4.561415	1.545449	0.000183
1749	1.7393e+02	-10.3826	-51.778284	0.000304	3.040943	1.030300	0.000122
1750	1.7403e+02	-10.3537	-51.628910	0.000375	3.750497	1.270703	0.000150
1751	1.7413e+02	-10.2944	-51.483573	0.000365	3.649132	1.236359	0.000146
1752	1.7422e+02	-10.2735	-51.374571	0.000274	2.736849	0.927270	0.000110
1753	1.7432e+02	-10.2382	-51.192900	0.000456	4.561415	1.545449	0.000183
1754	1.7442e+02	-10.1933	-51.083897	0.000274	2.736849	0.927270	0.000110
1755	1.7452e+02	-10.1532	-50.930486	0.000385	3.851862	1.305046	0.000154
1756	1.7462e+02	-10.1099	-50.813409	0.000294	2.939579	0.995956	0.000118
1757	1.7472e+02	-10.0666	-50.651924	0.000405	4.054591	1.373733	0.000162
1758	1.7482e+02	-10.0216	-50.510624	0.000355	3.547767	1.202016	0.000142
1759	1.7492e+02	-9.9960	-50.365287	0.000365	3.649132	1.236359	0.000146
1760	1.7502e+02	-9.9511	-50.183616	0.000456	4.561415	1.545449	0.000183
1761	1.7512e+02	-9.9045	-50.090762	0.000233	2.331390	0.789896	0.000093
1762	1.7522e+02	-9.8708	-49.941388	0.000375	3.750497	1.270703	0.000150
1763	1.7532e+02	-9.8323	-49.779902	0.000405	4.054591	1.373733	0.000162
1764	1.7542e+02	-9.7874	-49.646677	0.000335	3.345038	1.133329	0.000134
1765	1.7552e+02	-9.7473	-49.497303	0.000375	3.750497	1.270703	0.000150
1766	1.7562e+02	-9.7088	-49.339854	0.000395	3.953226	1.339389	0.000158
1767	1.7572e+02	-9.6703	-49.186443	0.000385	3.851862	1.305046	0.000154
1768	1.7582e+02	-9.6398	-49.061292	0.000314	3.142308	1.064643	0.000126
1769	1.7592e+02	-9.5885	-48.915955	0.000365	3.649132	1.236359	0.000146
1770	1.7602e+02	-9.5468	-48.762544	0.000385	3.851862	1.305046	0.000154
1771	1.7612e+02	-9.5179	-48.588947	0.000436	4.358686	1.476763	0.000174
1772	1.7621e+02	-9.4666	-48.439573	0.000375	3.750497	1.270703	0.000150
1773	1.7631e+02	-9.4233	-48.358830	0.000203	2.027296	0.686866	0.000081
1774	1.7641e+02	-9.3928	-48.177159	0.000456	4.561415	1.545449	0.000183
1775	1.7651e+02	-9.3527	-48.047971	0.000324	3.243673	1.098986	0.000130
1776	1.7661e+02	-9.3142	-47.890523	0.000395	3.953226	1.339389	0.000158
1777	1.7671e+02	-9.2741	-47.741149	0.000375	3.750497	1.270703	0.000150
1778	1.7681e+02	-9.2404	-47.551403	0.000476	4.764145	1.614136	0.000191
1779	1.7691e+02	-9.1906	-47.470661	0.000203	2.027296	0.686866	0.000081
1780	1.7701e+02	-9.1586	-47.276878	0.000487	4.865509	1.648479	0.000195
1781	1.7711e+02	-9.1153	-47.143653	0.000335	3.345038	1.133329	0.000134
1782	1.7721e+02	-9.0784	-46.978130	0.000416	4.155956	1.408076	0.000166
1783	1.7731e+02	-9.0270	-46.889313	0.000223	2.230025	0.755553	0.000089
1784	1.7741e+02	-8.9917	-46.639011	0.000628	6.284616	2.129286	0.000252
1785	1.7751e+02	-8.9612	-46.534045	0.000264	2.635484	0.892926	0.000105
1786	1.7761e+02	-8.9163	-46.412931	0.000304	3.040943	1.030300	0.000122
1787	1.7771e+02	-8.8682	-46.251446	0.000405	4.054591	1.373733	0.000162
1788	1.7781e+02	-8.8201	-46.077849	0.000436	4.358686	1.476763	0.000174
1789	1.7791e+02	-8.7992	-45.912326	0.000416	4.155956	1.408076	0.000166
1790	1.7801e+02	-8.7527	-45.754878	0.000395	3.953226	1.339389	0.000158
1791	1.7810e+02	-8.7078	-45.637801	0.000294	2.939579	0.995956	0.000118
1792	1.7820e+02	-8.6725	-45.484390	0.000385	3.851862	1.305046	0.000154
1793	1.7830e+02	-8.6276	-45.302719	0.000456	4.561415	1.545449	0.000183
1794	1.7840e+02	-8.5794	-45.201790	0.000253	2.534120	0.858583	0.000101
1795	1.7850e+02	-8.5490	-45.020119	0.000456	4.561415	1.545449	0.000183
1796	1.7860e+02	-8.5105	-44.858634	0.000405	4.054591	1.373733	0.000162
1797	1.7870e+02	-8.4768	-44.717334	0.000355	3.547767	1.202016	0.000142
1798	1.7880e+02	-8.4286	-44.551811	0.000416	4.155956	1.408076	0.000166
1799	1.7890e+02	-8.3950	-44.402437	0.000375	3.750497	1.270703	0.000150
1800	1.7900e+02	-8.3420	-44.228841	0.000436	4.358686	1.476763	0.000174
1801	1.7910e+02	-8.3212	-44.087541	0.000355	3.547767	1.202016	0.000142
1802	1.7920e+02	-8.2698	-43.954315	0.000335	3.345038	1.133329	0.000134
1803	1.7930e+02	-8.2313	-43.768607	0.000466	4.662780	1.579793	0.000187
1804	1.7940e+02	-8.2024	-43.643456	0.000314	3.142308	1.064643	0.000126
1805	1.7950e+02	-8.1479	-43.473896	0.000426	4.257321	1.442419	0.000170
1806	1.7960e+02	-8.1126	-43.336634	0.000345	3.446403	1.167673	0.000138
1807	1.7970e+02	-8.0725	-43.175148	0.000405	4.054591	1.373733	0.000162
1808	1.7980e+02	-8.0404	-43.029811	0.000365	3.649132	1.236359	0.000146
1809	1.7990e+02	-8.0003	-42.848140	0.000456	4.561415	1.545449	0.000183
1810	1.8000e+02	-7.9522	-42.731063	0.000294	2.939579	0.995956	0.000118
1811	1.8009e+02	-7.9281	-42.577652	0.000385	3.851862	1.305046	0.000154
1812	1.8019e+02	-7.8736	-42.412129	0.000416	4.155956	1.408076	0.000166
1813	1.8029e+02	-7.8415	-42.250644	0.000405	4.054591	1.373733	0.000162
1814	1.8039e+02	-7.7934	-42.117419	0.000335	3.345038	1.133329	0.000134
1815	1.8049e+02	-7.7581	-41.976119	0.000355	3.547767	1.202016	0.000142
1816	1.8059e+02	-7.7164	-41.770225	0.000517	5.169604	1.751509	0.000207
1817	1.8069e+02	-7.6763	-41.653148	0.000294	2.939579	0.995956	0.000118
1818	1.8079e+02	-7.6458	-41.487625	0.000416	4.155956	1.408076	0.000166
1819	1.8089e+02	-7.6073	-41.301917	0.000466	4.662780	1.579793	0.000187
1820	1.8099e+02	-7.5672	-41.152543	0.000375	3.750497	1.270703	0.000150
1821	1.8109e+02	-7.5158	-41.007206	0.000365	3.649132	1.236359	0.000146
1822	1.8119e+02	-7.4709	-40.849758	0.000395	3.953226	1.339389	0.000158
1823	1.8129e+02	-7.4340	-40.708458	0.000355	3.547767	1.202016	0.000142
1824	1.8139e+02	-7.3955	-40.575233	0.000335	3.345038	1.133329	0.000134
1825	1.8149e+02	-7.3602	-40.401636	0.000436	4.358686	1.476763	0.000174
1826	1.8159e+02	-7.3201	-40.236113	0.000416	4.155956	1.408076	0.000166
1827	1.8169e+02	-7.2816	-40.070591	0.000416	4.155956	1.408076	0.000166
1828	1.8179e+02	-7.2319	-39.880845	0.000476	4.764145	1.614136	0.000191
1829	1.8189e+02	-7.1982	-39.767806	0.000284	2.838214	0.961613	0.000114
1830	1.8199e+02	-7.1613	-39.634580	0.000335	3.345038	1.133329	0.000134
1831	1.8209e+02	-7.1180	-39.420612	0.000537	5.372333	1.820196	0.000215
1832	1.8218e+02	-7.0827	-39.291424	0.000324	3.243673	1.098986	0.000130
1833	1.8228e+02	-7.0410	-39.093604	0.000497	4.966874	1.682823	0.000199
1834	1.8238e+02	-7.0009	-38.980564	0.000284	2.838214	0.961613	0.000114
1835	1.8248e+02	-6.9560	-38.798893	0.000456	4.561415	1.545449	0.000183
1836	1.8258e+02	-6.9207	-38.645482	0.000385	3.851862	1.305046	0.000154
1837	1.8268e+02	-6.8773	-38.560702	0.000213	2.128660	0.721210	0.000085
1838	1.8278e+02	-6.8533	-38.500145	0.000152	1.520472	0.515150	0.000061
1839	1.8288e+02	-6.7987	-38.419402	0.000203	2.027296	0.686866	0.000081
1840	1.8298e+02	-6.7586	-38.391142	0.000071	0.709553	0.240403	0.000028
1841	1.8308e+02	-6.7185	-38.350771	0.000101	1.013648	0.343433	0.000041
1842	1.8318e+02	-6.6784	-38.342697	0.000020	0.202730	0.068687	0.000008
1843	1.8328e+02	-6.6367	-38.282140	0.000152	1.520472	0.515150	0.000061
1844	1.8338e+02	-6.6126	-38.148914	0.000335	3.345038	1.133329	0.000134
1845	1.8348e+02	-6.5613	-37.991466	0.000395	3.953226	1.339389	0.000158
1846	1.8358e+02	-6.5180	-37.817869	0.000436	4.358686	1.476763	0.000174
1847	1.8368e+02	-6.4923	-37.406081	0.001034	10.339208	3.503018	0.000414
1848	1.8378e+02	-6.4442	-36.909513	0.001247	12.467868	4.224228	0.000499
1849	1.8388e+02	-6.4057	-36.651137	0.000649	6.487346	2.197972	0.000260
1850	1.8398e+02	-6.3688	-36.441206	0.000527	5.270969	1.785853	0.000211
1851	1.8407e+02	-6.3351	-36.287795	0.000385	3.851862	1.305046	0.000154
1852	1.8417e+02	-6.2838	-36.215126	0.000182	1.824566	0.618180	0.000073
1853	1.8427e+02	-6.2405	-36.211089	0.000010	0.101365	0.034343	0.000004
1854	1.8437e+02	-6.2068	-36.182829	0.000071	0.709553	0.240403	0.000028
1855	1.8447e+02	-6.1667	-36.186866	-0.000010	-0.101365	-0.034343	-0.000004
1856	1.8457e+02	-6.1250	-36.190903	-0.000010	-0.101365	-0.034343	-0.000004
1857	1.8467e+02	-6.0913	-36.146495	0.000112	1.115013	0.377776	0.000045
1858	1.8477e+02	-6.0480	-36.130346	0.000041	0.405459	0.137373	0.000016
1859	1.8487e+02	-6.0062	-36.146495	-0.000041	-0.405459	-0.137373	-0.000016
1860	1.8497e+02	-5.9677	-36.045566	0.000253	2.534120	0.858583	0.000101
1861	1.8507e+02	-5.9276	-35.900230	0.000365	3.649132	1.236359	0.000146
1862	1.8517e+02	-5.8923	-35.625704	0.000689	6.892805	2.335346	0.000276
1863	1.8527e+02	-5.8554	-35.108951	0.001297	12.974692	4.395945	0.000519
1864	1.8537e+02	-5.8089	-34.915168	0.000487	4.865509	1.648479	0.000195
1865	1.8547e+02	-5.7688	-34.697163	0.000547	5.473698	1.854539	0.000219
1866	1.8557e+02	-5.7351	-34.551826	0.000365	3.649132	1.236359	0.000146
1867	1.8567e+02	-5.6902	-34.374192	0.000446	4.460050	1.511106	0.000179
1868	1.8577e+02	-5.6437	-34.180410	0.000487	4.865509	1.648479	0.000195
1869	1.8587e+02	-5.6116	-34.014887	0.000416	4.155956	1.408076	0.000166
1870	1.8597e+02	-5.5683	-33.732288	0.000710	7.095535	2.404032	0.000284
1871	1.8606e+02	-5.5346	-33.627322	0.000264	2.635484	0.892926	0.000105
1872	1.8616e+02	-5.4865	-33.498134	0.000324	3.243673	1.098986	0.000130
1873	1.8626e+02	-5.4480	-33.385094	0.000284	2.838214	0.961613	0.000114
1874	1.8636e+02	-5.4111	-33.231683	0.000385	3.851862	1.305046	0.000154
1875	1.8646e+02	-5.3646	-33.054049	0.000446	4.460050	1.511106	0.000179
1876	1.8656e+02	-5.3196	-32.908712	0.000365	3.649132	1.236359	0.000146
1877	1.8666e+02	-5.2908	-32.807784	0.000253	2.534120	0.858583	0.000101
1878	1.8676e+02	-5.2394	-32.678595	0.000324	3.243673	1.098986	0.000130
1879	1.8686e+02	-5.2170	-32.513073	0.000416	4.155956	1.408076	0.000166
1880	1.8696e+02	-5.1737	-32.355624	0.000395	3.953226	1.339389	0.000158
1881	1.8706e+02	-5.1271	-32.182028	0.000436	4.358686	1.476763	0.000174
1882	1.8716e+02	-5.0918	-32.048802	0.000335	3.345038	1.133329	0.000134
1883	1.8726e+02	-5.0453	-31.871168	0.000446	4.460050	1.511106	0.000179
1884	1.8736e+02	-5.0052	-31.806574	0.000162	1.621836	0.549493	0.000065
1885	1.8746e+02	-4.9860	-31.596643	0.000527	5.270969	1.785853	0.000211
1886	1.8756e+02	-4.9346	-31.455343	0.000355	3.547767	1.202016	0.000142
1887	1.8766e+02	-4.8961	-31.293858	0.000405	4.054591	1.373733	0.000162
1888	1.8776e+02	-4.8496	-31.116224	0.000446	4.460050	1.511106	0.000179
1889	1.8786e+02	-4.8127	-30.974924	0.000355	3.547767	1.202016	0.000142
1890	1.8796e+02	-4.7678	-30.785179	0.000476	4.764145	1.614136	0.000191
1891	1.8806e+02	-4.7341	-30.563136	0.000558	5.575063	1.888882	0.000223
1892	1.8815e+02	-4.6924	-30.433948	0.000324	3.243673	1.098986	0.000130
1893	1.8825e+02	-4.6507	-30.211905	0.000558	5.575063	1.888882	0.000223
1894	1.8835e+02	-4.6170	-30.030234	0.000456	4.561415	1.545449	0.000183
1895	1.8845e+02	-4.5753	-29.864712	0.000416	4.155956	1.408076	0.000166
1896	1.8855e+02	-4.5255	-29.699189	0.000416	4.155956	1.408076	0.000166
1897	1.8865e+02	-4.4902	-29.521555	0.000446	4.460050	1.511106	0.000179
1898	1.8875e+02	-4.4598	-29.339884	0.000456	4.561415	1.545449	0.000183
1899	1.8885e+02	-4.4084	-29.142064	0.000497	4.966874	1.682823	0.000199
1900	1.8895e+02	-4.3715	-28.976542	0.000416	4.155956	1.408076	0.000166
1901	1.8905e+02	-4.3346	-28.778722	0.000497	4.966874	1.682823	0.000199
1902	1.8915e+02	-4.2977	-28.625311	0.000385	3.851862	1.305046	0.000154
1903	1.8925e+02	-4.2496	-28.395194	0.000578	5.777793	1.957569	0.000231
1904	1.8935e+02	-4.2063	-28.274080	0.000304	3.040943	1.030300	0.000122
1905	1.8945e+02	-4.1790	-28.076260	0.000497	4.966874	1.682823	0.000199
1906	1.8955e+02	-4.1373	-27.842107	0.000588	5.879157	1.991912	0.000235
1907	1.8965e+02	-4.0940	-27.704844	0.000345	3.446403	1.167673	0.000138
1908	1.8975e+02	-4.0603	-27.515099	0.000476	4.764145	1.614136	0.000191
1909	1.8985e+02	-4.0122	-27.353613	0.000405	4.054591	1.373733	0.000162
1910	1.8995e+02	-3.9737	-27.167905	0.000466	4.662780	1.579793	0.000187
1911	1.9004e+02	-3.9352	-26.982197	0.000466	4.662780	1.579793	0.000187
1912	1.9014e+02	-3.8935	-26.788414	0.000487	4.865509	1.648479	0.000195
1913	1.9024e+02	-3.8470	-26.550223	0.000598	5.980522	2.026256	0.000239
1914	1.9034e+02	-3.8149	-26.364515	0.000466	4.662780	1.579793	0.000187
1915	1.9044e+02	-3.7796	-26.174770	0.000476	4.764145	1.614136	0.000191
1916	1.9054e+02	-3.7282	-26.001173	0.000436	4.358686	1.476763	0.000174
1917	1.9064e+02	-3.6978	-25.799316	0.000507	5.068239	1.717166	0.000203
1918	1.9074e+02	-3.6512	-25.641868	0.000395	3.953226	1.339389	0.000158
1919	1.9084e+02	-3.6079	-25.472308	0.000426	4.257321	1.442419	0.000170
1920	1.9094e+02	-3.5839	-25.286600	0.000466	4.662780	1.579793	0.000187
1921	1.9104e+02	-3.5389	-25.064557	0.000558	5.575063	1.888882	0.000223
1922	1.9114e+02	-3.4972	-24.915183	0.000375	3.750497	1.270703	0.000150
1923	1.9124e+02	-3.4587	-24.689104	0.000568	5.676428	1.923226	0.000227
1924	1.9134e+02	-3.4074	-24.555878	0.000335	3.345038	1.133329	0.000134
1925	1.9144e+02	-3.3801	-24.341910	0.000537	5.372333	1.820196	0.000215
1926	1.9154e+02	-3.3448	-24.144090	0.000497	4.966874	1.682823	0.000199
1927	1.9164e+02	-3.2903	-23.950308	0.000487	4.865509	1.648479	0.000195
1928	1.9174e+02	-3.2502	-23.796897	0.000385	3.851862	1.305046	0.000154
1929	1.9184e+02	-3.2213	-23.591003	0.000517	5.169604	1.751509	0.000207
1930	1.9194e+02	-3.1684	-23.425480	0.000416	4.155956	1.408076	0.000166
1931	1.9203e+02	-3.1379	-23.203438	0.000558	5.575063	1.888882	0.000223
1932	1.9213e+02	-3.1010	-22.985432	0.000547	5.473698	1.854539	0.000219
1933	1.9223e+02	-3.0609	-22.844133	0.000355	3.547767	1.202016	0.000142
1934	1.9233e+02	-3.0127	-22.658424	0.000466	4.662780	1.579793	0.000187
1935	1.9243e+02	-2.9823	-22.505013	0.000385	3.851862	1.305046	0.000154
1936	1.9253e+02	-2.9325	-22.266822	0.000598	5.980522	2.026256	0.000239
1937	1.9263e+02	-2.8972	-22.056891	0.000527	5.270969	1.785853	0.000211
1938	1.9273e+02	-2.8555	-21.850997	0.000517	5.169604	1.751509	0.000207
1939	1.9283e+02	-2.8154	-21.693549	0.000395	3.953226	1.339389	0.000158
1940	1.9293e+02	-2.7705	-21.495729	0.000497	4.966874	1.682823	0.000199
1941	1.9303e+02	-2.7400	-21.237353	0.000649	6.487346	2.197972	0.000260
1942	1.9313e+02	-2.6967	-21.092016	0.000365	3.649132	1.236359	0.000146
1943	1.9323e+02	-2.6566	-20.898233	0.000487	4.865509	1.648479	0.000195
1944	1.9333e+02	-2.6293	-20.712525	0.000466	4.662780	1.579793	0.000187
1945	1.9343e+02	-2.5780	-20.526817	0.000466	4.662780	1.579793	0.000187
1946	1.9353e+02	-2.5411	-20.328997	0.000497	4.966874	1.682823	0.000199
1947	1.9363e+02	-2.4962	-20.123103	0.000517	5.169604	1.751509	0.000207
1948	1.9373e+02	-2.4657	-19.909135	0.000537	5.372333	1.820196	0.000215
1949	1.9383e+02	-2.4176	-19.763798	0.000365	3.649132	1.236359	0.000146
1950	1.9393e+02	-2.3743	-19.565978	0.000497	4.966874	1.682823	0.000199
1951	1.9403e+02	-2.3454	-19.331824	0.000588	5.879157	1.991912	0.000235
1952	1.9412e+02	-2.2989	-19.158228	0.000436	4.358686	1.476763	0.000174
1953	1.9422e+02	-2.2539	-18.988668	0.000426	4.257321	1.442419	0.000170
1954	1.9432e+02	-2.2267	-18.766625	0.000558	5.575063	1.888882	0.000223
1955	1.9442e+02	-2.1818	-18.584954	0.000456	4.561415	1.545449	0.000183
1956	1.9452e+02	-2.1417	-18.407320	0.000446	4.460050	1.511106	0.000179
1957	1.9462e+02	-2.1096	-18.205464	0.000507	5.068239	1.717166	0.000203
1958	1.9472e+02	-2.0582	-18.072238	0.000335	3.345038	1.133329	0.000134
1959	1.9482e+02	-2.0229	-17.842121	0.000578	5.777793	1.957569	0.000231
1960	1.9492e+02	-1.9876	-17.652376	0.000476	4.764145	1.614136	0.000191
1961	1.9502e+02	-1.9379	-17.414185	0.000598	5.980522	2.026256	0.000239
1962	1.9512e+02	-1.9026	-17.252700	0.000405	4.054591	1.373733	0.000162
1963	1.9522e+02	-1.8641	-17.071028	0.000456	4.561415	1.545449	0.000183
1964	1.9532e+02	-1.8256	-16.877246	0.000487	4.865509	1.648479	0.000195
1965	1.9542e+02	-1.7887	-16.679426	0.000497	4.966874	1.682823	0.000199
1966	1.9552e+02	-1.7518	-16.509867	0.000426	4.257321	1.442419	0.000170
1967	1.9562e+02	-1.7021	-16.328195	0.000456	4.561415	1.545449	0.000183
1968	1.9572e+02	-1.6556	-16.162673	0.000416	4.155956	1.408076	0.000166
1969	1.9582e+02	-1.6267	-15.985039	0.000446	4.460050	1.511106	0.000179
1970	1.9592e+02	-1.5721	-15.871999	0.000284	2.838214	0.961613	0.000114
1971	1.9601e+02	-1.5369	-15.746848	0.000314	3.142308	1.064643	0.000126
1972	1.9611e+02	-1.4984	-15.653994	0.000233	2.331390	0.789896	0.000093
1973	1.9621e+02	-1.4615	-15.585363	0.000172	1.723201	0.583836	0.000069
1974	1.9631e+02	-1.4310	-15.520768	0.000162	1.621836	0.549493	0.000065
1975	1.9641e+02	-1.3861	-15.476360	0.000112	1.115013	0.377776	0.000045
1976	1.9651e+02	-1.3460	-15.456174	0.000051	0.506824	0.171717	0.000020
1977	1.9661e+02	-1.3091	-15.427914	0.000071	0.709553	0.240403	0.000028
1978	1.9671e+02	-1.2609	-14.660858	0.001926	19.259308	6.525230	0.000771
1979	1.9681e+02	-1.2256	-14.002805	0.001652	16.522459	5.597961	0.000661
1980	1.9691e+02	-1.1839	-13.873617	0.000324	3.243673	1.098986	0.000130
1981	1.9701e+02	-1.1470	-13.631389	0.000608	6.081887	2.060599	0.000243
1982	1.9711e+02	-1.0957	-13.457792	0.000436	4.358686	1.476763	0.000174
1983	1.9721e+02	-1.0604	-13.251898	0.000517	5.169604	1.751509	0.000207
1984	1.9731e+02	-1.0235	-13.050041	0.000507	5.068239	1.717166	0.000203
1985	1.9741e+02	-0.9850	-12.884519	0.000416	4.155956	1.408076	0.000166
1986	1.9751e+02	-0.9465	-12.727070	0.000395	3.953226	1.339389	0.000158
1987	1.9761e+02	-0.9032	-12.614031	0.000284	2.838214	0.961613	0.000114
1988	1.9771e+02	-0.8647	-12.432360	0.000456	4.561415	1.545449	0.000183
1989	1.9781e+02	-0.8278	-12.287023	0.000365	3.649132	1.236359	0.000146
1990	1.9791e+02	-0.7861	-12.081129	0.000517	5.169604	1.751509	0.000207
1991	1.9800e+02	-0.7460	-11.782381	0.000750	7.500994	2.541405	0.000300
1992	1.9810e+02	-0.7027	-11.588598	0.000487	4.865509	1.648479	0.000195
1993	1.9820e+02	-0.6690	-11.431150	0.000395	3.953226	1.339389	0.000158
1994	1.9830e+02	-0.6224	-11.120290	0.000781	7.805088	2.644435	0.000312
1995	1.9840e+02	-0.5807	-10.894211	0.000568	5.676428	1.923226	0.000227
1996	1.9850e+02	-0.5486	-10.708503	0.000466	4.662780	1.579793	0.000187
1997	1.9860e+02	-0.5101	-10.478386	0.000578	5.777793	1.957569	0.000231
1998	1.9870e+02	-0.4684	-10.320938	0.000395	3.953226	1.339389	0.000158
1999	1.9880e+02	-0.4267	-10.106969	0.000537	5.372333	1.820196	0.000215
2000	1.9890e+02	-0.3882	-9.909150	0.000497	4.966874	1.682823	0.000199
2001	1.9900e+02	-0.3561	-9.699219	0.000527	5.270969	1.785853	0.000211
2002	1.9910e+02	-0.3192	-9.497362	0.000507	5.068239	1.717166	0.000203
2003	1.9920e+02	-0.2631	-9.323765	0.000436	4.358686	1.476763	0.000174
2004	1.9930e+02	-0.2278	-9.283394	0.000101	1.013648	0.343433	0.000041
2005	1.9940e+02	-0.1797	-9.238985	0.000112	1.115013	0.377776	0.000045
2006	1.9950e+02	-0.1524	-9.202651	0.000091	0.912283	0.309090	0.000037
2007	1.9960e+02	-0.1107	-9.214762	-0.000030	-0.304094	-0.103030	-0.000012
2008	1.9970e+02	-0.0706	-9.121908	0.000233	2.331390	0.789896	0.000093
2009	1.9980e+02	-0.0353	-9.081537	0.000233	2.331390	0.789896	0.000041

Center data before PMax,+/-Pr and +/-Vc Calc.

PMax (uC/cm2):	7.95e+01
Pr (uC/cm2):	6.83e+00
-Pr (uC/cm2):	-9.08e+00
PLoss (uC/cm2):	-5.24e+00
Vc:	8.80e-01
-Vc:	-1.72e+00
C (Max-Eff) (nF):	3.98e-01
K (Eff):	1.35e+03
Vert. (+/-Pr) Shift (uC/cm2):	-1.13e+00
Horiz. Shift (+/-Vc):	-4.20e-01
Offset (uC/cm2):	3.85e+00

A (Loop Area - uC/cm2·Volts):	-7.48e-02



Hysteresis Version: 5.48.1 - Radiant Technologies, Inc., 1999 - 9/12/24

