»»»»»»»»»»»»»»»»»»»»»»»»»»»»»»»»»»»» Hysteresis ««««««««««««««««««««««««««««««««««««
»»»  Executed Version:	5.48.1
»»»  Vision Version:	5.48.4 (R)
»»»  Vision Compiled:	9/18/24
»»»  Driver Version:	5.47.0
»»»  Windows Version:	Windows 8 or 8.1
»»»  Processor Information:	x86 (AMD or Intel) - 32 Processors
»»»  Tester Name:	PMF21124-494 (100V)
»»»  Tester S/N:	PMF21124-494
»»»  Internal Amp Type:	100V RevK 270k
»»»  Internal Amp S/N:	iAB2-596/K     
»»»  Execution Count:	1
»»»»»»»»»»»»»»»»»»»»»»»»»»»»»»»»»»»»»»»»»»««««««««««««««««««««««««««««««««««««««««««

Stored:	6/4/2025 - 11:35:45
Configured:	06/04/25 11:24:55 AM
Executed:	06/04/25 11:34:53 AM

»»»»»»»»»»»»»»»»»»»»»»»»»»»»»»»»»»» Sample Info ««««««««««««««««««««««««««««««««««««
Sample Name:	
Lot Name:	
Wafer Name:	
Die Row/Column:	0/0
Capacitor Number:	0
Sample Area (cm2):	1.00e-04
Sample Thickness (microns):	3.00e-01

Amplifier:	Internal

»»»»»»»»»»»»»»»»»»»»»»»»»»»»»»»»»»» Tester Info «««««««««««««««««««««««««««««««««««
Tester Name:	PMF21124-494 (100V)
Tester Serial Number:	PMF21124-494
Return Signal Amp. Level:	0.19 [Index: 3]

»»»»»»»»»»»»»»»»»»»»»»»»»»»»»»»» Hysteresis Info ««««««««««««««««««««««««««««««««««
Task Name:	Hyst-2
Volts:	20.00
Field:	666.67 (kV/cm)
DCBias:	0.00
DCField:	0.00 (kV/cm)
Hysteresis Period (ms):	2.00e+02
Preset:	Enabled
Preset Delay (ms):	1.00e+03
Profile:	Standard Bipolar

»»»»»»»»»»»»»»»»»»»»»»»»»»»»»»»»»»»»»» Data «««««««««««««««««««««««««««««««««««««««
Points:	2009

Valid Data

Point	Time (ms)	Drive Voltage	Measured Polarization (uC/cm2)	Capacitance (uF)	Normalized Capacitance (uF/cm2)	Dielectric Constant	Instantaneous Current (mA)
   1	0.0000e+00	-0.0193	-3.314488	0.000274	2.736245	0.927065	0.000110
   2	9.9500e-02	0.0209	-3.205486	0.000274	2.736245	0.927065	0.000110
   3	1.9900e-01	0.0497	-3.031889	0.000436	4.357724	1.476437	0.000174
   4	2.9850e-01	0.0995	-2.866366	0.000416	4.155039	1.407765	0.000166
   5	3.9800e-01	0.1332	-2.716992	0.000375	3.749670	1.270422	0.000150
   6	4.9750e-01	0.1749	-2.563581	0.000385	3.851012	1.304758	0.000154
   7	5.9700e-01	0.2086	-2.381910	0.000456	4.560409	1.545108	0.000183
   8	6.9650e-01	0.2551	-2.220425	0.000405	4.053697	1.373430	0.000162
   9	7.9600e-01	0.2936	-2.046828	0.000436	4.357724	1.476437	0.000174
  10	8.9550e-01	0.3369	-1.873231	0.000436	4.357724	1.476437	0.000174
  11	9.9500e-01	0.3754	-1.744043	0.000324	3.242957	1.098744	0.000130
  12	1.0945e+00	0.4203	-1.534112	0.000527	5.269806	1.785459	0.000211
  13	1.1940e+00	0.4556	-1.380700	0.000385	3.851012	1.304758	0.000154
  14	1.2935e+00	0.4989	-1.186918	0.000486	4.864436	1.648116	0.000195
  15	1.3930e+00	0.5438	-1.049655	0.000345	3.445642	1.167415	0.000138
  16	1.4925e+00	0.5679	-0.872021	0.000446	4.459066	1.510773	0.000179
  17	1.5920e+00	0.6112	-0.722647	0.000375	3.749670	1.270422	0.000150
  18	1.6915e+00	0.6529	-0.532902	0.000476	4.763094	1.613780	0.000191
  19	1.7910e+00	0.6850	-0.371416	0.000405	4.053697	1.373430	0.000162
  20	1.8905e+00	0.7347	-0.157448	0.000537	5.371148	1.819794	0.000215
  21	1.9900e+00	0.7668	-0.000000	0.000395	3.952354	1.339094	0.000158
  22	2.0895e+00	0.8133	0.149374	0.000375	3.749670	1.270422	0.000150
  23	2.1890e+00	0.8502	0.335082	0.000466	4.661751	1.579444	0.000187
  24	2.2885e+00	0.8871	0.480419	0.000365	3.648327	1.236087	0.000146
  25	2.3880e+00	0.9353	0.674202	0.000486	4.864436	1.648116	0.000195
  26	2.4875e+00	0.9770	0.863947	0.000476	4.763094	1.613780	0.000191
  27	2.5870e+00	1.0123	0.993135	0.000324	3.242957	1.098744	0.000130
  28	2.6865e+00	1.0492	1.211141	0.000547	5.472491	1.854130	0.000219
  29	2.7860e+00	1.0973	1.352440	0.000355	3.546985	1.201751	0.000142
  30	2.8855e+00	1.1310	1.526037	0.000436	4.357724	1.476437	0.000174
  31	2.9850e+00	1.1759	1.691560	0.000416	4.155039	1.407765	0.000166
  32	3.0845e+00	1.2144	1.873231	0.000456	4.560409	1.545108	0.000183
  33	3.1840e+00	1.2577	2.095273	0.000557	5.573833	1.888466	0.000223
  34	3.2835e+00	1.2978	2.297130	0.000507	5.067121	1.716787	0.000203
  35	3.3830e+00	1.3347	2.398059	0.000253	2.533560	0.858394	0.000101
  36	3.4825e+00	1.3796	2.583767	0.000466	4.661751	1.579444	0.000187
  37	3.5820e+00	1.4133	2.753327	0.000426	4.256382	1.442101	0.000170
  38	3.6815e+00	1.4566	2.934998	0.000456	4.560409	1.545108	0.000183
  39	3.7810e+00	1.4887	3.136854	0.000507	5.067121	1.716787	0.000203
  40	3.8805e+00	1.5336	3.310451	0.000436	4.357724	1.476437	0.000174
  41	3.9800e+00	1.5738	3.480011	0.000426	4.256382	1.442101	0.000170
  42	4.0795e+00	1.6042	3.653608	0.000436	4.357724	1.476437	0.000174
  43	4.1790e+00	1.6475	3.851427	0.000497	4.965779	1.682451	0.000199
  44	4.2785e+00	1.6860	3.988690	0.000345	3.445642	1.167415	0.000138
  45	4.3780e+00	1.7310	4.190547	0.000507	5.067121	1.716787	0.000203
  46	4.4775e+00	1.7647	4.392404	0.000507	5.067121	1.716787	0.000203
  47	4.5770e+00	1.8064	4.570038	0.000446	4.459066	1.510773	0.000179
  48	4.6765e+00	1.8465	4.727486	0.000395	3.952354	1.339094	0.000158
  49	4.7760e+00	1.8850	4.888971	0.000405	4.053697	1.373430	0.000162
  50	4.8755e+00	1.9315	5.042383	0.000385	3.851012	1.304758	0.000154
  51	4.9750e+00	1.9796	5.207905	0.000416	4.155039	1.407765	0.000166
  52	5.0745e+00	2.0037	5.401688	0.000486	4.864436	1.648116	0.000195
  53	5.1740e+00	2.0454	5.619693	0.000547	5.472491	1.854130	0.000219
  54	5.2735e+00	2.0855	5.744844	0.000314	3.141615	1.064408	0.000126
  55	5.3730e+00	2.1224	5.954775	0.000527	5.269806	1.785459	0.000211
  56	5.4725e+00	2.1737	6.108186	0.000385	3.851012	1.304758	0.000154
  57	5.5720e+00	2.2042	6.297932	0.000476	4.763094	1.613780	0.000191
  58	5.6715e+00	2.2443	6.487677	0.000476	4.763094	1.613780	0.000191
  59	5.7710e+00	2.2828	6.661274	0.000436	4.357724	1.476437	0.000174
  60	5.8705e+00	2.3390	6.802574	0.000355	3.546985	1.201751	0.000142
  61	5.9700e+00	2.3743	6.996356	0.000486	4.864436	1.648116	0.000195
  62	6.0695e+00	2.4144	7.198213	0.000507	5.067121	1.716787	0.000203
  63	6.1690e+00	2.4432	7.375847	0.000446	4.459066	1.510773	0.000179
  64	6.2685e+00	2.4946	7.529258	0.000385	3.851012	1.304758	0.000154
  65	6.3680e+00	2.5299	7.702855	0.000436	4.357724	1.476437	0.000174
  66	6.4675e+00	2.5684	7.937009	0.000588	5.877860	1.991473	0.000235
  67	6.5670e+00	2.6165	8.054086	0.000294	2.938930	0.995736	0.000118
  68	6.6665e+00	2.6502	8.255943	0.000507	5.067121	1.716787	0.000203
  69	6.7660e+00	2.6855	8.453762	0.000497	4.965779	1.682451	0.000199
  70	6.8655e+00	2.7304	8.627359	0.000436	4.357724	1.476437	0.000174
  71	6.9650e+00	2.7641	8.804993	0.000446	4.459066	1.510773	0.000179
  72	7.0645e+00	2.8138	8.966478	0.000405	4.053697	1.373430	0.000162
  73	7.1640e+00	2.8395	9.172372	0.000517	5.168463	1.751123	0.000207
  74	7.2635e+00	2.8876	9.333858	0.000405	4.053697	1.373430	0.000162
  75	7.3630e+00	2.9133	9.503418	0.000426	4.256382	1.442101	0.000170
  76	7.4625e+00	2.9630	9.672977	0.000426	4.256382	1.442101	0.000170
  77	7.5620e+00	3.0031	9.870797	0.000497	4.965779	1.682451	0.000199
  78	7.6615e+00	3.0400	10.028245	0.000395	3.952354	1.339094	0.000158
  79	7.7610e+00	3.0898	10.234139	0.000517	5.168463	1.751123	0.000207
  80	7.8605e+00	3.1218	10.399662	0.000416	4.155039	1.407765	0.000166
  81	7.9600e+00	3.1587	10.569221	0.000426	4.256382	1.442101	0.000170
  82	8.0595e+00	3.2004	10.742818	0.000436	4.357724	1.476437	0.000174
  83	8.1590e+00	3.2502	10.924489	0.000456	4.560409	1.545108	0.000183
  84	8.2585e+00	3.2791	11.118272	0.000486	4.864436	1.648116	0.000195
  85	8.3580e+00	3.3256	11.259572	0.000355	3.546985	1.201751	0.000142
  86	8.4575e+00	3.3625	11.441243	0.000456	4.560409	1.545108	0.000183
  87	8.5570e+00	3.4090	11.610802	0.000426	4.256382	1.442101	0.000170
  88	8.6565e+00	3.4491	11.792473	0.000456	4.560409	1.545108	0.000183
  89	8.7560e+00	3.4828	11.962033	0.000426	4.256382	1.442101	0.000170
  90	8.8555e+00	3.5325	12.111407	0.000375	3.749670	1.270422	0.000150
  91	8.9550e+00	3.5630	12.325375	0.000537	5.371148	1.819794	0.000215
  92	9.0545e+00	3.5999	12.527232	0.000507	5.067121	1.716787	0.000203
  93	9.1540e+00	3.6448	12.688718	0.000405	4.053697	1.373430	0.000162
  94	9.2535e+00	3.6849	12.834055	0.000365	3.648327	1.236087	0.000146
  95	9.3530e+00	3.7298	13.011688	0.000446	4.459066	1.510773	0.000179
  96	9.4525e+00	3.7732	13.201434	0.000476	4.763094	1.613780	0.000191
  97	9.5520e+00	3.7908	13.383105	0.000456	4.560409	1.545108	0.000183
  98	9.6515e+00	3.8341	13.540553	0.000395	3.952354	1.339094	0.000158
  99	9.7510e+00	3.8742	13.718187	0.000446	4.459066	1.510773	0.000179
 100	9.8505e+00	3.9223	13.899858	0.000456	4.560409	1.545108	0.000183
 101	9.9500e+00	3.9576	14.037121	0.000345	3.445642	1.167415	0.000138
 102	1.0050e+01	3.9994	14.238978	0.000507	5.067121	1.716787	0.000203
 103	1.0149e+01	4.0459	14.424686	0.000466	4.661751	1.579444	0.000187
 104	1.0248e+01	4.0796	14.602320	0.000446	4.459066	1.510773	0.000179
 105	1.0348e+01	4.1197	14.751694	0.000375	3.749670	1.270422	0.000150
 106	1.0447e+01	4.1485	14.913179	0.000405	4.053697	1.373430	0.000162
 107	1.0547e+01	4.2079	15.098888	0.000466	4.661751	1.579444	0.000187
 108	1.0646e+01	4.2464	15.288633	0.000476	4.763094	1.613780	0.000191
 109	1.0746e+01	4.2881	15.494527	0.000517	5.168463	1.751123	0.000207
 110	1.0845e+01	4.3330	15.672161	0.000446	4.459066	1.510773	0.000179
 111	1.0945e+01	4.3603	15.829609	0.000395	3.952354	1.339094	0.000158
 112	1.1044e+01	4.4020	15.978983	0.000375	3.749670	1.270422	0.000150
 113	1.1144e+01	4.4405	16.148543	0.000426	4.256382	1.442101	0.000170
 114	1.1243e+01	4.4870	16.366548	0.000547	5.472491	1.854130	0.000219
 115	1.1343e+01	4.5191	16.515922	0.000375	3.749670	1.270422	0.000150
 116	1.1443e+01	4.5608	16.705668	0.000476	4.763094	1.613780	0.000191
 117	1.1542e+01	4.5993	16.822745	0.000294	2.938930	0.995736	0.000118
 118	1.1642e+01	4.6346	17.056898	0.000588	5.877860	1.991473	0.000235
 119	1.1741e+01	4.6812	17.198198	0.000355	3.546985	1.201751	0.000142
 120	1.1841e+01	4.7197	17.355647	0.000395	3.952354	1.339094	0.000158
 121	1.1940e+01	4.7598	17.541355	0.000466	4.661751	1.579444	0.000187
 122	1.2040e+01	4.8031	17.747249	0.000517	5.168463	1.751123	0.000207
 123	1.2139e+01	4.8400	17.892586	0.000365	3.648327	1.236087	0.000146
 124	1.2239e+01	4.8737	18.106554	0.000537	5.371148	1.819794	0.000215
 125	1.2338e+01	4.9234	18.231705	0.000314	3.141615	1.064408	0.000126
 126	1.2438e+01	4.9603	18.417413	0.000466	4.661751	1.579444	0.000187
 127	1.2537e+01	4.9876	18.595047	0.000446	4.459066	1.510773	0.000179
 128	1.2636e+01	5.0389	18.740384	0.000365	3.648327	1.236087	0.000146
 129	1.2736e+01	5.0758	18.934167	0.000486	4.864436	1.648116	0.000195
 130	1.2835e+01	5.1175	19.071429	0.000345	3.445642	1.167415	0.000138
 131	1.2935e+01	5.1576	19.236952	0.000416	4.155039	1.407765	0.000166
 132	1.3034e+01	5.2041	19.430734	0.000486	4.864436	1.648116	0.000195
 133	1.3134e+01	5.2458	19.580108	0.000375	3.749670	1.270422	0.000150
 134	1.3233e+01	5.2779	19.753705	0.000436	4.357724	1.476437	0.000174
 135	1.3333e+01	5.3164	19.975748	0.000557	5.573833	1.888466	0.000223
 136	1.3432e+01	5.3549	20.129159	0.000385	3.851012	1.304758	0.000154
 137	1.3532e+01	5.3950	20.302756	0.000436	4.357724	1.476437	0.000174
 138	1.3632e+01	5.4303	20.484427	0.000456	4.560409	1.545108	0.000183
 139	1.3731e+01	5.4785	20.629764	0.000365	3.648327	1.236087	0.000146
 140	1.3831e+01	5.5266	20.835658	0.000517	5.168463	1.751123	0.000207
 141	1.3930e+01	5.5587	20.993106	0.000395	3.952354	1.339094	0.000158
 142	1.4030e+01	5.5940	21.170740	0.000446	4.459066	1.510773	0.000179
 143	1.4129e+01	5.6293	21.348374	0.000446	4.459066	1.510773	0.000179
 144	1.4229e+01	5.6774	21.509859	0.000405	4.053697	1.373430	0.000162
 145	1.4328e+01	5.7175	21.671345	0.000405	4.053697	1.373430	0.000162
 146	1.4428e+01	5.7560	21.869164	0.000497	4.965779	1.682451	0.000199
 147	1.4527e+01	5.7993	22.018538	0.000375	3.749670	1.270422	0.000150
 148	1.4627e+01	5.8298	22.188098	0.000426	4.256382	1.442101	0.000170
 149	1.4726e+01	5.8747	22.365732	0.000446	4.459066	1.510773	0.000179
 150	1.4825e+01	5.9228	22.527217	0.000405	4.053697	1.373430	0.000162
 151	1.4925e+01	5.9565	22.692740	0.000416	4.155039	1.407765	0.000166
 152	1.5024e+01	5.9902	22.858263	0.000416	4.155039	1.407765	0.000166
 153	1.5124e+01	6.0287	23.056082	0.000497	4.965779	1.682451	0.000199
 154	1.5223e+01	6.0736	23.221605	0.000416	4.155039	1.407765	0.000166
 155	1.5323e+01	6.1073	23.370979	0.000375	3.749670	1.270422	0.000150
 156	1.5422e+01	6.1586	23.556687	0.000466	4.661751	1.579444	0.000187
 157	1.5522e+01	6.1955	23.734321	0.000446	4.459066	1.510773	0.000179
 158	1.5621e+01	6.2324	23.891769	0.000395	3.952354	1.339094	0.000158
 159	1.5721e+01	6.2597	24.101700	0.000527	5.269806	1.785459	0.000211
 160	1.5820e+01	6.3046	24.218777	0.000294	2.938930	0.995736	0.000118
 161	1.5920e+01	6.3576	24.404486	0.000466	4.661751	1.579444	0.000187
 162	1.6020e+01	6.3993	24.578082	0.000436	4.357724	1.476437	0.000174
 163	1.6119e+01	6.4233	24.751679	0.000436	4.357724	1.476437	0.000174
 164	1.6218e+01	6.4715	24.901053	0.000375	3.749670	1.270422	0.000150
 165	1.6318e+01	6.5004	25.054464	0.000385	3.851012	1.304758	0.000154
 166	1.6418e+01	6.5517	25.228061	0.000436	4.357724	1.476437	0.000174
 167	1.6517e+01	6.5790	25.421844	0.000486	4.864436	1.648116	0.000195
 168	1.6616e+01	6.6303	25.595441	0.000436	4.357724	1.476437	0.000174
 169	1.6716e+01	6.6640	25.777112	0.000456	4.560409	1.545108	0.000183
 170	1.6816e+01	6.7137	25.958783	0.000456	4.560409	1.545108	0.000183
 171	1.6915e+01	6.7474	26.120268	0.000405	4.053697	1.373430	0.000162
 172	1.7015e+01	6.7987	26.297902	0.000446	4.459066	1.510773	0.000179
 173	1.7114e+01	6.8244	26.455350	0.000395	3.952354	1.339094	0.000158
 174	1.7213e+01	6.8773	26.641059	0.000466	4.661751	1.579444	0.000187
 175	1.7313e+01	6.9110	26.818693	0.000446	4.459066	1.510773	0.000179
 176	1.7413e+01	6.9543	26.972104	0.000385	3.851012	1.304758	0.000154
 177	1.7512e+01	6.9880	27.129552	0.000395	3.952354	1.339094	0.000158
 178	1.7611e+01	7.0217	27.331409	0.000507	5.067121	1.716787	0.000203
 179	1.7711e+01	7.0634	27.496932	0.000416	4.155039	1.407765	0.000166
 180	1.7811e+01	7.1148	27.642268	0.000365	3.648327	1.236087	0.000146
 181	1.7910e+01	7.1453	27.819902	0.000446	4.459066	1.510773	0.000179
 182	1.8009e+01	7.1918	27.977351	0.000395	3.952354	1.339094	0.000158
 183	1.8109e+01	7.2239	28.183245	0.000517	5.168463	1.751123	0.000207
 184	1.8209e+01	7.2736	28.377027	0.000486	4.864436	1.648116	0.000195
 185	1.8308e+01	7.3025	28.490067	0.000284	2.837588	0.961401	0.000114
 186	1.8407e+01	7.3426	28.679812	0.000476	4.763094	1.613780	0.000191
 187	1.8507e+01	7.3843	28.889743	0.000527	5.269806	1.785459	0.000211
 188	1.8607e+01	7.4292	29.022969	0.000334	3.344300	1.133079	0.000134
 189	1.8706e+01	7.4725	29.176380	0.000385	3.851012	1.304758	0.000154
 190	1.8805e+01	7.5094	29.362088	0.000466	4.661751	1.579444	0.000187
 191	1.8905e+01	7.5479	29.499351	0.000345	3.445642	1.167415	0.000138
 192	1.9005e+01	7.5864	29.697170	0.000497	4.965779	1.682451	0.000199
 193	1.9104e+01	7.6297	29.911139	0.000537	5.371148	1.819794	0.000215
 194	1.9203e+01	7.6682	30.036290	0.000314	3.141615	1.064408	0.000126
 195	1.9303e+01	7.7019	30.201812	0.000416	4.155039	1.407765	0.000166
 196	1.9402e+01	7.7436	30.383484	0.000456	4.560409	1.545108	0.000183
 197	1.9502e+01	7.7918	30.524783	0.000355	3.546985	1.201751	0.000142
 198	1.9602e+01	7.8206	30.722603	0.000497	4.965779	1.682451	0.000199
 199	1.9701e+01	7.8575	30.912348	0.000476	4.763094	1.613780	0.000191
 200	1.9800e+01	7.9121	31.073834	0.000405	4.053697	1.373430	0.000162
 201	1.9900e+01	7.9586	31.227245	0.000385	3.851012	1.304758	0.000154
 202	2.0000e+01	7.9811	31.425065	0.000497	4.965779	1.682451	0.000199
 203	2.0099e+01	8.0340	31.602699	0.000446	4.459066	1.510773	0.000179
 204	2.0198e+01	8.0645	31.719775	0.000294	2.938930	0.995736	0.000118
 205	2.0298e+01	8.1030	31.905484	0.000466	4.661751	1.579444	0.000187
 206	2.0398e+01	8.1447	32.099266	0.000486	4.864436	1.648116	0.000195
 207	2.0497e+01	8.1784	32.248640	0.000375	3.749670	1.270422	0.000150
 208	2.0596e+01	8.2201	32.406089	0.000395	3.952354	1.339094	0.000158
 209	2.0696e+01	8.2618	32.583723	0.000446	4.459066	1.510773	0.000179
 210	2.0796e+01	8.3099	32.749245	0.000416	4.155039	1.407765	0.000166
 211	2.0895e+01	8.3452	32.967250	0.000547	5.472491	1.854130	0.000219
 212	2.0994e+01	8.3805	33.112587	0.000365	3.648327	1.236087	0.000146
 213	2.1094e+01	8.4158	33.298296	0.000466	4.661751	1.579444	0.000187
 214	2.1194e+01	8.4671	33.443632	0.000365	3.648327	1.236087	0.000146
 215	2.1293e+01	8.5024	33.609155	0.000416	4.155039	1.407765	0.000166
 216	2.1392e+01	8.5490	33.770640	0.000405	4.053697	1.373430	0.000162
 217	2.1492e+01	8.5778	33.960386	0.000476	4.763094	1.613780	0.000191
 218	2.1591e+01	8.6244	34.125908	0.000416	4.155039	1.407765	0.000166
 219	2.1691e+01	8.6613	34.259134	0.000334	3.344300	1.133079	0.000134
 220	2.1791e+01	8.7046	34.448879	0.000476	4.763094	1.613780	0.000191
 221	2.1890e+01	8.7399	34.606328	0.000395	3.952354	1.339094	0.000158
 222	2.1989e+01	8.7816	34.763776	0.000395	3.952354	1.339094	0.000158
 223	2.2089e+01	8.8153	34.949484	0.000466	4.661751	1.579444	0.000187
 224	2.2189e+01	8.8618	35.110970	0.000405	4.053697	1.373430	0.000162
 225	2.2288e+01	8.9067	35.280529	0.000426	4.256382	1.442101	0.000170
 226	2.2387e+01	8.9372	35.433940	0.000385	3.851012	1.304758	0.000154
 227	2.2487e+01	8.9789	35.579277	0.000365	3.648327	1.236087	0.000146
 228	2.2587e+01	9.0190	35.781134	0.000507	5.067121	1.716787	0.000203
 229	2.2686e+01	9.0639	35.926471	0.000365	3.648327	1.236087	0.000146
 230	2.2785e+01	9.1088	36.051622	0.000314	3.141615	1.064408	0.000126
 231	2.2885e+01	9.1441	36.281739	0.000578	5.776518	1.957137	0.000231
 232	2.2985e+01	9.1746	36.443224	0.000405	4.053697	1.373430	0.000162
 233	2.3084e+01	9.2243	36.564338	0.000304	3.040273	1.030072	0.000122
 234	2.3183e+01	9.2741	36.778307	0.000537	5.371148	1.819794	0.000215
 235	2.3283e+01	9.2901	36.927681	0.000375	3.749670	1.270422	0.000150
 236	2.3383e+01	9.3463	37.089166	0.000405	4.053697	1.373430	0.000162
 237	2.3482e+01	9.3783	37.262763	0.000436	4.357724	1.476437	0.000174
 238	2.3581e+01	9.4265	37.412137	0.000375	3.749670	1.270422	0.000150
 239	2.3681e+01	9.4666	37.569585	0.000395	3.952354	1.339094	0.000158
 240	2.3780e+01	9.4987	37.751256	0.000456	4.560409	1.545108	0.000183
 241	2.3880e+01	9.5420	37.904667	0.000385	3.851012	1.304758	0.000154
 242	2.3980e+01	9.5789	38.074227	0.000426	4.256382	1.442101	0.000170
 243	2.4079e+01	9.6206	38.235713	0.000405	4.053697	1.373430	0.000162
 244	2.4178e+01	9.6575	38.372975	0.000345	3.445642	1.167415	0.000138
 245	2.4278e+01	9.7056	38.550609	0.000446	4.459066	1.510773	0.000179
 246	2.4378e+01	9.7473	38.716132	0.000416	4.155039	1.407765	0.000166
 247	2.4477e+01	9.7810	38.861469	0.000365	3.648327	1.236087	0.000146
 248	2.4576e+01	9.8211	39.018917	0.000395	3.952354	1.339094	0.000158
 249	2.4676e+01	9.8484	39.204625	0.000466	4.661751	1.579444	0.000187
 250	2.4776e+01	9.8965	39.349962	0.000365	3.648327	1.236087	0.000146
 251	2.4875e+01	9.9462	39.535670	0.000466	4.661751	1.579444	0.000187
 252	2.4974e+01	9.9751	39.664859	0.000324	3.242957	1.098744	0.000130
 253	2.5074e+01	10.0120	39.842493	0.000446	4.459066	1.510773	0.000179
 254	2.5174e+01	10.0537	39.983792	0.000355	3.546985	1.201751	0.000142
 255	2.5273e+01	10.1035	40.117018	0.000334	3.344300	1.133079	0.000134
 256	2.5372e+01	10.1404	40.302726	0.000466	4.661751	1.579444	0.000187
 257	2.5472e+01	10.1708	40.448063	0.000365	3.648327	1.236087	0.000146
 258	2.5572e+01	10.2190	40.621660	0.000436	4.357724	1.476437	0.000174
 259	2.5671e+01	10.2575	40.758922	0.000345	3.445642	1.167415	0.000138
 260	2.5770e+01	10.3024	40.932519	0.000436	4.357724	1.476437	0.000174
 261	2.5870e+01	10.3313	41.081893	0.000375	3.749670	1.270422	0.000150
 262	2.5970e+01	10.3794	41.235304	0.000385	3.851012	1.304758	0.000154
 263	2.6069e+01	10.4195	41.376604	0.000355	3.546985	1.201751	0.000142
 264	2.6169e+01	10.4548	41.606721	0.000578	5.776518	1.957137	0.000231
 265	2.6268e+01	10.5029	41.699575	0.000233	2.330876	0.789722	0.000093
 266	2.6367e+01	10.5398	41.873172	0.000436	4.357724	1.476437	0.000174
 267	2.6467e+01	10.5719	42.002360	0.000324	3.242957	1.098744	0.000130
 268	2.6567e+01	10.6136	42.171920	0.000426	4.256382	1.442101	0.000170
 269	2.6666e+01	10.6585	42.377814	0.000517	5.168463	1.751123	0.000207
 270	2.6765e+01	10.6922	42.462594	0.000213	2.128191	0.721051	0.000085
 271	2.6865e+01	10.7323	42.660413	0.000497	4.965779	1.682451	0.000199
 272	2.6965e+01	10.7804	42.789602	0.000324	3.242957	1.098744	0.000130
 273	2.7064e+01	10.8125	42.979347	0.000476	4.763094	1.613780	0.000191
 274	2.7163e+01	10.8494	43.124684	0.000365	3.648327	1.236087	0.000146
 275	2.7263e+01	10.8927	43.257909	0.000334	3.344300	1.133079	0.000134
 276	2.7363e+01	10.9312	43.447655	0.000476	4.763094	1.613780	0.000191
 277	2.7462e+01	10.9713	43.548583	0.000253	2.533560	0.858394	0.000101
 278	2.7561e+01	11.0179	43.730254	0.000456	4.560409	1.545108	0.000183
 279	2.7661e+01	11.0500	43.843294	0.000284	2.837588	0.961401	0.000114
 280	2.7761e+01	11.0981	44.012854	0.000426	4.256382	1.442101	0.000170
 281	2.7860e+01	11.1366	44.214711	0.000507	5.067121	1.716787	0.000203
 282	2.7959e+01	11.1719	44.335825	0.000304	3.040273	1.030072	0.000122
 283	2.8059e+01	11.2152	44.477124	0.000355	3.546985	1.201751	0.000142
 284	2.8159e+01	11.2601	44.634573	0.000395	3.952354	1.339094	0.000158
 285	2.8258e+01	11.2890	44.739538	0.000263	2.634903	0.892729	0.000105
 286	2.8358e+01	11.3291	44.957544	0.000547	5.472491	1.854130	0.000219
 287	2.8457e+01	11.3804	45.058472	0.000253	2.533560	0.858394	0.000101
 288	2.8556e+01	11.4045	45.232069	0.000436	4.357724	1.476437	0.000174
 289	2.8656e+01	11.4510	45.421814	0.000476	4.763094	1.613780	0.000191
 290	2.8756e+01	11.4895	45.518705	0.000243	2.432218	0.824058	0.000097
 291	2.8855e+01	11.5280	45.676154	0.000395	3.952354	1.339094	0.000158
 292	2.8954e+01	11.5713	45.857825	0.000456	4.560409	1.545108	0.000183
 293	2.9054e+01	11.6098	45.995087	0.000345	3.445642	1.167415	0.000138
 294	2.9154e+01	11.6531	46.116202	0.000304	3.040273	1.030072	0.000122
 295	2.9253e+01	11.6965	46.269613	0.000385	3.851012	1.304758	0.000154
 296	2.9352e+01	11.7350	46.475507	0.000517	5.168463	1.751123	0.000207
 297	2.9452e+01	11.7703	46.588546	0.000284	2.837588	0.961401	0.000114
 298	2.9552e+01	11.8136	46.729846	0.000355	3.546985	1.201751	0.000142
 299	2.9651e+01	11.8457	46.895369	0.000416	4.155039	1.407765	0.000166
 300	2.9750e+01	11.8922	47.077040	0.000456	4.560409	1.545108	0.000183
 301	2.9850e+01	11.9387	47.206228	0.000324	3.242957	1.098744	0.000130
 302	2.9950e+01	11.9676	47.351565	0.000365	3.648327	1.236087	0.000146
 303	3.0049e+01	12.0253	47.484791	0.000334	3.344300	1.133079	0.000134
 304	3.0148e+01	12.0590	47.670499	0.000466	4.661751	1.579444	0.000187
 305	3.0248e+01	12.0911	47.775464	0.000263	2.634903	0.892729	0.000105
 306	3.0348e+01	12.1376	47.949061	0.000436	4.357724	1.476437	0.000174
 307	3.0447e+01	12.1633	48.110547	0.000405	4.053697	1.373430	0.000162
 308	3.0547e+01	12.2050	48.263958	0.000385	3.851012	1.304758	0.000154
 309	3.0646e+01	12.2467	48.368923	0.000263	2.634903	0.892729	0.000105
 310	3.0745e+01	12.2772	48.546557	0.000446	4.459066	1.510773	0.000179
 311	3.0845e+01	12.3301	48.647486	0.000253	2.533560	0.858394	0.000101
 312	3.0945e+01	12.3767	48.869528	0.000557	5.573833	1.888466	0.000223
 313	3.1044e+01	12.4152	48.986605	0.000294	2.938930	0.995736	0.000118
 314	3.1143e+01	12.4472	49.140016	0.000385	3.851012	1.304758	0.000154
 315	3.1243e+01	12.4841	49.313613	0.000436	4.357724	1.476437	0.000174
 316	3.1343e+01	12.5323	49.446839	0.000334	3.344300	1.133079	0.000134
 317	3.1442e+01	12.5708	49.592175	0.000365	3.648327	1.236087	0.000146
 318	3.1541e+01	12.6093	49.773847	0.000456	4.560409	1.545108	0.000183
 319	3.1641e+01	12.6510	49.854589	0.000203	2.026848	0.686715	0.000081
 320	3.1741e+01	12.6895	49.983778	0.000324	3.242957	1.098744	0.000130
 321	3.1840e+01	12.7232	50.161412	0.000446	4.459066	1.510773	0.000179
 322	3.1939e+01	12.7729	50.351157	0.000476	4.763094	1.613780	0.000191
 323	3.2039e+01	12.8066	50.427863	0.000193	1.925506	0.652379	0.000077
 324	3.2139e+01	12.8515	50.621645	0.000486	4.864436	1.648116	0.000195
 325	3.2238e+01	12.8868	50.758908	0.000345	3.445642	1.167415	0.000138
 326	3.2337e+01	12.9205	50.871947	0.000284	2.837588	0.961401	0.000114
 327	3.2437e+01	12.9702	51.021321	0.000375	3.749670	1.270422	0.000150
 328	3.2536e+01	12.9991	51.186844	0.000416	4.155039	1.407765	0.000166
 329	3.2636e+01	13.0424	51.344292	0.000395	3.952354	1.339094	0.000158
 330	3.2736e+01	13.0954	51.509815	0.000416	4.155039	1.407765	0.000166
 331	3.2835e+01	13.1274	51.643040	0.000334	3.344300	1.133079	0.000134
 332	3.2934e+01	13.1627	51.768192	0.000314	3.141615	1.064408	0.000126
 333	3.3034e+01	13.2012	51.941788	0.000436	4.357724	1.476437	0.000174
 334	3.3133e+01	13.2462	52.058865	0.000294	2.938930	0.995736	0.000118
 335	3.3233e+01	13.2847	52.240536	0.000456	4.560409	1.545108	0.000183
 336	3.3333e+01	13.3167	52.381836	0.000355	3.546985	1.201751	0.000142
 337	3.3432e+01	13.3584	52.539284	0.000395	3.952354	1.339094	0.000158
 338	3.3532e+01	13.4018	52.664436	0.000314	3.141615	1.064408	0.000126
 339	3.3631e+01	13.4467	52.777476	0.000284	2.837588	0.961401	0.000114
 340	3.3730e+01	13.4804	52.983369	0.000517	5.168463	1.751123	0.000207
 341	3.3830e+01	13.5141	53.116595	0.000334	3.344300	1.133079	0.000134
 342	3.3929e+01	13.5622	53.249820	0.000334	3.344300	1.133079	0.000134
 343	3.4029e+01	13.6071	53.395157	0.000365	3.648327	1.236087	0.000146
 344	3.4129e+01	13.6376	53.560680	0.000416	4.155039	1.407765	0.000166
 345	3.4228e+01	13.6793	53.685831	0.000314	3.141615	1.064408	0.000126
 346	3.4328e+01	13.7162	53.875576	0.000476	4.763094	1.613780	0.000191
 347	3.4427e+01	13.7643	54.000728	0.000314	3.141615	1.064408	0.000126
 348	3.4526e+01	13.8076	54.150102	0.000375	3.749670	1.270422	0.000150
 349	3.4626e+01	13.8397	54.319661	0.000426	4.256382	1.442101	0.000170
 350	3.4725e+01	13.8798	54.444813	0.000314	3.141615	1.064408	0.000126
 351	3.4825e+01	13.9279	54.610335	0.000416	4.155039	1.407765	0.000166
 352	3.4925e+01	13.9552	54.731449	0.000304	3.040273	1.030072	0.000122
 353	3.5024e+01	14.0066	54.909083	0.000446	4.459066	1.510773	0.000179
 354	3.5123e+01	14.0451	55.022123	0.000284	2.837588	0.961401	0.000114
 355	3.5223e+01	14.0771	55.195720	0.000436	4.357724	1.476437	0.000174
 356	3.5322e+01	14.1285	55.312797	0.000294	2.938930	0.995736	0.000118
 357	3.5422e+01	14.1654	55.494468	0.000456	4.560409	1.545108	0.000183
 358	3.5522e+01	14.2007	55.611545	0.000294	2.938930	0.995736	0.000118
 359	3.5621e+01	14.2328	55.797253	0.000466	4.661751	1.579444	0.000187
 360	3.5721e+01	14.2745	55.942590	0.000365	3.648327	1.236087	0.000146
 361	3.5820e+01	14.3290	56.091964	0.000375	3.749670	1.270422	0.000150
 362	3.5919e+01	14.3595	56.221152	0.000324	3.242957	1.098744	0.000130
 363	3.6019e+01	14.3996	56.350341	0.000324	3.242957	1.098744	0.000130
 364	3.6118e+01	14.4381	56.511826	0.000405	4.053697	1.373430	0.000162
 365	3.6218e+01	14.4766	56.653126	0.000355	3.546985	1.201751	0.000142
 366	3.6318e+01	14.5279	56.818648	0.000416	4.155039	1.407765	0.000166
 367	3.6417e+01	14.5632	56.963985	0.000365	3.648327	1.236087	0.000146
 368	3.6517e+01	14.5985	57.105285	0.000355	3.546985	1.201751	0.000142
 369	3.6616e+01	14.6354	57.282919	0.000446	4.459066	1.510773	0.000179
 370	3.6715e+01	14.6835	57.395959	0.000284	2.837588	0.961401	0.000114
 371	3.6815e+01	14.7156	57.553407	0.000395	3.952354	1.339094	0.000158
 372	3.6914e+01	14.7557	57.682595	0.000324	3.242957	1.098744	0.000130
 373	3.7014e+01	14.8007	57.852155	0.000426	4.256382	1.442101	0.000170
 374	3.7114e+01	14.8375	58.005566	0.000385	3.851012	1.304758	0.000154
 375	3.7213e+01	14.8809	58.167052	0.000405	4.053697	1.373430	0.000162
 376	3.7313e+01	14.9258	58.259906	0.000233	2.330876	0.789722	0.000093
 377	3.7412e+01	14.9643	58.417354	0.000395	3.952354	1.339094	0.000158
 378	3.7511e+01	14.9948	58.639397	0.000557	5.573833	1.888466	0.000223
 379	3.7611e+01	15.0413	58.724176	0.000213	2.128191	0.721051	0.000085
 380	3.7711e+01	15.0766	58.825105	0.000253	2.533560	0.858394	0.000101
 381	3.7810e+01	15.1215	59.035036	0.000527	5.269806	1.785459	0.000211
 382	3.7910e+01	15.1584	59.184410	0.000375	3.749670	1.270422	0.000150
 383	3.8009e+01	15.1889	59.313598	0.000324	3.242957	1.098744	0.000130
 384	3.8108e+01	15.2450	59.450861	0.000345	3.445642	1.167415	0.000138
 385	3.8208e+01	15.2723	59.612346	0.000405	4.053697	1.373430	0.000162
 386	3.8307e+01	15.3172	59.781906	0.000426	4.256382	1.442101	0.000170
 387	3.8407e+01	15.3573	59.882834	0.000253	2.533560	0.858394	0.000101
 388	3.8507e+01	15.3958	59.995874	0.000284	2.837588	0.961401	0.000114
 389	3.8606e+01	15.4359	60.157360	0.000405	4.053697	1.373430	0.000162
 390	3.8706e+01	15.4680	60.306734	0.000375	3.749670	1.270422	0.000150
 391	3.8805e+01	15.5226	60.492442	0.000466	4.661751	1.579444	0.000187
 392	3.8904e+01	15.5530	60.597407	0.000263	2.634903	0.892729	0.000105
 393	3.9004e+01	15.5947	60.799264	0.000507	5.067121	1.716787	0.000203
 394	3.9103e+01	15.6332	60.884044	0.000213	2.128191	0.721051	0.000085
 395	3.9203e+01	15.6782	61.037455	0.000385	3.851012	1.304758	0.000154
 396	3.9303e+01	15.7054	61.182792	0.000365	3.648327	1.236087	0.000146
 397	3.9402e+01	15.7600	61.344278	0.000405	4.053697	1.373430	0.000162
 398	3.9502e+01	15.7969	61.453280	0.000274	2.736245	0.927065	0.000110
 399	3.9601e+01	15.8354	61.602654	0.000375	3.749670	1.270422	0.000150
 400	3.9700e+01	15.8755	61.772214	0.000426	4.256382	1.442101	0.000170
 401	3.9800e+01	15.9124	61.905439	0.000334	3.344300	1.133079	0.000134
 402	3.9900e+01	15.9557	62.054813	0.000375	3.749670	1.270422	0.000150
 403	3.9999e+01	15.9990	62.171890	0.000294	2.938930	0.995736	0.000118
 404	4.0099e+01	16.0391	62.325302	0.000385	3.851012	1.304758	0.000154
 405	4.0198e+01	16.0712	62.482750	0.000395	3.952354	1.339094	0.000158
 406	4.0297e+01	16.1161	62.628087	0.000365	3.648327	1.236087	0.000146
 407	4.0397e+01	16.1546	62.769386	0.000355	3.546985	1.201751	0.000142
 408	4.0496e+01	16.1931	62.894538	0.000314	3.141615	1.064408	0.000126
 409	4.0596e+01	16.2300	63.015652	0.000304	3.040273	1.030072	0.000122
 410	4.0696e+01	16.2701	63.165026	0.000375	3.749670	1.270422	0.000150
 411	4.0795e+01	16.3086	63.314400	0.000375	3.749670	1.270422	0.000150
 412	4.0895e+01	16.3535	63.463774	0.000375	3.749670	1.270422	0.000150
 413	4.0994e+01	16.3921	63.633334	0.000426	4.256382	1.442101	0.000170
 414	4.1093e+01	16.4338	63.750410	0.000294	2.938930	0.995736	0.000118
 415	4.1193e+01	16.4755	63.891710	0.000355	3.546985	1.201751	0.000142
 416	4.1292e+01	16.5092	64.012824	0.000304	3.040273	1.030072	0.000122
 417	4.1392e+01	16.5541	64.154124	0.000355	3.546985	1.201751	0.000142
 418	4.1492e+01	16.5926	64.295424	0.000355	3.546985	1.201751	0.000142
 419	4.1591e+01	16.6391	64.436724	0.000355	3.546985	1.201751	0.000142
 420	4.1691e+01	16.6760	64.537652	0.000253	2.533560	0.858394	0.000101
 421	4.1790e+01	16.7113	64.674915	0.000345	3.445642	1.167415	0.000138
 422	4.1889e+01	16.7514	64.860623	0.000466	4.661751	1.579444	0.000187
 423	4.1989e+01	16.7931	64.989811	0.000324	3.242957	1.098744	0.000130
 424	4.2089e+01	16.8348	65.123037	0.000334	3.344300	1.133079	0.000134
 425	4.2188e+01	16.8685	65.296633	0.000436	4.357724	1.476437	0.000174
 426	4.2288e+01	16.9166	65.401599	0.000263	2.634903	0.892729	0.000105
 427	4.2387e+01	16.9487	65.559047	0.000395	3.952354	1.339094	0.000158
 428	4.2486e+01	16.9872	65.676124	0.000294	2.938930	0.995736	0.000118
 429	4.2586e+01	17.0321	65.801275	0.000314	3.141615	1.064408	0.000126
 430	4.2685e+01	17.0690	65.930464	0.000324	3.242957	1.098744	0.000130
 431	4.2785e+01	17.1140	66.112135	0.000456	4.560409	1.545108	0.000183
 432	4.2885e+01	17.1412	66.225175	0.000284	2.837588	0.961401	0.000114
 433	4.2984e+01	17.1894	66.342252	0.000294	2.938930	0.995736	0.000118
 434	4.3084e+01	17.2263	66.519886	0.000446	4.459066	1.510773	0.000179
 435	4.3183e+01	17.2648	66.612740	0.000233	2.330876	0.789722	0.000093
 436	4.3282e+01	17.3145	66.766151	0.000385	3.851012	1.304758	0.000154
 437	4.3382e+01	17.3498	66.915525	0.000375	3.749670	1.270422	0.000150
 438	4.3481e+01	17.3963	67.008379	0.000233	2.330876	0.789722	0.000093
 439	4.3581e+01	17.4412	67.177939	0.000426	4.256382	1.442101	0.000170
 440	4.3681e+01	17.4669	67.323276	0.000365	3.648327	1.236087	0.000146
 441	4.3780e+01	17.5134	67.408055	0.000213	2.128191	0.721051	0.000085
 442	4.3880e+01	17.5455	67.545318	0.000345	3.445642	1.167415	0.000138
 443	4.3979e+01	17.5856	67.706803	0.000405	4.053697	1.373430	0.000162
 444	4.4078e+01	17.6257	67.864252	0.000395	3.952354	1.339094	0.000158
 445	4.4178e+01	17.6674	67.940957	0.000193	1.925506	0.652379	0.000077
 446	4.4278e+01	17.7027	68.114554	0.000436	4.357724	1.476437	0.000174
 447	4.4377e+01	17.7492	68.247780	0.000334	3.344300	1.133079	0.000134
 448	4.4477e+01	17.7877	68.393117	0.000365	3.648327	1.236087	0.000146
 449	4.4576e+01	17.8310	68.518268	0.000314	3.141615	1.064408	0.000126
 450	4.4675e+01	17.8744	68.623233	0.000263	2.634903	0.892729	0.000105
 451	4.4775e+01	17.9129	68.732236	0.000274	2.736245	0.927065	0.000110
 452	4.4874e+01	17.9482	68.857387	0.000314	3.141615	1.064408	0.000126
 453	4.4974e+01	17.9899	69.022910	0.000416	4.155039	1.407765	0.000166
 454	4.5074e+01	18.0236	69.152098	0.000324	3.242957	1.098744	0.000130
 455	4.5173e+01	18.0588	69.281286	0.000324	3.242957	1.098744	0.000130
 456	4.5273e+01	18.1006	69.418549	0.000345	3.445642	1.167415	0.000138
 457	4.5372e+01	18.1487	69.547737	0.000324	3.242957	1.098744	0.000130
 458	4.5471e+01	18.1888	69.680963	0.000334	3.344300	1.133079	0.000134
 459	4.5571e+01	18.2305	69.781891	0.000253	2.533560	0.858394	0.000101
 460	4.5670e+01	18.2658	69.915117	0.000334	3.344300	1.133079	0.000134
 461	4.5770e+01	18.3171	70.068528	0.000385	3.851012	1.304758	0.000154
 462	4.5870e+01	18.3460	70.201753	0.000334	3.344300	1.133079	0.000134
 463	4.5969e+01	18.3797	70.334979	0.000334	3.344300	1.133079	0.000134
 464	4.6069e+01	18.4230	70.472241	0.000345	3.445642	1.167415	0.000138
 465	4.6168e+01	18.4647	70.581244	0.000274	2.736245	0.927065	0.000110
 466	4.6267e+01	18.5048	70.742730	0.000405	4.053697	1.373430	0.000162
 467	4.6367e+01	18.5465	70.888066	0.000365	3.648327	1.236087	0.000146
 468	4.6467e+01	18.5931	70.988995	0.000253	2.533560	0.858394	0.000101
 469	4.6566e+01	18.6284	71.093960	0.000263	2.634903	0.892729	0.000105
 470	4.6666e+01	18.6636	71.259483	0.000416	4.155039	1.407765	0.000166
 471	4.6765e+01	18.7086	71.392708	0.000334	3.344300	1.133079	0.000134
 472	4.6864e+01	18.7390	71.493637	0.000253	2.533560	0.858394	0.000101
 473	4.6964e+01	18.7840	71.614751	0.000304	3.040273	1.030072	0.000122
 474	4.7063e+01	18.8305	71.784311	0.000426	4.256382	1.442101	0.000170
 475	4.7163e+01	18.8578	71.893313	0.000274	2.736245	0.927065	0.000110
 476	4.7263e+01	18.9043	72.026539	0.000334	3.344300	1.133079	0.000134
 477	4.7362e+01	18.9412	72.159764	0.000334	3.344300	1.133079	0.000134
 478	4.7462e+01	18.9861	72.292990	0.000334	3.344300	1.133079	0.000134
 479	4.7561e+01	19.0278	72.389881	0.000243	2.432218	0.824058	0.000097
 480	4.7660e+01	19.0711	72.563478	0.000436	4.357724	1.476437	0.000174
 481	4.7760e+01	19.1064	72.652295	0.000223	2.229533	0.755386	0.000089
 482	4.7859e+01	19.1401	72.789557	0.000345	3.445642	1.167415	0.000138
 483	4.7959e+01	19.1882	72.942969	0.000385	3.851012	1.304758	0.000154
 484	4.8059e+01	19.2235	73.056008	0.000284	2.837588	0.961401	0.000114
 485	4.8158e+01	19.2572	73.160974	0.000263	2.634903	0.892729	0.000105
 486	4.8258e+01	19.2989	73.310348	0.000375	3.749670	1.270422	0.000150
 487	4.8357e+01	19.3470	73.463759	0.000385	3.851012	1.304758	0.000154
 488	4.8456e+01	19.3904	73.572762	0.000274	2.736245	0.927065	0.000110
 489	4.8556e+01	19.4160	73.689839	0.000294	2.938930	0.995736	0.000118
 490	4.8656e+01	19.4561	73.814990	0.000314	3.141615	1.064408	0.000126
 491	4.8755e+01	19.4946	73.968401	0.000385	3.851012	1.304758	0.000154
 492	4.8855e+01	19.5444	74.077404	0.000274	2.736245	0.927065	0.000110
 493	4.8954e+01	19.5748	74.210629	0.000334	3.344300	1.133079	0.000134
 494	4.9053e+01	19.6262	74.343855	0.000334	3.344300	1.133079	0.000134
 495	4.9153e+01	19.6535	74.456894	0.000284	2.837588	0.961401	0.000114
 496	4.9252e+01	19.6984	74.594157	0.000345	3.445642	1.167415	0.000138
 497	4.9352e+01	19.7353	74.719308	0.000314	3.141615	1.064408	0.000126
 498	4.9452e+01	19.7834	74.864645	0.000365	3.648327	1.236087	0.000146
 499	4.9551e+01	19.8155	74.969611	0.000263	2.634903	0.892729	0.000105
 500	4.9651e+01	19.8556	75.110910	0.000355	3.546985	1.201751	0.000142
 501	4.9750e+01	19.8957	75.215876	0.000263	2.634903	0.892729	0.000105
 502	4.9849e+01	19.9422	75.353139	0.000345	3.445642	1.167415	0.000138
 503	4.9949e+01	19.9823	75.486364	0.000334	3.344300	1.133079	0.000134
 504	5.0048e+01	19.9326	75.409658	0.000193	1.925506	0.652379	-0.000077
 505	5.0148e+01	19.8941	75.308730	0.000253	2.533560	0.858394	-0.000101
 506	5.0248e+01	19.8700	75.211839	0.000243	2.432218	0.824058	-0.000097
 507	5.0347e+01	19.8235	75.127059	0.000213	2.128191	0.721051	-0.000085
 508	5.0447e+01	19.7770	74.993833	0.000334	3.344300	1.133079	-0.000134
 509	5.0546e+01	19.7433	74.896942	0.000243	2.432218	0.824058	-0.000097
 510	5.0645e+01	19.6984	74.804088	0.000233	2.330876	0.789722	-0.000093
 511	5.0745e+01	19.6647	74.723345	0.000203	2.026848	0.686715	-0.000081
 512	5.0844e+01	19.6150	74.610306	0.000284	2.837588	0.961401	-0.000114
 513	5.0944e+01	19.5813	74.493229	0.000294	2.938930	0.995736	-0.000118
 514	5.1044e+01	19.5412	74.372115	0.000304	3.040273	1.030072	-0.000122
 515	5.1143e+01	19.4994	74.311558	0.000152	1.520136	0.515036	-0.000061
 516	5.1242e+01	19.4593	74.158146	0.000385	3.851012	1.304758	-0.000154
 517	5.1342e+01	19.4224	74.032995	0.000314	3.141615	1.064408	-0.000126
 518	5.1441e+01	19.3839	74.004735	0.000071	0.709397	0.240350	-0.000028
 519	5.1541e+01	19.3326	73.859398	0.000365	3.648327	1.236087	-0.000146
 520	5.1641e+01	19.3021	73.750396	0.000274	2.736245	0.927065	-0.000110
 521	5.1740e+01	19.2620	73.629282	0.000304	3.040273	1.030072	-0.000122
 522	5.1840e+01	19.2283	73.536427	0.000233	2.330876	0.789722	-0.000093
 523	5.1939e+01	19.1818	73.411276	0.000314	3.141615	1.064408	-0.000126
 524	5.2038e+01	19.1417	73.318422	0.000233	2.330876	0.789722	-0.000093
 525	5.2138e+01	19.1048	73.205382	0.000284	2.837588	0.961401	-0.000114
 526	5.2237e+01	19.0615	73.124640	0.000203	2.026848	0.686715	-0.000081
 527	5.2337e+01	19.0230	72.959117	0.000416	4.155039	1.407765	-0.000166
 528	5.2437e+01	18.9813	72.902597	0.000142	1.418794	0.480700	-0.000057
 529	5.2536e+01	18.9476	72.785520	0.000294	2.938930	0.995736	-0.000118
 530	5.2636e+01	18.9043	72.700740	0.000213	2.128191	0.721051	-0.000085
 531	5.2735e+01	18.8545	72.591738	0.000274	2.736245	0.927065	-0.000110
 532	5.2834e+01	18.8225	72.486772	0.000263	2.634903	0.892729	-0.000105
 533	5.2934e+01	18.7856	72.309138	0.000446	4.459066	1.510773	-0.000179
 534	5.3033e+01	18.7423	72.228395	0.000203	2.026848	0.686715	-0.000081
 535	5.3133e+01	18.7005	72.135541	0.000233	2.330876	0.789722	-0.000093
 536	5.3233e+01	18.6669	72.014427	0.000304	3.040273	1.030072	-0.000122
 537	5.3332e+01	18.6267	71.905425	0.000274	2.736245	0.927065	-0.000110
 538	5.3431e+01	18.5818	71.784311	0.000304	3.040273	1.030072	-0.000122
 539	5.3531e+01	18.5530	71.703568	0.000203	2.026848	0.686715	-0.000081
 540	5.3630e+01	18.5080	71.586491	0.000294	2.938930	0.995736	-0.000118
 541	5.3730e+01	18.4583	71.457303	0.000324	3.242957	1.098744	-0.000130
 542	5.3830e+01	18.4278	71.380597	0.000193	1.925506	0.652379	-0.000077
 543	5.3929e+01	18.3861	71.251409	0.000324	3.242957	1.098744	-0.000130
 544	5.4029e+01	18.3428	71.138369	0.000284	2.837588	0.961401	-0.000114
 545	5.4128e+01	18.3059	71.045515	0.000233	2.330876	0.789722	-0.000093
 546	5.4227e+01	18.2674	70.888066	0.000395	3.952354	1.339094	-0.000158
 547	5.4327e+01	18.2273	70.783101	0.000263	2.634903	0.892729	-0.000105
 548	5.4426e+01	18.1920	70.698321	0.000213	2.128191	0.721051	-0.000085
 549	5.4526e+01	18.1567	70.569133	0.000324	3.242957	1.098744	-0.000130
 550	5.4626e+01	18.1022	70.484353	0.000213	2.128191	0.721051	-0.000085
 551	5.4725e+01	18.0572	70.359202	0.000314	3.141615	1.064408	-0.000126
 552	5.4825e+01	18.0284	70.258273	0.000253	2.533560	0.858394	-0.000101
 553	5.4924e+01	17.9899	70.129085	0.000324	3.242957	1.098744	-0.000130
 554	5.5023e+01	17.9433	69.987785	0.000355	3.546985	1.201751	-0.000142
 555	5.5123e+01	17.9097	69.878782	0.000274	2.736245	0.927065	-0.000110
 556	5.5222e+01	17.8695	69.741520	0.000345	3.445642	1.167415	-0.000138
 557	5.5322e+01	17.8214	69.664814	0.000193	1.925506	0.652379	-0.000077
 558	5.5422e+01	17.7829	69.555812	0.000274	2.736245	0.927065	-0.000110
 559	5.5521e+01	17.7460	69.418549	0.000345	3.445642	1.167415	-0.000138
 560	5.5620e+01	17.7123	69.289361	0.000324	3.242957	1.098744	-0.000130
 561	5.5720e+01	17.6706	69.180358	0.000274	2.736245	0.927065	-0.000110
 562	5.5819e+01	17.6289	69.079430	0.000253	2.533560	0.858394	-0.000101
 563	5.5919e+01	17.5920	68.921981	0.000395	3.952354	1.339094	-0.000158
 564	5.6019e+01	17.5519	68.833164	0.000223	2.229533	0.755386	-0.000089
 565	5.6118e+01	17.5118	68.740310	0.000233	2.330876	0.789722	-0.000093
 566	5.6218e+01	17.4749	68.635345	0.000263	2.634903	0.892729	-0.000105
 567	5.6317e+01	17.4252	68.518268	0.000294	2.938930	0.995736	-0.000118
 568	5.6416e+01	17.3835	68.381005	0.000345	3.445642	1.167415	-0.000138
 569	5.6516e+01	17.3450	68.263928	0.000294	2.938930	0.995736	-0.000118
 570	5.6615e+01	17.3161	68.167037	0.000243	2.432218	0.824058	-0.000097
 571	5.6715e+01	17.2728	68.029774	0.000345	3.445642	1.167415	-0.000138
 572	5.6815e+01	17.2295	67.900586	0.000324	3.242957	1.098744	-0.000130
 573	5.6914e+01	17.1813	67.795620	0.000263	2.634903	0.892729	-0.000105
 574	5.7014e+01	17.1476	67.686618	0.000274	2.736245	0.927065	-0.000110
 575	5.7113e+01	17.1091	67.573578	0.000284	2.837588	0.961401	-0.000114
 576	5.7212e+01	17.0738	67.472650	0.000253	2.533560	0.858394	-0.000101
 577	5.7312e+01	17.0337	67.323276	0.000375	3.749670	1.270422	-0.000150
 578	5.7411e+01	16.9824	67.173902	0.000375	3.749670	1.270422	-0.000150
 579	5.7511e+01	16.9487	67.101233	0.000182	1.824164	0.618043	-0.000073
 580	5.7611e+01	16.9070	66.972045	0.000324	3.242957	1.098744	-0.000130
 581	5.7710e+01	16.8829	66.838819	0.000334	3.344300	1.133079	-0.000134
 582	5.7809e+01	16.8268	66.717705	0.000304	3.040273	1.030072	-0.000122
 583	5.7909e+01	16.7883	66.608703	0.000274	2.736245	0.927065	-0.000110
 584	5.8008e+01	16.7514	66.471440	0.000345	3.445642	1.167415	-0.000138
 585	5.8108e+01	16.7145	66.358400	0.000284	2.837588	0.961401	-0.000114
 586	5.8208e+01	16.6680	66.237286	0.000304	3.040273	1.030072	-0.000122
 587	5.8307e+01	16.6375	66.140395	0.000243	2.432218	0.824058	-0.000097
 588	5.8407e+01	16.6006	65.999095	0.000355	3.546985	1.201751	-0.000142
 589	5.8506e+01	16.5493	65.894130	0.000263	2.634903	0.892729	-0.000105
 590	5.8605e+01	16.5156	65.736681	0.000395	3.952354	1.339094	-0.000158
 591	5.8705e+01	16.4803	65.611530	0.000314	3.141615	1.064408	-0.000126
 592	5.8804e+01	16.4354	65.486379	0.000314	3.141615	1.064408	-0.000126
 593	5.8904e+01	16.3921	65.377376	0.000274	2.736245	0.927065	-0.000110
 594	5.9004e+01	16.3503	65.256262	0.000304	3.040273	1.030072	-0.000122
 595	5.9103e+01	16.3150	65.131111	0.000314	3.141615	1.064408	-0.000126
 596	5.9203e+01	16.2701	65.014034	0.000294	2.938930	0.995736	-0.000118
 597	5.9302e+01	16.2316	64.868697	0.000365	3.648327	1.236087	-0.000146
 598	5.9401e+01	16.1947	64.759694	0.000274	2.736245	0.927065	-0.000110
 599	5.9501e+01	16.1659	64.650692	0.000274	2.736245	0.927065	-0.000110
 600	5.9600e+01	16.1209	64.501318	0.000375	3.749670	1.270422	-0.000150
 601	5.9700e+01	16.0728	64.400389	0.000253	2.533560	0.858394	-0.000101
 602	5.9800e+01	16.0343	64.275238	0.000314	3.141615	1.064408	-0.000126
 603	5.9899e+01	15.9974	64.137975	0.000345	3.445642	1.167415	-0.000138
 604	5.9998e+01	15.9477	63.996676	0.000355	3.546985	1.201751	-0.000142
 605	6.0098e+01	15.9092	63.891710	0.000263	2.634903	0.892729	-0.000105
 606	6.0197e+01	15.8723	63.738299	0.000385	3.851012	1.304758	-0.000154
 607	6.0297e+01	15.8322	63.637371	0.000253	2.533560	0.858394	-0.000101
 608	6.0397e+01	15.7953	63.524331	0.000284	2.837588	0.961401	-0.000114
 609	6.0496e+01	15.7584	63.391105	0.000334	3.344300	1.133079	-0.000134
 610	6.0596e+01	15.7183	63.269991	0.000304	3.040273	1.030072	-0.000122
 611	6.0695e+01	15.6798	63.144840	0.000314	3.141615	1.064408	-0.000126
 612	6.0794e+01	15.6365	62.975280	0.000426	4.256382	1.442101	-0.000170
 613	6.0894e+01	15.5980	62.874352	0.000253	2.533560	0.858394	-0.000101
 614	6.0993e+01	15.5611	62.745164	0.000324	3.242957	1.098744	-0.000130
 615	6.1093e+01	15.5113	62.599827	0.000365	3.648327	1.236087	-0.000146
 616	6.1193e+01	15.4792	62.458527	0.000355	3.546985	1.201751	-0.000142
 617	6.1292e+01	15.4359	62.373747	0.000213	2.128191	0.721051	-0.000085
 618	6.1392e+01	15.4022	62.212262	0.000405	4.053697	1.373430	-0.000162
 619	6.1491e+01	15.3525	62.087111	0.000314	3.141615	1.064408	-0.000126
 620	6.1590e+01	15.3252	61.961959	0.000314	3.141615	1.064408	-0.000126
 621	6.1690e+01	15.2739	61.808548	0.000385	3.851012	1.304758	-0.000154
 622	6.1789e+01	15.2418	61.655137	0.000385	3.851012	1.304758	-0.000154
 623	6.1889e+01	15.1889	61.562283	0.000233	2.330876	0.789722	-0.000093
 624	6.1989e+01	15.1648	61.441169	0.000304	3.040273	1.030072	-0.000122
 625	6.2088e+01	15.1055	61.287758	0.000385	3.851012	1.304758	-0.000154
 626	6.2188e+01	15.0750	61.170681	0.000294	2.938930	0.995736	-0.000118
 627	6.2287e+01	15.0509	61.045529	0.000314	3.141615	1.064408	-0.000126
 628	6.2386e+01	15.0092	60.888081	0.000395	3.952354	1.339094	-0.000158
 629	6.2486e+01	14.9595	60.766967	0.000304	3.040273	1.030072	-0.000122
 630	6.2586e+01	14.9258	60.637779	0.000324	3.242957	1.098744	-0.000130
 631	6.2685e+01	14.8712	60.504553	0.000334	3.344300	1.133079	-0.000134
 632	6.2785e+01	14.8327	60.391514	0.000284	2.837588	0.961401	-0.000114
 633	6.2884e+01	14.8055	60.225991	0.000416	4.155039	1.407765	-0.000166
 634	6.2983e+01	14.7638	60.149285	0.000193	1.925506	0.652379	-0.000077
 635	6.3083e+01	14.7188	59.971651	0.000446	4.459066	1.510773	-0.000179
 636	6.3182e+01	14.6803	59.846500	0.000314	3.141615	1.064408	-0.000126
 637	6.3282e+01	14.6338	59.701163	0.000365	3.648327	1.236087	-0.000146
 638	6.3382e+01	14.6081	59.612346	0.000223	2.229533	0.755386	-0.000089
 639	6.3481e+01	14.5568	59.454898	0.000395	3.952354	1.339094	-0.000158
 640	6.3581e+01	14.5167	59.349932	0.000263	2.634903	0.892729	-0.000105
 641	6.3680e+01	14.4766	59.224781	0.000314	3.141615	1.064408	-0.000126
 642	6.3779e+01	14.4429	59.075407	0.000375	3.749670	1.270422	-0.000150
 643	6.3879e+01	14.3980	58.978516	0.000243	2.432218	0.824058	-0.000097
 644	6.3978e+01	14.3579	58.825105	0.000385	3.851012	1.304758	-0.000154
 645	6.4078e+01	14.3258	58.699954	0.000314	3.141615	1.064408	-0.000126
 646	6.4177e+01	14.2745	58.526357	0.000436	4.357724	1.476437	-0.000174
 647	6.4277e+01	14.2311	58.425428	0.000253	2.533560	0.858394	-0.000101
 648	6.4376e+01	14.2023	58.272017	0.000385	3.851012	1.304758	-0.000154
 649	6.4476e+01	14.1606	58.146866	0.000314	3.141615	1.064408	-0.000126
 650	6.4576e+01	14.1237	58.037863	0.000274	2.736245	0.927065	-0.000110
 651	6.4675e+01	14.0852	57.896564	0.000355	3.546985	1.201751	-0.000142
 652	6.4775e+01	14.0483	57.751227	0.000365	3.648327	1.236087	-0.000146
 653	6.4874e+01	14.0114	57.626076	0.000314	3.141615	1.064408	-0.000126
 654	6.4974e+01	13.9600	57.480739	0.000365	3.648327	1.236087	-0.000146
 655	6.5073e+01	13.9247	57.347513	0.000334	3.344300	1.133079	-0.000134
 656	6.5172e+01	13.8846	57.206213	0.000355	3.546985	1.201751	-0.000142
 657	6.5272e+01	13.8301	57.048765	0.000395	3.952354	1.339094	-0.000158
 658	6.5371e+01	13.8028	56.923614	0.000314	3.141615	1.064408	-0.000126
 659	6.5471e+01	13.7531	56.786351	0.000345	3.445642	1.167415	-0.000138
 660	6.5570e+01	13.7194	56.665237	0.000304	3.040273	1.030072	-0.000122
 661	6.5670e+01	13.6857	56.527975	0.000345	3.445642	1.167415	-0.000138
 662	6.5769e+01	13.6408	56.390712	0.000345	3.445642	1.167415	-0.000138
 663	6.5869e+01	13.6023	56.277672	0.000284	2.837588	0.961401	-0.000114
 664	6.5969e+01	13.5622	56.112150	0.000416	4.155039	1.407765	-0.000166
 665	6.6068e+01	13.5157	55.995073	0.000294	2.938930	0.995736	-0.000118
 666	6.6168e+01	13.4820	55.861847	0.000334	3.344300	1.133079	-0.000134
 667	6.6267e+01	13.4371	55.704399	0.000395	3.952354	1.339094	-0.000158
 668	6.6367e+01	13.4034	55.575211	0.000324	3.242957	1.098744	-0.000130
 669	6.6466e+01	13.3665	55.454096	0.000304	3.040273	1.030072	-0.000122
 670	6.6566e+01	13.3248	55.312797	0.000355	3.546985	1.201751	-0.000142
 671	6.6665e+01	13.2863	55.155348	0.000395	3.952354	1.339094	-0.000158
 672	6.6764e+01	13.2445	55.005974	0.000375	3.749670	1.270422	-0.000150
 673	6.6864e+01	13.2076	54.921195	0.000213	2.128191	0.721051	-0.000085
 674	6.6963e+01	13.1643	54.775858	0.000365	3.648327	1.236087	-0.000146
 675	6.7063e+01	13.1242	54.654744	0.000304	3.040273	1.030072	-0.000122
 676	6.7162e+01	13.0777	54.481147	0.000436	4.357724	1.476437	-0.000174
 677	6.7262e+01	13.0552	54.404441	0.000193	1.925506	0.652379	-0.000077
 678	6.7362e+01	13.0071	54.246993	0.000395	3.952354	1.339094	-0.000158
 679	6.7461e+01	12.9686	54.093582	0.000385	3.851012	1.304758	-0.000154
 680	6.7561e+01	12.9301	53.984579	0.000274	2.736245	0.927065	-0.000110
 681	6.7660e+01	12.8916	53.875576	0.000274	2.736245	0.927065	-0.000110
 682	6.7760e+01	12.8371	53.718128	0.000395	3.952354	1.339094	-0.000158
 683	6.7859e+01	12.8002	53.580866	0.000345	3.445642	1.167415	-0.000138
 684	6.7959e+01	12.7729	53.488011	0.000233	2.330876	0.789722	-0.000093
 685	6.8058e+01	12.7296	53.306340	0.000456	4.560409	1.545108	-0.000183
 686	6.8157e+01	12.6927	53.197338	0.000274	2.736245	0.927065	-0.000110
 687	6.8257e+01	12.6478	53.064112	0.000334	3.344300	1.133079	-0.000134
 688	6.8356e+01	12.5980	52.926850	0.000345	3.445642	1.167415	-0.000138
 689	6.8456e+01	12.5676	52.809773	0.000294	2.938930	0.995736	-0.000118
 690	6.8555e+01	12.5307	52.672510	0.000345	3.445642	1.167415	-0.000138
 691	6.8655e+01	12.4890	52.486802	0.000466	4.661751	1.579444	-0.000187
 692	6.8754e+01	12.4505	52.369725	0.000294	2.938930	0.995736	-0.000118
 693	6.8854e+01	12.4071	52.208239	0.000405	4.053697	1.373430	-0.000162
 694	6.8954e+01	12.3686	52.103274	0.000263	2.634903	0.892729	-0.000105
 695	6.9053e+01	12.3301	52.010420	0.000233	2.330876	0.789722	-0.000093
 696	6.9153e+01	12.2900	51.848934	0.000405	4.053697	1.373430	-0.000162
 697	6.9252e+01	12.2531	51.703597	0.000365	3.648327	1.236087	-0.000146
 698	6.9352e+01	12.2114	51.578446	0.000314	3.141615	1.064408	-0.000126
 699	6.9451e+01	12.1633	51.437146	0.000355	3.546985	1.201751	-0.000142
 700	6.9550e+01	12.1296	51.275661	0.000405	4.053697	1.373430	-0.000162
 701	6.9650e+01	12.0911	51.182807	0.000233	2.330876	0.789722	-0.000093
 702	6.9749e+01	12.0446	51.017284	0.000416	4.155039	1.407765	-0.000166
 703	6.9849e+01	12.0125	50.936542	0.000203	2.026848	0.686715	-0.000081
 704	6.9948e+01	11.9724	50.795242	0.000355	3.546985	1.201751	-0.000142
 705	7.0048e+01	11.9323	50.613571	0.000456	4.560409	1.545108	-0.000183
 706	7.0147e+01	11.8922	50.528791	0.000213	2.128191	0.721051	-0.000085
 707	7.0247e+01	11.8505	50.351157	0.000446	4.459066	1.510773	-0.000179
 708	7.0347e+01	11.8120	50.213894	0.000345	3.445642	1.167415	-0.000138
 709	7.0446e+01	11.7799	50.072595	0.000355	3.546985	1.201751	-0.000142
 710	7.0546e+01	11.7398	49.878812	0.000486	4.864436	1.648116	-0.000195
 711	7.0645e+01	11.6916	49.830366	0.000122	1.216109	0.412029	-0.000049
 712	7.0745e+01	11.6483	49.676955	0.000385	3.851012	1.304758	-0.000154
 713	7.0844e+01	11.6114	49.559878	0.000294	2.938930	0.995736	-0.000118
 714	7.0944e+01	11.5761	49.366096	0.000486	4.864436	1.648116	-0.000195
 715	7.1043e+01	11.5376	49.253056	0.000284	2.837588	0.961401	-0.000114
 716	7.1142e+01	11.4927	49.123868	0.000324	3.242957	1.098744	-0.000130
 717	7.1242e+01	11.4590	49.002754	0.000304	3.040273	1.030072	-0.000122
 718	7.1341e+01	11.4157	48.833194	0.000426	4.256382	1.442101	-0.000170
 719	7.1441e+01	11.3788	48.728228	0.000263	2.634903	0.892729	-0.000105
 720	7.1540e+01	11.3387	48.570780	0.000395	3.952354	1.339094	-0.000158
 721	7.1640e+01	11.3018	48.417369	0.000385	3.851012	1.304758	-0.000154
 722	7.1740e+01	11.2553	48.280106	0.000345	3.445642	1.167415	-0.000138
 723	7.1839e+01	11.2104	48.110547	0.000426	4.256382	1.442101	-0.000170
 724	7.1939e+01	11.1751	48.021730	0.000223	2.229533	0.755386	-0.000089
 725	7.2038e+01	11.1350	47.880430	0.000355	3.546985	1.201751	-0.000142
 726	7.2138e+01	11.0933	47.739130	0.000355	3.546985	1.201751	-0.000142
 727	7.2237e+01	11.0516	47.581682	0.000395	3.952354	1.339094	-0.000158
 728	7.2337e+01	11.0115	47.460568	0.000304	3.040273	1.030072	-0.000122
 729	7.2436e+01	10.9794	47.331379	0.000324	3.242957	1.098744	-0.000130
 730	7.2535e+01	10.9361	47.169894	0.000405	4.053697	1.373430	-0.000162
 731	7.2635e+01	10.8895	47.004371	0.000416	4.155039	1.407765	-0.000166
 732	7.2734e+01	10.8510	46.871146	0.000334	3.344300	1.133079	-0.000134
 733	7.2834e+01	10.8093	46.741958	0.000324	3.242957	1.098744	-0.000130
 734	7.2933e+01	10.7788	46.608732	0.000334	3.344300	1.133079	-0.000134
 735	7.3033e+01	10.7419	46.487618	0.000304	3.040273	1.030072	-0.000122
 736	7.3132e+01	10.7002	46.346318	0.000355	3.546985	1.201751	-0.000142
 737	7.3232e+01	10.6457	46.192907	0.000385	3.851012	1.304758	-0.000154
 738	7.3332e+01	10.6072	46.043533	0.000375	3.749670	1.270422	-0.000150
 739	7.3431e+01	10.5767	45.894159	0.000375	3.749670	1.270422	-0.000150
 740	7.3531e+01	10.5382	45.760934	0.000334	3.344300	1.133079	-0.000134
 741	7.3630e+01	10.4933	45.603485	0.000395	3.952354	1.339094	-0.000158
 742	7.3730e+01	10.4500	45.482371	0.000304	3.040273	1.030072	-0.000122
 743	7.3829e+01	10.4115	45.324923	0.000395	3.952354	1.339094	-0.000158
 744	7.3928e+01	10.3794	45.183623	0.000355	3.546985	1.201751	-0.000142
 745	7.4028e+01	10.3329	45.054435	0.000324	3.242957	1.098744	-0.000130
 746	7.4127e+01	10.2928	44.892949	0.000405	4.053697	1.373430	-0.000162
 747	7.4227e+01	10.2591	44.755687	0.000345	3.445642	1.167415	-0.000138
 748	7.4326e+01	10.2142	44.598238	0.000395	3.952354	1.339094	-0.000158
 749	7.4426e+01	10.1773	44.473087	0.000314	3.141615	1.064408	-0.000126
 750	7.4525e+01	10.1388	44.299490	0.000436	4.357724	1.476437	-0.000174
 751	7.4625e+01	10.0986	44.174339	0.000314	3.141615	1.064408	-0.000126
 752	7.4725e+01	10.0553	44.012854	0.000405	4.053697	1.373430	-0.000162
 753	7.4824e+01	10.0088	43.895777	0.000294	2.938930	0.995736	-0.000118
 754	7.4924e+01	9.9751	43.726217	0.000426	4.256382	1.442101	-0.000170
 755	7.5023e+01	9.9382	43.584917	0.000355	3.546985	1.201751	-0.000142
 756	7.5123e+01	9.9013	43.435543	0.000375	3.749670	1.270422	-0.000150
 757	7.5222e+01	9.8516	43.274058	0.000405	4.053697	1.373430	-0.000162
 758	7.5322e+01	9.8211	43.156981	0.000294	2.938930	0.995736	-0.000118
 759	7.5421e+01	9.7778	42.971273	0.000466	4.661751	1.579444	-0.000187
 760	7.5520e+01	9.7361	42.838047	0.000334	3.344300	1.133079	-0.000134
 761	7.5620e+01	9.7008	42.712896	0.000314	3.141615	1.064408	-0.000126
 762	7.5719e+01	9.6575	42.535262	0.000446	4.459066	1.510773	-0.000179
 763	7.5819e+01	9.6222	42.402037	0.000334	3.344300	1.133079	-0.000134
 764	7.5918e+01	9.5789	42.252663	0.000375	3.749670	1.270422	-0.000150
 765	7.6018e+01	9.5372	42.095214	0.000395	3.952354	1.339094	-0.000158
 766	7.6118e+01	9.5003	41.933729	0.000405	4.053697	1.373430	-0.000162
 767	7.6217e+01	9.4714	41.768206	0.000416	4.155039	1.407765	-0.000166
 768	7.6317e+01	9.4185	41.643055	0.000314	3.141615	1.064408	-0.000126
 769	7.6416e+01	9.3816	41.517904	0.000314	3.141615	1.064408	-0.000126
 770	7.6516e+01	9.3350	41.344307	0.000436	4.357724	1.476437	-0.000174
 771	7.6615e+01	9.2997	41.186859	0.000395	3.952354	1.339094	-0.000158
 772	7.6715e+01	9.2596	41.025373	0.000405	4.053697	1.373430	-0.000162
 773	7.6814e+01	9.2227	40.912334	0.000284	2.837588	0.961401	-0.000114
 774	7.6913e+01	9.1826	40.758922	0.000385	3.851012	1.304758	-0.000154
 775	7.7013e+01	9.1409	40.593400	0.000416	4.155039	1.407765	-0.000166
 776	7.7112e+01	9.1040	40.456137	0.000345	3.445642	1.167415	-0.000138
 777	7.7212e+01	9.0607	40.274466	0.000456	4.560409	1.545108	-0.000183
 778	7.7311e+01	9.0206	40.137204	0.000345	3.445642	1.167415	-0.000138
 779	7.7411e+01	8.9837	39.995904	0.000355	3.546985	1.201751	-0.000142
 780	7.7510e+01	8.9468	39.834418	0.000405	4.053697	1.373430	-0.000162
 781	7.7610e+01	8.9019	39.652747	0.000456	4.560409	1.545108	-0.000183
 782	7.7710e+01	8.8634	39.527596	0.000314	3.141615	1.064408	-0.000126
 783	7.7809e+01	8.8233	39.374185	0.000385	3.851012	1.304758	-0.000154
 784	7.7909e+01	8.7880	39.188477	0.000466	4.661751	1.579444	-0.000187
 785	7.8008e+01	8.7431	39.014880	0.000436	4.357724	1.476437	-0.000174
 786	7.8108e+01	8.7126	38.881654	0.000334	3.344300	1.133079	-0.000134
 787	7.8207e+01	8.6645	38.740355	0.000355	3.546985	1.201751	-0.000142
 788	7.8306e+01	8.6228	38.558683	0.000456	4.560409	1.545108	-0.000183
 789	7.8406e+01	8.5810	38.389124	0.000426	4.256382	1.442101	-0.000170
 790	7.8505e+01	8.5457	38.276084	0.000284	2.837588	0.961401	-0.000114
 791	7.8605e+01	8.5072	38.090376	0.000466	4.661751	1.579444	-0.000187
 792	7.8704e+01	8.4671	37.961187	0.000324	3.242957	1.098744	-0.000130
 793	7.8804e+01	8.4222	37.751256	0.000527	5.269806	1.785459	-0.000211
 794	7.8903e+01	8.3869	37.670514	0.000203	2.026848	0.686715	-0.000081
 795	7.9003e+01	8.3452	37.460583	0.000527	5.269806	1.785459	-0.000211
 796	7.9103e+01	8.2971	37.335431	0.000314	3.141615	1.064408	-0.000126
 797	7.9202e+01	8.2682	37.141649	0.000486	4.864436	1.648116	-0.000195
 798	7.9302e+01	8.2265	36.980163	0.000405	4.053697	1.373430	-0.000162
 799	7.9401e+01	8.1800	36.814641	0.000416	4.155039	1.407765	-0.000166
 800	7.9501e+01	8.1431	36.677378	0.000345	3.445642	1.167415	-0.000138
 801	7.9600e+01	8.1030	36.544153	0.000334	3.344300	1.133079	-0.000134
 802	7.9700e+01	8.0597	36.382667	0.000405	4.053697	1.373430	-0.000162
 803	7.9799e+01	8.0324	36.221182	0.000405	4.053697	1.373430	-0.000162
 804	7.9898e+01	7.9875	36.063734	0.000395	3.952354	1.339094	-0.000158
 805	7.9998e+01	7.9490	35.910322	0.000385	3.851012	1.304758	-0.000154
 806	8.0097e+01	7.9057	35.769023	0.000355	3.546985	1.201751	-0.000142
 807	8.0197e+01	7.8768	35.591389	0.000446	4.459066	1.510773	-0.000179
 808	8.0296e+01	7.8126	35.417792	0.000436	4.357724	1.476437	-0.000174
 809	8.0396e+01	7.7773	35.304752	0.000284	2.837588	0.961401	-0.000114
 810	8.0496e+01	7.7388	35.147304	0.000395	3.952354	1.339094	-0.000158
 811	8.0595e+01	7.7067	34.953521	0.000486	4.864436	1.648116	-0.000195
 812	8.0695e+01	7.6714	34.812221	0.000355	3.546985	1.201751	-0.000142
 813	8.0794e+01	7.6249	34.622476	0.000476	4.763094	1.613780	-0.000191
 814	8.0894e+01	7.5848	34.497325	0.000314	3.141615	1.064408	-0.000126
 815	8.0993e+01	7.5511	34.339877	0.000395	3.952354	1.339094	-0.000158
 816	8.1093e+01	7.5110	34.146094	0.000486	4.864436	1.648116	-0.000195
 817	8.1192e+01	7.4661	34.020943	0.000314	3.141615	1.064408	-0.000126
 818	8.1291e+01	7.4196	33.843309	0.000446	4.459066	1.510773	-0.000179
 819	8.1391e+01	7.3843	33.665675	0.000446	4.459066	1.510773	-0.000179
 820	8.1490e+01	7.3458	33.528412	0.000345	3.445642	1.167415	-0.000138
 821	8.1590e+01	7.3057	33.370964	0.000395	3.952354	1.339094	-0.000158
 822	8.1689e+01	7.2736	33.169107	0.000507	5.067121	1.716787	-0.000203
 823	8.1789e+01	7.2351	33.052030	0.000294	2.938930	0.995736	-0.000118
 824	8.1888e+01	7.1773	32.894582	0.000395	3.952354	1.339094	-0.000158
 825	8.1988e+01	7.1517	32.700799	0.000486	4.864436	1.648116	-0.000195
 826	8.2088e+01	7.1100	32.571611	0.000324	3.242957	1.098744	-0.000130
 827	8.2187e+01	7.0682	32.365717	0.000517	5.168463	1.751123	-0.000207
 828	8.2287e+01	7.0314	32.244603	0.000304	3.040273	1.030072	-0.000122
 829	8.2386e+01	6.9945	32.058895	0.000466	4.661751	1.579444	-0.000187
 830	8.2486e+01	6.9495	31.893372	0.000416	4.155039	1.407765	-0.000166
 831	8.2585e+01	6.9078	31.723813	0.000426	4.256382	1.442101	-0.000170
 832	8.2684e+01	6.8725	31.542142	0.000456	4.560409	1.545108	-0.000183
 833	8.2784e+01	6.8276	31.396805	0.000365	3.648327	1.236087	-0.000146
 834	8.2883e+01	6.7939	31.279728	0.000294	2.938930	0.995736	-0.000118
 835	8.2983e+01	6.7442	31.081908	0.000497	4.965779	1.682451	-0.000199
 836	8.3082e+01	6.7121	30.912348	0.000426	4.256382	1.442101	-0.000170
 837	8.3182e+01	6.6704	30.783160	0.000324	3.242957	1.098744	-0.000130
 838	8.3281e+01	6.6271	30.593415	0.000476	4.763094	1.613780	-0.000191
 839	8.3381e+01	6.5934	30.488449	0.000263	2.634903	0.892729	-0.000105
 840	8.3481e+01	6.5533	30.318889	0.000426	4.256382	1.442101	-0.000170
 841	8.3580e+01	6.5036	30.121070	0.000497	4.965779	1.682451	-0.000199
 842	8.3680e+01	6.4635	29.975733	0.000365	3.648327	1.236087	-0.000146
 843	8.3779e+01	6.4378	29.846545	0.000324	3.242957	1.098744	-0.000130
 844	8.3879e+01	6.3961	29.652762	0.000486	4.864436	1.648116	-0.000195
 845	8.3978e+01	6.3576	29.523574	0.000324	3.242957	1.098744	-0.000130
 846	8.4078e+01	6.3191	29.341903	0.000456	4.560409	1.545108	-0.000183
 847	8.4177e+01	6.2758	29.180417	0.000405	4.053697	1.373430	-0.000162
 848	8.4276e+01	6.2292	28.990672	0.000476	4.763094	1.613780	-0.000191
 849	8.4376e+01	6.1907	28.857446	0.000334	3.344300	1.133079	-0.000134
 850	8.4475e+01	6.1474	28.671738	0.000466	4.661751	1.579444	-0.000187
 851	8.4575e+01	6.1185	28.554661	0.000294	2.938930	0.995736	-0.000118
 852	8.4674e+01	6.0736	28.401250	0.000385	3.851012	1.304758	-0.000154
 853	8.4774e+01	6.0319	28.175170	0.000568	5.675175	1.922802	-0.000227
 854	8.4874e+01	5.9934	28.045982	0.000324	3.242957	1.098744	-0.000130
 855	8.4973e+01	5.9549	27.872385	0.000436	4.357724	1.476437	-0.000174
 856	8.5073e+01	5.9196	27.723011	0.000375	3.749670	1.270422	-0.000150
 857	8.5172e+01	5.8779	27.557489	0.000416	4.155039	1.407765	-0.000166
 858	8.5272e+01	5.8474	27.396003	0.000405	4.053697	1.373430	-0.000162
 859	8.5371e+01	5.7929	27.226443	0.000426	4.256382	1.442101	-0.000170
 860	8.5471e+01	5.7592	27.089181	0.000345	3.445642	1.167415	-0.000138
 861	8.5570e+01	5.7111	26.895398	0.000486	4.864436	1.648116	-0.000195
 862	8.5669e+01	5.6790	26.733913	0.000405	4.053697	1.373430	-0.000162
 863	8.5769e+01	5.6389	26.600687	0.000334	3.344300	1.133079	-0.000134
 864	8.5868e+01	5.5972	26.423053	0.000446	4.459066	1.510773	-0.000179
 865	8.5968e+01	5.5587	26.261568	0.000405	4.053697	1.373430	-0.000162
 866	8.6067e+01	5.5105	26.055674	0.000517	5.168463	1.751123	-0.000207
 867	8.6167e+01	5.4801	25.902263	0.000385	3.851012	1.304758	-0.000154
 868	8.6266e+01	5.4303	25.781149	0.000304	3.040273	1.030072	-0.000122
 869	8.6366e+01	5.3934	25.591403	0.000476	4.763094	1.613780	-0.000191
 870	8.6466e+01	5.3533	25.454141	0.000345	3.445642	1.167415	-0.000138
 871	8.6565e+01	5.3212	25.308804	0.000365	3.648327	1.236087	-0.000146
 872	8.6665e+01	5.2811	25.143281	0.000416	4.155039	1.407765	-0.000166
 873	8.6764e+01	5.2282	24.937387	0.000517	5.168463	1.751123	-0.000207
 874	8.6864e+01	5.1993	24.779939	0.000395	3.952354	1.339094	-0.000158
 875	8.6963e+01	5.1544	24.602305	0.000446	4.459066	1.510773	-0.000179
 876	8.7063e+01	5.1111	24.461005	0.000355	3.546985	1.201751	-0.000142
 877	8.7162e+01	5.0726	24.319706	0.000355	3.546985	1.201751	-0.000142
 878	8.7261e+01	5.0357	24.121886	0.000497	4.965779	1.682451	-0.000199
 879	8.7361e+01	4.9924	23.944252	0.000446	4.459066	1.510773	-0.000179
 880	8.7460e+01	4.9603	23.782767	0.000405	4.053697	1.373430	-0.000162
 881	8.7560e+01	4.9138	23.633393	0.000375	3.749670	1.270422	-0.000150
 882	8.7659e+01	4.8865	23.467870	0.000416	4.155039	1.407765	-0.000166
 883	8.7759e+01	4.8400	23.318496	0.000375	3.749670	1.270422	-0.000150
 884	8.7859e+01	4.7951	23.132788	0.000466	4.661751	1.579444	-0.000187
 885	8.7958e+01	4.7710	22.971302	0.000405	4.053697	1.373430	-0.000162
 886	8.8058e+01	4.7245	22.830003	0.000355	3.546985	1.201751	-0.000142
 887	8.8157e+01	4.6731	22.640257	0.000476	4.763094	1.613780	-0.000191
 888	8.8257e+01	4.6298	22.438400	0.000507	5.067121	1.716787	-0.000203
 889	8.8356e+01	4.6058	22.329398	0.000274	2.736245	0.927065	-0.000110
 890	8.8456e+01	4.5608	22.131578	0.000497	4.965779	1.682451	-0.000199
 891	8.8555e+01	4.5143	21.953944	0.000446	4.459066	1.510773	-0.000179
 892	8.8654e+01	4.4902	21.804570	0.000375	3.749670	1.270422	-0.000150
 893	8.8754e+01	4.4501	21.639048	0.000416	4.155039	1.407765	-0.000166
 894	8.8853e+01	4.4020	21.461414	0.000446	4.459066	1.510773	-0.000179
 895	8.8953e+01	4.3603	21.279742	0.000456	4.560409	1.545108	-0.000183
 896	8.9052e+01	4.3202	21.114220	0.000416	4.155039	1.407765	-0.000166
 897	8.9152e+01	4.2801	20.940623	0.000436	4.357724	1.476437	-0.000174
 898	8.9251e+01	4.2368	20.803360	0.000345	3.445642	1.167415	-0.000138
 899	8.9351e+01	4.1951	20.637838	0.000416	4.155039	1.407765	-0.000166
 900	8.9451e+01	4.1630	20.452130	0.000466	4.661751	1.579444	-0.000187
 901	8.9550e+01	4.1165	20.343127	0.000274	2.736245	0.927065	-0.000110
 902	8.9650e+01	4.0876	20.108973	0.000588	5.877860	1.991473	-0.000235
 903	8.9749e+01	4.0330	19.963636	0.000365	3.648327	1.236087	-0.000146
 904	8.9849e+01	4.0010	19.781965	0.000456	4.560409	1.545108	-0.000183
 905	8.9948e+01	3.9641	19.636628	0.000365	3.648327	1.236087	-0.000146
 906	9.0047e+01	3.9256	19.422660	0.000537	5.371148	1.819794	-0.000215
 907	9.0147e+01	3.8855	19.249063	0.000436	4.357724	1.476437	-0.000174
 908	9.0246e+01	3.8453	19.107763	0.000355	3.546985	1.201751	-0.000142
 909	9.0346e+01	3.8117	18.950315	0.000395	3.952354	1.339094	-0.000158
 910	9.0445e+01	3.7635	18.768644	0.000456	4.560409	1.545108	-0.000183
 911	9.0545e+01	3.7282	18.591010	0.000446	4.459066	1.510773	-0.000179
 912	9.0644e+01	3.6769	18.461822	0.000324	3.242957	1.098744	-0.000130
 913	9.0744e+01	3.6416	18.251891	0.000527	5.269806	1.785459	-0.000211
 914	9.0844e+01	3.5983	18.102517	0.000375	3.749670	1.270422	-0.000150
 915	9.0943e+01	3.5598	17.900660	0.000507	5.067121	1.716787	-0.000203
 916	9.1043e+01	3.5277	17.723026	0.000446	4.459066	1.510773	-0.000179
 917	9.1142e+01	3.4812	17.593838	0.000324	3.242957	1.098744	-0.000130
 918	9.1242e+01	3.4427	17.359684	0.000588	5.877860	1.991473	-0.000235
 919	9.1341e+01	3.4010	17.218384	0.000355	3.546985	1.201751	-0.000142
 920	9.1441e+01	3.3673	17.056898	0.000405	4.053697	1.373430	-0.000162
 921	9.1540e+01	3.3208	16.851005	0.000517	5.168463	1.751123	-0.000207
 922	9.1639e+01	3.2774	16.669333	0.000456	4.560409	1.545108	-0.000183
 923	9.1739e+01	3.2422	16.523997	0.000365	3.648327	1.236087	-0.000146
 924	9.1838e+01	3.2004	16.334251	0.000476	4.763094	1.613780	-0.000191
 925	9.1938e+01	3.1716	16.156617	0.000446	4.459066	1.510773	-0.000179
 926	9.2037e+01	3.1315	16.007243	0.000375	3.749670	1.270422	-0.000150
 927	9.2137e+01	3.0865	15.793275	0.000537	5.371148	1.819794	-0.000215
 928	9.2237e+01	3.0464	15.672161	0.000304	3.040273	1.030072	-0.000122
 929	9.2336e+01	3.0063	15.454156	0.000547	5.472491	1.854130	-0.000219
 930	9.2436e+01	2.9566	15.276522	0.000446	4.459066	1.510773	-0.000179
 931	9.2535e+01	2.9229	15.131185	0.000365	3.648327	1.236087	-0.000146
 932	9.2635e+01	2.8860	14.957588	0.000436	4.357724	1.476437	-0.000174
 933	9.2734e+01	2.8379	14.731508	0.000568	5.675175	1.922802	-0.000227
 934	9.2834e+01	2.7994	14.586171	0.000365	3.648327	1.236087	-0.000146
 935	9.2933e+01	2.7657	14.376240	0.000527	5.269806	1.785459	-0.000211
 936	9.3032e+01	2.7272	14.234941	0.000355	3.546985	1.201751	-0.000142
 937	9.3132e+01	2.6855	14.065381	0.000426	4.256382	1.442101	-0.000170
 938	9.3231e+01	2.6422	13.859487	0.000517	5.168463	1.751123	-0.000207
 939	9.3331e+01	2.6069	13.714150	0.000365	3.648327	1.236087	-0.000146
 940	9.3430e+01	2.5780	13.496145	0.000547	5.472491	1.854130	-0.000219
 941	9.3530e+01	2.5315	13.350808	0.000365	3.648327	1.236087	-0.000146
 942	9.3629e+01	2.4898	13.157025	0.000486	4.864436	1.648116	-0.000195
 943	9.3729e+01	2.4449	12.975354	0.000456	4.560409	1.545108	-0.000183
 944	9.3829e+01	2.4112	12.821943	0.000385	3.851012	1.304758	-0.000154
 945	9.3928e+01	2.3662	12.624123	0.000497	4.965779	1.682451	-0.000199
 946	9.4028e+01	2.3245	12.430341	0.000486	4.864436	1.648116	-0.000195
 947	9.4127e+01	2.2908	12.236558	0.000486	4.864436	1.648116	-0.000195
 948	9.4227e+01	2.2507	12.107370	0.000324	3.242957	1.098744	-0.000130
 949	9.4326e+01	2.2203	11.933773	0.000436	4.357724	1.476437	-0.000174
 950	9.4425e+01	2.1705	11.744028	0.000476	4.763094	1.613780	-0.000191
 951	9.4525e+01	2.1288	11.530060	0.000537	5.371148	1.819794	-0.000215
 952	9.4624e+01	2.0839	11.340314	0.000476	4.763094	1.613780	-0.000191
 953	9.4724e+01	2.0454	11.207089	0.000334	3.344300	1.133079	-0.000134
 954	9.4823e+01	2.0069	10.997158	0.000527	5.269806	1.785459	-0.000211
 955	9.4923e+01	1.9604	10.787227	0.000527	5.269806	1.785459	-0.000211
 956	9.5022e+01	1.9283	10.625741	0.000405	4.053697	1.373430	-0.000162
 957	9.5122e+01	1.8850	10.415810	0.000527	5.269806	1.785459	-0.000211
 958	9.5222e+01	1.8497	10.246251	0.000426	4.256382	1.442101	-0.000170
 959	9.5321e+01	1.8080	10.080728	0.000416	4.155039	1.407765	-0.000166
 960	9.5421e+01	1.7598	9.915205	0.000416	4.155039	1.407765	-0.000166
 961	9.5520e+01	1.7374	9.701237	0.000537	5.371148	1.819794	-0.000215
 962	9.5620e+01	1.6893	9.519566	0.000456	4.560409	1.545108	-0.000183
 963	9.5719e+01	1.6508	9.362118	0.000395	3.952354	1.339094	-0.000158
 964	9.5819e+01	1.6058	9.180447	0.000456	4.560409	1.545108	-0.000183
 965	9.5918e+01	1.5705	8.946293	0.000588	5.877860	1.991473	-0.000235
 966	9.6017e+01	1.5304	8.800956	0.000365	3.648327	1.236087	-0.000146
 967	9.6117e+01	1.4903	8.607173	0.000486	4.864436	1.648116	-0.000195
 968	9.6216e+01	1.4518	8.429539	0.000446	4.459066	1.510773	-0.000179
 969	9.6316e+01	1.4053	8.255943	0.000436	4.357724	1.476437	-0.000174
 970	9.6415e+01	1.3780	8.058123	0.000497	4.965779	1.682451	-0.000199
 971	9.6515e+01	1.3315	7.888563	0.000426	4.256382	1.442101	-0.000170
 972	9.6615e+01	1.2962	7.723041	0.000416	4.155039	1.407765	-0.000166
 973	9.6714e+01	1.2561	7.521184	0.000507	5.067121	1.716787	-0.000203
 974	9.6814e+01	1.2064	7.363736	0.000395	3.952354	1.339094	-0.000158
 975	9.6913e+01	1.1695	7.161879	0.000507	5.067121	1.716787	-0.000203
 976	9.7013e+01	1.1342	6.992319	0.000426	4.256382	1.442101	-0.000170
 977	9.7112e+01	1.0909	6.794499	0.000497	4.965779	1.682451	-0.000199
 978	9.7212e+01	1.0411	6.620903	0.000436	4.357724	1.476437	-0.000174
 979	9.7311e+01	1.0123	6.443269	0.000446	4.459066	1.510773	-0.000179
 980	9.7410e+01	0.9690	6.237375	0.000517	5.168463	1.751123	-0.000207
 981	9.7510e+01	0.9337	6.067815	0.000426	4.256382	1.442101	-0.000170
 982	9.7609e+01	0.8920	5.902292	0.000416	4.155039	1.407765	-0.000166
 983	9.7709e+01	0.8454	5.700436	0.000507	5.067121	1.716787	-0.000203
 984	9.7808e+01	0.8117	5.498579	0.000507	5.067121	1.716787	-0.000203
 985	9.7908e+01	0.7668	5.300759	0.000497	4.965779	1.682451	-0.000199
 986	9.8007e+01	0.7363	5.119088	0.000456	4.560409	1.545108	-0.000183
 987	9.8107e+01	0.6914	4.933380	0.000466	4.661751	1.579444	-0.000187
 988	9.8207e+01	0.6577	4.784006	0.000375	3.749670	1.270422	-0.000150
 989	9.8306e+01	0.6144	4.578112	0.000517	5.168463	1.751123	-0.000207
 990	9.8406e+01	0.5775	4.396441	0.000456	4.560409	1.545108	-0.000183
 991	9.8505e+01	0.5310	4.214770	0.000456	4.560409	1.545108	-0.000183
 992	9.8605e+01	0.4989	4.029061	0.000466	4.661751	1.579444	-0.000187
 993	9.8704e+01	0.4572	3.871613	0.000395	3.952354	1.339094	-0.000158
 994	9.8803e+01	0.4123	3.661682	0.000527	5.269806	1.785459	-0.000211
 995	9.8903e+01	0.3706	3.467900	0.000486	4.864436	1.648116	-0.000195
 996	9.9002e+01	0.3417	3.314488	0.000385	3.851012	1.304758	-0.000154
 997	9.9102e+01	0.2968	3.132817	0.000456	4.560409	1.545108	-0.000183
 998	9.9201e+01	0.2519	2.943072	0.000476	4.763094	1.613780	-0.000191
 999	9.9301e+01	0.2166	2.737178	0.000517	5.168463	1.751123	-0.000207
1000	9.9400e+01	0.1717	2.567618	0.000426	4.256382	1.442101	-0.000170
1001	9.9500e+01	0.1364	2.381910	0.000466	4.661751	1.579444	-0.000187
1002	9.9600e+01	0.1043	2.192165	0.000476	4.763094	1.613780	-0.000191
1003	9.9699e+01	0.0497	2.034716	0.000395	3.952354	1.339094	-0.000158
1004	9.9799e+01	0.0176	1.828822	0.000517	5.168463	1.751123	-0.000207
1005	9.9898e+01	-0.0128	1.647151	0.000456	4.560409	1.545108	-0.000183
1006	9.9998e+01	-0.0513	1.538149	0.000274	2.736245	0.927065	-0.000110
1007	1.0010e+02	-0.0963	1.380700	0.000395	3.952354	1.339094	-0.000158
1008	1.0020e+02	-0.1299	1.186918	0.000486	4.864436	1.648116	-0.000195
1009	1.0030e+02	-0.1765	0.989098	0.000497	4.965779	1.682451	-0.000199
1010	1.0040e+02	-0.2118	0.811464	0.000446	4.459066	1.510773	-0.000179
1011	1.0050e+02	-0.2711	0.625756	0.000466	4.661751	1.579444	-0.000187
1012	1.0059e+02	-0.2968	0.440048	0.000466	4.661751	1.579444	-0.000187
1013	1.0069e+02	-0.3353	0.258377	0.000456	4.560409	1.545108	-0.000183
1014	1.0079e+02	-0.3818	0.072668	0.000466	4.661751	1.579444	-0.000187
1015	1.0089e+02	-0.4219	-0.072668	0.000365	3.648327	1.236087	-0.000146
1016	1.0099e+02	-0.4508	-0.298748	0.000568	5.675175	1.922802	-0.000227
1017	1.0109e+02	-0.5037	-0.468308	0.000426	4.256382	1.442101	-0.000170
1018	1.0119e+02	-0.5326	-0.621719	0.000385	3.851012	1.304758	-0.000154
1019	1.0129e+02	-0.5791	-0.831650	0.000527	5.269806	1.785459	-0.000211
1020	1.0139e+02	-0.6160	-0.981024	0.000375	3.749670	1.270422	-0.000150
1021	1.0149e+02	-0.6497	-1.199029	0.000547	5.472491	1.854130	-0.000219
1022	1.0159e+02	-0.6994	-1.356478	0.000395	3.952354	1.339094	-0.000158
1023	1.0169e+02	-0.7315	-1.550260	0.000486	4.864436	1.648116	-0.000195
1024	1.0179e+02	-0.7781	-1.687523	0.000345	3.445642	1.167415	-0.000138
1025	1.0189e+02	-0.8182	-1.917639	0.000578	5.776518	1.957137	-0.000231
1026	1.0199e+02	-0.8486	-2.107385	0.000476	4.763094	1.613780	-0.000191
1027	1.0209e+02	-0.8839	-2.256759	0.000375	3.749670	1.270422	-0.000150
1028	1.0219e+02	-0.9337	-2.430356	0.000436	4.357724	1.476437	-0.000174
1029	1.0229e+02	-0.9786	-2.644324	0.000537	5.371148	1.819794	-0.000215
1030	1.0239e+02	-1.0155	-2.773512	0.000324	3.242957	1.098744	-0.000130
1031	1.0248e+02	-1.0524	-3.011703	0.000598	5.979203	2.025809	-0.000239
1032	1.0258e+02	-1.0957	-3.161077	0.000375	3.749670	1.270422	-0.000150
1033	1.0268e+02	-1.1374	-3.334674	0.000436	4.357724	1.476437	-0.000174
1034	1.0278e+02	-1.1647	-3.512308	0.000446	4.459066	1.510773	-0.000179
1035	1.0288e+02	-1.2096	-3.693979	0.000456	4.560409	1.545108	-0.000183
1036	1.0298e+02	-1.2497	-3.875650	0.000456	4.560409	1.545108	-0.000183
1037	1.0308e+02	-1.3010	-4.069433	0.000486	4.864436	1.648116	-0.000195
1038	1.0318e+02	-1.3299	-4.194584	0.000314	3.141615	1.064408	-0.000126
1039	1.0328e+02	-1.3796	-4.428738	0.000588	5.877860	1.991473	-0.000235
1040	1.0338e+02	-1.4101	-4.578112	0.000375	3.749670	1.270422	-0.000150
1041	1.0348e+02	-1.4470	-4.739597	0.000405	4.053697	1.373430	-0.000162
1042	1.0358e+02	-1.4951	-4.933380	0.000486	4.864436	1.648116	-0.000195
1043	1.0368e+02	-1.5272	-5.078717	0.000365	3.648327	1.236087	-0.000146
1044	1.0378e+02	-1.5641	-5.316908	0.000598	5.979203	2.025809	-0.000239
1045	1.0388e+02	-1.6123	-5.438022	0.000304	3.040273	1.030072	-0.000122
1046	1.0398e+02	-1.6492	-5.643916	0.000517	5.168463	1.751123	-0.000207
1047	1.0408e+02	-1.6877	-5.801364	0.000395	3.952354	1.339094	-0.000158
1048	1.0418e+02	-1.7358	-5.987072	0.000466	4.661751	1.579444	-0.000187
1049	1.0428e+02	-1.7743	-6.148558	0.000405	4.053697	1.373430	-0.000162
1050	1.0438e+02	-1.8048	-6.314080	0.000416	4.155039	1.407765	-0.000166
1051	1.0447e+02	-1.8513	-6.515937	0.000507	5.067121	1.716787	-0.000203
1052	1.0457e+02	-1.8914	-6.685497	0.000426	4.256382	1.442101	-0.000170
1053	1.0467e+02	-1.9315	-6.883316	0.000497	4.965779	1.682451	-0.000199
1054	1.0477e+02	-1.9732	-7.036728	0.000385	3.851012	1.304758	-0.000154
1055	1.0487e+02	-2.0181	-7.234547	0.000497	4.965779	1.682451	-0.000199
1056	1.0497e+02	-2.0566	-7.396033	0.000405	4.053697	1.373430	-0.000162
1057	1.0507e+02	-2.0871	-7.581741	0.000466	4.661751	1.579444	-0.000187
1058	1.0517e+02	-2.1272	-7.751301	0.000426	4.256382	1.442101	-0.000170
1059	1.0527e+02	-2.1657	-7.900675	0.000375	3.749670	1.270422	-0.000150
1060	1.0537e+02	-2.2106	-8.098494	0.000497	4.965779	1.682451	-0.000199
1061	1.0547e+02	-2.2588	-8.272091	0.000436	4.357724	1.476437	-0.000174
1062	1.0557e+02	-2.2796	-8.449725	0.000446	4.459066	1.510773	-0.000179
1063	1.0567e+02	-2.3277	-8.639470	0.000476	4.763094	1.613780	-0.000191
1064	1.0577e+02	-2.3598	-8.792882	0.000385	3.851012	1.304758	-0.000154
1065	1.0587e+02	-2.4080	-8.994738	0.000507	5.067121	1.716787	-0.000203
1066	1.0597e+02	-2.4416	-9.144112	0.000375	3.749670	1.270422	-0.000150
1067	1.0607e+02	-2.4946	-9.333858	0.000476	4.763094	1.613780	-0.000191
1068	1.0617e+02	-2.5235	-9.487269	0.000385	3.851012	1.304758	-0.000154
1069	1.0627e+02	-2.5604	-9.664903	0.000446	4.459066	1.510773	-0.000179
1070	1.0637e+02	-2.6133	-9.834463	0.000426	4.256382	1.442101	-0.000170
1071	1.0647e+02	-2.6422	-10.012097	0.000446	4.459066	1.510773	-0.000179
1072	1.0656e+02	-2.6855	-10.197805	0.000466	4.661751	1.579444	-0.000187
1073	1.0666e+02	-2.7240	-10.379476	0.000456	4.560409	1.545108	-0.000183
1074	1.0676e+02	-2.7705	-10.540961	0.000405	4.053697	1.373430	-0.000162
1075	1.0686e+02	-2.8074	-10.682261	0.000355	3.546985	1.201751	-0.000142
1076	1.0696e+02	-2.8443	-10.876044	0.000486	4.864436	1.648116	-0.000195
1077	1.0706e+02	-2.8796	-11.061752	0.000466	4.661751	1.579444	-0.000187
1078	1.0716e+02	-2.9309	-11.247460	0.000466	4.661751	1.579444	-0.000187
1079	1.0726e+02	-2.9678	-11.408946	0.000405	4.053697	1.373430	-0.000162
1080	1.0736e+02	-3.0079	-11.558320	0.000375	3.749670	1.270422	-0.000150
1081	1.0746e+02	-3.0496	-11.748065	0.000476	4.763094	1.613780	-0.000191
1082	1.0756e+02	-3.0865	-11.897439	0.000375	3.749670	1.270422	-0.000150
1083	1.0766e+02	-3.1250	-12.091222	0.000486	4.864436	1.648116	-0.000195
1084	1.0776e+02	-3.1684	-12.289041	0.000497	4.965779	1.682451	-0.000199
1085	1.0786e+02	-3.1988	-12.398044	0.000274	2.736245	0.927065	-0.000110
1086	1.0796e+02	-3.2438	-12.616049	0.000547	5.472491	1.854130	-0.000219
1087	1.0806e+02	-3.2823	-12.785609	0.000426	4.256382	1.442101	-0.000170
1088	1.0816e+02	-3.3208	-12.930946	0.000365	3.648327	1.236087	-0.000146
1089	1.0826e+02	-3.3593	-13.140877	0.000527	5.269806	1.785459	-0.000211
1090	1.0836e+02	-3.4042	-13.294288	0.000385	3.851012	1.304758	-0.000154
1091	1.0845e+02	-3.4395	-13.467885	0.000436	4.357724	1.476437	-0.000174
1092	1.0855e+02	-3.4780	-13.649556	0.000456	4.560409	1.545108	-0.000183
1093	1.0865e+02	-3.5213	-13.843338	0.000486	4.864436	1.648116	-0.000195
1094	1.0875e+02	-3.5582	-14.004824	0.000405	4.053697	1.373430	-0.000162
1095	1.0885e+02	-3.6095	-14.202644	0.000497	4.965779	1.682451	-0.000199
1096	1.0895e+02	-3.6464	-14.331832	0.000324	3.242957	1.098744	-0.000130
1097	1.0905e+02	-3.6913	-14.509466	0.000446	4.459066	1.510773	-0.000179
1098	1.0915e+02	-3.7218	-14.674988	0.000416	4.155039	1.407765	-0.000166
1099	1.0925e+02	-3.7587	-14.884919	0.000527	5.269806	1.785459	-0.000211
1100	1.0935e+02	-3.8068	-15.034293	0.000375	3.749670	1.270422	-0.000150
1101	1.0945e+02	-3.8437	-15.215965	0.000456	4.560409	1.545108	-0.000183
1102	1.0955e+02	-3.8855	-15.357264	0.000355	3.546985	1.201751	-0.000142
1103	1.0965e+02	-3.9175	-15.526824	0.000426	4.256382	1.442101	-0.000170
1104	1.0975e+02	-3.9625	-15.704458	0.000446	4.459066	1.510773	-0.000179
1105	1.0985e+02	-4.0026	-15.902278	0.000497	4.965779	1.682451	-0.000199
1106	1.0995e+02	-4.0427	-16.079912	0.000446	4.459066	1.510773	-0.000179
1107	1.1005e+02	-4.0764	-16.237360	0.000395	3.952354	1.339094	-0.000158
1108	1.1015e+02	-4.1197	-16.431142	0.000486	4.864436	1.648116	-0.000195
1109	1.1025e+02	-4.1630	-16.604739	0.000436	4.357724	1.476437	-0.000174
1110	1.1035e+02	-4.2015	-16.782373	0.000446	4.459066	1.510773	-0.000179
1111	1.1044e+02	-4.2400	-16.951933	0.000426	4.256382	1.442101	-0.000170
1112	1.1054e+02	-4.2849	-17.117456	0.000416	4.155039	1.407765	-0.000166
1113	1.1064e+02	-4.3234	-17.270867	0.000385	3.851012	1.304758	-0.000154
1114	1.1074e+02	-4.3571	-17.440426	0.000426	4.256382	1.442101	-0.000170
1115	1.1084e+02	-4.4036	-17.634209	0.000486	4.864436	1.648116	-0.000195
1116	1.1094e+02	-4.4373	-17.783583	0.000375	3.749670	1.270422	-0.000150
1117	1.1104e+02	-4.4806	-17.932957	0.000375	3.749670	1.270422	-0.000150
1118	1.1114e+02	-4.5111	-18.150962	0.000547	5.472491	1.854130	-0.000219
1119	1.1124e+02	-4.5640	-18.300336	0.000375	3.749670	1.270422	-0.000150
1120	1.1134e+02	-4.5929	-18.494119	0.000486	4.864436	1.648116	-0.000195
1121	1.1144e+02	-4.6362	-18.671753	0.000446	4.459066	1.510773	-0.000179
1122	1.1154e+02	-4.6795	-18.813053	0.000355	3.546985	1.201751	-0.000142
1123	1.1164e+02	-4.7148	-18.998761	0.000466	4.661751	1.579444	-0.000187
1124	1.1174e+02	-4.7582	-19.140061	0.000355	3.546985	1.201751	-0.000142
1125	1.1184e+02	-4.8047	-19.317695	0.000446	4.459066	1.510773	-0.000179
1126	1.1194e+02	-4.8448	-19.547811	0.000578	5.776518	1.957137	-0.000231
1127	1.1204e+02	-4.8721	-19.685074	0.000345	3.445642	1.167415	-0.000138
1128	1.1214e+02	-4.9218	-19.842522	0.000395	3.952354	1.339094	-0.000158
1129	1.1224e+02	-4.9603	-20.028230	0.000466	4.661751	1.579444	-0.000187
1130	1.1234e+02	-4.9988	-20.205864	0.000446	4.459066	1.510773	-0.000179
1131	1.1244e+02	-5.0341	-20.367350	0.000405	4.053697	1.373430	-0.000162
1132	1.1253e+02	-5.0742	-20.520761	0.000385	3.851012	1.304758	-0.000154
1133	1.1263e+02	-5.1159	-20.702432	0.000456	4.560409	1.545108	-0.000183
1134	1.1273e+02	-5.1528	-20.863917	0.000405	4.053697	1.373430	-0.000162
1135	1.1283e+02	-5.1961	-21.049626	0.000466	4.661751	1.579444	-0.000187
1136	1.1293e+02	-5.2378	-21.211111	0.000405	4.053697	1.373430	-0.000162
1137	1.1303e+02	-5.2779	-21.348374	0.000345	3.445642	1.167415	-0.000138
1138	1.1313e+02	-5.3116	-21.517933	0.000426	4.256382	1.442101	-0.000170
1139	1.1323e+02	-5.3565	-21.715753	0.000497	4.965779	1.682451	-0.000199
1140	1.1333e+02	-5.3934	-21.897424	0.000456	4.560409	1.545108	-0.000183
1141	1.1343e+02	-5.4383	-22.030650	0.000334	3.344300	1.133079	-0.000134
1142	1.1353e+02	-5.4704	-22.220395	0.000476	4.763094	1.613780	-0.000191
1143	1.1363e+02	-5.5137	-22.422252	0.000507	5.067121	1.716787	-0.000203
1144	1.1373e+02	-5.5667	-22.555477	0.000334	3.344300	1.133079	-0.000134
1145	1.1383e+02	-5.5908	-22.708889	0.000385	3.851012	1.304758	-0.000154
1146	1.1393e+02	-5.6373	-22.878448	0.000426	4.256382	1.442101	-0.000170
1147	1.1403e+02	-5.6774	-23.019748	0.000355	3.546985	1.201751	-0.000142
1148	1.1413e+02	-5.7191	-23.201419	0.000456	4.560409	1.545108	-0.000183
1149	1.1423e+02	-5.7608	-23.415387	0.000537	5.371148	1.819794	-0.000215
1150	1.1433e+02	-5.7977	-23.552650	0.000345	3.445642	1.167415	-0.000138
1151	1.1442e+02	-5.8330	-23.734321	0.000456	4.560409	1.545108	-0.000183
1152	1.1452e+02	-5.8715	-23.875621	0.000355	3.546985	1.201751	-0.000142
1153	1.1462e+02	-5.9180	-24.024995	0.000375	3.749670	1.270422	-0.000150
1154	1.1472e+02	-5.9501	-24.226852	0.000507	5.067121	1.716787	-0.000203
1155	1.1482e+02	-6.0014	-24.368151	0.000355	3.546985	1.201751	-0.000142
1156	1.1492e+02	-6.0351	-24.525600	0.000395	3.952354	1.339094	-0.000158
1157	1.1502e+02	-6.0768	-24.695159	0.000426	4.256382	1.442101	-0.000170
1158	1.1512e+02	-6.1137	-24.856645	0.000405	4.053697	1.373430	-0.000162
1159	1.1522e+02	-6.1538	-25.050427	0.000486	4.864436	1.648116	-0.000195
1160	1.1532e+02	-6.1939	-25.203838	0.000385	3.851012	1.304758	-0.000154
1161	1.1542e+02	-6.2437	-25.353212	0.000375	3.749670	1.270422	-0.000150
1162	1.1552e+02	-6.2693	-25.518735	0.000416	4.155039	1.407765	-0.000166
1163	1.1562e+02	-6.3143	-25.700406	0.000456	4.560409	1.545108	-0.000183
1164	1.1572e+02	-6.3576	-25.865929	0.000416	4.155039	1.407765	-0.000166
1165	1.1582e+02	-6.3929	-26.047600	0.000456	4.560409	1.545108	-0.000183
1166	1.1592e+02	-6.4233	-26.192937	0.000365	3.648327	1.236087	-0.000146
1167	1.1602e+02	-6.4667	-26.330199	0.000345	3.445642	1.167415	-0.000138
1168	1.1612e+02	-6.5116	-26.479573	0.000375	3.749670	1.270422	-0.000150
1169	1.1622e+02	-6.5485	-26.673356	0.000486	4.864436	1.648116	-0.000195
1170	1.1632e+02	-6.5918	-26.834841	0.000405	4.053697	1.373430	-0.000162
1171	1.1642e+02	-6.6303	-26.943844	0.000274	2.736245	0.927065	-0.000110
1172	1.1651e+02	-6.6688	-27.153775	0.000527	5.269806	1.785459	-0.000211
1173	1.1661e+02	-6.7073	-27.282963	0.000324	3.242957	1.098744	-0.000130
1174	1.1671e+02	-6.7458	-27.460597	0.000446	4.459066	1.510773	-0.000179
1175	1.1681e+02	-6.7859	-27.646306	0.000466	4.661751	1.579444	-0.000187
1176	1.1691e+02	-6.8260	-27.767420	0.000304	3.040273	1.030072	-0.000122
1177	1.1701e+02	-6.8613	-27.924868	0.000395	3.952354	1.339094	-0.000158
1178	1.1711e+02	-6.9094	-28.066168	0.000355	3.546985	1.201751	-0.000142
1179	1.1721e+02	-6.9479	-28.251876	0.000466	4.661751	1.579444	-0.000187
1180	1.1731e+02	-6.9929	-28.417398	0.000416	4.155039	1.407765	-0.000166
1181	1.1741e+02	-7.0201	-28.578884	0.000405	4.053697	1.373430	-0.000162
1182	1.1751e+02	-7.0666	-28.708072	0.000324	3.242957	1.098744	-0.000130
1183	1.1761e+02	-7.1116	-28.909929	0.000507	5.067121	1.716787	-0.000203
1184	1.1771e+02	-7.1549	-29.010857	0.000253	2.533560	0.858394	-0.000101
1185	1.1781e+02	-7.1918	-29.216751	0.000517	5.168463	1.751123	-0.000207
1186	1.1791e+02	-7.2319	-29.349977	0.000334	3.344300	1.133079	-0.000134
1187	1.1801e+02	-7.2624	-29.543759	0.000486	4.864436	1.648116	-0.000195
1188	1.1811e+02	-7.3057	-29.689096	0.000365	3.648327	1.236087	-0.000146
1189	1.1821e+02	-7.3506	-29.822322	0.000334	3.344300	1.133079	-0.000134
1190	1.1831e+02	-7.3859	-29.963621	0.000355	3.546985	1.201751	-0.000142
1191	1.1841e+02	-7.4260	-30.165478	0.000507	5.067121	1.716787	-0.000203
1192	1.1850e+02	-7.4677	-30.274481	0.000274	2.736245	0.927065	-0.000110
1193	1.1860e+02	-7.5142	-30.484412	0.000527	5.269806	1.785459	-0.000211
1194	1.1870e+02	-7.5495	-30.601489	0.000294	2.938930	0.995736	-0.000118
1195	1.1880e+02	-7.5912	-30.754900	0.000385	3.851012	1.304758	-0.000154
1196	1.1890e+02	-7.6217	-30.908311	0.000385	3.851012	1.304758	-0.000154
1197	1.1900e+02	-7.6634	-31.114205	0.000517	5.168463	1.751123	-0.000207
1198	1.1910e+02	-7.7083	-31.247431	0.000334	3.344300	1.133079	-0.000134
1199	1.1920e+02	-7.7372	-31.416990	0.000426	4.256382	1.442101	-0.000170
1200	1.1930e+02	-7.7853	-31.558290	0.000355	3.546985	1.201751	-0.000142
1201	1.1940e+02	-7.8287	-31.679404	0.000304	3.040273	1.030072	-0.000122
1202	1.1950e+02	-7.8656	-31.877224	0.000497	4.965779	1.682451	-0.000199
1203	1.1960e+02	-7.9057	-32.026598	0.000375	3.749670	1.270422	-0.000150
1204	1.1970e+02	-7.9458	-32.167898	0.000355	3.546985	1.201751	-0.000142
1205	1.1980e+02	-7.9795	-32.305160	0.000345	3.445642	1.167415	-0.000138
1206	1.1990e+02	-8.0308	-32.494906	0.000476	4.763094	1.613780	-0.000191
1207	1.2000e+02	-8.0581	-32.607945	0.000284	2.837588	0.961401	-0.000114
1208	1.2010e+02	-8.1046	-32.769431	0.000405	4.053697	1.373430	-0.000162
1209	1.2020e+02	-8.1367	-32.926879	0.000395	3.952354	1.339094	-0.000158
1210	1.2030e+02	-8.1768	-33.072216	0.000365	3.648327	1.236087	-0.000146
1211	1.2039e+02	-8.2153	-33.197367	0.000314	3.141615	1.064408	-0.000126
1212	1.2049e+02	-8.2634	-33.362890	0.000416	4.155039	1.407765	-0.000166
1213	1.2059e+02	-8.3083	-33.520338	0.000395	3.952354	1.339094	-0.000158
1214	1.2069e+02	-8.3484	-33.714121	0.000486	4.864436	1.648116	-0.000195
1215	1.2079e+02	-8.3901	-33.843309	0.000324	3.242957	1.098744	-0.000130
1216	1.2089e+02	-8.4302	-33.984609	0.000355	3.546985	1.201751	-0.000142
1217	1.2099e+02	-8.4655	-34.109760	0.000314	3.141615	1.064408	-0.000126
1218	1.2109e+02	-8.4992	-34.295468	0.000466	4.661751	1.579444	-0.000187
1219	1.2119e+02	-8.5377	-34.412545	0.000294	2.938930	0.995736	-0.000118
1220	1.2129e+02	-8.5794	-34.578068	0.000416	4.155039	1.407765	-0.000166
1221	1.2139e+02	-8.6260	-34.715330	0.000345	3.445642	1.167415	-0.000138
1222	1.2149e+02	-8.6532	-34.917187	0.000507	5.067121	1.716787	-0.000203
1223	1.2159e+02	-8.6965	-35.058487	0.000355	3.546985	1.201751	-0.000142
1224	1.2169e+02	-8.7431	-35.199786	0.000355	3.546985	1.201751	-0.000142
1225	1.2179e+02	-8.7719	-35.385495	0.000466	4.661751	1.579444	-0.000187
1226	1.2189e+02	-8.8185	-35.518720	0.000334	3.344300	1.133079	-0.000134
1227	1.2199e+02	-8.8618	-35.631760	0.000284	2.837588	0.961401	-0.000114
1228	1.2209e+02	-8.9035	-35.801320	0.000426	4.256382	1.442101	-0.000170
1229	1.2219e+02	-8.9372	-35.942619	0.000355	3.546985	1.201751	-0.000142
1230	1.2229e+02	-8.9805	-36.087956	0.000365	3.648327	1.236087	-0.000146
1231	1.2239e+02	-9.0206	-36.253479	0.000416	4.155039	1.407765	-0.000166
1232	1.2248e+02	-9.0543	-36.394779	0.000355	3.546985	1.201751	-0.000142
1233	1.2258e+02	-9.0976	-36.536078	0.000355	3.546985	1.201751	-0.000142
1234	1.2268e+02	-9.1377	-36.701601	0.000416	4.155039	1.407765	-0.000166
1235	1.2278e+02	-9.1778	-36.859049	0.000395	3.952354	1.339094	-0.000158
1236	1.2288e+02	-9.2131	-37.004386	0.000365	3.648327	1.236087	-0.000146
1237	1.2298e+02	-9.2612	-37.161834	0.000395	3.952354	1.339094	-0.000158
1238	1.2308e+02	-9.2981	-37.295060	0.000334	3.344300	1.133079	-0.000134
1239	1.2318e+02	-9.3382	-37.452508	0.000395	3.952354	1.339094	-0.000158
1240	1.2328e+02	-9.3799	-37.601882	0.000375	3.749670	1.270422	-0.000150
1241	1.2338e+02	-9.4168	-37.767405	0.000416	4.155039	1.407765	-0.000166
1242	1.2348e+02	-9.4602	-37.912742	0.000365	3.648327	1.236087	-0.000146
1243	1.2358e+02	-9.4922	-37.993484	0.000203	2.026848	0.686715	-0.000081
1244	1.2368e+02	-9.5388	-38.187267	0.000486	4.864436	1.648116	-0.000195
1245	1.2378e+02	-9.5805	-38.308381	0.000304	3.040273	1.030072	-0.000122
1246	1.2388e+02	-9.6126	-38.490052	0.000456	4.560409	1.545108	-0.000183
1247	1.2398e+02	-9.6559	-38.631352	0.000355	3.546985	1.201751	-0.000142
1248	1.2408e+02	-9.6912	-38.776689	0.000365	3.648327	1.236087	-0.000146
1249	1.2418e+02	-9.7441	-38.905877	0.000324	3.242957	1.098744	-0.000130
1250	1.2428e+02	-9.7762	-39.091585	0.000466	4.661751	1.579444	-0.000187
1251	1.2438e+02	-9.8099	-39.244997	0.000385	3.851012	1.304758	-0.000154
1252	1.2447e+02	-9.8532	-39.394371	0.000375	3.749670	1.270422	-0.000150
1253	1.2457e+02	-9.9029	-39.551819	0.000395	3.952354	1.339094	-0.000158
1254	1.2467e+02	-9.9366	-39.721379	0.000426	4.256382	1.442101	-0.000170
1255	1.2477e+02	-9.9831	-39.826344	0.000263	2.634903	0.892729	-0.000105
1256	1.2487e+02	-10.0136	-39.991867	0.000416	4.155039	1.407765	-0.000166
1257	1.2497e+02	-10.0489	-40.141241	0.000375	3.749670	1.270422	-0.000150
1258	1.2507e+02	-10.1051	-40.250243	0.000274	2.736245	0.927065	-0.000110
1259	1.2517e+02	-10.1291	-40.419803	0.000426	4.256382	1.442101	-0.000170
1260	1.2527e+02	-10.1789	-40.573214	0.000385	3.851012	1.304758	-0.000154
1261	1.2537e+02	-10.2142	-40.758922	0.000466	4.661751	1.579444	-0.000187
1262	1.2547e+02	-10.2559	-40.892148	0.000334	3.344300	1.133079	-0.000134
1263	1.2557e+02	-10.2976	-41.041522	0.000375	3.749670	1.270422	-0.000150
1264	1.2567e+02	-10.3264	-41.227230	0.000466	4.661751	1.579444	-0.000187
1265	1.2577e+02	-10.3842	-41.348344	0.000304	3.040273	1.030072	-0.000122
1266	1.2587e+02	-10.4115	-41.473495	0.000314	3.141615	1.064408	-0.000126
1267	1.2597e+02	-10.4468	-41.634981	0.000405	4.053697	1.373430	-0.000162
1268	1.2607e+02	-10.4933	-41.788392	0.000385	3.851012	1.304758	-0.000154
1269	1.2617e+02	-10.5350	-41.925655	0.000345	3.445642	1.167415	-0.000138
1270	1.2627e+02	-10.5687	-42.095214	0.000426	4.256382	1.442101	-0.000170
1271	1.2636e+02	-10.6152	-42.244588	0.000375	3.749670	1.270422	-0.000150
1272	1.2646e+02	-10.6537	-42.381851	0.000345	3.445642	1.167415	-0.000138
1273	1.2656e+02	-10.6970	-42.543336	0.000405	4.053697	1.373430	-0.000162
1274	1.2666e+02	-10.7307	-42.712896	0.000426	4.256382	1.442101	-0.000170
1275	1.2676e+02	-10.7788	-42.813825	0.000253	2.533560	0.858394	-0.000101
1276	1.2686e+02	-10.8077	-42.975310	0.000405	4.053697	1.373430	-0.000162
1277	1.2696e+02	-10.8510	-43.144870	0.000426	4.256382	1.442101	-0.000170
1278	1.2706e+02	-10.8976	-43.278095	0.000334	3.344300	1.133079	-0.000134
1279	1.2716e+02	-10.9312	-43.407283	0.000324	3.242957	1.098744	-0.000130
1280	1.2726e+02	-10.9713	-43.576843	0.000426	4.256382	1.442101	-0.000170
1281	1.2736e+02	-11.0195	-43.722180	0.000365	3.648327	1.236087	-0.000146
1282	1.2746e+02	-11.0484	-43.871554	0.000375	3.749670	1.270422	-0.000150
1283	1.2756e+02	-11.0933	-44.008817	0.000345	3.445642	1.167415	-0.000138
1284	1.2766e+02	-11.1414	-44.174339	0.000416	4.155039	1.407765	-0.000166
1285	1.2776e+02	-11.1719	-44.331788	0.000395	3.952354	1.339094	-0.000158
1286	1.2786e+02	-11.2184	-44.448864	0.000294	2.938930	0.995736	-0.000118
1287	1.2796e+02	-11.2505	-44.642647	0.000486	4.864436	1.648116	-0.000195
1288	1.2806e+02	-11.2938	-44.792021	0.000375	3.749670	1.270422	-0.000150
1289	1.2816e+02	-11.3323	-44.933321	0.000355	3.546985	1.201751	-0.000142
1290	1.2826e+02	-11.3724	-45.090769	0.000395	3.952354	1.339094	-0.000158
1291	1.2835e+02	-11.4173	-45.195735	0.000263	2.634903	0.892729	-0.000105
1292	1.2845e+02	-11.4558	-45.385480	0.000476	4.763094	1.613780	-0.000191
1293	1.2855e+02	-11.4959	-45.546965	0.000405	4.053697	1.373430	-0.000162
1294	1.2865e+02	-11.5264	-45.724599	0.000446	4.459066	1.510773	-0.000179
1295	1.2875e+02	-11.5745	-45.813416	0.000223	2.229533	0.755386	-0.000089
1296	1.2885e+02	-11.6018	-45.995087	0.000456	4.560409	1.545108	-0.000183
1297	1.2895e+02	-11.6580	-46.124276	0.000324	3.242957	1.098744	-0.000130
1298	1.2905e+02	-11.6836	-46.293836	0.000426	4.256382	1.442101	-0.000170
1299	1.2915e+02	-11.7334	-46.414950	0.000304	3.040273	1.030072	-0.000122
1300	1.2925e+02	-11.7751	-46.556249	0.000355	3.546985	1.201751	-0.000142
1301	1.2935e+02	-11.8039	-46.725809	0.000426	4.256382	1.442101	-0.000170
1302	1.2945e+02	-11.8521	-46.871146	0.000365	3.648327	1.236087	-0.000146
1303	1.2955e+02	-11.8906	-46.976111	0.000263	2.634903	0.892729	-0.000105
1304	1.2965e+02	-11.9323	-47.129523	0.000385	3.851012	1.304758	-0.000154
1305	1.2975e+02	-11.9596	-47.331379	0.000507	5.067121	1.716787	-0.000203
1306	1.2985e+02	-12.0125	-47.444419	0.000284	2.837588	0.961401	-0.000114
1307	1.2995e+02	-12.0574	-47.581682	0.000345	3.445642	1.167415	-0.000138
1308	1.3005e+02	-12.0959	-47.767390	0.000466	4.661751	1.579444	-0.000187
1309	1.3015e+02	-12.1344	-47.868318	0.000253	2.533560	0.858394	-0.000101
1310	1.3025e+02	-12.1713	-48.049990	0.000456	4.560409	1.545108	-0.000183
1311	1.3034e+02	-12.2114	-48.154955	0.000263	2.634903	0.892729	-0.000105
1312	1.3044e+02	-12.2483	-48.320478	0.000416	4.155039	1.407765	-0.000166
1313	1.3054e+02	-12.2756	-48.486000	0.000416	4.155039	1.407765	-0.000166
1314	1.3064e+02	-12.3317	-48.627300	0.000355	3.546985	1.201751	-0.000142
1315	1.3074e+02	-12.3751	-48.736303	0.000274	2.736245	0.927065	-0.000110
1316	1.3084e+02	-12.4071	-48.897788	0.000405	4.053697	1.373430	-0.000162
1317	1.3094e+02	-12.4456	-49.059273	0.000405	4.053697	1.373430	-0.000162
1318	1.3104e+02	-12.4890	-49.196536	0.000345	3.445642	1.167415	-0.000138
1319	1.3114e+02	-12.5275	-49.353984	0.000395	3.952354	1.339094	-0.000158
1320	1.3124e+02	-12.5708	-49.471061	0.000294	2.938930	0.995736	-0.000118
1321	1.3134e+02	-12.6061	-49.644658	0.000436	4.357724	1.476437	-0.000174
1322	1.3144e+02	-12.6542	-49.753661	0.000274	2.736245	0.927065	-0.000110
1323	1.3154e+02	-12.6879	-49.907072	0.000385	3.851012	1.304758	-0.000154
1324	1.3164e+02	-12.7248	-50.056446	0.000375	3.749670	1.270422	-0.000150
1325	1.3174e+02	-12.7681	-50.173523	0.000294	2.938930	0.995736	-0.000118
1326	1.3184e+02	-12.8130	-50.379417	0.000517	5.168463	1.751123	-0.000207
1327	1.3194e+02	-12.8467	-50.512642	0.000334	3.344300	1.133079	-0.000134
1328	1.3204e+02	-12.8868	-50.666054	0.000385	3.851012	1.304758	-0.000154
1329	1.3214e+02	-12.9173	-50.787168	0.000304	3.040273	1.030072	-0.000122
1330	1.3224e+02	-12.9734	-50.936542	0.000375	3.749670	1.270422	-0.000150
1331	1.3234e+02	-12.9991	-51.073804	0.000345	3.445642	1.167415	-0.000138
1332	1.3243e+02	-13.0408	-51.207030	0.000334	3.344300	1.133079	-0.000134
1333	1.3253e+02	-13.0873	-51.356404	0.000375	3.749670	1.270422	-0.000150
1334	1.3263e+02	-13.1290	-51.509815	0.000385	3.851012	1.304758	-0.000154
1335	1.3273e+02	-13.1531	-51.651115	0.000355	3.546985	1.201751	-0.000142
1336	1.3283e+02	-13.2125	-51.784340	0.000334	3.344300	1.133079	-0.000134
1337	1.3293e+02	-13.2478	-51.925640	0.000355	3.546985	1.201751	-0.000142
1338	1.3303e+02	-13.2798	-52.066940	0.000355	3.546985	1.201751	-0.000142
1339	1.3313e+02	-13.3248	-52.252648	0.000466	4.661751	1.579444	-0.000187
1340	1.3323e+02	-13.3633	-52.337428	0.000213	2.128191	0.721051	-0.000085
1341	1.3333e+02	-13.4002	-52.470653	0.000334	3.344300	1.133079	-0.000134
1342	1.3343e+02	-13.4371	-52.615990	0.000365	3.648327	1.236087	-0.000146
1343	1.3353e+02	-13.4900	-52.737104	0.000304	3.040273	1.030072	-0.000122
1344	1.3363e+02	-13.5253	-52.902627	0.000416	4.155039	1.407765	-0.000166
1345	1.3373e+02	-13.5590	-53.023741	0.000304	3.040273	1.030072	-0.000122
1346	1.3383e+02	-13.5959	-53.193300	0.000426	4.256382	1.442101	-0.000170
1347	1.3393e+02	-13.6504	-53.310377	0.000294	2.938930	0.995736	-0.000118
1348	1.3403e+02	-13.6793	-53.419380	0.000274	2.736245	0.927065	-0.000110
1349	1.3413e+02	-13.7162	-53.617200	0.000497	4.965779	1.682451	-0.000199
1350	1.3423e+02	-13.7643	-53.734277	0.000294	2.938930	0.995736	-0.000118
1351	1.3432e+02	-13.8028	-53.887688	0.000385	3.851012	1.304758	-0.000154
1352	1.3442e+02	-13.8493	-54.004765	0.000294	2.938930	0.995736	-0.000118
1353	1.3452e+02	-13.8766	-54.146065	0.000355	3.546985	1.201751	-0.000142
1354	1.3462e+02	-13.9247	-54.283327	0.000345	3.445642	1.167415	-0.000138
1355	1.3472e+02	-13.9616	-54.384256	0.000253	2.533560	0.858394	-0.000101
1356	1.3482e+02	-14.0017	-54.590149	0.000517	5.168463	1.751123	-0.000207
1357	1.3492e+02	-14.0467	-54.699152	0.000274	2.736245	0.927065	-0.000110
1358	1.3502e+02	-14.0836	-54.816229	0.000294	2.938930	0.995736	-0.000118
1359	1.3512e+02	-14.1253	-54.985789	0.000426	4.256382	1.442101	-0.000170
1360	1.3522e+02	-14.1622	-55.127089	0.000355	3.546985	1.201751	-0.000142
1361	1.3532e+02	-14.2071	-55.215905	0.000223	2.229533	0.755386	-0.000089
1362	1.3542e+02	-14.2488	-55.341057	0.000314	3.141615	1.064408	-0.000126
1363	1.3552e+02	-14.2745	-55.494468	0.000385	3.851012	1.304758	-0.000154
1364	1.3562e+02	-14.3242	-55.647879	0.000385	3.851012	1.304758	-0.000154
1365	1.3572e+02	-14.3595	-55.773030	0.000314	3.141615	1.064408	-0.000126
1366	1.3582e+02	-14.4028	-55.906256	0.000334	3.344300	1.133079	-0.000134
1367	1.3592e+02	-14.4269	-56.091964	0.000466	4.661751	1.579444	-0.000187
1368	1.3602e+02	-14.4830	-56.209041	0.000294	2.938930	0.995736	-0.000118
1369	1.3612e+02	-14.5215	-56.370526	0.000405	4.053697	1.373430	-0.000162
1370	1.3622e+02	-14.5552	-56.475492	0.000263	2.634903	0.892729	-0.000105
1371	1.3631e+02	-14.5889	-56.592569	0.000294	2.938930	0.995736	-0.000118
1372	1.3641e+02	-14.6434	-56.725794	0.000334	3.344300	1.133079	-0.000134
1373	1.3651e+02	-14.6868	-56.867094	0.000355	3.546985	1.201751	-0.000142
1374	1.3661e+02	-14.7172	-57.008394	0.000355	3.546985	1.201751	-0.000142
1375	1.3671e+02	-14.7541	-57.121434	0.000284	2.837588	0.961401	-0.000114
1376	1.3681e+02	-14.7958	-57.242548	0.000304	3.040273	1.030072	-0.000122
1377	1.3691e+02	-14.8456	-57.416144	0.000436	4.357724	1.476437	-0.000174
1378	1.3701e+02	-14.8793	-57.549370	0.000334	3.344300	1.133079	-0.000134
1379	1.3711e+02	-14.9113	-57.678558	0.000324	3.242957	1.098744	-0.000130
1380	1.3721e+02	-14.9547	-57.799672	0.000304	3.040273	1.030072	-0.000122
1381	1.3731e+02	-14.9932	-57.920786	0.000304	3.040273	1.030072	-0.000122
1382	1.3741e+02	-15.0349	-58.082272	0.000405	4.053697	1.373430	-0.000162
1383	1.3751e+02	-15.0814	-58.191275	0.000274	2.736245	0.927065	-0.000110
1384	1.3761e+02	-15.1135	-58.360834	0.000426	4.256382	1.442101	-0.000170
1385	1.3771e+02	-15.1520	-58.469837	0.000274	2.736245	0.927065	-0.000110
1386	1.3781e+02	-15.1905	-58.619211	0.000375	3.749670	1.270422	-0.000150
1387	1.3791e+02	-15.2322	-58.772622	0.000385	3.851012	1.304758	-0.000154
1388	1.3801e+02	-15.2755	-58.905848	0.000334	3.344300	1.133079	-0.000134
1389	1.3811e+02	-15.3076	-59.043110	0.000345	3.445642	1.167415	-0.000138
1390	1.3821e+02	-15.3686	-59.135964	0.000233	2.330876	0.789722	-0.000093
1391	1.3831e+02	-15.3926	-59.273227	0.000345	3.445642	1.167415	-0.000138
1392	1.3840e+02	-15.4327	-59.414527	0.000355	3.546985	1.201751	-0.000142
1393	1.3850e+02	-15.4808	-59.551789	0.000345	3.445642	1.167415	-0.000138
1394	1.3860e+02	-15.5113	-59.701163	0.000375	3.749670	1.270422	-0.000150
1395	1.3870e+02	-15.5611	-59.814203	0.000284	2.837588	0.961401	-0.000114
1396	1.3880e+02	-15.5867	-59.955503	0.000355	3.546985	1.201751	-0.000142
1397	1.3890e+02	-15.6413	-60.096803	0.000355	3.546985	1.201751	-0.000142
1398	1.3900e+02	-15.6766	-60.213880	0.000294	2.938930	0.995736	-0.000118
1399	1.3910e+02	-15.7151	-60.367291	0.000385	3.851012	1.304758	-0.000154
1400	1.3920e+02	-15.7632	-60.460145	0.000233	2.330876	0.789722	-0.000093
1401	1.3930e+02	-15.8001	-60.629705	0.000426	4.256382	1.442101	-0.000170
1402	1.3940e+02	-15.8386	-60.738707	0.000274	2.736245	0.927065	-0.000110
1403	1.3950e+02	-15.8723	-60.855784	0.000294	2.938930	0.995736	-0.000118
1404	1.3960e+02	-15.9156	-61.057641	0.000507	5.067121	1.716787	-0.000203
1405	1.3970e+02	-15.9605	-61.142421	0.000213	2.128191	0.721051	-0.000085
1406	1.3980e+02	-15.9910	-61.320055	0.000446	4.459066	1.510773	-0.000179
1407	1.3990e+02	-16.0311	-61.437132	0.000294	2.938930	0.995736	-0.000118
1408	1.4000e+02	-16.0712	-61.525949	0.000223	2.229533	0.755386	-0.000089
1409	1.4010e+02	-16.1241	-61.695508	0.000426	4.256382	1.442101	-0.000170
1410	1.4020e+02	-16.1514	-61.812585	0.000294	2.938930	0.995736	-0.000118
1411	1.4029e+02	-16.1947	-61.945811	0.000334	3.344300	1.133079	-0.000134
1412	1.4039e+02	-16.2332	-62.103259	0.000395	3.952354	1.339094	-0.000158
1413	1.4049e+02	-16.2717	-62.224373	0.000304	3.040273	1.030072	-0.000122
1414	1.4059e+02	-16.3118	-62.365673	0.000355	3.546985	1.201751	-0.000142
1415	1.4069e+02	-16.3600	-62.502935	0.000345	3.445642	1.167415	-0.000138
1416	1.4079e+02	-16.3937	-62.632124	0.000324	3.242957	1.098744	-0.000130
1417	1.4089e+02	-16.4322	-62.737089	0.000263	2.634903	0.892729	-0.000105
1418	1.4099e+02	-16.4739	-62.890501	0.000385	3.851012	1.304758	-0.000154
1419	1.4109e+02	-16.5188	-63.019689	0.000324	3.242957	1.098744	-0.000130
1420	1.4119e+02	-16.5525	-63.148877	0.000324	3.242957	1.098744	-0.000130
1421	1.4129e+02	-16.5830	-63.310363	0.000405	4.053697	1.373430	-0.000162
1422	1.4139e+02	-16.6359	-63.455700	0.000365	3.648327	1.236087	-0.000146
1423	1.4149e+02	-16.6680	-63.556628	0.000253	2.533560	0.858394	-0.000101
1424	1.4159e+02	-16.7145	-63.697928	0.000355	3.546985	1.201751	-0.000142
1425	1.4169e+02	-16.7514	-63.815005	0.000294	2.938930	0.995736	-0.000118
1426	1.4179e+02	-16.7883	-63.968416	0.000385	3.851012	1.304758	-0.000154
1427	1.4189e+02	-16.8332	-64.113753	0.000365	3.648327	1.236087	-0.000146
1428	1.4199e+02	-16.8717	-64.242941	0.000324	3.242957	1.098744	-0.000130
1429	1.4209e+02	-16.9038	-64.392315	0.000375	3.749670	1.270422	-0.000150
1430	1.4219e+02	-16.9487	-64.541689	0.000375	3.749670	1.270422	-0.000150
1431	1.4228e+02	-16.9985	-64.614357	0.000182	1.824164	0.618043	-0.000073
1432	1.4238e+02	-17.0257	-64.771806	0.000395	3.952354	1.339094	-0.000158
1433	1.4248e+02	-17.0722	-64.945403	0.000436	4.357724	1.476437	-0.000174
1434	1.4258e+02	-17.1027	-65.086702	0.000355	3.546985	1.201751	-0.000142
1435	1.4268e+02	-17.1573	-65.240114	0.000385	3.851012	1.304758	-0.000154
1436	1.4278e+02	-17.1829	-65.361228	0.000304	3.040273	1.030072	-0.000122
1437	1.4288e+02	-17.2198	-65.494453	0.000334	3.344300	1.133079	-0.000134
1438	1.4298e+02	-17.2728	-65.619604	0.000314	3.141615	1.064408	-0.000126
1439	1.4308e+02	-17.3097	-65.744755	0.000314	3.141615	1.064408	-0.000126
1440	1.4318e+02	-17.3498	-65.906241	0.000405	4.053697	1.373430	-0.000162
1441	1.4328e+02	-17.3979	-66.035429	0.000324	3.242957	1.098744	-0.000130
1442	1.4338e+02	-17.4252	-66.204989	0.000426	4.256382	1.442101	-0.000170
1443	1.4348e+02	-17.4701	-66.301880	0.000243	2.432218	0.824058	-0.000097
1444	1.4358e+02	-17.5022	-66.463366	0.000405	4.053697	1.373430	-0.000162
1445	1.4368e+02	-17.5519	-66.572368	0.000274	2.736245	0.927065	-0.000110
1446	1.4378e+02	-17.5872	-66.737891	0.000416	4.155039	1.407765	-0.000166
1447	1.4388e+02	-17.6257	-66.863042	0.000314	3.141615	1.064408	-0.000126
1448	1.4398e+02	-17.6754	-66.988193	0.000314	3.141615	1.064408	-0.000126
1449	1.4408e+02	-17.7027	-67.133530	0.000365	3.648327	1.236087	-0.000146
1450	1.4418e+02	-17.7492	-67.234459	0.000253	2.533560	0.858394	-0.000101
1451	1.4428e+02	-17.7942	-67.379795	0.000365	3.648327	1.236087	-0.000146
1452	1.4437e+02	-17.8407	-67.569541	0.000476	4.763094	1.613780	-0.000191
1453	1.4447e+02	-17.8663	-67.718915	0.000375	3.749670	1.270422	-0.000150
1454	1.4457e+02	-17.9016	-67.831955	0.000284	2.837588	0.961401	-0.000114
1455	1.4467e+02	-17.9482	-68.005552	0.000436	4.357724	1.476437	-0.000174
1456	1.4477e+02	-17.9883	-68.142814	0.000345	3.445642	1.167415	-0.000138
1457	1.4487e+02	-18.0284	-68.304300	0.000405	4.053697	1.373430	-0.000162
1458	1.4497e+02	-18.0605	-68.437525	0.000334	3.344300	1.133079	-0.000134
1459	1.4507e+02	-18.1054	-68.538453	0.000253	2.533560	0.858394	-0.000101
1460	1.4517e+02	-18.1407	-68.695902	0.000395	3.952354	1.339094	-0.000158
1461	1.4527e+02	-18.1888	-68.833164	0.000345	3.445642	1.167415	-0.000138
1462	1.4537e+02	-18.2225	-69.006761	0.000436	4.357724	1.476437	-0.000174
1463	1.4547e+02	-18.2706	-69.127875	0.000304	3.040273	1.030072	-0.000122
1464	1.4557e+02	-18.3011	-69.265138	0.000345	3.445642	1.167415	-0.000138
1465	1.4567e+02	-18.3428	-69.434698	0.000426	4.256382	1.442101	-0.000170
1466	1.4577e+02	-18.3909	-69.575997	0.000355	3.546985	1.201751	-0.000142
1467	1.4587e+02	-18.4262	-69.697111	0.000304	3.040273	1.030072	-0.000122
1468	1.4597e+02	-18.4759	-69.858597	0.000405	4.053697	1.373430	-0.000162
1469	1.4607e+02	-18.5032	-69.951451	0.000233	2.330876	0.789722	-0.000093
1470	1.4617e+02	-18.5465	-70.129085	0.000446	4.459066	1.510773	-0.000179
1471	1.4626e+02	-18.5818	-70.270385	0.000355	3.546985	1.201751	-0.000142
1472	1.4636e+02	-18.6203	-70.411684	0.000355	3.546985	1.201751	-0.000142
1473	1.4646e+02	-18.6701	-70.565096	0.000385	3.851012	1.304758	-0.000154
1474	1.4656e+02	-18.7021	-70.702358	0.000345	3.445642	1.167415	-0.000138
1475	1.4666e+02	-18.7471	-70.819435	0.000294	2.938930	0.995736	-0.000118
1476	1.4676e+02	-18.7791	-70.984958	0.000416	4.155039	1.407765	-0.000166
1477	1.4686e+02	-18.8273	-71.102035	0.000294	2.938930	0.995736	-0.000118
1478	1.4696e+02	-18.8497	-71.275631	0.000436	4.357724	1.476437	-0.000174
1479	1.4706e+02	-18.9011	-71.412894	0.000345	3.445642	1.167415	-0.000138
1480	1.4716e+02	-18.9508	-71.570342	0.000395	3.952354	1.339094	-0.000158
1481	1.4726e+02	-18.9813	-71.735865	0.000416	4.155039	1.407765	-0.000166
1482	1.4736e+02	-19.0246	-71.836793	0.000253	2.533560	0.858394	-0.000101
1483	1.4746e+02	-19.0647	-71.990204	0.000385	3.851012	1.304758	-0.000154
1484	1.4756e+02	-19.1032	-72.159764	0.000426	4.256382	1.442101	-0.000170
1485	1.4766e+02	-19.1465	-72.284915	0.000314	3.141615	1.064408	-0.000126
1486	1.4776e+02	-19.1898	-72.466586	0.000456	4.560409	1.545108	-0.000183
1487	1.4786e+02	-19.2203	-72.535218	0.000172	1.722821	0.583708	-0.000069
1488	1.4796e+02	-19.2572	-72.724963	0.000476	4.763094	1.613780	-0.000191
1489	1.4806e+02	-19.3037	-72.805706	0.000203	2.026848	0.686715	-0.000081
1490	1.4816e+02	-19.3374	-73.027748	0.000557	5.573833	1.888466	-0.000223
1491	1.4825e+02	-19.3920	-73.148862	0.000304	3.040273	1.030072	-0.000122
1492	1.4835e+02	-19.4160	-73.310348	0.000405	4.053697	1.373430	-0.000162
1493	1.4845e+02	-19.4561	-73.455685	0.000365	3.648327	1.236087	-0.000146
1494	1.4855e+02	-19.4962	-73.576799	0.000304	3.040273	1.030072	-0.000122
1495	1.4865e+02	-19.5363	-73.722136	0.000365	3.648327	1.236087	-0.000146
1496	1.4875e+02	-19.5813	-73.859398	0.000345	3.445642	1.167415	-0.000138
1497	1.4885e+02	-19.6246	-74.049144	0.000476	4.763094	1.613780	-0.000191
1498	1.4895e+02	-19.6599	-74.182369	0.000334	3.344300	1.133079	-0.000134
1499	1.4905e+02	-19.6968	-74.311558	0.000324	3.242957	1.098744	-0.000130
1500	1.4915e+02	-19.7353	-74.456894	0.000365	3.648327	1.236087	-0.000146
1501	1.4925e+02	-19.7802	-74.618380	0.000405	4.053697	1.373430	-0.000162
1502	1.4935e+02	-19.8171	-74.759680	0.000355	3.546985	1.201751	-0.000142
1503	1.4945e+02	-19.8588	-74.933276	0.000436	4.357724	1.476437	-0.000174
1504	1.4955e+02	-19.8861	-75.030168	0.000243	2.432218	0.824058	-0.000097
1505	1.4965e+02	-19.9390	-75.199727	0.000426	4.256382	1.442101	-0.000170
1506	1.4975e+02	-19.9759	-75.316804	0.000294	2.938930	0.995736	-0.000118
1507	1.4985e+02	-20.0160	-75.486364	0.000426	4.256382	1.442101	-0.000170
1508	1.4995e+02	-19.9759	-75.413696	0.000182	1.824164	0.618043	0.000073
1509	1.5005e+02	-19.9454	-75.365250	0.000122	1.216109	0.412029	0.000049
1510	1.5015e+02	-19.8973	-75.264322	0.000253	2.533560	0.858394	0.000101
1511	1.5025e+02	-19.8588	-75.187616	0.000193	1.925506	0.652379	0.000077
1512	1.5034e+02	-19.8139	-75.143207	0.000111	1.114767	0.377693	0.000045
1513	1.5044e+02	-19.7834	-75.034205	0.000274	2.736245	0.927065	0.000110
1514	1.5054e+02	-19.7337	-74.957499	0.000193	1.925506	0.652379	0.000077
1515	1.5064e+02	-19.7000	-74.900979	0.000142	1.418794	0.480700	0.000057
1516	1.5074e+02	-19.6599	-74.763717	0.000345	3.445642	1.167415	0.000138
1517	1.5084e+02	-19.6198	-74.691048	0.000182	1.824164	0.618043	0.000073
1518	1.5094e+02	-19.5732	-74.618380	0.000182	1.824164	0.618043	0.000073
1519	1.5104e+02	-19.5380	-74.489192	0.000324	3.242957	1.098744	0.000130
1520	1.5114e+02	-19.5011	-74.412486	0.000193	1.925506	0.652379	0.000077
1521	1.5124e+02	-19.4513	-74.331743	0.000203	2.026848	0.686715	0.000081
1522	1.5134e+02	-19.4144	-74.287335	0.000111	1.114767	0.377693	0.000045
1523	1.5144e+02	-19.3807	-74.178332	0.000274	2.736245	0.927065	0.000110
1524	1.5154e+02	-19.3454	-74.049144	0.000324	3.242957	1.098744	0.000130
1525	1.5164e+02	-19.3005	-73.968401	0.000203	2.026848	0.686715	0.000081
1526	1.5174e+02	-19.2604	-73.867473	0.000253	2.533560	0.858394	0.000101
1527	1.5184e+02	-19.2251	-73.782693	0.000213	2.128191	0.721051	0.000085
1528	1.5194e+02	-19.1770	-73.681764	0.000253	2.533560	0.858394	0.000101
1529	1.5204e+02	-19.1481	-73.601022	0.000203	2.026848	0.686715	0.000081
1530	1.5214e+02	-19.1000	-73.487982	0.000284	2.837588	0.961401	0.000114
1531	1.5224e+02	-19.0695	-73.403202	0.000213	2.128191	0.721051	0.000085
1532	1.5233e+02	-19.0246	-73.298236	0.000263	2.634903	0.892729	0.000105
1533	1.5243e+02	-18.9845	-73.189234	0.000274	2.736245	0.927065	0.000110
1534	1.5253e+02	-18.9572	-73.080231	0.000274	2.736245	0.927065	0.000110
1535	1.5263e+02	-18.9043	-72.959117	0.000304	3.040273	1.030072	0.000122
1536	1.5273e+02	-18.8690	-72.866263	0.000233	2.330876	0.789722	0.000093
1537	1.5283e+02	-18.8225	-72.793594	0.000182	1.824164	0.618043	0.000073
1538	1.5293e+02	-18.7791	-72.692666	0.000253	2.533560	0.858394	0.000101
1539	1.5303e+02	-18.7406	-72.591738	0.000253	2.533560	0.858394	0.000101
1540	1.5313e+02	-18.7021	-72.494846	0.000243	2.432218	0.824058	0.000097
1541	1.5323e+02	-18.6604	-72.341435	0.000385	3.851012	1.304758	0.000154
1542	1.5333e+02	-18.6267	-72.236470	0.000263	2.634903	0.892729	0.000105
1543	1.5343e+02	-18.5915	-72.171876	0.000162	1.621479	0.549372	0.000065
1544	1.5353e+02	-18.5401	-72.046724	0.000314	3.141615	1.064408	0.000126
1545	1.5363e+02	-18.5080	-71.949833	0.000243	2.432218	0.824058	0.000097
1546	1.5373e+02	-18.4631	-71.852942	0.000243	2.432218	0.824058	0.000097
1547	1.5383e+02	-18.4262	-71.743939	0.000274	2.736245	0.927065	0.000110
1548	1.5393e+02	-18.3925	-71.614751	0.000324	3.242957	1.098744	0.000130
1549	1.5403e+02	-18.3476	-71.517860	0.000243	2.432218	0.824058	0.000097
1550	1.5413e+02	-18.3091	-71.429043	0.000223	2.229533	0.755386	0.000089
1551	1.5422e+02	-18.2690	-71.271594	0.000395	3.952354	1.339094	0.000158
1552	1.5432e+02	-18.2353	-71.166629	0.000263	2.634903	0.892729	0.000105
1553	1.5442e+02	-18.1920	-71.102035	0.000162	1.621479	0.549372	0.000065
1554	1.5452e+02	-18.1407	-70.972846	0.000324	3.242957	1.098744	0.000130
1555	1.5462e+02	-18.1070	-70.835584	0.000345	3.445642	1.167415	0.000138
1556	1.5472e+02	-18.0669	-70.730618	0.000263	2.634903	0.892729	0.000105
1557	1.5482e+02	-18.0091	-70.661987	0.000172	1.722821	0.583708	0.000069
1558	1.5492e+02	-17.9802	-70.552984	0.000274	2.736245	0.927065	0.000110
1559	1.5502e+02	-17.9514	-70.415722	0.000345	3.445642	1.167415	0.000138
1560	1.5512e+02	-17.9032	-70.318830	0.000243	2.432218	0.824058	0.000097
1561	1.5522e+02	-17.8679	-70.225976	0.000233	2.330876	0.789722	0.000093
1562	1.5532e+02	-17.8230	-70.104862	0.000304	3.040273	1.030072	0.000122
1563	1.5542e+02	-17.7845	-70.003934	0.000253	2.533560	0.858394	0.000101
1564	1.5552e+02	-17.7508	-69.927228	0.000193	1.925506	0.652379	0.000077
1565	1.5562e+02	-17.7123	-69.814188	0.000284	2.837588	0.961401	0.000114
1566	1.5572e+02	-17.6770	-69.697111	0.000294	2.938930	0.995736	0.000118
1567	1.5582e+02	-17.6321	-69.535626	0.000405	4.053697	1.373430	0.000162
1568	1.5592e+02	-17.5872	-69.446809	0.000223	2.229533	0.755386	0.000089
1569	1.5602e+02	-17.5423	-69.345881	0.000253	2.533560	0.858394	0.000101
1570	1.5612e+02	-17.5038	-69.281286	0.000162	1.621479	0.549372	0.000065
1571	1.5622e+02	-17.4717	-69.123838	0.000395	3.952354	1.339094	0.000158
1572	1.5631e+02	-17.4188	-69.055207	0.000172	1.722821	0.583708	0.000069
1573	1.5641e+02	-17.3867	-68.897759	0.000395	3.952354	1.339094	0.000158
1574	1.5651e+02	-17.3514	-68.776644	0.000304	3.040273	1.030072	0.000122
1575	1.5661e+02	-17.3129	-68.663605	0.000284	2.837588	0.961401	0.000114
1576	1.5671e+02	-17.2648	-68.570751	0.000233	2.330876	0.789722	0.000093
1577	1.5681e+02	-17.2311	-68.457711	0.000284	2.837588	0.961401	0.000114
1578	1.5691e+02	-17.1926	-68.352745	0.000263	2.634903	0.892729	0.000105
1579	1.5701e+02	-17.1541	-68.227594	0.000314	3.141615	1.064408	0.000126
1580	1.5711e+02	-17.1172	-68.082257	0.000365	3.648327	1.236087	0.000146
1581	1.5721e+02	-17.0642	-68.025737	0.000142	1.418794	0.480700	0.000057
1582	1.5731e+02	-17.0209	-67.900586	0.000314	3.141615	1.064408	0.000126
1583	1.5741e+02	-16.9920	-67.799658	0.000253	2.533560	0.858394	0.000101
1584	1.5751e+02	-16.9519	-67.658358	0.000355	3.546985	1.201751	0.000142
1585	1.5761e+02	-16.9054	-67.549355	0.000274	2.736245	0.927065	0.000110
1586	1.5771e+02	-16.8733	-67.460538	0.000223	2.229533	0.755386	0.000089
1587	1.5781e+02	-16.8316	-67.335387	0.000314	3.141615	1.064408	0.000126
1588	1.5791e+02	-16.7947	-67.262719	0.000182	1.824164	0.618043	0.000073
1589	1.5801e+02	-16.7514	-67.105270	0.000395	3.952354	1.339094	0.000158
1590	1.5811e+02	-16.7097	-66.951859	0.000385	3.851012	1.304758	0.000154
1591	1.5821e+02	-16.6648	-66.903413	0.000122	1.216109	0.412029	0.000049
1592	1.5830e+02	-16.6295	-66.818634	0.000213	2.128191	0.721051	0.000085
1593	1.5840e+02	-16.5990	-66.681371	0.000345	3.445642	1.167415	0.000138
1594	1.5850e+02	-16.5525	-66.560257	0.000304	3.040273	1.030072	0.000122
1595	1.5860e+02	-16.5124	-66.410883	0.000375	3.749670	1.270422	0.000150
1596	1.5870e+02	-16.4658	-66.313992	0.000243	2.432218	0.824058	0.000097
1597	1.5880e+02	-16.4370	-66.217100	0.000243	2.432218	0.824058	0.000097
1598	1.5890e+02	-16.3856	-66.083875	0.000334	3.344300	1.133079	0.000134
1599	1.5900e+02	-16.3552	-66.019281	0.000162	1.621479	0.549372	0.000065
1600	1.5910e+02	-16.3134	-65.877981	0.000355	3.546985	1.201751	0.000142
1601	1.5920e+02	-16.2685	-65.773015	0.000263	2.634903	0.892729	0.000105
1602	1.5930e+02	-16.2364	-65.668050	0.000263	2.634903	0.892729	0.000105
1603	1.5940e+02	-16.1899	-65.518676	0.000375	3.749670	1.270422	0.000150
1604	1.5950e+02	-16.1530	-65.425822	0.000233	2.330876	0.789722	0.000093
1605	1.5960e+02	-16.1209	-65.337005	0.000223	2.229533	0.755386	0.000089
1606	1.5970e+02	-16.0744	-65.191668	0.000365	3.648327	1.236087	0.000146
1607	1.5980e+02	-16.0391	-65.086702	0.000263	2.634903	0.892729	0.000105
1608	1.5990e+02	-15.9910	-64.993848	0.000233	2.330876	0.789722	0.000093
1609	1.6000e+02	-15.9541	-64.860623	0.000334	3.344300	1.133079	0.000134
1610	1.6010e+02	-15.9028	-64.751620	0.000274	2.736245	0.927065	0.000110
1611	1.6019e+02	-15.8771	-64.654729	0.000243	2.432218	0.824058	0.000097
1612	1.6029e+02	-15.8322	-64.529578	0.000314	3.141615	1.064408	0.000126
1613	1.6039e+02	-15.7937	-64.392315	0.000345	3.445642	1.167415	0.000138
1614	1.6049e+02	-15.7536	-64.259090	0.000334	3.344300	1.133079	0.000134
1615	1.6059e+02	-15.7135	-64.158161	0.000253	2.533560	0.858394	0.000101
1616	1.6069e+02	-15.6846	-64.065307	0.000233	2.330876	0.789722	0.000093
1617	1.6079e+02	-15.6300	-63.980527	0.000213	2.128191	0.721051	0.000085
1618	1.6089e+02	-15.5964	-63.819042	0.000405	4.053697	1.373430	0.000162
1619	1.6099e+02	-15.5595	-63.701965	0.000294	2.938930	0.995736	0.000118
1620	1.6109e+02	-15.5226	-63.617185	0.000213	2.128191	0.721051	0.000085
1621	1.6119e+02	-15.4744	-63.471848	0.000365	3.648327	1.236087	0.000146
1622	1.6129e+02	-15.4199	-63.378994	0.000233	2.330876	0.789722	0.000093
1623	1.6139e+02	-15.4054	-63.286140	0.000233	2.330876	0.789722	0.000093
1624	1.6149e+02	-15.3573	-63.169063	0.000294	2.938930	0.995736	0.000118
1625	1.6159e+02	-15.3252	-63.027763	0.000355	3.546985	1.201751	0.000142
1626	1.6169e+02	-15.2787	-62.918760	0.000274	2.736245	0.927065	0.000110
1627	1.6179e+02	-15.2338	-62.813795	0.000263	2.634903	0.892729	0.000105
1628	1.6189e+02	-15.1969	-62.680569	0.000334	3.344300	1.133079	0.000134
1629	1.6199e+02	-15.1584	-62.579641	0.000253	2.533560	0.858394	0.000101
1630	1.6209e+02	-15.1263	-62.478713	0.000253	2.533560	0.858394	0.000101
1631	1.6219e+02	-15.0782	-62.365673	0.000284	2.837588	0.961401	0.000114
1632	1.6228e+02	-15.0397	-62.268782	0.000243	2.432218	0.824058	0.000097
1633	1.6238e+02	-15.0012	-62.123445	0.000365	3.648327	1.236087	0.000146
1634	1.6248e+02	-14.9595	-62.030591	0.000233	2.330876	0.789722	0.000093
1635	1.6258e+02	-14.9146	-61.885254	0.000365	3.648327	1.236087	0.000146
1636	1.6268e+02	-14.8744	-61.784325	0.000253	2.533560	0.858394	0.000101
1637	1.6278e+02	-14.8392	-61.683397	0.000253	2.533560	0.858394	0.000101
1638	1.6288e+02	-14.7974	-61.529986	0.000385	3.851012	1.304758	0.000154
1639	1.6298e+02	-14.7573	-61.437132	0.000233	2.330876	0.789722	0.000093
1640	1.6308e+02	-14.7140	-61.307943	0.000324	3.242957	1.098744	0.000130
1641	1.6318e+02	-14.6868	-61.194904	0.000284	2.837588	0.961401	0.000114
1642	1.6328e+02	-14.6466	-61.085901	0.000274	2.736245	0.927065	0.000110
1643	1.6338e+02	-14.5953	-60.948638	0.000345	3.445642	1.167415	0.000138
1644	1.6348e+02	-14.5632	-60.855784	0.000233	2.330876	0.789722	0.000093
1645	1.6358e+02	-14.5183	-60.726596	0.000324	3.242957	1.098744	0.000130
1646	1.6368e+02	-14.4782	-60.609519	0.000294	2.938930	0.995736	0.000118
1647	1.6378e+02	-14.4333	-60.464182	0.000365	3.648327	1.236087	0.000146
1648	1.6388e+02	-14.3932	-60.371328	0.000233	2.330876	0.789722	0.000093
1649	1.6398e+02	-14.3627	-60.274437	0.000243	2.432218	0.824058	0.000097
1650	1.6408e+02	-14.3178	-60.145248	0.000324	3.242957	1.098744	0.000130
1651	1.6418e+02	-14.2777	-59.991837	0.000385	3.851012	1.304758	0.000154
1652	1.6427e+02	-14.2456	-59.870723	0.000304	3.040273	1.030072	0.000122
1653	1.6437e+02	-14.2023	-59.773832	0.000243	2.432218	0.824058	0.000097
1654	1.6447e+02	-14.1670	-59.652718	0.000304	3.040273	1.030072	0.000122
1655	1.6457e+02	-14.1156	-59.523529	0.000324	3.242957	1.098744	0.000130
1656	1.6467e+02	-14.0836	-59.418564	0.000263	2.634903	0.892729	0.000105
1657	1.6477e+02	-14.0435	-59.285338	0.000334	3.344300	1.133079	0.000134
1658	1.6487e+02	-14.0001	-59.188447	0.000243	2.432218	0.824058	0.000097
1659	1.6497e+02	-13.9504	-59.047147	0.000355	3.546985	1.201751	0.000142
1660	1.6507e+02	-13.9183	-58.934108	0.000284	2.837588	0.961401	0.000114
1661	1.6517e+02	-13.8798	-58.804919	0.000324	3.242957	1.098744	0.000130
1662	1.6527e+02	-13.8477	-58.667657	0.000345	3.445642	1.167415	0.000138
1663	1.6537e+02	-13.8044	-58.542505	0.000314	3.141615	1.064408	0.000126
1664	1.6547e+02	-13.7595	-58.445614	0.000243	2.432218	0.824058	0.000097
1665	1.6557e+02	-13.7242	-58.320463	0.000314	3.141615	1.064408	0.000126
1666	1.6567e+02	-13.6777	-58.223572	0.000243	2.432218	0.824058	0.000097
1667	1.6577e+02	-13.6440	-58.074198	0.000375	3.749670	1.270422	0.000150
1668	1.6587e+02	-13.5991	-57.993455	0.000203	2.026848	0.686715	0.000081
1669	1.6597e+02	-13.5686	-57.856192	0.000345	3.445642	1.167415	0.000138
1670	1.6607e+02	-13.5189	-57.718930	0.000345	3.445642	1.167415	0.000138
1671	1.6616e+02	-13.4884	-57.565518	0.000385	3.851012	1.304758	0.000154
1672	1.6626e+02	-13.4354	-57.496887	0.000172	1.722821	0.583708	0.000069
1673	1.6636e+02	-13.4114	-57.347513	0.000375	3.749670	1.270422	0.000150
1674	1.6646e+02	-13.3584	-57.222362	0.000314	3.141615	1.064408	0.000126
1675	1.6656e+02	-13.3328	-57.101248	0.000304	3.040273	1.030072	0.000122
1676	1.6666e+02	-13.2895	-57.000319	0.000253	2.533560	0.858394	0.000101
1677	1.6676e+02	-13.2462	-56.850945	0.000375	3.749670	1.270422	0.000150
1678	1.6686e+02	-13.2060	-56.709646	0.000355	3.546985	1.201751	0.000142
1679	1.6696e+02	-13.1595	-56.576420	0.000334	3.344300	1.133079	0.000134
1680	1.6706e+02	-13.1242	-56.439158	0.000345	3.445642	1.167415	0.000138
1681	1.6716e+02	-13.0793	-56.338229	0.000253	2.533560	0.858394	0.000101
1682	1.6726e+02	-13.0504	-56.192892	0.000365	3.648327	1.236087	0.000146
1683	1.6736e+02	-13.0023	-56.079853	0.000284	2.837588	0.961401	0.000114
1684	1.6746e+02	-12.9606	-55.950664	0.000324	3.242957	1.098744	0.000130
1685	1.6756e+02	-12.9285	-55.797253	0.000385	3.851012	1.304758	0.000154
1686	1.6766e+02	-12.8836	-55.676139	0.000304	3.040273	1.030072	0.000122
1687	1.6776e+02	-12.8419	-55.563099	0.000284	2.837588	0.961401	0.000114
1688	1.6786e+02	-12.8178	-55.462171	0.000253	2.533560	0.858394	0.000101
1689	1.6796e+02	-12.7713	-55.320871	0.000355	3.546985	1.201751	0.000142
1690	1.6806e+02	-12.7264	-55.187646	0.000334	3.344300	1.133079	0.000134
1691	1.6816e+02	-12.6911	-55.054420	0.000334	3.344300	1.133079	0.000134
1692	1.6825e+02	-12.6526	-54.969640	0.000213	2.128191	0.721051	0.000085
1693	1.6835e+02	-12.6077	-54.800081	0.000426	4.256382	1.442101	0.000170
1694	1.6845e+02	-12.5563	-54.683004	0.000294	2.938930	0.995736	0.000118
1695	1.6855e+02	-12.5403	-54.537667	0.000365	3.648327	1.236087	0.000146
1696	1.6865e+02	-12.4922	-54.436738	0.000253	2.533560	0.858394	0.000101
1697	1.6875e+02	-12.4392	-54.287364	0.000375	3.749670	1.270422	0.000150
1698	1.6885e+02	-12.4136	-54.158176	0.000324	3.242957	1.098744	0.000130
1699	1.6895e+02	-12.3751	-54.049173	0.000274	2.736245	0.927065	0.000110
1700	1.6905e+02	-12.3237	-53.863465	0.000466	4.661751	1.579444	0.000187
1701	1.6915e+02	-12.2788	-53.734277	0.000324	3.242957	1.098744	0.000130
1702	1.6925e+02	-12.2515	-53.633348	0.000253	2.533560	0.858394	0.000101
1703	1.6935e+02	-12.2082	-53.500123	0.000334	3.344300	1.133079	0.000134
1704	1.6945e+02	-12.1745	-53.358823	0.000355	3.546985	1.201751	0.000142
1705	1.6955e+02	-12.1296	-53.233672	0.000314	3.141615	1.064408	0.000126
1706	1.6965e+02	-12.0799	-53.100446	0.000334	3.344300	1.133079	0.000134
1707	1.6975e+02	-12.0510	-52.971258	0.000324	3.242957	1.098744	0.000130
1708	1.6985e+02	-12.0061	-52.862255	0.000274	2.736245	0.927065	0.000110
1709	1.6995e+02	-11.9724	-52.676547	0.000466	4.661751	1.579444	0.000187
1710	1.7005e+02	-11.9339	-52.567544	0.000274	2.736245	0.927065	0.000110
1711	1.7015e+02	-11.8858	-52.422208	0.000365	3.648327	1.236087	0.000146
1712	1.7024e+02	-11.8521	-52.288982	0.000334	3.344300	1.133079	0.000134
1713	1.7034e+02	-11.8104	-52.143645	0.000365	3.648327	1.236087	0.000146
1714	1.7044e+02	-11.7638	-52.034643	0.000274	2.736245	0.927065	0.000110
1715	1.7054e+02	-11.7366	-51.897380	0.000345	3.445642	1.167415	0.000138
1716	1.7064e+02	-11.6916	-51.743969	0.000385	3.851012	1.304758	0.000154
1717	1.7074e+02	-11.6435	-51.659189	0.000213	2.128191	0.721051	0.000085
1718	1.7084e+02	-11.6130	-51.461369	0.000497	4.965779	1.682451	0.000199
1719	1.7094e+02	-11.5777	-51.356404	0.000263	2.634903	0.892729	0.000105
1720	1.7104e+02	-11.5296	-51.223178	0.000334	3.344300	1.133079	0.000134
1721	1.7114e+02	-11.5040	-51.061693	0.000405	4.053697	1.373430	0.000162
1722	1.7124e+02	-11.4494	-50.924430	0.000345	3.445642	1.167415	0.000138
1723	1.7134e+02	-11.4173	-50.827539	0.000243	2.432218	0.824058	0.000097
1724	1.7144e+02	-11.3740	-50.702388	0.000314	3.141615	1.064408	0.000126
1725	1.7154e+02	-11.3355	-50.553014	0.000375	3.749670	1.270422	0.000150
1726	1.7164e+02	-11.2810	-50.407677	0.000365	3.648327	1.236087	0.000146
1727	1.7174e+02	-11.2489	-50.310786	0.000243	2.432218	0.824058	0.000097
1728	1.7184e+02	-11.2088	-50.153337	0.000395	3.952354	1.339094	0.000158
1729	1.7194e+02	-11.1703	-50.008000	0.000365	3.648327	1.236087	0.000146
1730	1.7204e+02	-11.1366	-49.907072	0.000253	2.533560	0.858394	0.000101
1731	1.7213e+02	-11.0836	-49.737512	0.000426	4.256382	1.442101	0.000170
1732	1.7223e+02	-11.0532	-49.567953	0.000426	4.256382	1.442101	0.000170
1733	1.7233e+02	-11.0115	-49.446839	0.000304	3.040273	1.030072	0.000122
1734	1.7243e+02	-10.9681	-49.337836	0.000274	2.736245	0.927065	0.000110
1735	1.7253e+02	-10.9361	-49.192499	0.000365	3.648327	1.236087	0.000146
1736	1.7263e+02	-10.8879	-49.091571	0.000253	2.533560	0.858394	0.000101
1737	1.7273e+02	-10.8623	-48.901825	0.000476	4.763094	1.613780	0.000191
1738	1.7283e+02	-10.8125	-48.804934	0.000243	2.432218	0.824058	0.000097
1739	1.7293e+02	-10.7788	-48.667671	0.000345	3.445642	1.167415	0.000138
1740	1.7303e+02	-10.7419	-48.498112	0.000426	4.256382	1.442101	0.000170
1741	1.7313e+02	-10.7018	-48.385072	0.000284	2.837588	0.961401	0.000114
1742	1.7323e+02	-10.6489	-48.251846	0.000334	3.344300	1.133079	0.000134
1743	1.7333e+02	-10.6168	-48.094398	0.000395	3.952354	1.339094	0.000158
1744	1.7343e+02	-10.5735	-47.953098	0.000355	3.546985	1.201751	0.000142
1745	1.7353e+02	-10.5302	-47.840058	0.000284	2.837588	0.961401	0.000114
1746	1.7363e+02	-10.5029	-47.698759	0.000355	3.546985	1.201751	0.000142
1747	1.7373e+02	-10.4532	-47.541310	0.000395	3.952354	1.339094	0.000158
1748	1.7383e+02	-10.4067	-47.404048	0.000345	3.445642	1.167415	0.000138
1749	1.7393e+02	-10.3746	-47.270822	0.000334	3.344300	1.133079	0.000134
1750	1.7403e+02	-10.3345	-47.125485	0.000365	3.648327	1.236087	0.000146
1751	1.7413e+02	-10.2992	-46.951889	0.000436	4.357724	1.476437	0.000174
1752	1.7422e+02	-10.2494	-46.863072	0.000223	2.229533	0.755386	0.000089
1753	1.7432e+02	-10.2238	-46.721772	0.000355	3.546985	1.201751	0.000142
1754	1.7442e+02	-10.1853	-46.568361	0.000385	3.851012	1.304758	0.000154
1755	1.7452e+02	-10.1388	-46.443210	0.000314	3.141615	1.064408	0.000126
1756	1.7462e+02	-10.0922	-46.293836	0.000375	3.749670	1.270422	0.000150
1757	1.7472e+02	-10.0569	-46.132350	0.000405	4.053697	1.373430	0.000162
1758	1.7482e+02	-10.0249	-46.003162	0.000324	3.242957	1.098744	0.000130
1759	1.7492e+02	-9.9767	-45.894159	0.000274	2.736245	0.927065	0.000110
1760	1.7502e+02	-9.9366	-45.732674	0.000405	4.053697	1.373430	0.000162
1761	1.7512e+02	-9.9013	-45.623671	0.000274	2.736245	0.927065	0.000110
1762	1.7522e+02	-9.8612	-45.458148	0.000416	4.155039	1.407765	0.000166
1763	1.7532e+02	-9.8211	-45.324923	0.000334	3.344300	1.133079	0.000134
1764	1.7542e+02	-9.7826	-45.183623	0.000355	3.546985	1.201751	0.000142
1765	1.7552e+02	-9.7505	-45.058472	0.000314	3.141615	1.064408	0.000126
1766	1.7562e+02	-9.7104	-44.913135	0.000365	3.648327	1.236087	0.000146
1767	1.7572e+02	-9.6575	-44.747613	0.000416	4.155039	1.407765	0.000166
1768	1.7582e+02	-9.6061	-44.622461	0.000314	3.141615	1.064408	0.000126
1769	1.7592e+02	-9.5821	-44.493273	0.000324	3.242957	1.098744	0.000130
1770	1.7602e+02	-9.5388	-44.368122	0.000314	3.141615	1.064408	0.000126
1771	1.7612e+02	-9.5019	-44.279305	0.000223	2.229533	0.755386	0.000089
1772	1.7621e+02	-9.4586	-44.133968	0.000365	3.648327	1.236087	0.000146
1773	1.7631e+02	-9.4201	-43.988631	0.000365	3.648327	1.236087	0.000146
1774	1.7641e+02	-9.3783	-43.815034	0.000436	4.357724	1.476437	0.000174
1775	1.7651e+02	-9.3447	-43.734291	0.000203	2.026848	0.686715	0.000081
1776	1.7661e+02	-9.3029	-43.548583	0.000466	4.661751	1.579444	0.000187
1777	1.7671e+02	-9.2580	-43.391135	0.000395	3.952354	1.339094	0.000158
1778	1.7681e+02	-9.2292	-43.265984	0.000314	3.141615	1.064408	0.000126
1779	1.7691e+02	-9.1778	-43.140832	0.000314	3.141615	1.064408	0.000126
1780	1.7701e+02	-9.1425	-42.955124	0.000466	4.661751	1.579444	0.000187
1781	1.7711e+02	-9.1024	-42.894567	0.000152	1.520136	0.515036	0.000061
1782	1.7721e+02	-9.0575	-42.688673	0.000517	5.168463	1.751123	0.000207
1783	1.7731e+02	-9.0190	-42.591782	0.000243	2.432218	0.824058	0.000097
1784	1.7741e+02	-8.9805	-42.474705	0.000294	2.938930	0.995736	0.000118
1785	1.7751e+02	-8.9420	-42.317257	0.000395	3.952354	1.339094	0.000158
1786	1.7761e+02	-8.9003	-42.143660	0.000436	4.357724	1.476437	0.000174
1787	1.7771e+02	-8.8602	-42.038694	0.000263	2.634903	0.892729	0.000105
1788	1.7781e+02	-8.8217	-41.852986	0.000466	4.661751	1.579444	0.000187
1789	1.7791e+02	-8.7800	-41.748021	0.000263	2.634903	0.892729	0.000105
1790	1.7801e+02	-8.7367	-41.582498	0.000416	4.155039	1.407765	0.000166
1791	1.7810e+02	-8.7046	-41.521941	0.000152	1.520136	0.515036	0.000061
1792	1.7820e+02	-8.6596	-41.340270	0.000456	4.560409	1.545108	0.000183
1793	1.7830e+02	-8.6195	-41.203007	0.000345	3.445642	1.167415	0.000138
1794	1.7840e+02	-8.5875	-41.073819	0.000324	3.242957	1.098744	0.000130
1795	1.7850e+02	-8.5281	-40.948668	0.000314	3.141615	1.064408	0.000126
1796	1.7860e+02	-8.4976	-40.807368	0.000355	3.546985	1.201751	0.000142
1797	1.7870e+02	-8.4639	-40.605511	0.000507	5.067121	1.716787	0.000203
1798	1.7880e+02	-8.4270	-40.512657	0.000233	2.330876	0.789722	0.000093
1799	1.7890e+02	-8.3853	-40.383469	0.000324	3.242957	1.098744	0.000130
1800	1.7900e+02	-8.3420	-40.217946	0.000416	4.155039	1.407765	0.000166
1801	1.7910e+02	-8.3115	-40.080684	0.000345	3.445642	1.167415	0.000138
1802	1.7920e+02	-8.2714	-39.943421	0.000345	3.445642	1.167415	0.000138
1803	1.7930e+02	-8.2233	-39.765787	0.000446	4.459066	1.510773	0.000179
1804	1.7940e+02	-8.1752	-39.632562	0.000334	3.344300	1.133079	0.000134
1805	1.7950e+02	-8.1415	-39.515485	0.000294	2.938930	0.995736	0.000118
1806	1.7960e+02	-8.1078	-39.370148	0.000365	3.648327	1.236087	0.000146
1807	1.7970e+02	-8.0677	-39.224811	0.000365	3.648327	1.236087	0.000146
1808	1.7980e+02	-8.0228	-39.071400	0.000385	3.851012	1.304758	0.000154
1809	1.7990e+02	-7.9859	-38.926063	0.000365	3.648327	1.236087	0.000146
1810	1.8000e+02	-7.9458	-38.808986	0.000294	2.938930	0.995736	0.000118
1811	1.8009e+02	-7.9057	-38.635389	0.000436	4.357724	1.476437	0.000174
1812	1.8019e+02	-7.8639	-38.526386	0.000274	2.736245	0.927065	0.000110
1813	1.8029e+02	-7.8271	-38.381049	0.000365	3.648327	1.236087	0.000146
1814	1.8039e+02	-7.7869	-38.215527	0.000416	4.155039	1.407765	0.000166
1815	1.8049e+02	-7.7484	-38.098450	0.000294	2.938930	0.995736	0.000118
1816	1.8059e+02	-7.6987	-37.953113	0.000365	3.648327	1.236087	0.000146
1817	1.8069e+02	-7.6618	-37.791628	0.000405	4.053697	1.373430	0.000162
1818	1.8079e+02	-7.6313	-37.646291	0.000365	3.648327	1.236087	0.000146
1819	1.8089e+02	-7.5912	-37.504991	0.000355	3.546985	1.201751	0.000142
1820	1.8099e+02	-7.5479	-37.343506	0.000405	4.053697	1.373430	0.000162
1821	1.8109e+02	-7.4998	-37.190094	0.000385	3.851012	1.304758	0.000154
1822	1.8119e+02	-7.4629	-37.060906	0.000324	3.242957	1.098744	0.000130
1823	1.8129e+02	-7.4340	-36.899421	0.000405	4.053697	1.373430	0.000162
1824	1.8139e+02	-7.3763	-36.766195	0.000334	3.344300	1.133079	0.000134
1825	1.8149e+02	-7.3522	-36.612784	0.000385	3.851012	1.304758	0.000154
1826	1.8159e+02	-7.3009	-36.499744	0.000284	2.837588	0.961401	0.000114
1827	1.8169e+02	-7.2736	-36.305962	0.000486	4.864436	1.648116	0.000195
1828	1.8179e+02	-7.2223	-36.200996	0.000263	2.634903	0.892729	0.000105
1829	1.8189e+02	-7.1886	-36.104105	0.000243	2.432218	0.824058	0.000097
1830	1.8199e+02	-7.1420	-35.906285	0.000497	4.965779	1.682451	0.000199
1831	1.8209e+02	-7.1132	-35.764986	0.000355	3.546985	1.201751	0.000142
1832	1.8218e+02	-7.0570	-35.579277	0.000466	4.661751	1.579444	0.000187
1833	1.8228e+02	-7.0314	-35.433940	0.000365	3.648327	1.236087	0.000146
1834	1.8238e+02	-6.9880	-35.288603	0.000365	3.648327	1.236087	0.000146
1835	1.8248e+02	-6.9463	-35.155378	0.000334	3.344300	1.133079	0.000134
1836	1.8258e+02	-6.9110	-35.022153	0.000334	3.344300	1.133079	0.000134
1837	1.8268e+02	-6.8773	-34.872779	0.000375	3.749670	1.270422	0.000150
1838	1.8278e+02	-6.8372	-34.703219	0.000426	4.256382	1.442101	0.000170
1839	1.8288e+02	-6.7907	-34.586142	0.000294	2.938930	0.995736	0.000118
1840	1.8298e+02	-6.7474	-34.444842	0.000355	3.546985	1.201751	0.000142
1841	1.8308e+02	-6.7105	-34.263171	0.000456	4.560409	1.545108	0.000183
1842	1.8318e+02	-6.6736	-34.150131	0.000284	2.837588	0.961401	0.000114
1843	1.8328e+02	-6.6255	-33.964423	0.000466	4.661751	1.579444	0.000187
1844	1.8338e+02	-6.5870	-33.794863	0.000426	4.256382	1.442101	0.000170
1845	1.8348e+02	-6.5501	-33.665675	0.000324	3.242957	1.098744	0.000130
1846	1.8358e+02	-6.5132	-33.512264	0.000385	3.851012	1.304758	0.000154
1847	1.8368e+02	-6.4715	-33.366927	0.000365	3.648327	1.236087	0.000146
1848	1.8378e+02	-6.4346	-33.209479	0.000395	3.952354	1.339094	0.000158
1849	1.8388e+02	-6.3848	-33.068179	0.000355	3.546985	1.201751	0.000142
1850	1.8398e+02	-6.3528	-32.886508	0.000456	4.560409	1.545108	0.000183
1851	1.8407e+02	-6.3143	-32.761357	0.000314	3.141615	1.064408	0.000126
1852	1.8417e+02	-6.2693	-32.583723	0.000446	4.459066	1.510773	0.000179
1853	1.8427e+02	-6.2308	-32.454534	0.000324	3.242957	1.098744	0.000130
1854	1.8437e+02	-6.1972	-32.297086	0.000395	3.952354	1.339094	0.000158
1855	1.8447e+02	-6.1522	-32.163860	0.000334	3.344300	1.133079	0.000134
1856	1.8457e+02	-6.1153	-32.018524	0.000365	3.648327	1.236087	0.000146
1857	1.8467e+02	-6.0816	-31.804555	0.000537	5.371148	1.819794	0.000215
1858	1.8477e+02	-6.0367	-31.695553	0.000274	2.736245	0.927065	0.000110
1859	1.8487e+02	-5.9902	-31.517919	0.000446	4.459066	1.510773	0.000179
1860	1.8497e+02	-5.9485	-31.372582	0.000365	3.648327	1.236087	0.000146
1861	1.8507e+02	-5.9164	-31.194948	0.000446	4.459066	1.510773	0.000179
1862	1.8517e+02	-5.8747	-31.049611	0.000365	3.648327	1.236087	0.000146
1863	1.8527e+02	-5.8394	-30.884088	0.000416	4.155039	1.407765	0.000166
1864	1.8537e+02	-5.7961	-30.722603	0.000405	4.053697	1.373430	0.000162
1865	1.8547e+02	-5.7608	-30.569192	0.000385	3.851012	1.304758	0.000154
1866	1.8557e+02	-5.7159	-30.440003	0.000324	3.242957	1.098744	0.000130
1867	1.8567e+02	-5.6742	-30.250258	0.000476	4.763094	1.613780	0.000191
1868	1.8577e+02	-5.6325	-30.084736	0.000416	4.155039	1.407765	0.000166
1869	1.8587e+02	-5.5972	-29.999956	0.000213	2.128191	0.721051	0.000085
1870	1.8597e+02	-5.5587	-29.814247	0.000466	4.661751	1.579444	0.000187
1871	1.8606e+02	-5.5121	-29.624502	0.000476	4.763094	1.613780	0.000191
1872	1.8616e+02	-5.4688	-29.467054	0.000395	3.952354	1.339094	0.000158
1873	1.8626e+02	-5.4416	-29.321717	0.000365	3.648327	1.236087	0.000146
1874	1.8636e+02	-5.3982	-29.176380	0.000365	3.648327	1.236087	0.000146
1875	1.8646e+02	-5.3533	-29.002783	0.000436	4.357724	1.476437	0.000174
1876	1.8656e+02	-5.3196	-28.833223	0.000426	4.256382	1.442101	0.000170
1877	1.8666e+02	-5.2731	-28.659627	0.000436	4.357724	1.476437	0.000174
1878	1.8676e+02	-5.2394	-28.522364	0.000345	3.445642	1.167415	0.000138
1879	1.8686e+02	-5.2025	-28.360879	0.000405	4.053697	1.373430	0.000162
1880	1.8696e+02	-5.1624	-28.183245	0.000446	4.459066	1.510773	0.000179
1881	1.8706e+02	-5.1111	-28.037908	0.000365	3.648327	1.236087	0.000146
1882	1.8716e+02	-5.0742	-27.860274	0.000446	4.459066	1.510773	0.000179
1883	1.8726e+02	-5.0325	-27.706863	0.000385	3.851012	1.304758	0.000154
1884	1.8736e+02	-4.9940	-27.525191	0.000456	4.560409	1.545108	0.000183
1885	1.8746e+02	-4.9587	-27.351595	0.000436	4.357724	1.476437	0.000174
1886	1.8756e+02	-4.9186	-27.218369	0.000334	3.344300	1.133079	0.000134
1887	1.8766e+02	-4.8769	-27.105329	0.000284	2.837588	0.961401	0.000114
1888	1.8776e+02	-4.8303	-26.907510	0.000497	4.965779	1.682451	0.000199
1889	1.8786e+02	-4.7983	-26.741987	0.000416	4.155039	1.407765	0.000166
1890	1.8796e+02	-4.7582	-26.600687	0.000355	3.546985	1.201751	0.000142
1891	1.8806e+02	-4.7213	-26.435165	0.000416	4.155039	1.407765	0.000166
1892	1.8815e+02	-4.6747	-26.233308	0.000507	5.067121	1.716787	0.000203
1893	1.8825e+02	-4.6362	-26.104120	0.000324	3.242957	1.098744	0.000130
1894	1.8835e+02	-4.5881	-25.934560	0.000426	4.256382	1.442101	0.000170
1895	1.8845e+02	-4.5624	-25.785186	0.000375	3.749670	1.270422	0.000150
1896	1.8855e+02	-4.5159	-25.615626	0.000426	4.256382	1.442101	0.000170
1897	1.8865e+02	-4.4790	-25.442029	0.000436	4.357724	1.476437	0.000174
1898	1.8875e+02	-4.4341	-25.300730	0.000355	3.546985	1.201751	0.000142
1899	1.8885e+02	-4.3988	-25.131170	0.000426	4.256382	1.442101	0.000170
1900	1.8895e+02	-4.3603	-24.949499	0.000456	4.560409	1.545108	0.000183
1901	1.8905e+02	-4.3202	-24.796088	0.000385	3.851012	1.304758	0.000154
1902	1.8915e+02	-4.2753	-24.670936	0.000314	3.141615	1.064408	0.000126
1903	1.8925e+02	-4.2432	-24.448894	0.000557	5.573833	1.888466	0.000223
1904	1.8935e+02	-4.1999	-24.343929	0.000263	2.634903	0.892729	0.000105
1905	1.8945e+02	-4.1582	-24.158220	0.000466	4.661751	1.579444	0.000187
1906	1.8955e+02	-4.1229	-23.972512	0.000466	4.661751	1.579444	0.000187
1907	1.8965e+02	-4.0844	-23.823138	0.000375	3.749670	1.270422	0.000150
1908	1.8975e+02	-4.0427	-23.685875	0.000345	3.445642	1.167415	0.000138
1909	1.8985e+02	-3.9961	-23.467870	0.000547	5.472491	1.854130	0.000219
1910	1.8995e+02	-3.9592	-23.310422	0.000395	3.952354	1.339094	0.000158
1911	1.9004e+02	-3.9240	-23.165085	0.000365	3.648327	1.236087	0.000146
1912	1.9014e+02	-3.8742	-23.003599	0.000405	4.053697	1.373430	0.000162
1913	1.9024e+02	-3.8502	-22.825965	0.000446	4.459066	1.510773	0.000179
1914	1.9034e+02	-3.7908	-22.648331	0.000446	4.459066	1.510773	0.000179
1915	1.9044e+02	-3.7683	-22.486846	0.000405	4.053697	1.373430	0.000162
1916	1.9054e+02	-3.7202	-22.309212	0.000446	4.459066	1.510773	0.000179
1917	1.9064e+02	-3.6833	-22.143690	0.000416	4.155039	1.407765	0.000166
1918	1.9074e+02	-3.6496	-21.978167	0.000416	4.155039	1.407765	0.000166
1919	1.9084e+02	-3.5919	-21.828793	0.000375	3.749670	1.270422	0.000150
1920	1.9094e+02	-3.5614	-21.630973	0.000497	4.965779	1.682451	0.000199
1921	1.9104e+02	-3.5277	-21.530045	0.000253	2.533560	0.858394	0.000101
1922	1.9114e+02	-3.4812	-21.356448	0.000436	4.357724	1.476437	0.000174
1923	1.9124e+02	-3.4427	-21.146517	0.000527	5.269806	1.785459	0.000211
1924	1.9134e+02	-3.3978	-21.001180	0.000365	3.648327	1.236087	0.000146
1925	1.9144e+02	-3.3657	-20.823546	0.000446	4.459066	1.510773	0.000179
1926	1.9154e+02	-3.3304	-20.662061	0.000405	4.053697	1.373430	0.000162
1927	1.9164e+02	-3.2871	-20.500575	0.000405	4.053697	1.373430	0.000162
1928	1.9174e+02	-3.2534	-20.335053	0.000416	4.155039	1.407765	0.000166
1929	1.9184e+02	-3.2069	-20.189716	0.000365	3.648327	1.236087	0.000146
1930	1.9194e+02	-3.1603	-20.032268	0.000395	3.952354	1.339094	0.000158
1931	1.9203e+02	-3.1315	-19.874819	0.000395	3.952354	1.339094	0.000158
1932	1.9213e+02	-3.0849	-19.701222	0.000436	4.357724	1.476437	0.000174
1933	1.9223e+02	-3.0529	-19.507440	0.000486	4.864436	1.648116	0.000195
1934	1.9233e+02	-3.0144	-19.333843	0.000436	4.357724	1.476437	0.000174
1935	1.9243e+02	-2.9694	-19.236952	0.000243	2.432218	0.824058	0.000097
1936	1.9253e+02	-2.9213	-18.986649	0.000628	6.283230	2.128816	0.000252
1937	1.9263e+02	-2.8940	-18.861498	0.000314	3.141615	1.064408	0.000126
1938	1.9273e+02	-2.8491	-18.651567	0.000527	5.269806	1.785459	0.000211
1939	1.9283e+02	-2.8090	-18.534490	0.000294	2.938930	0.995736	0.000118
1940	1.9293e+02	-2.7721	-18.364930	0.000426	4.256382	1.442101	0.000170
1941	1.9303e+02	-2.7256	-18.146925	0.000547	5.472491	1.854130	0.000219
1942	1.9313e+02	-2.6935	-17.977365	0.000426	4.256382	1.442101	0.000170
1943	1.9323e+02	-2.6470	-17.840103	0.000345	3.445642	1.167415	0.000138
1944	1.9333e+02	-2.6085	-17.658432	0.000456	4.560409	1.545108	0.000183
1945	1.9343e+02	-2.5604	-17.505021	0.000385	3.851012	1.304758	0.000154
1946	1.9353e+02	-2.5283	-17.351609	0.000385	3.851012	1.304758	0.000154
1947	1.9363e+02	-2.4898	-17.186087	0.000416	4.155039	1.407765	0.000166
1948	1.9373e+02	-2.4449	-17.012490	0.000436	4.357724	1.476437	0.000174
1949	1.9383e+02	-2.4144	-16.842930	0.000426	4.256382	1.442101	0.000170
1950	1.9393e+02	-2.3582	-16.689519	0.000385	3.851012	1.304758	0.000154
1951	1.9403e+02	-2.3261	-16.471514	0.000547	5.472491	1.854130	0.000219
1952	1.9412e+02	-2.2892	-16.277731	0.000486	4.864436	1.648116	0.000195
1953	1.9422e+02	-2.2491	-16.132394	0.000365	3.648327	1.236087	0.000146
1954	1.9432e+02	-2.2154	-15.995132	0.000345	3.445642	1.167415	0.000138
1955	1.9442e+02	-2.1721	-15.841721	0.000385	3.851012	1.304758	0.000154
1956	1.9452e+02	-2.1320	-15.639864	0.000507	5.067121	1.716787	0.000203
1957	1.9462e+02	-2.0919	-15.486453	0.000385	3.851012	1.304758	0.000154
1958	1.9472e+02	-2.0454	-15.333042	0.000385	3.851012	1.304758	0.000154
1959	1.9482e+02	-2.0101	-15.155408	0.000446	4.459066	1.510773	0.000179
1960	1.9492e+02	-1.9716	-14.969699	0.000466	4.661751	1.579444	0.000187
1961	1.9502e+02	-1.9299	-14.808214	0.000405	4.053697	1.373430	0.000162
1962	1.9512e+02	-1.8914	-14.646728	0.000405	4.053697	1.373430	0.000162
1963	1.9522e+02	-1.8513	-14.465057	0.000456	4.560409	1.545108	0.000183
1964	1.9532e+02	-1.8048	-14.303572	0.000405	4.053697	1.373430	0.000162
1965	1.9542e+02	-1.7695	-14.142086	0.000405	4.053697	1.373430	0.000162
1966	1.9552e+02	-1.7326	-13.980601	0.000405	4.053697	1.373430	0.000162
1967	1.9562e+02	-1.6989	-13.802967	0.000446	4.459066	1.510773	0.000179
1968	1.9572e+02	-1.6475	-13.629370	0.000436	4.357724	1.476437	0.000174
1969	1.9582e+02	-1.6155	-13.439625	0.000476	4.763094	1.613780	0.000191
1970	1.9592e+02	-1.5721	-13.306399	0.000334	3.344300	1.133079	0.000134
1971	1.9601e+02	-1.5304	-13.108580	0.000497	4.965779	1.682451	0.000199
1972	1.9611e+02	-1.4984	-12.926909	0.000456	4.560409	1.545108	0.000183
1973	1.9621e+02	-1.4486	-12.809832	0.000294	2.938930	0.995736	0.000118
1974	1.9631e+02	-1.4101	-12.587789	0.000557	5.573833	1.888466	0.000223
1975	1.9641e+02	-1.3764	-12.446489	0.000355	3.546985	1.201751	0.000142
1976	1.9651e+02	-1.3379	-12.240596	0.000517	5.168463	1.751123	0.000207
1977	1.9661e+02	-1.2962	-12.099296	0.000355	3.546985	1.201751	0.000142
1978	1.9671e+02	-1.2497	-11.905513	0.000486	4.864436	1.648116	0.000195
1979	1.9681e+02	-1.2160	-11.715768	0.000476	4.763094	1.613780	0.000191
1980	1.9691e+02	-1.1647	-11.554282	0.000405	4.053697	1.373430	0.000162
1981	1.9701e+02	-1.1406	-11.408946	0.000365	3.648327	1.236087	0.000146
1982	1.9711e+02	-1.0957	-11.207089	0.000507	5.067121	1.716787	0.000203
1983	1.9721e+02	-1.0540	-11.009269	0.000497	4.965779	1.682451	0.000199
1984	1.9731e+02	-1.0107	-10.843747	0.000416	4.155039	1.407765	0.000166
1985	1.9741e+02	-0.9690	-10.670150	0.000436	4.357724	1.476437	0.000174
1986	1.9751e+02	-0.9369	-10.500590	0.000426	4.256382	1.442101	0.000170
1987	1.9761e+02	-0.8807	-10.351216	0.000375	3.749670	1.270422	0.000150
1988	1.9771e+02	-0.8502	-10.181656	0.000426	4.256382	1.442101	0.000170
1989	1.9781e+02	-0.8101	-9.979800	0.000507	5.067121	1.716787	0.000203
1990	1.9791e+02	-0.7813	-9.810240	0.000426	4.256382	1.442101	0.000170
1991	1.9800e+02	-0.7347	-9.640680	0.000426	4.256382	1.442101	0.000170
1992	1.9810e+02	-0.6930	-9.446898	0.000486	4.864436	1.648116	0.000195
1993	1.9820e+02	-0.6465	-9.273301	0.000436	4.357724	1.476437	0.000174
1994	1.9830e+02	-0.6160	-9.099704	0.000436	4.357724	1.476437	0.000174
1995	1.9840e+02	-0.5727	-8.909959	0.000476	4.763094	1.613780	0.000191
1996	1.9850e+02	-0.5374	-8.760585	0.000375	3.749670	1.270422	0.000150
1997	1.9860e+02	-0.4941	-8.558728	0.000507	5.067121	1.716787	0.000203
1998	1.9870e+02	-0.4556	-8.389168	0.000426	4.256382	1.442101	0.000170
1999	1.9880e+02	-0.4203	-8.219608	0.000426	4.256382	1.442101	0.000170
2000	1.9890e+02	-0.3722	-8.009677	0.000527	5.269806	1.785459	0.000211
2001	1.9900e+02	-0.3369	-7.880489	0.000324	3.242957	1.098744	0.000130
2002	1.9910e+02	-0.2984	-7.654409	0.000568	5.675175	1.922802	0.000227
2003	1.9920e+02	-0.2567	-7.533295	0.000304	3.040273	1.030072	0.000122
2004	1.9930e+02	-0.2198	-7.319327	0.000537	5.371148	1.819794	0.000215
2005	1.9940e+02	-0.1893	-7.186102	0.000334	3.344300	1.133079	0.000134
2006	1.9950e+02	-0.1380	-6.976171	0.000527	5.269806	1.785459	0.000211
2007	1.9960e+02	-0.0866	-6.762202	0.000537	5.371148	1.819794	0.000215
2008	1.9970e+02	-0.0513	-6.633014	0.000324	3.242957	1.098744	0.000130
2009	1.9980e+02	-0.0241	-6.410972	0.000324	3.242957	1.098744	0.000223

Center data before PMax,+/-Pr and +/-Vc Calc.

PMax (uC/cm2):	7.55e+01
Pr (uC/cm2):	1.72e+00
-Pr (uC/cm2):	-6.41e+00
PLoss (uC/cm2):	-3.10e+00
Vc:	7.67e-01
-Vc:	-4.02e-01
C (Max-Eff) (nF):	3.78e-01
K (Eff):	1.28e+03
Vert. (+/-Pr) Shift (uC/cm2):	-2.34e+00
Horiz. Shift (+/-Vc):	1.82e-01
Offset (uC/cm2):	3.32e+00

A (Loop Area - uC/cm2·Volts):	-1.08e-02



Hysteresis Version: 5.48.1 - Radiant Technologies, Inc., 1999 - 9/12/24

