»»»»»»»»»»»»»»»»»»»»»»»»»»»»»»»»»»»» Hysteresis ««««««««««««««««««««««««««««««««««««
»»»  Executed Version:	5.48.1
»»»  Vision Version:	5.48.4 (R)
»»»  Vision Compiled:	9/18/24
»»»  Driver Version:	5.47.0
»»»  Windows Version:	Windows 8 or 8.1
»»»  Processor Information:	x86 (AMD or Intel) - 32 Processors
»»»  Tester Name:	PMF21124-494 (100V)
»»»  Tester S/N:	PMF21124-494
»»»  Internal Amp Type:	100V RevK 270k
»»»  Internal Amp S/N:	iAB2-596/K     
»»»  Execution Count:	1
»»»»»»»»»»»»»»»»»»»»»»»»»»»»»»»»»»»»»»»»»»««««««««««««««««««««««««««««««««««««««««««

Stored:	6/4/2025 - 15:3:26
Configured:	06/04/25 01:46:06 PM
Executed:	06/04/25 03:02:44 PM

»»»»»»»»»»»»»»»»»»»»»»»»»»»»»»»»»»» Sample Info ««««««««««««««««««««««««««««««««««««
Sample Name:	
Lot Name:	
Wafer Name:	
Die Row/Column:	0/0
Capacitor Number:	0
Sample Area (cm2):	1.00e-04
Sample Thickness (microns):	3.00e-01

Amplifier:	Internal

»»»»»»»»»»»»»»»»»»»»»»»»»»»»»»»»»»» Tester Info «««««««««««««««««««««««««««««««««««
Tester Name:	PMF21124-494 (100V)
Tester Serial Number:	PMF21124-494
Return Signal Amp. Level:	0.19 [Index: 3]

»»»»»»»»»»»»»»»»»»»»»»»»»»»»»»»» Hysteresis Info ««««««««««««««««««««««««««««««««««
Task Name:	Hyst-37
Volts:	20.00
Field:	666.67 (kV/cm)
DCBias:	0.00
DCField:	0.00 (kV/cm)
Hysteresis Period (ms):	2.00e+02
Preset:	Enabled
Preset Delay (ms):	1.00e+03
Profile:	Standard Bipolar

»»»»»»»»»»»»»»»»»»»»»»»»»»»»»»»»»»»»»» Data «««««««««««««««««««««««««««««««««««««««
Points:	2009

Valid Data

Point	Time (ms)	Drive Voltage	Measured Polarization (uC/cm2)	Capacitance (uF)	Normalized Capacitance (uF/cm2)	Dielectric Constant	Instantaneous Current (mA)
   1	0.0000e+00	-0.0064	-4.551871	0.000456	4.560866	1.545263	0.000183
   2	9.9500e-02	0.0209	-4.370199	0.000456	4.560866	1.545263	0.000183
   3	1.9900e-01	0.0674	-4.228900	0.000355	3.547340	1.201871	0.000142
   4	2.9850e-01	0.1027	-4.006857	0.000557	5.574392	1.888655	0.000223
   5	3.9800e-01	0.1492	-3.780778	0.000568	5.675745	1.922994	0.000227
   6	4.9750e-01	0.1957	-3.574884	0.000517	5.168982	1.751298	0.000207
   7	5.9700e-01	0.2198	-3.336693	0.000598	5.979802	2.026012	0.000239
   8	6.9650e-01	0.2743	-3.118687	0.000547	5.473039	1.854316	0.000219
   9	7.9600e-01	0.3112	-2.945091	0.000436	4.358161	1.476585	0.000174
  10	8.9550e-01	0.3385	-2.702862	0.000608	6.081155	2.060351	0.000243
  11	9.9500e-01	0.3898	-2.468709	0.000588	5.878450	1.991673	0.000235
  12	1.0945e+00	0.4364	-2.270889	0.000497	4.966277	1.682620	0.000199
  13	1.1940e+00	0.4684	-2.073069	0.000497	4.966277	1.682620	0.000199
  14	1.2935e+00	0.5085	-1.842952	0.000578	5.777097	1.957334	0.000231
  15	1.3930e+00	0.5503	-1.633021	0.000527	5.270334	1.785638	0.000211
  16	1.4925e+00	0.5904	-1.386756	0.000618	6.182508	2.094690	0.000248
  17	1.5920e+00	0.6224	-1.164714	0.000557	5.574392	1.888655	0.000223
  18	1.6915e+00	0.6609	-0.950745	0.000537	5.371687	1.819977	0.000215
  19	1.7910e+00	0.7043	-0.736777	0.000537	5.371687	1.819977	0.000215
  20	1.8905e+00	0.7460	-0.506661	0.000578	5.777097	1.957334	0.000231
  21	1.9900e+00	0.7877	-0.288655	0.000547	5.473039	1.854316	0.000219
  22	2.0895e+00	0.8262	-0.034316	0.000639	6.385213	2.163369	0.000256
  23	2.1890e+00	0.8663	0.195801	0.000578	5.777097	1.957334	0.000231
  24	2.2885e+00	0.9064	0.377472	0.000456	4.560866	1.545263	0.000183
  25	2.3880e+00	0.9385	0.607589	0.000578	5.777097	1.957334	0.000231
  26	2.4875e+00	0.9786	0.857891	0.000628	6.283860	2.129029	0.000252
  27	2.5870e+00	1.0299	1.063785	0.000517	5.168982	1.751298	0.000207
  28	2.6865e+00	1.0588	1.273716	0.000527	5.270334	1.785638	0.000211
  29	2.7860e+00	1.0989	1.503833	0.000578	5.777097	1.957334	0.000231
  30	2.8855e+00	1.1486	1.705690	0.000507	5.067629	1.716959	0.000203
  31	2.9850e+00	1.1791	1.960029	0.000639	6.385213	2.163369	0.000256
  32	3.0845e+00	1.2240	2.214369	0.000639	6.385213	2.163369	0.000256
  33	3.1840e+00	1.2593	2.436411	0.000557	5.574392	1.888655	0.000223
  34	3.2835e+00	1.3010	2.634231	0.000497	4.966277	1.682620	0.000199
  35	3.3830e+00	1.3443	2.819939	0.000466	4.662219	1.579602	0.000187
  36	3.4825e+00	1.3780	3.082353	0.000659	6.587918	2.232047	0.000264
  37	3.5820e+00	1.4246	3.324581	0.000608	6.081155	2.060351	0.000243
  38	3.6815e+00	1.4631	3.538549	0.000537	5.371687	1.819977	0.000215
  39	3.7810e+00	1.5096	3.825186	0.000720	7.196033	2.438082	0.000288
  40	3.8805e+00	1.5369	3.970523	0.000365	3.648693	1.236211	0.000146
  41	3.9800e+00	1.5786	4.208714	0.000598	5.979802	2.026012	0.000239
  42	4.0795e+00	1.6251	4.446905	0.000598	5.979802	2.026012	0.000239
  43	4.1790e+00	1.6716	4.685096	0.000598	5.979802	2.026012	0.000239
  44	4.2785e+00	1.6989	4.882916	0.000497	4.966277	1.682620	0.000199
  45	4.3780e+00	1.7486	5.177627	0.000740	7.398739	2.506760	0.000296
  46	4.4775e+00	1.7871	5.383521	0.000517	5.168982	1.751298	0.000207
  47	4.5770e+00	1.8288	5.593452	0.000527	5.270334	1.785638	0.000211
  48	4.6765e+00	1.8561	5.799345	0.000517	5.168982	1.751298	0.000207
  49	4.7760e+00	1.8978	6.029462	0.000578	5.777097	1.957334	0.000231
  50	4.8755e+00	1.9459	6.283802	0.000639	6.385213	2.163369	0.000256
  51	4.9750e+00	1.9844	6.493733	0.000527	5.270334	1.785638	0.000211
  52	5.0745e+00	2.0133	6.756147	0.000659	6.587918	2.232047	0.000264
  53	5.1740e+00	2.0614	6.949929	0.000486	4.864924	1.648281	0.000195
  54	5.2735e+00	2.0983	7.196194	0.000618	6.182508	2.094690	0.000248
  55	5.3730e+00	2.1433	7.385940	0.000476	4.763571	1.613942	0.000191
  56	5.4725e+00	2.1850	7.652391	0.000669	6.689270	2.266386	0.000268
  57	5.5720e+00	2.2170	7.858285	0.000517	5.168982	1.751298	0.000207
  58	5.6715e+00	2.2556	8.084364	0.000568	5.675745	1.922994	0.000227
  59	5.7710e+00	2.2973	8.326592	0.000608	6.081155	2.060351	0.000243
  60	5.8705e+00	2.3422	8.536524	0.000527	5.270334	1.785638	0.000211
  61	5.9700e+00	2.3678	8.766640	0.000578	5.777097	1.957334	0.000231
  62	6.0695e+00	2.4176	8.996757	0.000578	5.777097	1.957334	0.000231
  63	6.1690e+00	2.4577	9.190540	0.000486	4.864924	1.648281	0.000195
  64	6.2685e+00	2.4994	9.461028	0.000679	6.790623	2.300725	0.000272
  65	6.3680e+00	2.5299	9.658847	0.000497	4.966277	1.682620	0.000199
  66	6.4675e+00	2.5716	9.876853	0.000547	5.473039	1.854316	0.000219
  67	6.5670e+00	2.6117	10.098895	0.000557	5.574392	1.888655	0.000223
  68	6.6665e+00	2.6630	10.365346	0.000669	6.689270	2.266386	0.000268
  69	6.7660e+00	2.6999	10.571240	0.000517	5.168982	1.751298	0.000207
  70	6.8655e+00	2.7352	10.752911	0.000456	4.560866	1.545263	0.000183
  71	6.9650e+00	2.7737	11.003213	0.000628	6.283860	2.129029	0.000252
  72	7.0645e+00	2.8251	11.201033	0.000497	4.966277	1.682620	0.000199
  73	7.1640e+00	2.8620	11.439224	0.000598	5.979802	2.026012	0.000239
  74	7.2635e+00	2.9021	11.717786	0.000699	6.993328	2.369404	0.000280
  75	7.3630e+00	2.9341	11.899458	0.000456	4.560866	1.545263	0.000183
  76	7.4625e+00	2.9726	12.125537	0.000568	5.675745	1.922994	0.000227
  77	7.5620e+00	3.0160	12.383914	0.000649	6.486565	2.197708	0.000260
  78	7.6615e+00	3.0545	12.585771	0.000507	5.067629	1.716959	0.000203
  79	7.7610e+00	3.0930	12.819925	0.000588	5.878450	1.991673	0.000235
  80	7.8605e+00	3.1363	13.062153	0.000608	6.081155	2.060351	0.000243
  81	7.9600e+00	3.1764	13.243824	0.000456	4.560866	1.545263	0.000183
  82	8.0595e+00	3.2229	13.482015	0.000598	5.979802	2.026012	0.000239
  83	8.1590e+00	3.2582	13.716169	0.000588	5.878450	1.991673	0.000235
  84	8.2585e+00	3.2935	13.938211	0.000557	5.574392	1.888655	0.000223
  85	8.3580e+00	3.3352	14.168328	0.000578	5.777097	1.957334	0.000231
  86	8.4575e+00	3.3817	14.358073	0.000476	4.763571	1.613942	0.000191
  87	8.5570e+00	3.4218	14.584153	0.000568	5.675745	1.922994	0.000227
  88	8.6565e+00	3.4523	14.822344	0.000598	5.979802	2.026012	0.000239
  89	8.7560e+00	3.4940	15.028238	0.000517	5.168982	1.751298	0.000207
  90	8.8555e+00	3.5389	15.242206	0.000537	5.371687	1.819977	0.000215
  91	8.9550e+00	3.5758	15.516731	0.000689	6.891976	2.335065	0.000276
  92	9.0545e+00	3.6175	15.686291	0.000426	4.256808	1.442246	0.000170
  93	9.1540e+00	3.6560	15.956779	0.000679	6.790623	2.300725	0.000272
  94	9.2535e+00	3.7042	16.126339	0.000426	4.256808	1.442246	0.000170
  95	9.3530e+00	3.7363	16.396827	0.000679	6.790623	2.300725	0.000272
  96	9.4525e+00	3.7732	16.570424	0.000436	4.358161	1.476585	0.000174
  97	9.5520e+00	3.8149	16.780355	0.000527	5.270334	1.785638	0.000211
  98	9.6515e+00	3.8502	17.014509	0.000588	5.878450	1.991673	0.000235
  99	9.7510e+00	3.8919	17.260774	0.000618	6.182508	2.094690	0.000248
 100	9.8505e+00	3.9272	17.478779	0.000547	5.473039	1.854316	0.000219
 101	9.9500e+00	3.9737	17.688710	0.000527	5.270334	1.785638	0.000211
 102	1.0050e+01	4.0074	17.918827	0.000578	5.777097	1.957334	0.000231
 103	1.0149e+01	4.0587	18.084350	0.000416	4.155456	1.407907	0.000166
 104	1.0248e+01	4.0940	18.358875	0.000689	6.891976	2.335065	0.000276
 105	1.0348e+01	4.1309	18.556694	0.000497	4.966277	1.682620	0.000199
 106	1.0447e+01	4.1774	18.782774	0.000568	5.675745	1.922994	0.000227
 107	1.0547e+01	4.2079	18.992705	0.000527	5.270334	1.785638	0.000211
 108	1.0646e+01	4.2528	19.202636	0.000527	5.270334	1.785638	0.000211
 109	1.0746e+01	4.2929	19.444864	0.000608	6.081155	2.060351	0.000243
 110	1.0845e+01	4.3314	19.622498	0.000446	4.459514	1.510924	0.000179
 111	1.0945e+01	4.3747	19.860689	0.000598	5.979802	2.026012	0.000239
 112	1.1044e+01	4.4100	20.086769	0.000568	5.675745	1.922994	0.000227
 113	1.1144e+01	4.4453	20.341108	0.000639	6.385213	2.163369	0.000256
 114	1.1243e+01	4.4999	20.563151	0.000557	5.574392	1.888655	0.000223
 115	1.1343e+01	4.5287	20.748859	0.000466	4.662219	1.579602	0.000187
 116	1.1443e+01	4.5737	20.974939	0.000568	5.675745	1.922994	0.000227
 117	1.1542e+01	4.6058	21.160647	0.000466	4.662219	1.579602	0.000187
 118	1.1642e+01	4.6555	21.378652	0.000547	5.473039	1.854316	0.000219
 119	1.1741e+01	4.6972	21.600695	0.000557	5.574392	1.888655	0.000223
 120	1.1841e+01	4.7309	21.826774	0.000568	5.675745	1.922994	0.000227
 121	1.1940e+01	4.7614	22.044780	0.000547	5.473039	1.854316	0.000219
 122	1.2040e+01	4.8191	22.234525	0.000476	4.763571	1.613942	0.000191
 123	1.2139e+01	4.8480	22.484827	0.000628	6.283860	2.129029	0.000252
 124	1.2239e+01	4.8945	22.743204	0.000649	6.486565	2.197708	0.000260
 125	1.2338e+01	4.9346	22.912764	0.000426	4.256808	1.442246	0.000170
 126	1.2438e+01	4.9715	23.102509	0.000476	4.763571	1.613942	0.000191
 127	1.2537e+01	5.0068	23.320515	0.000547	5.473039	1.854316	0.000219
 128	1.2636e+01	5.0565	23.586966	0.000669	6.689270	2.266386	0.000268
 129	1.2736e+01	5.0950	23.772674	0.000466	4.662219	1.579602	0.000187
 130	1.2835e+01	5.1335	23.990679	0.000547	5.473039	1.854316	0.000219
 131	1.2935e+01	5.1720	24.216759	0.000568	5.675745	1.922994	0.000227
 132	1.3034e+01	5.2154	24.410541	0.000486	4.864924	1.648281	0.000195
 133	1.3134e+01	5.2458	24.616435	0.000517	5.168982	1.751298	0.000207
 134	1.3233e+01	5.2940	24.854626	0.000598	5.979802	2.026012	0.000239
 135	1.3333e+01	5.3277	25.036297	0.000456	4.560866	1.545263	0.000183
 136	1.3432e+01	5.3726	25.298711	0.000659	6.587918	2.232047	0.000264
 137	1.3532e+01	5.4127	25.508642	0.000527	5.270334	1.785638	0.000211
 138	1.3632e+01	5.4464	25.714536	0.000517	5.168982	1.751298	0.000207
 139	1.3731e+01	5.4897	25.912356	0.000497	4.966277	1.682620	0.000199
 140	1.3831e+01	5.5250	26.118250	0.000517	5.168982	1.751298	0.000207
 141	1.3930e+01	5.5763	26.384701	0.000669	6.689270	2.266386	0.000268
 142	1.4030e+01	5.6052	26.521963	0.000345	3.445988	1.167532	0.000138
 143	1.4129e+01	5.6501	26.756117	0.000588	5.878450	1.991673	0.000235
 144	1.4229e+01	5.6838	26.986234	0.000578	5.777097	1.957334	0.000231
 145	1.4328e+01	5.7287	27.228462	0.000608	6.081155	2.060351	0.000243
 146	1.4428e+01	5.7672	27.430319	0.000507	5.067629	1.716959	0.000203
 147	1.4527e+01	5.8121	27.616027	0.000466	4.662219	1.579602	0.000187
 148	1.4627e+01	5.8490	27.838069	0.000557	5.574392	1.888655	0.000223
 149	1.4726e+01	5.8875	28.076260	0.000598	5.979802	2.026012	0.000239
 150	1.4825e+01	5.9308	28.270043	0.000486	4.864924	1.648281	0.000195
 151	1.4925e+01	5.9694	28.488048	0.000547	5.473039	1.854316	0.000219
 152	1.5024e+01	6.0030	28.697979	0.000527	5.270334	1.785638	0.000211
 153	1.5124e+01	6.0464	28.920022	0.000557	5.574392	1.888655	0.000223
 154	1.5223e+01	6.0800	29.133990	0.000537	5.371687	1.819977	0.000215
 155	1.5323e+01	6.1137	29.368144	0.000588	5.878450	1.991673	0.000235
 156	1.5422e+01	6.1603	29.570001	0.000507	5.067629	1.716959	0.000203
 157	1.5522e+01	6.2100	29.792043	0.000557	5.574392	1.888655	0.000223
 158	1.5621e+01	6.2437	30.014086	0.000557	5.574392	1.888655	0.000223
 159	1.5721e+01	6.2902	30.211905	0.000497	4.966277	1.682620	0.000199
 160	1.5820e+01	6.3287	30.413762	0.000507	5.067629	1.716959	0.000203
 161	1.5920e+01	6.3752	30.603507	0.000476	4.763571	1.613942	0.000191
 162	1.6020e+01	6.4009	30.849773	0.000618	6.182508	2.094690	0.000248
 163	1.6119e+01	6.4490	31.055667	0.000517	5.168982	1.751298	0.000207
 164	1.6218e+01	6.4827	31.261561	0.000517	5.168982	1.751298	0.000207
 165	1.6318e+01	6.5228	31.499752	0.000598	5.979802	2.026012	0.000239
 166	1.6418e+01	6.5613	31.661237	0.000405	4.054103	1.373567	0.000162
 167	1.6517e+01	6.6014	31.887317	0.000568	5.675745	1.922994	0.000227
 168	1.6616e+01	6.6383	32.101285	0.000537	5.371687	1.819977	0.000215
 169	1.6716e+01	6.6768	32.307179	0.000517	5.168982	1.751298	0.000207
 170	1.6816e+01	6.7330	32.525184	0.000547	5.473039	1.854316	0.000219
 171	1.6915e+01	6.7554	32.718967	0.000486	4.864924	1.648281	0.000195
 172	1.7015e+01	6.7971	32.965232	0.000618	6.182508	2.094690	0.000248
 173	1.7114e+01	6.8485	33.150940	0.000466	4.662219	1.579602	0.000187
 174	1.7213e+01	6.8838	33.352797	0.000507	5.067629	1.716959	0.000203
 175	1.7313e+01	6.9191	33.570802	0.000547	5.473039	1.854316	0.000219
 176	1.7413e+01	6.9704	33.804956	0.000588	5.878450	1.991673	0.000235
 177	1.7512e+01	6.9993	34.002776	0.000497	4.966277	1.682620	0.000199
 178	1.7611e+01	7.0362	34.216744	0.000537	5.371687	1.819977	0.000215
 179	1.7711e+01	7.0795	34.442824	0.000568	5.675745	1.922994	0.000227
 180	1.7811e+01	7.1324	34.608346	0.000416	4.155456	1.407907	0.000166
 181	1.7910e+01	7.1565	34.854611	0.000618	6.182508	2.094690	0.000248
 182	1.8009e+01	7.2046	35.056468	0.000507	5.067629	1.716959	0.000203
 183	1.8109e+01	7.2447	35.262362	0.000517	5.168982	1.751298	0.000207
 184	1.8209e+01	7.2848	35.452107	0.000476	4.763571	1.613942	0.000191
 185	1.8308e+01	7.3329	35.682224	0.000578	5.777097	1.957334	0.000231
 186	1.8407e+01	7.3586	35.932527	0.000628	6.283860	2.129029	0.000252
 187	1.8507e+01	7.3939	36.118235	0.000466	4.662219	1.579602	0.000187
 188	1.8607e+01	7.4420	36.312017	0.000486	4.864924	1.648281	0.000195
 189	1.8706e+01	7.4837	36.534060	0.000557	5.574392	1.888655	0.000223
 190	1.8805e+01	7.5110	36.727842	0.000486	4.864924	1.648281	0.000195
 191	1.8905e+01	7.5656	36.957959	0.000578	5.777097	1.957334	0.000231
 192	1.9005e+01	7.5960	37.139630	0.000456	4.560866	1.545263	0.000183
 193	1.9104e+01	7.6426	37.377821	0.000598	5.979802	2.026012	0.000239
 194	1.9203e+01	7.6811	37.583715	0.000517	5.168982	1.751298	0.000207
 195	1.9303e+01	7.7196	37.769423	0.000466	4.662219	1.579602	0.000187
 196	1.9402e+01	7.7645	37.971280	0.000507	5.067629	1.716959	0.000203
 197	1.9502e+01	7.7998	38.205434	0.000588	5.878450	1.991673	0.000235
 198	1.9602e+01	7.8351	38.383068	0.000446	4.459514	1.510924	0.000179
 199	1.9701e+01	7.8784	38.613185	0.000578	5.777097	1.957334	0.000231
 200	1.9800e+01	7.9281	38.806967	0.000486	4.864924	1.648281	0.000195
 201	1.9900e+01	7.9554	39.029010	0.000557	5.574392	1.888655	0.000223
 202	2.0000e+01	8.0083	39.218755	0.000476	4.763571	1.613942	0.000191
 203	2.0099e+01	8.0404	39.452909	0.000588	5.878450	1.991673	0.000235
 204	2.0198e+01	8.0709	39.638617	0.000466	4.662219	1.579602	0.000187
 205	2.0298e+01	8.1222	39.812214	0.000436	4.358161	1.476585	0.000174
 206	2.0398e+01	8.1527	40.010034	0.000497	4.966277	1.682620	0.000199
 207	2.0497e+01	8.1896	40.236113	0.000568	5.675745	1.922994	0.000227
 208	2.0596e+01	8.2361	40.417784	0.000456	4.560866	1.545263	0.000183
 209	2.0696e+01	8.2778	40.651938	0.000588	5.878450	1.991673	0.000235
 210	2.0796e+01	8.3131	40.833609	0.000456	4.560866	1.545263	0.000183
 211	2.0895e+01	8.3532	41.096023	0.000659	6.587918	2.232047	0.000264
 212	2.0994e+01	8.3966	41.253472	0.000395	3.952751	1.339228	0.000158
 213	2.1094e+01	8.4383	41.479551	0.000568	5.675745	1.922994	0.000227
 214	2.1194e+01	8.4784	41.661222	0.000456	4.560866	1.545263	0.000183
 215	2.1293e+01	8.5233	41.879228	0.000547	5.473039	1.854316	0.000219
 216	2.1392e+01	8.5490	42.060899	0.000456	4.560866	1.545263	0.000183
 217	2.1492e+01	8.5907	42.266793	0.000517	5.168982	1.751298	0.000207
 218	2.1591e+01	8.6308	42.513058	0.000618	6.182508	2.094690	0.000248
 219	2.1691e+01	8.6837	42.670506	0.000395	3.952751	1.339228	0.000158
 220	2.1791e+01	8.7174	42.888512	0.000547	5.473039	1.854316	0.000219
 221	2.1890e+01	8.7543	43.110554	0.000557	5.574392	1.888655	0.000223
 222	2.1989e+01	8.8008	43.300299	0.000476	4.763571	1.613942	0.000191
 223	2.2089e+01	8.8281	43.477933	0.000446	4.459514	1.510924	0.000179
 224	2.2189e+01	8.8778	43.671716	0.000486	4.864924	1.648281	0.000195
 225	2.2288e+01	8.9131	43.905870	0.000588	5.878450	1.991673	0.000235
 226	2.2387e+01	8.9468	44.087541	0.000456	4.560866	1.545263	0.000183
 227	2.2487e+01	8.9965	44.325732	0.000598	5.979802	2.026012	0.000239
 228	2.2587e+01	9.0431	44.515477	0.000476	4.763571	1.613942	0.000191
 229	2.2686e+01	9.0735	44.697148	0.000456	4.560866	1.545263	0.000183
 230	2.2785e+01	9.1281	44.854597	0.000395	3.952751	1.339228	0.000158
 231	2.2885e+01	9.1521	45.084713	0.000578	5.777097	1.957334	0.000231
 232	2.2985e+01	9.1826	45.335016	0.000628	6.283860	2.129029	0.000252
 233	2.3084e+01	9.2308	45.452093	0.000294	2.939225	0.995836	0.000118
 234	2.3183e+01	9.2773	45.662024	0.000527	5.270334	1.785638	0.000211
 235	2.3283e+01	9.3174	45.904252	0.000608	6.081155	2.060351	0.000243
 236	2.3383e+01	9.3431	46.073812	0.000426	4.256808	1.442246	0.000170
 237	2.3482e+01	9.3928	46.263557	0.000476	4.763571	1.613942	0.000191
 238	2.3581e+01	9.4361	46.457340	0.000486	4.864924	1.648281	0.000195
 239	2.3681e+01	9.4762	46.655159	0.000497	4.966277	1.682620	0.000199
 240	2.3780e+01	9.5179	46.857016	0.000507	5.067629	1.716959	0.000203
 241	2.3880e+01	9.5596	47.030613	0.000436	4.358161	1.476585	0.000174
 242	2.3980e+01	9.5965	47.256692	0.000568	5.675745	1.922994	0.000227
 243	2.4079e+01	9.6366	47.414141	0.000395	3.952751	1.339228	0.000158
 244	2.4178e+01	9.6767	47.632146	0.000547	5.473039	1.854316	0.000219
 245	2.4278e+01	9.7088	47.805743	0.000436	4.358161	1.476585	0.000174
 246	2.4378e+01	9.7489	47.995488	0.000476	4.763571	1.613942	0.000191
 247	2.4477e+01	9.7938	48.221568	0.000568	5.675745	1.922994	0.000227
 248	2.4576e+01	9.8243	48.423425	0.000507	5.067629	1.716959	0.000203
 249	2.4676e+01	9.8741	48.576836	0.000385	3.851398	1.304889	0.000154
 250	2.4776e+01	9.9126	48.766581	0.000476	4.763571	1.613942	0.000191
 251	2.4875e+01	9.9511	48.948252	0.000456	4.560866	1.545263	0.000183
 252	2.4974e+01	9.9847	49.194518	0.000618	6.182508	2.094690	0.000248
 253	2.5074e+01	10.0313	49.323706	0.000324	3.243283	1.098854	0.000130
 254	2.5174e+01	10.0746	49.489228	0.000416	4.155456	1.407907	0.000166
 255	2.5273e+01	10.1179	49.747605	0.000649	6.486565	2.197708	0.000260
 256	2.5372e+01	10.1388	49.925239	0.000446	4.459514	1.510924	0.000179
 257	2.5472e+01	10.1885	50.123059	0.000497	4.966277	1.682620	0.000199
 258	2.5572e+01	10.2238	50.304730	0.000456	4.560866	1.545263	0.000183
 259	2.5671e+01	10.2767	50.522735	0.000547	5.473039	1.854316	0.000219
 260	2.5770e+01	10.3184	50.712481	0.000476	4.763571	1.613942	0.000191
 261	2.5870e+01	10.3377	50.918374	0.000517	5.168982	1.751298	0.000207
 262	2.5970e+01	10.3858	51.039489	0.000304	3.040577	1.030176	0.000122
 263	2.6069e+01	10.4307	51.253457	0.000537	5.371687	1.819977	0.000215
 264	2.6169e+01	10.4724	51.455314	0.000507	5.067629	1.716959	0.000203
 265	2.6268e+01	10.5109	51.628910	0.000436	4.358161	1.476585	0.000174
 266	2.6367e+01	10.5542	51.794433	0.000416	4.155456	1.407907	0.000166
 267	2.6467e+01	10.5927	52.008401	0.000537	5.371687	1.819977	0.000215
 268	2.6567e+01	10.6248	52.165849	0.000395	3.952751	1.339228	0.000158
 269	2.6666e+01	10.6714	52.395966	0.000578	5.777097	1.957334	0.000231
 270	2.6765e+01	10.7099	52.581674	0.000466	4.662219	1.579602	0.000187
 271	2.6865e+01	10.7452	52.743160	0.000405	4.054103	1.373567	0.000162
 272	2.6965e+01	10.7933	52.977314	0.000588	5.878450	1.991673	0.000235
 273	2.7064e+01	10.8238	53.126688	0.000375	3.750046	1.270550	0.000150
 274	2.7163e+01	10.8703	53.324507	0.000497	4.966277	1.682620	0.000199
 275	2.7263e+01	10.9088	53.518290	0.000486	4.864924	1.648281	0.000195
 276	2.7363e+01	10.9457	53.703998	0.000466	4.662219	1.579602	0.000187
 277	2.7462e+01	10.9778	53.869521	0.000416	4.155456	1.407907	0.000166
 278	2.7561e+01	11.0307	54.055229	0.000466	4.662219	1.579602	0.000187
 279	2.7661e+01	11.0596	54.236900	0.000456	4.560866	1.545263	0.000183
 280	2.7761e+01	11.1125	54.426645	0.000476	4.763571	1.613942	0.000191
 281	2.7860e+01	11.1526	54.628502	0.000507	5.067629	1.716959	0.000203
 282	2.7959e+01	11.1895	54.777876	0.000375	3.750046	1.270550	0.000150
 283	2.8059e+01	11.2296	54.991844	0.000537	5.371687	1.819977	0.000215
 284	2.8159e+01	11.2601	55.173516	0.000456	4.560866	1.545263	0.000183
 285	2.8258e+01	11.3034	55.330964	0.000395	3.952751	1.339228	0.000158
 286	2.8358e+01	11.3451	55.532821	0.000507	5.067629	1.716959	0.000203
 287	2.8457e+01	11.3852	55.722566	0.000476	4.763571	1.613942	0.000191
 288	2.8556e+01	11.4270	55.900200	0.000446	4.459514	1.510924	0.000179
 289	2.8656e+01	11.4622	56.106094	0.000517	5.168982	1.751298	0.000207
 290	2.8756e+01	11.5104	56.267579	0.000405	4.054103	1.373567	0.000162
 291	2.8855e+01	11.5505	56.457325	0.000476	4.763571	1.613942	0.000191
 292	2.8954e+01	11.5890	56.626884	0.000426	4.256808	1.442246	0.000170
 293	2.9054e+01	11.6259	56.816630	0.000476	4.763571	1.613942	0.000191
 294	2.9154e+01	11.6660	57.006375	0.000476	4.763571	1.613942	0.000191
 295	2.9253e+01	11.7093	57.143638	0.000345	3.445988	1.167532	0.000138
 296	2.9352e+01	11.7398	57.357606	0.000537	5.371687	1.819977	0.000215
 297	2.9452e+01	11.7863	57.535240	0.000446	4.459514	1.510924	0.000179
 298	2.9552e+01	11.8376	57.737097	0.000507	5.067629	1.716959	0.000203
 299	2.9651e+01	11.8441	57.914731	0.000446	4.459514	1.510924	0.000179
 300	2.9750e+01	11.9098	58.100439	0.000466	4.662219	1.579602	0.000187
 301	2.9850e+01	11.9387	58.278073	0.000446	4.459514	1.510924	0.000179
 302	2.9950e+01	11.9804	58.463781	0.000466	4.662219	1.579602	0.000187
 303	3.0049e+01	12.0189	58.661601	0.000497	4.966277	1.682620	0.000199
 304	3.0148e+01	12.0702	58.823086	0.000405	4.054103	1.373567	0.000162
 305	3.0248e+01	12.0975	58.988609	0.000416	4.155456	1.407907	0.000166
 306	3.0348e+01	12.1473	59.174317	0.000466	4.662219	1.579602	0.000187
 307	3.0447e+01	12.1729	59.388285	0.000537	5.371687	1.819977	0.000215
 308	3.0547e+01	12.2162	59.537659	0.000375	3.750046	1.270550	0.000150
 309	3.0646e+01	12.2595	59.763739	0.000568	5.675745	1.922994	0.000227
 310	3.0745e+01	12.3077	59.909076	0.000365	3.648693	1.236211	0.000146
 311	3.0845e+01	12.3398	60.098821	0.000476	4.763571	1.613942	0.000191
 312	3.0945e+01	12.3847	60.276455	0.000446	4.459514	1.510924	0.000179
 313	3.1044e+01	12.4200	60.474275	0.000497	4.966277	1.682620	0.000199
 314	3.1143e+01	12.4649	60.659983	0.000466	4.662219	1.579602	0.000187
 315	3.1243e+01	12.5066	60.833580	0.000436	4.358161	1.476585	0.000174
 316	3.1343e+01	12.5435	61.015251	0.000456	4.560866	1.545263	0.000183
 317	3.1442e+01	12.5820	61.221145	0.000517	5.168982	1.751298	0.000207
 318	3.1541e+01	12.6109	61.366482	0.000365	3.648693	1.236211	0.000146
 319	3.1641e+01	12.6654	61.560264	0.000486	4.864924	1.648281	0.000195
 320	3.1741e+01	12.7007	61.737898	0.000446	4.459514	1.510924	0.000179
 321	3.1840e+01	12.7488	61.915532	0.000446	4.459514	1.510924	0.000179
 322	3.1939e+01	12.7745	62.097203	0.000456	4.560866	1.545263	0.000183
 323	3.2039e+01	12.8178	62.299060	0.000507	5.067629	1.716959	0.000203
 324	3.2139e+01	12.8579	62.452471	0.000385	3.851398	1.304889	0.000154
 325	3.2238e+01	12.9044	62.646254	0.000486	4.864924	1.648281	0.000195
 326	3.2337e+01	12.9365	62.840036	0.000486	4.864924	1.648281	0.000195
 327	3.2437e+01	12.9718	62.969225	0.000324	3.243283	1.098854	0.000130
 328	3.2536e+01	13.0200	63.167044	0.000497	4.966277	1.682620	0.000199
 329	3.2636e+01	13.0585	63.336604	0.000426	4.256808	1.442246	0.000170
 330	3.2736e+01	13.0937	63.506164	0.000426	4.256808	1.442246	0.000170
 331	3.2835e+01	13.1387	63.736280	0.000578	5.777097	1.957334	0.000231
 332	3.2934e+01	13.1756	63.889692	0.000385	3.851398	1.304889	0.000154
 333	3.3034e+01	13.2141	64.063288	0.000436	4.358161	1.476585	0.000174
 334	3.3133e+01	13.2510	64.244960	0.000456	4.560866	1.545263	0.000183
 335	3.3233e+01	13.2911	64.410482	0.000416	4.155456	1.407907	0.000166
 336	3.3333e+01	13.3408	64.624450	0.000537	5.371687	1.819977	0.000215
 337	3.3432e+01	13.3793	64.806121	0.000456	4.560866	1.545263	0.000183
 338	3.3532e+01	13.4146	64.963570	0.000395	3.952751	1.339228	0.000158
 339	3.3631e+01	13.4531	65.153315	0.000476	4.763571	1.613942	0.000191
 340	3.3730e+01	13.4916	65.322875	0.000426	4.256808	1.442246	0.000170
 341	3.3830e+01	13.5365	65.508583	0.000466	4.662219	1.579602	0.000187
 342	3.3929e+01	13.5782	65.706403	0.000497	4.966277	1.682620	0.000199
 343	3.4029e+01	13.6199	65.908259	0.000507	5.067629	1.716959	0.000203
 344	3.4129e+01	13.6536	66.057634	0.000375	3.750046	1.270550	0.000150
 345	3.4228e+01	13.6873	66.215082	0.000395	3.952751	1.339228	0.000158
 346	3.4328e+01	13.7354	66.400790	0.000466	4.662219	1.579602	0.000187
 347	3.4427e+01	13.7788	66.586498	0.000466	4.662219	1.579602	0.000187
 348	3.4526e+01	13.8189	66.739909	0.000385	3.851398	1.304889	0.000154
 349	3.4626e+01	13.8509	66.909469	0.000426	4.256808	1.442246	0.000170
 350	3.4725e+01	13.9007	67.115363	0.000517	5.168982	1.751298	0.000207
 351	3.4825e+01	13.9360	67.276849	0.000405	4.054103	1.373567	0.000162
 352	3.4925e+01	13.9648	67.458520	0.000456	4.560866	1.545263	0.000183
 353	3.5024e+01	14.0066	67.648265	0.000476	4.763571	1.613942	0.000191
 354	3.5123e+01	14.0595	67.821862	0.000436	4.358161	1.476585	0.000174
 355	3.5223e+01	14.0868	67.995459	0.000436	4.358161	1.476585	0.000174
 356	3.5322e+01	14.1301	68.181167	0.000466	4.662219	1.579602	0.000187
 357	3.5422e+01	14.1702	68.366875	0.000466	4.662219	1.579602	0.000187
 358	3.5522e+01	14.2087	68.548546	0.000456	4.560866	1.545263	0.000183
 359	3.5621e+01	14.2472	68.689846	0.000355	3.547340	1.201871	0.000142
 360	3.5721e+01	14.2905	68.887666	0.000497	4.966277	1.682620	0.000199
 361	3.5820e+01	14.3258	69.061263	0.000436	4.358161	1.476585	0.000174
 362	3.5919e+01	14.3787	69.255045	0.000486	4.864924	1.648281	0.000195
 363	3.6019e+01	14.4237	69.412493	0.000395	3.952751	1.339228	0.000158
 364	3.6118e+01	14.4525	69.630499	0.000547	5.473039	1.854316	0.000219
 365	3.6218e+01	14.5007	69.808133	0.000446	4.459514	1.510924	0.000179
 366	3.6318e+01	14.5279	69.965581	0.000395	3.952751	1.339228	0.000158
 367	3.6417e+01	14.5809	70.127066	0.000405	4.054103	1.373567	0.000162
 368	3.6517e+01	14.6049	70.349109	0.000557	5.574392	1.888655	0.000223
 369	3.6616e+01	14.6499	70.502520	0.000385	3.851398	1.304889	0.000154
 370	3.6715e+01	14.6819	70.631708	0.000324	3.243283	1.098854	0.000130
 371	3.6815e+01	14.7285	70.837602	0.000517	5.168982	1.751298	0.000207
 372	3.6914e+01	14.7766	70.986976	0.000375	3.750046	1.270550	0.000150
 373	3.7014e+01	14.8071	71.176722	0.000476	4.763571	1.613942	0.000191
 374	3.7114e+01	14.8488	71.362430	0.000466	4.662219	1.579602	0.000187
 375	3.7213e+01	14.8921	71.511804	0.000375	3.750046	1.270550	0.000150
 376	3.7313e+01	14.9306	71.673289	0.000405	4.054103	1.373567	0.000162
 377	3.7412e+01	14.9659	71.842849	0.000426	4.256808	1.442246	0.000170
 378	3.7511e+01	15.0156	72.040669	0.000497	4.966277	1.682620	0.000199
 379	3.7611e+01	15.0493	72.222340	0.000456	4.560866	1.545263	0.000183
 380	3.7711e+01	15.0910	72.375751	0.000385	3.851398	1.304889	0.000154
 381	3.7810e+01	15.1311	72.549348	0.000436	4.358161	1.476585	0.000174
 382	3.7910e+01	15.1664	72.767353	0.000547	5.473039	1.854316	0.000219
 383	3.8009e+01	15.2129	72.888467	0.000304	3.040577	1.030176	0.000122
 384	3.8108e+01	15.2514	73.086287	0.000497	4.966277	1.682620	0.000199
 385	3.8208e+01	15.2915	73.271995	0.000466	4.662219	1.579602	0.000187
 386	3.8307e+01	15.3365	73.429443	0.000395	3.952751	1.339228	0.000158
 387	3.8407e+01	15.3750	73.594966	0.000416	4.155456	1.407907	0.000166
 388	3.8507e+01	15.4119	73.764526	0.000426	4.256808	1.442246	0.000170
 389	3.8606e+01	15.4472	73.958308	0.000486	4.864924	1.648281	0.000195
 390	3.8706e+01	15.4857	74.087496	0.000324	3.243283	1.098854	0.000130
 391	3.8805e+01	15.5322	74.329725	0.000608	6.081155	2.060351	0.000243
 392	3.8904e+01	15.5755	74.462950	0.000334	3.344635	1.133193	0.000134
 393	3.9004e+01	15.6156	74.612324	0.000375	3.750046	1.270550	0.000150
 394	3.9103e+01	15.6461	74.802070	0.000476	4.763571	1.613942	0.000191
 395	3.9203e+01	15.6910	74.963555	0.000405	4.054103	1.373567	0.000162
 396	3.9303e+01	15.7183	75.137152	0.000436	4.358161	1.476585	0.000174
 397	3.9402e+01	15.7680	75.322860	0.000466	4.662219	1.579602	0.000187
 398	3.9502e+01	15.8001	75.464160	0.000355	3.547340	1.201871	0.000142
 399	3.9601e+01	15.8482	75.645831	0.000456	4.560866	1.545263	0.000183
 400	3.9700e+01	15.8899	75.815391	0.000426	4.256808	1.442246	0.000170
 401	3.9800e+01	15.9172	75.936505	0.000304	3.040577	1.030176	0.000122
 402	3.9900e+01	15.9701	76.126250	0.000476	4.763571	1.613942	0.000191
 403	3.9999e+01	16.0054	76.279661	0.000385	3.851398	1.304889	0.000154
 404	4.0099e+01	16.0439	76.461332	0.000456	4.560866	1.545263	0.000183
 405	4.0198e+01	16.0905	76.634929	0.000436	4.358161	1.476585	0.000174
 406	4.0297e+01	16.1225	76.824675	0.000476	4.763571	1.613942	0.000191
 407	4.0397e+01	16.1659	76.957900	0.000334	3.344635	1.133193	0.000134
 408	4.0496e+01	16.1995	77.151683	0.000486	4.864924	1.648281	0.000195
 409	4.0596e+01	16.2445	77.297019	0.000365	3.648693	1.236211	0.000146
 410	4.0696e+01	16.2846	77.438319	0.000355	3.547340	1.201871	0.000142
 411	4.0795e+01	16.3215	77.624027	0.000466	4.662219	1.579602	0.000187
 412	4.0895e+01	16.3664	77.773401	0.000375	3.750046	1.270550	0.000150
 413	4.0994e+01	16.4017	77.971221	0.000497	4.966277	1.682620	0.000199
 414	4.1093e+01	16.4482	78.112521	0.000355	3.547340	1.201871	0.000142
 415	4.1193e+01	16.4883	78.278043	0.000416	4.155456	1.407907	0.000166
 416	4.1292e+01	16.5268	78.443566	0.000416	4.155456	1.407907	0.000166
 417	4.1392e+01	16.5509	78.592940	0.000375	3.750046	1.270550	0.000150
 418	4.1492e+01	16.6022	78.766537	0.000436	4.358161	1.476585	0.000174
 419	4.1591e+01	16.6455	78.948208	0.000456	4.560866	1.545263	0.000183
 420	4.1691e+01	16.6872	79.121805	0.000436	4.358161	1.476585	0.000174
 421	4.1790e+01	16.7209	79.226770	0.000264	2.635167	0.892819	0.000105
 422	4.1889e+01	16.7674	79.404404	0.000446	4.459514	1.510924	0.000179
 423	4.1989e+01	16.8027	79.578001	0.000436	4.358161	1.476585	0.000174
 424	4.2089e+01	16.8428	79.771784	0.000486	4.864924	1.648281	0.000195
 425	4.2188e+01	16.8797	79.884823	0.000284	2.837872	0.961497	0.000114
 426	4.2288e+01	16.9247	80.082643	0.000497	4.966277	1.682620	0.000199
 427	4.2387e+01	16.9664	80.236054	0.000385	3.851398	1.304889	0.000154
 428	4.2486e+01	17.0065	80.401577	0.000416	4.155456	1.407907	0.000166
 429	4.2586e+01	17.0386	80.559025	0.000395	3.952751	1.339228	0.000158
 430	4.2685e+01	17.0819	80.708399	0.000375	3.750046	1.270550	0.000150
 431	4.2785e+01	17.1172	80.886033	0.000446	4.459514	1.510924	0.000179
 432	4.2885e+01	17.1653	81.003110	0.000294	2.939225	0.995836	0.000118
 433	4.2984e+01	17.2022	81.233227	0.000578	5.777097	1.957334	0.000231
 434	4.3084e+01	17.2471	81.334155	0.000253	2.533815	0.858480	0.000101
 435	4.3183e+01	17.2792	81.519863	0.000466	4.662219	1.579602	0.000187
 436	4.3282e+01	17.3241	81.661163	0.000355	3.547340	1.201871	0.000142
 437	4.3382e+01	17.3466	81.830723	0.000426	4.256808	1.442246	0.000170
 438	4.3481e+01	17.3979	82.020468	0.000476	4.763571	1.613942	0.000191
 439	4.3581e+01	17.4396	82.145619	0.000314	3.141930	1.064515	0.000126
 440	4.3681e+01	17.4765	82.274808	0.000324	3.243283	1.098854	0.000130
 441	4.3780e+01	17.5246	82.456479	0.000456	4.560866	1.545263	0.000183
 442	4.3880e+01	17.5599	82.630076	0.000436	4.358161	1.476585	0.000174
 443	4.3979e+01	17.6032	82.791561	0.000405	4.054103	1.373567	0.000162
 444	4.4078e+01	17.6401	82.932861	0.000355	3.547340	1.201871	0.000142
 445	4.4178e+01	17.6738	83.066086	0.000334	3.344635	1.133193	0.000134
 446	4.4278e+01	17.7204	83.255832	0.000476	4.763571	1.613942	0.000191
 447	4.4377e+01	17.7653	83.433466	0.000446	4.459514	1.510924	0.000179
 448	4.4477e+01	17.7942	83.582840	0.000375	3.750046	1.270550	0.000150
 449	4.4576e+01	17.8375	83.659545	0.000193	1.925699	0.652445	0.000077
 450	4.4675e+01	17.8808	83.873514	0.000537	5.371687	1.819977	0.000215
 451	4.4775e+01	17.9145	84.022888	0.000375	3.750046	1.270550	0.000150
 452	4.4874e+01	17.9546	84.212633	0.000476	4.763571	1.613942	0.000191
 453	4.4974e+01	17.9947	84.362007	0.000375	3.750046	1.270550	0.000150
 454	4.5074e+01	18.0476	84.507344	0.000365	3.648693	1.236211	0.000146
 455	4.5173e+01	18.0797	84.668829	0.000405	4.054103	1.373567	0.000162
 456	4.5273e+01	18.1150	84.842426	0.000436	4.358161	1.476585	0.000174
 457	4.5372e+01	18.1519	84.987763	0.000365	3.648693	1.236211	0.000146
 458	4.5471e+01	18.1968	85.133100	0.000365	3.648693	1.236211	0.000146
 459	4.5571e+01	18.2449	85.262288	0.000324	3.243283	1.098854	0.000130
 460	4.5670e+01	18.2738	85.460108	0.000497	4.966277	1.682620	0.000199
 461	4.5770e+01	18.3107	85.597370	0.000345	3.445988	1.167532	0.000138
 462	4.5870e+01	18.3588	85.762893	0.000416	4.155456	1.407907	0.000166
 463	4.5969e+01	18.3957	85.924378	0.000405	4.054103	1.373567	0.000162
 464	4.6069e+01	18.4262	86.057604	0.000334	3.344635	1.133193	0.000134
 465	4.6168e+01	18.4840	86.259461	0.000507	5.067629	1.716959	0.000203
 466	4.6267e+01	18.5128	86.384612	0.000314	3.141930	1.064515	0.000126
 467	4.6367e+01	18.5594	86.538023	0.000385	3.851398	1.304889	0.000154
 468	4.6467e+01	18.6043	86.703546	0.000416	4.155456	1.407907	0.000166
 469	4.6566e+01	18.6396	86.852920	0.000375	3.750046	1.270550	0.000150
 470	4.6666e+01	18.6781	87.014405	0.000405	4.054103	1.373567	0.000162
 471	4.6765e+01	18.7214	87.151668	0.000345	3.445988	1.167532	0.000138
 472	4.6864e+01	18.7567	87.305079	0.000385	3.851398	1.304889	0.000154
 473	4.6964e+01	18.7920	87.434267	0.000324	3.243283	1.098854	0.000130
 474	4.7063e+01	18.8353	87.591716	0.000395	3.952751	1.339228	0.000158
 475	4.7163e+01	18.8754	87.777424	0.000466	4.662219	1.579602	0.000187
 476	4.7263e+01	18.9203	87.951021	0.000436	4.358161	1.476585	0.000174
 477	4.7362e+01	18.9556	88.092320	0.000355	3.547340	1.201871	0.000142
 478	4.7462e+01	18.9861	88.249769	0.000395	3.952751	1.339228	0.000158
 479	4.7561e+01	19.0294	88.439514	0.000476	4.763571	1.613942	0.000191
 480	4.7660e+01	19.0775	88.592925	0.000385	3.851398	1.304889	0.000154
 481	4.7760e+01	19.1096	88.710002	0.000294	2.939225	0.995836	0.000118
 482	4.7859e+01	19.1610	88.915896	0.000517	5.168982	1.751298	0.000207
 483	4.7959e+01	19.1979	89.053159	0.000345	3.445988	1.167532	0.000138
 484	4.8059e+01	19.2348	89.202533	0.000375	3.750046	1.270550	0.000150
 485	4.8158e+01	19.2636	89.331721	0.000324	3.243283	1.098854	0.000130
 486	4.8258e+01	19.3102	89.493206	0.000405	4.054103	1.373567	0.000162
 487	4.8357e+01	19.3535	89.634506	0.000355	3.547340	1.201871	0.000142
 488	4.8456e+01	19.4000	89.820214	0.000466	4.662219	1.579602	0.000187
 489	4.8556e+01	19.4321	89.965551	0.000365	3.648693	1.236211	0.000146
 490	4.8656e+01	19.4786	90.147222	0.000456	4.560866	1.545263	0.000183
 491	4.8755e+01	19.5091	90.256225	0.000274	2.736520	0.927158	0.000110
 492	4.8855e+01	19.5524	90.470193	0.000537	5.371687	1.819977	0.000215
 493	4.8954e+01	19.5893	90.563047	0.000233	2.331109	0.789801	0.000093
 494	4.9053e+01	19.6294	90.752793	0.000476	4.763571	1.613942	0.000191
 495	4.9153e+01	19.6759	90.910241	0.000395	3.952751	1.339228	0.000158
 496	4.9252e+01	19.7176	91.059615	0.000375	3.750046	1.270550	0.000150
 497	4.9352e+01	19.7513	91.213026	0.000385	3.851398	1.304889	0.000154
 498	4.9452e+01	19.7898	91.406809	0.000486	4.864924	1.648281	0.000195
 499	4.9551e+01	19.8331	91.544071	0.000345	3.445988	1.167532	0.000138
 500	4.9651e+01	19.8716	91.693445	0.000375	3.750046	1.270550	0.000150
 501	4.9750e+01	19.9117	91.858968	0.000416	4.155456	1.407907	0.000166
 502	4.9849e+01	19.9583	92.008342	0.000375	3.750046	1.270550	0.000150
 503	4.9949e+01	19.9855	92.173865	0.000416	4.155456	1.407907	0.000166
 504	5.0048e+01	19.9470	92.076973	0.000243	2.432462	0.824140	-0.000097
 505	5.0148e+01	19.9037	91.955859	0.000304	3.040577	1.030176	-0.000122
 506	5.0248e+01	19.8652	91.822634	0.000334	3.344635	1.133193	-0.000134
 507	5.0347e+01	19.8251	91.721705	0.000253	2.533815	0.858480	-0.000101
 508	5.0447e+01	19.7962	91.636926	0.000213	2.128404	0.721123	-0.000085
 509	5.0546e+01	19.7497	91.507737	0.000324	3.243283	1.098854	-0.000130
 510	5.0645e+01	19.7032	91.402772	0.000264	2.635167	0.892819	-0.000105
 511	5.0745e+01	19.6711	91.273583	0.000324	3.243283	1.098854	-0.000130
 512	5.0844e+01	19.6310	91.160544	0.000284	2.837872	0.961497	-0.000114
 513	5.0944e+01	19.5941	91.051541	0.000274	2.736520	0.927158	-0.000110
 514	5.1044e+01	19.5444	90.974835	0.000193	1.925699	0.652445	-0.000077
 515	5.1143e+01	19.5171	90.821424	0.000385	3.851398	1.304889	-0.000154
 516	5.1242e+01	19.4642	90.700310	0.000304	3.040577	1.030176	-0.000122
 517	5.1342e+01	19.4305	90.611493	0.000223	2.229757	0.755462	-0.000089
 518	5.1441e+01	19.3968	90.478268	0.000334	3.344635	1.133193	-0.000134
 519	5.1541e+01	19.3631	90.381376	0.000243	2.432462	0.824140	-0.000097
 520	5.1641e+01	19.3198	90.236039	0.000365	3.648693	1.236211	-0.000146
 521	5.1740e+01	19.2797	90.114925	0.000304	3.040577	1.030176	-0.000122
 522	5.1840e+01	19.2331	90.005923	0.000274	2.736520	0.927158	-0.000110
 523	5.1939e+01	19.1866	89.896920	0.000274	2.736520	0.927158	-0.000110
 524	5.2038e+01	19.1594	89.739472	0.000395	3.952751	1.339228	-0.000158
 525	5.2138e+01	19.1112	89.638543	0.000253	2.533815	0.858480	-0.000101
 526	5.2237e+01	19.0840	89.557801	0.000203	2.027052	0.686784	-0.000081
 527	5.2337e+01	19.0326	89.408427	0.000375	3.750046	1.270550	-0.000150
 528	5.2437e+01	18.9925	89.299424	0.000274	2.736520	0.927158	-0.000110
 529	5.2536e+01	18.9556	89.170236	0.000324	3.243283	1.098854	-0.000130
 530	5.2636e+01	18.9075	89.032973	0.000345	3.445988	1.167532	-0.000138
 531	5.2735e+01	18.8706	88.903785	0.000324	3.243283	1.098854	-0.000130
 532	5.2834e+01	18.8289	88.770559	0.000334	3.344635	1.133193	-0.000134
 533	5.2934e+01	18.7952	88.649445	0.000304	3.040577	1.030176	-0.000122
 534	5.3033e+01	18.7631	88.568702	0.000203	2.027052	0.686784	-0.000081
 535	5.3133e+01	18.7166	88.423366	0.000365	3.648693	1.236211	-0.000146
 536	5.3233e+01	18.6781	88.290140	0.000334	3.344635	1.133193	-0.000134
 537	5.3332e+01	18.6412	88.164989	0.000314	3.141930	1.064515	-0.000126
 538	5.3431e+01	18.5963	88.047912	0.000294	2.939225	0.995836	-0.000118
 539	5.3531e+01	18.5594	87.922761	0.000314	3.141930	1.064515	-0.000126
 540	5.3630e+01	18.5112	87.805684	0.000294	2.939225	0.995836	-0.000118
 541	5.3730e+01	18.4808	87.632087	0.000436	4.358161	1.476585	-0.000174
 542	5.3830e+01	18.4294	87.523084	0.000274	2.736520	0.927158	-0.000110
 543	5.3929e+01	18.3909	87.426193	0.000243	2.432462	0.824140	-0.000097
 544	5.4029e+01	18.3572	87.292967	0.000334	3.344635	1.133193	-0.000134
 545	5.4128e+01	18.3187	87.155705	0.000345	3.445988	1.167532	-0.000138
 546	5.4227e+01	18.2770	87.018442	0.000345	3.445988	1.167532	-0.000138
 547	5.4327e+01	18.2417	86.897328	0.000304	3.040577	1.030176	-0.000122
 548	5.4426e+01	18.1952	86.760066	0.000345	3.445988	1.167532	-0.000138
 549	5.4526e+01	18.1663	86.618766	0.000355	3.547340	1.201871	-0.000142
 550	5.4626e+01	18.1262	86.517837	0.000253	2.533815	0.858480	-0.000101
 551	5.4725e+01	18.0749	86.360389	0.000395	3.952751	1.339228	-0.000158
 552	5.4825e+01	18.0428	86.279646	0.000203	2.027052	0.686784	-0.000081
 553	5.4924e+01	17.9995	86.146421	0.000334	3.344635	1.133193	-0.000134
 554	5.5023e+01	17.9594	85.997047	0.000375	3.750046	1.270550	-0.000150
 555	5.5123e+01	17.9289	85.863821	0.000334	3.344635	1.133193	-0.000134
 556	5.5222e+01	17.8744	85.718485	0.000365	3.648693	1.236211	-0.000146
 557	5.5322e+01	17.8439	85.609482	0.000274	2.736520	0.927158	-0.000110
 558	5.5422e+01	17.7958	85.464145	0.000365	3.648693	1.236211	-0.000146
 559	5.5521e+01	17.7605	85.302660	0.000405	4.054103	1.373567	-0.000162
 560	5.5620e+01	17.7171	85.213843	0.000223	2.229757	0.755462	-0.000089
 561	5.5720e+01	17.6722	85.064469	0.000375	3.750046	1.270550	-0.000150
 562	5.5819e+01	17.6401	84.947392	0.000294	2.939225	0.995836	-0.000118
 563	5.5919e+01	17.6000	84.822240	0.000314	3.141930	1.064515	-0.000126
 564	5.6019e+01	17.5583	84.636532	0.000466	4.662219	1.579602	-0.000187
 565	5.6118e+01	17.5182	84.535604	0.000253	2.533815	0.858480	-0.000101
 566	5.6218e+01	17.4765	84.394304	0.000355	3.547340	1.201871	-0.000142
 567	5.6317e+01	17.4380	84.248967	0.000365	3.648693	1.236211	-0.000146
 568	5.6416e+01	17.4027	84.123816	0.000314	3.141930	1.064515	-0.000126
 569	5.6516e+01	17.3626	83.978479	0.000365	3.648693	1.236211	-0.000146
 570	5.6615e+01	17.3241	83.885625	0.000233	2.331109	0.789801	-0.000093
 571	5.6715e+01	17.2824	83.667620	0.000547	5.473039	1.854316	-0.000219
 572	5.6815e+01	17.2423	83.594951	0.000182	1.824346	0.618105	-0.000073
 573	5.6914e+01	17.2054	83.417317	0.000446	4.459514	1.510924	-0.000179
 574	5.7014e+01	17.1685	83.308315	0.000274	2.736520	0.927158	-0.000110
 575	5.7113e+01	17.1268	83.154903	0.000385	3.851398	1.304889	-0.000154
 576	5.7212e+01	17.0819	83.021678	0.000334	3.344635	1.133193	-0.000134
 577	5.7312e+01	17.0450	82.876341	0.000365	3.648693	1.236211	-0.000146
 578	5.7411e+01	17.0001	82.743116	0.000334	3.344635	1.133193	-0.000134
 579	5.7511e+01	16.9632	82.585667	0.000395	3.952751	1.339228	-0.000158
 580	5.7611e+01	16.9182	82.492813	0.000233	2.331109	0.789801	-0.000093
 581	5.7710e+01	16.8765	82.319216	0.000436	4.358161	1.476585	-0.000174
 582	5.7809e+01	16.8444	82.194065	0.000314	3.141930	1.064515	-0.000126
 583	5.7909e+01	16.7979	82.016431	0.000446	4.459514	1.510924	-0.000179
 584	5.8008e+01	16.7578	81.895317	0.000304	3.040577	1.030176	-0.000122
 585	5.8108e+01	16.7161	81.729794	0.000416	4.155456	1.407907	-0.000166
 586	5.8208e+01	16.6872	81.604643	0.000314	3.141930	1.064515	-0.000126
 587	5.8307e+01	16.6343	81.483529	0.000304	3.040577	1.030176	-0.000122
 588	5.8407e+01	16.6086	81.334155	0.000375	3.750046	1.270550	-0.000150
 589	5.8506e+01	16.5573	81.176707	0.000395	3.952751	1.339228	-0.000158
 590	5.8605e+01	16.5252	81.059630	0.000294	2.939225	0.995836	-0.000118
 591	5.8705e+01	16.4835	80.906219	0.000385	3.851398	1.304889	-0.000154
 592	5.8804e+01	16.4498	80.768956	0.000345	3.445988	1.167532	-0.000138
 593	5.8904e+01	16.3985	80.599396	0.000426	4.256808	1.442246	-0.000170
 594	5.9004e+01	16.3632	80.458097	0.000355	3.547340	1.201871	-0.000142
 595	5.9103e+01	16.3167	80.312760	0.000365	3.648693	1.236211	-0.000146
 596	5.9203e+01	16.2942	80.175497	0.000345	3.445988	1.167532	-0.000138
 597	5.9302e+01	16.2477	80.050346	0.000314	3.141930	1.064515	-0.000126
 598	5.9401e+01	16.2011	79.876749	0.000436	4.358161	1.476585	-0.000174
 599	5.9501e+01	16.1610	79.767746	0.000274	2.736520	0.927158	-0.000110
 600	5.9600e+01	16.1145	79.610298	0.000395	3.952751	1.339228	-0.000158
 601	5.9700e+01	16.0856	79.481110	0.000324	3.243283	1.098854	-0.000130
 602	5.9800e+01	16.0407	79.311550	0.000426	4.256808	1.442246	-0.000170
 603	5.9899e+01	16.0102	79.190436	0.000304	3.040577	1.030176	-0.000122
 604	5.9998e+01	15.9653	79.012802	0.000446	4.459514	1.510924	-0.000179
 605	6.0098e+01	15.9252	78.895725	0.000294	2.939225	0.995836	-0.000118
 606	6.0197e+01	15.8899	78.722128	0.000436	4.358161	1.476585	-0.000174
 607	6.0297e+01	15.8418	78.617163	0.000264	2.635167	0.892819	-0.000105
 608	6.0397e+01	15.8081	78.467789	0.000375	3.750046	1.270550	-0.000150
 609	6.0496e+01	15.7712	78.274006	0.000486	4.864924	1.648281	-0.000195
 610	6.0596e+01	15.7231	78.152892	0.000304	3.040577	1.030176	-0.000122
 611	6.0695e+01	15.6894	77.987370	0.000416	4.155456	1.407907	-0.000166
 612	6.0794e+01	15.6509	77.825884	0.000405	4.054103	1.373567	-0.000162
 613	6.0894e+01	15.6156	77.700733	0.000314	3.141930	1.064515	-0.000126
 614	6.0993e+01	15.5595	77.583656	0.000294	2.939225	0.995836	-0.000118
 615	6.1093e+01	15.5306	77.393911	0.000476	4.763571	1.613942	-0.000191
 616	6.1193e+01	15.4889	77.240500	0.000385	3.851398	1.304889	-0.000154
 617	6.1292e+01	15.4391	77.107274	0.000334	3.344635	1.133193	-0.000134
 618	6.1392e+01	15.4054	76.937714	0.000426	4.256808	1.442246	-0.000170
 619	6.1491e+01	15.3718	76.828712	0.000274	2.736520	0.927158	-0.000110
 620	6.1590e+01	15.3268	76.691449	0.000345	3.445988	1.167532	-0.000138
 621	6.1690e+01	15.2803	76.534001	0.000395	3.952751	1.339228	-0.000158
 622	6.1789e+01	15.2514	76.388664	0.000365	3.648693	1.236211	-0.000146
 623	6.1889e+01	15.2001	76.259476	0.000324	3.243283	1.098854	-0.000130
 624	6.1989e+01	15.1712	76.037433	0.000557	5.574392	1.888655	-0.000223
 625	6.2088e+01	15.1231	75.904208	0.000334	3.344635	1.133193	-0.000134
 626	6.2188e+01	15.0750	75.746759	0.000395	3.952751	1.339228	-0.000158
 627	6.2287e+01	15.0557	75.641794	0.000264	2.635167	0.892819	-0.000105
 628	6.2386e+01	15.0172	75.427826	0.000537	5.371687	1.819977	-0.000215
 629	6.2486e+01	14.9659	75.330934	0.000243	2.432462	0.824140	-0.000097
 630	6.2586e+01	14.9242	75.189635	0.000355	3.547340	1.201871	-0.000142
 631	6.2685e+01	14.8905	75.028149	0.000405	4.054103	1.373567	-0.000162
 632	6.2785e+01	14.8536	74.834367	0.000486	4.864924	1.648281	-0.000195
 633	6.2884e+01	14.8039	74.689030	0.000365	3.648693	1.236211	-0.000146
 634	6.2983e+01	14.7766	74.604250	0.000213	2.128404	0.721123	-0.000085
 635	6.3083e+01	14.7220	74.406430	0.000497	4.966277	1.682620	-0.000199
 636	6.3182e+01	14.6851	74.269168	0.000345	3.445988	1.167532	-0.000138
 637	6.3282e+01	14.6418	74.107682	0.000405	4.054103	1.373567	-0.000162
 638	6.3382e+01	14.6065	73.954271	0.000385	3.851398	1.304889	-0.000154
 639	6.3481e+01	14.5761	73.776637	0.000446	4.459514	1.510924	-0.000179
 640	6.3581e+01	14.5215	73.671672	0.000264	2.635167	0.892819	-0.000105
 641	6.3680e+01	14.4894	73.498075	0.000436	4.358161	1.476585	-0.000174
 642	6.3779e+01	14.4557	73.356775	0.000355	3.547340	1.201871	-0.000142
 643	6.3879e+01	14.4124	73.175104	0.000456	4.560866	1.545263	-0.000183
 644	6.3978e+01	14.3707	73.058027	0.000294	2.939225	0.995836	-0.000118
 645	6.4078e+01	14.3226	72.888467	0.000426	4.256808	1.442246	-0.000170
 646	6.4177e+01	14.2905	72.747167	0.000355	3.547340	1.201871	-0.000142
 647	6.4277e+01	14.2536	72.577608	0.000426	4.256808	1.442246	-0.000170
 648	6.4376e+01	14.2055	72.460531	0.000294	2.939225	0.995836	-0.000118
 649	6.4476e+01	14.1750	72.270785	0.000476	4.763571	1.613942	-0.000191
 650	6.4576e+01	14.1365	72.165820	0.000264	2.635167	0.892819	-0.000105
 651	6.4675e+01	14.0900	72.032594	0.000334	3.344635	1.133193	-0.000134
 652	6.4775e+01	14.0547	71.863035	0.000426	4.256808	1.442246	-0.000170
 653	6.4874e+01	14.0242	71.709624	0.000385	3.851398	1.304889	-0.000154
 654	6.4974e+01	13.9761	71.527952	0.000456	4.560866	1.545263	-0.000183
 655	6.5073e+01	13.9328	71.378578	0.000375	3.750046	1.270550	-0.000150
 656	6.5172e+01	13.8959	71.225167	0.000385	3.851398	1.304889	-0.000154
 657	6.5272e+01	13.8542	71.104053	0.000304	3.040577	1.030176	-0.000122
 658	6.5371e+01	13.8092	70.914308	0.000476	4.763571	1.613942	-0.000191
 659	6.5471e+01	13.7820	70.789157	0.000314	3.141930	1.064515	-0.000126
 660	6.5570e+01	13.7451	70.603448	0.000466	4.662219	1.579602	-0.000187
 661	6.5670e+01	13.6937	70.437926	0.000416	4.155456	1.407907	-0.000166
 662	6.5769e+01	13.6536	70.328923	0.000274	2.736520	0.927158	-0.000110
 663	6.5869e+01	13.6103	70.159363	0.000426	4.256808	1.442246	-0.000170
 664	6.5969e+01	13.5750	70.022101	0.000345	3.445988	1.167532	-0.000138
 665	6.6068e+01	13.5285	69.868690	0.000385	3.851398	1.304889	-0.000154
 666	6.6168e+01	13.4916	69.715278	0.000385	3.851398	1.304889	-0.000154
 667	6.6267e+01	13.4659	69.545719	0.000426	4.256808	1.442246	-0.000170
 668	6.6367e+01	13.4114	69.412493	0.000334	3.344635	1.133193	-0.000134
 669	6.6466e+01	13.3729	69.251008	0.000405	4.054103	1.373567	-0.000162
 670	6.6566e+01	13.3344	69.081448	0.000426	4.256808	1.442246	-0.000170
 671	6.6665e+01	13.3007	68.932074	0.000375	3.750046	1.270550	-0.000150
 672	6.6764e+01	13.2429	68.790774	0.000355	3.547340	1.201871	-0.000142
 673	6.6864e+01	13.2125	68.621215	0.000426	4.256808	1.442246	-0.000170
 674	6.6963e+01	13.1675	68.492026	0.000324	3.243283	1.098854	-0.000130
 675	6.7063e+01	13.1387	68.314392	0.000446	4.459514	1.510924	-0.000179
 676	6.7162e+01	13.0986	68.185204	0.000324	3.243283	1.098854	-0.000130
 677	6.7262e+01	13.0617	68.019681	0.000416	4.155456	1.407907	-0.000166
 678	6.7362e+01	13.0200	67.878382	0.000355	3.547340	1.201871	-0.000142
 679	6.7461e+01	12.9782	67.716896	0.000405	4.054103	1.373567	-0.000162
 680	6.7561e+01	12.9317	67.559448	0.000395	3.952751	1.339228	-0.000158
 681	6.7660e+01	12.9028	67.410074	0.000375	3.750046	1.270550	-0.000150
 682	6.7760e+01	12.8627	67.264737	0.000365	3.648693	1.236211	-0.000146
 683	6.7859e+01	12.8210	67.115363	0.000375	3.750046	1.270550	-0.000150
 684	6.7959e+01	12.7697	66.974063	0.000355	3.547340	1.201871	-0.000142
 685	6.8058e+01	12.7440	66.788355	0.000466	4.662219	1.579602	-0.000187
 686	6.8157e+01	12.7055	66.622833	0.000416	4.155456	1.407907	-0.000166
 687	6.8257e+01	12.6542	66.469421	0.000385	3.851398	1.304889	-0.000154
 688	6.8356e+01	12.6253	66.328122	0.000355	3.547340	1.201871	-0.000142
 689	6.8456e+01	12.5852	66.146450	0.000456	4.560866	1.545263	-0.000183
 690	6.8555e+01	12.5403	66.037448	0.000274	2.736520	0.927158	-0.000110
 691	6.8655e+01	12.5034	65.847702	0.000476	4.763571	1.613942	-0.000191
 692	6.8754e+01	12.4633	65.666031	0.000456	4.560866	1.545263	-0.000183
 693	6.8854e+01	12.4168	65.528769	0.000345	3.445988	1.167532	-0.000138
 694	6.8954e+01	12.3943	65.383432	0.000365	3.648693	1.236211	-0.000146
 695	6.9053e+01	12.3398	65.250206	0.000334	3.344635	1.133193	-0.000134
 696	6.9153e+01	12.2997	65.116981	0.000334	3.344635	1.133193	-0.000134
 697	6.9252e+01	12.2660	64.931273	0.000466	4.662219	1.579602	-0.000187
 698	6.9352e+01	12.2275	64.745564	0.000466	4.662219	1.579602	-0.000187
 699	6.9451e+01	12.1858	64.608302	0.000345	3.445988	1.167532	-0.000138
 700	6.9550e+01	12.1473	64.458928	0.000375	3.750046	1.270550	-0.000150
 701	6.9650e+01	12.0943	64.313591	0.000365	3.648693	1.236211	-0.000146
 702	6.9749e+01	12.0702	64.127883	0.000466	4.662219	1.579602	-0.000187
 703	6.9849e+01	12.0237	63.990620	0.000345	3.445988	1.167532	-0.000138
 704	6.9948e+01	11.9900	63.833172	0.000395	3.952751	1.339228	-0.000158
 705	7.0048e+01	11.9483	63.663612	0.000426	4.256808	1.442246	-0.000170
 706	7.0147e+01	11.9162	63.481941	0.000456	4.560866	1.545263	-0.000183
 707	7.0247e+01	11.8537	63.364864	0.000294	2.939225	0.995836	-0.000118
 708	7.0347e+01	11.8216	63.183193	0.000456	4.560866	1.545263	-0.000183
 709	7.0446e+01	11.7799	63.009596	0.000436	4.358161	1.476585	-0.000174
 710	7.0546e+01	11.7398	62.860222	0.000375	3.750046	1.270550	-0.000150
 711	7.0645e+01	11.7029	62.718922	0.000355	3.547340	1.201871	-0.000142
 712	7.0745e+01	11.6644	62.573585	0.000365	3.648693	1.236211	-0.000146
 713	7.0844e+01	11.6275	62.355580	0.000547	5.473039	1.854316	-0.000219
 714	7.0944e+01	11.5954	62.202169	0.000385	3.851398	1.304889	-0.000154
 715	7.1043e+01	11.5569	62.064906	0.000345	3.445988	1.167532	-0.000138
 716	7.1142e+01	11.5056	61.895347	0.000426	4.256808	1.442246	-0.000170
 717	7.1242e+01	11.4558	61.754047	0.000355	3.547340	1.201871	-0.000142
 718	7.1341e+01	11.4286	61.604673	0.000375	3.750046	1.270550	-0.000150
 719	7.1441e+01	11.3901	61.414927	0.000476	4.763571	1.613942	-0.000191
 720	7.1540e+01	11.3435	61.233256	0.000456	4.560866	1.545263	-0.000183
 721	7.1640e+01	11.3050	61.120217	0.000284	2.837872	0.961497	-0.000114
 722	7.1740e+01	11.2665	60.930471	0.000476	4.763571	1.613942	-0.000191
 723	7.1839e+01	11.2200	60.756874	0.000436	4.358161	1.476585	-0.000174
 724	7.1939e+01	11.1863	60.631723	0.000314	3.141930	1.064515	-0.000126
 725	7.2038e+01	11.1526	60.441978	0.000476	4.763571	1.613942	-0.000191
 726	7.2138e+01	11.1077	60.296641	0.000365	3.648693	1.236211	-0.000146
 727	7.2237e+01	11.0596	60.114970	0.000456	4.560866	1.545263	-0.000183
 728	7.2337e+01	11.0243	59.929261	0.000466	4.662219	1.579602	-0.000187
 729	7.2436e+01	10.9842	59.804110	0.000314	3.141930	1.064515	-0.000126
 730	7.2535e+01	10.9473	59.610328	0.000486	4.864924	1.648281	-0.000195
 731	7.2635e+01	10.9088	59.432694	0.000446	4.459514	1.510924	-0.000179
 732	7.2734e+01	10.8671	59.259097	0.000436	4.358161	1.476585	-0.000174
 733	7.2834e+01	10.8286	59.093574	0.000416	4.155456	1.407907	-0.000166
 734	7.2933e+01	10.7869	58.972460	0.000304	3.040577	1.030176	-0.000122
 735	7.3033e+01	10.7532	58.750418	0.000557	5.574392	1.888655	-0.000223
 736	7.3132e+01	10.7018	58.633341	0.000294	2.939225	0.995836	-0.000118
 737	7.3232e+01	10.6681	58.447633	0.000466	4.662219	1.579602	-0.000187
 738	7.3332e+01	10.6329	58.265962	0.000456	4.560866	1.545263	-0.000183
 739	7.3431e+01	10.5895	58.080253	0.000466	4.662219	1.579602	-0.000187
 740	7.3531e+01	10.5446	57.926842	0.000385	3.851398	1.304889	-0.000154
 741	7.3630e+01	10.5093	57.757282	0.000426	4.256808	1.442246	-0.000170
 742	7.3730e+01	10.4628	57.607908	0.000375	3.750046	1.270550	-0.000150
 743	7.3829e+01	10.4275	57.406052	0.000507	5.067629	1.716959	-0.000203
 744	7.3928e+01	10.3842	57.228418	0.000446	4.459514	1.510924	-0.000179
 745	7.4028e+01	10.3441	57.066932	0.000405	4.054103	1.373567	-0.000162
 746	7.4127e+01	10.3136	56.929670	0.000345	3.445988	1.167532	-0.000138
 747	7.4227e+01	10.2687	56.719739	0.000527	5.270334	1.785638	-0.000211
 748	7.4326e+01	10.2334	56.578439	0.000355	3.547340	1.201871	-0.000142
 749	7.4426e+01	10.1949	56.388693	0.000476	4.763571	1.613942	-0.000191
 750	7.4525e+01	10.1548	56.178762	0.000527	5.270334	1.785638	-0.000211
 751	7.4625e+01	10.1147	56.053611	0.000314	3.141930	1.064515	-0.000126
 752	7.4725e+01	10.0714	55.871940	0.000456	4.560866	1.545263	-0.000183
 753	7.4824e+01	10.0313	55.686232	0.000466	4.662219	1.579602	-0.000187
 754	7.4924e+01	9.9912	55.500524	0.000466	4.662219	1.579602	-0.000187
 755	7.5023e+01	9.9559	55.343075	0.000395	3.952751	1.339228	-0.000158
 756	7.5123e+01	9.9061	55.189664	0.000385	3.851398	1.304889	-0.000154
 757	7.5222e+01	9.8676	55.016067	0.000436	4.358161	1.476585	-0.000174
 758	7.5322e+01	9.8227	54.806136	0.000527	5.270334	1.785638	-0.000211
 759	7.5421e+01	9.7922	54.636577	0.000426	4.256808	1.442246	-0.000170
 760	7.5520e+01	9.7457	54.450868	0.000466	4.662219	1.579602	-0.000187
 761	7.5620e+01	9.7104	54.317643	0.000334	3.344635	1.133193	-0.000134
 762	7.5719e+01	9.6687	54.111749	0.000517	5.168982	1.751298	-0.000207
 763	7.5819e+01	9.6318	53.938152	0.000436	4.358161	1.476585	-0.000174
 764	7.5918e+01	9.5917	53.780704	0.000395	3.952751	1.339228	-0.000158
 765	7.6018e+01	9.5580	53.615181	0.000416	4.155456	1.407907	-0.000166
 766	7.6118e+01	9.5099	53.437547	0.000446	4.459514	1.510924	-0.000179
 767	7.6217e+01	9.4666	53.251839	0.000466	4.662219	1.579602	-0.000187
 768	7.6317e+01	9.4329	53.106502	0.000365	3.648693	1.236211	-0.000146
 769	7.6416e+01	9.4008	52.888497	0.000547	5.473039	1.854316	-0.000219
 770	7.6516e+01	9.3575	52.714900	0.000436	4.358161	1.476585	-0.000174
 771	7.6615e+01	9.3110	52.557452	0.000395	3.952751	1.339228	-0.000158
 772	7.6715e+01	9.2789	52.371743	0.000466	4.662219	1.579602	-0.000187
 773	7.6814e+01	9.2324	52.165849	0.000517	5.168982	1.751298	-0.000207
 774	7.6913e+01	9.1987	51.980141	0.000466	4.662219	1.579602	-0.000187
 775	7.7013e+01	9.1538	51.842879	0.000345	3.445988	1.167532	-0.000138
 776	7.7112e+01	9.1056	51.636985	0.000517	5.168982	1.751298	-0.000207
 777	7.7212e+01	9.0784	51.491648	0.000365	3.648693	1.236211	-0.000146
 778	7.7311e+01	9.0350	51.265568	0.000568	5.675745	1.922994	-0.000227
 779	7.7411e+01	8.9933	51.120231	0.000365	3.648693	1.236211	-0.000146
 780	7.7510e+01	8.9484	50.898189	0.000557	5.574392	1.888655	-0.000223
 781	7.7610e+01	8.9195	50.720555	0.000446	4.459514	1.510924	-0.000179
 782	7.7710e+01	8.8778	50.563107	0.000395	3.952751	1.339228	-0.000158
 783	7.7809e+01	8.8329	50.381435	0.000456	4.560866	1.545263	-0.000183
 784	7.7909e+01	8.7976	50.167467	0.000537	5.371687	1.819977	-0.000215
 785	7.8008e+01	8.7575	50.034242	0.000334	3.344635	1.133193	-0.000134
 786	7.8108e+01	8.7206	49.816236	0.000547	5.473039	1.854316	-0.000219
 787	7.8207e+01	8.6661	49.654751	0.000405	4.054103	1.373567	-0.000162
 788	7.8306e+01	8.6356	49.469043	0.000466	4.662219	1.579602	-0.000187
 789	7.8406e+01	8.5987	49.263149	0.000517	5.168982	1.751298	-0.000207
 790	7.8505e+01	8.5506	49.117812	0.000365	3.648693	1.236211	-0.000146
 791	7.8605e+01	8.5137	48.907881	0.000527	5.270334	1.785638	-0.000211
 792	7.8704e+01	8.4784	48.726210	0.000456	4.560866	1.545263	-0.000183
 793	7.8804e+01	8.4302	48.560687	0.000416	4.155456	1.407907	-0.000166
 794	7.8903e+01	8.3933	48.374979	0.000466	4.662219	1.579602	-0.000187
 795	7.9003e+01	8.3645	48.169085	0.000517	5.168982	1.751298	-0.000207
 796	7.9103e+01	8.3131	47.971265	0.000497	4.966277	1.682620	-0.000199
 797	7.9202e+01	8.2714	47.789594	0.000456	4.560866	1.545263	-0.000183
 798	7.9302e+01	8.2329	47.599849	0.000476	4.763571	1.613942	-0.000191
 799	7.9401e+01	8.1976	47.478735	0.000304	3.040577	1.030176	-0.000122
 800	7.9501e+01	8.1543	47.280915	0.000497	4.966277	1.682620	-0.000199
 801	7.9600e+01	8.1126	47.091170	0.000476	4.763571	1.613942	-0.000191
 802	7.9700e+01	8.0709	46.848942	0.000608	6.081155	2.060351	-0.000243
 803	7.9799e+01	8.0356	46.727828	0.000304	3.040577	1.030176	-0.000122
 804	7.9898e+01	7.9939	46.517897	0.000527	5.270334	1.785638	-0.000211
 805	7.9998e+01	7.9570	46.348337	0.000426	4.256808	1.442246	-0.000170
 806	8.0097e+01	7.9201	46.142443	0.000517	5.168982	1.751298	-0.000207
 807	8.0197e+01	7.8784	45.984995	0.000395	3.952751	1.339228	-0.000158
 808	8.0296e+01	7.8415	45.754878	0.000578	5.777097	1.957334	-0.000231
 809	8.0396e+01	7.8014	45.589355	0.000416	4.155456	1.407907	-0.000166
 810	8.0496e+01	7.7597	45.375387	0.000537	5.371687	1.819977	-0.000215
 811	8.0595e+01	7.7148	45.193716	0.000456	4.560866	1.545263	-0.000183
 812	8.0695e+01	7.6875	45.052416	0.000355	3.547340	1.201871	-0.000142
 813	8.0794e+01	7.6426	44.878819	0.000436	4.358161	1.476585	-0.000174
 814	8.0894e+01	7.5960	44.668888	0.000527	5.270334	1.785638	-0.000211
 815	8.0993e+01	7.5591	44.495292	0.000436	4.358161	1.476585	-0.000174
 816	8.1093e+01	7.5239	44.297472	0.000497	4.966277	1.682620	-0.000199
 817	8.1192e+01	7.4757	44.075429	0.000557	5.574392	1.888655	-0.000223
 818	8.1291e+01	7.4404	43.942204	0.000334	3.344635	1.133193	-0.000134
 819	8.1391e+01	7.3987	43.724199	0.000547	5.473039	1.854316	-0.000219
 820	8.1490e+01	7.3602	43.518305	0.000517	5.168982	1.751298	-0.000207
 821	8.1590e+01	7.3169	43.364894	0.000385	3.851398	1.304889	-0.000154
 822	8.1689e+01	7.2752	43.167074	0.000497	4.966277	1.682620	-0.000199
 823	8.1789e+01	7.2463	42.965217	0.000507	5.067629	1.716959	-0.000203
 824	8.1888e+01	7.2014	42.799695	0.000416	4.155456	1.407907	-0.000166
 825	8.1988e+01	7.1597	42.609949	0.000476	4.763571	1.613942	-0.000191
 826	8.2088e+01	7.1228	42.412129	0.000497	4.966277	1.682620	-0.000199
 827	8.2187e+01	7.0715	42.258718	0.000385	3.851398	1.304889	-0.000154
 828	8.2287e+01	7.0410	42.036676	0.000557	5.574392	1.888655	-0.000223
 829	8.2386e+01	7.0009	41.830782	0.000517	5.168982	1.751298	-0.000207
 830	8.2486e+01	6.9592	41.697556	0.000334	3.344635	1.133193	-0.000134
 831	8.2585e+01	6.9207	41.483588	0.000537	5.371687	1.819977	-0.000215
 832	8.2684e+01	6.8822	41.309991	0.000436	4.358161	1.476585	-0.000174
 833	8.2784e+01	6.8453	41.055652	0.000639	6.385213	2.163369	-0.000256
 834	8.2883e+01	6.8036	40.910315	0.000365	3.648693	1.236211	-0.000146
 835	8.2983e+01	6.7522	40.700384	0.000527	5.270334	1.785638	-0.000211
 836	8.3082e+01	6.7249	40.522750	0.000446	4.459514	1.510924	-0.000179
 837	8.3182e+01	6.6880	40.328967	0.000486	4.864924	1.648281	-0.000195
 838	8.3281e+01	6.6544	40.135185	0.000486	4.864924	1.648281	-0.000195
 839	8.3381e+01	6.6062	39.933328	0.000507	5.067629	1.716959	-0.000203
 840	8.3481e+01	6.5565	39.719360	0.000537	5.371687	1.819977	-0.000215
 841	8.3580e+01	6.5228	39.590172	0.000324	3.243283	1.098854	-0.000130
 842	8.3680e+01	6.4859	39.388315	0.000507	5.067629	1.716959	-0.000203
 843	8.3779e+01	6.4458	39.170309	0.000547	5.473039	1.854316	-0.000219
 844	8.3879e+01	6.4057	38.984601	0.000466	4.662219	1.579602	-0.000187
 845	8.3978e+01	6.3688	38.831190	0.000385	3.851398	1.304889	-0.000154
 846	8.4078e+01	6.3319	38.629333	0.000507	5.067629	1.716959	-0.000203
 847	8.4177e+01	6.2822	38.431514	0.000497	4.966277	1.682620	-0.000199
 848	8.4276e+01	6.2469	38.237731	0.000486	4.864924	1.648281	-0.000195
 849	8.4376e+01	6.2116	38.072209	0.000416	4.155456	1.407907	-0.000166
 850	8.4475e+01	6.1635	37.866315	0.000517	5.168982	1.751298	-0.000207
 851	8.4575e+01	6.1266	37.668495	0.000497	4.966277	1.682620	-0.000199
 852	8.4674e+01	6.0784	37.470675	0.000497	4.966277	1.682620	-0.000199
 853	8.4774e+01	6.0464	37.252670	0.000547	5.473039	1.854316	-0.000219
 854	8.4874e+01	6.0062	37.070999	0.000456	4.560866	1.545263	-0.000183
 855	8.4973e+01	5.9710	36.913551	0.000395	3.952751	1.339228	-0.000158
 856	8.5073e+01	5.9260	36.679397	0.000588	5.878450	1.991673	-0.000235
 857	8.5172e+01	5.8747	36.546171	0.000334	3.344635	1.133193	-0.000134
 858	8.5272e+01	5.8522	36.328166	0.000547	5.473039	1.854316	-0.000219
 859	8.5371e+01	5.8041	36.138421	0.000476	4.763571	1.613942	-0.000191
 860	8.5471e+01	5.7672	35.908304	0.000578	5.777097	1.957334	-0.000231
 861	8.5570e+01	5.7271	35.734707	0.000436	4.358161	1.476585	-0.000174
 862	8.5669e+01	5.6934	35.540924	0.000486	4.864924	1.648281	-0.000195
 863	8.5769e+01	5.6469	35.363290	0.000446	4.459514	1.510924	-0.000179
 864	8.5868e+01	5.6068	35.169508	0.000486	4.864924	1.648281	-0.000195
 865	8.5968e+01	5.5683	34.975725	0.000486	4.864924	1.648281	-0.000195
 866	8.6067e+01	5.5234	34.757720	0.000547	5.473039	1.854316	-0.000219
 867	8.6167e+01	5.4897	34.576049	0.000456	4.560866	1.545263	-0.000183
 868	8.6266e+01	5.4448	34.382267	0.000486	4.864924	1.648281	-0.000195
 869	8.6366e+01	5.4015	34.160224	0.000557	5.574392	1.888655	-0.000223
 870	8.6466e+01	5.3774	33.986627	0.000436	4.358161	1.476585	-0.000174
 871	8.6565e+01	5.3277	33.804956	0.000456	4.560866	1.545263	-0.000183
 872	8.6665e+01	5.2876	33.574839	0.000578	5.777097	1.957334	-0.000231
 873	8.6764e+01	5.2490	33.389131	0.000466	4.662219	1.579602	-0.000187
 874	8.6864e+01	5.2154	33.207460	0.000456	4.560866	1.545263	-0.000183
 875	8.6963e+01	5.1737	32.993492	0.000537	5.371687	1.819977	-0.000215
 876	8.7063e+01	5.1319	32.791635	0.000507	5.067629	1.716959	-0.000203
 877	8.7162e+01	5.0918	32.589778	0.000507	5.067629	1.716959	-0.000203
 878	8.7261e+01	5.0469	32.412144	0.000446	4.459514	1.510924	-0.000179
 879	8.7361e+01	5.0100	32.173953	0.000598	5.979802	2.026012	-0.000239
 880	8.7460e+01	4.9763	32.004394	0.000426	4.256808	1.442246	-0.000170
 881	8.7560e+01	4.9314	31.766203	0.000598	5.979802	2.026012	-0.000239
 882	8.7659e+01	4.8817	31.616829	0.000375	3.750046	1.270550	-0.000150
 883	8.7759e+01	4.8528	31.382675	0.000588	5.878450	1.991673	-0.000235
 884	8.7859e+01	4.8095	31.209078	0.000436	4.358161	1.476585	-0.000174
 885	8.7958e+01	4.7646	30.958775	0.000628	6.283860	2.129029	-0.000252
 886	8.8058e+01	4.7309	30.781141	0.000446	4.459514	1.510924	-0.000179
 887	8.8157e+01	4.6940	30.579285	0.000507	5.067629	1.716959	-0.000203
 888	8.8257e+01	4.6475	30.389539	0.000476	4.763571	1.613942	-0.000191
 889	8.8356e+01	4.6090	30.179608	0.000527	5.270334	1.785638	-0.000211
 890	8.8456e+01	4.5801	30.018123	0.000405	4.054103	1.373567	-0.000162
 891	8.8555e+01	4.5304	29.804155	0.000537	5.371687	1.819977	-0.000215
 892	8.8654e+01	4.4951	29.606335	0.000497	4.966277	1.682620	-0.000199
 893	8.8754e+01	4.4550	29.392367	0.000537	5.371687	1.819977	-0.000215
 894	8.8853e+01	4.4100	29.218770	0.000436	4.358161	1.476585	-0.000174
 895	8.8953e+01	4.3667	28.980579	0.000598	5.979802	2.026012	-0.000239
 896	8.9052e+01	4.3282	28.794871	0.000466	4.662219	1.579602	-0.000187
 897	8.9152e+01	4.2929	28.584940	0.000527	5.270334	1.785638	-0.000211
 898	8.9251e+01	4.2512	28.314451	0.000679	6.790623	2.300725	-0.000272
 899	8.9351e+01	4.2111	28.144892	0.000426	4.256808	1.442246	-0.000170
 900	8.9451e+01	4.1694	27.951109	0.000486	4.864924	1.648281	-0.000195
 901	8.9550e+01	4.1357	27.737141	0.000537	5.371687	1.819977	-0.000215
 902	8.9650e+01	4.0940	27.531247	0.000517	5.168982	1.751298	-0.000207
 903	8.9749e+01	4.0571	27.357650	0.000436	4.358161	1.476585	-0.000174
 904	8.9849e+01	4.0122	27.131571	0.000568	5.675745	1.922994	-0.000227
 905	8.9948e+01	3.9737	26.901454	0.000578	5.777097	1.957334	-0.000231
 906	9.0047e+01	3.9432	26.687486	0.000537	5.371687	1.819977	-0.000215
 907	9.0147e+01	3.8935	26.453332	0.000588	5.878450	1.991673	-0.000235
 908	9.0246e+01	3.8470	26.263587	0.000476	4.763571	1.613942	-0.000191
 909	9.0346e+01	3.8165	26.073841	0.000476	4.763571	1.613942	-0.000191
 910	9.0445e+01	3.7699	25.871984	0.000507	5.067629	1.716959	-0.000203
 911	9.0545e+01	3.7347	25.658016	0.000537	5.371687	1.819977	-0.000215
 912	9.0644e+01	3.6962	25.419825	0.000598	5.979802	2.026012	-0.000239
 913	9.0744e+01	3.6544	25.230080	0.000476	4.763571	1.613942	-0.000191
 914	9.0844e+01	3.6111	24.991889	0.000598	5.979802	2.026012	-0.000239
 915	9.0943e+01	3.5855	24.790032	0.000507	5.067629	1.716959	-0.000203
 916	9.1043e+01	3.5421	24.616435	0.000436	4.358161	1.476585	-0.000174
 917	9.1142e+01	3.4956	24.386318	0.000578	5.777097	1.957334	-0.000231
 918	9.1242e+01	3.4587	24.168313	0.000547	5.473039	1.854316	-0.000219
 919	9.1341e+01	3.4250	23.946271	0.000557	5.574392	1.888655	-0.000223
 920	9.1441e+01	3.3753	23.752488	0.000486	4.864924	1.648281	-0.000195
 921	9.1540e+01	3.3288	23.506223	0.000618	6.182508	2.094690	-0.000248
 922	9.1639e+01	3.2999	23.316477	0.000476	4.763571	1.613942	-0.000191
 923	9.1739e+01	3.2598	23.066175	0.000628	6.283860	2.129029	-0.000252
 924	9.1838e+01	3.2197	22.848170	0.000547	5.473039	1.854316	-0.000219
 925	9.1938e+01	3.1796	22.690721	0.000395	3.952751	1.339228	-0.000158
 926	9.2037e+01	3.1395	22.428308	0.000659	6.587918	2.232047	-0.000264
 927	9.2137e+01	3.0914	22.230488	0.000497	4.966277	1.682620	-0.000199
 928	9.2237e+01	3.0689	22.004408	0.000568	5.675745	1.922994	-0.000227
 929	9.2336e+01	3.0127	21.798514	0.000517	5.168982	1.751298	-0.000207
 930	9.2436e+01	2.9839	21.564361	0.000588	5.878450	1.991673	-0.000235
 931	9.2535e+01	2.9390	21.362504	0.000507	5.067629	1.716959	-0.000203
 932	9.2635e+01	2.9005	21.152573	0.000527	5.270334	1.785638	-0.000211
 933	9.2734e+01	2.8571	20.946679	0.000517	5.168982	1.751298	-0.000207
 934	9.2834e+01	2.8234	20.712525	0.000588	5.878450	1.991673	-0.000235
 935	9.2933e+01	2.7914	20.490482	0.000557	5.574392	1.888655	-0.000223
 936	9.3032e+01	2.7384	20.304774	0.000466	4.662219	1.579602	-0.000187
 937	9.3132e+01	2.6967	20.046398	0.000649	6.486565	2.197708	-0.000260
 938	9.3231e+01	2.6662	19.820318	0.000568	5.675745	1.922994	-0.000227
 939	9.3331e+01	2.6101	19.610387	0.000527	5.270334	1.785638	-0.000211
 940	9.3430e+01	2.5796	19.392382	0.000547	5.473039	1.854316	-0.000219
 941	9.3530e+01	2.5379	19.138042	0.000639	6.385213	2.163369	-0.000256
 942	9.3629e+01	2.4978	18.956371	0.000456	4.560866	1.545263	-0.000183
 943	9.3729e+01	2.4545	18.706068	0.000628	6.283860	2.129029	-0.000252
 944	9.3829e+01	2.4368	18.475952	0.000578	5.777097	1.957334	-0.000231
 945	9.3928e+01	2.3759	18.294281	0.000456	4.560866	1.545263	-0.000183
 946	9.4028e+01	2.3470	18.048015	0.000618	6.182508	2.094690	-0.000248
 947	9.4127e+01	2.3021	17.834047	0.000537	5.371687	1.819977	-0.000215
 948	9.4227e+01	2.2684	17.599893	0.000588	5.878450	1.991673	-0.000235
 949	9.4326e+01	2.2203	17.406111	0.000486	4.864924	1.648281	-0.000195
 950	9.4425e+01	2.1850	17.171957	0.000588	5.878450	1.991673	-0.000235
 951	9.4525e+01	2.1417	16.966063	0.000517	5.168982	1.751298	-0.000207
 952	9.4624e+01	2.1015	16.715761	0.000628	6.283860	2.129029	-0.000252
 953	9.4724e+01	2.0663	16.485644	0.000578	5.777097	1.957334	-0.000231
 954	9.4823e+01	2.0181	16.259564	0.000568	5.675745	1.922994	-0.000227
 955	9.4923e+01	1.9812	16.025410	0.000588	5.878450	1.991673	-0.000235
 956	9.5022e+01	1.9459	15.811442	0.000537	5.371687	1.819977	-0.000215
 957	9.5122e+01	1.9010	15.577288	0.000588	5.878450	1.991673	-0.000235
 958	9.5222e+01	1.8593	15.371394	0.000517	5.168982	1.751298	-0.000207
 959	9.5321e+01	1.8192	15.137240	0.000588	5.878450	1.991673	-0.000235
 960	9.5421e+01	1.7903	14.895012	0.000608	6.081155	2.060351	-0.000243
 961	9.5520e+01	1.7374	14.733527	0.000405	4.054103	1.373567	-0.000162
 962	9.5620e+01	1.6989	14.467076	0.000669	6.689270	2.266386	-0.000268
 963	9.5719e+01	1.6652	14.220811	0.000618	6.182508	2.094690	-0.000248
 964	9.5819e+01	1.6283	13.998768	0.000557	5.574392	1.888655	-0.000223
 965	9.5918e+01	1.5818	13.817097	0.000456	4.560866	1.545263	-0.000183
 966	9.6017e+01	1.5353	13.550646	0.000669	6.689270	2.266386	-0.000268
 967	9.6117e+01	1.4951	13.336678	0.000537	5.371687	1.819977	-0.000215
 968	9.6216e+01	1.4599	13.114635	0.000557	5.574392	1.888655	-0.000223
 969	9.6316e+01	1.4294	12.827999	0.000720	7.196033	2.438082	-0.000288
 970	9.6415e+01	1.3812	12.646328	0.000456	4.560866	1.545263	-0.000183
 971	9.6515e+01	1.3460	12.456582	0.000476	4.763571	1.613942	-0.000191
 972	9.6615e+01	1.3155	12.169946	0.000720	7.196033	2.438082	-0.000288
 973	9.6714e+01	1.2641	11.955977	0.000537	5.371687	1.819977	-0.000215
 974	9.6814e+01	1.2256	11.754121	0.000507	5.067629	1.716959	-0.000203
 975	9.6913e+01	1.1791	11.491707	0.000659	6.587918	2.232047	-0.000264
 976	9.7013e+01	1.1470	11.281776	0.000527	5.270334	1.785638	-0.000211
 977	9.7112e+01	1.1182	11.043585	0.000598	5.979802	2.026012	-0.000239
 978	9.7212e+01	1.0556	10.789245	0.000639	6.385213	2.163369	-0.000256
 979	9.7311e+01	1.0171	10.599500	0.000476	4.763571	1.613942	-0.000191
 980	9.7410e+01	0.9866	10.345160	0.000639	6.385213	2.163369	-0.000256
 981	9.7510e+01	0.9417	10.123118	0.000557	5.574392	1.888655	-0.000223
 982	9.7609e+01	0.9096	9.917224	0.000517	5.168982	1.751298	-0.000207
 983	9.7709e+01	0.8615	9.658847	0.000649	6.486565	2.197708	-0.000260
 984	9.7808e+01	0.8342	9.436805	0.000557	5.574392	1.888655	-0.000223
 985	9.7908e+01	0.7813	9.222837	0.000537	5.371687	1.819977	-0.000215
 986	9.8007e+01	0.7396	8.960423	0.000659	6.587918	2.232047	-0.000264
 987	9.8107e+01	0.7107	8.758566	0.000507	5.067629	1.716959	-0.000203
 988	9.8207e+01	0.6722	8.508264	0.000628	6.283860	2.129029	-0.000252
 989	9.8306e+01	0.6224	8.286221	0.000557	5.574392	1.888655	-0.000223
 990	9.8406e+01	0.5888	8.043993	0.000608	6.081155	2.060351	-0.000243
 991	9.8505e+01	0.5470	7.838099	0.000517	5.168982	1.751298	-0.000207
 992	9.8605e+01	0.4989	7.620094	0.000547	5.473039	1.854316	-0.000219
 993	9.8704e+01	0.4668	7.394014	0.000568	5.675745	1.922994	-0.000227
 994	9.8803e+01	0.4283	7.155823	0.000598	5.979802	2.026012	-0.000239
 995	9.8903e+01	0.3834	6.933781	0.000557	5.574392	1.888655	-0.000223
 996	9.9002e+01	0.3545	6.667330	0.000669	6.689270	2.266386	-0.000268
 997	9.9102e+01	0.3048	6.469510	0.000497	4.966277	1.682620	-0.000199
 998	9.9201e+01	0.2647	6.207096	0.000659	6.587918	2.232047	-0.000264
 999	9.9301e+01	0.2294	5.981017	0.000568	5.675745	1.922994	-0.000227
1000	9.9400e+01	0.1893	5.750900	0.000578	5.777097	1.957334	-0.000231
1001	9.9500e+01	0.1508	5.524820	0.000568	5.675745	1.922994	-0.000227
1002	9.9600e+01	0.1011	5.298741	0.000568	5.675745	1.922994	-0.000227
1003	9.9699e+01	0.0561	5.064587	0.000588	5.878450	1.991673	-0.000235
1004	9.9799e+01	0.0321	4.846581	0.000547	5.473039	1.854316	-0.000219
1005	9.9898e+01	-0.0048	4.660873	0.000466	4.662219	1.579602	-0.000187
1006	9.9998e+01	-0.0465	4.406534	0.000639	6.385213	2.163369	-0.000256
1007	1.0010e+02	-0.0834	4.200640	0.000517	5.168982	1.751298	-0.000207
1008	1.0020e+02	-0.1235	3.954374	0.000618	6.182508	2.094690	-0.000248
1009	1.0030e+02	-0.1620	3.740406	0.000537	5.371687	1.819977	-0.000215
1010	1.0040e+02	-0.2005	3.477992	0.000659	6.587918	2.232047	-0.000264
1011	1.0050e+02	-0.2471	3.292284	0.000466	4.662219	1.579602	-0.000187
1012	1.0059e+02	-0.2759	3.025833	0.000669	6.689270	2.266386	-0.000268
1013	1.0069e+02	-0.3208	2.787642	0.000598	5.979802	2.026012	-0.000239
1014	1.0079e+02	-0.3642	2.561563	0.000568	5.675745	1.922994	-0.000227
1015	1.0089e+02	-0.4027	2.343557	0.000547	5.473039	1.854316	-0.000219
1016	1.0099e+02	-0.4347	2.089218	0.000639	6.385213	2.163369	-0.000256
1017	1.0109e+02	-0.4813	1.863138	0.000568	5.675745	1.922994	-0.000227
1018	1.0119e+02	-0.5278	1.600724	0.000659	6.587918	2.232047	-0.000264
1019	1.0129e+02	-0.5647	1.402905	0.000497	4.966277	1.682620	-0.000199
1020	1.0139e+02	-0.6048	1.164714	0.000598	5.979802	2.026012	-0.000239
1021	1.0149e+02	-0.6417	0.974968	0.000476	4.763571	1.613942	-0.000191
1022	1.0159e+02	-0.6786	0.692369	0.000709	7.094681	2.403743	-0.000284
1023	1.0169e+02	-0.7187	0.446103	0.000618	6.182508	2.094690	-0.000248
1024	1.0179e+02	-0.7652	0.256358	0.000476	4.763571	1.613942	-0.000191
1025	1.0189e+02	-0.8005	0.002019	0.000639	6.385213	2.163369	-0.000256
1026	1.0199e+02	-0.8470	-0.224061	0.000568	5.675745	1.922994	-0.000227
1027	1.0209e+02	-0.8743	-0.462252	0.000598	5.979802	2.026012	-0.000239
1028	1.0219e+02	-0.9192	-0.664109	0.000507	5.067629	1.716959	-0.000203
1029	1.0229e+02	-0.9625	-0.890188	0.000568	5.675745	1.922994	-0.000227
1030	1.0239e+02	-1.0010	-1.148565	0.000649	6.486565	2.197708	-0.000260
1031	1.0248e+02	-1.0395	-1.394830	0.000618	6.182508	2.094690	-0.000248
1032	1.0258e+02	-1.0796	-1.612836	0.000547	5.473039	1.854316	-0.000219
1033	1.0268e+02	-1.1101	-1.846990	0.000588	5.878450	1.991673	-0.000235
1034	1.0278e+02	-1.1583	-2.093255	0.000618	6.182508	2.094690	-0.000248
1035	1.0288e+02	-1.2080	-2.327409	0.000588	5.878450	1.991673	-0.000235
1036	1.0298e+02	-1.2433	-2.549451	0.000557	5.574392	1.888655	-0.000223
1037	1.0308e+02	-1.2850	-2.735159	0.000466	4.662219	1.579602	-0.000187
1038	1.0318e+02	-1.3187	-2.969313	0.000588	5.878450	1.991673	-0.000235
1039	1.0328e+02	-1.3764	-3.195393	0.000568	5.675745	1.922994	-0.000227
1040	1.0338e+02	-1.4005	-3.453770	0.000649	6.486565	2.197708	-0.000260
1041	1.0348e+02	-1.4390	-3.671775	0.000547	5.473039	1.854316	-0.000219
1042	1.0358e+02	-1.4727	-3.930152	0.000649	6.486565	2.197708	-0.000260
1043	1.0368e+02	-1.5272	-4.132008	0.000507	5.067629	1.716959	-0.000203
1044	1.0378e+02	-1.5561	-4.366162	0.000588	5.878450	1.991673	-0.000235
1045	1.0388e+02	-1.5994	-4.612428	0.000618	6.182508	2.094690	-0.000248
1046	1.0398e+02	-1.6459	-4.858693	0.000618	6.182508	2.094690	-0.000248
1047	1.0408e+02	-1.6828	-5.052475	0.000486	4.864924	1.648281	-0.000195
1048	1.0418e+02	-1.7213	-5.270481	0.000547	5.473039	1.854316	-0.000219
1049	1.0428e+02	-1.7518	-5.532895	0.000659	6.587918	2.232047	-0.000264
1050	1.0438e+02	-1.7983	-5.779160	0.000618	6.182508	2.094690	-0.000248
1051	1.0447e+02	-1.8433	-5.989091	0.000527	5.270334	1.785638	-0.000211
1052	1.0457e+02	-1.8753	-6.223245	0.000588	5.878450	1.991673	-0.000235
1053	1.0467e+02	-1.9106	-6.396842	0.000436	4.358161	1.476585	-0.000174
1054	1.0477e+02	-1.9540	-6.663293	0.000669	6.689270	2.266386	-0.000268
1055	1.0487e+02	-2.0021	-6.913595	0.000628	6.283860	2.129029	-0.000252
1056	1.0497e+02	-2.0374	-7.127563	0.000537	5.371687	1.819977	-0.000215
1057	1.0507e+02	-2.0823	-7.353643	0.000568	5.675745	1.922994	-0.000227
1058	1.0517e+02	-2.1192	-7.567611	0.000537	5.371687	1.819977	-0.000215
1059	1.0527e+02	-2.1609	-7.797728	0.000578	5.777097	1.957334	-0.000231
1060	1.0537e+02	-2.2010	-8.035919	0.000598	5.979802	2.026012	-0.000239
1061	1.0547e+02	-2.2347	-8.282184	0.000618	6.182508	2.094690	-0.000248
1062	1.0557e+02	-2.2764	-8.471929	0.000476	4.763571	1.613942	-0.000191
1063	1.0567e+02	-2.3101	-8.689935	0.000547	5.473039	1.854316	-0.000219
1064	1.0577e+02	-2.3502	-8.964460	0.000689	6.891976	2.335065	-0.000276
1065	1.0587e+02	-2.3935	-9.174391	0.000527	5.270334	1.785638	-0.000211
1066	1.0597e+02	-2.4465	-9.408545	0.000588	5.878450	1.991673	-0.000235
1067	1.0607e+02	-2.4753	-9.638662	0.000578	5.777097	1.957334	-0.000231
1068	1.0617e+02	-2.5074	-9.828407	0.000476	4.763571	1.613942	-0.000191
1069	1.0627e+02	-2.5652	-10.098895	0.000679	6.790623	2.300725	-0.000272
1070	1.0637e+02	-2.6005	-10.308826	0.000527	5.270334	1.785638	-0.000211
1071	1.0647e+02	-2.6309	-10.542980	0.000588	5.878450	1.991673	-0.000235
1072	1.0656e+02	-2.6727	-10.777134	0.000588	5.878450	1.991673	-0.000235
1073	1.0666e+02	-2.7224	-10.991102	0.000537	5.371687	1.819977	-0.000215
1074	1.0676e+02	-2.7529	-11.225256	0.000588	5.878450	1.991673	-0.000235
1075	1.0686e+02	-2.7994	-11.483633	0.000649	6.486565	2.197708	-0.000260
1076	1.0696e+02	-2.8315	-11.665304	0.000456	4.560866	1.545263	-0.000183
1077	1.0706e+02	-2.8732	-11.964052	0.000750	7.500091	2.541100	-0.000300
1078	1.0716e+02	-2.9181	-12.125537	0.000405	4.054103	1.373567	-0.000162
1079	1.0726e+02	-2.9502	-12.359691	0.000588	5.878450	1.991673	-0.000235
1080	1.0736e+02	-2.9903	-12.597882	0.000598	5.979802	2.026012	-0.000239
1081	1.0746e+02	-3.0288	-12.836073	0.000598	5.979802	2.026012	-0.000239
1082	1.0756e+02	-3.0769	-13.086375	0.000628	6.283860	2.129029	-0.000252
1083	1.0766e+02	-3.1186	-13.264009	0.000446	4.459514	1.510924	-0.000179
1084	1.0776e+02	-3.1555	-13.510275	0.000618	6.182508	2.094690	-0.000248
1085	1.0786e+02	-3.1876	-13.740391	0.000578	5.777097	1.957334	-0.000231
1086	1.0796e+02	-3.2277	-13.950323	0.000527	5.270334	1.785638	-0.000211
1087	1.0806e+02	-3.2774	-14.184476	0.000588	5.878450	1.991673	-0.000235
1088	1.0816e+02	-3.3063	-14.386333	0.000507	5.067629	1.716959	-0.000203
1089	1.0826e+02	-3.3528	-14.584153	0.000497	4.966277	1.682620	-0.000199
1090	1.0836e+02	-3.3897	-14.810232	0.000568	5.675745	1.922994	-0.000227
1091	1.0845e+02	-3.4266	-15.044386	0.000588	5.878450	1.991673	-0.000235
1092	1.0855e+02	-3.4667	-15.266429	0.000557	5.574392	1.888655	-0.000223
1093	1.0865e+02	-3.5117	-15.508657	0.000608	6.081155	2.060351	-0.000243
1094	1.0875e+02	-3.5470	-15.694365	0.000466	4.662219	1.579602	-0.000187
1095	1.0885e+02	-3.5887	-15.924482	0.000578	5.777097	1.957334	-0.000231
1096	1.0895e+02	-3.6304	-16.158636	0.000588	5.878450	1.991673	-0.000235
1097	1.0905e+02	-3.6705	-16.388753	0.000578	5.777097	1.957334	-0.000231
1098	1.0915e+02	-3.7122	-16.610795	0.000557	5.574392	1.888655	-0.000223
1099	1.0925e+02	-3.7491	-16.836875	0.000568	5.675745	1.922994	-0.000227
1100	1.0935e+02	-3.7876	-17.034694	0.000497	4.966277	1.682620	-0.000199
1101	1.0945e+02	-3.8309	-17.260774	0.000568	5.675745	1.922994	-0.000227
1102	1.0955e+02	-3.8710	-17.486853	0.000568	5.675745	1.922994	-0.000227
1103	1.0965e+02	-3.9111	-17.660450	0.000436	4.358161	1.476585	-0.000174
1104	1.0975e+02	-3.9480	-17.947087	0.000720	7.196033	2.438082	-0.000288
1105	1.0985e+02	-3.9849	-18.148944	0.000507	5.067629	1.716959	-0.000203
1106	1.0995e+02	-4.0282	-18.370986	0.000557	5.574392	1.888655	-0.000223
1107	1.1005e+02	-4.0699	-18.568806	0.000497	4.966277	1.682620	-0.000199
1108	1.1015e+02	-4.1052	-18.790848	0.000557	5.574392	1.888655	-0.000223
1109	1.1025e+02	-4.1453	-19.057299	0.000669	6.689270	2.266386	-0.000268
1110	1.1035e+02	-4.1838	-19.275305	0.000547	5.473039	1.854316	-0.000219
1111	1.1044e+02	-4.2352	-19.452939	0.000446	4.459514	1.510924	-0.000179
1112	1.1054e+02	-4.2689	-19.654795	0.000507	5.067629	1.716959	-0.000203
1113	1.1064e+02	-4.2977	-19.892986	0.000598	5.979802	2.026012	-0.000239
1114	1.1074e+02	-4.3491	-20.082732	0.000476	4.763571	1.613942	-0.000191
1115	1.1084e+02	-4.3844	-20.333034	0.000628	6.283860	2.129029	-0.000252
1116	1.1094e+02	-4.4245	-20.542965	0.000527	5.270334	1.785638	-0.000211
1117	1.1104e+02	-4.4678	-20.765008	0.000557	5.574392	1.888655	-0.000223
1118	1.1114e+02	-4.5015	-20.978976	0.000537	5.371687	1.819977	-0.000215
1119	1.1124e+02	-4.5528	-21.188907	0.000527	5.270334	1.785638	-0.000211
1120	1.1134e+02	-4.5929	-21.402875	0.000537	5.371687	1.819977	-0.000215
1121	1.1144e+02	-4.6250	-21.600695	0.000497	4.966277	1.682620	-0.000199
1122	1.1154e+02	-4.6603	-21.830812	0.000578	5.777097	1.957334	-0.000231
1123	1.1164e+02	-4.7004	-22.077077	0.000618	6.182508	2.094690	-0.000248
1124	1.1174e+02	-4.7485	-22.242599	0.000416	4.155456	1.407907	-0.000166
1125	1.1184e+02	-4.7806	-22.452530	0.000527	5.270334	1.785638	-0.000211
1126	1.1194e+02	-4.8239	-22.666499	0.000537	5.371687	1.819977	-0.000215
1127	1.1204e+02	-4.8672	-22.880467	0.000537	5.371687	1.819977	-0.000215
1128	1.1214e+02	-4.9009	-23.106546	0.000568	5.675745	1.922994	-0.000227
1129	1.1224e+02	-4.9555	-23.296292	0.000476	4.763571	1.613942	-0.000191
1130	1.1234e+02	-4.9940	-23.546594	0.000628	6.283860	2.129029	-0.000252
1131	1.1244e+02	-5.0325	-23.740377	0.000486	4.864924	1.648281	-0.000195
1132	1.1253e+02	-5.0646	-23.974531	0.000588	5.878450	1.991673	-0.000235
1133	1.1263e+02	-5.1063	-24.184462	0.000527	5.270334	1.785638	-0.000211
1134	1.1273e+02	-5.1464	-24.414578	0.000578	5.777097	1.957334	-0.000231
1135	1.1283e+02	-5.1865	-24.592212	0.000446	4.459514	1.510924	-0.000179
1136	1.1293e+02	-5.2218	-24.830403	0.000598	5.979802	2.026012	-0.000239
1137	1.1303e+02	-5.2683	-25.024186	0.000486	4.864924	1.648281	-0.000195
1138	1.1313e+02	-5.3116	-25.238154	0.000537	5.371687	1.819977	-0.000215
1139	1.1323e+02	-5.3421	-25.448085	0.000527	5.270334	1.785638	-0.000211
1140	1.1333e+02	-5.3870	-25.658016	0.000527	5.270334	1.785638	-0.000211
1141	1.1343e+02	-5.4255	-25.880059	0.000557	5.574392	1.888655	-0.000223
1142	1.1353e+02	-5.4608	-26.061730	0.000456	4.560866	1.545263	-0.000183
1143	1.1363e+02	-5.5041	-26.307995	0.000618	6.182508	2.094690	-0.000248
1144	1.1373e+02	-5.5490	-26.481592	0.000436	4.358161	1.476585	-0.000174
1145	1.1383e+02	-5.5795	-26.671337	0.000476	4.763571	1.613942	-0.000191
1146	1.1393e+02	-5.6196	-26.941825	0.000679	6.790623	2.300725	-0.000272
1147	1.1403e+02	-5.6758	-27.111385	0.000426	4.256808	1.442246	-0.000170
1148	1.1413e+02	-5.6982	-27.309205	0.000497	4.966277	1.682620	-0.000199
1149	1.1423e+02	-5.7512	-27.539321	0.000578	5.777097	1.957334	-0.000231
1150	1.1433e+02	-5.7897	-27.729067	0.000476	4.763571	1.613942	-0.000191
1151	1.1442e+02	-5.8282	-27.910738	0.000456	4.560866	1.545263	-0.000183
1152	1.1452e+02	-5.8667	-28.140855	0.000578	5.777097	1.957334	-0.000231
1153	1.1462e+02	-5.9036	-28.334637	0.000486	4.864924	1.648281	-0.000195
1154	1.1472e+02	-5.9437	-28.540531	0.000517	5.168982	1.751298	-0.000207
1155	1.1482e+02	-5.9854	-28.734314	0.000486	4.864924	1.648281	-0.000195
1156	1.1492e+02	-6.0159	-28.956356	0.000557	5.574392	1.888655	-0.000223
1157	1.1502e+02	-6.0656	-29.150139	0.000486	4.864924	1.648281	-0.000195
1158	1.1512e+02	-6.0977	-29.364107	0.000537	5.371687	1.819977	-0.000215
1159	1.1522e+02	-6.1378	-29.533666	0.000426	4.256808	1.442246	-0.000170
1160	1.1532e+02	-6.1875	-29.759746	0.000568	5.675745	1.922994	-0.000227
1161	1.1542e+02	-6.2212	-29.949491	0.000476	4.763571	1.613942	-0.000191
1162	1.1552e+02	-6.2645	-30.147311	0.000497	4.966277	1.682620	-0.000199
1163	1.1562e+02	-6.3014	-30.393576	0.000618	6.182508	2.094690	-0.000248
1164	1.1572e+02	-6.3479	-30.567173	0.000436	4.358161	1.476585	-0.000174
1165	1.1582e+02	-6.3784	-30.728659	0.000405	4.054103	1.373567	-0.000162
1166	1.1592e+02	-6.4201	-30.950701	0.000557	5.574392	1.888655	-0.000223
1167	1.1602e+02	-6.4554	-31.140447	0.000476	4.763571	1.613942	-0.000191
1168	1.1612e+02	-6.5036	-31.354415	0.000537	5.371687	1.819977	-0.000215
1169	1.1622e+02	-6.5340	-31.548197	0.000486	4.864924	1.648281	-0.000195
1170	1.1632e+02	-6.5741	-31.733905	0.000466	4.662219	1.579602	-0.000187
1171	1.1642e+02	-6.6110	-31.947874	0.000537	5.371687	1.819977	-0.000215
1172	1.1651e+02	-6.6624	-32.137619	0.000476	4.763571	1.613942	-0.000191
1173	1.1661e+02	-6.7009	-32.335439	0.000497	4.966277	1.682620	-0.000199
1174	1.1671e+02	-6.7282	-32.509036	0.000436	4.358161	1.476585	-0.000174
1175	1.1681e+02	-6.7683	-32.702818	0.000486	4.864924	1.648281	-0.000195
1176	1.1691e+02	-6.8100	-32.932935	0.000578	5.777097	1.957334	-0.000231
1177	1.1701e+02	-6.8581	-33.126717	0.000486	4.864924	1.648281	-0.000195
1178	1.1711e+02	-6.8950	-33.312426	0.000466	4.662219	1.579602	-0.000187
1179	1.1721e+02	-6.9351	-33.554654	0.000608	6.081155	2.060351	-0.000243
1180	1.1731e+02	-6.9736	-33.732288	0.000446	4.459514	1.510924	-0.000179
1181	1.1741e+02	-7.0185	-33.926070	0.000486	4.864924	1.648281	-0.000195
1182	1.1751e+02	-7.0618	-34.095630	0.000426	4.256808	1.442246	-0.000170
1183	1.1761e+02	-7.0987	-34.285375	0.000476	4.763571	1.613942	-0.000191
1184	1.1771e+02	-7.1388	-34.503381	0.000547	5.473039	1.854316	-0.000219
1185	1.1781e+02	-7.1886	-34.664866	0.000405	4.054103	1.373567	-0.000162
1186	1.1791e+02	-7.2126	-34.858649	0.000486	4.864924	1.648281	-0.000195
1187	1.1801e+02	-7.2592	-35.100877	0.000608	6.081155	2.060351	-0.000243
1188	1.1811e+02	-7.2928	-35.294659	0.000486	4.864924	1.648281	-0.000195
1189	1.1821e+02	-7.3313	-35.484405	0.000476	4.763571	1.613942	-0.000191
1190	1.1831e+02	-7.3698	-35.674150	0.000476	4.763571	1.613942	-0.000191
1191	1.1841e+02	-7.4212	-35.867932	0.000486	4.864924	1.648281	-0.000195
1192	1.1850e+02	-7.4549	-36.077864	0.000527	5.270334	1.785638	-0.000211
1193	1.1860e+02	-7.4982	-36.239349	0.000405	4.054103	1.373567	-0.000162
1194	1.1870e+02	-7.5383	-36.421020	0.000456	4.560866	1.545263	-0.000183
1195	1.1880e+02	-7.5832	-36.651137	0.000578	5.777097	1.957334	-0.000231
1196	1.1890e+02	-7.6057	-36.861068	0.000527	5.270334	1.785638	-0.000211
1197	1.1900e+02	-7.6522	-37.018516	0.000395	3.952751	1.339228	-0.000158
1198	1.1910e+02	-7.6971	-37.200187	0.000456	4.560866	1.545263	-0.000183
1199	1.1920e+02	-7.7324	-37.349561	0.000375	3.750046	1.270550	-0.000150
1200	1.1930e+02	-7.7773	-37.555455	0.000517	5.168982	1.751298	-0.000207
1201	1.1940e+02	-7.8190	-37.801720	0.000618	6.182508	2.094690	-0.000248
1202	1.1950e+02	-7.8607	-37.930909	0.000324	3.243283	1.098854	-0.000130
1203	1.1960e+02	-7.8864	-38.169100	0.000598	5.979802	2.026012	-0.000239
1204	1.1970e+02	-7.9329	-38.346734	0.000446	4.459514	1.510924	-0.000179
1205	1.1980e+02	-7.9698	-38.540516	0.000486	4.864924	1.648281	-0.000195
1206	1.1990e+02	-8.0115	-38.742373	0.000507	5.067629	1.716959	-0.000203
1207	1.2000e+02	-8.0516	-38.976527	0.000588	5.878450	1.991673	-0.000235
1208	1.2010e+02	-8.1014	-39.117827	0.000355	3.547340	1.201871	-0.000142
1209	1.2020e+02	-8.1303	-39.343906	0.000568	5.675745	1.922994	-0.000227
1210	1.2030e+02	-8.1688	-39.501355	0.000395	3.952751	1.339228	-0.000158
1211	1.2039e+02	-8.2089	-39.687063	0.000466	4.662219	1.579602	-0.000187
1212	1.2049e+02	-8.2602	-39.888920	0.000507	5.067629	1.716959	-0.000203
1213	1.2059e+02	-8.2891	-40.050405	0.000405	4.054103	1.373567	-0.000162
1214	1.2069e+02	-8.3292	-40.260336	0.000527	5.270334	1.785638	-0.000211
1215	1.2079e+02	-8.3725	-40.462193	0.000507	5.067629	1.716959	-0.000203
1216	1.2089e+02	-8.4126	-40.647901	0.000466	4.662219	1.579602	-0.000187
1217	1.2099e+02	-8.4463	-40.813424	0.000416	4.155456	1.407907	-0.000166
1218	1.2109e+02	-8.4928	-41.031429	0.000547	5.473039	1.854316	-0.000219
1219	1.2119e+02	-8.5361	-41.205026	0.000436	4.358161	1.476585	-0.000174
1220	1.2129e+02	-8.5714	-41.358437	0.000385	3.851398	1.304889	-0.000154
1221	1.2139e+02	-8.6035	-41.612777	0.000639	6.385213	2.163369	-0.000256
1222	1.2149e+02	-8.6548	-41.798485	0.000466	4.662219	1.579602	-0.000187
1223	1.2159e+02	-8.6933	-41.964007	0.000416	4.155456	1.407907	-0.000166
1224	1.2169e+02	-8.7286	-42.129530	0.000416	4.155456	1.407907	-0.000166
1225	1.2179e+02	-8.7719	-42.359647	0.000578	5.777097	1.957334	-0.000231
1226	1.2189e+02	-8.8121	-42.525169	0.000416	4.155456	1.407907	-0.000166
1227	1.2199e+02	-8.8506	-42.714915	0.000476	4.763571	1.613942	-0.000191
1228	1.2209e+02	-8.8923	-42.888512	0.000436	4.358161	1.476585	-0.000174
1229	1.2219e+02	-8.9388	-43.082294	0.000486	4.864924	1.648281	-0.000195
1230	1.2229e+02	-8.9693	-43.288188	0.000517	5.168982	1.751298	-0.000207
1231	1.2239e+02	-9.0046	-43.457748	0.000426	4.256808	1.442246	-0.000170
1232	1.2248e+02	-9.0495	-43.647493	0.000476	4.763571	1.613942	-0.000191
1233	1.2258e+02	-9.0896	-43.885684	0.000598	5.979802	2.026012	-0.000239
1234	1.2268e+02	-9.1329	-44.043132	0.000395	3.952751	1.339228	-0.000158
1235	1.2278e+02	-9.1746	-44.232878	0.000476	4.763571	1.613942	-0.000191
1236	1.2288e+02	-9.2019	-44.398400	0.000416	4.155456	1.407907	-0.000166
1237	1.2298e+02	-9.2500	-44.656777	0.000649	6.486565	2.197708	-0.000260
1238	1.2308e+02	-9.2885	-44.810188	0.000385	3.851398	1.304889	-0.000154
1239	1.2318e+02	-9.3318	-45.016082	0.000517	5.168982	1.751298	-0.000207
1240	1.2328e+02	-9.3671	-45.189679	0.000436	4.358161	1.476585	-0.000174
1241	1.2338e+02	-9.4024	-45.407684	0.000547	5.473039	1.854316	-0.000219
1242	1.2348e+02	-9.4553	-45.544947	0.000345	3.445988	1.167532	-0.000138
1243	1.2358e+02	-9.4858	-45.766989	0.000557	5.574392	1.888655	-0.000223
1244	1.2368e+02	-9.5195	-45.920400	0.000385	3.851398	1.304889	-0.000154
1245	1.2378e+02	-9.5692	-46.142443	0.000557	5.574392	1.888655	-0.000223
1246	1.2388e+02	-9.6061	-46.299891	0.000395	3.952751	1.339228	-0.000158
1247	1.2398e+02	-9.6479	-46.505785	0.000517	5.168982	1.751298	-0.000207
1248	1.2408e+02	-9.6783	-46.671308	0.000416	4.155456	1.407907	-0.000166
1249	1.2418e+02	-9.7377	-46.861053	0.000476	4.763571	1.613942	-0.000191
1250	1.2428e+02	-9.7569	-47.046761	0.000466	4.662219	1.579602	-0.000187
1251	1.2438e+02	-9.8051	-47.252655	0.000517	5.168982	1.751298	-0.000207
1252	1.2447e+02	-9.8339	-47.442401	0.000476	4.763571	1.613942	-0.000191
1253	1.2457e+02	-9.8853	-47.648295	0.000517	5.168982	1.751298	-0.000207
1254	1.2467e+02	-9.9254	-47.842077	0.000486	4.864924	1.648281	-0.000195
1255	1.2477e+02	-9.9719	-47.971265	0.000324	3.243283	1.098854	-0.000130
1256	1.2487e+02	-10.0056	-48.193308	0.000557	5.574392	1.888655	-0.000223
1257	1.2497e+02	-10.0505	-48.419387	0.000568	5.675745	1.922994	-0.000227
1258	1.2507e+02	-10.0874	-48.552613	0.000334	3.344635	1.133193	-0.000134
1259	1.2517e+02	-10.1211	-48.746395	0.000486	4.864924	1.648281	-0.000195
1260	1.2527e+02	-10.1596	-48.952289	0.000517	5.168982	1.751298	-0.000207
1261	1.2537e+02	-10.2109	-49.113775	0.000405	4.054103	1.373567	-0.000162
1262	1.2547e+02	-10.2382	-49.307557	0.000486	4.864924	1.648281	-0.000195
1263	1.2557e+02	-10.2895	-49.517488	0.000527	5.270334	1.785638	-0.000211
1264	1.2567e+02	-10.3184	-49.691085	0.000436	4.358161	1.476585	-0.000174
1265	1.2577e+02	-10.3649	-49.884868	0.000486	4.864924	1.648281	-0.000195
1266	1.2587e+02	-10.4115	-50.054427	0.000426	4.256808	1.442246	-0.000170
1267	1.2597e+02	-10.4436	-50.223987	0.000426	4.256808	1.442246	-0.000170
1268	1.2607e+02	-10.4901	-50.401621	0.000446	4.459514	1.510924	-0.000179
1269	1.2617e+02	-10.5318	-50.619626	0.000547	5.473039	1.854316	-0.000219
1270	1.2627e+02	-10.5607	-50.773038	0.000385	3.851398	1.304889	-0.000154
1271	1.2636e+02	-10.6040	-50.999117	0.000568	5.675745	1.922994	-0.000227
1272	1.2646e+02	-10.6377	-51.200974	0.000507	5.067629	1.716959	-0.000203
1273	1.2656e+02	-10.6826	-51.374571	0.000436	4.358161	1.476585	-0.000174
1274	1.2666e+02	-10.7227	-51.548168	0.000436	4.358161	1.476585	-0.000174
1275	1.2676e+02	-10.7644	-51.725802	0.000446	4.459514	1.510924	-0.000179
1276	1.2686e+02	-10.8013	-51.923621	0.000497	4.966277	1.682620	-0.000199
1277	1.2696e+02	-10.8494	-52.105292	0.000456	4.560866	1.545263	-0.000183
1278	1.2706e+02	-10.8815	-52.278889	0.000436	4.358161	1.476585	-0.000174
1279	1.2716e+02	-10.9216	-52.504969	0.000568	5.675745	1.922994	-0.000227
1280	1.2726e+02	-10.9649	-52.630120	0.000314	3.141930	1.064515	-0.000126
1281	1.2736e+02	-11.0034	-52.876385	0.000618	6.182508	2.094690	-0.000248
1282	1.2746e+02	-11.0403	-53.054019	0.000446	4.459514	1.510924	-0.000179
1283	1.2756e+02	-11.0852	-53.235690	0.000456	4.560866	1.545263	-0.000183
1284	1.2766e+02	-11.1254	-53.453696	0.000547	5.473039	1.854316	-0.000219
1285	1.2776e+02	-11.1494	-53.578847	0.000314	3.141930	1.064515	-0.000126
1286	1.2786e+02	-11.2024	-53.800889	0.000557	5.574392	1.888655	-0.000223
1287	1.2796e+02	-11.2409	-53.978523	0.000446	4.459514	1.510924	-0.000179
1288	1.2806e+02	-11.2810	-54.140009	0.000405	4.054103	1.373567	-0.000162
1289	1.2816e+02	-11.3147	-54.341866	0.000507	5.067629	1.716959	-0.000203
1290	1.2826e+02	-11.3580	-54.495277	0.000385	3.851398	1.304889	-0.000154
1291	1.2835e+02	-11.3965	-54.725393	0.000578	5.777097	1.957334	-0.000231
1292	1.2845e+02	-11.4430	-54.890916	0.000416	4.155456	1.407907	-0.000166
1293	1.2855e+02	-11.4751	-55.044327	0.000385	3.851398	1.304889	-0.000154
1294	1.2865e+02	-11.5152	-55.254258	0.000527	5.270334	1.785638	-0.000211
1295	1.2875e+02	-11.5553	-55.415744	0.000405	4.054103	1.373567	-0.000162
1296	1.2885e+02	-11.5970	-55.613563	0.000497	4.966277	1.682620	-0.000199
1297	1.2895e+02	-11.6355	-55.815420	0.000507	5.067629	1.716959	-0.000203
1298	1.2905e+02	-11.6804	-55.980943	0.000416	4.155456	1.407907	-0.000166
1299	1.2915e+02	-11.7109	-56.174725	0.000486	4.864924	1.648281	-0.000195
1300	1.2925e+02	-11.7574	-56.348322	0.000436	4.358161	1.476585	-0.000174
1301	1.2935e+02	-11.7943	-56.529993	0.000456	4.560866	1.545263	-0.000183
1302	1.2945e+02	-11.8392	-56.756073	0.000568	5.675745	1.922994	-0.000227
1303	1.2955e+02	-11.8809	-56.889298	0.000334	3.344635	1.133193	-0.000134
1304	1.2965e+02	-11.9227	-57.103266	0.000537	5.371687	1.819977	-0.000215
1305	1.2975e+02	-11.9531	-57.232455	0.000324	3.243283	1.098854	-0.000130
1306	1.2985e+02	-11.9965	-57.442386	0.000527	5.270334	1.785638	-0.000211
1307	1.2995e+02	-12.0382	-57.644243	0.000507	5.067629	1.716959	-0.000203
1308	1.3005e+02	-12.0767	-57.813802	0.000426	4.256808	1.442246	-0.000170
1309	1.3015e+02	-12.1200	-57.999511	0.000466	4.662219	1.579602	-0.000187
1310	1.3025e+02	-12.1601	-58.185219	0.000466	4.662219	1.579602	-0.000187
1311	1.3034e+02	-12.1970	-58.358816	0.000436	4.358161	1.476585	-0.000174
1312	1.3044e+02	-12.2403	-58.532412	0.000436	4.358161	1.476585	-0.000174
1313	1.3054e+02	-12.2900	-58.730232	0.000497	4.966277	1.682620	-0.000199
1314	1.3064e+02	-12.3189	-58.871532	0.000355	3.547340	1.201871	-0.000142
1315	1.3074e+02	-12.3606	-59.105686	0.000588	5.878450	1.991673	-0.000235
1316	1.3084e+02	-12.3943	-59.259097	0.000385	3.851398	1.304889	-0.000154
1317	1.3094e+02	-12.4296	-59.432694	0.000436	4.358161	1.476585	-0.000174
1318	1.3104e+02	-12.4681	-59.594179	0.000405	4.054103	1.373567	-0.000162
1319	1.3114e+02	-12.5194	-59.723368	0.000324	3.243283	1.098854	-0.000130
1320	1.3124e+02	-12.5563	-59.949447	0.000568	5.675745	1.922994	-0.000227
1321	1.3134e+02	-12.5980	-60.119007	0.000426	4.256808	1.442246	-0.000170
1322	1.3144e+02	-12.6365	-60.260307	0.000355	3.547340	1.201871	-0.000142
1323	1.3154e+02	-12.6815	-60.494460	0.000588	5.878450	1.991673	-0.000235
1324	1.3164e+02	-12.7135	-60.668057	0.000436	4.358161	1.476585	-0.000174
1325	1.3174e+02	-12.7456	-60.813394	0.000365	3.648693	1.236211	-0.000146
1326	1.3184e+02	-12.7986	-60.986991	0.000436	4.358161	1.476585	-0.000174
1327	1.3194e+02	-12.8371	-61.160588	0.000436	4.358161	1.476585	-0.000174
1328	1.3204e+02	-12.8756	-61.346296	0.000466	4.662219	1.579602	-0.000187
1329	1.3214e+02	-12.9077	-61.491633	0.000365	3.648693	1.236211	-0.000146
1330	1.3224e+02	-12.9526	-61.717713	0.000568	5.675745	1.922994	-0.000227
1331	1.3234e+02	-12.9943	-61.863049	0.000365	3.648693	1.236211	-0.000146
1332	1.3243e+02	-13.0408	-62.036646	0.000436	4.358161	1.476585	-0.000174
1333	1.3253e+02	-13.0777	-62.218317	0.000456	4.560866	1.545263	-0.000183
1334	1.3263e+02	-13.1066	-62.408063	0.000476	4.763571	1.613942	-0.000191
1335	1.3273e+02	-13.1643	-62.545325	0.000345	3.445988	1.167532	-0.000138
1336	1.3283e+02	-13.1900	-62.759294	0.000537	5.371687	1.819977	-0.000215
1337	1.3293e+02	-13.2413	-62.924816	0.000416	4.155456	1.407907	-0.000166
1338	1.3303e+02	-13.2654	-63.098413	0.000436	4.358161	1.476585	-0.000174
1339	1.3313e+02	-13.3167	-63.280084	0.000456	4.560866	1.545263	-0.000183
1340	1.3323e+02	-13.3440	-63.393124	0.000284	2.837872	0.961497	-0.000114
1341	1.3333e+02	-13.3873	-63.594981	0.000507	5.067629	1.716959	-0.000203
1342	1.3343e+02	-13.4338	-63.744355	0.000375	3.750046	1.270550	-0.000150
1343	1.3353e+02	-13.4707	-63.934100	0.000476	4.763571	1.613942	-0.000191
1344	1.3363e+02	-13.5028	-64.139994	0.000517	5.168982	1.751298	-0.000207
1345	1.3373e+02	-13.5494	-64.240922	0.000253	2.533815	0.858480	-0.000101
1346	1.3383e+02	-13.5895	-64.442779	0.000507	5.067629	1.716959	-0.000203
1347	1.3393e+02	-13.6376	-64.652710	0.000527	5.270334	1.785638	-0.000211
1348	1.3403e+02	-13.6761	-64.798047	0.000365	3.648693	1.236211	-0.000146
1349	1.3413e+02	-13.7210	-64.975681	0.000446	4.459514	1.510924	-0.000179
1350	1.3423e+02	-13.7435	-65.177538	0.000507	5.067629	1.716959	-0.000203
1351	1.3432e+02	-13.7964	-65.330949	0.000385	3.851398	1.304889	-0.000154
1352	1.3442e+02	-13.8205	-65.512620	0.000456	4.560866	1.545263	-0.000183
1353	1.3452e+02	-13.8686	-65.678143	0.000416	4.155456	1.407907	-0.000166
1354	1.3462e+02	-13.9103	-65.819443	0.000355	3.547340	1.201871	-0.000142
1355	1.3472e+02	-13.9616	-65.968817	0.000375	3.750046	1.270550	-0.000150
1356	1.3482e+02	-13.9873	-66.162599	0.000486	4.864924	1.648281	-0.000195
1357	1.3492e+02	-14.0290	-66.299862	0.000345	3.445988	1.167532	-0.000138
1358	1.3502e+02	-14.0627	-66.505756	0.000517	5.168982	1.751298	-0.000207
1359	1.3512e+02	-14.1028	-66.699538	0.000486	4.864924	1.648281	-0.000195
1360	1.3522e+02	-14.1461	-66.824689	0.000314	3.141930	1.064515	-0.000126
1361	1.3532e+02	-14.1878	-67.014435	0.000476	4.763571	1.613942	-0.000191
1362	1.3542e+02	-14.2360	-67.200143	0.000466	4.662219	1.579602	-0.000187
1363	1.3552e+02	-14.2713	-67.325294	0.000314	3.141930	1.064515	-0.000126
1364	1.3562e+02	-14.3082	-67.506965	0.000456	4.560866	1.545263	-0.000183
1365	1.3572e+02	-14.3483	-67.648265	0.000355	3.547340	1.201871	-0.000142
1366	1.3582e+02	-14.3916	-67.825899	0.000446	4.459514	1.510924	-0.000179
1367	1.3592e+02	-14.4285	-68.003533	0.000446	4.459514	1.510924	-0.000179
1368	1.3602e+02	-14.4686	-68.177130	0.000436	4.358161	1.476585	-0.000174
1369	1.3612e+02	-14.5087	-68.314392	0.000345	3.445988	1.167532	-0.000138
1370	1.3622e+02	-14.5520	-68.520286	0.000517	5.168982	1.751298	-0.000207
1371	1.3631e+02	-14.5777	-68.693883	0.000436	4.358161	1.476585	-0.000174
1372	1.3641e+02	-14.6274	-68.839220	0.000365	3.648693	1.236211	-0.000146
1373	1.3651e+02	-14.6739	-69.012817	0.000436	4.358161	1.476585	-0.000174
1374	1.3661e+02	-14.7092	-69.162191	0.000375	3.750046	1.270550	-0.000150
1375	1.3671e+02	-14.7445	-69.319639	0.000395	3.952751	1.339228	-0.000158
1376	1.3681e+02	-14.7862	-69.493236	0.000436	4.358161	1.476585	-0.000174
1377	1.3691e+02	-14.8343	-69.646647	0.000385	3.851398	1.304889	-0.000154
1378	1.3701e+02	-14.8728	-69.840430	0.000486	4.864924	1.648281	-0.000195
1379	1.3711e+02	-14.9065	-70.026138	0.000466	4.662219	1.579602	-0.000187
1380	1.3721e+02	-14.9482	-70.163401	0.000345	3.445988	1.167532	-0.000138
1381	1.3731e+02	-14.9900	-70.365257	0.000507	5.067629	1.716959	-0.000203
1382	1.3741e+02	-15.0301	-70.579226	0.000537	5.371687	1.819977	-0.000215
1383	1.3751e+02	-15.0654	-70.692265	0.000284	2.837872	0.961497	-0.000114
1384	1.3761e+02	-15.1055	-70.825491	0.000334	3.344635	1.133193	-0.000134
1385	1.3771e+02	-15.1520	-71.055608	0.000578	5.777097	1.957334	-0.000231
1386	1.3781e+02	-15.1841	-71.180759	0.000314	3.141930	1.064515	-0.000126
1387	1.3791e+02	-15.2210	-71.350318	0.000426	4.256808	1.442246	-0.000170
1388	1.3801e+02	-15.2627	-71.495655	0.000365	3.648693	1.236211	-0.000146
1389	1.3811e+02	-15.3140	-71.685401	0.000476	4.763571	1.613942	-0.000191
1390	1.3821e+02	-15.3477	-71.858998	0.000436	4.358161	1.476585	-0.000174
1391	1.3831e+02	-15.3878	-72.020483	0.000405	4.054103	1.373567	-0.000162
1392	1.3840e+02	-15.4183	-72.186006	0.000416	4.155456	1.407907	-0.000166
1393	1.3850e+02	-15.4584	-72.355565	0.000426	4.256808	1.442246	-0.000170
1394	1.3860e+02	-15.5081	-72.500902	0.000365	3.648693	1.236211	-0.000146
1395	1.3870e+02	-15.5466	-72.646239	0.000365	3.648693	1.236211	-0.000146
1396	1.3880e+02	-15.5851	-72.827910	0.000456	4.560866	1.545263	-0.000183
1397	1.3890e+02	-15.6236	-72.989396	0.000405	4.054103	1.373567	-0.000162
1398	1.3900e+02	-15.6669	-73.191252	0.000507	5.067629	1.716959	-0.000203
1399	1.3910e+02	-15.7103	-73.372923	0.000456	4.560866	1.545263	-0.000183
1400	1.3920e+02	-15.7488	-73.526335	0.000385	3.851398	1.304889	-0.000154
1401	1.3930e+02	-15.7905	-73.695894	0.000426	4.256808	1.442246	-0.000170
1402	1.3940e+02	-15.8177	-73.829120	0.000334	3.344635	1.133193	-0.000134
1403	1.3950e+02	-15.8578	-73.998680	0.000426	4.256808	1.442246	-0.000170
1404	1.3960e+02	-15.9092	-74.200536	0.000507	5.067629	1.716959	-0.000203
1405	1.3970e+02	-15.9397	-74.345873	0.000365	3.648693	1.236211	-0.000146
1406	1.3980e+02	-15.9750	-74.491210	0.000365	3.648693	1.236211	-0.000146
1407	1.3990e+02	-16.0151	-74.705178	0.000537	5.371687	1.819977	-0.000215
1408	1.4000e+02	-16.0584	-74.846478	0.000355	3.547340	1.201871	-0.000142
1409	1.4010e+02	-16.1001	-75.024112	0.000446	4.459514	1.510924	-0.000179
1410	1.4020e+02	-16.1322	-75.169449	0.000365	3.648693	1.236211	-0.000146
1411	1.4029e+02	-16.1899	-75.359194	0.000476	4.763571	1.613942	-0.000191
1412	1.4039e+02	-16.2236	-75.528754	0.000426	4.256808	1.442246	-0.000170
1413	1.4049e+02	-16.2669	-75.714462	0.000466	4.662219	1.579602	-0.000187
1414	1.4059e+02	-16.3054	-75.892096	0.000446	4.459514	1.510924	-0.000179
1415	1.4069e+02	-16.3327	-76.065693	0.000436	4.358161	1.476585	-0.000174
1416	1.4079e+02	-16.3760	-76.211030	0.000365	3.648693	1.236211	-0.000146
1417	1.4089e+02	-16.4209	-76.376552	0.000416	4.155456	1.407907	-0.000166
1418	1.4099e+02	-16.4626	-76.566298	0.000476	4.763571	1.613942	-0.000191
1419	1.4109e+02	-16.4995	-76.711635	0.000365	3.648693	1.236211	-0.000146
1420	1.4119e+02	-16.5364	-76.865046	0.000385	3.851398	1.304889	-0.000154
1421	1.4129e+02	-16.5862	-77.066903	0.000507	5.067629	1.716959	-0.000203
1422	1.4139e+02	-16.6231	-77.252611	0.000466	4.662219	1.579602	-0.000187
1423	1.4149e+02	-16.6535	-77.422171	0.000426	4.256808	1.442246	-0.000170
1424	1.4159e+02	-16.6985	-77.579619	0.000395	3.952751	1.339228	-0.000158
1425	1.4169e+02	-16.7402	-77.761290	0.000456	4.560866	1.545263	-0.000183
1426	1.4179e+02	-16.7803	-77.890478	0.000324	3.243283	1.098854	-0.000130
1427	1.4189e+02	-16.8252	-78.056001	0.000416	4.155456	1.407907	-0.000166
1428	1.4199e+02	-16.8541	-78.213449	0.000395	3.952751	1.339228	-0.000158
1429	1.4209e+02	-16.8990	-78.391083	0.000446	4.459514	1.510924	-0.000179
1430	1.4219e+02	-16.9327	-78.605051	0.000537	5.371687	1.819977	-0.000215
1431	1.4228e+02	-16.9824	-78.778648	0.000436	4.358161	1.476585	-0.000174
1432	1.4238e+02	-17.0113	-78.907837	0.000324	3.243283	1.098854	-0.000130
1433	1.4248e+02	-17.0546	-79.109693	0.000507	5.067629	1.716959	-0.000203
1434	1.4258e+02	-17.0979	-79.246956	0.000345	3.445988	1.167532	-0.000138
1435	1.4268e+02	-17.1332	-79.473036	0.000568	5.675745	1.922994	-0.000227
1436	1.4278e+02	-17.1813	-79.626447	0.000385	3.851398	1.304889	-0.000154
1437	1.4288e+02	-17.2134	-79.775821	0.000375	3.750046	1.270550	-0.000150
1438	1.4298e+02	-17.2599	-79.933269	0.000395	3.952751	1.339228	-0.000158
1439	1.4308e+02	-17.2984	-80.098792	0.000416	4.155456	1.407907	-0.000166
1440	1.4318e+02	-17.3385	-80.312760	0.000537	5.371687	1.819977	-0.000215
1441	1.4328e+02	-17.3835	-80.478282	0.000416	4.155456	1.407907	-0.000166
1442	1.4338e+02	-17.4139	-80.639768	0.000405	4.054103	1.373567	-0.000162
1443	1.4348e+02	-17.4589	-80.809328	0.000426	4.256808	1.442246	-0.000170
1444	1.4358e+02	-17.4958	-80.982924	0.000436	4.358161	1.476585	-0.000174
1445	1.4368e+02	-17.5407	-81.152484	0.000426	4.256808	1.442246	-0.000170
1446	1.4378e+02	-17.5840	-81.309932	0.000395	3.952751	1.339228	-0.000158
1447	1.4388e+02	-17.6145	-81.483529	0.000436	4.358161	1.476585	-0.000174
1448	1.4398e+02	-17.6530	-81.665200	0.000456	4.560866	1.545263	-0.000183
1449	1.4408e+02	-17.6931	-81.822649	0.000395	3.952751	1.339228	-0.000158
1450	1.4418e+02	-17.7444	-82.048728	0.000568	5.675745	1.922994	-0.000227
1451	1.4428e+02	-17.7669	-82.185991	0.000345	3.445988	1.167532	-0.000138
1452	1.4437e+02	-17.8086	-82.355550	0.000426	4.256808	1.442246	-0.000170
1453	1.4447e+02	-17.8535	-82.545296	0.000476	4.763571	1.613942	-0.000191
1454	1.4457e+02	-17.8904	-82.751190	0.000517	5.168982	1.751298	-0.000207
1455	1.4467e+02	-17.9337	-82.880378	0.000324	3.243283	1.098854	-0.000130
1456	1.4477e+02	-17.9706	-83.033789	0.000385	3.851398	1.304889	-0.000154
1457	1.4487e+02	-18.0139	-83.304277	0.000679	6.790623	2.300725	-0.000272
1458	1.4497e+02	-18.0540	-83.433466	0.000324	3.243283	1.098854	-0.000130
1459	1.4507e+02	-18.0893	-83.566691	0.000334	3.344635	1.133193	-0.000134
1460	1.4517e+02	-18.1423	-83.736251	0.000426	4.256808	1.442246	-0.000170
1461	1.4527e+02	-18.1824	-83.909848	0.000436	4.358161	1.476585	-0.000174
1462	1.4537e+02	-18.2113	-84.123816	0.000537	5.371687	1.819977	-0.000215
1463	1.4547e+02	-18.2481	-84.305487	0.000456	4.560866	1.545263	-0.000183
1464	1.4557e+02	-18.2883	-84.475047	0.000426	4.256808	1.442246	-0.000170
1465	1.4567e+02	-18.3364	-84.588087	0.000284	2.837872	0.961497	-0.000114
1466	1.4577e+02	-18.3733	-84.822240	0.000588	5.878450	1.991673	-0.000235
1467	1.4587e+02	-18.4086	-84.975652	0.000385	3.851398	1.304889	-0.000154
1468	1.4597e+02	-18.4535	-85.197694	0.000557	5.574392	1.888655	-0.000223
1469	1.4607e+02	-18.4984	-85.347068	0.000375	3.750046	1.270550	-0.000150
1470	1.4617e+02	-18.5353	-85.512591	0.000416	4.155456	1.407907	-0.000166
1471	1.4626e+02	-18.5754	-85.726559	0.000537	5.371687	1.819977	-0.000215
1472	1.4636e+02	-18.6107	-85.871896	0.000365	3.648693	1.236211	-0.000146
1473	1.4646e+02	-18.6508	-86.053567	0.000456	4.560866	1.545263	-0.000183
1474	1.4656e+02	-18.6861	-86.215052	0.000405	4.054103	1.373567	-0.000162
1475	1.4666e+02	-18.7310	-86.416909	0.000507	5.067629	1.716959	-0.000203
1476	1.4676e+02	-18.7727	-86.638952	0.000557	5.574392	1.888655	-0.000223
1477	1.4686e+02	-18.8096	-86.776214	0.000345	3.445988	1.167532	-0.000138
1478	1.4696e+02	-18.8417	-86.921551	0.000365	3.648693	1.236211	-0.000146
1479	1.4706e+02	-18.8850	-87.139556	0.000547	5.473039	1.854316	-0.000219
1480	1.4716e+02	-18.9332	-87.313153	0.000436	4.358161	1.476585	-0.000174
1481	1.4726e+02	-18.9749	-87.462527	0.000375	3.750046	1.270550	-0.000150
1482	1.4736e+02	-19.0166	-87.619975	0.000395	3.952751	1.339228	-0.000158
1483	1.4746e+02	-19.0471	-87.842018	0.000557	5.574392	1.888655	-0.000223
1484	1.4756e+02	-19.0856	-88.023689	0.000456	4.560866	1.545263	-0.000183
1485	1.4766e+02	-19.1241	-88.197286	0.000436	4.358161	1.476585	-0.000174
1486	1.4776e+02	-19.1674	-88.378957	0.000456	4.560866	1.545263	-0.000183
1487	1.4786e+02	-19.2171	-88.560628	0.000456	4.560866	1.545263	-0.000183
1488	1.4796e+02	-19.2492	-88.689816	0.000324	3.243283	1.098854	-0.000130
1489	1.4806e+02	-19.2941	-88.879562	0.000476	4.763571	1.613942	-0.000191
1490	1.4816e+02	-19.3294	-89.093530	0.000537	5.371687	1.819977	-0.000215
1491	1.4825e+02	-19.3567	-89.267127	0.000436	4.358161	1.476585	-0.000174
1492	1.4835e+02	-19.4016	-89.452835	0.000466	4.662219	1.579602	-0.000187
1493	1.4845e+02	-19.4449	-89.606246	0.000385	3.851398	1.304889	-0.000154
1494	1.4855e+02	-19.4850	-89.771769	0.000416	4.155456	1.407907	-0.000166
1495	1.4865e+02	-19.5251	-89.953440	0.000456	4.560866	1.545263	-0.000183
1496	1.4875e+02	-19.5636	-90.163371	0.000527	5.270334	1.785638	-0.000211
1497	1.4885e+02	-19.6182	-90.308708	0.000365	3.648693	1.236211	-0.000146
1498	1.4895e+02	-19.6390	-90.526713	0.000547	5.473039	1.854316	-0.000219
1499	1.4905e+02	-19.6839	-90.680124	0.000385	3.851398	1.304889	-0.000154
1500	1.4915e+02	-19.7240	-90.873907	0.000486	4.864924	1.648281	-0.000195
1501	1.4925e+02	-19.7706	-91.067689	0.000486	4.864924	1.648281	-0.000195
1502	1.4935e+02	-19.8139	-91.229175	0.000405	4.054103	1.373567	-0.000162
1503	1.4945e+02	-19.8444	-91.418920	0.000476	4.763571	1.613942	-0.000191
1504	1.4955e+02	-19.8813	-91.612703	0.000486	4.864924	1.648281	-0.000195
1505	1.4965e+02	-19.9294	-91.778225	0.000416	4.155456	1.407907	-0.000166
1506	1.4975e+02	-19.9647	-91.943748	0.000416	4.155456	1.407907	-0.000166
1507	1.4985e+02	-20.0064	-92.173865	0.000578	5.777097	1.957334	-0.000231
1508	1.4995e+02	-19.9679	-92.105233	0.000172	1.722994	0.583766	0.000069
1509	1.5005e+02	-19.9278	-92.032565	0.000182	1.824346	0.618105	0.000073
1510	1.5015e+02	-19.8813	-91.947785	0.000213	2.128404	0.721123	0.000085
1511	1.5025e+02	-19.8508	-91.867042	0.000203	2.027052	0.686784	0.000081
1512	1.5034e+02	-19.8026	-91.798411	0.000172	1.722994	0.583766	0.000069
1513	1.5044e+02	-19.7754	-91.741891	0.000142	1.418936	0.480749	0.000057
1514	1.5054e+02	-19.7208	-91.628851	0.000284	2.837872	0.961497	0.000114
1515	1.5064e+02	-19.6807	-91.523886	0.000264	2.635167	0.892819	0.000105
1516	1.5074e+02	-19.6454	-91.398735	0.000314	3.141930	1.064515	0.000126
1517	1.5084e+02	-19.6134	-91.378549	0.000051	0.506763	0.171696	0.000020
1518	1.5094e+02	-19.5652	-91.233212	0.000365	3.648693	1.236211	0.000146
1519	1.5104e+02	-19.5251	-91.192841	0.000101	1.013526	0.343392	0.000041
1520	1.5114e+02	-19.4898	-91.128246	0.000162	1.621641	0.549427	0.000065
1521	1.5124e+02	-19.4449	-90.974835	0.000385	3.851398	1.304889	0.000154
1522	1.5134e+02	-19.4096	-90.861795	0.000284	2.837872	0.961497	0.000114
1523	1.5144e+02	-19.3695	-90.777016	0.000213	2.128404	0.721123	0.000085
1524	1.5154e+02	-19.3262	-90.692236	0.000213	2.128404	0.721123	0.000085
1525	1.5164e+02	-19.2861	-90.583233	0.000274	2.736520	0.927158	0.000110
1526	1.5174e+02	-19.2460	-90.466156	0.000294	2.939225	0.995836	0.000118
1527	1.5184e+02	-19.2107	-90.377339	0.000223	2.229757	0.755462	0.000089
1528	1.5194e+02	-19.1754	-90.244114	0.000334	3.344635	1.133193	0.000134
1529	1.5204e+02	-19.1241	-90.175482	0.000172	1.722994	0.583766	0.000069
1530	1.5214e+02	-19.0872	-90.042257	0.000334	3.344635	1.133193	0.000134
1531	1.5224e+02	-19.0487	-89.969588	0.000182	1.824346	0.618105	0.000073
1532	1.5233e+02	-19.0102	-89.852512	0.000294	2.939225	0.995836	0.000118
1533	1.5243e+02	-18.9749	-89.763695	0.000223	2.229757	0.755462	0.000089
1534	1.5253e+02	-18.9299	-89.642580	0.000304	3.040577	1.030176	0.000122
1535	1.5263e+02	-18.8963	-89.509355	0.000334	3.344635	1.133193	0.000134
1536	1.5273e+02	-18.8513	-89.404389	0.000264	2.635167	0.892819	0.000105
1537	1.5283e+02	-18.8048	-89.291350	0.000284	2.837872	0.961497	0.000114
1538	1.5293e+02	-18.7663	-89.162161	0.000324	3.243283	1.098854	0.000130
1539	1.5303e+02	-18.7390	-89.053159	0.000274	2.736520	0.927158	0.000110
1540	1.5313e+02	-18.6941	-88.919933	0.000334	3.344635	1.133193	0.000134
1541	1.5323e+02	-18.6524	-88.839190	0.000203	2.027052	0.686784	0.000081
1542	1.5333e+02	-18.6059	-88.677705	0.000405	4.054103	1.373567	0.000162
1543	1.5343e+02	-18.5722	-88.596962	0.000203	2.027052	0.686784	0.000081
1544	1.5353e+02	-18.5337	-88.504108	0.000233	2.331109	0.789801	0.000093
1545	1.5363e+02	-18.4904	-88.391068	0.000284	2.837872	0.961497	0.000114
1546	1.5373e+02	-18.4519	-88.241694	0.000375	3.750046	1.270550	0.000150
1547	1.5383e+02	-18.4134	-88.120580	0.000304	3.040577	1.030176	0.000122
1548	1.5393e+02	-18.3749	-88.003503	0.000294	2.939225	0.995836	0.000118
1549	1.5403e+02	-18.3300	-87.878352	0.000314	3.141930	1.064515	0.000126
1550	1.5413e+02	-18.2963	-87.793572	0.000213	2.128404	0.721123	0.000085
1551	1.5422e+02	-18.2562	-87.664384	0.000324	3.243283	1.098854	0.000130
1552	1.5432e+02	-18.2129	-87.539233	0.000314	3.141930	1.064515	0.000126
1553	1.5442e+02	-18.1760	-87.458490	0.000203	2.027052	0.686784	0.000081
1554	1.5452e+02	-18.1375	-87.301042	0.000395	3.952751	1.339228	0.000158
1555	1.5462e+02	-18.0925	-87.216262	0.000213	2.128404	0.721123	0.000085
1556	1.5472e+02	-18.0508	-87.070925	0.000365	3.648693	1.236211	0.000146
1557	1.5482e+02	-18.0139	-86.897328	0.000436	4.358161	1.476585	0.000174
1558	1.5492e+02	-17.9738	-86.808511	0.000223	2.229757	0.755462	0.000089
1559	1.5502e+02	-17.9337	-86.647026	0.000405	4.054103	1.373567	0.000162
1560	1.5512e+02	-17.8984	-86.582432	0.000162	1.621641	0.549427	0.000065
1561	1.5522e+02	-17.8535	-86.424983	0.000395	3.952751	1.339228	0.000158
1562	1.5532e+02	-17.8150	-86.287721	0.000345	3.445988	1.167532	0.000138
1563	1.5542e+02	-17.7765	-86.142384	0.000365	3.648693	1.236211	0.000146
1564	1.5552e+02	-17.7348	-86.033381	0.000274	2.736520	0.927158	0.000110
1565	1.5562e+02	-17.6931	-85.952638	0.000203	2.027052	0.686784	0.000081
1566	1.5572e+02	-17.6562	-85.843636	0.000274	2.736520	0.927158	0.000110
1567	1.5582e+02	-17.6289	-85.734633	0.000274	2.736520	0.927158	0.000110
1568	1.5592e+02	-17.5680	-85.581222	0.000385	3.851398	1.304889	0.000154
1569	1.5602e+02	-17.5359	-85.488368	0.000233	2.331109	0.789801	0.000093
1570	1.5612e+02	-17.4958	-85.343031	0.000365	3.648693	1.236211	0.000146
1571	1.5622e+02	-17.4637	-85.234028	0.000274	2.736520	0.927158	0.000110
1572	1.5631e+02	-17.4188	-85.052357	0.000456	4.560866	1.545263	0.000183
1573	1.5641e+02	-17.3738	-84.951429	0.000253	2.533815	0.858480	0.000101
1574	1.5651e+02	-17.3369	-84.814166	0.000345	3.445988	1.167532	0.000138
1575	1.5661e+02	-17.2952	-84.709201	0.000264	2.635167	0.892819	0.000105
1576	1.5671e+02	-17.2599	-84.620384	0.000223	2.229757	0.755462	0.000089
1577	1.5681e+02	-17.2118	-84.495232	0.000314	3.141930	1.064515	0.000126
1578	1.5691e+02	-17.1797	-84.345858	0.000375	3.750046	1.270550	0.000150
1579	1.5701e+02	-17.1364	-84.232819	0.000284	2.837872	0.961497	0.000114
1580	1.5711e+02	-17.0995	-84.135927	0.000243	2.432462	0.824140	0.000097
1581	1.5721e+02	-17.0610	-83.978479	0.000395	3.952751	1.339228	0.000158
1582	1.5731e+02	-17.0193	-83.873514	0.000264	2.635167	0.892819	0.000105
1583	1.5741e+02	-16.9792	-83.703954	0.000426	4.256808	1.442246	0.000170
1584	1.5751e+02	-16.9343	-83.611100	0.000233	2.331109	0.789801	0.000093
1585	1.5761e+02	-16.8942	-83.445577	0.000416	4.155456	1.407907	0.000166
1586	1.5771e+02	-16.8589	-83.332537	0.000284	2.837872	0.961497	0.000114
1587	1.5781e+02	-16.8140	-83.211423	0.000304	3.040577	1.030176	0.000122
1588	1.5791e+02	-16.7706	-83.086272	0.000314	3.141930	1.064515	0.000126
1589	1.5801e+02	-16.7386	-82.957084	0.000324	3.243283	1.098854	0.000130
1590	1.5811e+02	-16.6985	-82.811747	0.000365	3.648693	1.236211	0.000146
1591	1.5821e+02	-16.6664	-82.694670	0.000294	2.939225	0.995836	0.000118
1592	1.5830e+02	-16.6166	-82.601816	0.000233	2.331109	0.789801	0.000093
1593	1.5840e+02	-16.5830	-82.420145	0.000456	4.560866	1.545263	0.000183
1594	1.5850e+02	-16.5396	-82.363625	0.000142	1.418936	0.480749	0.000057
1595	1.5860e+02	-16.5027	-82.222325	0.000355	3.547340	1.201871	0.000142
1596	1.5870e+02	-16.4707	-82.064877	0.000395	3.952751	1.339228	0.000158
1597	1.5880e+02	-16.4209	-81.967985	0.000243	2.432462	0.824140	0.000097
1598	1.5890e+02	-16.3904	-81.822649	0.000365	3.648693	1.236211	0.000146
1599	1.5900e+02	-16.3375	-81.657126	0.000416	4.155456	1.407907	0.000166
1600	1.5910e+02	-16.2958	-81.527938	0.000324	3.243283	1.098854	0.000130
1601	1.5920e+02	-16.2541	-81.418935	0.000274	2.736520	0.927158	0.000110
1602	1.5930e+02	-16.2156	-81.318007	0.000253	2.533815	0.858480	0.000101
1603	1.5940e+02	-16.1771	-81.156521	0.000405	4.054103	1.373567	0.000162
1604	1.5950e+02	-16.1418	-81.039444	0.000294	2.939225	0.995836	0.000118
1605	1.5960e+02	-16.1017	-80.869885	0.000426	4.256808	1.442246	0.000170
1606	1.5970e+02	-16.0632	-80.801253	0.000172	1.722994	0.583766	0.000069
1607	1.5980e+02	-16.0167	-80.663991	0.000345	3.445988	1.167532	0.000138
1608	1.5990e+02	-15.9814	-80.506542	0.000395	3.952751	1.339228	0.000158
1609	1.6000e+02	-15.9413	-80.421762	0.000213	2.128404	0.721123	0.000085
1610	1.6010e+02	-15.9028	-80.232017	0.000476	4.763571	1.613942	0.000191
1611	1.6019e+02	-15.8675	-80.110903	0.000304	3.040577	1.030176	0.000122
1612	1.6029e+02	-15.8177	-80.001900	0.000274	2.736520	0.927158	0.000110
1613	1.6039e+02	-15.7824	-79.876749	0.000314	3.141930	1.064515	0.000126
1614	1.6049e+02	-15.7407	-79.731412	0.000365	3.648693	1.236211	0.000146
1615	1.6059e+02	-15.7022	-79.598187	0.000334	3.344635	1.133193	0.000134
1616	1.6069e+02	-15.6685	-79.468998	0.000324	3.243283	1.098854	0.000130
1617	1.6079e+02	-15.6252	-79.343847	0.000314	3.141930	1.064515	0.000126
1618	1.6089e+02	-15.5771	-79.206585	0.000345	3.445988	1.167532	0.000138
1619	1.6099e+02	-15.5482	-79.065285	0.000355	3.547340	1.201871	0.000142
1620	1.6109e+02	-15.5017	-78.976468	0.000223	2.229757	0.755462	0.000089
1621	1.6119e+02	-15.4632	-78.827094	0.000375	3.750046	1.270550	0.000150
1622	1.6129e+02	-15.4231	-78.710017	0.000294	2.939225	0.995836	0.000118
1623	1.6139e+02	-15.3782	-78.564680	0.000365	3.648693	1.236211	0.000146
1624	1.6149e+02	-15.3477	-78.423380	0.000355	3.547340	1.201871	0.000142
1625	1.6159e+02	-15.3156	-78.286118	0.000345	3.445988	1.167532	0.000138
1626	1.6169e+02	-15.2627	-78.124632	0.000405	4.054103	1.373567	0.000162
1627	1.6179e+02	-15.2210	-78.007555	0.000294	2.939225	0.995836	0.000118
1628	1.6189e+02	-15.1776	-77.878367	0.000324	3.243283	1.098854	0.000130
1629	1.6199e+02	-15.1456	-77.720919	0.000395	3.952751	1.339228	0.000158
1630	1.6209e+02	-15.1006	-77.611916	0.000274	2.736520	0.927158	0.000110
1631	1.6219e+02	-15.0621	-77.490802	0.000304	3.040577	1.030176	0.000122
1632	1.6228e+02	-15.0252	-77.325279	0.000416	4.155456	1.407907	0.000166
1633	1.6238e+02	-14.9900	-77.224351	0.000253	2.533815	0.858480	0.000101
1634	1.6248e+02	-14.9514	-77.074977	0.000375	3.750046	1.270550	0.000150
1635	1.6258e+02	-14.9146	-76.970011	0.000264	2.635167	0.892819	0.000105
1636	1.6268e+02	-14.8680	-76.788340	0.000456	4.560866	1.545263	0.000183
1637	1.6278e+02	-14.8311	-76.679338	0.000274	2.736520	0.927158	0.000110
1638	1.6288e+02	-14.7798	-76.550149	0.000324	3.243283	1.098854	0.000130
1639	1.6298e+02	-14.7445	-76.412887	0.000345	3.445988	1.167532	0.000138
1640	1.6308e+02	-14.7060	-76.279661	0.000334	3.344635	1.133193	0.000134
1641	1.6318e+02	-14.6691	-76.138361	0.000355	3.547340	1.201871	0.000142
1642	1.6328e+02	-14.6210	-75.993025	0.000365	3.648693	1.236211	0.000146
1643	1.6338e+02	-14.5873	-75.815391	0.000446	4.459514	1.510924	0.000179
1644	1.6348e+02	-14.5456	-75.738685	0.000193	1.925699	0.652445	0.000077
1645	1.6358e+02	-14.5007	-75.597385	0.000355	3.547340	1.201871	0.000142
1646	1.6368e+02	-14.4766	-75.452048	0.000365	3.648693	1.236211	0.000146
1647	1.6378e+02	-14.4204	-75.282489	0.000426	4.256808	1.442246	0.000170
1648	1.6388e+02	-14.3868	-75.149263	0.000334	3.344635	1.133193	0.000134
1649	1.6398e+02	-14.3499	-74.971629	0.000446	4.459514	1.510924	0.000179
1650	1.6408e+02	-14.3017	-74.878775	0.000233	2.331109	0.789801	0.000093
1651	1.6418e+02	-14.2632	-74.721327	0.000395	3.952751	1.339228	0.000158
1652	1.6427e+02	-14.2344	-74.575990	0.000365	3.648693	1.236211	0.000146
1653	1.6437e+02	-14.1910	-74.422579	0.000385	3.851398	1.304889	0.000154
1654	1.6447e+02	-14.1509	-74.345873	0.000193	1.925699	0.652445	0.000077
1655	1.6457e+02	-14.1140	-74.168239	0.000446	4.459514	1.510924	0.000179
1656	1.6467e+02	-14.0627	-74.010791	0.000395	3.952751	1.339228	0.000158
1657	1.6477e+02	-14.0290	-73.861417	0.000375	3.750046	1.270550	0.000150
1658	1.6487e+02	-13.9921	-73.728191	0.000334	3.344635	1.133193	0.000134
1659	1.6497e+02	-13.9504	-73.599003	0.000324	3.243283	1.098854	0.000130
1660	1.6507e+02	-13.9071	-73.465778	0.000334	3.344635	1.133193	0.000134
1661	1.6517e+02	-13.8670	-73.284106	0.000456	4.560866	1.545263	0.000183
1662	1.6527e+02	-13.8365	-73.142807	0.000355	3.547340	1.201871	0.000142
1663	1.6537e+02	-13.7868	-73.009581	0.000334	3.344635	1.133193	0.000134
1664	1.6547e+02	-13.7467	-72.928839	0.000203	2.027052	0.686784	0.000081
1665	1.6557e+02	-13.7146	-72.722945	0.000517	5.168982	1.751298	0.000207
1666	1.6567e+02	-13.6665	-72.577608	0.000365	3.648693	1.236211	0.000146
1667	1.6577e+02	-13.6296	-72.420159	0.000395	3.952751	1.339228	0.000158
1668	1.6587e+02	-13.5927	-72.303083	0.000294	2.939225	0.995836	0.000118
1669	1.6597e+02	-13.5477	-72.145634	0.000395	3.952751	1.339228	0.000158
1670	1.6607e+02	-13.5157	-72.020483	0.000314	3.141930	1.064515	0.000126
1671	1.6616e+02	-13.4691	-71.875146	0.000365	3.648693	1.236211	0.000146
1672	1.6626e+02	-13.4354	-71.709624	0.000416	4.155456	1.407907	0.000166
1673	1.6636e+02	-13.4002	-71.576398	0.000334	3.344635	1.133193	0.000134
1674	1.6646e+02	-13.3584	-71.390690	0.000466	4.662219	1.579602	0.000187
1675	1.6656e+02	-13.3135	-71.297836	0.000233	2.331109	0.789801	0.000093
1676	1.6666e+02	-13.2766	-71.124239	0.000436	4.358161	1.476585	0.000174
1677	1.6676e+02	-13.2349	-70.966791	0.000395	3.952751	1.339228	0.000158
1678	1.6686e+02	-13.1884	-70.833565	0.000334	3.344635	1.133193	0.000134
1679	1.6696e+02	-13.1499	-70.712451	0.000304	3.040577	1.030176	0.000122
1680	1.6706e+02	-13.1146	-70.571151	0.000355	3.547340	1.201871	0.000142
1681	1.6716e+02	-13.0793	-70.357183	0.000537	5.371687	1.819977	0.000215
1682	1.6726e+02	-13.0360	-70.203772	0.000385	3.851398	1.304889	0.000154
1683	1.6736e+02	-12.9895	-70.050361	0.000385	3.851398	1.304889	0.000154
1684	1.6746e+02	-12.9590	-69.937321	0.000284	2.837872	0.961497	0.000114
1685	1.6756e+02	-12.9044	-69.763724	0.000436	4.358161	1.476585	0.000174
1686	1.6766e+02	-12.8756	-69.634536	0.000324	3.243283	1.098854	0.000130
1687	1.6776e+02	-12.8323	-69.481125	0.000385	3.851398	1.304889	0.000154
1688	1.6786e+02	-12.7889	-69.351936	0.000324	3.243283	1.098854	0.000130
1689	1.6796e+02	-12.7520	-69.198525	0.000385	3.851398	1.304889	0.000154
1690	1.6806e+02	-12.7135	-69.037040	0.000405	4.054103	1.373567	0.000162
1691	1.6816e+02	-12.6847	-68.875554	0.000405	4.054103	1.373567	0.000162
1692	1.6825e+02	-12.6349	-68.754440	0.000304	3.040577	1.030176	0.000122
1693	1.6835e+02	-12.6012	-68.560658	0.000486	4.864924	1.648281	0.000195
1694	1.6845e+02	-12.5595	-68.451655	0.000274	2.736520	0.927158	0.000110
1695	1.6855e+02	-12.5114	-68.269984	0.000456	4.560866	1.545263	0.000183
1696	1.6865e+02	-12.4825	-68.140796	0.000324	3.243283	1.098854	0.000130
1697	1.6875e+02	-12.4360	-67.942976	0.000497	4.966277	1.682620	0.000199
1698	1.6885e+02	-12.3991	-67.793602	0.000375	3.750046	1.270550	0.000150
1699	1.6895e+02	-12.3526	-67.660376	0.000334	3.344635	1.133193	0.000134
1700	1.6905e+02	-12.3173	-67.502928	0.000395	3.952751	1.339228	0.000158
1701	1.6915e+02	-12.2900	-67.369703	0.000334	3.344635	1.133193	0.000134
1702	1.6925e+02	-12.2355	-67.196106	0.000436	4.358161	1.476585	0.000174
1703	1.6935e+02	-12.1954	-67.018472	0.000446	4.459514	1.510924	0.000179
1704	1.6945e+02	-12.1569	-66.856986	0.000405	4.054103	1.373567	0.000162
1705	1.6955e+02	-12.1168	-66.735872	0.000304	3.040577	1.030176	0.000122
1706	1.6965e+02	-12.0847	-66.550164	0.000466	4.662219	1.579602	0.000187
1707	1.6975e+02	-12.0430	-66.433087	0.000294	2.939225	0.995836	0.000118
1708	1.6985e+02	-11.9932	-66.243342	0.000476	4.763571	1.613942	0.000191
1709	1.6995e+02	-11.9612	-66.106079	0.000345	3.445988	1.167532	0.000138
1710	1.7005e+02	-11.9098	-65.948631	0.000395	3.952751	1.339228	0.000158
1711	1.7015e+02	-11.8745	-65.791183	0.000395	3.952751	1.339228	0.000158
1712	1.7024e+02	-11.8408	-65.621623	0.000426	4.256808	1.442246	0.000170
1713	1.7034e+02	-11.8023	-65.448026	0.000436	4.358161	1.476585	0.000174
1714	1.7044e+02	-11.7606	-65.294615	0.000385	3.851398	1.304889	0.000154
1715	1.7054e+02	-11.7205	-65.141204	0.000385	3.851398	1.304889	0.000154
1716	1.7064e+02	-11.6756	-64.991830	0.000375	3.750046	1.270550	0.000150
1717	1.7074e+02	-11.6307	-64.862641	0.000324	3.243283	1.098854	0.000130
1718	1.7084e+02	-11.5890	-64.668859	0.000486	4.864924	1.648281	0.000195
1719	1.7094e+02	-11.5569	-64.543708	0.000314	3.141930	1.064515	0.000126
1720	1.7104e+02	-11.5184	-64.386259	0.000395	3.952751	1.339228	0.000158
1721	1.7114e+02	-11.4831	-64.220737	0.000416	4.155456	1.407907	0.000166
1722	1.7124e+02	-11.4350	-64.067326	0.000385	3.851398	1.304889	0.000154
1723	1.7134e+02	-11.3997	-63.897766	0.000426	4.256808	1.442246	0.000170
1724	1.7144e+02	-11.3596	-63.748392	0.000375	3.750046	1.270550	0.000150
1725	1.7154e+02	-11.3211	-63.574795	0.000436	4.358161	1.476585	0.000174
1726	1.7164e+02	-11.2842	-63.441570	0.000334	3.344635	1.133193	0.000134
1727	1.7174e+02	-11.2280	-63.272010	0.000426	4.256808	1.442246	0.000170
1728	1.7184e+02	-11.2008	-63.098413	0.000436	4.358161	1.476585	0.000174
1729	1.7194e+02	-11.1623	-62.936928	0.000405	4.054103	1.373567	0.000162
1730	1.7204e+02	-11.1205	-62.755256	0.000456	4.560866	1.545263	0.000183
1731	1.7213e+02	-11.0692	-62.622031	0.000334	3.344635	1.133193	0.000134
1732	1.7223e+02	-11.0419	-62.472657	0.000375	3.750046	1.270550	0.000150
1733	1.7233e+02	-11.0002	-62.286949	0.000466	4.662219	1.579602	0.000187
1734	1.7243e+02	-10.9617	-62.133538	0.000385	3.851398	1.304889	0.000154
1735	1.7253e+02	-10.9232	-62.020498	0.000284	2.837872	0.961497	0.000114
1736	1.7263e+02	-10.8863	-61.802492	0.000547	5.473039	1.854316	0.000219
1737	1.7273e+02	-10.8446	-61.649081	0.000385	3.851398	1.304889	0.000154
1738	1.7283e+02	-10.8061	-61.499707	0.000375	3.750046	1.270550	0.000150
1739	1.7293e+02	-10.7692	-61.358408	0.000355	3.547340	1.201871	0.000142
1740	1.7303e+02	-10.7195	-61.176736	0.000456	4.560866	1.545263	0.000183
1741	1.7313e+02	-10.6714	-61.055622	0.000304	3.040577	1.030176	0.000122
1742	1.7323e+02	-10.6473	-60.910285	0.000365	3.648693	1.236211	0.000146
1743	1.7333e+02	-10.6056	-60.732651	0.000446	4.459514	1.510924	0.000179
1744	1.7343e+02	-10.5655	-60.502535	0.000578	5.777097	1.957334	0.000231
1745	1.7353e+02	-10.5174	-60.397569	0.000264	2.635167	0.892819	0.000105
1746	1.7363e+02	-10.4805	-60.223972	0.000436	4.358161	1.476585	0.000174
1747	1.7373e+02	-10.4452	-60.098821	0.000314	3.141930	1.064515	0.000126
1748	1.7383e+02	-10.3922	-59.909076	0.000476	4.763571	1.613942	0.000191
1749	1.7393e+02	-10.3601	-59.779887	0.000324	3.243283	1.098854	0.000130
1750	1.7403e+02	-10.3264	-59.610328	0.000426	4.256808	1.442246	0.000170
1751	1.7413e+02	-10.2831	-59.428657	0.000456	4.560866	1.545263	0.000183
1752	1.7422e+02	-10.2350	-59.259097	0.000426	4.256808	1.442246	0.000170
1753	1.7432e+02	-10.2029	-59.101649	0.000395	3.952751	1.339228	0.000158
1754	1.7442e+02	-10.1612	-58.956312	0.000365	3.648693	1.236211	0.000146
1755	1.7452e+02	-10.1275	-58.798863	0.000395	3.952751	1.339228	0.000158
1756	1.7462e+02	-10.0938	-58.645452	0.000385	3.851398	1.304889	0.000154
1757	1.7472e+02	-10.0473	-58.479930	0.000416	4.155456	1.407907	0.000166
1758	1.7482e+02	-10.0056	-58.318444	0.000405	4.054103	1.373567	0.000162
1759	1.7492e+02	-9.9671	-58.152922	0.000416	4.155456	1.407907	0.000166
1760	1.7502e+02	-9.9286	-57.995473	0.000395	3.952751	1.339228	0.000158
1761	1.7512e+02	-9.8821	-57.833988	0.000405	4.054103	1.373567	0.000162
1762	1.7522e+02	-9.8388	-57.664428	0.000426	4.256808	1.442246	0.000170
1763	1.7532e+02	-9.8131	-57.478720	0.000466	4.662219	1.579602	0.000187
1764	1.7542e+02	-9.7730	-57.333383	0.000365	3.648693	1.236211	0.000146
1765	1.7552e+02	-9.7265	-57.196121	0.000345	3.445988	1.167532	0.000138
1766	1.7562e+02	-9.6880	-57.014449	0.000456	4.560866	1.545263	0.000183
1767	1.7572e+02	-9.6382	-56.865075	0.000375	3.750046	1.270550	0.000150
1768	1.7582e+02	-9.6126	-56.659182	0.000517	5.168982	1.751298	0.000207
1769	1.7592e+02	-9.5676	-56.473473	0.000466	4.662219	1.579602	0.000187
1770	1.7602e+02	-9.5291	-56.360433	0.000284	2.837872	0.961497	0.000114
1771	1.7612e+02	-9.4810	-56.174725	0.000466	4.662219	1.579602	0.000187
1772	1.7621e+02	-9.4505	-56.045537	0.000324	3.243283	1.098854	0.000130
1773	1.7631e+02	-9.4056	-55.867903	0.000446	4.459514	1.510924	0.000179
1774	1.7641e+02	-9.3735	-55.686232	0.000456	4.560866	1.545263	0.000183
1775	1.7651e+02	-9.3302	-55.597415	0.000223	2.229757	0.755462	0.000089
1776	1.7661e+02	-9.2917	-55.355187	0.000608	6.081155	2.060351	0.000243
1777	1.7671e+02	-9.2484	-55.209850	0.000365	3.648693	1.236211	0.000146
1778	1.7681e+02	-9.2019	-55.064513	0.000365	3.648693	1.236211	0.000146
1779	1.7691e+02	-9.1618	-54.919176	0.000365	3.648693	1.236211	0.000146
1780	1.7701e+02	-9.1297	-54.733468	0.000466	4.662219	1.579602	0.000187
1781	1.7711e+02	-9.0960	-54.596205	0.000345	3.445988	1.167532	0.000138
1782	1.7721e+02	-9.0479	-54.398386	0.000497	4.966277	1.682620	0.000199
1783	1.7731e+02	-9.0078	-54.200566	0.000497	4.966277	1.682620	0.000199
1784	1.7741e+02	-8.9693	-54.079452	0.000304	3.040577	1.030176	0.000122
1785	1.7751e+02	-8.9227	-53.897781	0.000456	4.560866	1.545263	0.000183
1786	1.7761e+02	-8.8874	-53.720147	0.000446	4.459514	1.510924	0.000179
1787	1.7771e+02	-8.8506	-53.574810	0.000365	3.648693	1.236211	0.000146
1788	1.7781e+02	-8.8072	-53.441584	0.000334	3.344635	1.133193	0.000134
1789	1.7791e+02	-8.7735	-53.235690	0.000517	5.168982	1.751298	0.000207
1790	1.7801e+02	-8.7302	-53.098428	0.000345	3.445988	1.167532	0.000138
1791	1.7810e+02	-8.6885	-52.928868	0.000426	4.256808	1.442246	0.000170
1792	1.7820e+02	-8.6420	-52.731048	0.000497	4.966277	1.682620	0.000199
1793	1.7830e+02	-8.6147	-52.533229	0.000497	4.966277	1.682620	0.000199
1794	1.7840e+02	-8.5682	-52.404040	0.000324	3.243283	1.098854	0.000130
1795	1.7850e+02	-8.5361	-52.234481	0.000426	4.256808	1.442246	0.000170
1796	1.7860e+02	-8.4832	-52.052810	0.000456	4.560866	1.545263	0.000183
1797	1.7870e+02	-8.4511	-51.879213	0.000436	4.358161	1.476585	0.000174
1798	1.7880e+02	-8.4110	-51.745987	0.000334	3.344635	1.133193	0.000134
1799	1.7890e+02	-8.3789	-51.548168	0.000497	4.966277	1.682620	0.000199
1800	1.7900e+02	-8.3308	-51.394757	0.000385	3.851398	1.304889	0.000154
1801	1.7910e+02	-8.2875	-51.200974	0.000486	4.864924	1.648281	0.000195
1802	1.7920e+02	-8.2522	-51.047563	0.000385	3.851398	1.304889	0.000154
1803	1.7930e+02	-8.2121	-50.882040	0.000416	4.155456	1.407907	0.000166
1804	1.7940e+02	-8.1688	-50.748815	0.000334	3.344635	1.133193	0.000134
1805	1.7950e+02	-8.1351	-50.514661	0.000588	5.878450	1.991673	0.000235
1806	1.7960e+02	-8.0950	-50.349138	0.000416	4.155456	1.407907	0.000166
1807	1.7970e+02	-8.0516	-50.175542	0.000436	4.358161	1.476585	0.000174
1808	1.7980e+02	-8.0228	-50.022130	0.000385	3.851398	1.304889	0.000154
1809	1.7990e+02	-7.9730	-49.844496	0.000446	4.459514	1.510924	0.000179
1810	1.8000e+02	-7.9313	-49.703197	0.000355	3.547340	1.201871	0.000142
1811	1.8009e+02	-7.9008	-49.493266	0.000527	5.270334	1.785638	0.000211
1812	1.8019e+02	-7.8591	-49.299483	0.000486	4.864924	1.648281	0.000195
1813	1.8029e+02	-7.8094	-49.170295	0.000324	3.243283	1.098854	0.000130
1814	1.8039e+02	-7.7725	-48.972475	0.000497	4.966277	1.682620	0.000199
1815	1.8049e+02	-7.7308	-48.802915	0.000426	4.256808	1.442246	0.000170
1816	1.8059e+02	-7.6939	-48.633356	0.000426	4.256808	1.442246	0.000170
1817	1.8069e+02	-7.6602	-48.463796	0.000426	4.256808	1.442246	0.000170
1818	1.8079e+02	-7.6105	-48.257902	0.000517	5.168982	1.751298	0.000207
1819	1.8089e+02	-7.5640	-48.092379	0.000416	4.155456	1.407907	0.000166
1820	1.8099e+02	-7.5335	-47.914746	0.000446	4.459514	1.510924	0.000179
1821	1.8109e+02	-7.4966	-47.745186	0.000426	4.256808	1.442246	0.000170
1822	1.8119e+02	-7.4549	-47.567552	0.000446	4.459514	1.510924	0.000179
1823	1.8129e+02	-7.4228	-47.430289	0.000345	3.445988	1.167532	0.000138
1824	1.8139e+02	-7.3731	-47.232470	0.000497	4.966277	1.682620	0.000199
1825	1.8149e+02	-7.3410	-47.075021	0.000395	3.952751	1.339228	0.000158
1826	1.8159e+02	-7.2912	-46.873164	0.000507	5.067629	1.716959	0.000203
1827	1.8169e+02	-7.2559	-46.675345	0.000497	4.966277	1.682620	0.000199
1828	1.8179e+02	-7.2062	-46.489637	0.000466	4.662219	1.579602	0.000187
1829	1.8189e+02	-7.1741	-46.340263	0.000375	3.750046	1.270550	0.000150
1830	1.8199e+02	-7.1372	-46.134369	0.000517	5.168982	1.751298	0.000207
1831	1.8209e+02	-7.0955	-45.956735	0.000446	4.459514	1.510924	0.000179
1832	1.8218e+02	-7.0634	-45.758915	0.000497	4.966277	1.682620	0.000199
1833	1.8228e+02	-7.0153	-45.597430	0.000405	4.054103	1.373567	0.000162
1834	1.8238e+02	-6.9752	-45.403647	0.000486	4.864924	1.648281	0.000195
1835	1.8248e+02	-6.9399	-45.242162	0.000405	4.054103	1.373567	0.000162
1836	1.8258e+02	-6.9078	-45.028193	0.000537	5.371687	1.819977	0.000215
1837	1.8268e+02	-6.8597	-44.874782	0.000385	3.851398	1.304889	0.000154
1838	1.8278e+02	-6.8164	-44.705223	0.000426	4.256808	1.442246	0.000170
1839	1.8288e+02	-6.7763	-44.475106	0.000578	5.777097	1.957334	0.000231
1840	1.8298e+02	-6.7314	-44.329769	0.000365	3.648693	1.236211	0.000146
1841	1.8308e+02	-6.7025	-44.107727	0.000557	5.574392	1.888655	0.000223
1842	1.8318e+02	-6.6511	-43.978538	0.000324	3.243283	1.098854	0.000130
1843	1.8328e+02	-6.6175	-43.772644	0.000517	5.168982	1.751298	0.000207
1844	1.8338e+02	-6.5661	-43.607122	0.000416	4.155456	1.407907	0.000166
1845	1.8348e+02	-6.5340	-43.377005	0.000578	5.777097	1.957334	0.000231
1846	1.8358e+02	-6.5020	-43.235705	0.000355	3.547340	1.201871	0.000142
1847	1.8368e+02	-6.4522	-43.009626	0.000568	5.675745	1.922994	0.000227
1848	1.8378e+02	-6.4137	-42.840066	0.000426	4.256808	1.442246	0.000170
1849	1.8388e+02	-6.3720	-42.698766	0.000355	3.547340	1.201871	0.000142
1850	1.8398e+02	-6.3383	-42.509021	0.000476	4.763571	1.613942	0.000191
1851	1.8407e+02	-6.3094	-42.331387	0.000446	4.459514	1.510924	0.000179
1852	1.8417e+02	-6.2597	-42.149716	0.000456	4.560866	1.545263	0.000183
1853	1.8427e+02	-6.2260	-41.939785	0.000527	5.270334	1.785638	0.000211
1854	1.8437e+02	-6.1891	-41.701594	0.000598	5.979802	2.026012	0.000239
1855	1.8447e+02	-6.1362	-41.532034	0.000426	4.256808	1.442246	0.000170
1856	1.8457e+02	-6.1041	-41.427068	0.000264	2.635167	0.892819	0.000105
1857	1.8467e+02	-6.0656	-41.176766	0.000628	6.283860	2.129029	0.000252
1858	1.8477e+02	-6.0223	-40.991058	0.000466	4.662219	1.579602	0.000187
1859	1.8487e+02	-5.9806	-40.829572	0.000405	4.054103	1.373567	0.000162
1860	1.8497e+02	-5.9389	-40.607530	0.000557	5.574392	1.888655	0.000223
1861	1.8507e+02	-5.9020	-40.433933	0.000436	4.358161	1.476585	0.000174
1862	1.8517e+02	-5.8731	-40.211891	0.000557	5.574392	1.888655	0.000223
1863	1.8527e+02	-5.8137	-40.038294	0.000436	4.358161	1.476585	0.000174
1864	1.8537e+02	-5.7865	-39.828363	0.000527	5.270334	1.785638	0.000211
1865	1.8547e+02	-5.7448	-39.638617	0.000476	4.763571	1.613942	0.000191
1866	1.8557e+02	-5.7079	-39.460983	0.000446	4.459514	1.510924	0.000179
1867	1.8567e+02	-5.6629	-39.255089	0.000517	5.168982	1.751298	0.000207
1868	1.8577e+02	-5.6228	-39.101678	0.000385	3.851398	1.304889	0.000154
1869	1.8587e+02	-5.5811	-38.903859	0.000497	4.966277	1.682620	0.000199
1870	1.8597e+02	-5.5394	-38.677779	0.000568	5.675745	1.922994	0.000227
1871	1.8606e+02	-5.5073	-38.524368	0.000385	3.851398	1.304889	0.000154
1872	1.8616e+02	-5.4496	-38.298288	0.000568	5.675745	1.922994	0.000227
1873	1.8626e+02	-5.4255	-38.100469	0.000497	4.966277	1.682620	0.000199
1874	1.8636e+02	-5.3806	-37.910723	0.000476	4.763571	1.613942	0.000191
1875	1.8646e+02	-5.3453	-37.708866	0.000507	5.067629	1.716959	0.000203
1876	1.8656e+02	-5.3020	-37.498935	0.000527	5.270334	1.785638	0.000211
1877	1.8666e+02	-5.2699	-37.365710	0.000334	3.344635	1.133193	0.000134
1878	1.8676e+02	-5.2282	-37.135593	0.000578	5.777097	1.957334	0.000231
1879	1.8686e+02	-5.1785	-36.986219	0.000375	3.750046	1.270550	0.000150
1880	1.8696e+02	-5.1400	-36.743991	0.000608	6.081155	2.060351	0.000243
1881	1.8706e+02	-5.1079	-36.566357	0.000446	4.459514	1.510924	0.000179
1882	1.8716e+02	-5.0662	-36.336240	0.000578	5.777097	1.957334	0.000231
1883	1.8726e+02	-5.0229	-36.182829	0.000385	3.851398	1.304889	0.000154
1884	1.8736e+02	-4.9876	-35.968861	0.000537	5.371687	1.819977	0.000215
1885	1.8746e+02	-4.9378	-35.791227	0.000446	4.459514	1.510924	0.000179
1886	1.8756e+02	-4.9057	-35.544962	0.000618	6.182508	2.094690	0.000248
1887	1.8766e+02	-4.8624	-35.371365	0.000436	4.358161	1.476585	0.000174
1888	1.8776e+02	-4.8271	-35.173545	0.000497	4.966277	1.682620	0.000199
1889	1.8786e+02	-4.7870	-34.975725	0.000497	4.966277	1.682620	0.000199
1890	1.8796e+02	-4.7405	-34.790017	0.000466	4.662219	1.579602	0.000187
1891	1.8806e+02	-4.7068	-34.616420	0.000436	4.358161	1.476585	0.000174
1892	1.8815e+02	-4.6587	-34.402452	0.000537	5.371687	1.819977	0.000215
1893	1.8825e+02	-4.6218	-34.160224	0.000608	6.081155	2.060351	0.000243
1894	1.8835e+02	-4.5833	-33.986627	0.000436	4.358161	1.476585	0.000174
1895	1.8845e+02	-4.5384	-33.800919	0.000466	4.662219	1.579602	0.000187
1896	1.8855e+02	-4.5095	-33.611174	0.000476	4.763571	1.613942	0.000191
1897	1.8865e+02	-4.4710	-33.389131	0.000557	5.574392	1.888655	0.000223
1898	1.8875e+02	-4.4277	-33.175163	0.000537	5.371687	1.819977	0.000215
1899	1.8885e+02	-4.3892	-32.973306	0.000507	5.067629	1.716959	0.000203
1900	1.8895e+02	-4.3507	-32.803746	0.000426	4.256808	1.442246	0.000170
1901	1.8905e+02	-4.3106	-32.605927	0.000497	4.966277	1.682620	0.000199
1902	1.8915e+02	-4.2705	-32.379847	0.000568	5.675745	1.922994	0.000227
1903	1.8925e+02	-4.2272	-32.206250	0.000436	4.358161	1.476585	0.000174
1904	1.8935e+02	-4.1870	-32.000356	0.000517	5.168982	1.751298	0.000207
1905	1.8945e+02	-4.1534	-31.786388	0.000537	5.371687	1.819977	0.000215
1906	1.8955e+02	-4.1036	-31.620866	0.000416	4.155456	1.407907	0.000166
1907	1.8965e+02	-4.0715	-31.382675	0.000598	5.979802	2.026012	0.000239
1908	1.8975e+02	-4.0282	-31.196966	0.000466	4.662219	1.579602	0.000187
1909	1.8985e+02	-3.9833	-30.991072	0.000517	5.168982	1.751298	0.000207
1910	1.8995e+02	-3.9480	-30.789216	0.000507	5.067629	1.716959	0.000203
1911	1.9004e+02	-3.9111	-30.591396	0.000497	4.966277	1.682620	0.000199
1912	1.9014e+02	-3.8678	-30.357242	0.000588	5.878450	1.991673	0.000235
1913	1.9024e+02	-3.8341	-30.215942	0.000355	3.547340	1.201871	0.000142
1914	1.9034e+02	-3.7940	-29.989863	0.000568	5.675745	1.922994	0.000227
1915	1.9044e+02	-3.7475	-29.792043	0.000497	4.966277	1.682620	0.000199
1916	1.9054e+02	-3.7154	-29.561926	0.000578	5.777097	1.957334	0.000231
1917	1.9064e+02	-3.6705	-29.408515	0.000385	3.851398	1.304889	0.000154
1918	1.9074e+02	-3.6384	-29.162250	0.000618	6.182508	2.094690	0.000248
1919	1.9084e+02	-3.5855	-28.984616	0.000446	4.459514	1.510924	0.000179
1920	1.9094e+02	-3.5614	-28.774685	0.000527	5.270334	1.785638	0.000211
1921	1.9104e+02	-3.5052	-28.588977	0.000466	4.662219	1.579602	0.000187
1922	1.9114e+02	-3.4635	-28.387120	0.000507	5.067629	1.716959	0.000203
1923	1.9124e+02	-3.4298	-28.201412	0.000466	4.662219	1.579602	0.000187
1924	1.9134e+02	-3.3897	-27.959184	0.000608	6.081155	2.060351	0.000243
1925	1.9144e+02	-3.3512	-27.757327	0.000507	5.067629	1.716959	0.000203
1926	1.9154e+02	-3.3143	-27.551433	0.000517	5.168982	1.751298	0.000207
1927	1.9164e+02	-3.2742	-27.357650	0.000486	4.864924	1.648281	0.000195
1928	1.9174e+02	-3.2245	-27.139645	0.000547	5.473039	1.854316	0.000219
1929	1.9184e+02	-3.1892	-26.937788	0.000507	5.067629	1.716959	0.000203
1930	1.9194e+02	-3.1587	-26.748043	0.000476	4.763571	1.613942	0.000191
1931	1.9203e+02	-3.1154	-26.493703	0.000639	6.385213	2.163369	0.000256
1932	1.9213e+02	-3.0737	-26.316069	0.000446	4.459514	1.510924	0.000179
1933	1.9223e+02	-3.0448	-26.122287	0.000486	4.864924	1.648281	0.000195
1934	1.9233e+02	-2.9935	-25.888133	0.000588	5.878450	1.991673	0.000235
1935	1.9243e+02	-2.9550	-25.706462	0.000456	4.560866	1.545263	0.000183
1936	1.9253e+02	-2.9293	-25.520754	0.000466	4.662219	1.579602	0.000187
1937	1.9263e+02	-2.8716	-25.286600	0.000588	5.878450	1.991673	0.000235
1938	1.9273e+02	-2.8283	-25.052446	0.000588	5.878450	1.991673	0.000235
1939	1.9283e+02	-2.8010	-24.878849	0.000436	4.358161	1.476585	0.000174
1940	1.9293e+02	-2.7561	-24.664881	0.000537	5.371687	1.819977	0.000215
1941	1.9303e+02	-2.7208	-24.418616	0.000618	6.182508	2.094690	0.000248
1942	1.9313e+02	-2.6791	-24.245019	0.000436	4.358161	1.476585	0.000174
1943	1.9323e+02	-2.6293	-23.994716	0.000628	6.283860	2.129029	0.000252
1944	1.9333e+02	-2.6005	-23.841305	0.000385	3.851398	1.304889	0.000154
1945	1.9343e+02	-2.5588	-23.607151	0.000588	5.878450	1.991673	0.000235
1946	1.9353e+02	-2.5170	-23.437592	0.000426	4.256808	1.442246	0.000170
1947	1.9363e+02	-2.4689	-23.247846	0.000476	4.763571	1.613942	0.000191
1948	1.9373e+02	-2.4400	-22.969284	0.000699	6.993328	2.369404	0.000280
1949	1.9383e+02	-2.4015	-22.747241	0.000557	5.574392	1.888655	0.000223
1950	1.9393e+02	-2.3502	-22.553459	0.000486	4.864924	1.648281	0.000195
1951	1.9403e+02	-2.3101	-22.355639	0.000497	4.966277	1.682620	0.000199
1952	1.9412e+02	-2.2732	-22.125522	0.000578	5.777097	1.957334	0.000231
1953	1.9422e+02	-2.2331	-21.964037	0.000405	4.054103	1.373567	0.000162
1954	1.9432e+02	-2.1930	-21.741995	0.000557	5.574392	1.888655	0.000223
1955	1.9442e+02	-2.1609	-21.511878	0.000578	5.777097	1.957334	0.000231
1956	1.9452e+02	-2.1224	-21.273687	0.000598	5.979802	2.026012	0.000239
1957	1.9462e+02	-2.0839	-21.063756	0.000527	5.270334	1.785638	0.000211
1958	1.9472e+02	-2.0422	-20.853825	0.000527	5.270334	1.785638	0.000211
1959	1.9482e+02	-1.9957	-20.672154	0.000456	4.560866	1.545263	0.000183
1960	1.9492e+02	-1.9620	-20.438000	0.000588	5.878450	1.991673	0.000235
1961	1.9502e+02	-1.9155	-20.219994	0.000547	5.473039	1.854316	0.000219
1962	1.9512e+02	-1.8753	-19.977766	0.000608	6.081155	2.060351	0.000243
1963	1.9522e+02	-1.8385	-19.759761	0.000547	5.473039	1.854316	0.000219
1964	1.9532e+02	-1.8032	-19.565978	0.000486	4.864924	1.648281	0.000195
1965	1.9542e+02	-1.7566	-19.327787	0.000598	5.979802	2.026012	0.000239
1966	1.9552e+02	-1.7149	-19.154191	0.000436	4.358161	1.476585	0.000174
1967	1.9562e+02	-1.6748	-18.924074	0.000578	5.777097	1.957334	0.000231
1968	1.9572e+02	-1.6363	-18.689920	0.000588	5.878450	1.991673	0.000235
1969	1.9582e+02	-1.5994	-18.459803	0.000578	5.777097	1.957334	0.000231
1970	1.9592e+02	-1.5625	-18.237761	0.000557	5.574392	1.888655	0.000223
1971	1.9601e+02	-1.5128	-18.027830	0.000527	5.270334	1.785638	0.000211
1972	1.9611e+02	-1.4743	-17.757342	0.000679	6.790623	2.300725	0.000272
1973	1.9621e+02	-1.4406	-17.571633	0.000466	4.662219	1.579602	0.000187
1974	1.9631e+02	-1.4037	-17.349591	0.000557	5.574392	1.888655	0.000223
1975	1.9641e+02	-1.3652	-17.151771	0.000497	4.966277	1.682620	0.000199
1976	1.9651e+02	-1.3219	-16.897432	0.000639	6.385213	2.163369	0.000256
1977	1.9661e+02	-1.2722	-16.671352	0.000568	5.675745	1.922994	0.000227
1978	1.9671e+02	-1.2353	-16.465458	0.000517	5.168982	1.751298	0.000207
1979	1.9681e+02	-1.1903	-16.255527	0.000527	5.270334	1.785638	0.000211
1980	1.9691e+02	-1.1534	-16.013299	0.000608	6.081155	2.060351	0.000243
1981	1.9701e+02	-1.1117	-15.795294	0.000547	5.473039	1.854316	0.000219
1982	1.9711e+02	-1.0829	-15.573251	0.000557	5.574392	1.888655	0.000223
1983	1.9721e+02	-1.0428	-15.314874	0.000649	6.486565	2.197708	0.000260
1984	1.9731e+02	-1.0026	-15.117055	0.000497	4.966277	1.682620	0.000199
1985	1.9741e+02	-0.9625	-14.890975	0.000568	5.675745	1.922994	0.000227
1986	1.9751e+02	-0.9256	-14.632598	0.000649	6.486565	2.197708	0.000260
1987	1.9761e+02	-0.8791	-14.422667	0.000527	5.270334	1.785638	0.000211
1988	1.9771e+02	-0.8551	-14.192551	0.000578	5.777097	1.957334	0.000231
1989	1.9781e+02	-0.8021	-13.950323	0.000608	6.081155	2.060351	0.000243
1990	1.9791e+02	-0.7684	-13.736354	0.000537	5.371687	1.819977	0.000215
1991	1.9800e+02	-0.7155	-13.482015	0.000639	6.385213	2.163369	0.000256
1992	1.9810e+02	-0.6850	-13.235750	0.000618	6.182508	2.094690	0.000248
1993	1.9820e+02	-0.6385	-13.029856	0.000517	5.168982	1.751298	0.000207
1994	1.9830e+02	-0.6064	-12.783590	0.000618	6.182508	2.094690	0.000248
1995	1.9840e+02	-0.5583	-12.537325	0.000618	6.182508	2.094690	0.000248
1996	1.9850e+02	-0.5214	-12.335468	0.000507	5.067629	1.716959	0.000203
1997	1.9860e+02	-0.4893	-12.056906	0.000699	6.993328	2.369404	0.000280
1998	1.9870e+02	-0.4364	-11.810641	0.000618	6.182508	2.094690	0.000248
1999	1.9880e+02	-0.4027	-11.600710	0.000527	5.270334	1.785638	0.000211
2000	1.9890e+02	-0.3706	-11.366556	0.000588	5.878450	1.991673	0.000235
2001	1.9900e+02	-0.3257	-11.160662	0.000517	5.168982	1.751298	0.000207
2002	1.9910e+02	-0.2888	-10.946694	0.000537	5.371687	1.819977	0.000215
2003	1.9920e+02	-0.2535	-10.672168	0.000689	6.891976	2.335065	0.000276
2004	1.9930e+02	-0.2037	-10.433977	0.000598	5.979802	2.026012	0.000239
2005	1.9940e+02	-0.1700	-10.199823	0.000588	5.878450	1.991673	0.000235
2006	1.9950e+02	-0.1235	-9.977781	0.000557	5.574392	1.888655	0.000223
2007	1.9960e+02	-0.0963	-9.731516	0.000618	6.182508	2.094690	0.000248
2008	1.9970e+02	-0.0529	-9.452953	0.000699	6.993328	2.369404	0.000280
2009	1.9980e+02	-0.0064	-9.238985	0.000699	6.993328	2.369404	0.000215

Center data before PMax,+/-Pr and +/-Vc Calc.

PMax (uC/cm2):	9.22e+01
Pr (uC/cm2):	4.69e+00
-Pr (uC/cm2):	-9.24e+00
PLoss (uC/cm2):	-4.69e+00
Vc:	8.32e-01
-Vc:	-8.01e-01
C (Max-Eff) (nF):	4.61e-01
K (Eff):	1.56e+03
Vert. (+/-Pr) Shift (uC/cm2):	-2.28e+00
Horiz. Shift (+/-Vc):	1.56e-02
Offset (uC/cm2):	4.56e+00

A (Loop Area - uC/cm2·Volts):	4.87e-02



Hysteresis Version: 5.48.1 - Radiant Technologies, Inc., 1999 - 9/12/24

