»»»»»»»»»»»»»»»»»»»»»»»»»»»»»»»»»»»» Hysteresis ««««««««««««««««««««««««««««««««««««
»»»  Executed Version:	5.48.1
»»»  Vision Version:	5.48.4 (R)
»»»  Vision Compiled:	9/18/24
»»»  Driver Version:	5.47.0
»»»  Windows Version:	Windows 8 or 8.1
»»»  Processor Information:	x86 (AMD or Intel) - 32 Processors
»»»  Tester Name:	PMF21124-494 (100V)
»»»  Tester S/N:	PMF21124-494
»»»  Internal Amp Type:	100V RevK 270k
»»»  Internal Amp S/N:	iAB2-596/K     
»»»  Execution Count:	1
»»»»»»»»»»»»»»»»»»»»»»»»»»»»»»»»»»»»»»»»»»««««««««««««««««««««««««««««««««««««««««««

Stored:	6/4/2025 - 15:9:24
Configured:	06/04/25 01:46:06 PM
Executed:	06/04/25 03:08:45 PM

»»»»»»»»»»»»»»»»»»»»»»»»»»»»»»»»»»» Sample Info ««««««««««««««««««««««««««««««««««««
Sample Name:	
Lot Name:	
Wafer Name:	
Die Row/Column:	0/0
Capacitor Number:	0
Sample Area (cm2):	1.00e-04
Sample Thickness (microns):	3.00e-01

Amplifier:	Internal

»»»»»»»»»»»»»»»»»»»»»»»»»»»»»»»»»»» Tester Info «««««««««««««««««««««««««««««««««««
Tester Name:	PMF21124-494 (100V)
Tester Serial Number:	PMF21124-494
Return Signal Amp. Level:	0.19 [Index: 3]

»»»»»»»»»»»»»»»»»»»»»»»»»»»»»»»» Hysteresis Info ««««««««««««««««««««««««««««««««««
Task Name:	Hyst-37
Volts:	20.00
Field:	666.67 (kV/cm)
DCBias:	0.00
DCField:	0.00 (kV/cm)
Hysteresis Period (ms):	2.00e+02
Preset:	Enabled
Preset Delay (ms):	1.00e+03
Profile:	Standard Bipolar

»»»»»»»»»»»»»»»»»»»»»»»»»»»»»»»»»»»»»» Data «««««««««««««««««««««««««««««««««««««««
Points:	2009

Valid Data

Point	Time (ms)	Drive Voltage	Measured Polarization (uC/cm2)	Capacitance (uF)	Normalized Capacitance (uF/cm2)	Dielectric Constant	Instantaneous Current (mA)
   1	0.0000e+00	0.0032	-3.599107	0.000314	3.142434	1.064686	0.000126
   2	9.9500e-02	0.0289	-3.473955	0.000314	3.142434	1.064686	0.000126
   3	1.9900e-01	0.0658	-3.179244	0.000740	7.399926	2.507163	0.000296
   4	2.9850e-01	0.1027	-2.981425	0.000497	4.967074	1.682890	0.000199
   5	3.9800e-01	0.1476	-2.787642	0.000487	4.865705	1.648545	0.000195
   6	4.9750e-01	0.1909	-2.513117	0.000689	6.893082	2.335439	0.000276
   7	5.9700e-01	0.2358	-2.299149	0.000537	5.372549	1.820269	0.000215
   8	6.9650e-01	0.2711	-2.060958	0.000598	5.980762	2.026337	0.000239
   9	7.9600e-01	0.3144	-1.830841	0.000578	5.778024	1.957648	0.000231
  10	8.9550e-01	0.3481	-1.576502	0.000639	6.386237	2.163716	0.000256
  11	9.9500e-01	0.3914	-1.301976	0.000689	6.893082	2.335439	0.000276
  12	1.0945e+00	0.4203	-1.088008	0.000537	5.372549	1.820269	0.000215
  13	1.1940e+00	0.4732	-0.870003	0.000547	5.473918	1.854614	0.000219
  14	1.2935e+00	0.5101	-0.607589	0.000659	6.588975	2.232405	0.000264
  15	1.3930e+00	0.5486	-0.409769	0.000497	4.967074	1.682890	0.000199
  16	1.4925e+00	0.5920	-0.147355	0.000659	6.588975	2.232405	0.000264
  17	1.5920e+00	0.6353	0.094873	0.000608	6.082131	2.060682	0.000243
  18	1.6915e+00	0.6625	0.333064	0.000598	5.980762	2.026337	0.000239
  19	1.7910e+00	0.7107	0.579329	0.000618	6.183500	2.095026	0.000248
  20	1.8905e+00	0.7460	0.833669	0.000639	6.386237	2.163716	0.000256
  21	1.9900e+00	0.7732	1.039562	0.000517	5.169811	1.751579	0.000207
  22	2.0895e+00	0.8262	1.306013	0.000669	6.690344	2.266750	0.000268
  23	2.1890e+00	0.8663	1.532093	0.000568	5.676655	1.923303	0.000227
  24	2.2885e+00	0.9128	1.770284	0.000598	5.980762	2.026337	0.000239
  25	2.3880e+00	0.9417	2.052884	0.000710	7.095819	2.404129	0.000284
  26	2.4875e+00	0.9802	2.299149	0.000618	6.183500	2.095026	0.000248
  27	2.5870e+00	1.0235	2.577711	0.000699	6.994450	2.369784	0.000280
  28	2.6865e+00	1.0604	2.767457	0.000476	4.764336	1.614201	0.000191
  29	2.7860e+00	1.1037	3.013722	0.000618	6.183500	2.095026	0.000248
  30	2.8855e+00	1.1502	3.268061	0.000639	6.386237	2.163716	0.000256
  31	2.9850e+00	1.1871	3.522401	0.000639	6.386237	2.163716	0.000256
  32	3.0845e+00	1.2208	3.764629	0.000608	6.082131	2.060682	0.000243
  33	3.1840e+00	1.2609	4.002820	0.000598	5.980762	2.026337	0.000239
  34	3.2835e+00	1.2994	4.261197	0.000649	6.487606	2.198060	0.000260
  35	3.3830e+00	1.3443	4.495351	0.000588	5.879393	1.991992	0.000235
  36	3.4825e+00	1.3861	4.769876	0.000689	6.893082	2.335439	0.000276
  37	3.5820e+00	1.4197	5.016141	0.000618	6.183500	2.095026	0.000248
  38	3.6815e+00	1.4615	5.246258	0.000578	5.778024	1.957648	0.000231
  39	3.7810e+00	1.5144	5.532895	0.000720	7.197188	2.438473	0.000288
  40	3.8805e+00	1.5369	5.746863	0.000537	5.372549	1.820269	0.000215
  41	3.9800e+00	1.5866	6.017351	0.000679	6.791713	2.301095	0.000272
  42	4.0795e+00	1.6187	6.287839	0.000679	6.791713	2.301095	0.000272
  43	4.1790e+00	1.6700	6.493733	0.000517	5.169811	1.751579	0.000207
  44	4.2785e+00	1.6957	6.792481	0.000750	7.501295	2.541507	0.000300
  45	4.3780e+00	1.7454	7.010486	0.000547	5.473918	1.854614	0.000219
  46	4.4775e+00	1.7823	7.268863	0.000649	6.487606	2.198060	0.000260
  47	4.5770e+00	1.8144	7.519165	0.000628	6.284869	2.129371	0.000252
  48	4.6765e+00	1.8625	7.769468	0.000628	6.284869	2.129371	0.000252
  49	4.7760e+00	1.9058	8.052067	0.000710	7.095819	2.404129	0.000284
  50	4.8755e+00	1.9411	8.286221	0.000588	5.879393	1.991992	0.000235
  51	4.9750e+00	1.9796	8.504226	0.000547	5.473918	1.854614	0.000219
  52	5.0745e+00	2.0213	8.786826	0.000710	7.095819	2.404129	0.000284
  53	5.1740e+00	2.0614	9.025017	0.000598	5.980762	2.026337	0.000239
  54	5.2735e+00	2.0903	9.251097	0.000568	5.676655	1.923303	0.000227
  55	5.3730e+00	2.1417	9.529659	0.000699	6.994450	2.369784	0.000280
  56	5.4725e+00	2.1866	9.788036	0.000649	6.487606	2.198060	0.000260
  57	5.5720e+00	2.2203	10.010078	0.000558	5.575287	1.888958	0.000223
  58	5.6715e+00	2.2668	10.272492	0.000659	6.588975	2.232405	0.000264
  59	5.7710e+00	2.2989	10.522794	0.000628	6.284869	2.129371	0.000252
  60	5.8705e+00	2.3406	10.773097	0.000628	6.284869	2.129371	0.000252
  61	5.9700e+00	2.3823	11.015325	0.000608	6.082131	2.060682	0.000243
  62	6.0695e+00	2.4224	11.297924	0.000710	7.095819	2.404129	0.000284
  63	6.1690e+00	2.4545	11.532078	0.000588	5.879393	1.991992	0.000235
  64	6.2685e+00	2.5026	11.770269	0.000598	5.980762	2.026337	0.000239
  65	6.3680e+00	2.5411	12.024609	0.000639	6.386237	2.163716	0.000256
  66	6.4675e+00	2.5796	12.262800	0.000598	5.980762	2.026337	0.000239
  67	6.5670e+00	2.6085	12.513102	0.000628	6.284869	2.129371	0.000252
  68	6.6665e+00	2.6566	12.731108	0.000547	5.473918	1.854614	0.000219
  69	6.7660e+00	2.7079	13.001596	0.000679	6.791713	2.301095	0.000272
  70	6.8655e+00	2.7481	13.280158	0.000699	6.994450	2.369784	0.000280
  71	6.9650e+00	2.7785	13.506238	0.000568	5.676655	1.923303	0.000227
  72	7.0645e+00	2.8267	13.740391	0.000588	5.879393	1.991992	0.000235
  73	7.1640e+00	2.8603	14.002805	0.000659	6.588975	2.232405	0.000264
  74	7.2635e+00	2.9037	14.265219	0.000659	6.588975	2.232405	0.000264
  75	7.3630e+00	2.9390	14.515522	0.000628	6.284869	2.129371	0.000252
  76	7.4625e+00	2.9775	14.745638	0.000578	5.778024	1.957648	0.000231
  77	7.5620e+00	3.0176	14.975755	0.000578	5.778024	1.957648	0.000231
  78	7.6615e+00	3.0593	15.217983	0.000608	6.082131	2.060682	0.000243
  79	7.7610e+00	3.0994	15.496546	0.000699	6.994450	2.369784	0.000280
  80	7.8605e+00	3.1379	15.742811	0.000618	6.183500	2.095026	0.000248
  81	7.9600e+00	3.1828	15.993113	0.000628	6.284869	2.129371	0.000252
  82	8.0595e+00	3.2277	16.194970	0.000507	5.068442	1.717235	0.000203
  83	8.1590e+00	3.2614	16.489681	0.000740	7.399926	2.507163	0.000296
  84	8.2585e+00	3.2983	16.723835	0.000588	5.879393	1.991992	0.000235
  85	8.3580e+00	3.3352	16.929729	0.000517	5.169811	1.751579	0.000207
  86	8.4575e+00	3.3785	17.248662	0.000801	8.008139	2.713231	0.000321
  87	8.5570e+00	3.4202	17.494928	0.000618	6.183500	2.095026	0.000248
  88	8.6565e+00	3.4651	17.729082	0.000588	5.879393	1.991992	0.000235
  89	8.7560e+00	3.5004	18.019755	0.000730	7.298557	2.472818	0.000292
  90	8.8555e+00	3.5277	18.197389	0.000446	4.460229	1.511167	0.000179
  91	8.9550e+00	3.5726	18.488063	0.000730	7.298557	2.472818	0.000292
  92	9.0545e+00	3.6240	18.718180	0.000578	5.778024	1.957648	0.000231
  93	9.1540e+00	3.6480	18.968482	0.000628	6.284869	2.129371	0.000252
  94	9.2535e+00	3.6978	19.202636	0.000588	5.879393	1.991992	0.000235
  95	9.3530e+00	3.7443	19.452939	0.000628	6.284869	2.129371	0.000252
  96	9.4525e+00	3.7667	19.691130	0.000598	5.980762	2.026337	0.000239
  97	9.5520e+00	3.8245	19.933358	0.000608	6.082131	2.060682	0.000243
  98	9.6515e+00	3.8614	20.203846	0.000679	6.791713	2.301095	0.000272
  99	9.7510e+00	3.8919	20.417814	0.000537	5.372549	1.820269	0.000215
 100	9.8505e+00	3.9384	20.676191	0.000649	6.487606	2.198060	0.000260
 101	9.9500e+00	3.9705	20.942642	0.000669	6.690344	2.266750	0.000268
 102	1.0050e+01	4.0218	21.176796	0.000588	5.879393	1.991992	0.000235
 103	1.0149e+01	4.0507	21.398838	0.000558	5.575287	1.888958	0.000223
 104	1.0248e+01	4.0972	21.641066	0.000608	6.082131	2.060682	0.000243
 105	1.0348e+01	4.1293	21.919628	0.000699	6.994450	2.369784	0.000280
 106	1.0447e+01	4.1646	22.133597	0.000537	5.372549	1.820269	0.000215
 107	1.0547e+01	4.2127	22.367751	0.000588	5.879393	1.991992	0.000235
 108	1.0646e+01	4.2528	22.666499	0.000750	7.501295	2.541507	0.000300
 109	1.0746e+01	4.2977	22.904690	0.000598	5.980762	2.026337	0.000239
 110	1.0845e+01	4.3394	23.159029	0.000639	6.386237	2.163716	0.000256
 111	1.0945e+01	4.3667	23.364923	0.000517	5.169811	1.751579	0.000207
 112	1.1044e+01	4.4213	23.595040	0.000578	5.778024	1.957648	0.000231
 113	1.1144e+01	4.4453	23.857454	0.000659	6.588975	2.232405	0.000264
 114	1.1243e+01	4.4967	24.091608	0.000588	5.879393	1.991992	0.000235
 115	1.1343e+01	4.5320	24.321724	0.000578	5.778024	1.957648	0.000231
 116	1.1443e+01	4.5705	24.572027	0.000628	6.284869	2.129371	0.000252
 117	1.1542e+01	4.6090	24.826366	0.000639	6.386237	2.163716	0.000256
 118	1.1642e+01	4.6491	25.052446	0.000568	5.676655	1.923303	0.000227
 119	1.1741e+01	4.6876	25.286600	0.000588	5.879393	1.991992	0.000235
 120	1.1841e+01	4.7277	25.524791	0.000598	5.980762	2.026337	0.000239
 121	1.1940e+01	4.7678	25.791242	0.000669	6.690344	2.266750	0.000268
 122	1.2040e+01	4.8111	26.041544	0.000628	6.284869	2.129371	0.000252
 123	1.2139e+01	4.8512	26.255512	0.000537	5.372549	1.820269	0.000215
 124	1.2239e+01	4.8897	26.489666	0.000588	5.879393	1.991992	0.000235
 125	1.2338e+01	4.9234	26.735931	0.000618	6.183500	2.095026	0.000248
 126	1.2438e+01	4.9699	26.978160	0.000608	6.082131	2.060682	0.000243
 127	1.2537e+01	5.0068	27.224425	0.000618	6.183500	2.095026	0.000248
 128	1.2636e+01	5.0614	27.454542	0.000578	5.778024	1.957648	0.000231
 129	1.2736e+01	5.0822	27.664473	0.000527	5.271180	1.785924	0.000211
 130	1.2835e+01	5.1319	27.930924	0.000669	6.690344	2.266750	0.000268
 131	1.2935e+01	5.1704	28.157003	0.000568	5.676655	1.923303	0.000227
 132	1.3034e+01	5.1961	28.395194	0.000598	5.980762	2.026337	0.000239
 133	1.3134e+01	5.2539	28.641459	0.000618	6.183500	2.095026	0.000248
 134	1.3233e+01	5.2988	28.859465	0.000547	5.473918	1.854614	0.000219
 135	1.3333e+01	5.3341	29.085544	0.000568	5.676655	1.923303	0.000227
 136	1.3432e+01	5.3678	29.360070	0.000689	6.893082	2.335439	0.000276
 137	1.3532e+01	5.4223	29.594224	0.000588	5.879393	1.991992	0.000235
 138	1.3632e+01	5.4480	29.796080	0.000507	5.068442	1.717235	0.000203
 139	1.3731e+01	5.4961	30.058494	0.000659	6.588975	2.232405	0.000264
 140	1.3831e+01	5.5298	30.288611	0.000578	5.778024	1.957648	0.000231
 141	1.3930e+01	5.5747	30.542950	0.000639	6.386237	2.163716	0.000256
 142	1.4030e+01	5.6068	30.773067	0.000578	5.778024	1.957648	0.000231
 143	1.4129e+01	5.6469	30.982998	0.000527	5.271180	1.785924	0.000211
 144	1.4229e+01	5.6838	31.213115	0.000578	5.778024	1.957648	0.000231
 145	1.4328e+01	5.7223	31.459380	0.000618	6.183500	2.095026	0.000248
 146	1.4428e+01	5.7768	31.746017	0.000720	7.197188	2.438473	0.000288
 147	1.4527e+01	5.8041	31.911539	0.000416	4.156123	1.408133	0.000166
 148	1.4627e+01	5.8522	32.165879	0.000639	6.386237	2.163716	0.000256
 149	1.4726e+01	5.8891	32.416181	0.000628	6.284869	2.129371	0.000252
 150	1.4825e+01	5.9260	32.622075	0.000517	5.169811	1.751579	0.000207
 151	1.4925e+01	5.9774	32.856229	0.000588	5.879393	1.991992	0.000235
 152	1.5024e+01	6.0062	33.146903	0.000730	7.298557	2.472818	0.000292
 153	1.5124e+01	6.0544	33.385094	0.000598	5.980762	2.026337	0.000239
 154	1.5223e+01	6.0913	33.595025	0.000527	5.271180	1.785924	0.000211
 155	1.5323e+01	6.1250	33.829179	0.000588	5.879393	1.991992	0.000235
 156	1.5422e+01	6.1683	34.083518	0.000639	6.386237	2.163716	0.000256
 157	1.5522e+01	6.2036	34.293450	0.000527	5.271180	1.785924	0.000211
 158	1.5621e+01	6.2437	34.543752	0.000628	6.284869	2.129371	0.000252
 159	1.5721e+01	6.2838	34.790017	0.000618	6.183500	2.095026	0.000248
 160	1.5820e+01	6.3351	34.991874	0.000507	5.068442	1.717235	0.000203
 161	1.5920e+01	6.3800	35.230065	0.000598	5.980762	2.026337	0.000239
 162	1.6020e+01	6.4009	35.427885	0.000497	4.967074	1.682890	0.000199
 163	1.6119e+01	6.4522	35.658001	0.000578	5.778024	1.957648	0.000231
 164	1.6218e+01	6.4843	35.884081	0.000568	5.676655	1.923303	0.000227
 165	1.6318e+01	6.5228	36.138421	0.000639	6.386237	2.163716	0.000256
 166	1.6418e+01	6.5661	36.352389	0.000537	5.372549	1.820269	0.000215
 167	1.6517e+01	6.6046	36.570394	0.000547	5.473918	1.854614	0.000219
 168	1.6616e+01	6.6463	36.848956	0.000699	6.994450	2.369784	0.000280
 169	1.6716e+01	6.6832	37.054850	0.000517	5.169811	1.751579	0.000207
 170	1.6816e+01	6.7249	37.284967	0.000578	5.778024	1.957648	0.000231
 171	1.6915e+01	6.7570	37.507010	0.000558	5.575287	1.888958	0.000223
 172	1.7015e+01	6.8052	37.716941	0.000527	5.271180	1.785924	0.000211
 173	1.7114e+01	6.8437	37.934946	0.000547	5.473918	1.854614	0.000219
 174	1.7213e+01	6.8838	38.189286	0.000639	6.386237	2.163716	0.000256
 175	1.7313e+01	6.9271	38.374994	0.000466	4.662967	1.579856	0.000187
 176	1.7413e+01	6.9592	38.633370	0.000649	6.487606	2.198060	0.000260
 177	1.7512e+01	7.0057	38.891747	0.000649	6.487606	2.198060	0.000260
 178	1.7611e+01	7.0426	39.129938	0.000598	5.980762	2.026337	0.000239
 179	1.7711e+01	7.0811	39.283349	0.000385	3.852016	1.305098	0.000154
 180	1.7811e+01	7.1276	39.533652	0.000628	6.284869	2.129371	0.000252
 181	1.7910e+01	7.1581	39.763768	0.000578	5.778024	1.957648	0.000231
 182	1.8009e+01	7.2030	40.001959	0.000598	5.980762	2.026337	0.000239
 183	1.8109e+01	7.2415	40.228039	0.000568	5.676655	1.923303	0.000227
 184	1.8209e+01	7.2704	40.442007	0.000537	5.372549	1.820269	0.000215
 185	1.8308e+01	7.3201	40.647901	0.000517	5.169811	1.751579	0.000207
 186	1.8407e+01	7.3538	40.878018	0.000578	5.778024	1.957648	0.000231
 187	1.8507e+01	7.3923	41.112172	0.000588	5.879393	1.991992	0.000235
 188	1.8607e+01	7.4468	41.301917	0.000476	4.764336	1.614201	0.000191
 189	1.8706e+01	7.4805	41.552220	0.000628	6.284869	2.129371	0.000252
 190	1.8805e+01	7.5174	41.786373	0.000588	5.879393	1.991992	0.000235
 191	1.8905e+01	7.5495	41.992267	0.000517	5.169811	1.751579	0.000207
 192	1.9005e+01	7.6025	42.202198	0.000527	5.271180	1.785924	0.000211
 193	1.9104e+01	7.6426	42.452501	0.000628	6.284869	2.129371	0.000252
 194	1.9203e+01	7.6939	42.654358	0.000507	5.068442	1.717235	0.000203
 195	1.9303e+01	7.7244	42.864289	0.000527	5.271180	1.785924	0.000211
 196	1.9402e+01	7.7581	43.074220	0.000527	5.271180	1.785924	0.000211
 197	1.9502e+01	7.7998	43.304336	0.000578	5.778024	1.957648	0.000231
 198	1.9602e+01	7.8431	43.558676	0.000639	6.386237	2.163716	0.000256
 199	1.9701e+01	7.8832	43.772644	0.000537	5.372549	1.820269	0.000215
 200	1.9800e+01	7.9169	44.006798	0.000588	5.879393	1.991992	0.000235
 201	1.9900e+01	7.9666	44.204618	0.000497	4.967074	1.682890	0.000199
 202	2.0000e+01	8.0003	44.402437	0.000497	4.967074	1.682890	0.000199
 203	2.0099e+01	8.0436	44.640628	0.000598	5.980762	2.026337	0.000239
 204	2.0198e+01	8.0773	44.834411	0.000487	4.865705	1.648545	0.000195
 205	2.0298e+01	8.1158	45.068565	0.000588	5.879393	1.991992	0.000235
 206	2.0398e+01	8.1543	45.282533	0.000537	5.372549	1.820269	0.000215
 207	2.0497e+01	8.1960	45.540910	0.000649	6.487606	2.198060	0.000260
 208	2.0596e+01	8.2393	45.738729	0.000497	4.967074	1.682890	0.000199
 209	2.0696e+01	8.2762	45.980957	0.000608	6.082131	2.060682	0.000243
 210	2.0796e+01	8.3276	46.182814	0.000507	5.068442	1.717235	0.000203
 211	2.0895e+01	8.3468	46.372560	0.000476	4.764336	1.614201	0.000191
 212	2.0994e+01	8.4014	46.606714	0.000588	5.879393	1.991992	0.000235
 213	2.1094e+01	8.4415	46.820682	0.000537	5.372549	1.820269	0.000215
 214	2.1194e+01	8.4848	47.066947	0.000618	6.183500	2.095026	0.000248
 215	2.1293e+01	8.5233	47.284952	0.000547	5.473918	1.854614	0.000219
 216	2.1392e+01	8.5538	47.470661	0.000466	4.662967	1.579856	0.000187
 217	2.1492e+01	8.5939	47.696740	0.000568	5.676655	1.923303	0.000227
 218	2.1591e+01	8.6324	47.930894	0.000588	5.879393	1.991992	0.000235
 219	2.1691e+01	8.6837	48.124677	0.000487	4.865705	1.648545	0.000195
 220	2.1791e+01	8.7270	48.354793	0.000578	5.778024	1.957648	0.000231
 221	2.1890e+01	8.7527	48.540502	0.000466	4.662967	1.579856	0.000187
 222	2.1989e+01	8.7944	48.770618	0.000578	5.778024	1.957648	0.000231
 223	2.2089e+01	8.8265	49.000735	0.000578	5.778024	1.957648	0.000231
 224	2.2189e+01	8.8730	49.222777	0.000558	5.575287	1.888958	0.000223
 225	2.2288e+01	8.9147	49.436746	0.000537	5.372549	1.820269	0.000215
 226	2.2387e+01	8.9532	49.646677	0.000527	5.271180	1.785924	0.000211
 227	2.2487e+01	8.9933	49.848534	0.000507	5.068442	1.717235	0.000203
 228	2.2587e+01	9.0334	50.066539	0.000547	5.473918	1.854614	0.000219
 229	2.2686e+01	9.0816	50.264359	0.000497	4.967074	1.682890	0.000199
 230	2.2785e+01	9.1185	50.462178	0.000497	4.967074	1.682890	0.000199
 231	2.2885e+01	9.1602	50.676146	0.000537	5.372549	1.820269	0.000215
 232	2.2985e+01	9.1906	50.906263	0.000578	5.778024	1.957648	0.000231
 233	2.3084e+01	9.2243	51.120231	0.000537	5.372549	1.820269	0.000215
 234	2.3183e+01	9.2773	51.326125	0.000517	5.169811	1.751579	0.000207
 235	2.3283e+01	9.3078	51.544131	0.000547	5.473918	1.854614	0.000219
 236	2.3383e+01	9.3575	51.762136	0.000547	5.473918	1.854614	0.000219
 237	2.3482e+01	9.4008	51.951881	0.000476	4.764336	1.614201	0.000191
 238	2.3581e+01	9.4345	52.169887	0.000547	5.473918	1.854614	0.000219
 239	2.3681e+01	9.4714	52.351558	0.000456	4.561598	1.545511	0.000183
 240	2.3780e+01	9.5051	52.585712	0.000588	5.879393	1.991992	0.000235
 241	2.3880e+01	9.5596	52.795643	0.000527	5.271180	1.785924	0.000211
 242	2.3980e+01	9.5965	52.973277	0.000446	4.460229	1.511167	0.000179
 243	2.4079e+01	9.6446	53.163022	0.000476	4.764336	1.614201	0.000191
 244	2.4178e+01	9.6703	53.413324	0.000628	6.284869	2.129371	0.000252
 245	2.4278e+01	9.7184	53.611144	0.000497	4.967074	1.682890	0.000199
 246	2.4378e+01	9.7505	53.857409	0.000618	6.183500	2.095026	0.000248
 247	2.4477e+01	9.8003	54.010820	0.000385	3.852016	1.305098	0.000154
 248	2.4576e+01	9.8179	54.212677	0.000507	5.068442	1.717235	0.000203
 249	2.4676e+01	9.8757	54.426645	0.000537	5.372549	1.820269	0.000215
 250	2.4776e+01	9.9126	54.656762	0.000578	5.778024	1.957648	0.000231
 251	2.4875e+01	9.9430	54.834396	0.000446	4.460229	1.511167	0.000179
 252	2.4974e+01	9.9928	55.052401	0.000547	5.473918	1.854614	0.000219
 253	2.5074e+01	10.0361	55.262333	0.000527	5.271180	1.785924	0.000211
 254	2.5174e+01	10.0666	55.452078	0.000476	4.764336	1.614201	0.000191
 255	2.5273e+01	10.1163	55.686232	0.000588	5.879393	1.991992	0.000235
 256	2.5372e+01	10.1500	55.896163	0.000527	5.271180	1.785924	0.000211
 257	2.5472e+01	10.1965	56.089945	0.000487	4.865705	1.648545	0.000195
 258	2.5572e+01	10.2334	56.267579	0.000446	4.460229	1.511167	0.000179
 259	2.5671e+01	10.2767	56.477510	0.000527	5.271180	1.785924	0.000211
 260	2.5770e+01	10.3184	56.695516	0.000547	5.473918	1.854614	0.000219
 261	2.5870e+01	10.3441	56.897373	0.000507	5.068442	1.717235	0.000203
 262	2.5970e+01	10.3986	57.111341	0.000537	5.372549	1.820269	0.000215
 263	2.6069e+01	10.4371	57.333383	0.000558	5.575287	1.888958	0.000223
 264	2.6169e+01	10.4724	57.535240	0.000507	5.068442	1.717235	0.000203
 265	2.6268e+01	10.5157	57.716911	0.000456	4.561598	1.545511	0.000183
 266	2.6367e+01	10.5462	57.926842	0.000527	5.271180	1.785924	0.000211
 267	2.6467e+01	10.5944	58.148885	0.000558	5.575287	1.888958	0.000223
 268	2.6567e+01	10.6409	58.366890	0.000547	5.473918	1.854614	0.000219
 269	2.6666e+01	10.6762	58.520301	0.000385	3.852016	1.305098	0.000154
 270	2.6765e+01	10.7131	58.762529	0.000608	6.082131	2.060682	0.000243
 271	2.6865e+01	10.7419	58.968423	0.000517	5.169811	1.751579	0.000207
 272	2.6965e+01	10.7917	59.129909	0.000405	4.054754	1.373788	0.000162
 273	2.7064e+01	10.8222	59.327728	0.000497	4.967074	1.682890	0.000199
 274	2.7163e+01	10.8655	59.553808	0.000568	5.676655	1.923303	0.000227
 275	2.7263e+01	10.9008	59.767776	0.000537	5.372549	1.820269	0.000215
 276	2.7363e+01	10.9505	59.969633	0.000507	5.068442	1.717235	0.000203
 277	2.7462e+01	10.9890	60.163415	0.000487	4.865705	1.648545	0.000195
 278	2.7561e+01	11.0275	60.389495	0.000568	5.676655	1.923303	0.000227
 279	2.7661e+01	11.0660	60.579240	0.000476	4.764336	1.614201	0.000191
 280	2.7761e+01	11.1077	60.748800	0.000426	4.257492	1.442477	0.000170
 281	2.7860e+01	11.1478	60.962768	0.000537	5.372549	1.820269	0.000215
 282	2.7959e+01	11.1879	61.156551	0.000487	4.865705	1.648545	0.000195
 283	2.8059e+01	11.2200	61.378593	0.000558	5.575287	1.888958	0.000223
 284	2.8159e+01	11.2633	61.568339	0.000476	4.764336	1.614201	0.000191
 285	2.8258e+01	11.3098	61.798455	0.000578	5.778024	1.957648	0.000231
 286	2.8358e+01	11.3532	61.943792	0.000365	3.649279	1.236409	0.000146
 287	2.8457e+01	11.3981	62.202169	0.000649	6.487606	2.198060	0.000260
 288	2.8556e+01	11.4334	62.355580	0.000385	3.852016	1.305098	0.000154
 289	2.8656e+01	11.4719	62.589734	0.000588	5.879393	1.991992	0.000235
 290	2.8756e+01	11.5088	62.783516	0.000487	4.865705	1.648545	0.000195
 291	2.8855e+01	11.5505	62.977299	0.000487	4.865705	1.648545	0.000195
 292	2.8954e+01	11.5842	63.179156	0.000507	5.068442	1.717235	0.000203
 293	2.9054e+01	11.6162	63.356790	0.000446	4.460229	1.511167	0.000179
 294	2.9154e+01	11.6660	63.546535	0.000476	4.764336	1.614201	0.000191
 295	2.9253e+01	11.7045	63.784726	0.000598	5.980762	2.026337	0.000239
 296	2.9352e+01	11.7462	63.970434	0.000466	4.662967	1.579856	0.000187
 297	2.9452e+01	11.7831	64.148068	0.000446	4.460229	1.511167	0.000179
 298	2.9552e+01	11.8360	64.329739	0.000456	4.561598	1.545511	0.000183
 299	2.9651e+01	11.8729	64.511411	0.000456	4.561598	1.545511	0.000183
 300	2.9750e+01	11.8938	64.741527	0.000578	5.778024	1.957648	0.000231
 301	2.9850e+01	11.9403	64.911087	0.000426	4.257492	1.442477	0.000170
 302	2.9950e+01	11.9868	65.129092	0.000547	5.473918	1.854614	0.000219
 303	3.0049e+01	12.0221	65.302689	0.000436	4.358860	1.476822	0.000174
 304	3.0148e+01	12.0606	65.480323	0.000446	4.460229	1.511167	0.000179
 305	3.0248e+01	12.1039	65.710440	0.000578	5.778024	1.957648	0.000231
 306	3.0348e+01	12.1489	65.928445	0.000547	5.473918	1.854614	0.000219
 307	3.0447e+01	12.1825	66.085893	0.000395	3.953385	1.339443	0.000158
 308	3.0547e+01	12.2243	66.283713	0.000497	4.967074	1.682890	0.000199
 309	3.0646e+01	12.2612	66.525941	0.000608	6.082131	2.060682	0.000243
 310	3.0745e+01	12.2980	66.651092	0.000314	3.142434	1.064686	0.000126
 311	3.0845e+01	12.3430	66.873135	0.000558	5.575287	1.888958	0.000223
 312	3.0945e+01	12.3879	67.095177	0.000558	5.575287	1.888958	0.000223
 313	3.1044e+01	12.4248	67.280886	0.000466	4.662967	1.579856	0.000187
 314	3.1143e+01	12.4569	67.498891	0.000547	5.473918	1.854614	0.000219
 315	3.1243e+01	12.5050	67.668451	0.000426	4.257492	1.442477	0.000170
 316	3.1343e+01	12.5435	67.850122	0.000456	4.561598	1.545511	0.000183
 317	3.1442e+01	12.5900	68.092350	0.000608	6.082131	2.060682	0.000243
 318	3.1541e+01	12.6205	68.278058	0.000466	4.662967	1.579856	0.000187
 319	3.1641e+01	12.6670	68.455692	0.000446	4.460229	1.511167	0.000179
 320	3.1741e+01	12.6991	68.633326	0.000446	4.460229	1.511167	0.000179
 321	3.1840e+01	12.7264	68.855369	0.000558	5.575287	1.888958	0.000223
 322	3.1939e+01	12.7809	69.081448	0.000568	5.676655	1.923303	0.000227
 323	3.2039e+01	12.8130	69.222748	0.000355	3.547910	1.202064	0.000142
 324	3.2139e+01	12.8579	69.440753	0.000547	5.473918	1.854614	0.000219
 325	3.2238e+01	12.8980	69.602239	0.000405	4.054754	1.373788	0.000162
 326	3.2337e+01	12.9333	69.852541	0.000628	6.284869	2.129371	0.000252
 327	3.2437e+01	12.9798	70.022101	0.000426	4.257492	1.442477	0.000170
 328	3.2536e+01	13.0167	70.163401	0.000355	3.547910	1.202064	0.000142
 329	3.2636e+01	13.0504	70.377369	0.000537	5.372549	1.820269	0.000215
 330	3.2736e+01	13.1018	70.571151	0.000487	4.865705	1.648545	0.000195
 331	3.2835e+01	13.1483	70.773008	0.000507	5.068442	1.717235	0.000203
 332	3.2934e+01	13.1884	70.942568	0.000426	4.257492	1.442477	0.000170
 333	3.3034e+01	13.2157	71.176722	0.000588	5.879393	1.991992	0.000235
 334	3.3133e+01	13.2590	71.338207	0.000405	4.054754	1.373788	0.000162
 335	3.3233e+01	13.2975	71.499692	0.000405	4.054754	1.373788	0.000162
 336	3.3333e+01	13.3312	71.717698	0.000547	5.473918	1.854614	0.000219
 337	3.3432e+01	13.3809	71.923592	0.000517	5.169811	1.751579	0.000207
 338	3.3532e+01	13.4114	72.097189	0.000436	4.358860	1.476822	0.000174
 339	3.3631e+01	13.4595	72.282897	0.000466	4.662967	1.579856	0.000187
 340	3.3730e+01	13.5044	72.492828	0.000527	5.271180	1.785924	0.000211
 341	3.3830e+01	13.5269	72.674499	0.000456	4.561598	1.545511	0.000183
 342	3.3929e+01	13.5830	72.884430	0.000527	5.271180	1.785924	0.000211
 343	3.4029e+01	13.6151	73.086287	0.000507	5.068442	1.717235	0.000203
 344	3.4129e+01	13.6600	73.235661	0.000375	3.750647	1.270754	0.000150
 345	3.4228e+01	13.6953	73.437518	0.000507	5.068442	1.717235	0.000203
 346	3.4328e+01	13.7306	73.623226	0.000466	4.662967	1.579856	0.000187
 347	3.4427e+01	13.7659	73.792786	0.000426	4.257492	1.442477	0.000170
 348	3.4526e+01	13.8108	74.002717	0.000527	5.271180	1.785924	0.000211
 349	3.4626e+01	13.8509	74.152091	0.000375	3.750647	1.270754	0.000150
 350	3.4725e+01	13.9007	74.390282	0.000598	5.980762	2.026337	0.000239
 351	3.4825e+01	13.9408	74.592138	0.000507	5.068442	1.717235	0.000203
 352	3.4925e+01	13.9857	74.737475	0.000365	3.649279	1.236409	0.000146
 353	3.5024e+01	14.0114	74.931258	0.000487	4.865705	1.648545	0.000195
 354	3.5123e+01	14.0563	75.133115	0.000507	5.068442	1.717235	0.000203
 355	3.5223e+01	14.0980	75.359194	0.000568	5.676655	1.923303	0.000227
 356	3.5322e+01	14.1397	75.488383	0.000324	3.243803	1.099030	0.000130
 357	3.5422e+01	14.1782	75.714462	0.000568	5.676655	1.923303	0.000227
 358	3.5522e+01	14.2007	75.855762	0.000355	3.547910	1.202064	0.000142
 359	3.5621e+01	14.2568	76.065693	0.000527	5.271180	1.785924	0.000211
 360	3.5721e+01	14.2873	76.247364	0.000456	4.561598	1.545511	0.000183
 361	3.5820e+01	14.3322	76.412887	0.000416	4.156123	1.408133	0.000166
 362	3.5919e+01	14.3659	76.586484	0.000436	4.358860	1.476822	0.000174
 363	3.6019e+01	14.4124	76.768155	0.000456	4.561598	1.545511	0.000183
 364	3.6118e+01	14.4557	76.974049	0.000517	5.169811	1.751579	0.000207
 365	3.6218e+01	14.5007	77.208202	0.000588	5.879393	1.991992	0.000235
 366	3.6318e+01	14.5360	77.365651	0.000395	3.953385	1.339443	0.000158
 367	3.6417e+01	14.5632	77.539248	0.000436	4.358860	1.476822	0.000174
 368	3.6517e+01	14.6130	77.700733	0.000405	4.054754	1.373788	0.000162
 369	3.6616e+01	14.6531	77.914701	0.000537	5.372549	1.820269	0.000215
 370	3.6715e+01	14.6916	78.096372	0.000456	4.561598	1.545511	0.000183
 371	3.6815e+01	14.7333	78.282081	0.000466	4.662967	1.579856	0.000187
 372	3.6914e+01	14.7766	78.435492	0.000385	3.852016	1.305098	0.000154
 373	3.7014e+01	14.8167	78.653497	0.000547	5.473918	1.854614	0.000219
 374	3.7114e+01	14.8552	78.831131	0.000446	4.460229	1.511167	0.000179
 375	3.7213e+01	14.8969	79.004728	0.000436	4.358860	1.476822	0.000174
 376	3.7313e+01	14.9386	79.222733	0.000547	5.473918	1.854614	0.000219
 377	3.7412e+01	14.9739	79.384219	0.000405	4.054754	1.373788	0.000162
 378	3.7511e+01	15.0172	79.582038	0.000497	4.967074	1.682890	0.000199
 379	3.7611e+01	15.0670	79.755635	0.000436	4.358860	1.476822	0.000174
 380	3.7711e+01	15.0862	79.937306	0.000456	4.561598	1.545511	0.000183
 381	3.7810e+01	15.1359	80.110903	0.000436	4.358860	1.476822	0.000174
 382	3.7910e+01	15.1728	80.324871	0.000537	5.372549	1.820269	0.000215
 383	3.8009e+01	15.2049	80.462134	0.000345	3.446541	1.167720	0.000138
 384	3.8108e+01	15.2450	80.680139	0.000547	5.473918	1.854614	0.000219
 385	3.8208e+01	15.2915	80.857773	0.000446	4.460229	1.511167	0.000179
 386	3.8307e+01	15.3365	81.047519	0.000476	4.764336	1.614201	0.000191
 387	3.8407e+01	15.3798	81.245338	0.000497	4.967074	1.682890	0.000199
 388	3.8507e+01	15.4151	81.418935	0.000436	4.358860	1.476822	0.000174
 389	3.8606e+01	15.4472	81.584458	0.000416	4.156123	1.408133	0.000166
 390	3.8706e+01	15.4841	81.733832	0.000375	3.750647	1.270754	0.000150
 391	3.8805e+01	15.5322	81.947800	0.000537	5.372549	1.820269	0.000215
 392	3.8904e+01	15.5707	82.157731	0.000527	5.271180	1.785924	0.000211
 393	3.9004e+01	15.6060	82.299031	0.000355	3.547910	1.202064	0.000142
 394	3.9103e+01	15.6413	82.496850	0.000497	4.967074	1.682890	0.000199
 395	3.9203e+01	15.6878	82.662373	0.000416	4.156123	1.408133	0.000166
 396	3.9303e+01	15.7343	82.835970	0.000436	4.358860	1.476822	0.000174
 397	3.9402e+01	15.7696	83.025715	0.000476	4.764336	1.614201	0.000191
 398	3.9502e+01	15.8081	83.195275	0.000426	4.257492	1.442477	0.000170
 399	3.9601e+01	15.8562	83.368872	0.000436	4.358860	1.476822	0.000174
 400	3.9700e+01	15.8899	83.546506	0.000446	4.460229	1.511167	0.000179
 401	3.9800e+01	15.9332	83.736251	0.000476	4.764336	1.614201	0.000191
 402	3.9900e+01	15.9669	83.917922	0.000456	4.561598	1.545511	0.000183
 403	3.9999e+01	16.0086	84.087482	0.000426	4.257492	1.442477	0.000170
 404	4.0099e+01	16.0503	84.212633	0.000314	3.142434	1.064686	0.000126
 405	4.0198e+01	16.0937	84.418527	0.000517	5.169811	1.751579	0.000207
 406	4.0297e+01	16.1370	84.612309	0.000487	4.865705	1.648545	0.000195
 407	4.0397e+01	16.1723	84.798018	0.000466	4.662967	1.579856	0.000187
 408	4.0496e+01	16.2076	84.955466	0.000395	3.953385	1.339443	0.000158
 409	4.0596e+01	16.2541	85.120988	0.000416	4.156123	1.408133	0.000166
 410	4.0696e+01	16.2878	85.326882	0.000517	5.169811	1.751579	0.000207
 411	4.0795e+01	16.3247	85.480294	0.000385	3.852016	1.305098	0.000154
 412	4.0895e+01	16.3616	85.690225	0.000527	5.271180	1.785924	0.000211
 413	4.0994e+01	16.4081	85.839599	0.000375	3.750647	1.270754	0.000150
 414	4.1093e+01	16.4482	86.013195	0.000436	4.358860	1.476822	0.000174
 415	4.1193e+01	16.4867	86.211015	0.000497	4.967074	1.682890	0.000199
 416	4.1292e+01	16.5284	86.368463	0.000395	3.953385	1.339443	0.000158
 417	4.1392e+01	16.5621	86.562246	0.000487	4.865705	1.648545	0.000195
 418	4.1492e+01	16.6038	86.723731	0.000405	4.054754	1.373788	0.000162
 419	4.1591e+01	16.6519	86.921551	0.000497	4.967074	1.682890	0.000199
 420	4.1691e+01	16.6824	87.078999	0.000395	3.953385	1.339443	0.000158
 421	4.1790e+01	16.7177	87.252596	0.000436	4.358860	1.476822	0.000174
 422	4.1889e+01	16.7739	87.434267	0.000456	4.561598	1.545511	0.000183
 423	4.1989e+01	16.8027	87.587678	0.000385	3.852016	1.305098	0.000154
 424	4.2089e+01	16.8525	87.793572	0.000517	5.169811	1.751579	0.000207
 425	4.2188e+01	16.8813	87.983318	0.000476	4.764336	1.614201	0.000191
 426	4.2288e+01	16.9231	88.100395	0.000294	2.939697	0.995996	0.000118
 427	4.2387e+01	16.9632	88.326474	0.000568	5.676655	1.923303	0.000227
 428	4.2486e+01	17.0017	88.487960	0.000405	4.054754	1.373788	0.000162
 429	4.2586e+01	17.0466	88.681742	0.000487	4.865705	1.648545	0.000195
 430	4.2685e+01	17.0899	88.823042	0.000355	3.547910	1.202064	0.000142
 431	4.2785e+01	17.1268	89.008750	0.000466	4.662967	1.579856	0.000187
 432	4.2885e+01	17.1701	89.210607	0.000507	5.068442	1.717235	0.000203
 433	4.2984e+01	17.2054	89.331721	0.000304	3.041065	1.030341	0.000122
 434	4.3084e+01	17.2471	89.517429	0.000466	4.662967	1.579856	0.000187
 435	4.3183e+01	17.2872	89.699100	0.000456	4.561598	1.545511	0.000183
 436	4.3282e+01	17.3113	89.884809	0.000466	4.662967	1.579856	0.000187
 437	4.3382e+01	17.3674	90.054368	0.000426	4.257492	1.442477	0.000170
 438	4.3481e+01	17.3915	90.256225	0.000507	5.068442	1.717235	0.000203
 439	4.3581e+01	17.4492	90.417711	0.000405	4.054754	1.373788	0.000162
 440	4.3681e+01	17.4765	90.567085	0.000375	3.750647	1.270754	0.000150
 441	4.3780e+01	17.5214	90.764904	0.000497	4.967074	1.682890	0.000199
 442	4.3880e+01	17.5599	90.950612	0.000466	4.662967	1.579856	0.000187
 443	4.3979e+01	17.6049	91.132284	0.000456	4.561598	1.545511	0.000183
 444	4.4078e+01	17.6385	91.241286	0.000274	2.736959	0.927307	0.000110
 445	4.4178e+01	17.6802	91.463329	0.000558	5.575287	1.888958	0.000223
 446	4.4278e+01	17.7316	91.612703	0.000375	3.750647	1.270754	0.000150
 447	4.4377e+01	17.7637	91.798411	0.000466	4.662967	1.579856	0.000187
 448	4.4477e+01	17.7974	91.972008	0.000436	4.358860	1.476822	0.000174
 449	4.4576e+01	17.8327	92.109270	0.000345	3.446541	1.167720	0.000138
 450	4.4675e+01	17.8760	92.331313	0.000558	5.575287	1.888958	0.000223
 451	4.4775e+01	17.9161	92.472613	0.000355	3.547910	1.202064	0.000142
 452	4.4874e+01	17.9610	92.670432	0.000497	4.967074	1.682890	0.000199
 453	4.4974e+01	18.0027	92.852103	0.000456	4.561598	1.545511	0.000183
 454	4.5074e+01	18.0444	92.985329	0.000335	3.345172	1.133375	0.000134
 455	4.5173e+01	18.0765	93.191223	0.000517	5.169811	1.751579	0.000207
 456	4.5273e+01	18.1182	93.316374	0.000314	3.142434	1.064686	0.000126
 457	4.5372e+01	18.1599	93.518231	0.000507	5.068442	1.717235	0.000203
 458	4.5471e+01	18.2048	93.712013	0.000487	4.865705	1.648545	0.000195
 459	4.5571e+01	18.2498	93.857350	0.000365	3.649279	1.236409	0.000146
 460	4.5670e+01	18.2850	94.014798	0.000395	3.953385	1.339443	0.000158
 461	4.5770e+01	18.3139	94.220692	0.000517	5.169811	1.751579	0.000207
 462	4.5870e+01	18.3572	94.345844	0.000314	3.142434	1.064686	0.000126
 463	4.5969e+01	18.4006	94.559812	0.000537	5.372549	1.820269	0.000215
 464	4.6069e+01	18.4310	94.753594	0.000487	4.865705	1.648545	0.000195
 465	4.6168e+01	18.4808	94.870671	0.000294	2.939697	0.995996	0.000118
 466	4.6267e+01	18.5257	95.072528	0.000507	5.068442	1.717235	0.000203
 467	4.6367e+01	18.5562	95.221902	0.000375	3.750647	1.270754	0.000150
 468	4.6467e+01	18.5931	95.383388	0.000405	4.054754	1.373788	0.000162
 469	4.6566e+01	18.6348	95.597356	0.000537	5.372549	1.820269	0.000215
 470	4.6666e+01	18.6733	95.730581	0.000335	3.345172	1.133375	0.000134
 471	4.6765e+01	18.7230	95.908215	0.000446	4.460229	1.511167	0.000179
 472	4.6864e+01	18.7551	96.077775	0.000426	4.257492	1.442477	0.000170
 473	4.6964e+01	18.7920	96.206963	0.000324	3.243803	1.099030	0.000130
 474	4.7063e+01	18.8353	96.404783	0.000497	4.967074	1.682890	0.000199
 475	4.7163e+01	18.8738	96.566268	0.000405	4.054754	1.373788	0.000162
 476	4.7263e+01	18.9139	96.768125	0.000507	5.068442	1.717235	0.000203
 477	4.7362e+01	18.9492	96.953833	0.000466	4.662967	1.579856	0.000187
 478	4.7462e+01	18.9957	97.078985	0.000314	3.142434	1.064686	0.000126
 479	4.7561e+01	19.0374	97.296990	0.000547	5.473918	1.854614	0.000219
 480	4.7660e+01	19.0823	97.446364	0.000375	3.750647	1.270754	0.000150
 481	4.7760e+01	19.1160	97.648221	0.000507	5.068442	1.717235	0.000203
 482	4.7859e+01	19.1577	97.797595	0.000375	3.750647	1.270754	0.000150
 483	4.7959e+01	19.2011	97.971192	0.000436	4.358860	1.476822	0.000174
 484	4.8059e+01	19.2428	98.156900	0.000466	4.662967	1.579856	0.000187
 485	4.8158e+01	19.2733	98.330497	0.000436	4.358860	1.476822	0.000174
 486	4.8258e+01	19.3198	98.512168	0.000456	4.561598	1.545511	0.000183
 487	4.8357e+01	19.3551	98.649430	0.000345	3.446541	1.167720	0.000138
 488	4.8456e+01	19.3936	98.847250	0.000497	4.967074	1.682890	0.000199
 489	4.8556e+01	19.4401	99.045070	0.000497	4.967074	1.682890	0.000199
 490	4.8656e+01	19.4786	99.206555	0.000405	4.054754	1.373788	0.000162
 491	4.8755e+01	19.5267	99.331706	0.000314	3.142434	1.064686	0.000126
 492	4.8855e+01	19.5556	99.541637	0.000527	5.271180	1.785924	0.000211
 493	4.8954e+01	19.5941	99.703123	0.000405	4.054754	1.373788	0.000162
 494	4.9053e+01	19.6342	99.900942	0.000497	4.967074	1.682890	0.000199
 495	4.9153e+01	19.6695	100.038205	0.000345	3.446541	1.167720	0.000138
 496	4.9252e+01	19.7096	100.203728	0.000416	4.156123	1.408133	0.000166
 497	4.9352e+01	19.7497	100.389436	0.000466	4.662967	1.579856	0.000187
 498	4.9452e+01	19.7946	100.542847	0.000385	3.852016	1.305098	0.000154
 499	4.9551e+01	19.8267	100.736630	0.000487	4.865705	1.648545	0.000195
 500	4.9651e+01	19.8716	100.869855	0.000335	3.345172	1.133375	0.000134
 501	4.9750e+01	19.9069	101.079786	0.000527	5.271180	1.785924	0.000211
 502	4.9849e+01	19.9599	101.225123	0.000365	3.649279	1.236409	0.000146
 503	4.9949e+01	19.9855	101.422943	0.000497	4.967074	1.682890	0.000199
 504	5.0048e+01	19.9486	101.297791	0.000314	3.142434	1.064686	-0.000126
 505	5.0148e+01	19.9101	101.196863	0.000253	2.534221	0.858617	-0.000101
 506	5.0248e+01	19.8732	101.091897	0.000264	2.635590	0.892962	-0.000105
 507	5.0347e+01	19.8347	100.966746	0.000314	3.142434	1.064686	-0.000126
 508	5.0447e+01	19.7978	100.865818	0.000253	2.534221	0.858617	-0.000101
 509	5.0546e+01	19.7577	100.740667	0.000314	3.142434	1.064686	-0.000126
 510	5.0645e+01	19.7224	100.611478	0.000324	3.243803	1.099030	-0.000130
 511	5.0745e+01	19.6663	100.502476	0.000274	2.736959	0.927307	-0.000110
 512	5.0844e+01	19.6358	100.385399	0.000294	2.939697	0.995996	-0.000118
 513	5.0944e+01	19.5893	100.300619	0.000213	2.128746	0.721239	-0.000085
 514	5.1044e+01	19.5588	100.159319	0.000355	3.547910	1.202064	-0.000142
 515	5.1143e+01	19.5123	100.058391	0.000253	2.534221	0.858617	-0.000101
 516	5.1242e+01	19.4754	99.872682	0.000466	4.662967	1.579856	-0.000187
 517	5.1342e+01	19.4433	99.767717	0.000264	2.635590	0.892962	-0.000105
 518	5.1441e+01	19.4000	99.678900	0.000223	2.230115	0.755583	-0.000089
 519	5.1541e+01	19.3583	99.553749	0.000314	3.142434	1.064686	-0.000126
 520	5.1641e+01	19.3118	99.432635	0.000304	3.041065	1.030341	-0.000122
 521	5.1740e+01	19.2684	99.307483	0.000314	3.142434	1.064686	-0.000126
 522	5.1840e+01	19.2412	99.158109	0.000375	3.750647	1.270754	-0.000150
 523	5.1939e+01	19.2043	99.004698	0.000385	3.852016	1.305098	-0.000154
 524	5.2038e+01	19.1497	98.907807	0.000243	2.432852	0.824273	-0.000097
 525	5.2138e+01	19.1176	98.782656	0.000314	3.142434	1.064686	-0.000126
 526	5.2237e+01	19.0775	98.665579	0.000294	2.939697	0.995996	-0.000118
 527	5.2337e+01	19.0390	98.532353	0.000335	3.345172	1.133375	-0.000134
 528	5.2437e+01	18.9957	98.350682	0.000456	4.561598	1.545511	-0.000183
 529	5.2536e+01	18.9620	98.237642	0.000284	2.838328	0.961651	-0.000114
 530	5.2636e+01	18.9203	98.092306	0.000365	3.649279	1.236409	-0.000146
 531	5.2735e+01	18.8818	97.963117	0.000324	3.243803	1.099030	-0.000130
 532	5.2834e+01	18.8449	97.842003	0.000304	3.041065	1.030341	-0.000122
 533	5.2934e+01	18.8016	97.712815	0.000324	3.243803	1.099030	-0.000130
 534	5.3033e+01	18.7567	97.559404	0.000385	3.852016	1.305098	-0.000154
 535	5.3133e+01	18.7246	97.450401	0.000274	2.736959	0.927307	-0.000110
 536	5.3233e+01	18.6733	97.333324	0.000294	2.939697	0.995996	-0.000118
 537	5.3332e+01	18.6332	97.192024	0.000355	3.547910	1.202064	-0.000142
 538	5.3431e+01	18.5995	97.022465	0.000426	4.257492	1.442477	-0.000170
 539	5.3531e+01	18.5513	96.873091	0.000375	3.750647	1.270754	-0.000150
 540	5.3630e+01	18.5225	96.792348	0.000203	2.027377	0.686894	-0.000081
 541	5.3730e+01	18.4711	96.590491	0.000507	5.068442	1.717235	-0.000203
 542	5.3830e+01	18.4455	96.497637	0.000233	2.331483	0.789928	-0.000093
 543	5.3929e+01	18.4006	96.376523	0.000304	3.041065	1.030341	-0.000122
 544	5.4029e+01	18.3556	96.227149	0.000375	3.750647	1.270754	-0.000150
 545	5.4128e+01	18.3171	96.073738	0.000385	3.852016	1.305098	-0.000154
 546	5.4227e+01	18.2866	95.904178	0.000426	4.257492	1.442477	-0.000170
 547	5.4327e+01	18.2433	95.783064	0.000304	3.041065	1.030341	-0.000122
 548	5.4426e+01	18.2016	95.674061	0.000274	2.736959	0.927307	-0.000110
 549	5.4526e+01	18.1599	95.504502	0.000426	4.257492	1.442477	-0.000170
 550	5.4626e+01	18.1102	95.371276	0.000335	3.345172	1.133375	-0.000134
 551	5.4725e+01	18.0781	95.274385	0.000243	2.432852	0.824273	-0.000097
 552	5.4825e+01	18.0444	95.141159	0.000335	3.345172	1.133375	-0.000134
 553	5.4924e+01	18.0011	94.967563	0.000436	4.358860	1.476822	-0.000174
 554	5.5023e+01	17.9530	94.846448	0.000304	3.041065	1.030341	-0.000122
 555	5.5123e+01	17.9177	94.705149	0.000355	3.547910	1.202064	-0.000142
 556	5.5222e+01	17.8776	94.547700	0.000395	3.953385	1.339443	-0.000158
 557	5.5322e+01	17.8439	94.410438	0.000345	3.446541	1.167720	-0.000138
 558	5.5422e+01	17.7942	94.289324	0.000304	3.041065	1.030341	-0.000122
 559	5.5521e+01	17.7653	94.115727	0.000436	4.358860	1.476822	-0.000174
 560	5.5620e+01	17.7252	93.994613	0.000304	3.041065	1.030341	-0.000122
 561	5.5720e+01	17.6835	93.849276	0.000365	3.649279	1.236409	-0.000146
 562	5.5819e+01	17.6466	93.707976	0.000355	3.547910	1.202064	-0.000142
 563	5.5919e+01	17.6000	93.554565	0.000385	3.852016	1.305098	-0.000154
 564	5.6019e+01	17.5647	93.397117	0.000395	3.953385	1.339443	-0.000158
 565	5.6118e+01	17.5198	93.271966	0.000314	3.142434	1.064686	-0.000126
 566	5.6218e+01	17.4845	93.122592	0.000375	3.750647	1.270754	-0.000150
 567	5.6317e+01	17.4428	92.953032	0.000426	4.257492	1.442477	-0.000170
 568	5.6416e+01	17.3915	92.823843	0.000324	3.243803	1.099030	-0.000130
 569	5.6516e+01	17.3642	92.666395	0.000395	3.953385	1.339443	-0.000158
 570	5.6615e+01	17.3209	92.593727	0.000182	1.824639	0.618205	-0.000073
 571	5.6715e+01	17.2808	92.395907	0.000497	4.967074	1.682890	-0.000199
 572	5.6815e+01	17.2503	92.222310	0.000436	4.358860	1.476822	-0.000174
 573	5.6914e+01	17.2022	92.076973	0.000365	3.649279	1.236409	-0.000146
 574	5.7014e+01	17.1669	91.976045	0.000253	2.534221	0.858617	-0.000101
 575	5.7113e+01	17.1204	91.826671	0.000375	3.750647	1.270754	-0.000150
 576	5.7212e+01	17.0867	91.693445	0.000335	3.345172	1.133375	-0.000134
 577	5.7312e+01	17.0450	91.527923	0.000416	4.156123	1.408133	-0.000166
 578	5.7411e+01	17.0049	91.374512	0.000385	3.852016	1.305098	-0.000154
 579	5.7511e+01	16.9664	91.196878	0.000446	4.460229	1.511167	-0.000179
 580	5.7611e+01	16.9214	91.035392	0.000405	4.054754	1.373788	-0.000162
 581	5.7710e+01	16.8781	90.918315	0.000294	2.939697	0.995996	-0.000118
 582	5.7809e+01	16.8444	90.768941	0.000375	3.750647	1.270754	-0.000150
 583	5.7909e+01	16.7995	90.611493	0.000395	3.953385	1.339443	-0.000158
 584	5.8008e+01	16.7690	90.478268	0.000335	3.345172	1.133375	-0.000134
 585	5.8108e+01	16.7305	90.304671	0.000436	4.358860	1.476822	-0.000174
 586	5.8208e+01	16.6904	90.199705	0.000264	2.635590	0.892962	-0.000105
 587	5.8307e+01	16.6391	90.038220	0.000405	4.054754	1.373788	-0.000162
 588	5.8407e+01	16.6022	89.856549	0.000456	4.561598	1.545511	-0.000183
 589	5.8506e+01	16.5653	89.727360	0.000324	3.243803	1.099030	-0.000130
 590	5.8605e+01	16.5188	89.586061	0.000355	3.547910	1.202064	-0.000142
 591	5.8705e+01	16.4835	89.444761	0.000355	3.547910	1.202064	-0.000142
 592	5.8804e+01	16.4466	89.242904	0.000507	5.068442	1.717235	-0.000203
 593	5.8904e+01	16.4001	89.125827	0.000294	2.939697	0.995996	-0.000118
 594	5.9004e+01	16.3568	88.952230	0.000436	4.358860	1.476822	-0.000174
 595	5.9103e+01	16.3215	88.823042	0.000324	3.243803	1.099030	-0.000130
 596	5.9203e+01	16.2894	88.689816	0.000335	3.345172	1.133375	-0.000134
 597	5.9302e+01	16.2461	88.524294	0.000416	4.156123	1.408133	-0.000166
 598	5.9401e+01	16.2044	88.354734	0.000426	4.257492	1.442477	-0.000170
 599	5.9501e+01	16.1707	88.205360	0.000375	3.750647	1.270754	-0.000150
 600	5.9600e+01	16.1225	88.060023	0.000365	3.649279	1.236409	-0.000146
 601	5.9700e+01	16.0889	87.918724	0.000355	3.547910	1.202064	-0.000142
 602	5.9800e+01	16.0487	87.789535	0.000324	3.243803	1.099030	-0.000130
 603	5.9899e+01	16.0022	87.624013	0.000416	4.156123	1.408133	-0.000166
 604	5.9998e+01	15.9733	87.422156	0.000507	5.068442	1.717235	-0.000203
 605	6.0098e+01	15.9284	87.313153	0.000274	2.736959	0.927307	-0.000110
 606	6.0197e+01	15.8787	87.119371	0.000487	4.865705	1.648545	-0.000195
 607	6.0297e+01	15.8514	86.974034	0.000365	3.649279	1.236409	-0.000146
 608	6.0397e+01	15.8097	86.856957	0.000294	2.939697	0.995996	-0.000118
 609	6.0496e+01	15.7776	86.663174	0.000487	4.865705	1.648545	-0.000195
 610	6.0596e+01	15.7247	86.558209	0.000264	2.635590	0.892962	-0.000105
 611	6.0695e+01	15.6878	86.404798	0.000385	3.852016	1.305098	-0.000154
 612	6.0794e+01	15.6573	86.215052	0.000476	4.764336	1.614201	-0.000191
 613	6.0894e+01	15.5996	86.102012	0.000284	2.838328	0.961651	-0.000114
 614	6.0993e+01	15.5739	85.916304	0.000466	4.662967	1.579856	-0.000187
 615	6.1093e+01	15.5322	85.799227	0.000294	2.939697	0.995996	-0.000118
 616	6.1193e+01	15.4841	85.581222	0.000547	5.473918	1.854614	-0.000219
 617	6.1292e+01	15.4520	85.435885	0.000365	3.649279	1.236409	-0.000146
 618	6.1392e+01	15.4103	85.282474	0.000385	3.852016	1.305098	-0.000154
 619	6.1491e+01	15.3798	85.149248	0.000335	3.345172	1.133375	-0.000134
 620	6.1590e+01	15.3236	85.003912	0.000365	3.649279	1.236409	-0.000146
 621	6.1690e+01	15.2899	84.866649	0.000345	3.446541	1.167720	-0.000138
 622	6.1789e+01	15.2418	84.648644	0.000547	5.473918	1.854614	-0.000219
 623	6.1889e+01	15.2145	84.531567	0.000294	2.939697	0.995996	-0.000118
 624	6.1989e+01	15.1825	84.345858	0.000466	4.662967	1.579856	-0.000187
 625	6.2088e+01	15.1327	84.204559	0.000355	3.547910	1.202064	-0.000142
 626	6.2188e+01	15.0894	84.051147	0.000385	3.852016	1.305098	-0.000154
 627	6.2287e+01	15.0477	83.901773	0.000375	3.750647	1.270754	-0.000150
 628	6.2386e+01	15.0172	83.728177	0.000436	4.358860	1.476822	-0.000174
 629	6.2486e+01	14.9691	83.574765	0.000385	3.852016	1.305098	-0.000154
 630	6.2586e+01	14.9306	83.413280	0.000405	4.054754	1.373788	-0.000162
 631	6.2685e+01	14.8921	83.267943	0.000365	3.649279	1.236409	-0.000146
 632	6.2785e+01	14.8520	83.110495	0.000395	3.953385	1.339443	-0.000158
 633	6.2884e+01	14.8119	82.932861	0.000446	4.460229	1.511167	-0.000179
 634	6.2983e+01	14.7622	82.759264	0.000436	4.358860	1.476822	-0.000174
 635	6.3083e+01	14.7381	82.626039	0.000335	3.345172	1.133375	-0.000134
 636	6.3182e+01	14.6932	82.484739	0.000355	3.547910	1.202064	-0.000142
 637	6.3282e+01	14.6499	82.299031	0.000466	4.662967	1.579856	-0.000187
 638	6.3382e+01	14.6097	82.133508	0.000416	4.156123	1.408133	-0.000166
 639	6.3481e+01	14.5889	81.963948	0.000426	4.257492	1.442477	-0.000170
 640	6.3581e+01	14.5376	81.822649	0.000355	3.547910	1.202064	-0.000142
 641	6.3680e+01	14.4862	81.616755	0.000517	5.169811	1.751579	-0.000207
 642	6.3779e+01	14.4541	81.507752	0.000274	2.736959	0.927307	-0.000110
 643	6.3879e+01	14.4028	81.350304	0.000395	3.953385	1.339443	-0.000158
 644	6.3978e+01	14.3932	81.184781	0.000416	4.156123	1.408133	-0.000166
 645	6.4078e+01	14.3274	81.059630	0.000314	3.142434	1.064686	-0.000126
 646	6.4177e+01	14.2921	80.837587	0.000558	5.575287	1.888958	-0.000223
 647	6.4277e+01	14.2504	80.716473	0.000304	3.041065	1.030341	-0.000122
 648	6.4376e+01	14.2119	80.567099	0.000375	3.750647	1.270754	-0.000150
 649	6.4476e+01	14.1750	80.458097	0.000274	2.736959	0.927307	-0.000110
 650	6.4576e+01	14.1317	80.236054	0.000558	5.575287	1.888958	-0.000223
 651	6.4675e+01	14.0932	80.070532	0.000416	4.156123	1.408133	-0.000166
 652	6.4775e+01	14.0595	79.925195	0.000365	3.649279	1.236409	-0.000146
 653	6.4874e+01	14.0162	79.787932	0.000345	3.446541	1.167720	-0.000138
 654	6.4974e+01	13.9809	79.610298	0.000446	4.460229	1.511167	-0.000179
 655	6.5073e+01	13.9472	79.436701	0.000436	4.358860	1.476822	-0.000174
 656	6.5172e+01	13.8975	79.283290	0.000385	3.852016	1.305098	-0.000154
 657	6.5272e+01	13.8558	79.113730	0.000426	4.257492	1.442477	-0.000170
 658	6.5371e+01	13.8205	78.992616	0.000304	3.041065	1.030341	-0.000122
 659	6.5471e+01	13.7755	78.802871	0.000476	4.764336	1.614201	-0.000191
 660	6.5570e+01	13.7338	78.629274	0.000436	4.358860	1.476822	-0.000174
 661	6.5670e+01	13.6953	78.496049	0.000335	3.345172	1.133375	-0.000134
 662	6.5769e+01	13.6536	78.334563	0.000405	4.054754	1.373788	-0.000162
 663	6.5869e+01	13.6231	78.152892	0.000456	4.561598	1.545511	-0.000183
 664	6.5969e+01	13.5782	77.967184	0.000466	4.662967	1.579856	-0.000187
 665	6.6068e+01	13.5365	77.821847	0.000365	3.649279	1.236409	-0.000146
 666	6.6168e+01	13.4996	77.640176	0.000456	4.561598	1.545511	-0.000183
 667	6.6267e+01	13.4499	77.531173	0.000274	2.736959	0.927307	-0.000110
 668	6.6367e+01	13.4178	77.297019	0.000588	5.879393	1.991992	-0.000235
 669	6.6466e+01	13.3793	77.163794	0.000335	3.345172	1.133375	-0.000134
 670	6.6566e+01	13.3392	77.002308	0.000405	4.054754	1.373788	-0.000162
 671	6.6665e+01	13.2943	76.840823	0.000405	4.054754	1.373788	-0.000162
 672	6.6764e+01	13.2542	76.687412	0.000385	3.852016	1.305098	-0.000154
 673	6.6864e+01	13.2205	76.525926	0.000405	4.054754	1.373788	-0.000162
 674	6.6963e+01	13.1659	76.320033	0.000517	5.169811	1.751579	-0.000207
 675	6.7063e+01	13.1355	76.182770	0.000345	3.446541	1.167720	-0.000138
 676	6.7162e+01	13.0954	76.041470	0.000355	3.547910	1.202064	-0.000142
 677	6.7262e+01	13.0536	75.847688	0.000487	4.865705	1.648545	-0.000195
 678	6.7362e+01	13.0119	75.686202	0.000405	4.054754	1.373788	-0.000162
 679	6.7461e+01	12.9734	75.520680	0.000416	4.156123	1.408133	-0.000166
 680	6.7561e+01	12.9381	75.351120	0.000426	4.257492	1.442477	-0.000170
 681	6.7660e+01	12.8980	75.209820	0.000355	3.547910	1.202064	-0.000142
 682	6.7760e+01	12.8579	75.028149	0.000456	4.561598	1.545511	-0.000183
 683	6.7859e+01	12.8242	74.874738	0.000385	3.852016	1.305098	-0.000154
 684	6.7959e+01	12.7873	74.689030	0.000466	4.662967	1.579856	-0.000187
 685	6.8058e+01	12.7440	74.511396	0.000446	4.460229	1.511167	-0.000179
 686	6.8157e+01	12.7023	74.362022	0.000375	3.750647	1.270754	-0.000150
 687	6.8257e+01	12.6670	74.204573	0.000395	3.953385	1.339443	-0.000158
 688	6.8356e+01	12.6269	74.055199	0.000375	3.750647	1.270754	-0.000150
 689	6.8456e+01	12.5740	73.829120	0.000568	5.676655	1.923303	-0.000227
 690	6.8555e+01	12.5499	73.716080	0.000284	2.838328	0.961651	-0.000114
 691	6.8655e+01	12.5034	73.522297	0.000487	4.865705	1.648545	-0.000195
 692	6.8754e+01	12.4585	73.336589	0.000466	4.662967	1.579856	-0.000187
 693	6.8854e+01	12.4168	73.199327	0.000345	3.446541	1.167720	-0.000138
 694	6.8954e+01	12.3799	73.041878	0.000395	3.953385	1.339443	-0.000158
 695	6.9053e+01	12.3446	72.864244	0.000446	4.460229	1.511167	-0.000179
 696	6.9153e+01	12.2980	72.678536	0.000466	4.662967	1.579856	-0.000187
 697	6.9252e+01	12.2660	72.508976	0.000426	4.257492	1.442477	-0.000170
 698	6.9352e+01	12.2226	72.303083	0.000517	5.169811	1.751579	-0.000207
 699	6.9451e+01	12.1858	72.141597	0.000405	4.054754	1.373788	-0.000162
 700	6.9550e+01	12.1521	72.012409	0.000324	3.243803	1.099030	-0.000130
 701	6.9650e+01	12.1120	71.850923	0.000405	4.054754	1.373788	-0.000162
 702	6.9749e+01	12.0670	71.657141	0.000487	4.865705	1.648545	-0.000195
 703	6.9849e+01	12.0334	71.463358	0.000487	4.865705	1.648545	-0.000195
 704	6.9948e+01	11.9692	71.305910	0.000395	3.953385	1.339443	-0.000158
 705	7.0048e+01	11.9451	71.124239	0.000456	4.561598	1.545511	-0.000183
 706	7.0147e+01	11.9066	70.934493	0.000476	4.764336	1.614201	-0.000191
 707	7.0247e+01	11.8601	70.781082	0.000385	3.852016	1.305098	-0.000154
 708	7.0347e+01	11.8168	70.627671	0.000385	3.852016	1.305098	-0.000154
 709	7.0446e+01	11.7863	70.409666	0.000547	5.473918	1.854614	-0.000219
 710	7.0546e+01	11.7414	70.308737	0.000253	2.534221	0.858617	-0.000101
 711	7.0645e+01	11.6997	70.110918	0.000497	4.967074	1.682890	-0.000199
 712	7.0745e+01	11.6740	69.949432	0.000405	4.054754	1.373788	-0.000162
 713	7.0844e+01	11.6275	69.751613	0.000497	4.967074	1.682890	-0.000199
 714	7.0944e+01	11.5810	69.569942	0.000456	4.561598	1.545511	-0.000183
 715	7.1043e+01	11.5441	69.416530	0.000385	3.852016	1.305098	-0.000154
 716	7.1142e+01	11.5120	69.267156	0.000375	3.750647	1.270754	-0.000150
 717	7.1242e+01	11.4687	69.069337	0.000497	4.967074	1.682890	-0.000199
 718	7.1341e+01	11.4286	68.915926	0.000385	3.852016	1.305098	-0.000154
 719	7.1441e+01	11.3901	68.746366	0.000426	4.257492	1.442477	-0.000170
 720	7.1540e+01	11.3435	68.540472	0.000517	5.169811	1.751579	-0.000207
 721	7.1640e+01	11.3163	68.362838	0.000446	4.460229	1.511167	-0.000179
 722	7.1740e+01	11.2665	68.193278	0.000426	4.257492	1.442477	-0.000170
 723	7.1839e+01	11.2280	67.999496	0.000487	4.865705	1.648545	-0.000195
 724	7.1939e+01	11.1911	67.878382	0.000304	3.041065	1.030341	-0.000122
 725	7.2038e+01	11.1526	67.640191	0.000598	5.980762	2.026337	-0.000239
 726	7.2138e+01	11.1109	67.502928	0.000345	3.446541	1.167720	-0.000138
 727	7.2237e+01	11.0692	67.309146	0.000487	4.865705	1.648545	-0.000195
 728	7.2337e+01	11.0387	67.127474	0.000456	4.561598	1.545511	-0.000183
 729	7.2436e+01	10.9938	66.974063	0.000385	3.852016	1.305098	-0.000154
 730	7.2535e+01	10.9441	66.804504	0.000426	4.257492	1.442477	-0.000170
 731	7.2635e+01	10.9056	66.586498	0.000547	5.473918	1.854614	-0.000219
 732	7.2734e+01	10.8687	66.396753	0.000476	4.764336	1.614201	-0.000191
 733	7.2834e+01	10.8238	66.223156	0.000436	4.358860	1.476822	-0.000174
 734	7.2933e+01	10.7837	66.053596	0.000426	4.257492	1.442477	-0.000170
 735	7.3033e+01	10.7580	65.863851	0.000476	4.764336	1.614201	-0.000191
 736	7.3132e+01	10.7131	65.682180	0.000456	4.561598	1.545511	-0.000183
 737	7.3232e+01	10.6649	65.512620	0.000426	4.257492	1.442477	-0.000170
 738	7.3332e+01	10.6313	65.355172	0.000395	3.953385	1.339443	-0.000158
 739	7.3431e+01	10.5927	65.169464	0.000466	4.662967	1.579856	-0.000187
 740	7.3531e+01	10.5510	65.003941	0.000416	4.156123	1.408133	-0.000166
 741	7.3630e+01	10.5141	64.777861	0.000568	5.676655	1.923303	-0.000227
 742	7.3730e+01	10.4724	64.616376	0.000405	4.054754	1.373788	-0.000162
 743	7.3829e+01	10.4259	64.434705	0.000456	4.561598	1.545511	-0.000183
 744	7.3928e+01	10.4018	64.240922	0.000487	4.865705	1.648545	-0.000195
 745	7.4028e+01	10.3505	64.026954	0.000537	5.372549	1.820269	-0.000215
 746	7.4127e+01	10.3184	63.869506	0.000395	3.953385	1.339443	-0.000158
 747	7.4227e+01	10.2879	63.663612	0.000517	5.169811	1.751579	-0.000207
 748	7.4326e+01	10.2254	63.490015	0.000436	4.358860	1.476822	-0.000174
 749	7.4426e+01	10.1965	63.356790	0.000335	3.345172	1.133375	-0.000134
 750	7.4525e+01	10.1516	63.134747	0.000558	5.575287	1.888958	-0.000223
 751	7.4625e+01	10.1067	62.973262	0.000405	4.054754	1.373788	-0.000162
 752	7.4725e+01	10.0666	62.759294	0.000537	5.372549	1.820269	-0.000215
 753	7.4824e+01	10.0265	62.581660	0.000446	4.460229	1.511167	-0.000179
 754	7.4924e+01	9.9944	62.404026	0.000446	4.460229	1.511167	-0.000179
 755	7.5023e+01	9.9559	62.218317	0.000466	4.662967	1.579856	-0.000187
 756	7.5123e+01	9.9142	62.032609	0.000466	4.662967	1.579856	-0.000187
 757	7.5222e+01	9.8676	61.867087	0.000416	4.156123	1.408133	-0.000166
 758	7.5322e+01	9.8356	61.685416	0.000456	4.561598	1.545511	-0.000183
 759	7.5421e+01	9.7874	61.503744	0.000456	4.561598	1.545511	-0.000183
 760	7.5520e+01	9.7634	61.305925	0.000497	4.967074	1.682890	-0.000199
 761	7.5620e+01	9.7136	61.071771	0.000588	5.879393	1.991992	-0.000235
 762	7.5719e+01	9.6719	60.926434	0.000365	3.649279	1.236409	-0.000146
 763	7.5819e+01	9.6366	60.773023	0.000385	3.852016	1.305098	-0.000154
 764	7.5918e+01	9.5997	60.567129	0.000517	5.169811	1.751579	-0.000207
 765	7.6018e+01	9.5612	60.369309	0.000497	4.967074	1.682890	-0.000199
 766	7.6118e+01	9.5099	60.179564	0.000476	4.764336	1.614201	-0.000191
 767	7.6217e+01	9.4618	59.989818	0.000476	4.764336	1.614201	-0.000191
 768	7.6317e+01	9.4473	59.791999	0.000497	4.967074	1.682890	-0.000199
 769	7.6416e+01	9.3976	59.606291	0.000466	4.662967	1.579856	-0.000187
 770	7.6516e+01	9.3527	59.424619	0.000456	4.561598	1.545511	-0.000183
 771	7.6615e+01	9.3174	59.230837	0.000487	4.865705	1.648545	-0.000195
 772	7.6715e+01	9.2741	59.049166	0.000456	4.561598	1.545511	-0.000183
 773	7.6814e+01	9.2292	58.835198	0.000537	5.372549	1.820269	-0.000215
 774	7.6913e+01	9.1923	58.681787	0.000385	3.852016	1.305098	-0.000154
 775	7.7013e+01	9.1473	58.496078	0.000466	4.662967	1.579856	-0.000187
 776	7.7112e+01	9.1185	58.290184	0.000517	5.169811	1.751579	-0.000207
 777	7.7212e+01	9.0816	58.144847	0.000365	3.649279	1.236409	-0.000146
 778	7.7311e+01	9.0382	57.955102	0.000476	4.764336	1.614201	-0.000191
 779	7.7411e+01	8.9837	57.724985	0.000578	5.778024	1.957648	-0.000231
 780	7.7510e+01	8.9580	57.502943	0.000558	5.575287	1.888958	-0.000223
 781	7.7610e+01	8.9083	57.369717	0.000335	3.345172	1.133375	-0.000134
 782	7.7710e+01	8.8762	57.155749	0.000537	5.372549	1.820269	-0.000215
 783	7.7809e+01	8.8345	56.986190	0.000426	4.257492	1.442477	-0.000170
 784	7.7909e+01	8.7928	56.772221	0.000537	5.372549	1.820269	-0.000215
 785	7.8008e+01	8.7591	56.594587	0.000446	4.460229	1.511167	-0.000179
 786	7.8108e+01	8.7190	56.380619	0.000537	5.372549	1.820269	-0.000215
 787	7.8207e+01	8.6725	56.190874	0.000476	4.764336	1.614201	-0.000191
 788	7.8306e+01	8.6388	56.037463	0.000385	3.852016	1.305098	-0.000154
 789	7.8406e+01	8.5987	55.815420	0.000558	5.575287	1.888958	-0.000223
 790	7.8505e+01	8.5586	55.621638	0.000487	4.865705	1.648545	-0.000195
 791	7.8605e+01	8.5153	55.444004	0.000446	4.460229	1.511167	-0.000179
 792	7.8704e+01	8.4752	55.225998	0.000547	5.473918	1.854614	-0.000219
 793	7.8804e+01	8.4286	55.048364	0.000446	4.460229	1.511167	-0.000179
 794	7.8903e+01	8.4094	54.850545	0.000497	4.967074	1.682890	-0.000199
 795	7.9003e+01	8.3484	54.656762	0.000487	4.865705	1.648545	-0.000195
 796	7.9103e+01	8.3179	54.467017	0.000476	4.764336	1.614201	-0.000191
 797	7.9202e+01	8.2843	54.269197	0.000497	4.967074	1.682890	-0.000199
 798	7.9302e+01	8.2265	54.039080	0.000578	5.778024	1.957648	-0.000231
 799	7.9401e+01	8.1976	53.869521	0.000426	4.257492	1.442477	-0.000170
 800	7.9501e+01	8.1607	53.671701	0.000497	4.967074	1.682890	-0.000199
 801	7.9600e+01	8.1238	53.441584	0.000578	5.778024	1.957648	-0.000231
 802	7.9700e+01	8.0725	53.267987	0.000436	4.358860	1.476822	-0.000174
 803	7.9799e+01	8.0404	53.090354	0.000446	4.460229	1.511167	-0.000179
 804	7.9898e+01	8.0067	52.872348	0.000547	5.473918	1.854614	-0.000219
 805	7.9998e+01	7.9618	52.682603	0.000476	4.764336	1.614201	-0.000191
 806	8.0097e+01	7.9105	52.460560	0.000558	5.575287	1.888958	-0.000223
 807	8.0197e+01	7.8784	52.286964	0.000436	4.358860	1.476822	-0.000174
 808	8.0296e+01	7.8399	52.056847	0.000578	5.778024	1.957648	-0.000231
 809	8.0396e+01	7.7982	51.879213	0.000446	4.460229	1.511167	-0.000179
 810	8.0496e+01	7.7629	51.721765	0.000395	3.953385	1.339443	-0.000158
 811	8.0595e+01	7.7196	51.499722	0.000558	5.575287	1.888958	-0.000223
 812	8.0695e+01	7.6811	51.301902	0.000497	4.967074	1.682890	-0.000199
 813	8.0794e+01	7.6345	51.116194	0.000466	4.662967	1.579856	-0.000187
 814	8.0894e+01	7.5960	50.894152	0.000558	5.575287	1.888958	-0.000223
 815	8.0993e+01	7.5495	50.676146	0.000547	5.473918	1.854614	-0.000219
 816	8.1093e+01	7.5206	50.514661	0.000405	4.054754	1.373788	-0.000162
 817	8.1192e+01	7.4837	50.312804	0.000507	5.068442	1.717235	-0.000203
 818	8.1291e+01	7.4436	50.102873	0.000527	5.271180	1.785924	-0.000211
 819	8.1391e+01	7.3987	49.921202	0.000456	4.561598	1.545511	-0.000183
 820	8.1490e+01	7.3538	49.715308	0.000517	5.169811	1.751579	-0.000207
 821	8.1590e+01	7.3121	49.537674	0.000446	4.460229	1.511167	-0.000179
 822	8.1689e+01	7.2768	49.347929	0.000476	4.764336	1.614201	-0.000191
 823	8.1789e+01	7.2447	49.129923	0.000547	5.473918	1.854614	-0.000219
 824	8.1888e+01	7.1982	48.928067	0.000507	5.068442	1.717235	-0.000203
 825	8.1988e+01	7.1533	48.722173	0.000517	5.169811	1.751579	-0.000207
 826	8.2088e+01	7.1260	48.540502	0.000456	4.561598	1.545511	-0.000183
 827	8.2187e+01	7.0731	48.330570	0.000527	5.271180	1.785924	-0.000211
 828	8.2287e+01	7.0474	48.100454	0.000578	5.778024	1.957648	-0.000231
 829	8.2386e+01	7.0057	47.955117	0.000365	3.649279	1.236409	-0.000146
 830	8.2486e+01	6.9592	47.737112	0.000547	5.473918	1.854614	-0.000219
 831	8.2585e+01	6.9239	47.527180	0.000527	5.271180	1.785924	-0.000211
 832	8.2684e+01	6.8870	47.309175	0.000547	5.473918	1.854614	-0.000219
 833	8.2784e+01	6.8388	47.099244	0.000527	5.271180	1.785924	-0.000211
 834	8.2883e+01	6.8148	46.913536	0.000466	4.662967	1.579856	-0.000187
 835	8.2983e+01	6.7650	46.695531	0.000547	5.473918	1.854614	-0.000219
 836	8.3082e+01	6.7314	46.481562	0.000537	5.372549	1.820269	-0.000215
 837	8.3182e+01	6.6864	46.328151	0.000385	3.852016	1.305098	-0.000154
 838	8.3281e+01	6.6383	46.077849	0.000628	6.284869	2.129371	-0.000252
 839	8.3381e+01	6.5998	45.880029	0.000497	4.967074	1.682890	-0.000199
 840	8.3481e+01	6.5613	45.682209	0.000497	4.967074	1.682890	-0.000199
 841	8.3580e+01	6.5228	45.439981	0.000608	6.082131	2.060682	-0.000243
 842	8.3680e+01	6.4811	45.298682	0.000355	3.547910	1.202064	-0.000142
 843	8.3779e+01	6.4474	45.068565	0.000578	5.778024	1.957648	-0.000231
 844	8.3879e+01	6.4217	44.854597	0.000537	5.372549	1.820269	-0.000215
 845	8.3978e+01	6.3624	44.620443	0.000588	5.879393	1.991992	-0.000235
 846	8.4078e+01	6.3255	44.422623	0.000497	4.967074	1.682890	-0.000199
 847	8.4177e+01	6.2934	44.228841	0.000487	4.865705	1.648545	-0.000195
 848	8.4276e+01	6.2469	44.043132	0.000466	4.662967	1.579856	-0.000187
 849	8.4376e+01	6.2116	43.833201	0.000527	5.271180	1.785924	-0.000211
 850	8.4475e+01	6.1651	43.611159	0.000558	5.575287	1.888958	-0.000223
 851	8.4575e+01	6.1234	43.397191	0.000537	5.372549	1.820269	-0.000215
 852	8.4674e+01	6.0849	43.199371	0.000497	4.967074	1.682890	-0.000199
 853	8.4774e+01	6.0464	42.989440	0.000527	5.271180	1.785924	-0.000211
 854	8.4874e+01	6.0030	42.783546	0.000517	5.169811	1.751579	-0.000207
 855	8.4973e+01	5.9645	42.553429	0.000578	5.778024	1.957648	-0.000231
 856	8.5073e+01	5.9276	42.351572	0.000507	5.068442	1.717235	-0.000203
 857	8.5172e+01	5.8875	42.173938	0.000446	4.460229	1.511167	-0.000179
 858	8.5272e+01	5.8522	41.923636	0.000628	6.284869	2.129371	-0.000252
 859	8.5371e+01	5.8105	41.733891	0.000476	4.764336	1.614201	-0.000191
 860	8.5471e+01	5.7656	41.515885	0.000547	5.473918	1.854614	-0.000219
 861	8.5570e+01	5.7175	41.326140	0.000476	4.764336	1.614201	-0.000191
 862	8.5669e+01	5.6886	41.108135	0.000547	5.473918	1.854614	-0.000219
 863	8.5769e+01	5.6453	40.882055	0.000568	5.676655	1.923303	-0.000227
 864	8.5868e+01	5.6100	40.668087	0.000537	5.372549	1.820269	-0.000215
 865	8.5968e+01	5.5715	40.454119	0.000537	5.372549	1.820269	-0.000215
 866	8.6067e+01	5.5266	40.203816	0.000628	6.284869	2.129371	-0.000252
 867	8.6167e+01	5.4833	40.022145	0.000456	4.561598	1.545511	-0.000183
 868	8.6266e+01	5.4512	39.796066	0.000568	5.676655	1.923303	-0.000227
 869	8.6366e+01	5.4079	39.553837	0.000608	6.082131	2.060682	-0.000243
 870	8.6466e+01	5.3758	39.392352	0.000405	4.054754	1.373788	-0.000162
 871	8.6565e+01	5.3212	39.158198	0.000588	5.879393	1.991992	-0.000235
 872	8.6665e+01	5.2827	38.948267	0.000527	5.271180	1.785924	-0.000211
 873	8.6764e+01	5.2442	38.750447	0.000497	4.967074	1.682890	-0.000199
 874	8.6864e+01	5.2170	38.508219	0.000608	6.082131	2.060682	-0.000243
 875	8.6963e+01	5.1640	38.294251	0.000537	5.372549	1.820269	-0.000215
 876	8.7063e+01	5.1416	38.088357	0.000517	5.169811	1.751579	-0.000207
 877	8.7162e+01	5.0934	37.862278	0.000568	5.676655	1.923303	-0.000227
 878	8.7261e+01	5.0581	37.656384	0.000517	5.169811	1.751579	-0.000207
 879	8.7361e+01	5.0116	37.414155	0.000608	6.082131	2.060682	-0.000243
 880	8.7460e+01	4.9731	37.208262	0.000517	5.169811	1.751579	-0.000207
 881	8.7560e+01	4.9314	36.982182	0.000568	5.676655	1.923303	-0.000227
 882	8.7659e+01	4.9025	36.820696	0.000405	4.054754	1.373788	-0.000162
 883	8.7759e+01	4.8576	36.602691	0.000547	5.473918	1.854614	-0.000219
 884	8.7859e+01	4.8159	36.352389	0.000628	6.284869	2.129371	-0.000252
 885	8.7958e+01	4.7742	36.126309	0.000568	5.676655	1.923303	-0.000227
 886	8.8058e+01	4.7277	35.912341	0.000537	5.372549	1.820269	-0.000215
 887	8.8157e+01	4.6828	35.678187	0.000588	5.879393	1.991992	-0.000235
 888	8.8257e+01	4.6571	35.504590	0.000436	4.358860	1.476822	-0.000174
 889	8.8356e+01	4.6138	35.217954	0.000720	7.197188	2.438473	-0.000288
 890	8.8456e+01	4.5705	35.044357	0.000436	4.358860	1.476822	-0.000174
 891	8.8555e+01	4.5400	34.781943	0.000659	6.588975	2.232405	-0.000264
 892	8.8654e+01	4.4951	34.608346	0.000436	4.358860	1.476822	-0.000174
 893	8.8754e+01	4.4534	34.349969	0.000649	6.487606	2.198060	-0.000260
 894	8.8853e+01	4.4181	34.144076	0.000517	5.169811	1.751579	-0.000207
 895	8.8953e+01	4.3747	33.913959	0.000578	5.778024	1.957648	-0.000231
 896	8.9052e+01	4.3378	33.704028	0.000527	5.271180	1.785924	-0.000211
 897	8.9152e+01	4.2881	33.486022	0.000547	5.473918	1.854614	-0.000219
 898	8.9251e+01	4.2544	33.231683	0.000639	6.386237	2.163716	-0.000256
 899	8.9351e+01	4.2143	33.005603	0.000568	5.676655	1.923303	-0.000227
 900	8.9451e+01	4.1678	32.819895	0.000466	4.662967	1.579856	-0.000187
 901	8.9550e+01	4.1293	32.597853	0.000558	5.575287	1.888958	-0.000223
 902	8.9650e+01	4.0940	32.339476	0.000649	6.487606	2.198060	-0.000260
 903	8.9749e+01	4.0571	32.089173	0.000628	6.284869	2.129371	-0.000252
 904	8.9849e+01	4.0170	31.899428	0.000476	4.764336	1.614201	-0.000191
 905	8.9948e+01	3.9737	31.624903	0.000689	6.893082	2.335439	-0.000276
 906	9.0047e+01	3.9352	31.419009	0.000517	5.169811	1.751579	-0.000207
 907	9.0147e+01	3.8871	31.180818	0.000598	5.980762	2.026337	-0.000239
 908	9.0246e+01	3.8534	30.938590	0.000608	6.082131	2.060682	-0.000243
 909	9.0346e+01	3.8117	30.736733	0.000507	5.068442	1.717235	-0.000203
 910	9.0445e+01	3.7699	30.498542	0.000598	5.980762	2.026337	-0.000239
 911	9.0545e+01	3.7250	30.244202	0.000639	6.386237	2.163716	-0.000256
 912	9.0644e+01	3.6945	30.050420	0.000487	4.865705	1.648545	-0.000195
 913	9.0744e+01	3.6544	29.844526	0.000517	5.169811	1.751579	-0.000207
 914	9.0844e+01	3.6208	29.578075	0.000669	6.690344	2.266750	-0.000268
 915	9.0943e+01	3.5726	29.384292	0.000487	4.865705	1.648545	-0.000195
 916	9.1043e+01	3.5309	29.117842	0.000669	6.690344	2.266750	-0.000268
 917	9.1142e+01	3.4924	28.944245	0.000436	4.358860	1.476822	-0.000174
 918	9.1242e+01	3.4667	28.677794	0.000669	6.690344	2.266750	-0.000268
 919	9.1341e+01	3.4250	28.391157	0.000720	7.197188	2.438473	-0.000288
 920	9.1441e+01	3.3833	28.197375	0.000487	4.865705	1.648545	-0.000195
 921	9.1540e+01	3.3416	27.975332	0.000558	5.575287	1.888958	-0.000223
 922	9.1639e+01	3.3015	27.737141	0.000598	5.980762	2.026337	-0.000239
 923	9.1739e+01	3.2470	27.523173	0.000537	5.372549	1.820269	-0.000215
 924	9.1838e+01	3.2149	27.256722	0.000669	6.690344	2.266750	-0.000268
 925	9.1938e+01	3.1764	27.062939	0.000487	4.865705	1.648545	-0.000195
 926	9.2037e+01	3.1315	26.812637	0.000628	6.284869	2.129371	-0.000252
 927	9.2137e+01	3.1026	26.566372	0.000618	6.183500	2.095026	-0.000248
 928	9.2237e+01	3.0577	26.320106	0.000618	6.183500	2.095026	-0.000248
 929	9.2336e+01	3.0047	26.081915	0.000598	5.980762	2.026337	-0.000239
 930	9.2436e+01	2.9807	25.867947	0.000537	5.372549	1.820269	-0.000215
 931	9.2535e+01	2.9341	25.609571	0.000649	6.487606	2.198060	-0.000260
 932	9.2635e+01	2.8940	25.395602	0.000537	5.372549	1.820269	-0.000215
 933	9.2734e+01	2.8475	25.157411	0.000598	5.980762	2.026337	-0.000239
 934	9.2834e+01	2.8234	24.947480	0.000527	5.271180	1.785924	-0.000211
 935	9.2933e+01	2.7785	24.681029	0.000669	6.690344	2.266750	-0.000268
 936	9.3032e+01	2.7432	24.438801	0.000608	6.082131	2.060682	-0.000243
 937	9.3132e+01	2.6999	24.188499	0.000628	6.284869	2.129371	-0.000252
 938	9.3231e+01	2.6630	23.962419	0.000568	5.676655	1.923303	-0.000227
 939	9.3331e+01	2.6133	23.728265	0.000588	5.879393	1.991992	-0.000235
 940	9.3430e+01	2.5844	23.542557	0.000466	4.662967	1.579856	-0.000187
 941	9.3530e+01	2.5395	23.288218	0.000639	6.386237	2.163716	-0.000256
 942	9.3629e+01	2.4962	23.033878	0.000639	6.386237	2.163716	-0.000256
 943	9.3729e+01	2.4593	22.807798	0.000568	5.676655	1.923303	-0.000227
 944	9.3829e+01	2.4208	22.597867	0.000527	5.271180	1.785924	-0.000211
 945	9.3928e+01	2.3839	22.291045	0.000770	7.704032	2.610197	-0.000308
 946	9.4028e+01	2.3374	22.060928	0.000578	5.778024	1.957648	-0.000231
 947	9.4127e+01	2.3101	21.822737	0.000598	5.980762	2.026337	-0.000239
 948	9.4227e+01	2.2604	21.624918	0.000497	4.967074	1.682890	-0.000199
 949	9.4326e+01	2.2203	21.350392	0.000689	6.893082	2.335439	-0.000276
 950	9.4425e+01	2.1850	21.120276	0.000578	5.778024	1.957648	-0.000231
 951	9.4525e+01	2.1320	20.869973	0.000628	6.284869	2.129371	-0.000252
 952	9.4624e+01	2.0951	20.635819	0.000588	5.879393	1.991992	-0.000235
 953	9.4724e+01	2.0679	20.381480	0.000639	6.386237	2.163716	-0.000256
 954	9.4823e+01	2.0213	20.143289	0.000598	5.980762	2.026337	-0.000239
 955	9.4923e+01	1.9860	19.901061	0.000608	6.082131	2.060682	-0.000243
 956	9.5022e+01	1.9427	19.638647	0.000659	6.588975	2.232405	-0.000264
 957	9.5122e+01	1.8978	19.400456	0.000598	5.980762	2.026337	-0.000239
 958	9.5222e+01	1.8673	19.166302	0.000588	5.879393	1.991992	-0.000235
 959	9.5321e+01	1.8256	18.928111	0.000598	5.980762	2.026337	-0.000239
 960	9.5421e+01	1.7791	18.665697	0.000659	6.588975	2.232405	-0.000264
 961	9.5520e+01	1.7470	18.431543	0.000588	5.879393	1.991992	-0.000235
 962	9.5620e+01	1.6957	18.157018	0.000689	6.893082	2.335439	-0.000276
 963	9.5719e+01	1.6572	17.906716	0.000628	6.284869	2.129371	-0.000252
 964	9.5819e+01	1.6299	17.668525	0.000598	5.980762	2.026337	-0.000239
 965	9.5918e+01	1.5834	17.462631	0.000517	5.169811	1.751579	-0.000207
 966	9.6017e+01	1.5385	17.196180	0.000669	6.690344	2.266750	-0.000268
 967	9.6117e+01	1.5000	16.937803	0.000649	6.487606	2.198060	-0.000260
 968	9.6216e+01	1.4647	16.659241	0.000699	6.994450	2.369784	-0.000280
 969	9.6316e+01	1.4278	16.441235	0.000547	5.473918	1.854614	-0.000219
 970	9.6415e+01	1.3861	16.150562	0.000730	7.298557	2.472818	-0.000292
 971	9.6515e+01	1.3379	15.968890	0.000456	4.561598	1.545511	-0.000183
 972	9.6615e+01	1.3010	15.686291	0.000710	7.095819	2.404129	-0.000284
 973	9.6714e+01	1.2609	15.435988	0.000628	6.284869	2.129371	-0.000252
 974	9.6814e+01	1.2272	15.157426	0.000699	6.994450	2.369784	-0.000280
 975	9.6913e+01	1.1855	14.967681	0.000476	4.764336	1.614201	-0.000191
 976	9.7013e+01	1.1422	14.709304	0.000649	6.487606	2.198060	-0.000260
 977	9.7112e+01	1.1005	14.459002	0.000628	6.284869	2.129371	-0.000252
 978	9.7212e+01	1.0668	14.168328	0.000730	7.298557	2.472818	-0.000292
 979	9.7311e+01	1.0251	13.913988	0.000639	6.386237	2.163716	-0.000256
 980	9.7410e+01	0.9802	13.712132	0.000507	5.068442	1.717235	-0.000203
 981	9.7510e+01	0.9513	13.457792	0.000639	6.386237	2.163716	-0.000256
 982	9.7609e+01	0.9016	13.195378	0.000659	6.588975	2.232405	-0.000264
 983	9.7709e+01	0.8711	12.937001	0.000649	6.487606	2.198060	-0.000260
 984	9.7808e+01	0.8214	12.682662	0.000639	6.386237	2.163716	-0.000256
 985	9.7908e+01	0.7845	12.436397	0.000618	6.183500	2.095026	-0.000248
 986	9.8007e+01	0.7460	12.218391	0.000547	5.473918	1.854614	-0.000219
 987	9.8107e+01	0.7091	11.887346	0.000831	8.312245	2.816265	-0.000333
 988	9.8207e+01	0.6642	11.689527	0.000497	4.967074	1.682890	-0.000199
 989	9.8306e+01	0.6208	11.447298	0.000608	6.082131	2.060682	-0.000243
 990	9.8406e+01	0.5871	11.172773	0.000689	6.893082	2.335439	-0.000276
 991	9.8505e+01	0.5486	10.918434	0.000639	6.386237	2.163716	-0.000256
 992	9.8605e+01	0.5182	10.692354	0.000568	5.676655	1.923303	-0.000227
 993	9.8704e+01	0.4588	10.438014	0.000639	6.386237	2.163716	-0.000256
 994	9.8803e+01	0.4347	10.155415	0.000710	7.095819	2.404129	-0.000284
 995	9.8903e+01	0.3818	9.917224	0.000598	5.980762	2.026337	-0.000239
 996	9.9002e+01	0.3497	9.691144	0.000568	5.676655	1.923303	-0.000227
 997	9.9102e+01	0.3096	9.424693	0.000669	6.690344	2.266750	-0.000268
 998	9.9201e+01	0.2679	9.150168	0.000689	6.893082	2.335439	-0.000276
 999	9.9301e+01	0.2246	8.916014	0.000588	5.879393	1.991992	-0.000235
1000	9.9400e+01	0.1861	8.673786	0.000608	6.082131	2.060682	-0.000243
1001	9.9500e+01	0.1492	8.379075	0.000740	7.399926	2.507163	-0.000296
1002	9.9600e+01	0.1091	8.104550	0.000689	6.893082	2.335439	-0.000276
1003	9.9699e+01	0.0674	7.890582	0.000537	5.372549	1.820269	-0.000215
1004	9.9799e+01	0.0273	7.583759	0.000770	7.704032	2.610197	-0.000308
1005	9.9898e+01	-0.0032	7.418237	0.000416	4.156123	1.408133	-0.000166
1006	9.9998e+01	-0.0513	7.159860	0.000649	6.487606	2.198060	-0.000260
1007	1.0010e+02	-0.0898	6.917632	0.000608	6.082131	2.060682	-0.000243
1008	1.0020e+02	-0.1219	6.655218	0.000659	6.588975	2.232405	-0.000264
1009	1.0030e+02	-0.1620	6.372619	0.000710	7.095819	2.404129	-0.000284
1010	1.0040e+02	-0.2053	6.142502	0.000578	5.778024	1.957648	-0.000231
1011	1.0050e+02	-0.2487	5.863940	0.000699	6.994450	2.369784	-0.000280
1012	1.0059e+02	-0.2775	5.625749	0.000598	5.980762	2.026337	-0.000239
1013	1.0069e+02	-0.3192	5.347186	0.000699	6.994450	2.369784	-0.000280
1014	1.0079e+02	-0.3642	5.068624	0.000699	6.994450	2.369784	-0.000280
1015	1.0089e+02	-0.4027	4.854656	0.000537	5.372549	1.820269	-0.000215
1016	1.0099e+02	-0.4444	4.584168	0.000679	6.791713	2.301095	-0.000272
1017	1.0109e+02	-0.4813	4.297531	0.000720	7.197188	2.438473	-0.000288
1018	1.0119e+02	-0.5198	4.039154	0.000649	6.487606	2.198060	-0.000260
1019	1.0129e+02	-0.5615	3.821149	0.000547	5.473918	1.854614	-0.000219
1020	1.0139e+02	-0.5968	3.554698	0.000669	6.690344	2.266750	-0.000268
1021	1.0149e+02	-0.6385	3.280173	0.000689	6.893082	2.335439	-0.000276
1022	1.0159e+02	-0.6850	3.001610	0.000699	6.994450	2.369784	-0.000280
1023	1.0169e+02	-0.7187	2.795716	0.000517	5.169811	1.751579	-0.000207
1024	1.0179e+02	-0.7652	2.505043	0.000730	7.298557	2.472818	-0.000292
1025	1.0189e+02	-0.7957	2.262815	0.000608	6.082131	2.060682	-0.000243
1026	1.0199e+02	-0.8358	1.976178	0.000720	7.197188	2.438473	-0.000288
1027	1.0209e+02	-0.8823	1.721838	0.000639	6.386237	2.163716	-0.000256
1028	1.0219e+02	-0.9240	1.467499	0.000639	6.386237	2.163716	-0.000256
1029	1.0229e+02	-0.9561	1.237382	0.000578	5.778024	1.957648	-0.000231
1030	1.0239e+02	-0.9946	0.950745	0.000720	7.197188	2.438473	-0.000288
1031	1.0248e+02	-1.0492	0.664109	0.000720	7.197188	2.438473	-0.000288
1032	1.0258e+02	-1.0861	0.401695	0.000659	6.588975	2.232405	-0.000264
1033	1.0268e+02	-1.1198	0.175615	0.000568	5.676655	1.923303	-0.000227
1034	1.0278e+02	-1.1567	-0.062576	0.000598	5.980762	2.026337	-0.000239
1035	1.0288e+02	-1.2016	-0.369398	0.000770	7.704032	2.610197	-0.000308
1036	1.0298e+02	-1.2353	-0.591440	0.000558	5.575287	1.888958	-0.000223
1037	1.0308e+02	-1.2722	-0.845780	0.000639	6.386237	2.163716	-0.000256
1038	1.0318e+02	-1.3187	-1.116268	0.000679	6.791713	2.301095	-0.000272
1039	1.0328e+02	-1.3652	-1.435202	0.000801	8.008139	2.713231	-0.000321
1040	1.0338e+02	-1.4037	-1.645133	0.000527	5.271180	1.785924	-0.000211
1041	1.0348e+02	-1.4326	-1.887361	0.000608	6.082131	2.060682	-0.000243
1042	1.0358e+02	-1.4727	-2.149775	0.000659	6.588975	2.232405	-0.000264
1043	1.0368e+02	-1.5176	-2.392003	0.000608	6.082131	2.060682	-0.000243
1044	1.0378e+02	-1.5705	-2.642305	0.000628	6.284869	2.129371	-0.000252
1045	1.0388e+02	-1.5930	-2.908756	0.000669	6.690344	2.266750	-0.000268
1046	1.0398e+02	-1.6379	-3.207504	0.000750	7.501295	2.541507	-0.000300
1047	1.0408e+02	-1.6860	-3.433584	0.000568	5.676655	1.923303	-0.000227
1048	1.0418e+02	-1.7213	-3.695998	0.000659	6.588975	2.232405	-0.000264
1049	1.0428e+02	-1.7647	-3.909966	0.000537	5.372549	1.820269	-0.000215
1050	1.0438e+02	-1.7999	-4.184491	0.000689	6.893082	2.335439	-0.000276
1051	1.0447e+02	-1.8385	-4.406534	0.000558	5.575287	1.888958	-0.000223
1052	1.0457e+02	-1.8866	-4.693170	0.000720	7.197188	2.438473	-0.000288
1053	1.0467e+02	-1.9187	-4.975770	0.000710	7.095819	2.404129	-0.000284
1054	1.0477e+02	-1.9540	-5.197812	0.000558	5.575287	1.888958	-0.000223
1055	1.0487e+02	-2.0005	-5.476375	0.000699	6.994450	2.369784	-0.000280
1056	1.0497e+02	-2.0342	-5.702454	0.000568	5.676655	1.923303	-0.000227
1057	1.0507e+02	-2.0727	-5.960831	0.000649	6.487606	2.198060	-0.000260
1058	1.0517e+02	-2.1176	-6.194985	0.000588	5.879393	1.991992	-0.000235
1059	1.0527e+02	-2.1577	-6.449324	0.000639	6.386237	2.163716	-0.000256
1060	1.0537e+02	-2.1978	-6.727887	0.000699	6.994450	2.369784	-0.000280
1061	1.0547e+02	-2.2283	-6.978189	0.000628	6.284869	2.129371	-0.000252
1062	1.0557e+02	-2.2796	-7.248677	0.000679	6.791713	2.301095	-0.000272
1063	1.0567e+02	-2.3085	-7.494942	0.000618	6.183500	2.095026	-0.000248
1064	1.0577e+02	-2.3566	-7.765431	0.000679	6.791713	2.301095	-0.000272
1065	1.0587e+02	-2.3887	-8.003622	0.000598	5.980762	2.026337	-0.000239
1066	1.0597e+02	-2.4320	-8.286221	0.000710	7.095819	2.404129	-0.000284
1067	1.0607e+02	-2.4721	-8.504226	0.000547	5.473918	1.854614	-0.000219
1068	1.0617e+02	-2.5219	-8.762603	0.000649	6.487606	2.198060	-0.000260
1069	1.0627e+02	-2.5588	-9.020980	0.000649	6.487606	2.198060	-0.000260
1070	1.0637e+02	-2.5973	-9.283394	0.000659	6.588975	2.232405	-0.000264
1071	1.0647e+02	-2.6390	-9.525622	0.000608	6.082131	2.060682	-0.000243
1072	1.0656e+02	-2.6743	-9.755739	0.000578	5.778024	1.957648	-0.000231
1073	1.0666e+02	-2.7031	-9.977781	0.000558	5.575287	1.888958	-0.000223
1074	1.0676e+02	-2.7625	-10.272492	0.000740	7.399926	2.507163	-0.000296
1075	1.0686e+02	-2.8026	-10.542980	0.000679	6.791713	2.301095	-0.000272
1076	1.0696e+02	-2.8379	-10.777134	0.000588	5.879393	1.991992	-0.000235
1077	1.0706e+02	-2.8684	-11.035511	0.000649	6.487606	2.198060	-0.000260
1078	1.0716e+02	-2.9213	-11.277739	0.000608	6.082131	2.060682	-0.000243
1079	1.0726e+02	-2.9646	-11.544190	0.000669	6.690344	2.266750	-0.000268
1080	1.0736e+02	-3.0047	-11.786418	0.000608	6.082131	2.060682	-0.000243
1081	1.0746e+02	-3.0352	-12.044794	0.000649	6.487606	2.198060	-0.000260
1082	1.0756e+02	-3.0801	-12.266837	0.000558	5.575287	1.888958	-0.000223
1083	1.0766e+02	-3.1170	-12.541362	0.000689	6.893082	2.335439	-0.000276
1084	1.0776e+02	-3.1587	-12.763405	0.000558	5.575287	1.888958	-0.000223
1085	1.0786e+02	-3.1828	-13.009670	0.000618	6.183500	2.095026	-0.000248
1086	1.0796e+02	-3.2309	-13.231712	0.000558	5.575287	1.888958	-0.000223
1087	1.0806e+02	-3.2807	-13.522386	0.000730	7.298557	2.472818	-0.000292
1088	1.0816e+02	-3.3095	-13.752503	0.000578	5.778024	1.957648	-0.000231
1089	1.0826e+02	-3.3625	-13.994731	0.000608	6.082131	2.060682	-0.000243
1090	1.0836e+02	-3.3913	-14.200625	0.000517	5.169811	1.751579	-0.000207
1091	1.0845e+02	-3.4298	-14.463039	0.000659	6.588975	2.232405	-0.000264
1092	1.0855e+02	-3.4732	-14.717378	0.000639	6.386237	2.163716	-0.000256
1093	1.0865e+02	-3.5133	-14.935384	0.000547	5.473918	1.854614	-0.000219
1094	1.0875e+02	-3.5502	-15.201835	0.000669	6.690344	2.266750	-0.000268
1095	1.0885e+02	-3.5855	-15.435988	0.000588	5.879393	1.991992	-0.000235
1096	1.0895e+02	-3.6416	-15.637845	0.000507	5.068442	1.717235	-0.000203
1097	1.0905e+02	-3.6689	-15.924482	0.000720	7.197188	2.438473	-0.000288
1098	1.0915e+02	-3.7106	-16.150562	0.000568	5.676655	1.923303	-0.000227
1099	1.0925e+02	-3.7507	-16.400864	0.000628	6.284869	2.129371	-0.000252
1100	1.0935e+02	-3.7876	-16.630981	0.000578	5.778024	1.957648	-0.000231
1101	1.0945e+02	-3.8309	-16.865135	0.000588	5.879393	1.991992	-0.000235
1102	1.0955e+02	-3.8742	-17.091214	0.000568	5.676655	1.923303	-0.000227
1103	1.0965e+02	-3.8967	-17.381888	0.000730	7.298557	2.472818	-0.000292
1104	1.0975e+02	-3.9528	-17.591819	0.000527	5.271180	1.785924	-0.000211
1105	1.0985e+02	-3.9897	-17.817899	0.000568	5.676655	1.923303	-0.000227
1106	1.0995e+02	-4.0314	-18.108572	0.000730	7.298557	2.472818	-0.000292
1107	1.1005e+02	-4.0715	-18.302355	0.000487	4.865705	1.648545	-0.000195
1108	1.1015e+02	-4.1133	-18.540546	0.000598	5.980762	2.026337	-0.000239
1109	1.1025e+02	-4.1469	-18.790848	0.000628	6.284869	2.129371	-0.000252
1110	1.1035e+02	-4.1903	-19.029039	0.000598	5.980762	2.026337	-0.000239
1111	1.1044e+02	-4.2304	-19.251082	0.000558	5.575287	1.888958	-0.000223
1112	1.1054e+02	-4.2673	-19.497347	0.000618	6.183500	2.095026	-0.000248
1113	1.1064e+02	-4.3106	-19.719390	0.000558	5.575287	1.888958	-0.000223
1114	1.1074e+02	-4.3587	-19.965655	0.000618	6.183500	2.095026	-0.000248
1115	1.1084e+02	-4.3796	-20.183660	0.000547	5.473918	1.854614	-0.000219
1116	1.1094e+02	-4.4277	-20.454148	0.000679	6.791713	2.301095	-0.000272
1117	1.1104e+02	-4.4614	-20.700413	0.000618	6.183500	2.095026	-0.000248
1118	1.1114e+02	-4.5079	-20.886122	0.000466	4.662967	1.579856	-0.000187
1119	1.1124e+02	-4.5512	-21.120276	0.000588	5.879393	1.991992	-0.000235
1120	1.1134e+02	-4.5849	-21.334244	0.000537	5.372549	1.820269	-0.000215
1121	1.1144e+02	-4.6298	-21.600695	0.000669	6.690344	2.266750	-0.000268
1122	1.1154e+02	-4.6715	-21.814663	0.000537	5.372549	1.820269	-0.000215
1123	1.1164e+02	-4.7132	-22.048817	0.000588	5.879393	1.991992	-0.000235
1124	1.1174e+02	-4.7501	-22.266822	0.000547	5.473918	1.854614	-0.000219
1125	1.1184e+02	-4.7918	-22.505013	0.000598	5.980762	2.026337	-0.000239
1126	1.1194e+02	-4.8223	-22.743204	0.000598	5.980762	2.026337	-0.000239
1127	1.1204e+02	-4.8624	-22.961210	0.000547	5.473918	1.854614	-0.000219
1128	1.1214e+02	-4.8977	-23.199401	0.000598	5.980762	2.026337	-0.000239
1129	1.1224e+02	-4.9426	-23.425480	0.000568	5.676655	1.923303	-0.000227
1130	1.1234e+02	-4.9811	-23.647523	0.000558	5.575287	1.888958	-0.000223
1131	1.1244e+02	-5.0277	-23.885714	0.000598	5.980762	2.026337	-0.000239
1132	1.1253e+02	-5.0630	-24.156202	0.000679	6.791713	2.301095	-0.000272
1133	1.1263e+02	-5.1031	-24.341910	0.000466	4.662967	1.579856	-0.000187
1134	1.1273e+02	-5.1368	-24.580101	0.000598	5.980762	2.026337	-0.000239
1135	1.1283e+02	-5.1977	-24.830403	0.000628	6.284869	2.129371	-0.000252
1136	1.1293e+02	-5.2282	-25.048409	0.000547	5.473918	1.854614	-0.000219
1137	1.1303e+02	-5.2667	-25.286600	0.000598	5.980762	2.026337	-0.000239
1138	1.1313e+02	-5.3020	-25.464234	0.000446	4.460229	1.511167	-0.000179
1139	1.1323e+02	-5.3469	-25.722610	0.000649	6.487606	2.198060	-0.000260
1140	1.1333e+02	-5.3870	-25.989061	0.000669	6.690344	2.266750	-0.000268
1141	1.1343e+02	-5.4271	-26.174770	0.000466	4.662967	1.579856	-0.000187
1142	1.1353e+02	-5.4656	-26.376626	0.000507	5.068442	1.717235	-0.000203
1143	1.1363e+02	-5.5041	-26.614817	0.000598	5.980762	2.026337	-0.000239
1144	1.1373e+02	-5.5394	-26.812637	0.000497	4.967074	1.682890	-0.000199
1145	1.1383e+02	-5.5859	-27.066977	0.000639	6.386237	2.163716	-0.000256
1146	1.1393e+02	-5.6260	-27.293056	0.000568	5.676655	1.923303	-0.000227
1147	1.1403e+02	-5.6613	-27.567581	0.000689	6.893082	2.335439	-0.000276
1148	1.1413e+02	-5.6902	-27.745215	0.000446	4.460229	1.511167	-0.000179
1149	1.1423e+02	-5.7448	-27.967258	0.000558	5.575287	1.888958	-0.000223
1150	1.1433e+02	-5.7833	-28.193337	0.000568	5.676655	1.923303	-0.000227
1151	1.1442e+02	-5.8153	-28.403268	0.000527	5.271180	1.785924	-0.000211
1152	1.1452e+02	-5.8763	-28.621274	0.000547	5.473918	1.854614	-0.000219
1153	1.1462e+02	-5.9004	-28.847353	0.000568	5.676655	1.923303	-0.000227
1154	1.1472e+02	-5.9437	-29.045173	0.000497	4.967074	1.682890	-0.000199
1155	1.1482e+02	-5.9774	-29.283364	0.000598	5.980762	2.026337	-0.000239
1156	1.1492e+02	-6.0127	-29.485221	0.000507	5.068442	1.717235	-0.000203
1157	1.1502e+02	-6.0608	-29.727449	0.000608	6.082131	2.060682	-0.000243
1158	1.1512e+02	-6.1041	-29.905083	0.000446	4.460229	1.511167	-0.000179
1159	1.1522e+02	-6.1410	-30.127125	0.000558	5.575287	1.888958	-0.000223
1160	1.1532e+02	-6.1891	-30.393576	0.000669	6.690344	2.266750	-0.000268
1161	1.1542e+02	-6.2196	-30.591396	0.000497	4.967074	1.682890	-0.000199
1162	1.1552e+02	-6.2709	-30.764993	0.000436	4.358860	1.476822	-0.000174
1163	1.1562e+02	-6.2886	-31.019332	0.000639	6.386237	2.163716	-0.000256
1164	1.1572e+02	-6.3335	-31.237338	0.000547	5.473918	1.854614	-0.000219
1165	1.1582e+02	-6.3800	-31.439195	0.000507	5.068442	1.717235	-0.000203
1166	1.1592e+02	-6.4250	-31.641051	0.000507	5.068442	1.717235	-0.000203
1167	1.1602e+02	-6.4522	-31.863094	0.000558	5.575287	1.888958	-0.000223
1168	1.1612e+02	-6.4955	-32.064951	0.000507	5.068442	1.717235	-0.000203
1169	1.1622e+02	-6.5389	-32.307179	0.000608	6.082131	2.060682	-0.000243
1170	1.1632e+02	-6.5725	-32.480776	0.000436	4.358860	1.476822	-0.000174
1171	1.1642e+02	-6.6159	-32.714929	0.000588	5.879393	1.991992	-0.000235
1172	1.1651e+02	-6.6560	-32.949083	0.000588	5.879393	1.991992	-0.000235
1173	1.1661e+02	-6.6913	-33.142866	0.000487	4.865705	1.648545	-0.000195
1174	1.1671e+02	-6.7282	-33.360871	0.000547	5.473918	1.854614	-0.000219
1175	1.1681e+02	-6.7731	-33.603099	0.000608	6.082131	2.060682	-0.000243
1176	1.1691e+02	-6.8116	-33.796882	0.000487	4.865705	1.648545	-0.000195
1177	1.1701e+02	-6.8501	-34.022961	0.000568	5.676655	1.923303	-0.000227
1178	1.1711e+02	-6.8934	-34.228855	0.000517	5.169811	1.751579	-0.000207
1179	1.1721e+02	-6.9319	-34.467046	0.000598	5.980762	2.026337	-0.000239
1180	1.1731e+02	-6.9784	-34.660829	0.000487	4.865705	1.648545	-0.000195
1181	1.1741e+02	-7.0201	-34.862686	0.000507	5.068442	1.717235	-0.000203
1182	1.1751e+02	-7.0506	-35.080691	0.000547	5.473918	1.854614	-0.000219
1183	1.1761e+02	-7.0907	-35.330993	0.000628	6.284869	2.129371	-0.000252
1184	1.1771e+02	-7.1340	-35.524776	0.000487	4.865705	1.648545	-0.000195
1185	1.1781e+02	-7.1805	-35.702410	0.000446	4.460229	1.511167	-0.000179
1186	1.1791e+02	-7.2142	-35.956749	0.000639	6.386237	2.163716	-0.000256
1187	1.1801e+02	-7.2543	-36.138421	0.000456	4.561598	1.545511	-0.000183
1188	1.1811e+02	-7.2944	-36.372574	0.000588	5.879393	1.991992	-0.000235
1189	1.1821e+02	-7.3394	-36.594617	0.000558	5.575287	1.888958	-0.000223
1190	1.1831e+02	-7.3731	-36.743991	0.000375	3.750647	1.270754	-0.000150
1191	1.1841e+02	-7.4083	-37.018516	0.000689	6.893082	2.335439	-0.000276
1192	1.1850e+02	-7.4485	-37.216336	0.000497	4.967074	1.682890	-0.000199
1193	1.1860e+02	-7.4966	-37.446453	0.000578	5.778024	1.957648	-0.000231
1194	1.1870e+02	-7.5319	-37.652346	0.000517	5.169811	1.751579	-0.000207
1195	1.1880e+02	-7.5736	-37.858240	0.000517	5.169811	1.751579	-0.000207
1196	1.1890e+02	-7.6201	-38.047986	0.000476	4.764336	1.614201	-0.000191
1197	1.1900e+02	-7.6490	-38.290214	0.000608	6.082131	2.060682	-0.000243
1198	1.1910e+02	-7.6891	-38.455736	0.000416	4.156123	1.408133	-0.000166
1199	1.1920e+02	-7.7276	-38.677779	0.000558	5.575287	1.888958	-0.000223
1200	1.1930e+02	-7.7773	-38.911933	0.000588	5.879393	1.991992	-0.000235
1201	1.1940e+02	-7.8238	-39.121864	0.000527	5.271180	1.785924	-0.000211
1202	1.1950e+02	-7.8463	-39.343906	0.000558	5.575287	1.888958	-0.000223
1203	1.1960e+02	-7.8896	-39.545763	0.000507	5.068442	1.717235	-0.000203
1204	1.1970e+02	-7.9329	-39.707249	0.000405	4.054754	1.373788	-0.000162
1205	1.1980e+02	-7.9762	-39.949477	0.000608	6.082131	2.060682	-0.000243
1206	1.1990e+02	-8.0131	-40.139222	0.000476	4.764336	1.614201	-0.000191
1207	1.2000e+02	-8.0484	-40.397599	0.000649	6.487606	2.198060	-0.000260
1208	1.2010e+02	-8.0885	-40.575233	0.000446	4.460229	1.511167	-0.000179
1209	1.2020e+02	-8.1303	-40.785164	0.000527	5.271180	1.785924	-0.000211
1210	1.2030e+02	-8.1848	-40.995095	0.000527	5.271180	1.785924	-0.000211
1211	1.2039e+02	-8.2105	-41.213100	0.000547	5.473918	1.854614	-0.000219
1212	1.2049e+02	-8.2554	-41.414957	0.000507	5.068442	1.717235	-0.000203
1213	1.2059e+02	-8.2923	-41.628925	0.000537	5.372549	1.820269	-0.000215
1214	1.2069e+02	-8.3308	-41.846930	0.000547	5.473918	1.854614	-0.000219
1215	1.2079e+02	-8.3677	-42.036676	0.000476	4.764336	1.614201	-0.000191
1216	1.2089e+02	-8.4158	-42.258718	0.000558	5.575287	1.888958	-0.000223
1217	1.2099e+02	-8.4447	-42.460575	0.000507	5.068442	1.717235	-0.000203
1218	1.2109e+02	-8.4784	-42.642246	0.000456	4.561598	1.545511	-0.000183
1219	1.2119e+02	-8.5169	-42.795657	0.000385	3.852016	1.305098	-0.000154
1220	1.2129e+02	-8.5730	-43.021737	0.000568	5.676655	1.923303	-0.000227
1221	1.2139e+02	-8.6019	-43.235705	0.000537	5.372549	1.820269	-0.000215
1222	1.2149e+02	-8.6436	-43.477933	0.000608	6.082131	2.060682	-0.000243
1223	1.2159e+02	-8.6901	-43.687864	0.000527	5.271180	1.785924	-0.000211
1224	1.2169e+02	-8.7334	-43.869535	0.000456	4.561598	1.545511	-0.000183
1225	1.2179e+02	-8.7719	-44.067355	0.000497	4.967074	1.682890	-0.000199
1226	1.2189e+02	-8.8088	-44.261138	0.000487	4.865705	1.648545	-0.000195
1227	1.2199e+02	-8.8506	-44.483180	0.000558	5.575287	1.888958	-0.000223
1228	1.2209e+02	-8.8907	-44.676963	0.000487	4.865705	1.648545	-0.000195
1229	1.2219e+02	-8.9276	-44.846522	0.000426	4.257492	1.442477	-0.000170
1230	1.2229e+02	-8.9580	-45.088750	0.000608	6.082131	2.060682	-0.000243
1231	1.2239e+02	-9.0126	-45.286570	0.000497	4.967074	1.682890	-0.000199
1232	1.2248e+02	-9.0495	-45.516687	0.000578	5.778024	1.957648	-0.000231
1233	1.2258e+02	-9.0864	-45.702395	0.000466	4.662967	1.579856	-0.000187
1234	1.2268e+02	-9.1233	-45.920400	0.000547	5.473918	1.854614	-0.000219
1235	1.2278e+02	-9.1682	-46.138406	0.000547	5.473918	1.854614	-0.000219
1236	1.2288e+02	-9.2099	-46.320077	0.000456	4.561598	1.545511	-0.000183
1237	1.2298e+02	-9.2436	-46.525971	0.000517	5.169811	1.751579	-0.000207
1238	1.2308e+02	-9.2869	-46.731865	0.000517	5.169811	1.751579	-0.000207
1239	1.2318e+02	-9.3222	-46.953907	0.000558	5.575287	1.888958	-0.000223
1240	1.2328e+02	-9.3703	-47.147690	0.000487	4.865705	1.648545	-0.000195
1241	1.2338e+02	-9.4217	-47.325324	0.000446	4.460229	1.511167	-0.000179
1242	1.2348e+02	-9.4441	-47.519106	0.000487	4.865705	1.648545	-0.000195
1243	1.2358e+02	-9.4794	-47.785557	0.000669	6.690344	2.266750	-0.000268
1244	1.2368e+02	-9.5179	-47.955117	0.000426	4.257492	1.442477	-0.000170
1245	1.2378e+02	-9.5692	-48.148899	0.000487	4.865705	1.648545	-0.000195
1246	1.2388e+02	-9.6045	-48.366905	0.000547	5.473918	1.854614	-0.000219
1247	1.2398e+02	-9.6430	-48.568761	0.000507	5.068442	1.717235	-0.000203
1248	1.2408e+02	-9.6831	-48.762544	0.000487	4.865705	1.648545	-0.000195
1249	1.2418e+02	-9.7249	-48.968438	0.000517	5.169811	1.751579	-0.000207
1250	1.2428e+02	-9.7682	-49.186443	0.000547	5.473918	1.854614	-0.000219
1251	1.2438e+02	-9.8083	-49.404449	0.000547	5.473918	1.854614	-0.000219
1252	1.2447e+02	-9.8436	-49.553823	0.000375	3.750647	1.270754	-0.000150
1253	1.2457e+02	-9.8789	-49.747605	0.000487	4.865705	1.648545	-0.000195
1254	1.2467e+02	-9.9254	-49.961573	0.000537	5.372549	1.820269	-0.000215
1255	1.2477e+02	-9.9591	-50.167467	0.000517	5.169811	1.751579	-0.000207
1256	1.2487e+02	-10.0104	-50.377398	0.000527	5.271180	1.785924	-0.000211
1257	1.2497e+02	-10.0537	-50.575218	0.000497	4.967074	1.682890	-0.000199
1258	1.2507e+02	-10.0794	-50.781112	0.000517	5.169811	1.751579	-0.000207
1259	1.2517e+02	-10.1275	-50.954709	0.000436	4.358860	1.476822	-0.000174
1260	1.2527e+02	-10.1532	-51.188863	0.000588	5.879393	1.991992	-0.000235
1261	1.2537e+02	-10.1981	-51.402831	0.000537	5.372549	1.820269	-0.000215
1262	1.2547e+02	-10.2414	-51.592576	0.000476	4.764336	1.614201	-0.000191
1263	1.2557e+02	-10.2767	-51.762136	0.000426	4.257492	1.442477	-0.000170
1264	1.2567e+02	-10.3200	-51.955918	0.000487	4.865705	1.648545	-0.000195
1265	1.2577e+02	-10.3553	-52.161812	0.000517	5.169811	1.751579	-0.000207
1266	1.2587e+02	-10.4018	-52.379818	0.000547	5.473918	1.854614	-0.000219
1267	1.2597e+02	-10.4403	-52.529192	0.000375	3.750647	1.270754	-0.000150
1268	1.2607e+02	-10.4885	-52.747197	0.000547	5.473918	1.854614	-0.000219
1269	1.2617e+02	-10.5190	-52.973277	0.000568	5.676655	1.923303	-0.000227
1270	1.2627e+02	-10.5639	-53.175133	0.000507	5.068442	1.717235	-0.000203
1271	1.2636e+02	-10.6056	-53.372953	0.000497	4.967074	1.682890	-0.000199
1272	1.2646e+02	-10.6473	-53.558661	0.000466	4.662967	1.579856	-0.000187
1273	1.2656e+02	-10.6794	-53.760518	0.000507	5.068442	1.717235	-0.000203
1274	1.2666e+02	-10.7211	-53.962375	0.000507	5.068442	1.717235	-0.000203
1275	1.2676e+02	-10.7612	-54.131935	0.000426	4.257492	1.442477	-0.000170
1276	1.2686e+02	-10.8013	-54.358014	0.000568	5.676655	1.923303	-0.000227
1277	1.2696e+02	-10.8398	-54.563908	0.000517	5.169811	1.751579	-0.000207
1278	1.2706e+02	-10.8783	-54.777876	0.000537	5.372549	1.820269	-0.000215
1279	1.2716e+02	-10.9280	-54.935325	0.000395	3.953385	1.339443	-0.000158
1280	1.2726e+02	-10.9569	-55.129107	0.000487	4.865705	1.648545	-0.000195
1281	1.2736e+02	-10.9970	-55.322890	0.000487	4.865705	1.648545	-0.000195
1282	1.2746e+02	-11.0355	-55.524746	0.000507	5.068442	1.717235	-0.000203
1283	1.2756e+02	-11.0804	-55.710455	0.000466	4.662967	1.579856	-0.000187
1284	1.2766e+02	-11.1125	-55.916349	0.000517	5.169811	1.751579	-0.000207
1285	1.2776e+02	-11.1703	-56.142428	0.000568	5.676655	1.923303	-0.000227
1286	1.2786e+02	-11.1879	-56.311988	0.000426	4.257492	1.442477	-0.000170
1287	1.2796e+02	-11.2360	-56.473473	0.000405	4.054754	1.373788	-0.000162
1288	1.2806e+02	-11.2794	-56.655144	0.000456	4.561598	1.545511	-0.000183
1289	1.2816e+02	-11.3307	-56.861038	0.000517	5.169811	1.751579	-0.000207
1290	1.2826e+02	-11.3644	-57.054821	0.000487	4.865705	1.648545	-0.000195
1291	1.2835e+02	-11.4045	-57.248603	0.000487	4.865705	1.648545	-0.000195
1292	1.2845e+02	-11.4286	-57.446423	0.000497	4.967074	1.682890	-0.000199
1293	1.2855e+02	-11.4703	-57.636168	0.000476	4.764336	1.614201	-0.000191
1294	1.2865e+02	-11.5120	-57.858211	0.000558	5.575287	1.888958	-0.000223
1295	1.2875e+02	-11.5633	-58.035845	0.000446	4.460229	1.511167	-0.000179
1296	1.2885e+02	-11.5986	-58.197330	0.000405	4.054754	1.373788	-0.000162
1297	1.2895e+02	-11.6355	-58.435521	0.000598	5.980762	2.026337	-0.000239
1298	1.2905e+02	-11.6740	-58.613155	0.000446	4.460229	1.511167	-0.000179
1299	1.2915e+02	-11.7189	-58.835198	0.000558	5.575287	1.888958	-0.000223
1300	1.2925e+02	-11.7510	-59.004757	0.000426	4.257492	1.442477	-0.000170
1301	1.2935e+02	-11.7975	-59.178354	0.000436	4.358860	1.476822	-0.000174
1302	1.2945e+02	-11.8441	-59.436731	0.000649	6.487606	2.198060	-0.000260
1303	1.2955e+02	-11.8777	-59.573994	0.000345	3.446541	1.167720	-0.000138
1304	1.2965e+02	-11.9098	-59.783925	0.000527	5.271180	1.785924	-0.000211
1305	1.2975e+02	-11.9596	-60.010004	0.000568	5.676655	1.923303	-0.000227
1306	1.2985e+02	-12.0013	-60.167452	0.000395	3.953385	1.339443	-0.000158
1307	1.2995e+02	-12.0334	-60.353161	0.000466	4.662967	1.579856	-0.000187
1308	1.3005e+02	-12.0815	-60.555018	0.000507	5.068442	1.717235	-0.000203
1309	1.3015e+02	-12.1136	-60.748800	0.000487	4.865705	1.648545	-0.000195
1310	1.3025e+02	-12.1585	-60.926434	0.000446	4.460229	1.511167	-0.000179
1311	1.3034e+02	-12.2002	-61.164625	0.000598	5.980762	2.026337	-0.000239
1312	1.3044e+02	-12.2339	-61.342259	0.000446	4.460229	1.511167	-0.000179
1313	1.3054e+02	-12.2676	-61.527967	0.000466	4.662967	1.579856	-0.000187
1314	1.3064e+02	-12.3141	-61.733861	0.000517	5.169811	1.751579	-0.000207
1315	1.3074e+02	-12.3606	-61.903421	0.000426	4.257492	1.442477	-0.000170
1316	1.3084e+02	-12.4039	-62.064906	0.000405	4.054754	1.373788	-0.000162
1317	1.3094e+02	-12.4376	-62.246577	0.000456	4.561598	1.545511	-0.000183
1318	1.3104e+02	-12.4761	-62.480731	0.000588	5.879393	1.991992	-0.000235
1319	1.3114e+02	-12.5226	-62.662402	0.000456	4.561598	1.545511	-0.000183
1320	1.3124e+02	-12.5483	-62.840036	0.000446	4.460229	1.511167	-0.000179
1321	1.3134e+02	-12.5948	-63.001522	0.000405	4.054754	1.373788	-0.000162
1322	1.3144e+02	-12.6414	-63.187230	0.000466	4.662967	1.579856	-0.000187
1323	1.3154e+02	-12.6638	-63.381013	0.000487	4.865705	1.648545	-0.000195
1324	1.3164e+02	-12.7087	-63.586906	0.000517	5.169811	1.751579	-0.000207
1325	1.3174e+02	-12.7504	-63.772615	0.000466	4.662967	1.579856	-0.000187
1326	1.3184e+02	-12.7938	-63.982546	0.000527	5.271180	1.785924	-0.000211
1327	1.3194e+02	-12.8355	-64.152105	0.000426	4.257492	1.442477	-0.000170
1328	1.3204e+02	-12.8676	-64.325702	0.000436	4.358860	1.476822	-0.000174
1329	1.3214e+02	-12.9077	-64.511411	0.000466	4.662967	1.579856	-0.000187
1330	1.3224e+02	-12.9478	-64.672896	0.000405	4.054754	1.373788	-0.000162
1331	1.3234e+02	-12.9927	-64.858604	0.000466	4.662967	1.579856	-0.000187
1332	1.3243e+02	-13.0312	-65.040275	0.000456	4.561598	1.545511	-0.000183
1333	1.3253e+02	-13.0697	-65.258281	0.000547	5.473918	1.854614	-0.000219
1334	1.3263e+02	-13.1098	-65.460137	0.000507	5.068442	1.717235	-0.000203
1335	1.3273e+02	-13.1547	-65.653920	0.000487	4.865705	1.648545	-0.000195
1336	1.3283e+02	-13.1836	-65.839628	0.000466	4.662967	1.579856	-0.000187
1337	1.3293e+02	-13.2397	-66.085893	0.000618	6.183500	2.095026	-0.000248
1338	1.3303e+02	-13.2702	-66.207008	0.000304	3.041065	1.030341	-0.000122
1339	1.3313e+02	-13.3119	-66.420976	0.000537	5.372549	1.820269	-0.000215
1340	1.3323e+02	-13.3488	-66.558238	0.000345	3.446541	1.167720	-0.000138
1341	1.3333e+02	-13.3905	-66.784318	0.000568	5.676655	1.923303	-0.000227
1342	1.3343e+02	-13.4274	-66.965989	0.000456	4.561598	1.545511	-0.000183
1343	1.3353e+02	-13.4659	-67.131512	0.000416	4.156123	1.408133	-0.000166
1344	1.3363e+02	-13.5157	-67.341443	0.000527	5.271180	1.785924	-0.000211
1345	1.3373e+02	-13.5558	-67.531188	0.000476	4.764336	1.614201	-0.000191
1346	1.3383e+02	-13.5895	-67.729008	0.000497	4.967074	1.682890	-0.000199
1347	1.3393e+02	-13.6247	-67.878382	0.000375	3.750647	1.270754	-0.000150
1348	1.3403e+02	-13.6681	-68.051979	0.000436	4.358860	1.476822	-0.000174
1349	1.3413e+02	-13.6953	-68.278058	0.000568	5.676655	1.923303	-0.000227
1350	1.3423e+02	-13.7531	-68.447618	0.000426	4.257492	1.442477	-0.000170
1351	1.3432e+02	-13.7852	-68.677735	0.000578	5.778024	1.957648	-0.000231
1352	1.3442e+02	-13.8301	-68.851331	0.000436	4.358860	1.476822	-0.000174
1353	1.3452e+02	-13.8750	-68.964371	0.000284	2.838328	0.961651	-0.000114
1354	1.3462e+02	-13.9103	-69.222748	0.000649	6.487606	2.198060	-0.000260
1355	1.3472e+02	-13.9472	-69.368085	0.000365	3.649279	1.236409	-0.000146
1356	1.3482e+02	-13.9921	-69.598202	0.000578	5.778024	1.957648	-0.000231
1357	1.3492e+02	-14.0322	-69.747576	0.000375	3.750647	1.270754	-0.000150
1358	1.3502e+02	-14.0691	-69.953470	0.000517	5.169811	1.751579	-0.000207
1359	1.3512e+02	-14.1172	-70.135141	0.000456	4.561598	1.545511	-0.000183
1360	1.3522e+02	-14.1525	-70.365257	0.000578	5.778024	1.957648	-0.000231
1361	1.3532e+02	-14.1846	-70.490409	0.000314	3.142434	1.064686	-0.000126
1362	1.3542e+02	-14.2263	-70.696302	0.000517	5.169811	1.751579	-0.000207
1363	1.3552e+02	-14.2809	-70.886048	0.000476	4.764336	1.614201	-0.000191
1364	1.3562e+02	-14.3082	-71.108090	0.000558	5.575287	1.888958	-0.000223
1365	1.3572e+02	-14.3531	-71.281687	0.000436	4.358860	1.476822	-0.000174
1366	1.3582e+02	-14.3916	-71.439135	0.000395	3.953385	1.339443	-0.000158
1367	1.3592e+02	-14.4253	-71.645029	0.000517	5.169811	1.751579	-0.000207
1368	1.3602e+02	-14.4686	-71.830738	0.000466	4.662967	1.579856	-0.000187
1369	1.3612e+02	-14.5039	-72.000297	0.000426	4.257492	1.442477	-0.000170
1370	1.3622e+02	-14.5504	-72.222340	0.000558	5.575287	1.888958	-0.000223
1371	1.3631e+02	-14.5921	-72.412085	0.000476	4.764336	1.614201	-0.000191
1372	1.3641e+02	-14.6322	-72.581645	0.000426	4.257492	1.442477	-0.000170
1373	1.3651e+02	-14.6611	-72.787539	0.000517	5.169811	1.751579	-0.000207
1374	1.3661e+02	-14.7028	-72.977284	0.000476	4.764336	1.614201	-0.000191
1375	1.3671e+02	-14.7493	-73.167030	0.000476	4.764336	1.614201	-0.000191
1376	1.3681e+02	-14.7830	-73.332552	0.000416	4.156123	1.408133	-0.000166
1377	1.3691e+02	-14.8279	-73.514223	0.000456	4.561598	1.545511	-0.000183
1378	1.3701e+02	-14.8664	-73.687820	0.000436	4.358860	1.476822	-0.000174
1379	1.3711e+02	-14.9065	-73.837194	0.000375	3.750647	1.270754	-0.000150
1380	1.3721e+02	-14.9466	-74.111719	0.000689	6.893082	2.335439	-0.000276
1381	1.3731e+02	-14.9739	-74.281279	0.000426	4.257492	1.442477	-0.000170
1382	1.3741e+02	-15.0220	-74.446802	0.000416	4.156123	1.408133	-0.000166
1383	1.3751e+02	-15.0654	-74.640584	0.000487	4.865705	1.648545	-0.000195
1384	1.3761e+02	-15.1103	-74.793995	0.000385	3.852016	1.305098	-0.000154
1385	1.3771e+02	-15.1456	-75.036223	0.000608	6.082131	2.060682	-0.000243
1386	1.3781e+02	-15.1809	-75.193672	0.000395	3.953385	1.339443	-0.000158
1387	1.3791e+02	-15.2210	-75.443974	0.000628	6.284869	2.129371	-0.000252
1388	1.3801e+02	-15.2739	-75.601422	0.000395	3.953385	1.339443	-0.000158
1389	1.3811e+02	-15.3108	-75.738685	0.000345	3.446541	1.167720	-0.000138
1390	1.3821e+02	-15.3365	-75.984950	0.000618	6.183500	2.095026	-0.000248
1391	1.3831e+02	-15.3974	-76.174696	0.000476	4.764336	1.614201	-0.000191
1392	1.3840e+02	-15.4183	-76.360404	0.000466	4.662967	1.579856	-0.000187
1393	1.3850e+02	-15.4616	-76.546112	0.000466	4.662967	1.579856	-0.000187
1394	1.3860e+02	-15.5001	-76.699523	0.000385	3.852016	1.305098	-0.000154
1395	1.3870e+02	-15.5466	-76.913492	0.000537	5.372549	1.820269	-0.000215
1396	1.3880e+02	-15.5867	-77.123423	0.000527	5.271180	1.785924	-0.000211
1397	1.3890e+02	-15.6300	-77.297019	0.000436	4.358860	1.476822	-0.000174
1398	1.3900e+02	-15.6653	-77.515025	0.000547	5.473918	1.854614	-0.000219
1399	1.3910e+02	-15.7006	-77.704770	0.000476	4.764336	1.614201	-0.000191
1400	1.3920e+02	-15.7407	-77.882404	0.000446	4.460229	1.511167	-0.000179
1401	1.3930e+02	-15.7744	-78.104447	0.000558	5.575287	1.888958	-0.000223
1402	1.3940e+02	-15.8161	-78.286118	0.000456	4.561598	1.545511	-0.000183
1403	1.3950e+02	-15.8530	-78.471826	0.000466	4.662967	1.579856	-0.000187
1404	1.3960e+02	-15.8915	-78.689831	0.000547	5.473918	1.854614	-0.000219
1405	1.3970e+02	-15.9525	-78.859391	0.000426	4.257492	1.442477	-0.000170
1406	1.3980e+02	-15.9798	-79.077396	0.000547	5.473918	1.854614	-0.000219
1407	1.3990e+02	-16.0231	-79.226770	0.000375	3.750647	1.270754	-0.000150
1408	1.4000e+02	-16.0600	-79.436701	0.000527	5.271180	1.785924	-0.000211
1409	1.4010e+02	-16.1145	-79.691041	0.000639	6.386237	2.163716	-0.000256
1410	1.4020e+02	-16.1322	-79.880786	0.000476	4.764336	1.614201	-0.000191
1411	1.4029e+02	-16.1883	-80.054383	0.000436	4.358860	1.476822	-0.000174
1412	1.4039e+02	-16.2156	-80.284500	0.000578	5.778024	1.957648	-0.000231
1413	1.4049e+02	-16.2525	-80.482320	0.000497	4.967074	1.682890	-0.000199
1414	1.4059e+02	-16.3038	-80.651879	0.000426	4.257492	1.442477	-0.000170
1415	1.4069e+02	-16.3359	-80.853736	0.000507	5.068442	1.717235	-0.000203
1416	1.4079e+02	-16.3712	-81.047519	0.000487	4.865705	1.648545	-0.000195
1417	1.4089e+02	-16.4257	-81.237264	0.000476	4.764336	1.614201	-0.000191
1418	1.4099e+02	-16.4594	-81.455269	0.000547	5.473918	1.854614	-0.000219
1419	1.4109e+02	-16.5027	-81.653089	0.000497	4.967074	1.682890	-0.000199
1420	1.4119e+02	-16.5332	-81.818611	0.000416	4.156123	1.408133	-0.000166
1421	1.4129e+02	-16.5781	-82.024505	0.000517	5.169811	1.751579	-0.000207
1422	1.4139e+02	-16.6247	-82.214251	0.000476	4.764336	1.614201	-0.000191
1423	1.4149e+02	-16.6567	-82.420145	0.000517	5.169811	1.751579	-0.000207
1424	1.4159e+02	-16.6953	-82.589704	0.000426	4.257492	1.442477	-0.000170
1425	1.4169e+02	-16.7321	-82.823858	0.000588	5.879393	1.991992	-0.000235
1426	1.4179e+02	-16.7819	-83.017641	0.000487	4.865705	1.648545	-0.000195
1427	1.4189e+02	-16.8204	-83.235646	0.000547	5.473918	1.854614	-0.000219
1428	1.4199e+02	-16.8557	-83.425391	0.000476	4.764336	1.614201	-0.000191
1429	1.4209e+02	-16.8894	-83.643397	0.000547	5.473918	1.854614	-0.000219
1430	1.4219e+02	-16.9359	-83.841216	0.000497	4.967074	1.682890	-0.000199
1431	1.4228e+02	-16.9808	-84.026925	0.000466	4.662967	1.579856	-0.000187
1432	1.4238e+02	-17.0113	-84.216670	0.000476	4.764336	1.614201	-0.000191
1433	1.4248e+02	-17.0594	-84.462935	0.000618	6.183500	2.095026	-0.000248
1434	1.4258e+02	-17.0995	-84.628458	0.000416	4.156123	1.408133	-0.000166
1435	1.4268e+02	-17.1284	-84.826278	0.000497	4.967074	1.682890	-0.000199
1436	1.4278e+02	-17.1797	-85.068506	0.000608	6.082131	2.060682	-0.000243
1437	1.4288e+02	-17.2182	-85.262288	0.000487	4.865705	1.648545	-0.000195
1438	1.4298e+02	-17.2599	-85.447996	0.000466	4.662967	1.579856	-0.000187
1439	1.4308e+02	-17.3017	-85.674076	0.000568	5.676655	1.923303	-0.000227
1440	1.4318e+02	-17.3402	-85.859784	0.000466	4.662967	1.579856	-0.000187
1441	1.4328e+02	-17.3674	-86.069715	0.000527	5.271180	1.785924	-0.000211
1442	1.4338e+02	-17.4252	-86.307906	0.000598	5.980762	2.026337	-0.000239
1443	1.4348e+02	-17.4557	-86.449206	0.000355	3.547910	1.202064	-0.000142
1444	1.4358e+02	-17.4910	-86.695471	0.000618	6.183500	2.095026	-0.000248
1445	1.4368e+02	-17.5359	-86.889254	0.000487	4.865705	1.648545	-0.000195
1446	1.4378e+02	-17.5680	-87.115334	0.000568	5.676655	1.923303	-0.000227
1447	1.4388e+02	-17.6049	-87.353525	0.000598	5.980762	2.026337	-0.000239
1448	1.4398e+02	-17.6578	-87.571530	0.000547	5.473918	1.854614	-0.000219
1449	1.4408e+02	-17.6931	-87.749164	0.000446	4.460229	1.511167	-0.000179
1450	1.4418e+02	-17.7316	-87.999466	0.000628	6.284869	2.129371	-0.000252
1451	1.4428e+02	-17.7797	-88.197286	0.000497	4.967074	1.682890	-0.000199
1452	1.4437e+02	-17.8150	-88.378957	0.000456	4.561598	1.545511	-0.000183
1453	1.4447e+02	-17.8567	-88.588888	0.000527	5.271180	1.785924	-0.000211
1454	1.4457e+02	-17.8888	-88.847265	0.000649	6.487606	2.198060	-0.000260
1455	1.4467e+02	-17.9369	-89.028936	0.000456	4.561598	1.545511	-0.000183
1456	1.4477e+02	-17.9706	-89.234830	0.000517	5.169811	1.751579	-0.000207
1457	1.4487e+02	-18.0171	-89.452835	0.000547	5.473918	1.854614	-0.000219
1458	1.4497e+02	-18.0508	-89.654692	0.000507	5.068442	1.717235	-0.000203
1459	1.4507e+02	-18.0974	-89.884809	0.000578	5.778024	1.957648	-0.000231
1460	1.4517e+02	-18.1326	-90.127037	0.000608	6.082131	2.060682	-0.000243
1461	1.4527e+02	-18.1711	-90.373302	0.000618	6.183500	2.095026	-0.000248
1462	1.4537e+02	-18.2161	-90.563047	0.000476	4.764336	1.614201	-0.000191
1463	1.4547e+02	-18.2481	-90.781053	0.000547	5.473918	1.854614	-0.000219
1464	1.4557e+02	-18.2850	-91.007132	0.000568	5.676655	1.923303	-0.000227
1465	1.4567e+02	-18.3139	-91.225138	0.000547	5.473918	1.854614	-0.000219
1466	1.4577e+02	-18.3749	-91.451217	0.000568	5.676655	1.923303	-0.000227
1467	1.4587e+02	-18.4070	-91.689408	0.000598	5.980762	2.026337	-0.000239
1468	1.4597e+02	-18.4567	-91.899339	0.000527	5.271180	1.785924	-0.000211
1469	1.4607e+02	-18.4968	-92.181939	0.000710	7.095819	2.404129	-0.000284
1470	1.4617e+02	-18.5273	-92.351499	0.000426	4.257492	1.442477	-0.000170
1471	1.4626e+02	-18.5722	-92.589690	0.000598	5.980762	2.026337	-0.000239
1472	1.4636e+02	-18.6139	-92.835955	0.000618	6.183500	2.095026	-0.000248
1473	1.4646e+02	-18.6540	-93.045886	0.000527	5.271180	1.785924	-0.000211
1474	1.4656e+02	-18.6861	-93.288114	0.000608	6.082131	2.060682	-0.000243
1475	1.4666e+02	-18.7246	-93.498045	0.000527	5.271180	1.785924	-0.000211
1476	1.4676e+02	-18.7695	-93.800830	0.000760	7.602664	2.575852	-0.000304
1477	1.4686e+02	-18.8144	-93.970390	0.000426	4.257492	1.442477	-0.000170
1478	1.4696e+02	-18.8529	-94.232804	0.000659	6.588975	2.232405	-0.000264
1479	1.4706e+02	-18.8930	-94.487143	0.000639	6.386237	2.163716	-0.000256
1480	1.4716e+02	-18.9235	-94.717260	0.000578	5.778024	1.957648	-0.000231
1481	1.4726e+02	-18.9733	-94.911043	0.000487	4.865705	1.648545	-0.000195
1482	1.4736e+02	-19.0037	-95.165382	0.000639	6.386237	2.163716	-0.000256
1483	1.4746e+02	-19.0471	-95.387425	0.000558	5.575287	1.888958	-0.000223
1484	1.4756e+02	-19.0840	-95.670024	0.000710	7.095819	2.404129	-0.000284
1485	1.4766e+02	-19.1305	-95.883992	0.000537	5.372549	1.820269	-0.000215
1486	1.4776e+02	-19.1690	-96.097961	0.000537	5.372549	1.820269	-0.000215
1487	1.4786e+02	-19.2155	-96.348263	0.000628	6.284869	2.129371	-0.000252
1488	1.4796e+02	-19.2460	-96.562231	0.000537	5.372549	1.820269	-0.000215
1489	1.4806e+02	-19.2941	-96.840794	0.000699	6.994450	2.369784	-0.000280
1490	1.4816e+02	-19.3278	-97.087059	0.000618	6.183500	2.095026	-0.000248
1491	1.4825e+02	-19.3695	-97.288916	0.000507	5.068442	1.717235	-0.000203
1492	1.4835e+02	-19.4096	-97.599775	0.000781	7.805401	2.644542	-0.000312
1493	1.4845e+02	-19.4513	-97.801632	0.000507	5.068442	1.717235	-0.000203
1494	1.4855e+02	-19.4866	-98.080194	0.000699	6.994450	2.369784	-0.000280
1495	1.4865e+02	-19.5171	-98.322422	0.000608	6.082131	2.060682	-0.000243
1496	1.4875e+02	-19.5765	-98.552539	0.000578	5.778024	1.957648	-0.000231
1497	1.4885e+02	-19.6101	-98.806879	0.000639	6.386237	2.163716	-0.000256
1498	1.4895e+02	-19.6374	-99.057181	0.000628	6.284869	2.129371	-0.000252
1499	1.4905e+02	-19.6775	-99.307483	0.000628	6.284869	2.129371	-0.000252
1500	1.4915e+02	-19.7208	-99.569897	0.000659	6.588975	2.232405	-0.000264
1501	1.4925e+02	-19.7690	-99.812125	0.000608	6.082131	2.060682	-0.000243
1502	1.4935e+02	-19.8059	-100.122985	0.000781	7.805401	2.644542	-0.000312
1503	1.4945e+02	-19.8412	-100.353102	0.000578	5.778024	1.957648	-0.000231
1504	1.4955e+02	-19.8877	-100.611478	0.000649	6.487606	2.198060	-0.000260
1505	1.4965e+02	-19.9278	-100.853706	0.000608	6.082131	2.060682	-0.000243
1506	1.4975e+02	-19.9711	-101.108046	0.000639	6.386237	2.163716	-0.000256
1507	1.4985e+02	-20.0080	-101.394683	0.000720	7.197188	2.438473	-0.000288
1508	1.4995e+02	-19.9663	-101.362386	0.000081	0.810951	0.274758	0.000032
1509	1.5005e+02	-19.9246	-101.422943	-0.000152	-1.520533	-0.515170	-0.000061
1510	1.5015e+02	-19.8829	-101.366423	0.000142	1.419164	0.480826	0.000057
1511	1.5025e+02	-19.8412	-101.362386	0.000010	0.101369	0.034345	0.000004
1512	1.5034e+02	-19.7994	-101.354311	0.000020	0.202738	0.068689	0.000008
1513	1.5044e+02	-19.7625	-101.346237	0.000020	0.202738	0.068689	0.000008
1514	1.5054e+02	-19.7176	-101.313940	0.000081	0.810951	0.274758	0.000032
1515	1.5064e+02	-19.6871	-101.289717	0.000061	0.608213	0.206068	0.000024
1516	1.5074e+02	-19.6342	-101.192826	0.000243	2.432852	0.824273	0.000097
1517	1.5084e+02	-19.6134	-101.200900	-0.000020	-0.202738	-0.068689	-0.000008
1518	1.5094e+02	-19.5636	-101.172640	0.000071	0.709582	0.240413	0.000028
1519	1.5104e+02	-19.5203	-101.120157	0.000132	1.317795	0.446481	0.000053
1520	1.5114e+02	-19.4930	-101.079786	0.000101	1.013688	0.343447	0.000041
1521	1.5124e+02	-19.4449	-101.019229	0.000152	1.520533	0.515170	0.000061
1522	1.5134e+02	-19.4112	-100.995006	0.000061	0.608213	0.206068	0.000024
1523	1.5144e+02	-19.3663	-100.910226	0.000213	2.128746	0.721239	0.000085
1524	1.5154e+02	-19.3294	-100.894078	0.000041	0.405475	0.137379	0.000016
1525	1.5164e+02	-19.2925	-100.861781	0.000081	0.810951	0.274758	0.000032
1526	1.5174e+02	-19.2508	-100.772964	0.000223	2.230115	0.755583	0.000089
1527	1.5184e+02	-19.2139	-100.720481	0.000132	1.317795	0.446481	0.000053
1528	1.5194e+02	-19.1722	-100.647813	0.000182	1.824639	0.618205	0.000073
1529	1.5204e+02	-19.1305	-100.607441	0.000101	1.013688	0.343447	0.000041
1530	1.5214e+02	-19.0872	-100.550921	0.000142	1.419164	0.480826	0.000057
1531	1.5224e+02	-19.0535	-100.474216	0.000193	1.926008	0.652549	0.000077
1532	1.5233e+02	-19.0070	-100.381362	0.000233	2.331483	0.789928	0.000093
1533	1.5243e+02	-18.9684	-100.332916	0.000122	1.216426	0.412136	0.000049
1534	1.5253e+02	-18.9380	-100.300619	0.000081	0.810951	0.274758	0.000032
1535	1.5263e+02	-18.8882	-100.211802	0.000223	2.230115	0.755583	0.000089
1536	1.5273e+02	-18.8481	-100.131059	0.000203	2.027377	0.686894	0.000081
1537	1.5283e+02	-18.8064	-100.050316	0.000203	2.027377	0.686894	0.000081
1538	1.5293e+02	-18.7791	-99.961499	0.000223	2.230115	0.755583	0.000089
1539	1.5303e+02	-18.7278	-99.913054	0.000122	1.216426	0.412136	0.000049
1540	1.5313e+02	-18.6909	-99.868645	0.000112	1.115057	0.377792	0.000045
1541	1.5323e+02	-18.6492	-99.759643	0.000274	2.736959	0.927307	0.000110
1542	1.5333e+02	-18.6107	-99.686974	0.000182	1.824639	0.618205	0.000073
1543	1.5343e+02	-18.5738	-99.622380	0.000162	1.621902	0.549515	0.000065
1544	1.5353e+02	-18.5305	-99.525489	0.000243	2.432852	0.824273	0.000097
1545	1.5363e+02	-18.4808	-99.432635	0.000233	2.331483	0.789928	0.000093
1546	1.5373e+02	-18.4503	-99.343818	0.000223	2.230115	0.755583	0.000089
1547	1.5383e+02	-18.4118	-99.222704	0.000304	3.041065	1.030341	0.000122
1548	1.5393e+02	-18.3765	-99.210592	0.000030	0.304107	0.103034	0.000012
1549	1.5403e+02	-18.3380	-99.105627	0.000264	2.635590	0.892962	0.000105
1550	1.5413e+02	-18.2947	-98.968364	0.000345	3.446541	1.167720	0.000138
1551	1.5422e+02	-18.2610	-98.923956	0.000112	1.115057	0.377792	0.000045
1552	1.5432e+02	-18.2161	-98.810916	0.000284	2.838328	0.961651	0.000114
1553	1.5442e+02	-18.1808	-98.722099	0.000223	2.230115	0.755583	0.000089
1554	1.5452e+02	-18.1310	-98.633282	0.000223	2.230115	0.755583	0.000089
1555	1.5462e+02	-18.0974	-98.536391	0.000243	2.432852	0.824273	0.000097
1556	1.5472e+02	-18.0556	-98.483908	0.000132	1.317795	0.446481	0.000053
1557	1.5482e+02	-18.0059	-98.374905	0.000274	2.736959	0.927307	0.000110
1558	1.5492e+02	-17.9786	-98.282051	0.000233	2.331483	0.789928	0.000093
1559	1.5502e+02	-17.9337	-98.164974	0.000294	2.939697	0.995996	0.000118
1560	1.5512e+02	-17.8936	-98.043860	0.000304	3.041065	1.030341	0.000122
1561	1.5522e+02	-17.8551	-97.979266	0.000162	1.621902	0.549515	0.000065
1562	1.5532e+02	-17.8134	-97.850077	0.000324	3.243803	1.099030	0.000130
1563	1.5542e+02	-17.7765	-97.777409	0.000182	1.824639	0.618205	0.000073
1564	1.5552e+02	-17.7348	-97.660332	0.000294	2.939697	0.995996	0.000118
1565	1.5562e+02	-17.6899	-97.595738	0.000162	1.621902	0.549515	0.000065
1566	1.5572e+02	-17.6530	-97.446364	0.000375	3.750647	1.270754	0.000150
1567	1.5582e+02	-17.6193	-97.329287	0.000294	2.939697	0.995996	0.000118
1568	1.5592e+02	-17.5680	-97.280841	0.000122	1.216426	0.412136	0.000049
1569	1.5602e+02	-17.5295	-97.139542	0.000355	3.547910	1.202064	0.000142
1570	1.5612e+02	-17.4974	-97.062836	0.000193	1.926008	0.652549	0.000077
1571	1.5622e+02	-17.4605	-96.937685	0.000314	3.142434	1.064686	0.000126
1572	1.5631e+02	-17.4139	-96.852905	0.000213	2.128746	0.721239	0.000085
1573	1.5641e+02	-17.3706	-96.751977	0.000253	2.534221	0.858617	0.000101
1574	1.5651e+02	-17.3369	-96.647011	0.000264	2.635590	0.892962	0.000105
1575	1.5661e+02	-17.3033	-96.533971	0.000284	2.838328	0.961651	0.000114
1576	1.5671e+02	-17.2599	-96.445154	0.000223	2.230115	0.755583	0.000089
1577	1.5681e+02	-17.2150	-96.348263	0.000243	2.432852	0.824273	0.000097
1578	1.5691e+02	-17.1701	-96.275595	0.000182	1.824639	0.618205	0.000073
1579	1.5701e+02	-17.1332	-96.089886	0.000466	4.662967	1.579856	0.000187
1580	1.5711e+02	-17.0963	-96.017218	0.000182	1.824639	0.618205	0.000073
1581	1.5721e+02	-17.0578	-95.900141	0.000294	2.939697	0.995996	0.000118
1582	1.5731e+02	-17.0193	-95.783064	0.000294	2.939697	0.995996	0.000118
1583	1.5741e+02	-16.9776	-95.702321	0.000203	2.027377	0.686894	0.000081
1584	1.5751e+02	-16.9359	-95.601393	0.000253	2.534221	0.858617	0.000101
1585	1.5761e+02	-16.9006	-95.443945	0.000395	3.953385	1.339443	0.000158
1586	1.5771e+02	-16.8541	-95.330905	0.000284	2.838328	0.961651	0.000114
1587	1.5781e+02	-16.8268	-95.213828	0.000294	2.939697	0.995996	0.000118
1588	1.5791e+02	-16.7771	-95.125011	0.000223	2.230115	0.755583	0.000089
1589	1.5801e+02	-16.7321	-94.951414	0.000436	4.358860	1.476822	0.000174
1590	1.5811e+02	-16.7081	-94.894894	0.000142	1.419164	0.480826	0.000057
1591	1.5821e+02	-16.6616	-94.798003	0.000243	2.432852	0.824273	0.000097
1592	1.5830e+02	-16.6295	-94.684963	0.000284	2.838328	0.961651	0.000114
1593	1.5840e+02	-16.5781	-94.571923	0.000284	2.838328	0.961651	0.000114
1594	1.5850e+02	-16.5445	-94.434661	0.000345	3.446541	1.167720	0.000138
1595	1.5860e+02	-16.4883	-94.317584	0.000294	2.939697	0.995996	0.000118
1596	1.5870e+02	-16.4626	-94.172247	0.000365	3.649279	1.236409	0.000146
1597	1.5880e+02	-16.4193	-94.063244	0.000274	2.736959	0.927307	0.000110
1598	1.5890e+02	-16.3856	-93.958279	0.000264	2.635590	0.892962	0.000105
1599	1.5900e+02	-16.3455	-93.825053	0.000335	3.345172	1.133375	0.000134
1600	1.5910e+02	-16.3070	-93.699902	0.000314	3.142434	1.064686	0.000126
1601	1.5920e+02	-16.2589	-93.578788	0.000304	3.041065	1.030341	0.000122
1602	1.5930e+02	-16.2236	-93.441525	0.000345	3.446541	1.167720	0.000138
1603	1.5940e+02	-16.1771	-93.324448	0.000294	2.939697	0.995996	0.000118
1604	1.5950e+02	-16.1386	-93.219483	0.000264	2.635590	0.892962	0.000105
1605	1.5960e+02	-16.1033	-93.138740	0.000203	2.027377	0.686894	0.000081
1606	1.5970e+02	-16.0600	-92.953032	0.000466	4.662967	1.579856	0.000187
1607	1.5980e+02	-16.0199	-92.864215	0.000223	2.230115	0.755583	0.000089
1608	1.5990e+02	-15.9846	-92.735026	0.000324	3.243803	1.099030	0.000130
1609	1.6000e+02	-15.9364	-92.557392	0.000446	4.460229	1.511167	0.000179
1610	1.6010e+02	-15.9092	-92.440316	0.000294	2.939697	0.995996	0.000118
1611	1.6019e+02	-15.8643	-92.307090	0.000335	3.345172	1.133375	0.000134
1612	1.6029e+02	-15.8177	-92.206162	0.000253	2.534221	0.858617	0.000101
1613	1.6039e+02	-15.7792	-92.076973	0.000324	3.243803	1.099030	0.000130
1614	1.6049e+02	-15.7455	-91.972008	0.000264	2.635590	0.892962	0.000105
1615	1.6059e+02	-15.6974	-91.806485	0.000416	4.156123	1.408133	0.000166
1616	1.6069e+02	-15.6621	-91.685371	0.000304	3.041065	1.030341	0.000122
1617	1.6079e+02	-15.6172	-91.596554	0.000223	2.230115	0.755583	0.000089
1618	1.6089e+02	-15.5980	-91.414883	0.000456	4.561598	1.545511	0.000183
1619	1.6099e+02	-15.5562	-91.301843	0.000284	2.838328	0.961651	0.000114
1620	1.6109e+02	-15.5033	-91.164581	0.000345	3.446541	1.167720	0.000138
1621	1.6119e+02	-15.4760	-91.051541	0.000284	2.838328	0.961651	0.000114
1622	1.6129e+02	-15.4199	-90.894093	0.000395	3.953385	1.339443	0.000158
1623	1.6139e+02	-15.3782	-90.797201	0.000243	2.432852	0.824273	0.000097
1624	1.6149e+02	-15.3429	-90.627642	0.000426	4.257492	1.442477	0.000170
1625	1.6159e+02	-15.3028	-90.458082	0.000426	4.257492	1.442477	0.000170
1626	1.6169e+02	-15.2563	-90.369265	0.000223	2.230115	0.755583	0.000089
1627	1.6179e+02	-15.2274	-90.215854	0.000385	3.852016	1.305098	0.000154
1628	1.6189e+02	-15.1905	-90.078591	0.000345	3.446541	1.167720	0.000138
1629	1.6199e+02	-15.1472	-89.957477	0.000304	3.041065	1.030341	0.000122
1630	1.6209e+02	-15.1039	-89.864623	0.000233	2.331483	0.789928	0.000093
1631	1.6219e+02	-15.0621	-89.699100	0.000416	4.156123	1.408133	0.000166
1632	1.6228e+02	-15.0220	-89.561838	0.000345	3.446541	1.167720	0.000138
1633	1.6238e+02	-14.9803	-89.392278	0.000426	4.257492	1.442477	0.000170
1634	1.6248e+02	-14.9434	-89.287313	0.000264	2.635590	0.892962	0.000105
1635	1.6258e+02	-14.9081	-89.186384	0.000253	2.534221	0.858617	0.000101
1636	1.6268e+02	-14.8648	-89.016824	0.000426	4.257492	1.442477	0.000170
1637	1.6278e+02	-14.8343	-88.871488	0.000365	3.649279	1.236409	0.000146
1638	1.6288e+02	-14.7926	-88.770559	0.000253	2.534221	0.858617	0.000101
1639	1.6298e+02	-14.7525	-88.572740	0.000497	4.967074	1.682890	0.000199
1640	1.6308e+02	-14.7012	-88.455663	0.000294	2.939697	0.995996	0.000118
1641	1.6318e+02	-14.6579	-88.330511	0.000314	3.142434	1.064686	0.000126
1642	1.6328e+02	-14.6210	-88.233620	0.000243	2.432852	0.824273	0.000097
1643	1.6338e+02	-14.5905	-88.055986	0.000446	4.460229	1.511167	0.000179
1644	1.6348e+02	-14.5456	-87.934872	0.000304	3.041065	1.030341	0.000122
1645	1.6358e+02	-14.5119	-87.801647	0.000335	3.345172	1.133375	0.000134
1646	1.6368e+02	-14.4606	-87.648235	0.000385	3.852016	1.305098	0.000154
1647	1.6378e+02	-14.4253	-87.450416	0.000497	4.967074	1.682890	0.000199
1648	1.6388e+02	-14.3868	-87.393896	0.000142	1.419164	0.480826	0.000057
1649	1.6398e+02	-14.3515	-87.167816	0.000568	5.676655	1.923303	0.000227
1650	1.6408e+02	-14.3065	-87.066888	0.000253	2.534221	0.858617	0.000101
1651	1.6418e+02	-14.2664	-86.921551	0.000365	3.649279	1.236409	0.000146
1652	1.6427e+02	-14.2279	-86.751991	0.000426	4.257492	1.442477	0.000170
1653	1.6437e+02	-14.1926	-86.618766	0.000335	3.345172	1.133375	0.000134
1654	1.6447e+02	-14.1429	-86.481503	0.000345	3.446541	1.167720	0.000138
1655	1.6457e+02	-14.1156	-86.307906	0.000436	4.358860	1.476822	0.000174
1656	1.6467e+02	-14.0771	-86.130272	0.000446	4.460229	1.511167	0.000179
1657	1.6477e+02	-14.0258	-86.061641	0.000172	1.723270	0.583860	0.000069
1658	1.6487e+02	-13.9889	-85.871896	0.000476	4.764336	1.614201	0.000191
1659	1.6497e+02	-13.9456	-85.742707	0.000324	3.243803	1.099030	0.000130
1660	1.6507e+02	-13.9023	-85.593333	0.000375	3.750647	1.270754	0.000150
1661	1.6517e+02	-13.8654	-85.480294	0.000284	2.838328	0.961651	0.000114
1662	1.6527e+02	-13.8317	-85.270362	0.000527	5.271180	1.785924	0.000211
1663	1.6537e+02	-13.7900	-85.201731	0.000172	1.723270	0.583860	0.000069
1664	1.6547e+02	-13.7403	-85.003912	0.000497	4.967074	1.682890	0.000199
1665	1.6557e+02	-13.7130	-84.818203	0.000466	4.662967	1.579856	0.000187
1666	1.6567e+02	-13.6713	-84.693052	0.000314	3.142434	1.064686	0.000126
1667	1.6577e+02	-13.6312	-84.519455	0.000436	4.358860	1.476822	0.000174
1668	1.6587e+02	-13.5879	-84.410453	0.000274	2.736959	0.927307	0.000110
1669	1.6597e+02	-13.5461	-84.208596	0.000507	5.068442	1.717235	0.000203
1670	1.6607e+02	-13.5141	-84.083445	0.000314	3.142434	1.064686	0.000126
1671	1.6616e+02	-13.4675	-83.954256	0.000324	3.243803	1.099030	0.000130
1672	1.6626e+02	-13.4306	-83.784697	0.000426	4.257492	1.442477	0.000170
1673	1.6636e+02	-13.3937	-83.667620	0.000294	2.939697	0.995996	0.000118
1674	1.6646e+02	-13.3488	-83.457689	0.000527	5.271180	1.785924	0.000211
1675	1.6656e+02	-13.3151	-83.324463	0.000335	3.345172	1.133375	0.000134
1676	1.6666e+02	-13.2686	-83.142792	0.000456	4.561598	1.545511	0.000183
1677	1.6676e+02	-13.2349	-83.053975	0.000223	2.230115	0.755583	0.000089
1678	1.6686e+02	-13.1964	-82.868267	0.000466	4.662967	1.579856	0.000187
1679	1.6696e+02	-13.1451	-82.722930	0.000365	3.649279	1.236409	0.000146
1680	1.6706e+02	-13.1114	-82.561444	0.000405	4.054754	1.373788	0.000162
1681	1.6716e+02	-13.0745	-82.395922	0.000416	4.156123	1.408133	0.000166
1682	1.6726e+02	-13.0328	-82.218288	0.000446	4.460229	1.511167	0.000179
1683	1.6736e+02	-12.9879	-82.093137	0.000314	3.142434	1.064686	0.000126
1684	1.6746e+02	-12.9526	-81.931651	0.000405	4.054754	1.373788	0.000162
1685	1.6756e+02	-12.9141	-81.778240	0.000385	3.852016	1.305098	0.000154
1686	1.6766e+02	-12.8692	-81.624829	0.000385	3.852016	1.305098	0.000154
1687	1.6776e+02	-12.8371	-81.483529	0.000355	3.547910	1.202064	0.000142
1688	1.6786e+02	-12.7857	-81.338192	0.000365	3.649279	1.236409	0.000146
1689	1.6796e+02	-12.7504	-81.188818	0.000375	3.750647	1.270754	0.000150
1690	1.6806e+02	-12.7248	-81.015221	0.000436	4.358860	1.476822	0.000174
1691	1.6816e+02	-12.6718	-80.869885	0.000365	3.649279	1.236409	0.000146
1692	1.6825e+02	-12.6333	-80.692251	0.000446	4.460229	1.511167	0.000179
1693	1.6835e+02	-12.5964	-80.518654	0.000436	4.358860	1.476822	0.000174
1694	1.6845e+02	-12.5563	-80.429837	0.000223	2.230115	0.755583	0.000089
1695	1.6855e+02	-12.5082	-80.207794	0.000558	5.575287	1.888958	0.000223
1696	1.6865e+02	-12.4825	-80.062457	0.000365	3.649279	1.236409	0.000146
1697	1.6875e+02	-12.4408	-79.929232	0.000335	3.345172	1.133375	0.000134
1698	1.6885e+02	-12.3943	-79.727375	0.000507	5.068442	1.717235	0.000203
1699	1.6895e+02	-12.3558	-79.549741	0.000446	4.460229	1.511167	0.000179
1700	1.6905e+02	-12.3125	-79.428627	0.000304	3.041065	1.030341	0.000122
1701	1.6915e+02	-12.2756	-79.287327	0.000355	3.547910	1.202064	0.000142
1702	1.6925e+02	-12.2355	-79.097582	0.000476	4.764336	1.614201	0.000191
1703	1.6935e+02	-12.1954	-78.919948	0.000446	4.460229	1.511167	0.000179
1704	1.6945e+02	-12.1585	-78.806908	0.000284	2.838328	0.961651	0.000114
1705	1.6955e+02	-12.1216	-78.625237	0.000456	4.561598	1.545511	0.000183
1706	1.6965e+02	-12.0719	-78.496049	0.000324	3.243803	1.099030	0.000130
1707	1.6975e+02	-12.0382	-78.302266	0.000487	4.865705	1.648545	0.000195
1708	1.6985e+02	-11.9965	-78.148855	0.000385	3.852016	1.305098	0.000154
1709	1.6995e+02	-11.9547	-77.999481	0.000375	3.750647	1.270754	0.000150
1710	1.7005e+02	-11.9162	-77.850107	0.000375	3.750647	1.270754	0.000150
1711	1.7015e+02	-11.8809	-77.660362	0.000476	4.764336	1.614201	0.000191
1712	1.7024e+02	-11.8360	-77.490802	0.000426	4.257492	1.442477	0.000170
1713	1.7034e+02	-11.8039	-77.349502	0.000355	3.547910	1.202064	0.000142
1714	1.7044e+02	-11.7622	-77.159757	0.000476	4.764336	1.614201	0.000191
1715	1.7054e+02	-11.7221	-76.974049	0.000466	4.662967	1.579856	0.000187
1716	1.7064e+02	-11.6772	-76.844860	0.000324	3.243803	1.099030	0.000130
1717	1.7074e+02	-11.6307	-76.699523	0.000365	3.649279	1.236409	0.000146
1718	1.7084e+02	-11.5938	-76.509778	0.000476	4.764336	1.614201	0.000191
1719	1.7094e+02	-11.5649	-76.356367	0.000385	3.852016	1.305098	0.000154
1720	1.7104e+02	-11.5232	-76.198918	0.000395	3.953385	1.339443	0.000158
1721	1.7114e+02	-11.4831	-76.037433	0.000405	4.054754	1.373788	0.000162
1722	1.7124e+02	-11.4350	-75.839613	0.000497	4.967074	1.682890	0.000199
1723	1.7134e+02	-11.3981	-75.670054	0.000426	4.257492	1.442477	0.000170
1724	1.7144e+02	-11.3596	-75.512605	0.000395	3.953385	1.339443	0.000158
1725	1.7154e+02	-11.3259	-75.371306	0.000355	3.547910	1.202064	0.000142
1726	1.7164e+02	-11.2729	-75.165412	0.000517	5.169811	1.751579	0.000207
1727	1.7174e+02	-11.2328	-75.016038	0.000375	3.750647	1.270754	0.000150
1728	1.7184e+02	-11.2024	-74.866664	0.000375	3.750647	1.270754	0.000150
1729	1.7194e+02	-11.1671	-74.701141	0.000416	4.156123	1.408133	0.000166
1730	1.7204e+02	-11.1205	-74.503321	0.000497	4.967074	1.682890	0.000199
1731	1.7213e+02	-11.0772	-74.337799	0.000416	4.156123	1.408133	0.000166
1732	1.7223e+02	-11.0339	-74.164202	0.000436	4.358860	1.476822	0.000174
1733	1.7233e+02	-11.0082	-74.043088	0.000304	3.041065	1.030341	0.000122
1734	1.7243e+02	-10.9601	-73.861417	0.000456	4.561598	1.545511	0.000183
1735	1.7253e+02	-10.9200	-73.708006	0.000385	3.852016	1.305098	0.000154
1736	1.7263e+02	-10.8655	-73.534409	0.000436	4.358860	1.476822	0.000174
1737	1.7273e+02	-10.8430	-73.360812	0.000436	4.358860	1.476822	0.000174
1738	1.7283e+02	-10.7965	-73.203364	0.000395	3.953385	1.339443	0.000158
1739	1.7293e+02	-10.7724	-73.025730	0.000446	4.460229	1.511167	0.000179
1740	1.7303e+02	-10.7163	-72.868282	0.000395	3.953385	1.339443	0.000158
1741	1.7313e+02	-10.6762	-72.690648	0.000446	4.460229	1.511167	0.000179
1742	1.7323e+02	-10.6313	-72.529162	0.000405	4.054754	1.373788	0.000162
1743	1.7333e+02	-10.6072	-72.347491	0.000456	4.561598	1.545511	0.000183
1744	1.7343e+02	-10.5703	-72.173894	0.000436	4.358860	1.476822	0.000174
1745	1.7353e+02	-10.5350	-71.988186	0.000466	4.662967	1.579856	0.000187
1746	1.7363e+02	-10.4805	-71.899369	0.000223	2.230115	0.755583	0.000089
1747	1.7373e+02	-10.4420	-71.681364	0.000547	5.473918	1.854614	0.000219
1748	1.7383e+02	-10.3938	-71.527952	0.000385	3.852016	1.305098	0.000154
1749	1.7393e+02	-10.3569	-71.334170	0.000487	4.865705	1.648545	0.000195
1750	1.7403e+02	-10.3136	-71.152499	0.000456	4.561598	1.545511	0.000183
1751	1.7413e+02	-10.2831	-71.051570	0.000253	2.534221	0.858617	0.000101
1752	1.7422e+02	-10.2446	-70.821454	0.000578	5.778024	1.957648	0.000231
1753	1.7432e+02	-10.2109	-70.692265	0.000324	3.243803	1.099030	0.000130
1754	1.7442e+02	-10.1580	-70.514631	0.000446	4.460229	1.511167	0.000179
1755	1.7452e+02	-10.1275	-70.324886	0.000476	4.764336	1.614201	0.000191
1756	1.7462e+02	-10.0890	-70.114955	0.000527	5.271180	1.785924	0.000211
1757	1.7472e+02	-10.0489	-69.985767	0.000324	3.243803	1.099030	0.000130
1758	1.7482e+02	-10.0008	-69.816207	0.000426	4.257492	1.442477	0.000170
1759	1.7492e+02	-9.9655	-69.634536	0.000456	4.561598	1.545511	0.000183
1760	1.7502e+02	-9.9142	-69.464976	0.000426	4.257492	1.442477	0.000170
1761	1.7512e+02	-9.8837	-69.283305	0.000456	4.561598	1.545511	0.000183
1762	1.7522e+02	-9.8452	-69.121820	0.000405	4.054754	1.373788	0.000162
1763	1.7532e+02	-9.8083	-68.936111	0.000466	4.662967	1.579856	0.000187
1764	1.7542e+02	-9.7666	-68.770589	0.000416	4.156123	1.408133	0.000166
1765	1.7552e+02	-9.7265	-68.568732	0.000507	5.068442	1.717235	0.000203
1766	1.7562e+02	-9.6848	-68.403209	0.000416	4.156123	1.408133	0.000166
1767	1.7572e+02	-9.6543	-68.269984	0.000335	3.345172	1.133375	0.000134
1768	1.7582e+02	-9.6061	-68.076201	0.000487	4.865705	1.648545	0.000195
1769	1.7592e+02	-9.5676	-67.910679	0.000416	4.156123	1.408133	0.000166
1770	1.7602e+02	-9.5324	-67.745156	0.000416	4.156123	1.408133	0.000166
1771	1.7612e+02	-9.4906	-67.531188	0.000537	5.372549	1.820269	0.000215
1772	1.7621e+02	-9.4537	-67.357591	0.000436	4.358860	1.476822	0.000174
1773	1.7631e+02	-9.4072	-67.216291	0.000355	3.547910	1.202064	0.000142
1774	1.7641e+02	-9.3655	-66.994249	0.000558	5.575287	1.888958	0.000223
1775	1.7651e+02	-9.3270	-66.877172	0.000294	2.939697	0.995996	0.000118
1776	1.7661e+02	-9.2869	-66.659167	0.000547	5.473918	1.854614	0.000219
1777	1.7671e+02	-9.2484	-66.509793	0.000375	3.750647	1.270754	0.000150
1778	1.7681e+02	-9.2099	-66.316010	0.000487	4.865705	1.648545	0.000195
1779	1.7691e+02	-9.1666	-66.142413	0.000436	4.358860	1.476822	0.000174
1780	1.7701e+02	-9.1297	-65.960742	0.000456	4.561598	1.545511	0.000183
1781	1.7711e+02	-9.0864	-65.799257	0.000405	4.054754	1.373788	0.000162
1782	1.7721e+02	-9.0559	-65.601437	0.000497	4.967074	1.682890	0.000199
1783	1.7731e+02	-9.0046	-65.399580	0.000507	5.068442	1.717235	0.000203
1784	1.7741e+02	-8.9725	-65.217909	0.000456	4.561598	1.545511	0.000183
1785	1.7751e+02	-8.9227	-65.052387	0.000416	4.156123	1.408133	0.000166
1786	1.7761e+02	-8.8907	-64.854567	0.000497	4.967074	1.682890	0.000199
1787	1.7771e+02	-8.8473	-64.697119	0.000395	3.953385	1.339443	0.000158
1788	1.7781e+02	-8.8185	-64.515448	0.000456	4.561598	1.545511	0.000183
1789	1.7791e+02	-8.7623	-64.325702	0.000476	4.764336	1.614201	0.000191
1790	1.7801e+02	-8.7238	-64.180365	0.000365	3.649279	1.236409	0.000146
1791	1.7810e+02	-8.6789	-63.978509	0.000507	5.068442	1.717235	0.000203
1792	1.7820e+02	-8.6516	-63.792800	0.000466	4.662967	1.579856	0.000187
1793	1.7830e+02	-8.6035	-63.599018	0.000487	4.865705	1.648545	0.000195
1794	1.7840e+02	-8.5666	-63.413310	0.000466	4.662967	1.579856	0.000187
1795	1.7850e+02	-8.5281	-63.276047	0.000345	3.446541	1.167720	0.000138
1796	1.7860e+02	-8.4864	-63.029782	0.000618	6.183500	2.095026	0.000248
1797	1.7870e+02	-8.4351	-62.880408	0.000375	3.750647	1.270754	0.000150
1798	1.7880e+02	-8.4078	-62.698737	0.000456	4.561598	1.545511	0.000183
1799	1.7890e+02	-8.3693	-62.513028	0.000466	4.662967	1.579856	0.000187
1800	1.7900e+02	-8.3244	-62.355580	0.000395	3.953385	1.339443	0.000158
1801	1.7910e+02	-8.2859	-62.101240	0.000639	6.386237	2.163716	0.000256
1802	1.7920e+02	-8.2506	-61.968015	0.000335	3.345172	1.133375	0.000134
1803	1.7930e+02	-8.2105	-61.790381	0.000446	4.460229	1.511167	0.000179
1804	1.7940e+02	-8.1591	-61.596599	0.000487	4.865705	1.648545	0.000195
1805	1.7950e+02	-8.1335	-61.427039	0.000426	4.257492	1.442477	0.000170
1806	1.7960e+02	-8.0934	-61.249405	0.000446	4.460229	1.511167	0.000179
1807	1.7970e+02	-8.0532	-61.059659	0.000476	4.764336	1.614201	0.000191
1808	1.7980e+02	-8.0099	-60.869914	0.000476	4.764336	1.614201	0.000191
1809	1.7990e+02	-7.9762	-60.732651	0.000345	3.446541	1.167720	0.000138
1810	1.8000e+02	-7.9249	-60.526758	0.000517	5.169811	1.751579	0.000207
1811	1.8009e+02	-7.8944	-60.316826	0.000527	5.271180	1.785924	0.000211
1812	1.8019e+02	-7.8447	-60.110933	0.000517	5.169811	1.751579	0.000207
1813	1.8029e+02	-7.8190	-59.921187	0.000476	4.764336	1.614201	0.000191
1814	1.8039e+02	-7.7645	-59.763739	0.000395	3.953385	1.339443	0.000158
1815	1.8049e+02	-7.7404	-59.565919	0.000497	4.967074	1.682890	0.000199
1816	1.8059e+02	-7.6843	-59.364062	0.000507	5.068442	1.717235	0.000203
1817	1.8069e+02	-7.6538	-59.174317	0.000476	4.764336	1.614201	0.000191
1818	1.8079e+02	-7.6121	-58.996683	0.000446	4.460229	1.511167	0.000179
1819	1.8089e+02	-7.5784	-58.815012	0.000456	4.561598	1.545511	0.000183
1820	1.8099e+02	-7.5239	-58.605081	0.000527	5.271180	1.785924	0.000211
1821	1.8109e+02	-7.5030	-58.427447	0.000446	4.460229	1.511167	0.000179
1822	1.8119e+02	-7.4581	-58.249813	0.000446	4.460229	1.511167	0.000179
1823	1.8129e+02	-7.4164	-58.031808	0.000547	5.473918	1.854614	0.000219
1824	1.8139e+02	-7.3763	-57.866285	0.000416	4.156123	1.408133	0.000166
1825	1.8149e+02	-7.3313	-57.664428	0.000507	5.068442	1.717235	0.000203
1826	1.8159e+02	-7.2944	-57.490831	0.000436	4.358860	1.476822	0.000174
1827	1.8169e+02	-7.2575	-57.284938	0.000517	5.169811	1.751579	0.000207
1828	1.8179e+02	-7.2062	-57.091155	0.000487	4.865705	1.648545	0.000195
1829	1.8189e+02	-7.1805	-56.889298	0.000507	5.068442	1.717235	0.000203
1830	1.8199e+02	-7.1324	-56.715701	0.000436	4.358860	1.476822	0.000174
1831	1.8209e+02	-7.1051	-56.489622	0.000568	5.676655	1.923303	0.000227
1832	1.8218e+02	-7.0570	-56.311988	0.000446	4.460229	1.511167	0.000179
1833	1.8228e+02	-7.0121	-56.118205	0.000487	4.865705	1.648545	0.000195
1834	1.8238e+02	-6.9736	-55.928460	0.000476	4.764336	1.614201	0.000191
1835	1.8248e+02	-6.9415	-55.718529	0.000527	5.271180	1.785924	0.000211
1836	1.8258e+02	-6.9030	-55.524746	0.000487	4.865705	1.648545	0.000195
1837	1.8268e+02	-6.8549	-55.318852	0.000517	5.169811	1.751579	0.000207
1838	1.8278e+02	-6.8228	-55.133144	0.000466	4.662967	1.579856	0.000187
1839	1.8288e+02	-6.7747	-54.935325	0.000497	4.967074	1.682890	0.000199
1840	1.8298e+02	-6.7378	-54.757691	0.000446	4.460229	1.511167	0.000179
1841	1.8308e+02	-6.6929	-54.580057	0.000446	4.460229	1.511167	0.000179
1842	1.8318e+02	-6.6560	-54.406460	0.000436	4.358860	1.476822	0.000174
1843	1.8328e+02	-6.6207	-54.200566	0.000517	5.169811	1.751579	0.000207
1844	1.8338e+02	-6.5741	-53.986598	0.000537	5.372549	1.820269	0.000215
1845	1.8348e+02	-6.5389	-53.788778	0.000497	4.967074	1.682890	0.000199
1846	1.8358e+02	-6.4987	-53.558661	0.000578	5.778024	1.957648	0.000231
1847	1.8368e+02	-6.4635	-53.393139	0.000416	4.156123	1.408133	0.000166
1848	1.8378e+02	-6.4169	-53.203393	0.000476	4.764336	1.614201	0.000191
1849	1.8388e+02	-6.3800	-52.989425	0.000537	5.372549	1.820269	0.000215
1850	1.8398e+02	-6.3463	-52.827940	0.000405	4.054754	1.373788	0.000162
1851	1.8407e+02	-6.3062	-52.622046	0.000517	5.169811	1.751579	0.000207
1852	1.8417e+02	-6.2485	-52.436338	0.000466	4.662967	1.579856	0.000187
1853	1.8427e+02	-6.2244	-52.186035	0.000628	6.284869	2.129371	0.000252
1854	1.8437e+02	-6.1923	-51.984178	0.000507	5.068442	1.717235	0.000203
1855	1.8447e+02	-6.1346	-51.798470	0.000466	4.662967	1.579856	0.000187
1856	1.8457e+02	-6.1073	-51.576428	0.000558	5.575287	1.888958	0.000223
1857	1.8467e+02	-6.0704	-51.366497	0.000527	5.271180	1.785924	0.000211
1858	1.8477e+02	-6.0271	-51.213085	0.000385	3.852016	1.305098	0.000154
1859	1.8487e+02	-5.9854	-50.999117	0.000537	5.372549	1.820269	0.000215
1860	1.8497e+02	-5.9389	-50.797260	0.000507	5.068442	1.717235	0.000203
1861	1.8507e+02	-5.8972	-50.599441	0.000497	4.967074	1.682890	0.000199
1862	1.8517e+02	-5.8651	-50.389510	0.000527	5.271180	1.785924	0.000211
1863	1.8527e+02	-5.8121	-50.187653	0.000507	5.068442	1.717235	0.000203
1864	1.8537e+02	-5.7817	-50.001945	0.000466	4.662967	1.579856	0.000187
1865	1.8547e+02	-5.7383	-49.796051	0.000517	5.169811	1.751579	0.000207
1866	1.8557e+02	-5.7014	-49.594194	0.000507	5.068442	1.717235	0.000203
1867	1.8567e+02	-5.6645	-49.392337	0.000507	5.068442	1.717235	0.000203
1868	1.8577e+02	-5.6180	-49.186443	0.000517	5.169811	1.751579	0.000207
1869	1.8587e+02	-5.5859	-48.960364	0.000568	5.676655	1.923303	0.000227
1870	1.8597e+02	-5.5490	-48.742358	0.000547	5.473918	1.854614	0.000219
1871	1.8606e+02	-5.5025	-48.536464	0.000517	5.169811	1.751579	0.000207
1872	1.8616e+02	-5.4688	-48.358830	0.000446	4.460229	1.511167	0.000179
1873	1.8626e+02	-5.4239	-48.161011	0.000497	4.967074	1.682890	0.000199
1874	1.8636e+02	-5.3774	-47.914746	0.000618	6.183500	2.095026	0.000248
1875	1.8646e+02	-5.3501	-47.741149	0.000436	4.358860	1.476822	0.000174
1876	1.8656e+02	-5.3068	-47.515069	0.000568	5.676655	1.923303	0.000227
1877	1.8666e+02	-5.2683	-47.333398	0.000456	4.561598	1.545511	0.000183
1878	1.8676e+02	-5.2298	-47.131541	0.000507	5.068442	1.717235	0.000203
1879	1.8686e+02	-5.1801	-46.933722	0.000497	4.967074	1.682890	0.000199
1880	1.8696e+02	-5.1480	-46.715716	0.000547	5.473918	1.854614	0.000219
1881	1.8706e+02	-5.1031	-46.501748	0.000537	5.372549	1.820269	0.000215
1882	1.8716e+02	-5.0678	-46.303928	0.000497	4.967074	1.682890	0.000199
1883	1.8726e+02	-5.0293	-46.049589	0.000639	6.386237	2.163716	0.000256
1884	1.8736e+02	-4.9876	-45.867918	0.000456	4.561598	1.545511	0.000183
1885	1.8746e+02	-4.9426	-45.629727	0.000598	5.980762	2.026337	0.000239
1886	1.8756e+02	-4.9073	-45.435944	0.000487	4.865705	1.648545	0.000195
1887	1.8766e+02	-4.8624	-45.266384	0.000426	4.257492	1.442477	0.000170
1888	1.8776e+02	-4.8207	-45.032231	0.000588	5.879393	1.991992	0.000235
1889	1.8786e+02	-4.7822	-44.794040	0.000598	5.980762	2.026337	0.000239
1890	1.8796e+02	-4.7517	-44.600257	0.000487	4.865705	1.648545	0.000195
1891	1.8806e+02	-4.7100	-44.406475	0.000487	4.865705	1.648545	0.000195
1892	1.8815e+02	-4.6603	-44.184432	0.000558	5.575287	1.888958	0.000223
1893	1.8825e+02	-4.6282	-43.942204	0.000608	6.082131	2.060682	0.000243
1894	1.8835e+02	-4.5833	-43.748421	0.000487	4.865705	1.648545	0.000195
1895	1.8845e+02	-4.5464	-43.542528	0.000517	5.169811	1.751579	0.000207
1896	1.8855e+02	-4.5159	-43.308374	0.000588	5.879393	1.991992	0.000235
1897	1.8865e+02	-4.4598	-43.098443	0.000527	5.271180	1.785924	0.000211
1898	1.8875e+02	-4.4229	-42.920809	0.000446	4.460229	1.511167	0.000179
1899	1.8885e+02	-4.3908	-42.678580	0.000608	6.082131	2.060682	0.000243
1900	1.8895e+02	-4.3378	-42.492872	0.000466	4.662967	1.579856	0.000187
1901	1.8905e+02	-4.3026	-42.258718	0.000588	5.879393	1.991992	0.000235
1902	1.8915e+02	-4.2624	-42.052824	0.000517	5.169811	1.751579	0.000207
1903	1.8925e+02	-4.2320	-41.818671	0.000588	5.879393	1.991992	0.000235
1904	1.8935e+02	-4.1919	-41.612777	0.000517	5.169811	1.751579	0.000207
1905	1.8945e+02	-4.1518	-41.451291	0.000405	4.054754	1.373788	0.000162
1906	1.8955e+02	-4.1052	-41.205026	0.000618	6.183500	2.095026	0.000248
1907	1.8965e+02	-4.0731	-41.015281	0.000476	4.764336	1.614201	0.000191
1908	1.8975e+02	-4.0314	-40.752867	0.000659	6.588975	2.232405	0.000264
1909	1.8985e+02	-3.9897	-40.563121	0.000476	4.764336	1.614201	0.000191
1910	1.8995e+02	-3.9560	-40.341079	0.000558	5.575287	1.888958	0.000223
1911	1.9004e+02	-3.9063	-40.106925	0.000588	5.879393	1.991992	0.000235
1912	1.9014e+02	-3.8662	-39.909105	0.000497	4.967074	1.682890	0.000199
1913	1.9024e+02	-3.8197	-39.678989	0.000578	5.778024	1.957648	0.000231
1914	1.9034e+02	-3.7956	-39.485206	0.000487	4.865705	1.648545	0.000195
1915	1.9044e+02	-3.7379	-39.255089	0.000578	5.778024	1.957648	0.000231
1916	1.9054e+02	-3.7106	-39.053233	0.000507	5.068442	1.717235	0.000203
1917	1.9064e+02	-3.6801	-38.831190	0.000558	5.575287	1.888958	0.000223
1918	1.9074e+02	-3.6272	-38.613185	0.000547	5.473918	1.854614	0.000219
1919	1.9084e+02	-3.5967	-38.374994	0.000598	5.980762	2.026337	0.000239
1920	1.9094e+02	-3.5518	-38.169100	0.000517	5.169811	1.751579	0.000207
1921	1.9104e+02	-3.5117	-37.967243	0.000507	5.068442	1.717235	0.000203
1922	1.9114e+02	-3.4700	-37.729052	0.000598	5.980762	2.026337	0.000239
1923	1.9124e+02	-3.4282	-37.547381	0.000456	4.561598	1.545511	0.000183
1924	1.9134e+02	-3.3913	-37.232484	0.000791	7.906770	2.678886	0.000316
1925	1.9144e+02	-3.3464	-37.010442	0.000558	5.575287	1.888958	0.000223
1926	1.9154e+02	-3.3079	-36.828771	0.000456	4.561598	1.545511	0.000183
1927	1.9164e+02	-3.2694	-36.570394	0.000649	6.487606	2.198060	0.000260
1928	1.9174e+02	-3.2229	-36.372574	0.000497	4.967074	1.682890	0.000199
1929	1.9184e+02	-3.1860	-36.158606	0.000537	5.372549	1.820269	0.000215
1930	1.9194e+02	-3.1571	-35.968861	0.000476	4.764336	1.614201	0.000191
1931	1.9203e+02	-3.1202	-35.690298	0.000699	6.994450	2.369784	0.000280
1932	1.9213e+02	-3.0625	-35.468256	0.000558	5.575287	1.888958	0.000223
1933	1.9223e+02	-3.0320	-35.274474	0.000487	4.865705	1.648545	0.000195
1934	1.9233e+02	-2.9855	-35.056468	0.000547	5.473918	1.854614	0.000219
1935	1.9243e+02	-2.9518	-34.830389	0.000568	5.676655	1.923303	0.000227
1936	1.9253e+02	-2.9197	-34.608346	0.000558	5.575287	1.888958	0.000223
1937	1.9263e+02	-2.8652	-34.358044	0.000628	6.284869	2.129371	0.000252
1938	1.9273e+02	-2.8299	-34.119853	0.000598	5.980762	2.026337	0.000239
1939	1.9283e+02	-2.8026	-33.873587	0.000618	6.183500	2.095026	0.000248
1940	1.9293e+02	-2.7513	-33.659619	0.000537	5.372549	1.820269	0.000215
1941	1.9303e+02	-2.7095	-33.461800	0.000497	4.967074	1.682890	0.000199
1942	1.9313e+02	-2.6694	-33.179200	0.000710	7.095819	2.404129	0.000284
1943	1.9323e+02	-2.6342	-32.973306	0.000517	5.169811	1.751579	0.000207
1944	1.9333e+02	-2.6021	-32.731078	0.000608	6.082131	2.060682	0.000243
1945	1.9343e+02	-2.5491	-32.529221	0.000507	5.068442	1.717235	0.000203
1946	1.9353e+02	-2.5186	-32.262770	0.000669	6.690344	2.266750	0.000268
1947	1.9363e+02	-2.4769	-32.056876	0.000517	5.169811	1.751579	0.000207
1948	1.9373e+02	-2.4449	-31.786388	0.000679	6.791713	2.301095	0.000272
1949	1.9383e+02	-2.3967	-31.592606	0.000487	4.865705	1.648545	0.000195
1950	1.9393e+02	-2.3614	-31.338266	0.000639	6.386237	2.163716	0.000256
1951	1.9403e+02	-2.3197	-31.092001	0.000618	6.183500	2.095026	0.000248
1952	1.9412e+02	-2.2812	-30.882070	0.000527	5.271180	1.785924	0.000211
1953	1.9422e+02	-2.2379	-30.599470	0.000710	7.095819	2.404129	0.000284
1954	1.9432e+02	-2.1914	-30.385502	0.000537	5.372549	1.820269	0.000215
1955	1.9442e+02	-2.1481	-30.135200	0.000628	6.284869	2.129371	0.000252
1956	1.9452e+02	-2.1080	-29.941417	0.000487	4.865705	1.648545	0.000195
1957	1.9462e+02	-2.0807	-29.666892	0.000689	6.893082	2.335439	0.000276
1958	1.9472e+02	-2.0229	-29.460998	0.000517	5.169811	1.751579	0.000207
1959	1.9482e+02	-1.9973	-29.166287	0.000740	7.399926	2.507163	0.000296
1960	1.9492e+02	-1.9507	-28.960393	0.000517	5.169811	1.751579	0.000207
1961	1.9502e+02	-1.9267	-28.738351	0.000558	5.575287	1.888958	0.000223
1962	1.9512e+02	-1.8770	-28.455751	0.000710	7.095819	2.404129	0.000284
1963	1.9522e+02	-1.8385	-28.237746	0.000547	5.473918	1.854614	0.000219
1964	1.9532e+02	-1.7951	-27.999555	0.000598	5.980762	2.026337	0.000239
1965	1.9542e+02	-1.7614	-27.805772	0.000487	4.865705	1.648545	0.000195
1966	1.9552e+02	-1.7165	-27.494913	0.000781	7.805401	2.644542	0.000312
1967	1.9562e+02	-1.6828	-27.317279	0.000446	4.460229	1.511167	0.000179
1968	1.9572e+02	-1.6379	-27.046791	0.000679	6.791713	2.301095	0.000272
1969	1.9582e+02	-1.5946	-26.776303	0.000679	6.791713	2.301095	0.000272
1970	1.9592e+02	-1.5545	-26.570409	0.000517	5.169811	1.751579	0.000207
1971	1.9601e+02	-1.5208	-26.364515	0.000517	5.169811	1.751579	0.000207
1972	1.9611e+02	-1.4791	-26.081915	0.000710	7.095819	2.404129	0.000284
1973	1.9621e+02	-1.4406	-25.811427	0.000679	6.791713	2.301095	0.000272
1974	1.9631e+02	-1.3989	-25.617645	0.000487	4.865705	1.648545	0.000195
1975	1.9641e+02	-1.3604	-25.351194	0.000669	6.690344	2.266750	0.000268
1976	1.9651e+02	-1.3171	-25.076669	0.000689	6.893082	2.335439	0.000276
1977	1.9661e+02	-1.2834	-24.911146	0.000416	4.156123	1.408133	0.000166
1978	1.9671e+02	-1.2481	-24.572027	0.000851	8.514983	2.884954	0.000341
1979	1.9681e+02	-1.2016	-24.349984	0.000558	5.575287	1.888958	0.000223
1980	1.9691e+02	-1.1663	-24.123905	0.000568	5.676655	1.923303	0.000227
1981	1.9701e+02	-1.1133	-23.857454	0.000669	6.690344	2.266750	0.000268
1982	1.9711e+02	-1.0716	-23.582928	0.000689	6.893082	2.335439	0.000276
1983	1.9721e+02	-1.0444	-23.385109	0.000497	4.967074	1.682890	0.000199
1984	1.9731e+02	-0.9978	-23.106546	0.000699	6.994450	2.369784	0.000280
1985	1.9741e+02	-0.9609	-22.884504	0.000558	5.575287	1.888958	0.000223
1986	1.9751e+02	-0.9256	-22.581719	0.000760	7.602664	2.575852	0.000304
1987	1.9761e+02	-0.8759	-22.363713	0.000547	5.473918	1.854614	0.000219
1988	1.9771e+02	-0.8438	-22.069003	0.000740	7.399926	2.507163	0.000296
1989	1.9781e+02	-0.8037	-21.830812	0.000598	5.980762	2.026337	0.000239
1990	1.9791e+02	-0.7620	-21.596658	0.000588	5.879393	1.991992	0.000235
1991	1.9800e+02	-0.7251	-21.301947	0.000740	7.399926	2.507163	0.000296
1992	1.9810e+02	-0.6690	-21.047607	0.000639	6.386237	2.163716	0.000256
1993	1.9820e+02	-0.6465	-20.809416	0.000598	5.980762	2.026337	0.000239
1994	1.9830e+02	-0.5968	-20.534891	0.000689	6.893082	2.335439	0.000276
1995	1.9840e+02	-0.5663	-20.296700	0.000598	5.980762	2.026337	0.000239
1996	1.9850e+02	-0.5166	-20.022175	0.000689	6.893082	2.335439	0.000276
1997	1.9860e+02	-0.4813	-19.735538	0.000720	7.197188	2.438473	0.000288
1998	1.9870e+02	-0.4476	-19.513496	0.000558	5.575287	1.888958	0.000223
1999	1.9880e+02	-0.4059	-19.194562	0.000801	8.008139	2.713231	0.000321
2000	1.9890e+02	-0.3642	-18.988668	0.000517	5.169811	1.751579	0.000207
2001	1.9900e+02	-0.3208	-18.718180	0.000679	6.791713	2.301095	0.000272
2002	1.9910e+02	-0.2872	-18.484026	0.000588	5.879393	1.991992	0.000235
2003	1.9920e+02	-0.2422	-18.193352	0.000730	7.298557	2.472818	0.000292
2004	1.9930e+02	-0.2037	-17.918827	0.000689	6.893082	2.335439	0.000276
2005	1.9940e+02	-0.1684	-17.684673	0.000588	5.879393	1.991992	0.000235
2006	1.9950e+02	-0.1283	-17.398036	0.000720	7.197188	2.438473	0.000288
2007	1.9960e+02	-0.0850	-17.139660	0.000649	6.487606	2.198060	0.000260
2008	1.9970e+02	-0.0465	-16.885320	0.000639	6.386237	2.163716	0.000256
2009	1.9980e+02	-0.0128	-16.618869	0.000639	6.386237	2.163716	0.000268

Center data before PMax,+/-Pr and +/-Vc Calc.

PMax (uC/cm2):	1.01e+02
Pr (uC/cm2):	7.44e+00
-Pr (uC/cm2):	-1.66e+01
PLoss (uC/cm2):	-1.30e+01
Vc:	6.18e-01
-Vc:	-1.15e+00
C (Max-Eff) (nF):	5.07e-01
K (Eff):	1.72e+03
Vert. (+/-Pr) Shift (uC/cm2):	-4.59e+00
Horiz. Shift (+/-Vc):	-2.64e-01
Offset (uC/cm2):	3.61e+00

A (Loop Area - uC/cm2·Volts):	-3.05e-02



Hysteresis Version: 5.48.1 - Radiant Technologies, Inc., 1999 - 9/12/24

