»»»»»»»»»»»»»»»»»»»»»»»»»»»»»»»»»»»» Hysteresis ««««««««««««««««««««««««««««««««««««
»»»  Executed Version:	5.48.1
»»»  Vision Version:	5.48.4 (R)
»»»  Vision Compiled:	9/18/24
»»»  Driver Version:	5.47.0
»»»  Windows Version:	Windows 8 or 8.1
»»»  Processor Information:	x86 (AMD or Intel) - 32 Processors
»»»  Tester Name:	PMF21124-494 (100V)
»»»  Tester S/N:	PMF21124-494
»»»  Internal Amp Type:	100V RevK 270k
»»»  Internal Amp S/N:	iAB2-596/K     
»»»  Execution Count:	1
»»»»»»»»»»»»»»»»»»»»»»»»»»»»»»»»»»»»»»»»»»««««««««««««««««««««««««««««««««««««««««««

Stored:	6/4/2025 - 15:19:39
Configured:	06/04/25 01:46:06 PM
Executed:	06/04/25 03:19:02 PM

»»»»»»»»»»»»»»»»»»»»»»»»»»»»»»»»»»» Sample Info ««««««««««««««««««««««««««««««««««««
Sample Name:	
Lot Name:	
Wafer Name:	
Die Row/Column:	0/0
Capacitor Number:	0
Sample Area (cm2):	1.00e-04
Sample Thickness (microns):	3.00e-01

Amplifier:	Internal

»»»»»»»»»»»»»»»»»»»»»»»»»»»»»»»»»»» Tester Info «««««««««««««««««««««««««««««««««««
Tester Name:	PMF21124-494 (100V)
Tester Serial Number:	PMF21124-494
Return Signal Amp. Level:	0.19 [Index: 3]

»»»»»»»»»»»»»»»»»»»»»»»»»»»»»»»» Hysteresis Info ««««««««««««««««««««««««««««««««««
Task Name:	Hyst-37
Volts:	20.00
Field:	666.67 (kV/cm)
DCBias:	0.00
DCField:	0.00 (kV/cm)
Hysteresis Period (ms):	2.00e+02
Preset:	Enabled
Preset Delay (ms):	1.00e+03
Profile:	Standard Bipolar

»»»»»»»»»»»»»»»»»»»»»»»»»»»»»»»»»»»»»» Data «««««««««««««««««««««««««««««««««««««««
Points:	2009

Valid Data

Point	Time (ms)	Drive Voltage	Measured Polarization (uC/cm2)	Capacitance (uF)	Normalized Capacitance (uF/cm2)	Dielectric Constant	Instantaneous Current (mA)
   1	0.0000e+00	0.0064	-6.717794	0.000183	1.825225	0.618403	0.000073
   2	9.9500e-02	0.0337	-6.645125	0.000183	1.825225	0.618403	0.000073
   3	1.9900e-01	0.0770	-6.358489	0.000720	7.199499	2.439256	0.000288
   4	2.9850e-01	0.1043	-6.140483	0.000548	5.475675	1.855209	0.000219
   5	3.9800e-01	0.1492	-5.853847	0.000720	7.199499	2.439256	0.000288
   6	4.9750e-01	0.1909	-5.643916	0.000527	5.272872	1.786498	0.000211
   7	5.9700e-01	0.2278	-5.401688	0.000608	6.084084	2.061343	0.000243
   8	6.9650e-01	0.2727	-5.139274	0.000659	6.591091	2.233122	0.000264
   9	7.9600e-01	0.3144	-4.852637	0.000720	7.199499	2.439256	0.000288
  10	8.9550e-01	0.3513	-4.598298	0.000639	6.388288	2.164410	0.000256
  11	9.9500e-01	0.3946	-4.319735	0.000700	6.996696	2.370545	0.000280
  12	1.0945e+00	0.4219	-4.073470	0.000619	6.185485	2.095699	0.000248
  13	1.1940e+00	0.4732	-3.843353	0.000578	5.779879	1.958276	0.000231
  14	1.2935e+00	0.5101	-3.548642	0.000740	7.402302	2.507968	0.000296
  15	1.3930e+00	0.5615	-3.306414	0.000608	6.084084	2.061343	0.000243
  16	1.4925e+00	0.5823	-3.056112	0.000629	6.286886	2.130055	0.000252
  17	1.5920e+00	0.6192	-2.777549	0.000700	6.996696	2.370545	0.000280
  18	1.6915e+00	0.6690	-2.507061	0.000679	6.793893	2.301833	0.000272
  19	1.7910e+00	0.7027	-2.224462	0.000710	7.098098	2.404901	0.000284
  20	1.8905e+00	0.7444	-1.941862	0.000710	7.098098	2.404901	0.000284
  21	1.9900e+00	0.7845	-1.667337	0.000690	6.895295	2.336189	0.000276
  22	2.0895e+00	0.8358	-1.380700	0.000720	7.199499	2.439256	0.000288
  23	2.1890e+00	0.8711	-1.186918	0.000487	4.867267	1.649075	0.000195
  24	2.2885e+00	0.9112	-0.928541	0.000649	6.489689	2.198766	0.000260
  25	2.3880e+00	0.9529	-0.658053	0.000679	6.793893	2.301833	0.000272
  26	2.4875e+00	0.9946	-0.379491	0.000700	6.996696	2.370545	0.000280
  27	2.5870e+00	1.0251	-0.080743	0.000750	7.503703	2.542323	0.000300
  28	2.6865e+00	1.0652	0.165523	0.000619	6.185485	2.095699	0.000248
  29	2.7860e+00	1.1069	0.391602	0.000568	5.678478	1.923920	0.000227
  30	2.8855e+00	1.1342	0.690350	0.000750	7.503703	2.542323	0.000300
  31	2.9850e+00	1.1952	0.964875	0.000690	6.895295	2.336189	0.000276
  32	3.0845e+00	1.2288	1.263623	0.000750	7.503703	2.542323	0.000300
  33	3.1840e+00	1.2625	1.513926	0.000629	6.286886	2.130055	0.000252
  34	3.2835e+00	1.3010	1.784414	0.000679	6.793893	2.301833	0.000272
  35	3.3830e+00	1.3395	2.067013	0.000710	7.098098	2.404901	0.000284
  36	3.4825e+00	1.3941	2.329427	0.000659	6.591091	2.233122	0.000264
  37	3.5820e+00	1.4230	2.624138	0.000740	7.402302	2.507968	0.000296
  38	3.6815e+00	1.4647	2.898663	0.000690	6.895295	2.336189	0.000276
  39	3.7810e+00	1.5080	3.161077	0.000659	6.591091	2.233122	0.000264
  40	3.8805e+00	1.5433	3.475974	0.000791	7.909309	2.679746	0.000316
  41	3.9800e+00	1.5866	3.734351	0.000649	6.489689	2.198766	0.000260
  42	4.0795e+00	1.6251	3.980616	0.000619	6.185485	2.095699	0.000248
  43	4.1790e+00	1.6700	4.279364	0.000750	7.503703	2.542323	0.000300
  44	4.2785e+00	1.7005	4.561963	0.000710	7.098098	2.404901	0.000284
  45	4.3780e+00	1.7470	4.860711	0.000750	7.503703	2.542323	0.000300
  46	4.4775e+00	1.7839	5.082754	0.000558	5.577077	1.889565	0.000223
  47	4.5770e+00	1.8176	5.413799	0.000831	8.314914	2.817169	0.000333
  48	4.6765e+00	1.8689	5.692361	0.000700	6.996696	2.370545	0.000280
  49	4.7760e+00	1.9010	5.999184	0.000771	7.706506	2.611035	0.000308
  50	4.8755e+00	1.9411	6.217189	0.000548	5.475675	1.855209	0.000219
  51	4.9750e+00	1.9844	6.515937	0.000750	7.503703	2.542323	0.000300
  52	5.0745e+00	2.0245	6.798537	0.000710	7.098098	2.404901	0.000284
  53	5.1740e+00	2.0695	7.081136	0.000710	7.098098	2.404901	0.000284
  54	5.2735e+00	2.1080	7.311253	0.000578	5.779879	1.958276	0.000231
  55	5.3730e+00	2.1449	7.597889	0.000720	7.199499	2.439256	0.000288
  56	5.4725e+00	2.1802	7.908749	0.000781	7.807907	2.645391	0.000312
  57	5.5720e+00	2.2299	8.215571	0.000771	7.706506	2.611035	0.000308
  58	5.6715e+00	2.2700	8.477985	0.000659	6.591091	2.233122	0.000264
  59	5.7710e+00	2.2989	8.780770	0.000761	7.605105	2.576679	0.000304
  60	5.8705e+00	2.3454	9.006850	0.000568	5.678478	1.923920	0.000227
  61	5.9700e+00	2.3855	9.317709	0.000781	7.807907	2.645391	0.000312
  62	6.0695e+00	2.4208	9.624532	0.000771	7.706506	2.611035	0.000308
  63	6.1690e+00	2.4529	9.923280	0.000750	7.503703	2.542323	0.000300
  64	6.2685e+00	2.5074	10.145322	0.000558	5.577077	1.889565	0.000223
  65	6.3680e+00	2.5411	10.476367	0.000831	8.314914	2.817169	0.000333
  66	6.4675e+00	2.5780	10.746855	0.000679	6.793893	2.301833	0.000272
  67	6.5670e+00	2.6245	11.021381	0.000690	6.895295	2.336189	0.000276
  68	6.6665e+00	2.6582	11.320129	0.000750	7.503703	2.542323	0.000300
  69	6.7660e+00	2.6983	11.598691	0.000700	6.996696	2.370545	0.000280
  70	6.8655e+00	2.7320	11.881290	0.000710	7.098098	2.404901	0.000284
  71	6.9650e+00	2.7785	12.192150	0.000781	7.807907	2.645391	0.000312
  72	7.0645e+00	2.8202	12.442452	0.000629	6.286886	2.130055	0.000252
  73	7.1640e+00	2.8571	12.773497	0.000831	8.314914	2.817169	0.000333
  74	7.2635e+00	2.9021	13.015726	0.000608	6.084084	2.061343	0.000243
  75	7.3630e+00	2.9470	13.314474	0.000750	7.503703	2.542323	0.000300
  76	7.4625e+00	2.9823	13.593036	0.000700	6.996696	2.370545	0.000280
  77	7.5620e+00	3.0192	13.883710	0.000730	7.300900	2.473612	0.000292
  78	7.6615e+00	3.0609	14.142086	0.000649	6.489689	2.198766	0.000260
  79	7.7610e+00	3.1010	14.448909	0.000771	7.706506	2.611035	0.000308
  80	7.8605e+00	3.1363	14.739583	0.000730	7.300900	2.473612	0.000292
  81	7.9600e+00	3.1812	15.066591	0.000821	8.213513	2.782813	0.000329
  82	8.0595e+00	3.2213	15.349190	0.000710	7.098098	2.404901	0.000284
  83	8.1590e+00	3.2630	15.615641	0.000669	6.692492	2.267478	0.000268
  84	8.2585e+00	3.2983	15.878055	0.000659	6.591091	2.233122	0.000264
  85	8.3580e+00	3.3352	16.148543	0.000679	6.793893	2.301833	0.000272
  86	8.4575e+00	3.3817	16.443254	0.000740	7.402302	2.507968	0.000296
  87	8.5570e+00	3.4266	16.689519	0.000619	6.185485	2.095699	0.000248
  88	8.6565e+00	3.4571	17.032676	0.000862	8.619118	2.920236	0.000345
  89	8.7560e+00	3.4956	17.331424	0.000750	7.503703	2.542323	0.000300
  90	8.8555e+00	3.5357	17.589800	0.000649	6.489689	2.198766	0.000260
  91	8.9550e+00	3.5871	17.864326	0.000690	6.895295	2.336189	0.000276
  92	9.0545e+00	3.6256	18.142888	0.000700	6.996696	2.370545	0.000280
  93	9.1540e+00	3.6609	18.473933	0.000831	8.314914	2.817169	0.000333
  94	9.2535e+00	3.6962	18.732310	0.000649	6.489689	2.198766	0.000260
  95	9.3530e+00	3.7427	18.998761	0.000669	6.692492	2.267478	0.000268
  96	9.4525e+00	3.7732	19.321732	0.000811	8.112111	2.748458	0.000325
  97	9.5520e+00	3.8181	19.612405	0.000730	7.300900	2.473612	0.000292
  98	9.6515e+00	3.8598	19.874819	0.000659	6.591091	2.233122	0.000264
  99	9.7510e+00	3.8999	20.161456	0.000720	7.199499	2.439256	0.000288
 100	9.8505e+00	3.9400	20.431944	0.000679	6.793893	2.301833	0.000272
 101	9.9500e+00	3.9689	20.710506	0.000700	6.996696	2.370545	0.000280
 102	1.0050e+01	4.0170	20.997143	0.000720	7.199499	2.439256	0.000288
 103	1.0149e+01	4.0587	21.255520	0.000649	6.489689	2.198766	0.000260
 104	1.0248e+01	4.0988	21.554268	0.000750	7.503703	2.542323	0.000300
 105	1.0348e+01	4.1421	21.820719	0.000669	6.692492	2.267478	0.000268
 106	1.0447e+01	4.1887	22.091207	0.000679	6.793893	2.301833	0.000272
 107	1.0547e+01	4.2159	22.389955	0.000750	7.503703	2.542323	0.000300
 108	1.0646e+01	4.2528	22.672554	0.000710	7.098098	2.404901	0.000284
 109	1.0746e+01	4.3026	22.947080	0.000690	6.895295	2.336189	0.000276
 110	1.0845e+01	4.3491	23.181233	0.000588	5.881281	1.992632	0.000235
 111	1.0945e+01	4.3780	23.508241	0.000821	8.213513	2.782813	0.000329
 112	1.1044e+01	4.4100	23.754507	0.000619	6.185485	2.095699	0.000248
 113	1.1144e+01	4.4517	24.045180	0.000730	7.300900	2.473612	0.000292
 114	1.1243e+01	4.4967	24.327780	0.000710	7.098098	2.404901	0.000284
 115	1.1343e+01	4.5384	24.598268	0.000679	6.793893	2.301833	0.000272
 116	1.1443e+01	4.5753	24.888942	0.000730	7.300900	2.473612	0.000292
 117	1.1542e+01	4.6122	25.127133	0.000598	5.982682	2.026988	0.000239
 118	1.1642e+01	4.6555	25.405695	0.000700	6.996696	2.370545	0.000280
 119	1.1741e+01	4.6940	25.696369	0.000730	7.300900	2.473612	0.000292
 120	1.1841e+01	4.7293	25.926486	0.000578	5.779879	1.958276	0.000231
 121	1.1940e+01	4.7694	26.184862	0.000649	6.489689	2.198766	0.000260
 122	1.2040e+01	4.8127	26.499759	0.000791	7.909309	2.679746	0.000316
 123	1.2139e+01	4.8528	26.729876	0.000578	5.779879	1.958276	0.000231
 124	1.2239e+01	4.8977	26.996327	0.000669	6.692492	2.267478	0.000268
 125	1.2338e+01	4.9362	27.270852	0.000690	6.895295	2.336189	0.000276
 126	1.2438e+01	4.9811	27.525191	0.000639	6.388288	2.164410	0.000256
 127	1.2537e+01	5.0036	27.827977	0.000761	7.605105	2.576679	0.000304
 128	1.2636e+01	5.0565	28.074242	0.000619	6.185485	2.095699	0.000248
 129	1.2736e+01	5.0966	28.328581	0.000639	6.388288	2.164410	0.000256
 130	1.2835e+01	5.1368	28.615218	0.000720	7.199499	2.439256	0.000288
 131	1.2935e+01	5.1737	28.885706	0.000679	6.793893	2.301833	0.000272
 132	1.3034e+01	5.2266	29.156194	0.000679	6.793893	2.301833	0.000272
 133	1.3134e+01	5.2571	29.406497	0.000629	6.286886	2.130055	0.000252
 134	1.3233e+01	5.2876	29.668911	0.000659	6.591091	2.233122	0.000264
 135	1.3333e+01	5.3389	29.894990	0.000568	5.678478	1.923920	0.000227
 136	1.3432e+01	5.3678	30.177590	0.000710	7.098098	2.404901	0.000284
 137	1.3532e+01	5.4015	30.492486	0.000791	7.909309	2.679746	0.000316
 138	1.3632e+01	5.4496	30.722603	0.000578	5.779879	1.958276	0.000231
 139	1.3731e+01	5.4817	30.985017	0.000659	6.591091	2.233122	0.000264
 140	1.3831e+01	5.5314	31.271653	0.000720	7.199499	2.439256	0.000288
 141	1.3930e+01	5.5747	31.534067	0.000659	6.591091	2.233122	0.000264
 142	1.4030e+01	5.6084	31.764184	0.000578	5.779879	1.958276	0.000231
 143	1.4129e+01	5.6549	32.042746	0.000700	6.996696	2.370545	0.000280
 144	1.4229e+01	5.6902	32.301123	0.000649	6.489689	2.198766	0.000260
 145	1.4328e+01	5.7303	32.579685	0.000700	6.996696	2.370545	0.000280
 146	1.4428e+01	5.7720	32.785579	0.000517	5.171471	1.752142	0.000207
 147	1.4527e+01	5.8089	33.060105	0.000690	6.895295	2.336189	0.000276
 148	1.4627e+01	5.8506	33.350778	0.000730	7.300900	2.473612	0.000292
 149	1.4726e+01	5.8907	33.584932	0.000588	5.881281	1.992632	0.000235
 150	1.4825e+01	5.9308	33.823123	0.000598	5.982682	2.026988	0.000239
 151	1.4925e+01	5.9597	34.101686	0.000700	6.996696	2.370545	0.000280
 152	1.5024e+01	6.0095	34.376211	0.000690	6.895295	2.336189	0.000276
 153	1.5124e+01	6.0447	34.614402	0.000598	5.982682	2.026988	0.000239
 154	1.5223e+01	6.0945	34.868741	0.000639	6.388288	2.164410	0.000256
 155	1.5323e+01	6.1362	35.131155	0.000659	6.591091	2.233122	0.000264
 156	1.5422e+01	6.1747	35.333012	0.000507	5.070070	1.717786	0.000203
 157	1.5522e+01	6.2084	35.623686	0.000730	7.300900	2.473612	0.000292
 158	1.5621e+01	6.2549	35.882062	0.000649	6.489689	2.198766	0.000260
 159	1.5721e+01	6.2886	36.112179	0.000578	5.779879	1.958276	0.000231
 160	1.5820e+01	6.3239	36.398816	0.000720	7.199499	2.439256	0.000288
 161	1.5920e+01	6.3672	36.657193	0.000649	6.489689	2.198766	0.000260
 162	1.6020e+01	6.4137	36.931718	0.000690	6.895295	2.336189	0.000276
 163	1.6119e+01	6.4442	37.182020	0.000629	6.286886	2.130055	0.000252
 164	1.6218e+01	6.4827	37.391951	0.000527	5.272872	1.786498	0.000211
 165	1.6318e+01	6.5228	37.634179	0.000608	6.084084	2.061343	0.000243
 166	1.6418e+01	6.5725	37.892556	0.000649	6.489689	2.198766	0.000260
 167	1.6517e+01	6.5966	38.134784	0.000608	6.084084	2.061343	0.000243
 168	1.6616e+01	6.6495	38.389124	0.000639	6.388288	2.164410	0.000256
 169	1.6716e+01	6.6864	38.643463	0.000639	6.388288	2.164410	0.000256
 170	1.6816e+01	6.7282	38.922026	0.000700	6.996696	2.370545	0.000280
 171	1.6915e+01	6.7602	39.135994	0.000537	5.374274	1.820853	0.000215
 172	1.7015e+01	6.8052	39.382259	0.000619	6.185485	2.095699	0.000248
 173	1.7114e+01	6.8340	39.648710	0.000669	6.692492	2.267478	0.000268
 174	1.7213e+01	6.8790	39.890938	0.000608	6.084084	2.061343	0.000243
 175	1.7313e+01	6.9158	40.149315	0.000649	6.489689	2.198766	0.000260
 176	1.7413e+01	6.9752	40.359246	0.000527	5.272872	1.786498	0.000211
 177	1.7512e+01	7.0073	40.585326	0.000568	5.678478	1.923920	0.000227
 178	1.7611e+01	7.0442	40.892148	0.000771	7.706506	2.611035	0.000308
 179	1.7711e+01	7.0891	41.098042	0.000517	5.171471	1.752142	0.000207
 180	1.7811e+01	7.1244	41.388716	0.000730	7.300900	2.473612	0.000292
 181	1.7910e+01	7.1597	41.639018	0.000629	6.286886	2.130055	0.000252
 182	1.8009e+01	7.1966	41.844912	0.000517	5.171471	1.752142	0.000207
 183	1.8109e+01	7.2399	42.119437	0.000690	6.895295	2.336189	0.000276
 184	1.8209e+01	7.2784	42.369740	0.000629	6.286886	2.130055	0.000252
 185	1.8308e+01	7.3249	42.575633	0.000517	5.171471	1.752142	0.000207
 186	1.8407e+01	7.3586	42.842084	0.000669	6.692492	2.267478	0.000268
 187	1.8507e+01	7.4083	43.096424	0.000639	6.388288	2.164410	0.000256
 188	1.8607e+01	7.4501	43.330578	0.000588	5.881281	1.992632	0.000235
 189	1.8706e+01	7.4886	43.580880	0.000629	6.286886	2.130055	0.000252
 190	1.8805e+01	7.5255	43.815034	0.000588	5.881281	1.992632	0.000235
 191	1.8905e+01	7.5575	44.053225	0.000598	5.982682	2.026988	0.000239
 192	1.9005e+01	7.5976	44.343899	0.000730	7.300900	2.473612	0.000292
 193	1.9104e+01	7.6442	44.521533	0.000446	4.461661	1.511652	0.000179
 194	1.9203e+01	7.6891	44.816244	0.000740	7.402302	2.507968	0.000296
 195	1.9303e+01	7.7148	45.038286	0.000558	5.577077	1.889565	0.000223
 196	1.9402e+01	7.7613	45.260329	0.000558	5.577077	1.889565	0.000223
 197	1.9502e+01	7.8062	45.478334	0.000548	5.475675	1.855209	0.000219
 198	1.9602e+01	7.8335	45.764971	0.000720	7.199499	2.439256	0.000288
 199	1.9701e+01	7.8784	46.047570	0.000710	7.098098	2.404901	0.000284
 200	1.9800e+01	7.9169	46.233278	0.000466	4.664464	1.580363	0.000187
 201	1.9900e+01	7.9698	46.471469	0.000598	5.982682	2.026988	0.000239
 202	2.0000e+01	7.9955	46.729846	0.000649	6.489689	2.198766	0.000260
 203	2.0099e+01	8.0388	46.976111	0.000619	6.185485	2.095699	0.000248
 204	2.0198e+01	8.0709	47.230451	0.000639	6.388288	2.164410	0.000256
 205	2.0298e+01	8.1206	47.464605	0.000588	5.881281	1.992632	0.000235
 206	2.0398e+01	8.1591	47.658387	0.000487	4.867267	1.649075	0.000195
 207	2.0497e+01	8.1976	47.920801	0.000659	6.591091	2.233122	0.000264
 208	2.0596e+01	8.2458	48.175141	0.000639	6.388288	2.164410	0.000256
 209	2.0696e+01	8.2698	48.441592	0.000669	6.692492	2.267478	0.000268
 210	2.0796e+01	8.3228	48.679783	0.000598	5.982682	2.026988	0.000239
 211	2.0895e+01	8.3677	48.893751	0.000537	5.374274	1.820853	0.000215
 212	2.0994e+01	8.4094	49.148090	0.000639	6.388288	2.164410	0.000256
 213	2.1094e+01	8.4335	49.406467	0.000649	6.489689	2.198766	0.000260
 214	2.1194e+01	8.4816	49.652732	0.000619	6.185485	2.095699	0.000248
 215	2.1293e+01	8.5185	49.846515	0.000487	4.867267	1.649075	0.000195
 216	2.1392e+01	8.5506	50.117003	0.000679	6.793893	2.301833	0.000272
 217	2.1492e+01	8.6019	50.330971	0.000537	5.374274	1.820853	0.000215
 218	2.1591e+01	8.6324	50.569162	0.000598	5.982682	2.026988	0.000239
 219	2.1691e+01	8.6725	50.835613	0.000669	6.692492	2.267478	0.000268
 220	2.1791e+01	8.7206	51.073804	0.000598	5.982682	2.026988	0.000239
 221	2.1890e+01	8.7495	51.303921	0.000578	5.779879	1.958276	0.000231
 222	2.1989e+01	8.7864	51.542112	0.000598	5.982682	2.026988	0.000239
 223	2.2089e+01	8.8393	51.808563	0.000669	6.692492	2.267478	0.000268
 224	2.2189e+01	8.8778	52.022531	0.000537	5.374274	1.820853	0.000215
 225	2.2288e+01	8.9131	52.240536	0.000548	5.475675	1.855209	0.000219
 226	2.2387e+01	8.9564	52.482765	0.000608	6.084084	2.061343	0.000243
 227	2.2487e+01	9.0046	52.716918	0.000588	5.881281	1.992632	0.000235
 228	2.2587e+01	9.0334	52.959147	0.000608	6.084084	2.061343	0.000243
 229	2.2686e+01	9.0735	53.197338	0.000598	5.982682	2.026988	0.000239
 230	2.2785e+01	9.1120	53.435529	0.000598	5.982682	2.026988	0.000239
 231	2.2885e+01	9.1586	53.649497	0.000537	5.374274	1.820853	0.000215
 232	2.2985e+01	9.1971	53.891725	0.000608	6.084084	2.061343	0.000243
 233	2.3084e+01	9.2340	54.150102	0.000649	6.489689	2.198766	0.000260
 234	2.3183e+01	9.2773	54.396367	0.000619	6.185485	2.095699	0.000248
 235	2.3283e+01	9.3190	54.630521	0.000588	5.881281	1.992632	0.000235
 236	2.3383e+01	9.3511	54.828340	0.000497	4.968668	1.683430	0.000199
 237	2.3482e+01	9.3928	55.106903	0.000700	6.996696	2.370545	0.000280
 238	2.3581e+01	9.4329	55.324908	0.000548	5.475675	1.855209	0.000219
 239	2.3681e+01	9.4842	55.522728	0.000497	4.968668	1.683430	0.000199
 240	2.3780e+01	9.5195	55.809364	0.000720	7.199499	2.439256	0.000288
 241	2.3880e+01	9.5516	56.035444	0.000568	5.678478	1.923920	0.000227
 242	2.3980e+01	9.5949	56.257487	0.000558	5.577077	1.889565	0.000223
 243	2.4079e+01	9.6398	56.495678	0.000598	5.982682	2.026988	0.000239
 244	2.4178e+01	9.6735	56.701571	0.000517	5.171471	1.752142	0.000207
 245	2.4278e+01	9.7152	56.984171	0.000710	7.098098	2.404901	0.000284
 246	2.4378e+01	9.7457	57.194102	0.000527	5.272872	1.786498	0.000211
 247	2.4477e+01	9.7922	57.432293	0.000598	5.982682	2.026988	0.000239
 248	2.4576e+01	9.8307	57.654335	0.000558	5.577077	1.889565	0.000223
 249	2.4676e+01	9.8692	57.896564	0.000608	6.084084	2.061343	0.000243
 250	2.4776e+01	9.9110	58.163015	0.000669	6.692492	2.267478	0.000268
 251	2.4875e+01	9.9543	58.360834	0.000497	4.968668	1.683430	0.000199
 252	2.4974e+01	9.9847	58.570765	0.000527	5.272872	1.786498	0.000211
 253	2.5074e+01	10.0297	58.821068	0.000629	6.286886	2.130055	0.000252
 254	2.5174e+01	10.0682	59.079444	0.000649	6.489689	2.198766	0.000260
 255	2.5273e+01	10.1051	59.289375	0.000527	5.272872	1.786498	0.000211
 256	2.5372e+01	10.1484	59.511418	0.000558	5.577077	1.889565	0.000223
 257	2.5472e+01	10.1853	59.773832	0.000659	6.591091	2.233122	0.000264
 258	2.5572e+01	10.2270	59.995874	0.000558	5.577077	1.889565	0.000223
 259	2.5671e+01	10.2767	60.213880	0.000548	5.475675	1.855209	0.000219
 260	2.5770e+01	10.3232	60.492442	0.000700	6.996696	2.370545	0.000280
 261	2.5870e+01	10.3553	60.678150	0.000466	4.664464	1.580363	0.000187
 262	2.5970e+01	10.3954	60.892118	0.000537	5.374274	1.820853	0.000215
 263	2.6069e+01	10.4291	61.089938	0.000497	4.968668	1.683430	0.000199
 264	2.6169e+01	10.4756	61.336203	0.000619	6.185485	2.095699	0.000248
 265	2.6268e+01	10.5157	61.570357	0.000588	5.881281	1.992632	0.000235
 266	2.6367e+01	10.5494	61.832771	0.000659	6.591091	2.233122	0.000264
 267	2.6467e+01	10.5879	62.062888	0.000578	5.779879	1.958276	0.000231
 268	2.6567e+01	10.6296	62.284930	0.000558	5.577077	1.889565	0.000223
 269	2.6666e+01	10.6698	62.531195	0.000619	6.185485	2.095699	0.000248
 270	2.6765e+01	10.7115	62.724978	0.000487	4.867267	1.649075	0.000195
 271	2.6865e+01	10.7419	62.938946	0.000537	5.374274	1.820853	0.000215
 272	2.6965e+01	10.7917	63.209434	0.000679	6.793893	2.301833	0.000272
 273	2.7064e+01	10.8302	63.411291	0.000507	5.070070	1.717786	0.000203
 274	2.7163e+01	10.8671	63.625259	0.000537	5.374274	1.820853	0.000215
 275	2.7263e+01	10.9040	63.847302	0.000558	5.577077	1.889565	0.000223
 276	2.7363e+01	10.9521	64.085493	0.000598	5.982682	2.026988	0.000239
 277	2.7462e+01	10.9858	64.339832	0.000639	6.388288	2.164410	0.000256
 278	2.7561e+01	11.0195	64.537652	0.000497	4.968668	1.683430	0.000199
 279	2.7661e+01	11.0724	64.747583	0.000527	5.272872	1.786498	0.000211
 280	2.7761e+01	11.1109	64.993848	0.000619	6.185485	2.095699	0.000248
 281	2.7860e+01	11.1510	65.179556	0.000466	4.664464	1.580363	0.000187
 282	2.7959e+01	11.1911	65.413710	0.000588	5.881281	1.992632	0.000235
 283	2.8059e+01	11.2248	65.643827	0.000578	5.779879	1.958276	0.000231
 284	2.8159e+01	11.2745	65.894130	0.000629	6.286886	2.130055	0.000252
 285	2.8258e+01	11.3163	66.091949	0.000497	4.968668	1.683430	0.000199
 286	2.8358e+01	11.3435	66.289769	0.000497	4.968668	1.683430	0.000199
 287	2.8457e+01	11.3804	66.527960	0.000598	5.982682	2.026988	0.000239
 288	2.8556e+01	11.4253	66.733854	0.000517	5.171471	1.752142	0.000207
 289	2.8656e+01	11.4719	66.968008	0.000588	5.881281	1.992632	0.000235
 290	2.8756e+01	11.5072	67.161790	0.000487	4.867267	1.649075	0.000195
 291	2.8855e+01	11.5489	67.379795	0.000548	5.475675	1.855209	0.000219
 292	2.8954e+01	11.5890	67.613949	0.000588	5.881281	1.992632	0.000235
 293	2.9054e+01	11.6243	67.856177	0.000608	6.084084	2.061343	0.000243
 294	2.9154e+01	11.6515	68.021700	0.000416	4.157457	1.408585	0.000166
 295	2.9253e+01	11.7109	68.304300	0.000710	7.098098	2.404901	0.000284
 296	2.9352e+01	11.7446	68.490008	0.000466	4.664464	1.580363	0.000187
 297	2.9452e+01	11.7815	68.699939	0.000527	5.272872	1.786498	0.000211
 298	2.9552e+01	11.8264	68.885647	0.000466	4.664464	1.580363	0.000187
 299	2.9651e+01	11.8649	69.131912	0.000619	6.185485	2.095699	0.000248
 300	2.9750e+01	11.9034	69.370103	0.000598	5.982682	2.026988	0.000239
 301	2.9850e+01	11.9451	69.567923	0.000497	4.968668	1.683430	0.000199
 302	2.9950e+01	11.9756	69.773817	0.000517	5.171471	1.752142	0.000207
 303	3.0049e+01	12.0350	69.979711	0.000517	5.171471	1.752142	0.000207
 304	3.0148e+01	12.0638	70.230013	0.000629	6.286886	2.130055	0.000252
 305	3.0248e+01	12.1023	70.415722	0.000466	4.664464	1.580363	0.000187
 306	3.0348e+01	12.1473	70.633727	0.000548	5.475675	1.855209	0.000219
 307	3.0447e+01	12.1777	70.867881	0.000588	5.881281	1.992632	0.000235
 308	3.0547e+01	12.2210	71.106072	0.000598	5.982682	2.026988	0.000239
 309	3.0646e+01	12.2612	71.291780	0.000466	4.664464	1.580363	0.000187
 310	3.0745e+01	12.2964	71.505748	0.000537	5.374274	1.820853	0.000215
 311	3.0845e+01	12.3526	71.723754	0.000548	5.475675	1.855209	0.000219
 312	3.0945e+01	12.3863	71.961945	0.000598	5.982682	2.026988	0.000239
 313	3.1044e+01	12.4232	72.151690	0.000477	4.765866	1.614719	0.000191
 314	3.1143e+01	12.4665	72.349510	0.000497	4.968668	1.683430	0.000199
 315	3.1243e+01	12.5066	72.551366	0.000507	5.070070	1.717786	0.000203
 316	3.1343e+01	12.5403	72.761297	0.000527	5.272872	1.786498	0.000211
 317	3.1442e+01	12.5932	72.955080	0.000487	4.867267	1.649075	0.000195
 318	3.1541e+01	12.6269	73.217494	0.000659	6.591091	2.233122	0.000264
 319	3.1641e+01	12.6622	73.415313	0.000497	4.968668	1.683430	0.000199
 320	3.1741e+01	12.7103	73.617170	0.000507	5.070070	1.717786	0.000203
 321	3.1840e+01	12.7456	73.827101	0.000527	5.272872	1.786498	0.000211
 322	3.1939e+01	12.7873	74.049144	0.000558	5.577077	1.889565	0.000223
 323	3.2039e+01	12.8258	74.255038	0.000517	5.171471	1.752142	0.000207
 324	3.2139e+01	12.8515	74.473043	0.000548	5.475675	1.855209	0.000219
 325	3.2238e+01	12.8916	74.666825	0.000487	4.867267	1.649075	0.000195
 326	3.2337e+01	12.9381	74.852534	0.000466	4.664464	1.580363	0.000187
 327	3.2437e+01	12.9734	75.074576	0.000558	5.577077	1.889565	0.000223
 328	3.2536e+01	13.0200	75.268359	0.000487	4.867267	1.649075	0.000195
 329	3.2636e+01	13.0665	75.494438	0.000568	5.678478	1.923920	0.000227
 330	3.2736e+01	13.1034	75.680147	0.000466	4.664464	1.580363	0.000187
 331	3.2835e+01	13.1403	75.898152	0.000548	5.475675	1.855209	0.000219
 332	3.2934e+01	13.1708	76.100009	0.000507	5.070070	1.717786	0.000203
 333	3.3034e+01	13.2221	76.318014	0.000548	5.475675	1.855209	0.000219
 334	3.3133e+01	13.2622	76.560242	0.000608	6.084084	2.061343	0.000243
 335	3.3233e+01	13.2991	76.754025	0.000487	4.867267	1.649075	0.000195
 336	3.3333e+01	13.3408	76.951844	0.000497	4.968668	1.683430	0.000199
 337	3.3432e+01	13.3793	77.165812	0.000537	5.374274	1.820853	0.000215
 338	3.3532e+01	13.4242	77.343446	0.000446	4.461661	1.511652	0.000179
 339	3.3631e+01	13.4643	77.565489	0.000558	5.577077	1.889565	0.000223
 340	3.3730e+01	13.4916	77.759271	0.000487	4.867267	1.649075	0.000195
 341	3.3830e+01	13.5365	77.961128	0.000507	5.070070	1.717786	0.000203
 342	3.3929e+01	13.5702	78.162985	0.000507	5.070070	1.717786	0.000203
 343	3.4029e+01	13.6231	78.352730	0.000477	4.765866	1.614719	0.000191
 344	3.4129e+01	13.6665	78.594959	0.000608	6.084084	2.061343	0.000243
 345	3.4228e+01	13.6873	78.796815	0.000507	5.070070	1.717786	0.000203
 346	3.4328e+01	13.7403	78.982524	0.000466	4.664464	1.580363	0.000187
 347	3.4427e+01	13.7627	79.172269	0.000477	4.765866	1.614719	0.000191
 348	3.4526e+01	13.8189	79.366051	0.000487	4.867267	1.649075	0.000195
 349	3.4626e+01	13.8445	79.575983	0.000527	5.272872	1.786498	0.000211
 350	3.4725e+01	13.8911	79.789951	0.000537	5.374274	1.820853	0.000215
 351	3.4825e+01	13.9376	80.007956	0.000548	5.475675	1.855209	0.000219
 352	3.4925e+01	13.9697	80.181553	0.000436	4.360260	1.477296	0.000174
 353	3.5024e+01	14.0146	80.407632	0.000568	5.678478	1.923920	0.000227
 354	3.5123e+01	14.0531	80.629675	0.000558	5.577077	1.889565	0.000223
 355	3.5223e+01	14.0948	80.803272	0.000436	4.360260	1.477296	0.000174
 356	3.5322e+01	14.1397	81.001091	0.000497	4.968668	1.683430	0.000199
 357	3.5422e+01	14.1814	81.219097	0.000548	5.475675	1.855209	0.000219
 358	3.5522e+01	14.2199	81.408842	0.000477	4.765866	1.614719	0.000191
 359	3.5621e+01	14.2520	81.590513	0.000456	4.563063	1.546007	0.000183
 360	3.5721e+01	14.2921	81.828704	0.000598	5.982682	2.026988	0.000239
 361	3.5820e+01	14.3306	81.994227	0.000416	4.157457	1.408585	0.000166
 362	3.5919e+01	14.3755	82.208195	0.000537	5.374274	1.820853	0.000215
 363	3.6019e+01	14.4092	82.401978	0.000487	4.867267	1.649075	0.000195
 364	3.6118e+01	14.4622	82.648243	0.000619	6.185485	2.095699	0.000248
 365	3.6218e+01	14.4958	82.837988	0.000477	4.765866	1.614719	0.000191
 366	3.6318e+01	14.5392	83.015622	0.000446	4.461661	1.511652	0.000179
 367	3.6417e+01	14.5712	83.241702	0.000568	5.678478	1.923920	0.000227
 368	3.6517e+01	14.6210	83.439521	0.000497	4.968668	1.683430	0.000199
 369	3.6616e+01	14.6499	83.649452	0.000527	5.272872	1.786498	0.000211
 370	3.6715e+01	14.6900	83.859384	0.000527	5.272872	1.786498	0.000211
 371	3.6815e+01	14.7349	84.028943	0.000426	4.258859	1.442940	0.000170
 372	3.6914e+01	14.7734	84.234837	0.000517	5.171471	1.752142	0.000207
 373	3.7014e+01	14.8151	84.432657	0.000497	4.968668	1.683430	0.000199
 374	3.7114e+01	14.8520	84.630476	0.000497	4.968668	1.683430	0.000199
 375	3.7213e+01	14.8969	84.840408	0.000527	5.272872	1.786498	0.000211
 376	3.7313e+01	14.9354	85.066487	0.000568	5.678478	1.923920	0.000227
 377	3.7412e+01	14.9675	85.240084	0.000436	4.360260	1.477296	0.000174
 378	3.7511e+01	15.0124	85.421755	0.000456	4.563063	1.546007	0.000183
 379	3.7611e+01	15.0445	85.619575	0.000497	4.968668	1.683430	0.000199
 380	3.7711e+01	15.0926	85.849691	0.000578	5.779879	1.958276	0.000231
 381	3.7810e+01	15.1311	86.075771	0.000568	5.678478	1.923920	0.000227
 382	3.7910e+01	15.1744	86.221108	0.000365	3.650450	1.236806	0.000146
 383	3.8009e+01	15.2145	86.431039	0.000527	5.272872	1.786498	0.000211
 384	3.8108e+01	15.2530	86.657119	0.000568	5.678478	1.923920	0.000227
 385	3.8208e+01	15.3044	86.871087	0.000537	5.374274	1.820853	0.000215
 386	3.8307e+01	15.3284	87.048721	0.000446	4.461661	1.511652	0.000179
 387	3.8407e+01	15.3702	87.234429	0.000466	4.664464	1.580363	0.000187
 388	3.8507e+01	15.4071	87.436286	0.000507	5.070070	1.717786	0.000203
 389	3.8606e+01	15.4536	87.634105	0.000497	4.968668	1.683430	0.000199
 390	3.8706e+01	15.4953	87.864222	0.000578	5.779879	1.958276	0.000231
 391	3.8805e+01	15.5306	88.013596	0.000375	3.751852	1.271162	0.000150
 392	3.8904e+01	15.5739	88.288121	0.000690	6.895295	2.336189	0.000276
 393	3.9004e+01	15.6124	88.437495	0.000375	3.751852	1.271162	0.000150
 394	3.9103e+01	15.6557	88.627241	0.000477	4.765866	1.614719	0.000191
 395	3.9203e+01	15.6894	88.837172	0.000527	5.272872	1.786498	0.000211
 396	3.9303e+01	15.7295	89.018843	0.000456	4.563063	1.546007	0.000183
 397	3.9402e+01	15.7648	89.244923	0.000568	5.678478	1.923920	0.000227
 398	3.9502e+01	15.8209	89.479076	0.000588	5.881281	1.992632	0.000235
 399	3.9601e+01	15.8418	89.620376	0.000355	3.549049	1.202450	0.000142
 400	3.9700e+01	15.8867	89.822233	0.000507	5.070070	1.717786	0.000203
 401	3.9800e+01	15.9268	90.044276	0.000558	5.577077	1.889565	0.000223
 402	3.9900e+01	15.9750	90.217872	0.000436	4.360260	1.477296	0.000174
 403	3.9999e+01	15.9990	90.419729	0.000507	5.070070	1.717786	0.000203
 404	4.0099e+01	16.0487	90.637734	0.000548	5.475675	1.855209	0.000219
 405	4.0198e+01	16.0824	90.807294	0.000426	4.258859	1.442940	0.000170
 406	4.0297e+01	16.1257	90.997040	0.000477	4.765866	1.614719	0.000191
 407	4.0397e+01	16.1578	91.211008	0.000537	5.374274	1.820853	0.000215
 408	4.0496e+01	16.2108	91.404790	0.000487	4.867267	1.649075	0.000195
 409	4.0596e+01	16.2477	91.622796	0.000548	5.475675	1.855209	0.000219
 410	4.0696e+01	16.2910	91.800430	0.000446	4.461661	1.511652	0.000179
 411	4.0795e+01	16.3183	91.994212	0.000487	4.867267	1.649075	0.000195
 412	4.0895e+01	16.3696	92.204143	0.000527	5.272872	1.786498	0.000211
 413	4.0994e+01	16.3985	92.410037	0.000517	5.171471	1.752142	0.000207
 414	4.1093e+01	16.4450	92.583634	0.000436	4.360260	1.477296	0.000174
 415	4.1193e+01	16.4819	92.797602	0.000537	5.374274	1.820853	0.000215
 416	4.1292e+01	16.5220	92.979273	0.000456	4.563063	1.546007	0.000183
 417	4.1392e+01	16.5637	93.221501	0.000608	6.084084	2.061343	0.000243
 418	4.1492e+01	16.6070	93.378950	0.000395	3.954654	1.339873	0.000158
 419	4.1591e+01	16.6487	93.584844	0.000517	5.171471	1.752142	0.000207
 420	4.1691e+01	16.6904	93.806886	0.000558	5.577077	1.889565	0.000223
 421	4.1790e+01	16.7273	93.944149	0.000345	3.447647	1.168095	0.000138
 422	4.1889e+01	16.7658	94.170228	0.000568	5.678478	1.923920	0.000227
 423	4.1989e+01	16.8059	94.372085	0.000507	5.070070	1.717786	0.000203
 424	4.2089e+01	16.8525	94.553756	0.000456	4.563063	1.546007	0.000183
 425	4.2188e+01	16.8846	94.787910	0.000588	5.881281	1.992632	0.000235
 426	4.2288e+01	16.9263	94.965544	0.000446	4.461661	1.511652	0.000179
 427	4.2387e+01	16.9567	95.118955	0.000385	3.853253	1.305517	0.000154
 428	4.2486e+01	17.0033	95.361183	0.000608	6.084084	2.061343	0.000243
 429	4.2586e+01	17.0418	95.542854	0.000456	4.563063	1.546007	0.000183
 430	4.2685e+01	17.0803	95.732600	0.000477	4.765866	1.614719	0.000191
 431	4.2785e+01	17.1172	95.934457	0.000507	5.070070	1.717786	0.000203
 432	4.2885e+01	17.1621	96.132276	0.000497	4.968668	1.683430	0.000199
 433	4.2984e+01	17.2022	96.334133	0.000507	5.070070	1.717786	0.000203
 434	4.3084e+01	17.2471	96.515804	0.000456	4.563063	1.546007	0.000183
 435	4.3183e+01	17.2840	96.729772	0.000537	5.374274	1.820853	0.000215
 436	4.3282e+01	17.3273	96.919518	0.000477	4.765866	1.614719	0.000191
 437	4.3382e+01	17.3546	97.076966	0.000395	3.954654	1.339873	0.000158
 438	4.3481e+01	17.3995	97.294971	0.000548	5.475675	1.855209	0.000219
 439	4.3581e+01	17.4412	97.508939	0.000537	5.374274	1.820853	0.000215
 440	4.3681e+01	17.4829	97.710796	0.000507	5.070070	1.717786	0.000203
 441	4.3780e+01	17.5246	97.876319	0.000416	4.157457	1.408585	0.000166
 442	4.3880e+01	17.5712	98.082213	0.000517	5.171471	1.752142	0.000207
 443	4.3979e+01	17.5968	98.267921	0.000466	4.664464	1.580363	0.000187
 444	4.4078e+01	17.6450	98.465741	0.000497	4.968668	1.683430	0.000199
 445	4.4178e+01	17.6819	98.663560	0.000497	4.968668	1.683430	0.000199
 446	4.4278e+01	17.7188	98.825046	0.000406	4.056056	1.374229	0.000162
 447	4.4377e+01	17.7637	99.030940	0.000517	5.171471	1.752142	0.000207
 448	4.4477e+01	17.8038	99.216648	0.000466	4.664464	1.580363	0.000187
 449	4.4576e+01	17.8439	99.426579	0.000527	5.272872	1.786498	0.000211
 450	4.4675e+01	17.8904	99.563842	0.000345	3.447647	1.168095	0.000138
 451	4.4775e+01	17.9225	99.806070	0.000608	6.084084	2.061343	0.000243
 452	4.4874e+01	17.9578	99.999852	0.000487	4.867267	1.649075	0.000195
 453	4.4974e+01	18.0011	100.145189	0.000365	3.650450	1.236806	0.000146
 454	4.5074e+01	18.0428	100.355120	0.000527	5.272872	1.786498	0.000211
 455	4.5173e+01	18.0797	100.528717	0.000436	4.360260	1.477296	0.000174
 456	4.5273e+01	18.1214	100.734611	0.000517	5.171471	1.752142	0.000207
 457	4.5372e+01	18.1567	100.912245	0.000446	4.461661	1.511652	0.000179
 458	4.5471e+01	18.2000	101.101990	0.000477	4.765866	1.614719	0.000191
 459	4.5571e+01	18.2353	101.255401	0.000385	3.853253	1.305517	0.000154
 460	4.5670e+01	18.2850	101.485518	0.000578	5.779879	1.958276	0.000231
 461	4.5770e+01	18.3235	101.699486	0.000537	5.374274	1.820853	0.000215
 462	4.5870e+01	18.3717	101.852898	0.000385	3.853253	1.305517	0.000154
 463	4.5969e+01	18.3925	102.026494	0.000436	4.360260	1.477296	0.000174
 464	4.6069e+01	18.4407	102.244500	0.000548	5.475675	1.855209	0.000219
 465	4.6168e+01	18.4776	102.430208	0.000466	4.664464	1.580363	0.000187
 466	4.6267e+01	18.5209	102.623990	0.000487	4.867267	1.649075	0.000195
 467	4.6367e+01	18.5578	102.769327	0.000365	3.650450	1.236806	0.000146
 468	4.6467e+01	18.5979	103.027704	0.000649	6.489689	2.198766	0.000260
 469	4.6566e+01	18.6380	103.169004	0.000355	3.549049	1.202450	0.000142
 470	4.6666e+01	18.6813	103.350675	0.000456	4.563063	1.546007	0.000183
 471	4.6765e+01	18.7166	103.556569	0.000517	5.171471	1.752142	0.000207
 472	4.6864e+01	18.7567	103.709980	0.000385	3.853253	1.305517	0.000154
 473	4.6964e+01	18.8048	103.956245	0.000619	6.185485	2.095699	0.000248
 474	4.7063e+01	18.8417	104.093508	0.000345	3.447647	1.168095	0.000138
 475	4.7163e+01	18.8770	104.283253	0.000477	4.765866	1.614719	0.000191
 476	4.7263e+01	18.9203	104.472999	0.000477	4.765866	1.614719	0.000191
 477	4.7362e+01	18.9588	104.666781	0.000487	4.867267	1.649075	0.000195
 478	4.7462e+01	19.0037	104.872675	0.000517	5.171471	1.752142	0.000207
 479	4.7561e+01	19.0310	105.026086	0.000385	3.853253	1.305517	0.000154
 480	4.7660e+01	19.0807	105.219869	0.000487	4.867267	1.649075	0.000195
 481	4.7760e+01	19.1257	105.405577	0.000466	4.664464	1.580363	0.000187
 482	4.7859e+01	19.1642	105.595322	0.000477	4.765866	1.614719	0.000191
 483	4.7959e+01	19.2027	105.768919	0.000436	4.360260	1.477296	0.000174
 484	4.8059e+01	19.2444	105.974813	0.000517	5.171471	1.752142	0.000207
 485	4.8158e+01	19.2684	106.160521	0.000466	4.664464	1.580363	0.000187
 486	4.8258e+01	19.3342	106.334118	0.000436	4.360260	1.477296	0.000174
 487	4.8357e+01	19.3615	106.511752	0.000446	4.461661	1.511652	0.000179
 488	4.8456e+01	19.4000	106.697460	0.000466	4.664464	1.580363	0.000187
 489	4.8556e+01	19.4369	106.846834	0.000375	3.751852	1.271162	0.000150
 490	4.8656e+01	19.4706	107.089063	0.000608	6.084084	2.061343	0.000243
 491	4.8755e+01	19.5139	107.270734	0.000456	4.563063	1.546007	0.000183
 492	4.8855e+01	19.5508	107.456442	0.000466	4.664464	1.580363	0.000187
 493	4.8954e+01	19.6021	107.621965	0.000416	4.157457	1.408585	0.000166
 494	4.9053e+01	19.6310	107.767301	0.000365	3.650450	1.236806	0.000146
 495	4.9153e+01	19.6615	107.985307	0.000548	5.475675	1.855209	0.000219
 496	4.9252e+01	19.7208	108.150829	0.000416	4.157457	1.408585	0.000166
 497	4.9352e+01	19.7593	108.364797	0.000537	5.374274	1.820853	0.000215
 498	4.9452e+01	19.7930	108.542431	0.000446	4.461661	1.511652	0.000179
 499	4.9551e+01	19.8267	108.732177	0.000477	4.765866	1.614719	0.000191
 500	4.9651e+01	19.8716	108.881551	0.000375	3.751852	1.271162	0.000150
 501	4.9750e+01	19.9246	109.063222	0.000456	4.563063	1.546007	0.000183
 502	4.9849e+01	19.9454	109.281227	0.000548	5.475675	1.855209	0.000219
 503	4.9949e+01	19.9855	109.487121	0.000517	5.171471	1.752142	0.000207
 504	5.0048e+01	19.9486	109.337747	0.000375	3.751852	1.271162	-0.000150
 505	5.0148e+01	19.9053	109.204522	0.000335	3.346246	1.133739	-0.000134
 506	5.0248e+01	19.8732	109.075333	0.000324	3.244845	1.099383	-0.000130
 507	5.0347e+01	19.8412	108.929996	0.000365	3.650450	1.236806	-0.000146
 508	5.0447e+01	19.7866	108.829068	0.000254	2.535035	0.858893	-0.000101
 509	5.0546e+01	19.7609	108.671620	0.000395	3.954654	1.339873	-0.000158
 510	5.0645e+01	19.7112	108.562617	0.000274	2.737838	0.927604	-0.000110
 511	5.0745e+01	19.6791	108.425355	0.000345	3.447647	1.168095	-0.000138
 512	5.0844e+01	19.6294	108.275980	0.000375	3.751852	1.271162	-0.000150
 513	5.0944e+01	19.5877	108.154866	0.000304	3.042042	1.030672	-0.000122
 514	5.1044e+01	19.5540	108.025678	0.000324	3.244845	1.099383	-0.000130
 515	5.1143e+01	19.4994	107.864193	0.000406	4.056056	1.374229	-0.000162
 516	5.1242e+01	19.4738	107.751153	0.000284	2.839239	0.961960	-0.000114
 517	5.1342e+01	19.4369	107.621965	0.000324	3.244845	1.099383	-0.000130
 518	5.1441e+01	19.3968	107.412033	0.000527	5.272872	1.786498	-0.000211
 519	5.1541e+01	19.3583	107.270734	0.000355	3.549049	1.202450	-0.000142
 520	5.1641e+01	19.3278	107.149620	0.000304	3.042042	1.030672	-0.000122
 521	5.1740e+01	19.2636	107.044654	0.000264	2.636436	0.893249	-0.000105
 522	5.1840e+01	19.2412	106.871057	0.000436	4.360260	1.477296	-0.000174
 523	5.1939e+01	19.1946	106.745906	0.000314	3.143443	1.065027	-0.000126
 524	5.2038e+01	19.1626	106.568272	0.000446	4.461661	1.511652	-0.000179
 525	5.2138e+01	19.1112	106.455232	0.000284	2.839239	0.961960	-0.000114
 526	5.2237e+01	19.0759	106.309895	0.000365	3.650450	1.236806	-0.000146
 527	5.2337e+01	19.0342	106.116113	0.000487	4.867267	1.649075	-0.000195
 528	5.2437e+01	18.9989	106.027296	0.000223	2.230831	0.755826	-0.000089
 529	5.2536e+01	18.9556	105.857736	0.000426	4.258859	1.442940	-0.000170
 530	5.2636e+01	18.9187	105.740659	0.000294	2.940640	0.996316	-0.000118
 531	5.2735e+01	18.8850	105.563025	0.000446	4.461661	1.511652	-0.000179
 532	5.2834e+01	18.8321	105.425763	0.000345	3.447647	1.168095	-0.000138
 533	5.2934e+01	18.7968	105.280426	0.000365	3.650450	1.236806	-0.000146
 534	5.3033e+01	18.7663	105.098755	0.000456	4.563063	1.546007	-0.000183
 535	5.3133e+01	18.7182	104.965529	0.000335	3.346246	1.133739	-0.000134
 536	5.3233e+01	18.6941	104.832304	0.000335	3.346246	1.133739	-0.000134
 537	5.3332e+01	18.6364	104.646595	0.000466	4.664464	1.580363	-0.000187
 538	5.3431e+01	18.5963	104.521444	0.000314	3.143443	1.065027	-0.000126
 539	5.3531e+01	18.5594	104.388219	0.000335	3.346246	1.133739	-0.000134
 540	5.3630e+01	18.5273	104.218659	0.000426	4.258859	1.442940	-0.000170
 541	5.3730e+01	18.4856	104.069285	0.000375	3.751852	1.271162	-0.000150
 542	5.3830e+01	18.4423	103.907800	0.000406	4.056056	1.374229	-0.000162
 543	5.3929e+01	18.4054	103.774574	0.000335	3.346246	1.133739	-0.000134
 544	5.4029e+01	18.3701	103.572717	0.000507	5.070070	1.717786	-0.000203
 545	5.4128e+01	18.3219	103.447566	0.000314	3.143443	1.065027	-0.000126
 546	5.4227e+01	18.2834	103.298192	0.000375	3.751852	1.271162	-0.000150
 547	5.4327e+01	18.2449	103.152855	0.000365	3.650450	1.236806	-0.000146
 548	5.4426e+01	18.2016	103.015593	0.000345	3.447647	1.168095	-0.000138
 549	5.4526e+01	18.1519	102.850070	0.000416	4.157457	1.408585	-0.000166
 550	5.4626e+01	18.1230	102.684547	0.000416	4.157457	1.408585	-0.000166
 551	5.4725e+01	18.0845	102.527099	0.000395	3.954654	1.339873	-0.000158
 552	5.4825e+01	18.0412	102.369651	0.000395	3.954654	1.339873	-0.000158
 553	5.4924e+01	17.9979	102.244500	0.000314	3.143443	1.065027	-0.000126
 554	5.5023e+01	17.9658	102.074940	0.000426	4.258859	1.442940	-0.000170
 555	5.5123e+01	17.9273	101.937677	0.000345	3.447647	1.168095	-0.000138
 556	5.5222e+01	17.8728	101.764081	0.000436	4.360260	1.477296	-0.000174
 557	5.5322e+01	17.8455	101.642966	0.000304	3.042042	1.030672	-0.000122
 558	5.5422e+01	17.8006	101.445147	0.000497	4.968668	1.683430	-0.000199
 559	5.5521e+01	17.7653	101.315958	0.000324	3.244845	1.099383	-0.000130
 560	5.5620e+01	17.7236	101.150436	0.000416	4.157457	1.408585	-0.000166
 561	5.5720e+01	17.6851	100.976839	0.000436	4.360260	1.477296	-0.000174
 562	5.5819e+01	17.6385	100.815354	0.000406	4.056056	1.374229	-0.000162
 563	5.5919e+01	17.6065	100.665980	0.000375	3.751852	1.271162	-0.000150
 564	5.6019e+01	17.5583	100.512568	0.000385	3.853253	1.305517	-0.000154
 565	5.6118e+01	17.5343	100.387417	0.000314	3.143443	1.065027	-0.000126
 566	5.6218e+01	17.4829	100.221895	0.000416	4.157457	1.408585	-0.000166
 567	5.6317e+01	17.4508	100.056372	0.000416	4.157457	1.408585	-0.000166
 568	5.6416e+01	17.4075	99.850478	0.000517	5.171471	1.752142	-0.000207
 569	5.6516e+01	17.3658	99.745513	0.000264	2.636436	0.893249	-0.000105
 570	5.6615e+01	17.3145	99.575953	0.000426	4.258859	1.442940	-0.000170
 571	5.6715e+01	17.2792	99.454839	0.000304	3.042042	1.030672	-0.000122
 572	5.6815e+01	17.2487	99.244908	0.000527	5.272872	1.786498	-0.000211
 573	5.6914e+01	17.2022	99.115720	0.000324	3.244845	1.099383	-0.000130
 574	5.7014e+01	17.1573	98.954234	0.000406	4.056056	1.374229	-0.000162
 575	5.7113e+01	17.1284	98.812934	0.000355	3.549049	1.202450	-0.000142
 576	5.7212e+01	17.0819	98.655486	0.000395	3.954654	1.339873	-0.000158
 577	5.7312e+01	17.0482	98.469778	0.000466	4.664464	1.580363	-0.000187
 578	5.7411e+01	17.0033	98.324441	0.000365	3.650450	1.236806	-0.000146
 579	5.7511e+01	16.9760	98.154881	0.000426	4.258859	1.442940	-0.000170
 580	5.7611e+01	16.9279	98.009544	0.000365	3.650450	1.236806	-0.000146
 581	5.7710e+01	16.8894	97.827873	0.000456	4.563063	1.546007	-0.000183
 582	5.7809e+01	16.8460	97.682536	0.000365	3.650450	1.236806	-0.000146
 583	5.7909e+01	16.7947	97.508939	0.000436	4.360260	1.477296	-0.000174
 584	5.8008e+01	16.7674	97.347454	0.000406	4.056056	1.374229	-0.000162
 585	5.8108e+01	16.7241	97.202117	0.000365	3.650450	1.236806	-0.000146
 586	5.8208e+01	16.6744	97.024483	0.000446	4.461661	1.511652	-0.000179
 587	5.8307e+01	16.6423	96.875109	0.000375	3.751852	1.271162	-0.000150
 588	5.8407e+01	16.6086	96.737847	0.000345	3.447647	1.168095	-0.000138
 589	5.8506e+01	16.5589	96.576361	0.000406	4.056056	1.374229	-0.000162
 590	5.8605e+01	16.5252	96.398727	0.000446	4.461661	1.511652	-0.000179
 591	5.8705e+01	16.4819	96.253390	0.000365	3.650450	1.236806	-0.000146
 592	5.8804e+01	16.4514	96.099979	0.000385	3.853253	1.305517	-0.000154
 593	5.8904e+01	16.4193	95.934457	0.000416	4.157457	1.408585	-0.000166
 594	5.9004e+01	16.3744	95.756823	0.000446	4.461661	1.511652	-0.000179
 595	5.9103e+01	16.3247	95.615523	0.000355	3.549049	1.202450	-0.000142
 596	5.9203e+01	16.2862	95.441926	0.000436	4.360260	1.477296	-0.000174
 597	5.9302e+01	16.2525	95.292552	0.000375	3.751852	1.271162	-0.000150
 598	5.9401e+01	16.2060	95.127029	0.000416	4.157457	1.408585	-0.000166
 599	5.9501e+01	16.1659	94.977655	0.000375	3.751852	1.271162	-0.000150
 600	5.9600e+01	16.1257	94.800021	0.000446	4.461661	1.511652	-0.000179
 601	5.9700e+01	16.0872	94.610276	0.000477	4.765866	1.614719	-0.000191
 602	5.9800e+01	16.0503	94.452828	0.000395	3.954654	1.339873	-0.000158
 603	5.9899e+01	16.0006	94.311528	0.000355	3.549049	1.202450	-0.000142
 604	5.9998e+01	15.9717	94.141968	0.000426	4.258859	1.442940	-0.000170
 605	6.0098e+01	15.9300	93.992594	0.000375	3.751852	1.271162	-0.000150
 606	6.0197e+01	15.8915	93.810923	0.000456	4.563063	1.546007	-0.000183
 607	6.0297e+01	15.8354	93.657512	0.000385	3.853253	1.305517	-0.000154
 608	6.0397e+01	15.8049	93.487952	0.000426	4.258859	1.442940	-0.000170
 609	6.0496e+01	15.7664	93.294170	0.000487	4.867267	1.649075	-0.000195
 610	6.0596e+01	15.7247	93.164981	0.000324	3.244845	1.099383	-0.000130
 611	6.0695e+01	15.6798	92.995422	0.000426	4.258859	1.442940	-0.000170
 612	6.0794e+01	15.6493	92.854122	0.000355	3.549049	1.202450	-0.000142
 613	6.0894e+01	15.6108	92.676488	0.000446	4.461661	1.511652	-0.000179
 614	6.0993e+01	15.5659	92.470594	0.000517	5.171471	1.752142	-0.000207
 615	6.1093e+01	15.5242	92.305072	0.000416	4.157457	1.408585	-0.000166
 616	6.1193e+01	15.4857	92.135512	0.000426	4.258859	1.442940	-0.000170
 617	6.1292e+01	15.4520	91.982101	0.000385	3.853253	1.305517	-0.000154
 618	6.1392e+01	15.4119	91.808504	0.000436	4.360260	1.477296	-0.000174
 619	6.1491e+01	15.3686	91.634907	0.000436	4.360260	1.477296	-0.000174
 620	6.1590e+01	15.3349	91.445162	0.000477	4.765866	1.614719	-0.000191
 621	6.1690e+01	15.2915	91.275602	0.000426	4.258859	1.442940	-0.000170
 622	6.1789e+01	15.2530	91.118154	0.000395	3.954654	1.339873	-0.000158
 623	6.1889e+01	15.2161	90.924371	0.000487	4.867267	1.649075	-0.000195
 624	6.1989e+01	15.1744	90.795183	0.000324	3.244845	1.099383	-0.000130
 625	6.2088e+01	15.1391	90.613512	0.000456	4.563063	1.546007	-0.000183
 626	6.2188e+01	15.0926	90.427803	0.000466	4.664464	1.580363	-0.000187
 627	6.2287e+01	15.0525	90.258244	0.000426	4.258859	1.442940	-0.000170
 628	6.2386e+01	15.0108	90.088684	0.000426	4.258859	1.442940	-0.000170
 629	6.2486e+01	14.9675	89.915087	0.000436	4.360260	1.477296	-0.000174
 630	6.2586e+01	14.9338	89.741490	0.000436	4.360260	1.477296	-0.000174
 631	6.2685e+01	14.8953	89.563856	0.000446	4.461661	1.511652	-0.000179
 632	6.2785e+01	14.8568	89.386222	0.000446	4.461661	1.511652	-0.000179
 633	6.2884e+01	14.8023	89.232811	0.000385	3.853253	1.305517	-0.000154
 634	6.2983e+01	14.7686	89.039029	0.000487	4.867267	1.649075	-0.000195
 635	6.3083e+01	14.7204	88.865432	0.000436	4.360260	1.477296	-0.000174
 636	6.3182e+01	14.6900	88.691835	0.000436	4.360260	1.477296	-0.000174
 637	6.3282e+01	14.6515	88.518238	0.000436	4.360260	1.477296	-0.000174
 638	6.3382e+01	14.6194	88.324456	0.000487	4.867267	1.649075	-0.000195
 639	6.3481e+01	14.5761	88.110487	0.000537	5.374274	1.820853	-0.000215
 640	6.3581e+01	14.5440	87.977262	0.000335	3.346246	1.133739	-0.000134
 641	6.3680e+01	14.4926	87.783479	0.000487	4.867267	1.649075	-0.000195
 642	6.3779e+01	14.4590	87.654291	0.000324	3.244845	1.099383	-0.000130
 643	6.3879e+01	14.4188	87.476657	0.000446	4.461661	1.511652	-0.000179
 644	6.3978e+01	14.3739	87.286912	0.000477	4.765866	1.614719	-0.000191
 645	6.4078e+01	14.3322	87.093129	0.000487	4.867267	1.649075	-0.000195
 646	6.4177e+01	14.2969	86.915495	0.000446	4.461661	1.511652	-0.000179
 647	6.4277e+01	14.2504	86.749973	0.000416	4.157457	1.408585	-0.000166
 648	6.4376e+01	14.2055	86.527930	0.000558	5.577077	1.889565	-0.000223
 649	6.4476e+01	14.1654	86.427002	0.000254	2.535035	0.858893	-0.000101
 650	6.4576e+01	14.1429	86.208997	0.000548	5.475675	1.855209	-0.000219
 651	6.4675e+01	14.0932	86.035400	0.000436	4.360260	1.477296	-0.000174
 652	6.4775e+01	14.0499	85.857766	0.000446	4.461661	1.511652	-0.000179
 653	6.4874e+01	14.0146	85.684169	0.000436	4.360260	1.477296	-0.000174
 654	6.4974e+01	13.9761	85.502498	0.000456	4.563063	1.546007	-0.000183
 655	6.5073e+01	13.9408	85.308715	0.000487	4.867267	1.649075	-0.000195
 656	6.5172e+01	13.8959	85.135118	0.000436	4.360260	1.477296	-0.000174
 657	6.5272e+01	13.8542	84.945373	0.000477	4.765866	1.614719	-0.000191
 658	6.5371e+01	13.8076	84.767739	0.000446	4.461661	1.511652	-0.000179
 659	6.5471e+01	13.7739	84.602217	0.000416	4.157457	1.408585	-0.000166
 660	6.5570e+01	13.7322	84.376137	0.000568	5.678478	1.923920	-0.000227
 661	6.5670e+01	13.7001	84.214651	0.000406	4.056056	1.374229	-0.000162
 662	6.5769e+01	13.6568	84.045092	0.000426	4.258859	1.442940	-0.000170
 663	6.5869e+01	13.6151	83.879569	0.000416	4.157457	1.408585	-0.000166
 664	6.5969e+01	13.5750	83.669638	0.000527	5.272872	1.786498	-0.000211
 665	6.6068e+01	13.5301	83.492004	0.000446	4.461661	1.511652	-0.000179
 666	6.6168e+01	13.4964	83.314370	0.000446	4.461661	1.511652	-0.000179
 667	6.6267e+01	13.4515	83.116551	0.000497	4.968668	1.683430	-0.000199
 668	6.6367e+01	13.4114	82.926805	0.000477	4.765866	1.614719	-0.000191
 669	6.6466e+01	13.3745	82.757245	0.000426	4.258859	1.442940	-0.000170
 670	6.6566e+01	13.3424	82.563463	0.000487	4.867267	1.649075	-0.000195
 671	6.6665e+01	13.3007	82.401978	0.000406	4.056056	1.374229	-0.000162
 672	6.6764e+01	13.2654	82.200121	0.000507	5.070070	1.717786	-0.000203
 673	6.6864e+01	13.2093	82.010375	0.000477	4.765866	1.614719	-0.000191
 674	6.6963e+01	13.1900	81.796407	0.000537	5.374274	1.820853	-0.000215
 675	6.7063e+01	13.1483	81.634922	0.000406	4.056056	1.374229	-0.000162
 676	6.7162e+01	13.0905	81.473436	0.000406	4.056056	1.374229	-0.000162
 677	6.7262e+01	13.0649	81.251394	0.000558	5.577077	1.889565	-0.000223
 678	6.7362e+01	13.0216	81.089908	0.000406	4.056056	1.374229	-0.000162
 679	6.7461e+01	12.9847	80.884015	0.000517	5.171471	1.752142	-0.000207
 680	6.7561e+01	12.9413	80.710418	0.000436	4.360260	1.477296	-0.000174
 681	6.7660e+01	12.9028	80.512598	0.000497	4.968668	1.683430	-0.000199
 682	6.7760e+01	12.8643	80.347075	0.000416	4.157457	1.408585	-0.000166
 683	6.7859e+01	12.8194	80.153293	0.000487	4.867267	1.649075	-0.000195
 684	6.7959e+01	12.7857	79.979696	0.000436	4.360260	1.477296	-0.000174
 685	6.8058e+01	12.7424	79.773802	0.000517	5.171471	1.752142	-0.000207
 686	6.8157e+01	12.6879	79.580020	0.000487	4.867267	1.649075	-0.000195
 687	6.8257e+01	12.6606	79.362014	0.000548	5.475675	1.855209	-0.000219
 688	6.8356e+01	12.6205	79.220715	0.000355	3.549049	1.202450	-0.000142
 689	6.8456e+01	12.5772	79.047118	0.000436	4.360260	1.477296	-0.000174
 690	6.8555e+01	12.5403	78.829112	0.000548	5.475675	1.855209	-0.000219
 691	6.8655e+01	12.5082	78.647441	0.000456	4.563063	1.546007	-0.000183
 692	6.8754e+01	12.4633	78.437510	0.000527	5.272872	1.786498	-0.000211
 693	6.8854e+01	12.4216	78.267951	0.000426	4.258859	1.442940	-0.000170
 694	6.8954e+01	12.3863	78.090317	0.000446	4.461661	1.511652	-0.000179
 695	6.9053e+01	12.3526	77.884423	0.000517	5.171471	1.752142	-0.000207
 696	6.9153e+01	12.2964	77.698714	0.000466	4.664464	1.580363	-0.000187
 697	6.9252e+01	12.2563	77.553378	0.000365	3.650450	1.236806	-0.000146
 698	6.9352e+01	12.2210	77.339409	0.000537	5.374274	1.820853	-0.000215
 699	6.9451e+01	12.1890	77.125441	0.000537	5.374274	1.820853	-0.000215
 700	6.9550e+01	12.1505	76.943770	0.000456	4.563063	1.546007	-0.000183
 701	6.9650e+01	12.1007	76.754025	0.000477	4.765866	1.614719	-0.000191
 702	6.9749e+01	12.0670	76.564279	0.000477	4.765866	1.614719	-0.000191
 703	6.9849e+01	12.0285	76.382608	0.000456	4.563063	1.546007	-0.000183
 704	6.9948e+01	11.9788	76.200937	0.000456	4.563063	1.546007	-0.000183
 705	7.0048e+01	11.9435	76.007155	0.000487	4.867267	1.649075	-0.000195
 706	7.0147e+01	11.9018	75.797223	0.000527	5.272872	1.786498	-0.000211
 707	7.0247e+01	11.8585	75.627664	0.000426	4.258859	1.442940	-0.000170
 708	7.0347e+01	11.8296	75.490401	0.000345	3.447647	1.168095	-0.000138
 709	7.0446e+01	11.7847	75.227987	0.000659	6.591091	2.233122	-0.000264
 710	7.0546e+01	11.7478	75.034205	0.000487	4.867267	1.649075	-0.000195
 711	7.0645e+01	11.7109	74.880794	0.000385	3.853253	1.305517	-0.000154
 712	7.0745e+01	11.6756	74.674900	0.000517	5.171471	1.752142	-0.000207
 713	7.0844e+01	11.6275	74.489192	0.000466	4.664464	1.580363	-0.000187
 714	7.0944e+01	11.5842	74.246963	0.000608	6.084084	2.061343	-0.000243
 715	7.1043e+01	11.5505	74.121812	0.000314	3.143443	1.065027	-0.000126
 716	7.1142e+01	11.5056	73.911881	0.000527	5.272872	1.786498	-0.000211
 717	7.1242e+01	11.4622	73.714061	0.000497	4.968668	1.683430	-0.000199
 718	7.1341e+01	11.4189	73.516242	0.000497	4.968668	1.683430	-0.000199
 719	7.1441e+01	11.3933	73.334571	0.000456	4.563063	1.546007	-0.000183
 720	7.1540e+01	11.3548	73.160974	0.000436	4.360260	1.477296	-0.000174
 721	7.1640e+01	11.3163	72.955080	0.000517	5.171471	1.752142	-0.000207
 722	7.1740e+01	11.2762	72.765335	0.000477	4.765866	1.614719	-0.000191
 723	7.1839e+01	11.2248	72.595775	0.000426	4.258859	1.442940	-0.000170
 724	7.1939e+01	11.1927	72.353547	0.000608	6.084084	2.061343	-0.000243
 725	7.2038e+01	11.1542	72.179950	0.000436	4.360260	1.477296	-0.000174
 726	7.2138e+01	11.1077	71.998279	0.000456	4.563063	1.546007	-0.000183
 727	7.2237e+01	11.0676	71.780273	0.000548	5.475675	1.855209	-0.000219
 728	7.2337e+01	11.0291	71.610714	0.000426	4.258859	1.442940	-0.000170
 729	7.2436e+01	10.9874	71.404820	0.000517	5.171471	1.752142	-0.000207
 730	7.2535e+01	10.9537	71.239297	0.000416	4.157457	1.408585	-0.000166
 731	7.2635e+01	10.9152	70.988995	0.000629	6.286886	2.130055	-0.000252
 732	7.2734e+01	10.8639	70.847695	0.000355	3.549049	1.202450	-0.000142
 733	7.2834e+01	10.8270	70.601430	0.000619	6.185485	2.095699	-0.000248
 734	7.2933e+01	10.7869	70.464167	0.000345	3.447647	1.168095	-0.000138
 735	7.3033e+01	10.7532	70.221939	0.000608	6.084084	2.061343	-0.000243
 736	7.3132e+01	10.7066	70.052379	0.000426	4.258859	1.442940	-0.000170
 737	7.3232e+01	10.6714	69.842448	0.000527	5.272872	1.786498	-0.000211
 738	7.3332e+01	10.6280	69.656740	0.000466	4.664464	1.580363	-0.000187
 739	7.3431e+01	10.5847	69.458920	0.000497	4.968668	1.683430	-0.000199
 740	7.3531e+01	10.5526	69.236878	0.000558	5.577077	1.889565	-0.000223
 741	7.3630e+01	10.5013	69.059244	0.000446	4.461661	1.511652	-0.000179
 742	7.3730e+01	10.4660	68.861424	0.000497	4.968668	1.683430	-0.000199
 743	7.3829e+01	10.4323	68.699939	0.000406	4.056056	1.374229	-0.000162
 744	7.3928e+01	10.3874	68.473859	0.000568	5.678478	1.923920	-0.000227
 745	7.4028e+01	10.3537	68.251817	0.000558	5.577077	1.889565	-0.000223
 746	7.4127e+01	10.3088	68.126666	0.000314	3.143443	1.065027	-0.000126
 747	7.4227e+01	10.2703	67.904623	0.000558	5.577077	1.889565	-0.000223
 748	7.4326e+01	10.2286	67.694692	0.000527	5.272872	1.786498	-0.000211
 749	7.4426e+01	10.1901	67.508984	0.000466	4.664464	1.580363	-0.000187
 750	7.4525e+01	10.1548	67.290978	0.000548	5.475675	1.855209	-0.000219
 751	7.4625e+01	10.1163	67.109307	0.000456	4.563063	1.546007	-0.000183
 752	7.4725e+01	10.0634	66.919562	0.000477	4.765866	1.614719	-0.000191
 753	7.4824e+01	10.0329	66.709631	0.000527	5.272872	1.786498	-0.000211
 754	7.4924e+01	9.9944	66.503737	0.000517	5.171471	1.752142	-0.000207
 755	7.5023e+01	9.9430	66.330140	0.000436	4.360260	1.477296	-0.000174
 756	7.5123e+01	9.9093	66.152506	0.000446	4.461661	1.511652	-0.000179
 757	7.5222e+01	9.8660	65.946612	0.000517	5.171471	1.752142	-0.000207
 758	7.5322e+01	9.8339	65.736681	0.000527	5.272872	1.786498	-0.000211
 759	7.5421e+01	9.7906	65.534824	0.000507	5.070070	1.717786	-0.000203
 760	7.5520e+01	9.7537	65.328931	0.000517	5.171471	1.752142	-0.000207
 761	7.5620e+01	9.7120	65.139185	0.000477	4.765866	1.614719	-0.000191
 762	7.5719e+01	9.6687	64.921180	0.000548	5.475675	1.855209	-0.000219
 763	7.5819e+01	9.6366	64.739509	0.000456	4.563063	1.546007	-0.000183
 764	7.5918e+01	9.5853	64.501318	0.000598	5.982682	2.026988	-0.000239
 765	7.6018e+01	9.5532	64.327721	0.000436	4.360260	1.477296	-0.000174
 766	7.6118e+01	9.5099	64.109716	0.000548	5.475675	1.855209	-0.000219
 767	7.6217e+01	9.4714	63.956304	0.000385	3.853253	1.305517	-0.000154
 768	7.6317e+01	9.4441	63.722150	0.000588	5.881281	1.992632	-0.000235
 769	7.6416e+01	9.3976	63.532405	0.000477	4.765866	1.614719	-0.000191
 770	7.6516e+01	9.3447	63.334585	0.000497	4.968668	1.683430	-0.000199
 771	7.6615e+01	9.3206	63.124654	0.000527	5.272872	1.786498	-0.000211
 772	7.6715e+01	9.2725	62.902612	0.000558	5.577077	1.889565	-0.000223
 773	7.6814e+01	9.2275	62.696718	0.000517	5.171471	1.752142	-0.000207
 774	7.6913e+01	9.2003	62.515047	0.000456	4.563063	1.546007	-0.000183
 775	7.7013e+01	9.1538	62.280893	0.000588	5.881281	1.992632	-0.000235
 776	7.7112e+01	9.1104	62.074999	0.000517	5.171471	1.752142	-0.000207
 777	7.7212e+01	9.0719	61.885254	0.000477	4.765866	1.614719	-0.000191
 778	7.7311e+01	9.0366	61.651100	0.000588	5.881281	1.992632	-0.000235
 779	7.7411e+01	8.9965	61.481540	0.000426	4.258859	1.442940	-0.000170
 780	7.7510e+01	8.9548	61.295832	0.000466	4.664464	1.580363	-0.000187
 781	7.7610e+01	8.9179	61.057641	0.000598	5.982682	2.026988	-0.000239
 782	7.7710e+01	8.8762	60.863858	0.000487	4.867267	1.649075	-0.000195
 783	7.7809e+01	8.8441	60.657964	0.000517	5.171471	1.752142	-0.000207
 784	7.7909e+01	8.7976	60.411699	0.000619	6.185485	2.095699	-0.000248
 785	7.8008e+01	8.7591	60.225991	0.000466	4.664464	1.580363	-0.000187
 786	7.8108e+01	8.7174	60.003948	0.000558	5.577077	1.889565	-0.000223
 787	7.8207e+01	8.6773	59.769795	0.000588	5.881281	1.992632	-0.000235
 788	7.8306e+01	8.6228	59.600235	0.000426	4.258859	1.442940	-0.000170
 789	7.8406e+01	8.5939	59.362044	0.000598	5.982682	2.026988	-0.000239
 790	7.8505e+01	8.5554	59.168261	0.000487	4.867267	1.649075	-0.000195
 791	7.8605e+01	8.5233	58.926033	0.000608	6.084084	2.061343	-0.000243
 792	7.8704e+01	8.4848	58.736288	0.000477	4.765866	1.614719	-0.000191
 793	7.8804e+01	8.4302	58.526357	0.000527	5.272872	1.786498	-0.000211
 794	7.8903e+01	8.3998	58.324500	0.000507	5.070070	1.717786	-0.000203
 795	7.9003e+01	8.3581	58.094383	0.000578	5.779879	1.958276	-0.000231
 796	7.9103e+01	8.3115	57.868304	0.000568	5.678478	1.923920	-0.000227
 797	7.9202e+01	8.2634	57.714893	0.000385	3.853253	1.305517	-0.000154
 798	7.9302e+01	8.2329	57.420182	0.000740	7.402302	2.507968	-0.000296
 799	7.9401e+01	8.1912	57.250622	0.000426	4.258859	1.442940	-0.000170
 800	7.9501e+01	8.1591	56.996282	0.000639	6.388288	2.164410	-0.000256
 801	7.9600e+01	8.1238	56.786351	0.000527	5.272872	1.786498	-0.000211
 802	7.9700e+01	8.0725	56.580457	0.000517	5.171471	1.752142	-0.000207
 803	7.9799e+01	8.0372	56.366489	0.000537	5.374274	1.820853	-0.000215
 804	7.9898e+01	7.9939	56.168670	0.000497	4.968668	1.683430	-0.000199
 805	7.9998e+01	7.9634	55.958738	0.000527	5.272872	1.786498	-0.000211
 806	8.0097e+01	7.9233	55.712473	0.000619	6.185485	2.095699	-0.000248
 807	8.0197e+01	7.8848	55.522728	0.000477	4.765866	1.614719	-0.000191
 808	8.0296e+01	7.8511	55.328945	0.000487	4.867267	1.649075	-0.000195
 809	8.0396e+01	7.8062	55.070569	0.000649	6.489689	2.198766	-0.000260
 810	8.0496e+01	7.7693	54.840452	0.000578	5.779879	1.958276	-0.000231
 811	8.0595e+01	7.7196	54.606298	0.000588	5.881281	1.992632	-0.000235
 812	8.0695e+01	7.6859	54.412515	0.000487	4.867267	1.649075	-0.000195
 813	8.0794e+01	7.6378	54.182399	0.000578	5.779879	1.958276	-0.000231
 814	8.0894e+01	7.5976	53.976505	0.000517	5.171471	1.752142	-0.000207
 815	8.0993e+01	7.5624	53.758499	0.000548	5.475675	1.855209	-0.000219
 816	8.1093e+01	7.5126	53.548568	0.000527	5.272872	1.786498	-0.000211
 817	8.1192e+01	7.4821	53.330563	0.000548	5.475675	1.855209	-0.000219
 818	8.1291e+01	7.4388	53.096409	0.000588	5.881281	1.992632	-0.000235
 819	8.1391e+01	7.4083	52.882441	0.000537	5.374274	1.820853	-0.000215
 820	8.1490e+01	7.3522	52.636176	0.000619	6.185485	2.095699	-0.000248
 821	8.1590e+01	7.3281	52.426245	0.000527	5.272872	1.786498	-0.000211
 822	8.1689e+01	7.2848	52.208239	0.000548	5.475675	1.855209	-0.000219
 823	8.1789e+01	7.2431	51.978123	0.000578	5.779879	1.958276	-0.000231
 824	8.1888e+01	7.1998	51.756080	0.000558	5.577077	1.889565	-0.000223
 825	8.1988e+01	7.1597	51.521926	0.000588	5.881281	1.992632	-0.000235
 826	8.2088e+01	7.1244	51.291810	0.000578	5.779879	1.958276	-0.000231
 827	8.2187e+01	7.0795	51.081878	0.000527	5.272872	1.786498	-0.000211
 828	8.2287e+01	7.0426	50.859836	0.000558	5.577077	1.889565	-0.000223
 829	8.2386e+01	7.0025	50.625682	0.000588	5.881281	1.992632	-0.000235
 830	8.2486e+01	6.9447	50.403640	0.000558	5.577077	1.889565	-0.000223
 831	8.2585e+01	6.9223	50.141226	0.000659	6.591091	2.233122	-0.000264
 832	8.2684e+01	6.8806	49.939369	0.000507	5.070070	1.717786	-0.000203
 833	8.2784e+01	6.8421	49.705215	0.000588	5.881281	1.992632	-0.000235
 834	8.2883e+01	6.8116	49.483173	0.000558	5.577077	1.889565	-0.000223
 835	8.2983e+01	6.7602	49.208648	0.000690	6.895295	2.336189	-0.000276
 836	8.3082e+01	6.7233	49.010828	0.000497	4.968668	1.683430	-0.000199
 837	8.3182e+01	6.6897	48.813008	0.000497	4.968668	1.683430	-0.000199
 838	8.3281e+01	6.6511	48.574817	0.000598	5.982682	2.026988	-0.000239
 839	8.3381e+01	6.6110	48.336626	0.000598	5.982682	2.026988	-0.000239
 840	8.3481e+01	6.5597	48.102472	0.000588	5.881281	1.992632	-0.000235
 841	8.3580e+01	6.5356	47.888504	0.000537	5.374274	1.820853	-0.000215
 842	8.3680e+01	6.4875	47.662425	0.000568	5.678478	1.923920	-0.000227
 843	8.3779e+01	6.4410	47.408085	0.000639	6.388288	2.164410	-0.000256
 844	8.3879e+01	6.4169	47.222377	0.000466	4.664464	1.580363	-0.000187
 845	8.3978e+01	6.3688	46.959963	0.000659	6.591091	2.233122	-0.000264
 846	8.4078e+01	6.3207	46.750032	0.000527	5.272872	1.786498	-0.000211
 847	8.4177e+01	6.2918	46.507804	0.000608	6.084084	2.061343	-0.000243
 848	8.4276e+01	6.2453	46.249427	0.000649	6.489689	2.198766	-0.000260
 849	8.4376e+01	6.2068	46.015273	0.000588	5.881281	1.992632	-0.000235
 850	8.4475e+01	6.1683	45.781119	0.000588	5.881281	1.992632	-0.000235
 851	8.4575e+01	6.1314	45.559077	0.000558	5.577077	1.889565	-0.000223
 852	8.4674e+01	6.0849	45.316849	0.000608	6.084084	2.061343	-0.000243
 853	8.4774e+01	6.0496	45.070583	0.000619	6.185485	2.095699	-0.000248
 854	8.4874e+01	6.0079	44.848541	0.000558	5.577077	1.889565	-0.000223
 855	8.4973e+01	5.9661	44.650721	0.000497	4.968668	1.683430	-0.000199
 856	8.5073e+01	5.9276	44.400419	0.000629	6.286886	2.130055	-0.000252
 857	8.5172e+01	5.8956	44.182414	0.000548	5.475675	1.855209	-0.000219
 858	8.5272e+01	5.8426	43.883665	0.000750	7.503703	2.542323	-0.000300
 859	8.5371e+01	5.8041	43.710069	0.000436	4.360260	1.477296	-0.000174
 860	8.5471e+01	5.7656	43.500138	0.000527	5.272872	1.786498	-0.000211
 861	8.5570e+01	5.7303	43.205427	0.000740	7.402302	2.507968	-0.000296
 862	8.5669e+01	5.6966	42.999533	0.000517	5.171471	1.752142	-0.000207
 863	8.5769e+01	5.6533	42.745193	0.000639	6.388288	2.164410	-0.000256
 864	8.5868e+01	5.6148	42.494891	0.000629	6.286886	2.130055	-0.000252
 865	8.5968e+01	5.5731	42.256700	0.000598	5.982682	2.026988	-0.000239
 866	8.6067e+01	5.5234	42.046769	0.000527	5.272872	1.786498	-0.000211
 867	8.6167e+01	5.4865	41.812615	0.000588	5.881281	1.992632	-0.000235
 868	8.6266e+01	5.4480	41.582498	0.000578	5.779879	1.958276	-0.000231
 869	8.6366e+01	5.4127	41.324121	0.000649	6.489689	2.198766	-0.000260
 870	8.6466e+01	5.3726	41.114190	0.000527	5.272872	1.786498	-0.000211
 871	8.6565e+01	5.3325	40.880036	0.000588	5.881281	1.992632	-0.000235
 872	8.6665e+01	5.2892	40.641845	0.000598	5.982682	2.026988	-0.000239
 873	8.6764e+01	5.2507	40.427877	0.000537	5.374274	1.820853	-0.000215
 874	8.6864e+01	5.2122	40.177575	0.000629	6.286886	2.130055	-0.000252
 875	8.6963e+01	5.1672	39.947458	0.000578	5.779879	1.958276	-0.000231
 876	8.7063e+01	5.1287	39.745601	0.000507	5.070070	1.717786	-0.000203
 877	8.7162e+01	5.0902	39.458965	0.000720	7.199499	2.439256	-0.000288
 878	8.7261e+01	5.0389	39.257108	0.000507	5.070070	1.717786	-0.000203
 879	8.7361e+01	5.0036	38.962397	0.000740	7.402302	2.507968	-0.000296
 880	8.7460e+01	4.9747	38.792837	0.000426	4.258859	1.442940	-0.000170
 881	8.7560e+01	4.9346	38.558683	0.000588	5.881281	1.992632	-0.000235
 882	8.7659e+01	4.8865	38.328567	0.000578	5.779879	1.958276	-0.000231
 883	8.7759e+01	4.8592	38.045967	0.000710	7.098098	2.404901	-0.000284
 884	8.7859e+01	4.8159	37.831999	0.000537	5.374274	1.820853	-0.000215
 885	8.7958e+01	4.7726	37.618031	0.000537	5.374274	1.820853	-0.000215
 886	8.8058e+01	4.7357	37.379840	0.000598	5.982682	2.026988	-0.000239
 887	8.8157e+01	4.6908	37.149723	0.000578	5.779879	1.958276	-0.000231
 888	8.8257e+01	4.6603	36.931718	0.000548	5.475675	1.855209	-0.000219
 889	8.8356e+01	4.6074	36.689490	0.000608	6.084084	2.061343	-0.000243
 890	8.8456e+01	4.5721	36.439187	0.000629	6.286886	2.130055	-0.000252
 891	8.8555e+01	4.5368	36.200996	0.000598	5.982682	2.026988	-0.000239
 892	8.8654e+01	4.4935	35.958768	0.000608	6.084084	2.061343	-0.000243
 893	8.8754e+01	4.4534	35.680206	0.000700	6.996696	2.370545	-0.000280
 894	8.8853e+01	4.4100	35.470275	0.000527	5.272872	1.786498	-0.000211
 895	8.8953e+01	4.3763	35.228046	0.000608	6.084084	2.061343	-0.000243
 896	8.9052e+01	4.3330	35.030227	0.000497	4.968668	1.683430	-0.000199
 897	8.9152e+01	4.2881	34.759739	0.000679	6.793893	2.301833	-0.000272
 898	8.9251e+01	4.2592	34.489251	0.000679	6.793893	2.301833	-0.000272
 899	8.9351e+01	4.2127	34.267208	0.000558	5.577077	1.889565	-0.000223
 900	8.9451e+01	4.1758	34.008831	0.000649	6.489689	2.198766	-0.000260
 901	8.9550e+01	4.1357	33.786789	0.000558	5.577077	1.889565	-0.000223
 902	8.9650e+01	4.0988	33.516301	0.000679	6.793893	2.301833	-0.000272
 903	8.9749e+01	4.0603	33.302333	0.000537	5.374274	1.820853	-0.000215
 904	8.9849e+01	4.0090	33.039919	0.000659	6.591091	2.233122	-0.000264
 905	8.9948e+01	3.9737	32.862285	0.000446	4.461661	1.511652	-0.000179
 906	9.0047e+01	3.9432	32.624094	0.000598	5.982682	2.026988	-0.000239
 907	9.0147e+01	3.8983	32.430311	0.000487	4.867267	1.649075	-0.000195
 908	9.0246e+01	3.8518	32.184046	0.000619	6.185485	2.095699	-0.000248
 909	9.0346e+01	3.8197	31.982189	0.000507	5.070070	1.717786	-0.000203
 910	9.0445e+01	3.7764	31.735924	0.000619	6.185485	2.095699	-0.000248
 911	9.0545e+01	3.7427	31.517919	0.000548	5.475675	1.855209	-0.000219
 912	9.0644e+01	3.7010	31.307988	0.000527	5.272872	1.786498	-0.000211
 913	9.0744e+01	3.6480	31.158614	0.000375	3.751852	1.271162	-0.000150
 914	9.0844e+01	3.6143	30.952720	0.000517	5.171471	1.752142	-0.000207
 915	9.0943e+01	3.5774	30.795271	0.000395	3.954654	1.339873	-0.000158
 916	9.1043e+01	3.5309	30.637823	0.000395	3.954654	1.339873	-0.000158
 917	9.1142e+01	3.4988	30.363298	0.000690	6.895295	2.336189	-0.000276
 918	9.1242e+01	3.4523	30.230072	0.000335	3.346246	1.133739	-0.000134
 919	9.1341e+01	3.4122	30.012067	0.000548	5.475675	1.855209	-0.000219
 920	9.1441e+01	3.3705	29.842507	0.000426	4.258859	1.442940	-0.000170
 921	9.1540e+01	3.3448	29.664873	0.000446	4.461661	1.511652	-0.000179
 922	9.1639e+01	3.3047	29.370162	0.000740	7.402302	2.507968	-0.000296
 923	9.1739e+01	3.2614	29.164269	0.000517	5.171471	1.752142	-0.000207
 924	9.1838e+01	3.2101	28.990672	0.000436	4.360260	1.477296	-0.000174
 925	9.1938e+01	3.1876	28.740369	0.000629	6.286886	2.130055	-0.000252
 926	9.2037e+01	3.1379	28.465844	0.000690	6.895295	2.336189	-0.000276
 927	9.2137e+01	3.0978	28.255913	0.000527	5.272872	1.786498	-0.000211
 928	9.2237e+01	3.0561	27.896608	0.000902	9.024724	3.057659	-0.000361
 929	9.2336e+01	3.0224	27.646306	0.000629	6.286886	2.130055	-0.000252
 930	9.2436e+01	2.9855	27.315260	0.000831	8.314914	2.817169	-0.000333
 931	9.2535e+01	2.9374	27.056884	0.000649	6.489689	2.198766	-0.000260
 932	9.2635e+01	2.9021	26.754099	0.000761	7.605105	2.576679	-0.000304
 933	9.2734e+01	2.8555	26.471499	0.000710	7.098098	2.404901	-0.000284
 934	9.2834e+01	2.8251	26.184862	0.000720	7.199499	2.439256	-0.000288
 935	9.2933e+01	2.7914	25.874003	0.000781	7.807907	2.645391	-0.000312
 936	9.3032e+01	2.7481	25.603515	0.000679	6.793893	2.301833	-0.000272
 937	9.3132e+01	2.7031	25.316878	0.000720	7.199499	2.439256	-0.000288
 938	9.3231e+01	2.6646	25.026204	0.000730	7.300900	2.473612	-0.000292
 939	9.3331e+01	2.6261	24.739568	0.000720	7.199499	2.439256	-0.000288
 940	9.3430e+01	2.5780	24.424671	0.000791	7.909309	2.679746	-0.000316
 941	9.3530e+01	2.5411	24.138035	0.000720	7.199499	2.439256	-0.000288
 942	9.3629e+01	2.5090	23.903881	0.000588	5.881281	1.992632	-0.000235
 943	9.3729e+01	2.4593	23.593021	0.000781	7.807907	2.645391	-0.000312
 944	9.3829e+01	2.4288	23.334645	0.000649	6.489689	2.198766	-0.000260
 945	9.3928e+01	2.3807	23.100491	0.000588	5.881281	1.992632	-0.000235
 946	9.4028e+01	2.3454	22.761371	0.000852	8.517717	2.885881	-0.000341
 947	9.4127e+01	2.3101	22.466660	0.000740	7.402302	2.507968	-0.000296
 948	9.4227e+01	2.2588	22.167912	0.000750	7.503703	2.542323	-0.000300
 949	9.4326e+01	2.2267	21.901461	0.000669	6.692492	2.267478	-0.000268
 950	9.4425e+01	2.1850	21.618862	0.000710	7.098098	2.404901	-0.000284
 951	9.4525e+01	2.1352	21.299928	0.000801	8.010710	2.714102	-0.000321
 952	9.4624e+01	2.1064	20.997143	0.000761	7.605105	2.576679	-0.000304
 953	9.4724e+01	2.0582	20.706469	0.000730	7.300900	2.473612	-0.000292
 954	9.4823e+01	2.0165	20.403684	0.000761	7.605105	2.576679	-0.000304
 955	9.4923e+01	1.9748	20.096862	0.000771	7.706506	2.611035	-0.000308
 956	9.5022e+01	1.9379	19.749668	0.000872	8.720520	2.954592	-0.000349
 957	9.5122e+01	1.9026	19.463031	0.000720	7.199499	2.439256	-0.000288
 958	9.5222e+01	1.8657	19.196580	0.000669	6.692492	2.267478	-0.000268
 959	9.5321e+01	1.8176	18.881684	0.000791	7.909309	2.679746	-0.000316
 960	9.5421e+01	1.7823	18.659641	0.000558	5.577077	1.889565	-0.000223
 961	9.5520e+01	1.7390	18.340708	0.000801	8.010710	2.714102	-0.000321
 962	9.5620e+01	1.7069	18.062145	0.000700	6.996696	2.370545	-0.000280
 963	9.5719e+01	1.6700	17.751286	0.000781	7.807907	2.645391	-0.000312
 964	9.5819e+01	1.6315	17.460612	0.000730	7.300900	2.473612	-0.000292
 965	9.5918e+01	1.5882	17.194161	0.000669	6.692492	2.267478	-0.000268
 966	9.6017e+01	1.5465	16.911562	0.000710	7.098098	2.404901	-0.000284
 967	9.6117e+01	1.5080	16.616851	0.000740	7.402302	2.507968	-0.000296
 968	9.6216e+01	1.4631	16.318103	0.000750	7.503703	2.542323	-0.000300
 969	9.6316e+01	1.4230	16.035503	0.000710	7.098098	2.404901	-0.000284
 970	9.6415e+01	1.3909	15.724644	0.000781	7.807907	2.645391	-0.000312
 971	9.6515e+01	1.3411	15.470304	0.000639	6.388288	2.164410	-0.000256
 972	9.6615e+01	1.3026	15.199816	0.000679	6.793893	2.301833	-0.000272
 973	9.6714e+01	1.2673	14.945477	0.000639	6.388288	2.164410	-0.000256
 974	9.6814e+01	1.2224	14.662877	0.000710	7.098098	2.404901	-0.000284
 975	9.6913e+01	1.1759	14.396426	0.000669	6.692492	2.267478	-0.000268
 976	9.7013e+01	1.1406	14.125938	0.000679	6.793893	2.301833	-0.000272
 977	9.7112e+01	1.1053	13.827190	0.000750	7.503703	2.542323	-0.000300
 978	9.7212e+01	1.0796	13.524405	0.000761	7.605105	2.576679	-0.000304
 979	9.7311e+01	1.0315	13.241805	0.000710	7.098098	2.404901	-0.000284
 980	9.7410e+01	0.9834	12.914797	0.000821	8.213513	2.782813	-0.000329
 981	9.7510e+01	0.9401	12.620086	0.000740	7.402302	2.507968	-0.000296
 982	9.7609e+01	0.9080	12.357672	0.000659	6.591091	2.233122	-0.000264
 983	9.7709e+01	0.8727	12.062962	0.000740	7.402302	2.507968	-0.000296
 984	9.7808e+01	0.8262	11.748065	0.000791	7.909309	2.679746	-0.000316
 985	9.7908e+01	0.7941	11.489688	0.000649	6.489689	2.198766	-0.000260
 986	9.8007e+01	0.7444	11.223237	0.000669	6.692492	2.267478	-0.000268
 987	9.8107e+01	0.6978	10.892192	0.000831	8.314914	2.817169	-0.000333
 988	9.8207e+01	0.6706	10.577296	0.000791	7.909309	2.679746	-0.000316
 989	9.8306e+01	0.6257	10.310845	0.000669	6.692492	2.267478	-0.000268
 990	9.8406e+01	0.5920	10.056505	0.000639	6.388288	2.164410	-0.000256
 991	9.8505e+01	0.5503	9.741609	0.000791	7.909309	2.679746	-0.000316
 992	9.8605e+01	0.5005	9.463046	0.000700	6.996696	2.370545	-0.000280
 993	9.8704e+01	0.4636	9.160261	0.000761	7.605105	2.576679	-0.000304
 994	9.8803e+01	0.4251	8.873624	0.000720	7.199499	2.439256	-0.000288
 995	9.8903e+01	0.3834	8.558728	0.000791	7.909309	2.679746	-0.000316
 996	9.9002e+01	0.3401	8.276128	0.000710	7.098098	2.404901	-0.000284
 997	9.9102e+01	0.3016	7.989492	0.000720	7.199499	2.439256	-0.000288
 998	9.9201e+01	0.2663	7.739189	0.000629	6.286886	2.130055	-0.000252
 999	9.9301e+01	0.2358	7.412181	0.000821	8.213513	2.782813	-0.000329
1000	9.9400e+01	0.1893	7.129582	0.000710	7.098098	2.404901	-0.000284
1001	9.9500e+01	0.1492	6.810648	0.000801	8.010710	2.714102	-0.000321
1002	9.9600e+01	0.1059	6.564383	0.000619	6.185485	2.095699	-0.000248
1003	9.9699e+01	0.0626	6.265635	0.000750	7.503703	2.542323	-0.000300
1004	9.9799e+01	0.0257	5.954775	0.000781	7.807907	2.645391	-0.000312
1005	9.9898e+01	-0.0032	5.720621	0.000588	5.881281	1.992632	-0.000235
1006	9.9998e+01	-0.0417	5.421873	0.000750	7.503703	2.542323	-0.000300
1007	1.0010e+02	-0.0786	5.119088	0.000761	7.605105	2.576679	-0.000304
1008	1.0020e+02	-0.1187	4.836489	0.000710	7.098098	2.404901	-0.000284
1009	1.0030e+02	-0.1556	4.598298	0.000598	5.982682	2.026988	-0.000239
1010	1.0040e+02	-0.2053	4.287438	0.000781	7.807907	2.645391	-0.000312
1011	1.0050e+02	-0.2454	3.972542	0.000791	7.909309	2.679746	-0.000316
1012	1.0059e+02	-0.2904	3.698016	0.000690	6.895295	2.336189	-0.000276
1013	1.0069e+02	-0.3225	3.383120	0.000791	7.909309	2.679746	-0.000316
1014	1.0079e+02	-0.3593	3.104557	0.000700	6.996696	2.370545	-0.000280
1015	1.0089e+02	-0.4091	2.809846	0.000740	7.402302	2.507968	-0.000296
1016	1.0099e+02	-0.4331	2.498987	0.000781	7.807907	2.645391	-0.000312
1017	1.0109e+02	-0.4861	2.252722	0.000619	6.185485	2.095699	-0.000248
1018	1.0119e+02	-0.5278	1.921677	0.000831	8.314914	2.817169	-0.000333
1019	1.0129e+02	-0.5599	1.651189	0.000679	6.793893	2.301833	-0.000272
1020	1.0139e+02	-0.5952	1.417035	0.000588	5.881281	1.992632	-0.000235
1021	1.0149e+02	-0.6449	1.098101	0.000801	8.010710	2.714102	-0.000321
1022	1.0159e+02	-0.6802	0.779167	0.000801	8.010710	2.714102	-0.000321
1023	1.0169e+02	-0.7187	0.496568	0.000710	7.098098	2.404901	-0.000284
1024	1.0179e+02	-0.7572	0.189745	0.000771	7.706506	2.611035	-0.000308
1025	1.0189e+02	-0.7973	-0.060557	0.000629	6.286886	2.130055	-0.000252
1026	1.0199e+02	-0.8358	-0.383528	0.000811	8.112111	2.748458	-0.000325
1027	1.0209e+02	-0.8759	-0.662090	0.000700	6.996696	2.370545	-0.000280
1028	1.0219e+02	-0.9192	-0.952764	0.000730	7.300900	2.473612	-0.000292
1029	1.0229e+02	-0.9593	-1.235364	0.000710	7.098098	2.404901	-0.000284
1030	1.0239e+02	-0.9882	-1.558334	0.000811	8.112111	2.748458	-0.000325
1031	1.0248e+02	-1.0379	-1.836897	0.000700	6.996696	2.370545	-0.000280
1032	1.0258e+02	-1.0764	-2.139682	0.000761	7.605105	2.576679	-0.000304
1033	1.0268e+02	-1.1149	-2.394021	0.000639	6.388288	2.164410	-0.000256
1034	1.0278e+02	-1.1518	-2.712955	0.000801	8.010710	2.714102	-0.000321
1035	1.0288e+02	-1.2016	-2.971332	0.000649	6.489689	2.198766	-0.000260
1036	1.0298e+02	-1.2385	-3.262006	0.000730	7.300900	2.473612	-0.000292
1037	1.0308e+02	-1.2850	-3.556717	0.000740	7.402302	2.507968	-0.000296
1038	1.0318e+02	-1.3139	-3.851427	0.000740	7.402302	2.507968	-0.000296
1039	1.0328e+02	-1.3700	-4.158250	0.000771	7.706506	2.611035	-0.000308
1040	1.0338e+02	-1.4053	-4.416626	0.000649	6.489689	2.198766	-0.000260
1041	1.0348e+02	-1.4326	-4.707300	0.000730	7.300900	2.473612	-0.000292
1042	1.0358e+02	-1.4711	-5.014123	0.000771	7.706506	2.611035	-0.000308
1043	1.0368e+02	-1.5112	-5.284611	0.000679	6.793893	2.301833	-0.000272
1044	1.0378e+02	-1.5529	-5.567210	0.000710	7.098098	2.404901	-0.000284
1045	1.0388e+02	-1.5978	-5.853847	0.000720	7.199499	2.439256	-0.000288
1046	1.0398e+02	-1.6315	-6.124335	0.000679	6.793893	2.301833	-0.000272
1047	1.0408e+02	-1.6684	-6.431157	0.000771	7.706506	2.611035	-0.000308
1048	1.0418e+02	-1.7262	-6.705682	0.000690	6.895295	2.336189	-0.000276
1049	1.0428e+02	-1.7582	-6.951948	0.000619	6.185485	2.095699	-0.000248
1050	1.0438e+02	-1.7919	-7.262807	0.000781	7.807907	2.645391	-0.000312
1051	1.0447e+02	-1.8352	-7.561555	0.000750	7.503703	2.542323	-0.000300
1052	1.0457e+02	-1.8721	-7.823969	0.000659	6.591091	2.233122	-0.000264
1053	1.0467e+02	-1.9187	-8.118680	0.000740	7.402302	2.507968	-0.000296
1054	1.0477e+02	-1.9588	-8.397242	0.000700	6.996696	2.370545	-0.000280
1055	1.0487e+02	-2.0037	-8.695990	0.000750	7.503703	2.542323	-0.000300
1056	1.0497e+02	-2.0390	-8.946293	0.000629	6.286886	2.130055	-0.000252
1057	1.0507e+02	-2.0711	-9.257152	0.000781	7.807907	2.645391	-0.000312
1058	1.0517e+02	-2.1031	-9.487269	0.000578	5.779879	1.958276	-0.000231
1059	1.0527e+02	-2.1400	-9.810240	0.000811	8.112111	2.748458	-0.000325
1060	1.0537e+02	-2.1898	-10.060542	0.000629	6.286886	2.130055	-0.000252
1061	1.0547e+02	-2.2315	-10.335067	0.000690	6.895295	2.336189	-0.000276
1062	1.0557e+02	-2.2844	-10.609593	0.000690	6.895295	2.336189	-0.000276
1063	1.0567e+02	-2.3149	-10.916415	0.000771	7.706506	2.611035	-0.000308
1064	1.0577e+02	-2.3598	-11.158643	0.000608	6.084084	2.061343	-0.000243
1065	1.0587e+02	-2.3919	-11.477577	0.000801	8.010710	2.714102	-0.000321
1066	1.0597e+02	-2.4320	-11.723842	0.000619	6.185485	2.095699	-0.000248
1067	1.0607e+02	-2.4785	-11.982219	0.000649	6.489689	2.198766	-0.000260
1068	1.0617e+02	-2.5219	-12.301153	0.000801	8.010710	2.714102	-0.000321
1069	1.0627e+02	-2.5523	-12.579715	0.000700	6.996696	2.370545	-0.000280
1070	1.0637e+02	-2.5956	-12.862314	0.000710	7.098098	2.404901	-0.000284
1071	1.0647e+02	-2.6277	-13.152988	0.000730	7.300900	2.473612	-0.000292
1072	1.0656e+02	-2.6678	-13.383105	0.000578	5.779879	1.958276	-0.000231
1073	1.0666e+02	-2.7160	-13.710113	0.000821	8.213513	2.782813	-0.000329
1074	1.0676e+02	-2.7577	-13.964453	0.000639	6.388288	2.164410	-0.000256
1075	1.0686e+02	-2.7978	-14.222829	0.000649	6.489689	2.198766	-0.000260
1076	1.0696e+02	-2.8331	-14.493317	0.000679	6.793893	2.301833	-0.000272
1077	1.0706e+02	-2.8796	-14.767843	0.000690	6.895295	2.336189	-0.000276
1078	1.0716e+02	-2.9117	-15.038331	0.000679	6.793893	2.301833	-0.000272
1079	1.0726e+02	-2.9662	-15.369376	0.000831	8.314914	2.817169	-0.000333
1080	1.0736e+02	-2.9855	-15.607567	0.000598	5.982682	2.026988	-0.000239
1081	1.0746e+02	-3.0384	-15.890166	0.000710	7.098098	2.404901	-0.000284
1082	1.0756e+02	-3.0673	-16.148543	0.000649	6.489689	2.198766	-0.000260
1083	1.0766e+02	-3.1186	-16.390771	0.000608	6.084084	2.061343	-0.000243
1084	1.0776e+02	-3.1491	-16.681445	0.000730	7.300900	2.473612	-0.000292
1085	1.0786e+02	-3.1988	-16.968082	0.000720	7.199499	2.439256	-0.000288
1086	1.0796e+02	-3.2277	-17.202235	0.000588	5.881281	1.992632	-0.000235
1087	1.0806e+02	-3.2774	-17.464649	0.000659	6.591091	2.233122	-0.000264
1088	1.0816e+02	-3.3127	-17.723026	0.000649	6.489689	2.198766	-0.000260
1089	1.0826e+02	-3.3496	-18.005625	0.000710	7.098098	2.404901	-0.000284
1090	1.0836e+02	-3.3930	-18.284188	0.000700	6.996696	2.370545	-0.000280
1091	1.0845e+02	-3.4331	-18.502193	0.000548	5.475675	1.855209	-0.000219
1092	1.0855e+02	-3.4700	-18.837275	0.000842	8.416316	2.851525	-0.000337
1093	1.0865e+02	-3.5117	-19.043169	0.000517	5.171471	1.752142	-0.000207
1094	1.0875e+02	-3.5454	-19.341917	0.000750	7.503703	2.542323	-0.000300
1095	1.0885e+02	-3.5871	-19.580108	0.000598	5.982682	2.026988	-0.000239
1096	1.0895e+02	-3.6384	-19.854634	0.000690	6.895295	2.336189	-0.000276
1097	1.0905e+02	-3.6689	-20.149344	0.000740	7.402302	2.507968	-0.000296
1098	1.0915e+02	-3.7106	-20.403684	0.000639	6.388288	2.164410	-0.000256
1099	1.0925e+02	-3.7475	-20.633801	0.000578	5.779879	1.958276	-0.000231
1100	1.0935e+02	-3.7940	-20.896215	0.000659	6.591091	2.233122	-0.000264
1101	1.0945e+02	-3.8197	-21.194963	0.000750	7.503703	2.542323	-0.000300
1102	1.0955e+02	-3.8742	-21.441228	0.000619	6.185485	2.095699	-0.000248
1103	1.0965e+02	-3.9015	-21.703642	0.000659	6.591091	2.233122	-0.000264
1104	1.0975e+02	-3.9544	-21.933758	0.000578	5.779879	1.958276	-0.000231
1105	1.0985e+02	-3.9929	-22.208284	0.000690	6.895295	2.336189	-0.000276
1106	1.0995e+02	-4.0234	-22.494920	0.000720	7.199499	2.439256	-0.000288
1107	1.1005e+02	-4.0635	-22.745223	0.000629	6.286886	2.130055	-0.000252
1108	1.1015e+02	-4.1036	-23.027822	0.000710	7.098098	2.404901	-0.000284
1109	1.1025e+02	-4.1469	-23.274088	0.000619	6.185485	2.095699	-0.000248
1110	1.1035e+02	-4.1887	-23.548613	0.000690	6.895295	2.336189	-0.000276
1111	1.1044e+02	-4.2175	-23.766618	0.000548	5.475675	1.855209	-0.000219
1112	1.1054e+02	-4.2673	-24.012883	0.000619	6.185485	2.095699	-0.000248
1113	1.1064e+02	-4.3106	-24.303557	0.000730	7.300900	2.473612	-0.000292
1114	1.1074e+02	-4.3475	-24.570008	0.000669	6.692492	2.267478	-0.000268
1115	1.1084e+02	-4.3956	-24.788013	0.000548	5.475675	1.855209	-0.000219
1116	1.1094e+02	-4.4277	-25.078687	0.000730	7.300900	2.473612	-0.000292
1117	1.1104e+02	-4.4726	-25.320915	0.000608	6.084084	2.061343	-0.000243
1118	1.1114e+02	-4.5063	-25.607552	0.000720	7.199499	2.439256	-0.000288
1119	1.1124e+02	-4.5528	-25.861892	0.000639	6.388288	2.164410	-0.000256
1120	1.1134e+02	-4.5913	-26.128342	0.000669	6.692492	2.267478	-0.000268
1121	1.1144e+02	-4.6218	-26.378645	0.000629	6.286886	2.130055	-0.000252
1122	1.1154e+02	-4.6699	-26.681430	0.000761	7.605105	2.576679	-0.000304
1123	1.1164e+02	-4.7020	-26.879250	0.000497	4.968668	1.683430	-0.000199
1124	1.1174e+02	-4.7453	-27.169924	0.000730	7.300900	2.473612	-0.000292
1125	1.1184e+02	-4.7838	-27.408115	0.000598	5.982682	2.026988	-0.000239
1126	1.1194e+02	-4.8127	-27.658417	0.000629	6.286886	2.130055	-0.000252
1127	1.1204e+02	-4.8705	-27.916794	0.000649	6.489689	2.198766	-0.000260
1128	1.1214e+02	-4.9025	-28.195356	0.000700	6.996696	2.370545	-0.000280
1129	1.1224e+02	-4.9458	-28.465844	0.000679	6.793893	2.301833	-0.000272
1130	1.1234e+02	-4.9811	-28.659627	0.000487	4.867267	1.649075	-0.000195
1131	1.1244e+02	-5.0293	-28.950300	0.000730	7.300900	2.473612	-0.000292
1132	1.1253e+02	-5.0646	-29.204640	0.000639	6.388288	2.164410	-0.000256
1133	1.1263e+02	-5.1063	-29.446868	0.000608	6.084084	2.061343	-0.000243
1134	1.1273e+02	-5.1464	-29.709282	0.000659	6.591091	2.233122	-0.000264
1135	1.1283e+02	-5.1801	-29.955547	0.000619	6.185485	2.095699	-0.000248
1136	1.1293e+02	-5.2250	-30.213924	0.000649	6.489689	2.198766	-0.000260
1137	1.1303e+02	-5.2651	-30.440003	0.000568	5.678478	1.923920	-0.000227
1138	1.1313e+02	-5.2972	-30.710492	0.000679	6.793893	2.301833	-0.000272
1139	1.1323e+02	-5.3453	-30.956757	0.000619	6.185485	2.095699	-0.000248
1140	1.1333e+02	-5.3774	-31.215134	0.000649	6.489689	2.198766	-0.000260
1141	1.1343e+02	-5.4223	-31.485622	0.000679	6.793893	2.301833	-0.000272
1142	1.1353e+02	-5.4656	-31.711701	0.000568	5.678478	1.923920	-0.000227
1143	1.1363e+02	-5.5105	-31.974115	0.000659	6.591091	2.233122	-0.000264
1144	1.1373e+02	-5.5394	-32.208269	0.000588	5.881281	1.992632	-0.000235
1145	1.1383e+02	-5.5908	-32.454534	0.000619	6.185485	2.095699	-0.000248
1146	1.1393e+02	-5.6132	-32.741171	0.000720	7.199499	2.439256	-0.000288
1147	1.1403e+02	-5.6645	-33.003585	0.000659	6.591091	2.233122	-0.000264
1148	1.1413e+02	-5.6934	-33.209479	0.000517	5.171471	1.752142	-0.000207
1149	1.1423e+02	-5.7383	-33.467855	0.000649	6.489689	2.198766	-0.000260
1150	1.1433e+02	-5.7817	-33.726232	0.000649	6.489689	2.198766	-0.000260
1151	1.1442e+02	-5.8121	-33.980572	0.000639	6.388288	2.164410	-0.000256
1152	1.1452e+02	-5.8538	-34.210688	0.000578	5.779879	1.958276	-0.000231
1153	1.1462e+02	-5.8988	-34.452916	0.000608	6.084084	2.061343	-0.000243
1154	1.1472e+02	-5.9341	-34.727442	0.000690	6.895295	2.336189	-0.000276
1155	1.1482e+02	-5.9806	-34.973707	0.000619	6.185485	2.095699	-0.000248
1156	1.1492e+02	-6.0191	-35.232084	0.000649	6.489689	2.198766	-0.000260
1157	1.1502e+02	-6.0512	-35.502572	0.000679	6.793893	2.301833	-0.000272
1158	1.1512e+02	-6.0929	-35.696354	0.000487	4.867267	1.649075	-0.000195
1159	1.1522e+02	-6.1410	-35.950694	0.000639	6.388288	2.164410	-0.000256
1160	1.1532e+02	-6.1795	-36.205033	0.000639	6.388288	2.164410	-0.000256
1161	1.1542e+02	-6.2164	-36.447261	0.000608	6.084084	2.061343	-0.000243
1162	1.1552e+02	-6.2629	-36.721787	0.000690	6.895295	2.336189	-0.000276
1163	1.1562e+02	-6.3030	-36.951903	0.000578	5.779879	1.958276	-0.000231
1164	1.1572e+02	-6.3447	-37.161834	0.000527	5.272872	1.786498	-0.000211
1165	1.1582e+02	-6.3897	-37.464620	0.000761	7.605105	2.576679	-0.000304
1166	1.1592e+02	-6.4153	-37.710885	0.000619	6.185485	2.095699	-0.000248
1167	1.1602e+02	-6.4442	-37.892556	0.000456	4.563063	1.546007	-0.000183
1168	1.1612e+02	-6.4923	-38.134784	0.000608	6.084084	2.061343	-0.000243
1169	1.1622e+02	-6.5324	-38.389124	0.000639	6.388288	2.164410	-0.000256
1170	1.1632e+02	-6.5774	-38.639426	0.000629	6.286886	2.130055	-0.000252
1171	1.1642e+02	-6.6078	-38.905877	0.000669	6.692492	2.267478	-0.000268
1172	1.1651e+02	-6.6560	-39.135994	0.000578	5.779879	1.958276	-0.000231
1173	1.1661e+02	-6.6864	-39.390333	0.000639	6.388288	2.164410	-0.000256
1174	1.1671e+02	-6.7330	-39.616413	0.000568	5.678478	1.923920	-0.000227
1175	1.1681e+02	-6.7827	-39.894975	0.000700	6.996696	2.370545	-0.000280
1176	1.1691e+02	-6.8196	-40.133166	0.000598	5.982682	2.026988	-0.000239
1177	1.1701e+02	-6.8469	-40.351172	0.000548	5.475675	1.855209	-0.000219
1178	1.1711e+02	-6.8998	-40.597437	0.000619	6.185485	2.095699	-0.000248
1179	1.1721e+02	-6.9319	-40.843702	0.000619	6.185485	2.095699	-0.000248
1180	1.1731e+02	-6.9768	-41.085930	0.000608	6.084084	2.061343	-0.000243
1181	1.1741e+02	-7.0217	-41.352381	0.000669	6.692492	2.267478	-0.000268
1182	1.1751e+02	-7.0602	-41.542127	0.000477	4.765866	1.614719	-0.000191
1183	1.1761e+02	-7.0987	-41.828763	0.000720	7.199499	2.439256	-0.000288
1184	1.1771e+02	-7.1404	-42.054843	0.000568	5.678478	1.923920	-0.000227
1185	1.1781e+02	-7.1757	-42.341480	0.000720	7.199499	2.439256	-0.000288
1186	1.1791e+02	-7.2078	-42.555448	0.000537	5.374274	1.820853	-0.000215
1187	1.1801e+02	-7.2672	-42.801713	0.000619	6.185485	2.095699	-0.000248
1188	1.1811e+02	-7.2993	-43.047978	0.000619	6.185485	2.095699	-0.000248
1189	1.1821e+02	-7.3362	-43.270021	0.000558	5.577077	1.889565	-0.000223
1190	1.1831e+02	-7.3618	-43.488026	0.000548	5.475675	1.855209	-0.000219
1191	1.1841e+02	-7.4164	-43.738329	0.000629	6.286886	2.130055	-0.000252
1192	1.1850e+02	-7.4549	-44.012854	0.000690	6.895295	2.336189	-0.000276
1193	1.1860e+02	-7.4950	-44.222785	0.000527	5.272872	1.786498	-0.000211
1194	1.1870e+02	-7.5383	-44.460976	0.000598	5.982682	2.026988	-0.000239
1195	1.1880e+02	-7.5832	-44.687055	0.000568	5.678478	1.923920	-0.000227
1196	1.1890e+02	-7.6073	-44.917172	0.000578	5.779879	1.958276	-0.000231
1197	1.1900e+02	-7.6506	-45.187660	0.000679	6.793893	2.301833	-0.000272
1198	1.1910e+02	-7.6955	-45.413740	0.000568	5.678478	1.923920	-0.000227
1199	1.1920e+02	-7.7308	-45.651931	0.000598	5.982682	2.026988	-0.000239
1200	1.1930e+02	-7.7821	-45.898196	0.000619	6.185485	2.095699	-0.000248
1201	1.1940e+02	-7.8078	-46.136387	0.000598	5.982682	2.026988	-0.000239
1202	1.1950e+02	-7.8447	-46.346318	0.000527	5.272872	1.786498	-0.000211
1203	1.1960e+02	-7.8912	-46.584509	0.000598	5.982682	2.026988	-0.000239
1204	1.1970e+02	-7.9249	-46.778292	0.000487	4.867267	1.649075	-0.000195
1205	1.1980e+02	-7.9682	-47.068966	0.000730	7.300900	2.473612	-0.000292
1206	1.1990e+02	-8.0083	-47.307157	0.000598	5.982682	2.026988	-0.000239
1207	1.2000e+02	-8.0468	-47.565533	0.000649	6.489689	2.198766	-0.000260
1208	1.2010e+02	-8.0950	-47.767390	0.000507	5.070070	1.717786	-0.000203
1209	1.2020e+02	-8.1367	-47.949061	0.000456	4.563063	1.546007	-0.000183
1210	1.2030e+02	-8.1655	-48.235698	0.000720	7.199499	2.439256	-0.000288
1211	1.2039e+02	-8.2153	-48.469852	0.000588	5.881281	1.992632	-0.000235
1212	1.2049e+02	-8.2474	-48.675746	0.000517	5.171471	1.752142	-0.000207
1213	1.2059e+02	-8.2810	-48.917974	0.000608	6.084084	2.061343	-0.000243
1214	1.2069e+02	-8.3308	-49.127905	0.000527	5.272872	1.786498	-0.000211
1215	1.2079e+02	-8.3613	-49.309576	0.000456	4.563063	1.546007	-0.000183
1216	1.2089e+02	-8.4126	-49.571990	0.000659	6.591091	2.233122	-0.000264
1217	1.2099e+02	-8.4463	-49.769809	0.000497	4.968668	1.683430	-0.000199
1218	1.2109e+02	-8.4864	-50.024149	0.000639	6.388288	2.164410	-0.000256
1219	1.2119e+02	-8.5329	-50.238117	0.000537	5.374274	1.820853	-0.000215
1220	1.2129e+02	-8.5698	-50.488420	0.000629	6.286886	2.130055	-0.000252
1221	1.2139e+02	-8.6035	-50.706425	0.000548	5.475675	1.855209	-0.000219
1222	1.2149e+02	-8.6452	-50.944616	0.000598	5.982682	2.026988	-0.000239
1223	1.2159e+02	-8.6869	-51.154547	0.000527	5.272872	1.786498	-0.000211
1224	1.2169e+02	-8.7367	-51.376589	0.000558	5.577077	1.889565	-0.000223
1225	1.2179e+02	-8.7655	-51.602669	0.000568	5.678478	1.923920	-0.000227
1226	1.2189e+02	-8.8104	-51.780303	0.000446	4.461661	1.511652	-0.000179
1227	1.2199e+02	-8.8441	-52.046754	0.000669	6.692492	2.267478	-0.000268
1228	1.2209e+02	-8.8842	-52.284945	0.000598	5.982682	2.026988	-0.000239
1229	1.2219e+02	-8.9211	-52.515062	0.000578	5.779879	1.958276	-0.000231
1230	1.2229e+02	-8.9661	-52.712881	0.000497	4.968668	1.683430	-0.000199
1231	1.2239e+02	-8.9981	-52.975295	0.000659	6.591091	2.233122	-0.000264
1232	1.2248e+02	-9.0559	-53.193300	0.000548	5.475675	1.855209	-0.000219
1233	1.2258e+02	-9.0848	-53.423417	0.000578	5.779879	1.958276	-0.000231
1234	1.2268e+02	-9.1297	-53.641423	0.000548	5.475675	1.855209	-0.000219
1235	1.2278e+02	-9.1634	-53.867502	0.000568	5.678478	1.923920	-0.000227
1236	1.2288e+02	-9.2099	-54.077433	0.000527	5.272872	1.786498	-0.000211
1237	1.2298e+02	-9.2532	-54.331773	0.000639	6.388288	2.164410	-0.000256
1238	1.2308e+02	-9.2805	-54.533630	0.000507	5.070070	1.717786	-0.000203
1239	1.2318e+02	-9.3318	-54.775858	0.000608	6.084084	2.061343	-0.000243
1240	1.2328e+02	-9.3655	-54.993863	0.000548	5.475675	1.855209	-0.000219
1241	1.2338e+02	-9.3992	-55.187646	0.000487	4.867267	1.649075	-0.000195
1242	1.2348e+02	-9.4393	-55.365280	0.000446	4.461661	1.511652	-0.000179
1243	1.2358e+02	-9.4858	-55.587322	0.000558	5.577077	1.889565	-0.000223
1244	1.2368e+02	-9.5259	-55.886070	0.000750	7.503703	2.542323	-0.000300
1245	1.2378e+02	-9.5725	-56.083890	0.000497	4.968668	1.683430	-0.000199
1246	1.2388e+02	-9.6078	-56.273635	0.000477	4.765866	1.614719	-0.000191
1247	1.2398e+02	-9.6511	-56.532012	0.000649	6.489689	2.198766	-0.000260
1248	1.2408e+02	-9.6687	-56.713683	0.000456	4.563063	1.546007	-0.000183
1249	1.2418e+02	-9.7136	-57.000319	0.000720	7.199499	2.439256	-0.000288
1250	1.2428e+02	-9.7762	-57.169879	0.000426	4.258859	1.442940	-0.000170
1251	1.2438e+02	-9.7922	-57.391922	0.000558	5.577077	1.889565	-0.000223
1252	1.2447e+02	-9.8307	-57.601853	0.000527	5.272872	1.786498	-0.000211
1253	1.2457e+02	-9.8853	-57.831969	0.000578	5.779879	1.958276	-0.000231
1254	1.2467e+02	-9.9254	-58.074198	0.000608	6.084084	2.061343	-0.000243
1255	1.2477e+02	-9.9607	-58.267980	0.000487	4.867267	1.649075	-0.000195
1256	1.2487e+02	-9.9992	-58.465800	0.000497	4.968668	1.683430	-0.000199
1257	1.2497e+02	-10.0409	-58.708028	0.000608	6.084084	2.061343	-0.000243
1258	1.2507e+02	-10.0810	-58.930070	0.000558	5.577077	1.889565	-0.000223
1259	1.2517e+02	-10.1195	-59.123853	0.000487	4.867267	1.649075	-0.000195
1260	1.2527e+02	-10.1548	-59.333784	0.000527	5.272872	1.786498	-0.000211
1261	1.2537e+02	-10.2045	-59.580049	0.000619	6.185485	2.095699	-0.000248
1262	1.2547e+02	-10.2446	-59.765757	0.000466	4.664464	1.580363	-0.000187
1263	1.2557e+02	-10.2783	-60.007986	0.000608	6.084084	2.061343	-0.000243
1264	1.2567e+02	-10.3136	-60.238102	0.000578	5.779879	1.958276	-0.000231
1265	1.2577e+02	-10.3617	-60.476293	0.000598	5.982682	2.026988	-0.000239
1266	1.2587e+02	-10.4067	-60.637779	0.000406	4.056056	1.374229	-0.000162
1267	1.2597e+02	-10.4291	-60.871933	0.000588	5.881281	1.992632	-0.000235
1268	1.2607e+02	-10.4885	-61.085901	0.000537	5.374274	1.820853	-0.000215
1269	1.2617e+02	-10.5270	-61.311980	0.000568	5.678478	1.923920	-0.000227
1270	1.2627e+02	-10.5623	-61.489614	0.000446	4.461661	1.511652	-0.000179
1271	1.2636e+02	-10.6024	-61.675323	0.000466	4.664464	1.580363	-0.000187
1272	1.2646e+02	-10.6345	-61.970034	0.000740	7.402302	2.507968	-0.000296
1273	1.2656e+02	-10.6794	-62.167853	0.000497	4.968668	1.683430	-0.000199
1274	1.2666e+02	-10.7163	-62.402007	0.000588	5.881281	1.992632	-0.000235
1275	1.2676e+02	-10.7580	-62.571567	0.000426	4.258859	1.442940	-0.000170
1276	1.2686e+02	-10.7981	-62.813795	0.000608	6.084084	2.061343	-0.000243
1277	1.2696e+02	-10.8382	-63.015652	0.000507	5.070070	1.717786	-0.000203
1278	1.2706e+02	-10.8847	-63.221546	0.000517	5.171471	1.752142	-0.000207
1279	1.2716e+02	-10.9216	-63.443588	0.000558	5.577077	1.889565	-0.000223
1280	1.2726e+02	-10.9601	-63.685816	0.000608	6.084084	2.061343	-0.000243
1281	1.2736e+02	-11.0098	-63.835190	0.000375	3.751852	1.271162	-0.000150
1282	1.2746e+02	-11.0435	-64.061270	0.000568	5.678478	1.923920	-0.000227
1283	1.2756e+02	-11.0772	-64.311572	0.000629	6.286886	2.130055	-0.000252
1284	1.2766e+02	-11.1270	-64.509392	0.000497	4.968668	1.683430	-0.000199
1285	1.2776e+02	-11.1606	-64.707212	0.000497	4.968668	1.683430	-0.000199
1286	1.2786e+02	-11.1911	-64.969625	0.000659	6.591091	2.233122	-0.000264
1287	1.2796e+02	-11.2441	-65.118999	0.000375	3.751852	1.271162	-0.000150
1288	1.2806e+02	-11.2826	-65.353153	0.000588	5.881281	1.992632	-0.000235
1289	1.2816e+02	-11.3179	-65.559047	0.000517	5.171471	1.752142	-0.000207
1290	1.2826e+02	-11.3564	-65.752830	0.000487	4.867267	1.649075	-0.000195
1291	1.2835e+02	-11.3949	-65.986984	0.000588	5.881281	1.992632	-0.000235
1292	1.2845e+02	-11.4414	-66.176729	0.000477	4.765866	1.614719	-0.000191
1293	1.2855e+02	-11.4751	-66.422994	0.000619	6.185485	2.095699	-0.000248
1294	1.2865e+02	-11.5184	-66.608703	0.000466	4.664464	1.580363	-0.000187
1295	1.2875e+02	-11.5601	-66.850931	0.000608	6.084084	2.061343	-0.000243
1296	1.2885e+02	-11.6002	-67.081047	0.000578	5.779879	1.958276	-0.000231
1297	1.2895e+02	-11.6355	-67.278867	0.000497	4.968668	1.683430	-0.000199
1298	1.2905e+02	-11.6724	-67.504947	0.000568	5.678478	1.923920	-0.000227
1299	1.2915e+02	-11.7221	-67.706803	0.000507	5.070070	1.717786	-0.000203
1300	1.2925e+02	-11.7494	-67.932883	0.000568	5.678478	1.923920	-0.000227
1301	1.2935e+02	-11.7991	-68.094368	0.000406	4.056056	1.374229	-0.000162
1302	1.2945e+02	-11.8360	-68.381005	0.000720	7.199499	2.439256	-0.000288
1303	1.2955e+02	-11.8793	-68.542491	0.000406	4.056056	1.374229	-0.000162
1304	1.2965e+02	-11.9178	-68.772607	0.000578	5.779879	1.958276	-0.000231
1305	1.2975e+02	-11.9451	-68.994650	0.000558	5.577077	1.889565	-0.000223
1306	1.2985e+02	-11.9948	-69.160172	0.000416	4.157457	1.408585	-0.000166
1307	1.2995e+02	-12.0414	-69.422586	0.000659	6.591091	2.233122	-0.000264
1308	1.3005e+02	-12.0735	-69.652703	0.000578	5.779879	1.958276	-0.000231
1309	1.3015e+02	-12.1232	-69.814188	0.000406	4.056056	1.374229	-0.000162
1310	1.3025e+02	-12.1617	-70.048342	0.000588	5.881281	1.992632	-0.000235
1311	1.3034e+02	-12.2066	-70.246162	0.000497	4.968668	1.683430	-0.000199
1312	1.3044e+02	-12.2323	-70.452056	0.000517	5.171471	1.752142	-0.000207
1313	1.3054e+02	-12.2740	-70.678135	0.000568	5.678478	1.923920	-0.000227
1314	1.3064e+02	-12.3141	-70.888066	0.000527	5.272872	1.786498	-0.000211
1315	1.3074e+02	-12.3494	-71.065700	0.000446	4.461661	1.511652	-0.000179
1316	1.3084e+02	-12.3975	-71.287743	0.000558	5.577077	1.889565	-0.000223
1317	1.3094e+02	-12.4328	-71.481525	0.000487	4.867267	1.649075	-0.000195
1318	1.3104e+02	-12.4729	-71.711642	0.000578	5.779879	1.958276	-0.000231
1319	1.3114e+02	-12.5194	-71.945796	0.000588	5.881281	1.992632	-0.000235
1320	1.3124e+02	-12.5451	-72.143616	0.000497	4.968668	1.683430	-0.000199
1321	1.3134e+02	-12.5916	-72.349510	0.000517	5.171471	1.752142	-0.000207
1322	1.3144e+02	-12.6365	-72.563478	0.000537	5.374274	1.820853	-0.000215
1323	1.3154e+02	-12.6670	-72.741112	0.000446	4.461661	1.511652	-0.000179
1324	1.3164e+02	-12.7184	-72.983340	0.000608	6.084084	2.061343	-0.000243
1325	1.3174e+02	-12.7472	-73.165011	0.000456	4.563063	1.546007	-0.000183
1326	1.3184e+02	-12.7873	-73.391091	0.000568	5.678478	1.923920	-0.000227
1327	1.3194e+02	-12.8290	-73.617170	0.000568	5.678478	1.923920	-0.000227
1328	1.3204e+02	-12.8756	-73.798841	0.000456	4.563063	1.546007	-0.000183
1329	1.3214e+02	-12.9077	-74.037032	0.000598	5.982682	2.026988	-0.000239
1330	1.3224e+02	-12.9462	-74.210629	0.000436	4.360260	1.477296	-0.000174
1331	1.3234e+02	-12.9831	-74.404412	0.000487	4.867267	1.649075	-0.000195
1332	1.3243e+02	-13.0232	-74.638566	0.000588	5.881281	1.992632	-0.000235
1333	1.3253e+02	-13.0729	-74.832348	0.000487	4.867267	1.649075	-0.000195
1334	1.3263e+02	-13.1066	-75.050353	0.000548	5.475675	1.855209	-0.000219
1335	1.3273e+02	-13.1563	-75.240099	0.000477	4.765866	1.614719	-0.000191
1336	1.3283e+02	-13.1836	-75.445993	0.000517	5.171471	1.752142	-0.000207
1337	1.3293e+02	-13.2301	-75.676109	0.000578	5.779879	1.958276	-0.000231
1338	1.3303e+02	-13.2702	-75.845669	0.000426	4.258859	1.442940	-0.000170
1339	1.3313e+02	-13.3151	-76.055600	0.000527	5.272872	1.786498	-0.000211
1340	1.3323e+02	-13.3472	-76.309940	0.000639	6.388288	2.164410	-0.000256
1341	1.3333e+02	-13.3793	-76.491611	0.000456	4.563063	1.546007	-0.000183
1342	1.3343e+02	-13.4338	-76.737876	0.000619	6.185485	2.095699	-0.000248
1343	1.3353e+02	-13.4691	-76.907436	0.000426	4.258859	1.442940	-0.000170
1344	1.3363e+02	-13.5044	-77.109293	0.000507	5.070070	1.717786	-0.000203
1345	1.3373e+02	-13.5494	-77.339409	0.000578	5.779879	1.958276	-0.000231
1346	1.3383e+02	-13.5862	-77.553378	0.000537	5.374274	1.820853	-0.000215
1347	1.3393e+02	-13.6312	-77.731012	0.000446	4.461661	1.511652	-0.000179
1348	1.3403e+02	-13.6697	-77.961128	0.000578	5.779879	1.958276	-0.000231
1349	1.3413e+02	-13.7001	-78.179134	0.000548	5.475675	1.855209	-0.000219
1350	1.3423e+02	-13.7483	-78.328508	0.000375	3.751852	1.271162	-0.000150
1351	1.3432e+02	-13.7884	-78.522290	0.000487	4.867267	1.649075	-0.000195
1352	1.3442e+02	-13.8221	-78.768555	0.000619	6.185485	2.095699	-0.000248
1353	1.3452e+02	-13.8638	-78.974449	0.000517	5.171471	1.752142	-0.000207
1354	1.3462e+02	-13.9007	-79.220715	0.000619	6.185485	2.095699	-0.000248
1355	1.3472e+02	-13.9504	-79.378163	0.000395	3.954654	1.339873	-0.000158
1356	1.3482e+02	-13.9777	-79.584057	0.000517	5.171471	1.752142	-0.000207
1357	1.3492e+02	-14.0354	-79.773802	0.000477	4.765866	1.614719	-0.000191
1358	1.3502e+02	-14.0531	-79.967585	0.000487	4.867267	1.649075	-0.000195
1359	1.3512e+02	-14.1012	-80.201739	0.000588	5.881281	1.992632	-0.000235
1360	1.3522e+02	-14.1461	-80.391484	0.000477	4.765866	1.614719	-0.000191
1361	1.3532e+02	-14.1910	-80.617564	0.000568	5.678478	1.923920	-0.000227
1362	1.3542e+02	-14.2231	-80.823457	0.000517	5.171471	1.752142	-0.000207
1363	1.3552e+02	-14.2568	-81.021277	0.000497	4.968668	1.683430	-0.000199
1364	1.3562e+02	-14.3082	-81.170651	0.000375	3.751852	1.271162	-0.000150
1365	1.3572e+02	-14.3338	-81.372508	0.000507	5.070070	1.717786	-0.000203
1366	1.3582e+02	-14.3819	-81.574365	0.000507	5.070070	1.717786	-0.000203
1367	1.3592e+02	-14.4301	-81.832741	0.000649	6.489689	2.198766	-0.000260
1368	1.3602e+02	-14.4686	-81.974041	0.000355	3.549049	1.202450	-0.000142
1369	1.3612e+02	-14.5119	-82.244529	0.000679	6.793893	2.301833	-0.000272
1370	1.3622e+02	-14.5408	-82.414089	0.000426	4.258859	1.442940	-0.000170
1371	1.3631e+02	-14.5889	-82.611909	0.000497	4.968668	1.683430	-0.000199
1372	1.3641e+02	-14.6290	-82.785505	0.000436	4.360260	1.477296	-0.000174
1373	1.3651e+02	-14.6611	-83.023696	0.000598	5.982682	2.026988	-0.000239
1374	1.3661e+02	-14.7076	-83.177108	0.000385	3.853253	1.305517	-0.000154
1375	1.3671e+02	-14.7525	-83.358779	0.000456	4.563063	1.546007	-0.000183
1376	1.3681e+02	-14.7814	-83.592933	0.000588	5.881281	1.992632	-0.000235
1377	1.3691e+02	-14.8167	-83.770567	0.000446	4.461661	1.511652	-0.000179
1378	1.3701e+02	-14.8584	-83.984535	0.000537	5.374274	1.820853	-0.000215
1379	1.3711e+02	-14.9049	-84.137946	0.000385	3.853253	1.305517	-0.000154
1380	1.3721e+02	-14.9466	-84.355951	0.000548	5.475675	1.855209	-0.000219
1381	1.3731e+02	-14.9867	-84.537622	0.000456	4.563063	1.546007	-0.000183
1382	1.3741e+02	-15.0140	-84.755628	0.000548	5.475675	1.855209	-0.000219
1383	1.3751e+02	-15.0557	-84.977670	0.000558	5.577077	1.889565	-0.000223
1384	1.3761e+02	-15.0894	-85.139156	0.000406	4.056056	1.374229	-0.000162
1385	1.3771e+02	-15.1504	-85.353124	0.000537	5.374274	1.820853	-0.000215
1386	1.3781e+02	-15.1809	-85.554981	0.000507	5.070070	1.717786	-0.000203
1387	1.3791e+02	-15.2210	-85.728577	0.000436	4.360260	1.477296	-0.000174
1388	1.3801e+02	-15.2514	-85.938508	0.000527	5.272872	1.786498	-0.000211
1389	1.3811e+02	-15.2980	-86.091920	0.000385	3.853253	1.305517	-0.000154
1390	1.3821e+02	-15.3429	-86.305888	0.000537	5.374274	1.820853	-0.000215
1391	1.3831e+02	-15.3798	-86.531967	0.000568	5.678478	1.923920	-0.000227
1392	1.3840e+02	-15.4135	-86.677304	0.000365	3.650450	1.236806	-0.000146
1393	1.3850e+02	-15.4616	-86.935681	0.000649	6.489689	2.198766	-0.000260
1394	1.3860e+02	-15.4969	-87.076981	0.000355	3.549049	1.202450	-0.000142
1395	1.3870e+02	-15.5514	-87.307097	0.000578	5.779879	1.958276	-0.000231
1396	1.3880e+02	-15.5835	-87.484731	0.000446	4.461661	1.511652	-0.000179
1397	1.3890e+02	-15.6252	-87.670440	0.000466	4.664464	1.580363	-0.000187
1398	1.3900e+02	-15.6637	-87.848074	0.000446	4.461661	1.511652	-0.000179
1399	1.3910e+02	-15.7006	-88.066079	0.000548	5.475675	1.855209	-0.000219
1400	1.3920e+02	-15.7375	-88.259862	0.000487	4.867267	1.649075	-0.000195
1401	1.3930e+02	-15.7760	-88.485941	0.000568	5.678478	1.923920	-0.000227
1402	1.3940e+02	-15.8177	-88.627241	0.000355	3.549049	1.202450	-0.000142
1403	1.3950e+02	-15.8627	-88.808912	0.000456	4.563063	1.546007	-0.000183
1404	1.3960e+02	-15.9028	-88.990583	0.000456	4.563063	1.546007	-0.000183
1405	1.3970e+02	-15.9429	-89.204551	0.000537	5.374274	1.820853	-0.000215
1406	1.3980e+02	-15.9766	-89.398334	0.000487	4.867267	1.649075	-0.000195
1407	1.3990e+02	-16.0183	-89.580005	0.000456	4.563063	1.546007	-0.000183
1408	1.4000e+02	-16.0471	-89.765713	0.000466	4.664464	1.580363	-0.000187
1409	1.4010e+02	-16.0889	-89.975644	0.000527	5.272872	1.786498	-0.000211
1410	1.4020e+02	-16.1354	-90.137130	0.000406	4.056056	1.374229	-0.000162
1411	1.4029e+02	-16.1723	-90.351098	0.000537	5.374274	1.820853	-0.000215
1412	1.4039e+02	-16.2236	-90.528732	0.000446	4.461661	1.511652	-0.000179
1413	1.4049e+02	-16.2525	-90.698291	0.000426	4.258859	1.442940	-0.000170
1414	1.4059e+02	-16.2958	-90.952631	0.000639	6.388288	2.164410	-0.000256
1415	1.4069e+02	-16.3391	-91.085857	0.000335	3.346246	1.133739	-0.000134
1416	1.4079e+02	-16.3760	-91.283676	0.000497	4.968668	1.683430	-0.000199
1417	1.4089e+02	-16.4129	-91.505719	0.000558	5.577077	1.889565	-0.000223
1418	1.4099e+02	-16.4562	-91.683353	0.000446	4.461661	1.511652	-0.000179
1419	1.4109e+02	-16.4899	-91.860987	0.000446	4.461661	1.511652	-0.000179
1420	1.4119e+02	-16.5332	-92.087066	0.000568	5.678478	1.923920	-0.000227
1421	1.4129e+02	-16.5701	-92.212217	0.000314	3.143443	1.065027	-0.000126
1422	1.4139e+02	-16.6118	-92.462520	0.000629	6.286886	2.130055	-0.000252
1423	1.4149e+02	-16.6632	-92.648228	0.000466	4.664464	1.580363	-0.000187
1424	1.4159e+02	-16.6969	-92.805676	0.000395	3.954654	1.339873	-0.000158
1425	1.4169e+02	-16.7321	-92.995422	0.000477	4.765866	1.614719	-0.000191
1426	1.4179e+02	-16.7787	-93.189204	0.000487	4.867267	1.649075	-0.000195
1427	1.4189e+02	-16.8156	-93.411247	0.000558	5.577077	1.889565	-0.000223
1428	1.4199e+02	-16.8557	-93.596955	0.000466	4.664464	1.580363	-0.000187
1429	1.4209e+02	-16.8862	-93.770552	0.000436	4.360260	1.477296	-0.000174
1430	1.4219e+02	-16.9455	-93.980483	0.000527	5.272872	1.786498	-0.000211
1431	1.4228e+02	-16.9808	-94.154080	0.000436	4.360260	1.477296	-0.000174
1432	1.4238e+02	-17.0193	-94.347862	0.000487	4.867267	1.649075	-0.000195
1433	1.4248e+02	-17.0514	-94.529533	0.000456	4.563063	1.546007	-0.000183
1434	1.4258e+02	-17.0947	-94.674870	0.000365	3.650450	1.236806	-0.000146
1435	1.4268e+02	-17.1316	-94.884801	0.000527	5.272872	1.786498	-0.000211
1436	1.4278e+02	-17.1717	-95.082621	0.000497	4.968668	1.683430	-0.000199
1437	1.4288e+02	-17.2118	-95.260255	0.000446	4.461661	1.511652	-0.000179
1438	1.4298e+02	-17.2519	-95.482297	0.000558	5.577077	1.889565	-0.000223
1439	1.4308e+02	-17.2872	-95.659931	0.000446	4.461661	1.511652	-0.000179
1440	1.4318e+02	-17.3337	-95.881974	0.000558	5.577077	1.889565	-0.000223
1441	1.4328e+02	-17.3819	-96.079793	0.000497	4.968668	1.683430	-0.000199
1442	1.4338e+02	-17.4172	-96.249353	0.000426	4.258859	1.442940	-0.000170
1443	1.4348e+02	-17.4589	-96.451210	0.000507	5.070070	1.717786	-0.000203
1444	1.4358e+02	-17.4958	-96.600584	0.000375	3.751852	1.271162	-0.000150
1445	1.4368e+02	-17.5262	-96.822626	0.000558	5.577077	1.889565	-0.000223
1446	1.4378e+02	-17.5728	-97.040632	0.000548	5.475675	1.855209	-0.000219
1447	1.4388e+02	-17.6193	-97.198080	0.000395	3.954654	1.339873	-0.000158
1448	1.4398e+02	-17.6434	-97.416085	0.000548	5.475675	1.855209	-0.000219
1449	1.4408e+02	-17.7027	-97.601794	0.000466	4.664464	1.580363	-0.000187
1450	1.4418e+02	-17.7348	-97.815762	0.000537	5.374274	1.820853	-0.000215
1451	1.4428e+02	-17.7781	-98.001470	0.000466	4.664464	1.580363	-0.000187
1452	1.4437e+02	-17.8150	-98.187178	0.000466	4.664464	1.580363	-0.000187
1453	1.4447e+02	-17.8663	-98.324441	0.000345	3.447647	1.168095	-0.000138
1454	1.4457e+02	-17.8888	-98.582818	0.000649	6.489689	2.198766	-0.000260
1455	1.4467e+02	-17.9289	-98.740266	0.000395	3.954654	1.339873	-0.000158
1456	1.4477e+02	-17.9722	-98.966345	0.000568	5.678478	1.923920	-0.000227
1457	1.4487e+02	-18.0123	-99.192425	0.000568	5.678478	1.923920	-0.000227
1458	1.4497e+02	-18.0540	-99.366022	0.000436	4.360260	1.477296	-0.000174
1459	1.4507e+02	-18.0957	-99.535582	0.000426	4.258859	1.442940	-0.000170
1460	1.4517e+02	-18.1278	-99.761661	0.000568	5.678478	1.923920	-0.000227
1461	1.4527e+02	-18.1760	-99.955444	0.000487	4.867267	1.649075	-0.000195
1462	1.4537e+02	-18.2161	-100.145189	0.000477	4.765866	1.614719	-0.000191
1463	1.4547e+02	-18.2481	-100.318786	0.000436	4.360260	1.477296	-0.000174
1464	1.4557e+02	-18.2899	-100.561014	0.000608	6.084084	2.061343	-0.000243
1465	1.4567e+02	-18.3364	-100.726537	0.000416	4.157457	1.408585	-0.000166
1466	1.4577e+02	-18.3653	-100.932431	0.000517	5.171471	1.752142	-0.000207
1467	1.4587e+02	-18.4134	-101.114102	0.000456	4.563063	1.546007	-0.000183
1468	1.4597e+02	-18.4503	-101.299810	0.000466	4.664464	1.580363	-0.000187
1469	1.4607e+02	-18.4888	-101.566261	0.000669	6.692492	2.267478	-0.000268
1470	1.4617e+02	-18.5289	-101.751969	0.000466	4.664464	1.580363	-0.000187
1471	1.4626e+02	-18.5690	-101.941715	0.000477	4.765866	1.614719	-0.000191
1472	1.4636e+02	-18.6107	-102.115311	0.000436	4.360260	1.477296	-0.000174
1473	1.4646e+02	-18.6540	-102.357540	0.000608	6.084084	2.061343	-0.000243
1474	1.4656e+02	-18.6909	-102.543248	0.000466	4.664464	1.580363	-0.000187
1475	1.4666e+02	-18.7262	-102.777402	0.000588	5.881281	1.992632	-0.000235
1476	1.4676e+02	-18.7775	-102.955036	0.000446	4.461661	1.511652	-0.000179
1477	1.4686e+02	-18.8096	-103.173041	0.000548	5.475675	1.855209	-0.000219
1478	1.4696e+02	-18.8497	-103.338563	0.000416	4.157457	1.408585	-0.000166
1479	1.4706e+02	-18.8898	-103.576754	0.000598	5.982682	2.026988	-0.000239
1480	1.4716e+02	-18.9267	-103.786686	0.000527	5.272872	1.786498	-0.000211
1481	1.4726e+02	-18.9701	-103.960282	0.000436	4.360260	1.477296	-0.000174
1482	1.4736e+02	-19.0037	-104.206548	0.000619	6.185485	2.095699	-0.000248
1483	1.4746e+02	-19.0438	-104.376107	0.000426	4.258859	1.442940	-0.000170
1484	1.4756e+02	-19.0904	-104.565853	0.000477	4.765866	1.614719	-0.000191
1485	1.4766e+02	-19.1273	-104.812118	0.000619	6.185485	2.095699	-0.000248
1486	1.4776e+02	-19.1770	-104.985715	0.000436	4.360260	1.477296	-0.000174
1487	1.4786e+02	-19.2139	-105.260240	0.000690	6.895295	2.336189	-0.000276
1488	1.4796e+02	-19.2492	-105.466134	0.000517	5.171471	1.752142	-0.000207
1489	1.4806e+02	-19.2909	-105.651842	0.000466	4.664464	1.580363	-0.000187
1490	1.4816e+02	-19.3294	-105.869848	0.000548	5.475675	1.855209	-0.000219
1491	1.4825e+02	-19.3727	-106.071704	0.000507	5.070070	1.717786	-0.000203
1492	1.4835e+02	-19.4080	-106.273561	0.000507	5.070070	1.717786	-0.000203
1493	1.4845e+02	-19.4401	-106.479455	0.000517	5.171471	1.752142	-0.000207
1494	1.4855e+02	-19.4850	-106.681312	0.000507	5.070070	1.717786	-0.000203
1495	1.4865e+02	-19.5235	-106.915466	0.000588	5.881281	1.992632	-0.000235
1496	1.4875e+02	-19.5572	-107.105211	0.000477	4.765866	1.614719	-0.000191
1497	1.4885e+02	-19.6085	-107.327254	0.000558	5.577077	1.889565	-0.000223
1498	1.4895e+02	-19.6486	-107.561407	0.000588	5.881281	1.992632	-0.000235
1499	1.4905e+02	-19.6839	-107.755190	0.000487	4.867267	1.649075	-0.000195
1500	1.4915e+02	-19.7289	-107.981270	0.000568	5.678478	1.923920	-0.000227
1501	1.4925e+02	-19.7674	-108.179089	0.000497	4.968668	1.683430	-0.000199
1502	1.4935e+02	-19.8026	-108.409206	0.000578	5.779879	1.958276	-0.000231
1503	1.4945e+02	-19.8428	-108.635286	0.000568	5.678478	1.923920	-0.000227
1504	1.4955e+02	-19.8877	-108.845217	0.000527	5.272872	1.786498	-0.000211
1505	1.4965e+02	-19.9246	-109.103593	0.000649	6.489689	2.198766	-0.000260
1506	1.4975e+02	-19.9647	-109.265079	0.000406	4.056056	1.374229	-0.000162
1507	1.4985e+02	-19.9968	-109.487121	0.000558	5.577077	1.889565	-0.000223
1508	1.4995e+02	-19.9647	-109.442713	0.000112	1.115415	0.377913	0.000045
1509	1.5005e+02	-19.9262	-109.394267	0.000122	1.216817	0.412269	0.000049
1510	1.5015e+02	-19.8780	-109.297376	0.000243	2.433633	0.824537	0.000097
1511	1.5025e+02	-19.8363	-109.208559	0.000223	2.230831	0.755826	0.000089
1512	1.5034e+02	-19.8075	-109.131853	0.000193	1.926626	0.652759	0.000077
1513	1.5044e+02	-19.7625	-109.022851	0.000274	2.737838	0.927604	0.000110
1514	1.5054e+02	-19.7273	-108.946145	0.000193	1.926626	0.652759	0.000077
1515	1.5064e+02	-19.6791	-108.873477	0.000183	1.825225	0.618403	0.000073
1516	1.5074e+02	-19.6406	-108.760437	0.000284	2.839239	0.961960	0.000114
1517	1.5084e+02	-19.5989	-108.695843	0.000162	1.622422	0.549692	0.000065
1518	1.5094e+02	-19.5604	-108.582803	0.000284	2.839239	0.961960	0.000114
1519	1.5104e+02	-19.5267	-108.477837	0.000264	2.636436	0.893249	0.000105
1520	1.5114e+02	-19.4802	-108.437466	0.000101	1.014014	0.343557	0.000041
1521	1.5124e+02	-19.4497	-108.304240	0.000335	3.346246	1.133739	0.000134
1522	1.5134e+02	-19.4096	-108.183126	0.000304	3.042042	1.030672	0.000122
1523	1.5144e+02	-19.3695	-108.057975	0.000314	3.143443	1.065027	0.000126
1524	1.5154e+02	-19.3246	-107.981270	0.000193	1.926626	0.652759	0.000077
1525	1.5164e+02	-19.2813	-107.856118	0.000314	3.143443	1.065027	0.000126
1526	1.5174e+02	-19.2572	-107.698670	0.000395	3.954654	1.339873	0.000158
1527	1.5184e+02	-19.2011	-107.646187	0.000132	1.318218	0.446624	0.000053
1528	1.5194e+02	-19.1738	-107.496813	0.000375	3.751852	1.271162	0.000150
1529	1.5204e+02	-19.1289	-107.387811	0.000274	2.737838	0.927604	0.000110
1530	1.5214e+02	-19.0888	-107.294957	0.000233	2.332232	0.790182	0.000093
1531	1.5224e+02	-19.0438	-107.165768	0.000324	3.244845	1.099383	0.000130
1532	1.5233e+02	-18.9973	-107.052728	0.000284	2.839239	0.961960	0.000114
1533	1.5243e+02	-18.9701	-106.931614	0.000304	3.042042	1.030672	0.000122
1534	1.5253e+02	-18.9283	-106.810500	0.000304	3.042042	1.030672	0.000122
1535	1.5263e+02	-18.8866	-106.697460	0.000284	2.839239	0.961960	0.000114
1536	1.5273e+02	-18.8497	-106.600569	0.000243	2.433633	0.824537	0.000097
1537	1.5283e+02	-18.8096	-106.431009	0.000426	4.258859	1.442940	0.000170
1538	1.5293e+02	-18.7583	-106.289710	0.000355	3.549049	1.202450	0.000142
1539	1.5303e+02	-18.7358	-106.176670	0.000284	2.839239	0.961960	0.000114
1540	1.5313e+02	-18.6909	-106.099964	0.000193	1.926626	0.652759	0.000077
1541	1.5323e+02	-18.6540	-105.934442	0.000416	4.157457	1.408585	0.000166
1542	1.5333e+02	-18.6107	-105.817365	0.000294	2.940640	0.996316	0.000118
1543	1.5343e+02	-18.5754	-105.659917	0.000395	3.954654	1.339873	0.000158
1544	1.5353e+02	-18.5337	-105.514580	0.000365	3.650450	1.236806	0.000146
1545	1.5363e+02	-18.4920	-105.377317	0.000345	3.447647	1.168095	0.000138
1546	1.5373e+02	-18.4423	-105.292537	0.000213	2.129429	0.721470	0.000085
1547	1.5383e+02	-18.4118	-105.114903	0.000446	4.461661	1.511652	0.000179
1548	1.5393e+02	-18.3717	-105.066458	0.000122	1.216817	0.412269	0.000049
1549	1.5403e+02	-18.3284	-104.900935	0.000416	4.157457	1.408585	0.000166
1550	1.5413e+02	-18.2963	-104.779821	0.000304	3.042042	1.030672	0.000122
1551	1.5422e+02	-18.2498	-104.598150	0.000456	4.563063	1.546007	0.000183
1552	1.5432e+02	-18.2064	-104.501259	0.000243	2.433633	0.824537	0.000097
1553	1.5442e+02	-18.1695	-104.380145	0.000304	3.042042	1.030672	0.000122
1554	1.5452e+02	-18.1375	-104.186362	0.000487	4.867267	1.649075	0.000195
1555	1.5462e+02	-18.0877	-104.089471	0.000243	2.433633	0.824537	0.000097
1556	1.5472e+02	-18.0444	-103.927985	0.000406	4.056056	1.374229	0.000162
1557	1.5482e+02	-18.0155	-103.778611	0.000375	3.751852	1.271162	0.000150
1558	1.5492e+02	-17.9706	-103.653460	0.000314	3.143443	1.065027	0.000126
1559	1.5502e+02	-17.9241	-103.516197	0.000345	3.447647	1.168095	0.000138
1560	1.5512e+02	-17.8872	-103.378935	0.000345	3.447647	1.168095	0.000138
1561	1.5522e+02	-17.8519	-103.253784	0.000314	3.143443	1.065027	0.000126
1562	1.5532e+02	-17.8182	-103.047890	0.000517	5.171471	1.752142	0.000207
1563	1.5542e+02	-17.7845	-102.950998	0.000243	2.433633	0.824537	0.000097
1564	1.5552e+02	-17.7348	-102.781439	0.000426	4.258859	1.442940	0.000170
1565	1.5562e+02	-17.6915	-102.700696	0.000203	2.028028	0.687114	0.000081
1566	1.5572e+02	-17.6546	-102.519025	0.000456	4.563063	1.546007	0.000183
1567	1.5582e+02	-17.6129	-102.373688	0.000365	3.650450	1.236806	0.000146
1568	1.5592e+02	-17.5728	-102.228351	0.000365	3.650450	1.236806	0.000146
1569	1.5602e+02	-17.5407	-102.119348	0.000274	2.737838	0.927604	0.000110
1570	1.5612e+02	-17.4926	-101.974012	0.000365	3.650450	1.236806	0.000146
1571	1.5622e+02	-17.4557	-101.832712	0.000355	3.549049	1.202450	0.000142
1572	1.5631e+02	-17.4204	-101.687375	0.000365	3.650450	1.236806	0.000146
1573	1.5641e+02	-17.3738	-101.546075	0.000355	3.549049	1.202450	0.000142
1574	1.5651e+02	-17.3305	-101.400738	0.000365	3.650450	1.236806	0.000146
1575	1.5661e+02	-17.2968	-101.255401	0.000365	3.650450	1.236806	0.000146
1576	1.5671e+02	-17.2471	-101.069693	0.000466	4.664464	1.580363	0.000187
1577	1.5681e+02	-17.2102	-100.932431	0.000345	3.447647	1.168095	0.000138
1578	1.5691e+02	-17.1733	-100.799205	0.000335	3.346246	1.133739	0.000134
1579	1.5701e+02	-17.1380	-100.629645	0.000426	4.258859	1.442940	0.000170
1580	1.5711e+02	-17.0963	-100.500457	0.000324	3.244845	1.099383	0.000130
1581	1.5721e+02	-17.0546	-100.322823	0.000446	4.461661	1.511652	0.000179
1582	1.5731e+02	-17.0145	-100.234006	0.000223	2.230831	0.755826	0.000089
1583	1.5741e+02	-16.9744	-100.032149	0.000507	5.070070	1.717786	0.000203
1584	1.5751e+02	-16.9343	-99.911035	0.000304	3.042042	1.030672	0.000122
1585	1.5761e+02	-16.8926	-99.753587	0.000395	3.954654	1.339873	0.000158
1586	1.5771e+02	-16.8525	-99.575953	0.000446	4.461661	1.511652	0.000179
1587	1.5781e+02	-16.8124	-99.450802	0.000314	3.143443	1.065027	0.000126
1588	1.5791e+02	-16.7690	-99.257019	0.000487	4.867267	1.649075	0.000195
1589	1.5801e+02	-16.7338	-99.156091	0.000254	2.535035	0.858893	0.000101
1590	1.5811e+02	-16.6904	-99.022865	0.000335	3.346246	1.133739	0.000134
1591	1.5821e+02	-16.6616	-98.853306	0.000426	4.258859	1.442940	0.000170
1592	1.5830e+02	-16.6166	-98.679709	0.000436	4.360260	1.477296	0.000174
1593	1.5840e+02	-16.5797	-98.522261	0.000395	3.954654	1.339873	0.000158
1594	1.5850e+02	-16.5445	-98.376924	0.000365	3.650450	1.236806	0.000146
1595	1.5860e+02	-16.4963	-98.187178	0.000477	4.765866	1.614719	0.000191
1596	1.5870e+02	-16.4546	-98.049916	0.000345	3.447647	1.168095	0.000138
1597	1.5880e+02	-16.4065	-97.932839	0.000294	2.940640	0.996316	0.000118
1598	1.5890e+02	-16.3744	-97.791539	0.000355	3.549049	1.202450	0.000142
1599	1.5900e+02	-16.3391	-97.581608	0.000527	5.272872	1.786498	0.000211
1600	1.5910e+02	-16.2942	-97.452420	0.000324	3.244845	1.099383	0.000130
1601	1.5920e+02	-16.2573	-97.319194	0.000335	3.346246	1.133739	0.000134
1602	1.5930e+02	-16.2172	-97.133486	0.000466	4.664464	1.580363	0.000187
1603	1.5940e+02	-16.1899	-96.980075	0.000385	3.853253	1.305517	0.000154
1604	1.5950e+02	-16.1386	-96.838775	0.000355	3.549049	1.202450	0.000142
1605	1.5960e+02	-16.0969	-96.661141	0.000446	4.461661	1.511652	0.000179
1606	1.5970e+02	-16.0536	-96.483507	0.000446	4.461661	1.511652	0.000179
1607	1.5980e+02	-16.0279	-96.378541	0.000264	2.636436	0.893249	0.000105
1608	1.5990e+02	-15.9750	-96.225130	0.000385	3.853253	1.305517	0.000154
1609	1.6000e+02	-15.9397	-96.047496	0.000446	4.461661	1.511652	0.000179
1610	1.6010e+02	-15.8947	-95.881974	0.000416	4.157457	1.408585	0.000166
1611	1.6019e+02	-15.8562	-95.752785	0.000324	3.244845	1.099383	0.000130
1612	1.6029e+02	-15.8290	-95.546892	0.000517	5.171471	1.752142	0.000207
1613	1.6039e+02	-15.7840	-95.433852	0.000284	2.839239	0.961960	0.000114
1614	1.6049e+02	-15.7439	-95.260255	0.000436	4.360260	1.477296	0.000174
1615	1.6059e+02	-15.7022	-95.106844	0.000385	3.853253	1.305517	0.000154
1616	1.6069e+02	-15.6541	-94.973618	0.000335	3.346246	1.133739	0.000134
1617	1.6079e+02	-15.6300	-94.783873	0.000477	4.765866	1.614719	0.000191
1618	1.6089e+02	-15.5771	-94.638536	0.000365	3.650450	1.236806	0.000146
1619	1.6099e+02	-15.5450	-94.497236	0.000355	3.549049	1.202450	0.000142
1620	1.6109e+02	-15.5017	-94.347862	0.000375	3.751852	1.271162	0.000150
1621	1.6119e+02	-15.4632	-94.194451	0.000385	3.853253	1.305517	0.000154
1622	1.6129e+02	-15.4199	-94.004706	0.000477	4.765866	1.614719	0.000191
1623	1.6139e+02	-15.3782	-93.851295	0.000385	3.853253	1.305517	0.000154
1624	1.6149e+02	-15.3397	-93.697883	0.000385	3.853253	1.305517	0.000154
1625	1.6159e+02	-15.3012	-93.544472	0.000385	3.853253	1.305517	0.000154
1626	1.6169e+02	-15.2627	-93.391061	0.000385	3.853253	1.305517	0.000154
1627	1.6179e+02	-15.2178	-93.233613	0.000395	3.954654	1.339873	0.000158
1628	1.6189e+02	-15.1841	-93.027719	0.000517	5.171471	1.752142	0.000207
1629	1.6199e+02	-15.1375	-92.922753	0.000264	2.636436	0.893249	0.000105
1630	1.6209e+02	-15.0974	-92.773379	0.000375	3.751852	1.271162	0.000150
1631	1.6219e+02	-15.0670	-92.579597	0.000487	4.867267	1.649075	0.000195
1632	1.6228e+02	-15.0349	-92.466557	0.000284	2.839239	0.961960	0.000114
1633	1.6238e+02	-14.9900	-92.252589	0.000537	5.374274	1.820853	0.000215
1634	1.6248e+02	-14.9531	-92.127438	0.000314	3.143443	1.065027	0.000126
1635	1.6258e+02	-14.9049	-91.929618	0.000497	4.968668	1.683430	0.000199
1636	1.6268e+02	-14.8712	-91.800430	0.000324	3.244845	1.099383	0.000130
1637	1.6278e+02	-14.8167	-91.626833	0.000436	4.360260	1.477296	0.000174
1638	1.6288e+02	-14.7830	-91.453236	0.000436	4.360260	1.477296	0.000174
1639	1.6298e+02	-14.7493	-91.295788	0.000395	3.954654	1.339873	0.000158
1640	1.6308e+02	-14.7028	-91.170636	0.000314	3.143443	1.065027	0.000126
1641	1.6318e+02	-14.6659	-90.993002	0.000446	4.461661	1.511652	0.000179
1642	1.6328e+02	-14.6258	-90.839591	0.000385	3.853253	1.305517	0.000154
1643	1.6338e+02	-14.5857	-90.690217	0.000375	3.751852	1.271162	0.000150
1644	1.6348e+02	-14.5504	-90.540843	0.000375	3.751852	1.271162	0.000150
1645	1.6358e+02	-14.5007	-90.326875	0.000537	5.374274	1.820853	0.000215
1646	1.6368e+02	-14.4718	-90.201724	0.000314	3.143443	1.065027	0.000126
1647	1.6378e+02	-14.4269	-90.028127	0.000436	4.360260	1.477296	0.000174
1648	1.6388e+02	-14.3868	-89.882790	0.000365	3.650450	1.236806	0.000146
1649	1.6398e+02	-14.3531	-89.729379	0.000385	3.853253	1.305517	0.000154
1650	1.6408e+02	-14.3098	-89.547708	0.000456	4.563063	1.546007	0.000183
1651	1.6418e+02	-14.2664	-89.378148	0.000426	4.258859	1.442940	0.000170
1652	1.6427e+02	-14.2215	-89.196477	0.000456	4.563063	1.546007	0.000183
1653	1.6437e+02	-14.1862	-89.091511	0.000264	2.636436	0.893249	0.000105
1654	1.6447e+02	-14.1397	-88.905803	0.000466	4.664464	1.580363	0.000187
1655	1.6457e+02	-14.1108	-88.732206	0.000436	4.360260	1.477296	0.000174
1656	1.6467e+02	-14.0627	-88.570721	0.000406	4.056056	1.374229	0.000162
1657	1.6477e+02	-14.0194	-88.425384	0.000365	3.650450	1.236806	0.000146
1658	1.6487e+02	-13.9809	-88.263899	0.000406	4.056056	1.374229	0.000162
1659	1.6497e+02	-13.9424	-88.146822	0.000294	2.940640	0.996316	0.000118
1660	1.6507e+02	-13.9039	-87.884408	0.000659	6.591091	2.233122	0.000264
1661	1.6517e+02	-13.8670	-87.743108	0.000355	3.549049	1.202450	0.000142
1662	1.6527e+02	-13.8333	-87.605846	0.000345	3.447647	1.168095	0.000138
1663	1.6537e+02	-13.7900	-87.436286	0.000426	4.258859	1.442940	0.000170
1664	1.6547e+02	-13.7531	-87.262689	0.000436	4.360260	1.477296	0.000174
1665	1.6557e+02	-13.7130	-87.105241	0.000395	3.954654	1.339873	0.000158
1666	1.6567e+02	-13.6649	-86.907421	0.000497	4.968668	1.683430	0.000199
1667	1.6577e+02	-13.6296	-86.725750	0.000456	4.563063	1.546007	0.000183
1668	1.6587e+02	-13.5911	-86.584450	0.000355	3.549049	1.202450	0.000142
1669	1.6597e+02	-13.5429	-86.414890	0.000426	4.258859	1.442940	0.000170
1670	1.6607e+02	-13.5012	-86.245331	0.000426	4.258859	1.442940	0.000170
1671	1.6616e+02	-13.4756	-86.091920	0.000385	3.853253	1.305517	0.000154
1672	1.6626e+02	-13.4306	-85.962731	0.000324	3.244845	1.099383	0.000130
1673	1.6636e+02	-13.3857	-85.781060	0.000456	4.563063	1.546007	0.000183
1674	1.6646e+02	-13.3344	-85.587278	0.000487	4.867267	1.649075	0.000195
1675	1.6656e+02	-13.3135	-85.445978	0.000355	3.549049	1.202450	0.000142
1676	1.6666e+02	-13.2702	-85.252195	0.000487	4.867267	1.649075	0.000195
1677	1.6676e+02	-13.2285	-85.143193	0.000274	2.737838	0.927604	0.000110
1678	1.6686e+02	-13.1932	-84.957484	0.000466	4.664464	1.580363	0.000187
1679	1.6696e+02	-13.1547	-84.808110	0.000375	3.751852	1.271162	0.000150
1680	1.6706e+02	-13.1018	-84.630476	0.000446	4.461661	1.511652	0.000179
1681	1.6716e+02	-13.0633	-84.452843	0.000446	4.461661	1.511652	0.000179
1682	1.6726e+02	-13.0264	-84.303468	0.000375	3.751852	1.271162	0.000150
1683	1.6736e+02	-12.9879	-84.097575	0.000517	5.171471	1.752142	0.000207
1684	1.6746e+02	-12.9542	-83.988572	0.000274	2.737838	0.927604	0.000110
1685	1.6756e+02	-12.9077	-83.766529	0.000558	5.577077	1.889565	0.000223
1686	1.6766e+02	-12.8676	-83.637341	0.000324	3.244845	1.099383	0.000130
1687	1.6776e+02	-12.8307	-83.451633	0.000466	4.664464	1.580363	0.000187
1688	1.6786e+02	-12.8002	-83.286110	0.000416	4.157457	1.408585	0.000166
1689	1.6796e+02	-12.7553	-83.128662	0.000395	3.954654	1.339873	0.000158
1690	1.6806e+02	-12.7135	-82.959102	0.000426	4.258859	1.442940	0.000170
1691	1.6816e+02	-12.6766	-82.769357	0.000477	4.765866	1.614719	0.000191
1692	1.6825e+02	-12.6349	-82.628057	0.000355	3.549049	1.202450	0.000142
1693	1.6835e+02	-12.5980	-82.430237	0.000497	4.968668	1.683430	0.000199
1694	1.6845e+02	-12.5531	-82.288938	0.000355	3.549049	1.202450	0.000142
1695	1.6855e+02	-12.5210	-82.111304	0.000446	4.461661	1.511652	0.000179
1696	1.6865e+02	-12.4777	-81.917521	0.000487	4.867267	1.649075	0.000195
1697	1.6875e+02	-12.4296	-81.751999	0.000416	4.157457	1.408585	0.000166
1698	1.6885e+02	-12.3959	-81.582439	0.000426	4.258859	1.442940	0.000170
1699	1.6895e+02	-12.3526	-81.441139	0.000355	3.549049	1.202450	0.000142
1700	1.6905e+02	-12.3205	-81.239282	0.000507	5.070070	1.717786	0.000203
1701	1.6915e+02	-12.2724	-81.077797	0.000406	4.056056	1.374229	0.000162
1702	1.6925e+02	-12.2307	-80.960720	0.000294	2.940640	0.996316	0.000118
1703	1.6935e+02	-12.1906	-80.714455	0.000619	6.185485	2.095699	0.000248
1704	1.6945e+02	-12.1633	-80.512598	0.000507	5.070070	1.717786	0.000203
1705	1.6955e+02	-12.1087	-80.310741	0.000507	5.070070	1.717786	0.000203
1706	1.6965e+02	-12.0847	-80.213850	0.000243	2.433633	0.824537	0.000097
1707	1.6975e+02	-12.0334	-80.003919	0.000527	5.272872	1.786498	0.000211
1708	1.6985e+02	-11.9932	-79.858582	0.000365	3.650450	1.236806	0.000146
1709	1.6995e+02	-11.9580	-79.660762	0.000497	4.968668	1.683430	0.000199
1710	1.7005e+02	-11.9194	-79.479091	0.000456	4.563063	1.546007	0.000183
1711	1.7015e+02	-11.8777	-79.285309	0.000487	4.867267	1.649075	0.000195
1712	1.7024e+02	-11.8312	-79.164195	0.000304	3.042042	1.030672	0.000122
1713	1.7034e+02	-11.7895	-79.010784	0.000385	3.853253	1.305517	0.000154
1714	1.7044e+02	-11.7606	-78.784704	0.000568	5.678478	1.923920	0.000227
1715	1.7054e+02	-11.7189	-78.623218	0.000406	4.056056	1.374229	0.000162
1716	1.7064e+02	-11.6788	-78.385027	0.000598	5.982682	2.026988	0.000239
1717	1.7074e+02	-11.6387	-78.251802	0.000335	3.346246	1.133739	0.000134
1718	1.7084e+02	-11.6002	-78.049945	0.000507	5.070070	1.717786	0.000203
1719	1.7094e+02	-11.5601	-77.888460	0.000406	4.056056	1.374229	0.000162
1720	1.7104e+02	-11.5136	-77.706789	0.000456	4.563063	1.546007	0.000183
1721	1.7114e+02	-11.4815	-77.541266	0.000416	4.157457	1.408585	0.000166
1722	1.7124e+02	-11.4318	-77.343446	0.000497	4.968668	1.683430	0.000199
1723	1.7134e+02	-11.4029	-77.161775	0.000456	4.563063	1.546007	0.000183
1724	1.7144e+02	-11.3596	-76.972030	0.000477	4.765866	1.614719	0.000191
1725	1.7154e+02	-11.3130	-76.814582	0.000395	3.954654	1.339873	0.000158
1726	1.7164e+02	-11.2778	-76.584465	0.000578	5.779879	1.958276	0.000231
1727	1.7174e+02	-11.2393	-76.414905	0.000426	4.258859	1.442940	0.000170
1728	1.7184e+02	-11.1879	-76.269568	0.000365	3.650450	1.236806	0.000146
1729	1.7194e+02	-11.1574	-76.079823	0.000477	4.765866	1.614719	0.000191
1730	1.7204e+02	-11.1189	-75.869892	0.000527	5.272872	1.786498	0.000211
1731	1.7213e+02	-11.0820	-75.692258	0.000446	4.461661	1.511652	0.000179
1732	1.7223e+02	-11.0307	-75.486364	0.000517	5.171471	1.752142	0.000207
1733	1.7233e+02	-11.0034	-75.312767	0.000436	4.360260	1.477296	0.000174
1734	1.7243e+02	-10.9489	-75.114948	0.000497	4.968668	1.683430	0.000199
1735	1.7253e+02	-10.9168	-74.981722	0.000335	3.346246	1.133739	0.000134
1736	1.7263e+02	-10.8799	-74.751605	0.000578	5.779879	1.958276	0.000231
1737	1.7273e+02	-10.8366	-74.578008	0.000436	4.360260	1.477296	0.000174
1738	1.7283e+02	-10.7997	-74.396337	0.000456	4.563063	1.546007	0.000183
1739	1.7293e+02	-10.7564	-74.210629	0.000466	4.664464	1.580363	0.000187
1740	1.7303e+02	-10.7099	-74.012809	0.000497	4.968668	1.683430	0.000199
1741	1.7313e+02	-10.6842	-73.843250	0.000426	4.258859	1.442940	0.000170
1742	1.7323e+02	-10.6473	-73.645430	0.000497	4.968668	1.683430	0.000199
1743	1.7333e+02	-10.5992	-73.475870	0.000426	4.258859	1.442940	0.000170
1744	1.7343e+02	-10.5575	-73.274014	0.000507	5.070070	1.717786	0.000203
1745	1.7353e+02	-10.5141	-73.080231	0.000487	4.867267	1.649075	0.000195
1746	1.7363e+02	-10.4869	-72.910671	0.000426	4.258859	1.442940	0.000170
1747	1.7373e+02	-10.4420	-72.716889	0.000487	4.867267	1.649075	0.000195
1748	1.7383e+02	-10.4002	-72.539255	0.000446	4.461661	1.511652	0.000179
1749	1.7393e+02	-10.3649	-72.313175	0.000568	5.678478	1.923920	0.000227
1750	1.7403e+02	-10.3264	-72.151690	0.000406	4.056056	1.374229	0.000162
1751	1.7413e+02	-10.2703	-71.945796	0.000517	5.171471	1.752142	0.000207
1752	1.7422e+02	-10.2334	-71.739902	0.000517	5.171471	1.752142	0.000207
1753	1.7432e+02	-10.1949	-71.562268	0.000446	4.461661	1.511652	0.000179
1754	1.7442e+02	-10.1612	-71.384634	0.000446	4.461661	1.511652	0.000179
1755	1.7452e+02	-10.1243	-71.186814	0.000497	4.968668	1.683430	0.000199
1756	1.7462e+02	-10.0778	-70.956698	0.000578	5.779879	1.958276	0.000231
1757	1.7472e+02	-10.0409	-70.815398	0.000355	3.549049	1.202450	0.000142
1758	1.7482e+02	-10.0024	-70.605467	0.000527	5.272872	1.786498	0.000211
1759	1.7492e+02	-9.9591	-70.403610	0.000507	5.070070	1.717786	0.000203
1760	1.7502e+02	-9.9206	-70.213865	0.000477	4.765866	1.614719	0.000191
1761	1.7512e+02	-9.8837	-70.028157	0.000466	4.664464	1.580363	0.000187
1762	1.7522e+02	-9.8356	-69.850523	0.000446	4.461661	1.511652	0.000179
1763	1.7532e+02	-9.8003	-69.624443	0.000568	5.678478	1.923920	0.000227
1764	1.7542e+02	-9.7666	-69.454883	0.000426	4.258859	1.442940	0.000170
1765	1.7552e+02	-9.7184	-69.236878	0.000548	5.475675	1.855209	0.000219
1766	1.7562e+02	-9.6848	-69.026947	0.000527	5.272872	1.786498	0.000211
1767	1.7572e+02	-9.6511	-68.833164	0.000487	4.867267	1.649075	0.000195
1768	1.7582e+02	-9.6110	-68.679753	0.000385	3.853253	1.305517	0.000154
1769	1.7592e+02	-9.5628	-68.469822	0.000527	5.272872	1.786498	0.000211
1770	1.7602e+02	-9.5259	-68.267965	0.000507	5.070070	1.717786	0.000203
1771	1.7612e+02	-9.4906	-68.082257	0.000466	4.664464	1.580363	0.000187
1772	1.7621e+02	-9.4570	-67.892512	0.000477	4.765866	1.614719	0.000191
1773	1.7631e+02	-9.4072	-67.694692	0.000497	4.968668	1.683430	0.000199
1774	1.7641e+02	-9.3607	-67.496872	0.000497	4.968668	1.683430	0.000199
1775	1.7651e+02	-9.3222	-67.274830	0.000558	5.577077	1.889565	0.000223
1776	1.7661e+02	-9.2821	-67.072973	0.000507	5.070070	1.717786	0.000203
1777	1.7671e+02	-9.2468	-66.887265	0.000466	4.664464	1.580363	0.000187
1778	1.7681e+02	-9.2051	-66.681371	0.000517	5.171471	1.752142	0.000207
1779	1.7691e+02	-9.1634	-66.491626	0.000477	4.765866	1.614719	0.000191
1780	1.7701e+02	-9.1265	-66.305917	0.000466	4.664464	1.580363	0.000187
1781	1.7711e+02	-9.0912	-66.100023	0.000517	5.171471	1.752142	0.000207
1782	1.7721e+02	-9.0543	-65.902204	0.000497	4.968668	1.683430	0.000199
1783	1.7731e+02	-8.9997	-65.740718	0.000406	4.056056	1.374229	0.000162
1784	1.7741e+02	-8.9628	-65.490416	0.000629	6.286886	2.130055	0.000252
1785	1.7751e+02	-8.9260	-65.304708	0.000466	4.664464	1.580363	0.000187
1786	1.7761e+02	-8.8842	-65.098814	0.000517	5.171471	1.752142	0.000207
1787	1.7771e+02	-8.8441	-64.921180	0.000446	4.461661	1.511652	0.000179
1788	1.7781e+02	-8.7960	-64.711249	0.000527	5.272872	1.786498	0.000211
1789	1.7791e+02	-8.7655	-64.509392	0.000507	5.070070	1.717786	0.000203
1790	1.7801e+02	-8.7222	-64.287349	0.000558	5.577077	1.889565	0.000223
1791	1.7810e+02	-8.6853	-64.089530	0.000497	4.968668	1.683430	0.000199
1792	1.7820e+02	-8.6500	-63.907859	0.000456	4.563063	1.546007	0.000183
1793	1.7830e+02	-8.6179	-63.726188	0.000456	4.563063	1.546007	0.000183
1794	1.7840e+02	-8.5682	-63.496071	0.000578	5.779879	1.958276	0.000231
1795	1.7850e+02	-8.5329	-63.302288	0.000487	4.867267	1.649075	0.000195
1796	1.7860e+02	-8.4816	-63.100432	0.000507	5.070070	1.717786	0.000203
1797	1.7870e+02	-8.4479	-62.914723	0.000466	4.664464	1.580363	0.000187
1798	1.7880e+02	-8.4110	-62.688644	0.000568	5.678478	1.923920	0.000227
1799	1.7890e+02	-8.3645	-62.519084	0.000426	4.258859	1.442940	0.000170
1800	1.7900e+02	-8.3244	-62.305116	0.000537	5.374274	1.820853	0.000215
1801	1.7910e+02	-8.2923	-62.087111	0.000548	5.475675	1.855209	0.000219
1802	1.7920e+02	-8.2506	-61.893328	0.000487	4.867267	1.649075	0.000195
1803	1.7930e+02	-8.2073	-61.679360	0.000537	5.374274	1.820853	0.000215
1804	1.7940e+02	-8.1639	-61.521912	0.000395	3.954654	1.339873	0.000158
1805	1.7950e+02	-8.1286	-61.263535	0.000649	6.489689	2.198766	0.000260
1806	1.7960e+02	-8.0885	-61.089938	0.000436	4.360260	1.477296	0.000174
1807	1.7970e+02	-8.0516	-60.884044	0.000517	5.171471	1.752142	0.000207
1808	1.7980e+02	-8.0115	-60.722559	0.000406	4.056056	1.374229	0.000162
1809	1.7990e+02	-7.9778	-60.472256	0.000629	6.286886	2.130055	0.000252
1810	1.8000e+02	-7.9313	-60.250214	0.000558	5.577077	1.889565	0.000223
1811	1.8009e+02	-7.8896	-60.072580	0.000446	4.461661	1.511652	0.000179
1812	1.8019e+02	-7.8543	-59.890909	0.000456	4.563063	1.546007	0.000183
1813	1.8029e+02	-7.8174	-59.689052	0.000507	5.070070	1.717786	0.000203
1814	1.8039e+02	-7.7709	-59.434712	0.000639	6.388288	2.164410	0.000256
1815	1.8049e+02	-7.7308	-59.257078	0.000446	4.461661	1.511652	0.000179
1816	1.8059e+02	-7.6907	-59.059259	0.000497	4.968668	1.683430	0.000199
1817	1.8069e+02	-7.6586	-58.841253	0.000548	5.475675	1.855209	0.000219
1818	1.8079e+02	-7.6121	-58.643434	0.000497	4.968668	1.683430	0.000199
1819	1.8089e+02	-7.5736	-58.421391	0.000558	5.577077	1.889565	0.000223
1820	1.8099e+02	-7.5367	-58.243757	0.000446	4.461661	1.511652	0.000179
1821	1.8109e+02	-7.4966	-58.049975	0.000487	4.867267	1.649075	0.000195
1822	1.8119e+02	-7.4485	-57.827932	0.000558	5.577077	1.889565	0.000223
1823	1.8129e+02	-7.4132	-57.658373	0.000426	4.258859	1.442940	0.000170
1824	1.8139e+02	-7.3666	-57.391922	0.000669	6.692492	2.267478	0.000268
1825	1.8149e+02	-7.3362	-57.202176	0.000477	4.765866	1.614719	0.000191
1826	1.8159e+02	-7.2912	-56.972060	0.000578	5.779879	1.958276	0.000231
1827	1.8169e+02	-7.2495	-56.798463	0.000436	4.360260	1.477296	0.000174
1828	1.8179e+02	-7.1998	-56.580457	0.000548	5.475675	1.855209	0.000219
1829	1.8189e+02	-7.1725	-56.342266	0.000598	5.982682	2.026988	0.000239
1830	1.8199e+02	-7.1340	-56.164632	0.000446	4.461661	1.511652	0.000179
1831	1.8209e+02	-7.0923	-55.954701	0.000527	5.272872	1.786498	0.000211
1832	1.8218e+02	-7.0570	-55.724585	0.000578	5.779879	1.958276	0.000231
1833	1.8228e+02	-7.0073	-55.530802	0.000487	4.867267	1.649075	0.000195
1834	1.8238e+02	-6.9768	-55.320871	0.000527	5.272872	1.786498	0.000211
1835	1.8248e+02	-6.9303	-55.110940	0.000527	5.272872	1.786498	0.000211
1836	1.8258e+02	-6.8918	-54.876786	0.000588	5.881281	1.992632	0.000235
1837	1.8268e+02	-6.8485	-54.731449	0.000365	3.650450	1.236806	0.000146
1838	1.8278e+02	-6.8164	-54.493258	0.000598	5.982682	2.026988	0.000239
1839	1.8288e+02	-6.7875	-54.279290	0.000537	5.374274	1.820853	0.000215
1840	1.8298e+02	-6.7330	-54.109730	0.000426	4.258859	1.442940	0.000170
1841	1.8308e+02	-6.6864	-53.835205	0.000690	6.895295	2.336189	0.000276
1842	1.8318e+02	-6.6592	-53.653534	0.000456	4.563063	1.546007	0.000183
1843	1.8328e+02	-6.6110	-53.411306	0.000608	6.084084	2.061343	0.000243
1844	1.8338e+02	-6.5838	-53.221560	0.000477	4.765866	1.614719	0.000191
1845	1.8348e+02	-6.5389	-52.987407	0.000588	5.881281	1.992632	0.000235
1846	1.8358e+02	-6.4939	-52.805735	0.000456	4.563063	1.546007	0.000183
1847	1.8368e+02	-6.4538	-52.591767	0.000537	5.374274	1.820853	0.000215
1848	1.8378e+02	-6.4217	-52.397985	0.000487	4.867267	1.649075	0.000195
1849	1.8388e+02	-6.3736	-52.167868	0.000578	5.779879	1.958276	0.000231
1850	1.8398e+02	-6.3431	-51.949863	0.000548	5.475675	1.855209	0.000219
1851	1.8407e+02	-6.3078	-51.727820	0.000558	5.577077	1.889565	0.000223
1852	1.8417e+02	-6.2581	-51.534038	0.000487	4.867267	1.649075	0.000195
1853	1.8427e+02	-6.2100	-51.320070	0.000537	5.374274	1.820853	0.000215
1854	1.8437e+02	-6.1843	-51.089953	0.000578	5.779879	1.958276	0.000231
1855	1.8447e+02	-6.1362	-50.892133	0.000497	4.968668	1.683430	0.000199
1856	1.8457e+02	-6.1057	-50.674128	0.000548	5.475675	1.855209	0.000219
1857	1.8467e+02	-6.0576	-50.431900	0.000608	6.084084	2.061343	0.000243
1858	1.8477e+02	-6.0159	-50.266377	0.000416	4.157457	1.408585	0.000166
1859	1.8487e+02	-5.9710	-50.028186	0.000598	5.982682	2.026988	0.000239
1860	1.8497e+02	-5.9405	-49.810181	0.000548	5.475675	1.855209	0.000219
1861	1.8507e+02	-5.9036	-49.604287	0.000517	5.171471	1.752142	0.000207
1862	1.8517e+02	-5.8571	-49.394356	0.000527	5.272872	1.786498	0.000211
1863	1.8527e+02	-5.8250	-49.127905	0.000669	6.692492	2.267478	0.000268
1864	1.8537e+02	-5.7801	-48.938159	0.000477	4.765866	1.614719	0.000191
1865	1.8547e+02	-5.7464	-48.691894	0.000619	6.185485	2.095699	0.000248
1866	1.8557e+02	-5.6982	-48.486000	0.000517	5.171471	1.752142	0.000207
1867	1.8567e+02	-5.6645	-48.272032	0.000537	5.374274	1.820853	0.000215
1868	1.8577e+02	-5.6148	-48.045952	0.000568	5.678478	1.923920	0.000227
1869	1.8587e+02	-5.5843	-47.860244	0.000466	4.664464	1.580363	0.000187
1870	1.8597e+02	-5.5458	-47.585719	0.000690	6.895295	2.336189	0.000276
1871	1.8606e+02	-5.5089	-47.363676	0.000558	5.577077	1.889565	0.000223
1872	1.8616e+02	-5.4640	-47.161820	0.000507	5.070070	1.717786	0.000203
1873	1.8626e+02	-5.4239	-46.935740	0.000568	5.678478	1.923920	0.000227
1874	1.8636e+02	-5.3790	-46.725809	0.000527	5.272872	1.786498	0.000211
1875	1.8646e+02	-5.3485	-46.487618	0.000598	5.982682	2.026988	0.000239
1876	1.8656e+02	-5.2972	-46.241353	0.000619	6.185485	2.095699	0.000248
1877	1.8666e+02	-5.2603	-46.039496	0.000507	5.070070	1.717786	0.000203
1878	1.8676e+02	-5.2346	-45.809379	0.000578	5.779879	1.958276	0.000231
1879	1.8686e+02	-5.1881	-45.579262	0.000578	5.779879	1.958276	0.000231
1880	1.8696e+02	-5.1448	-45.349146	0.000578	5.779879	1.958276	0.000231
1881	1.8706e+02	-5.1015	-45.119029	0.000578	5.779879	1.958276	0.000231
1882	1.8716e+02	-5.0678	-44.880838	0.000598	5.982682	2.026988	0.000239
1883	1.8726e+02	-5.0261	-44.638610	0.000608	6.084084	2.061343	0.000243
1884	1.8736e+02	-4.9811	-44.396382	0.000608	6.084084	2.061343	0.000243
1885	1.8746e+02	-4.9458	-44.190488	0.000517	5.171471	1.752142	0.000207
1886	1.8756e+02	-4.9041	-43.940185	0.000629	6.286886	2.130055	0.000252
1887	1.8766e+02	-4.8608	-43.665660	0.000690	6.895295	2.336189	0.000276
1888	1.8776e+02	-4.8368	-43.475915	0.000477	4.765866	1.614719	0.000191
1889	1.8786e+02	-4.7854	-43.290207	0.000466	4.664464	1.580363	0.000187
1890	1.8796e+02	-4.7357	-43.003570	0.000720	7.199499	2.439256	0.000288
1891	1.8806e+02	-4.7084	-42.785565	0.000548	5.475675	1.855209	0.000219
1892	1.8815e+02	-4.6603	-42.563522	0.000558	5.577077	1.889565	0.000223
1893	1.8825e+02	-4.6266	-42.325331	0.000598	5.982682	2.026988	0.000239
1894	1.8835e+02	-4.5785	-42.095214	0.000578	5.779879	1.958276	0.000231
1895	1.8845e+02	-4.5432	-41.820689	0.000690	6.895295	2.336189	0.000276
1896	1.8855e+02	-4.5127	-41.606721	0.000537	5.374274	1.820853	0.000215
1897	1.8865e+02	-4.4710	-41.376604	0.000578	5.779879	1.958276	0.000231
1898	1.8875e+02	-4.4293	-41.178785	0.000497	4.968668	1.683430	0.000199
1899	1.8885e+02	-4.3828	-40.892148	0.000720	7.199499	2.439256	0.000288
1900	1.8895e+02	-4.3427	-40.686254	0.000517	5.171471	1.752142	0.000207
1901	1.8905e+02	-4.3122	-40.431914	0.000639	6.388288	2.164410	0.000256
1902	1.8915e+02	-4.2624	-40.177575	0.000639	6.388288	2.164410	0.000256
1903	1.8925e+02	-4.2207	-39.907087	0.000679	6.793893	2.301833	0.000272
1904	1.8935e+02	-4.1951	-39.725416	0.000456	4.563063	1.546007	0.000183
1905	1.8945e+02	-4.1502	-39.438779	0.000720	7.199499	2.439256	0.000288
1906	1.8955e+02	-4.1116	-39.224811	0.000537	5.374274	1.820853	0.000215
1907	1.8965e+02	-4.0731	-38.966434	0.000649	6.489689	2.198766	0.000260
1908	1.8975e+02	-4.0250	-38.744392	0.000558	5.577077	1.889565	0.000223
1909	1.8985e+02	-3.9897	-38.494089	0.000629	6.286886	2.130055	0.000252
1910	1.8995e+02	-3.9528	-38.280121	0.000537	5.374274	1.820853	0.000215
1911	1.9004e+02	-3.9047	-38.021744	0.000649	6.489689	2.198766	0.000260
1912	1.9014e+02	-3.8710	-37.743182	0.000700	6.996696	2.370545	0.000280
1913	1.9024e+02	-3.8357	-37.496917	0.000619	6.185485	2.095699	0.000248
1914	1.9034e+02	-3.7940	-37.246614	0.000629	6.286886	2.130055	0.000252
1915	1.9044e+02	-3.7507	-37.032646	0.000537	5.374274	1.820853	0.000215
1916	1.9054e+02	-3.7106	-36.794455	0.000598	5.982682	2.026988	0.000239
1917	1.9064e+02	-3.6705	-36.564338	0.000578	5.779879	1.958276	0.000231
1918	1.9074e+02	-3.6320	-36.305962	0.000649	6.489689	2.198766	0.000260
1919	1.9084e+02	-3.5839	-36.023362	0.000710	7.098098	2.404901	0.000284
1920	1.9094e+02	-3.5518	-35.785171	0.000598	5.982682	2.026988	0.000239
1921	1.9104e+02	-3.5133	-35.538906	0.000619	6.185485	2.095699	0.000248
1922	1.9114e+02	-3.4700	-35.280529	0.000649	6.489689	2.198766	0.000260
1923	1.9124e+02	-3.4298	-35.030227	0.000629	6.286886	2.130055	0.000252
1924	1.9134e+02	-3.3897	-34.804147	0.000568	5.678478	1.923920	0.000227
1925	1.9144e+02	-3.3496	-34.541733	0.000659	6.591091	2.233122	0.000264
1926	1.9154e+02	-3.3079	-34.319691	0.000558	5.577077	1.889565	0.000223
1927	1.9164e+02	-3.2662	-34.033054	0.000720	7.199499	2.439256	0.000288
1928	1.9174e+02	-3.2277	-33.786789	0.000619	6.185485	2.095699	0.000248
1929	1.9184e+02	-3.1908	-33.508227	0.000700	6.996696	2.370545	0.000280
1930	1.9194e+02	-3.1475	-33.306370	0.000507	5.070070	1.717786	0.000203
1931	1.9203e+02	-3.1138	-33.047993	0.000649	6.489689	2.198766	0.000260
1932	1.9213e+02	-3.0689	-32.773468	0.000690	6.895295	2.336189	0.000276
1933	1.9223e+02	-3.0368	-32.531240	0.000608	6.084084	2.061343	0.000243
1934	1.9233e+02	-2.9791	-32.284974	0.000619	6.185485	2.095699	0.000248
1935	1.9243e+02	-2.9486	-32.010449	0.000690	6.895295	2.336189	0.000276
1936	1.9253e+02	-2.9149	-31.756110	0.000639	6.388288	2.164410	0.000256
1937	1.9263e+02	-2.8700	-31.465436	0.000730	7.300900	2.473612	0.000292
1938	1.9273e+02	-2.8363	-31.239356	0.000568	5.678478	1.923920	0.000227
1939	1.9283e+02	-2.7849	-30.980980	0.000649	6.489689	2.198766	0.000260
1940	1.9293e+02	-2.7513	-30.714529	0.000669	6.692492	2.267478	0.000268
1941	1.9303e+02	-2.7160	-30.476338	0.000598	5.982682	2.026988	0.000239
1942	1.9313e+02	-2.6759	-30.173553	0.000761	7.605105	2.576679	0.000304
1943	1.9323e+02	-2.6342	-29.955547	0.000548	5.475675	1.855209	0.000219
1944	1.9333e+02	-2.5908	-29.681022	0.000690	6.895295	2.336189	0.000276
1945	1.9343e+02	-2.5475	-29.410534	0.000679	6.793893	2.301833	0.000272
1946	1.9353e+02	-2.5106	-29.180417	0.000578	5.779879	1.958276	0.000231
1947	1.9363e+02	-2.4721	-28.942226	0.000598	5.982682	2.026988	0.000239
1948	1.9373e+02	-2.4384	-28.663664	0.000700	6.996696	2.370545	0.000280
1949	1.9383e+02	-2.3967	-28.336656	0.000821	8.213513	2.782813	0.000329
1950	1.9393e+02	-2.3582	-28.122688	0.000537	5.374274	1.820853	0.000215
1951	1.9403e+02	-2.3021	-27.848162	0.000690	6.895295	2.336189	0.000276
1952	1.9412e+02	-2.2812	-27.614008	0.000588	5.881281	1.992632	0.000235
1953	1.9422e+02	-2.2347	-27.303149	0.000781	7.807907	2.645391	0.000312
1954	1.9432e+02	-2.1882	-27.044772	0.000649	6.489689	2.198766	0.000260
1955	1.9442e+02	-2.1513	-26.774284	0.000679	6.793893	2.301833	0.000272
1956	1.9452e+02	-2.1144	-26.495722	0.000700	6.996696	2.370545	0.000280
1957	1.9462e+02	-2.0743	-26.261568	0.000588	5.881281	1.992632	0.000235
1958	1.9472e+02	-2.0278	-26.035488	0.000568	5.678478	1.923920	0.000227
1959	1.9482e+02	-1.9876	-25.736740	0.000750	7.503703	2.542323	0.000300
1960	1.9492e+02	-1.9491	-25.494512	0.000608	6.084084	2.061343	0.000243
1961	1.9502e+02	-1.9203	-25.183653	0.000781	7.807907	2.645391	0.000312
1962	1.9512e+02	-1.8705	-24.945462	0.000598	5.982682	2.026988	0.000239
1963	1.9522e+02	-1.8401	-24.715345	0.000578	5.779879	1.958276	0.000231
1964	1.9532e+02	-1.7855	-24.392374	0.000811	8.112111	2.748458	0.000325
1965	1.9542e+02	-1.7470	-24.146109	0.000619	6.185485	2.095699	0.000248
1966	1.9552e+02	-1.7117	-23.895806	0.000629	6.286886	2.130055	0.000252
1967	1.9562e+02	-1.6620	-23.576873	0.000801	8.010710	2.714102	0.000321
1968	1.9572e+02	-1.6363	-23.370979	0.000517	5.171471	1.752142	0.000207
1969	1.9582e+02	-1.5978	-23.080305	0.000730	7.300900	2.473612	0.000292
1970	1.9592e+02	-1.5561	-22.809817	0.000679	6.793893	2.301833	0.000272
1971	1.9601e+02	-1.5192	-22.507032	0.000761	7.605105	2.576679	0.000304
1972	1.9611e+02	-1.4727	-22.236544	0.000679	6.793893	2.301833	0.000272
1973	1.9621e+02	-1.4406	-22.010464	0.000568	5.678478	1.923920	0.000227
1974	1.9631e+02	-1.3957	-21.699605	0.000781	7.807907	2.645391	0.000312
1975	1.9641e+02	-1.3636	-21.449302	0.000629	6.286886	2.130055	0.000252
1976	1.9651e+02	-1.3123	-21.170740	0.000700	6.996696	2.370545	0.000280
1977	1.9661e+02	-1.2850	-20.876029	0.000740	7.402302	2.507968	0.000296
1978	1.9671e+02	-1.2353	-20.585355	0.000730	7.300900	2.473612	0.000292
1979	1.9681e+02	-1.2016	-20.347164	0.000598	5.982682	2.026988	0.000239
1980	1.9691e+02	-1.1583	-20.052453	0.000740	7.402302	2.507968	0.000296
1981	1.9701e+02	-1.1230	-19.798114	0.000639	6.388288	2.164410	0.000256
1982	1.9711e+02	-1.0780	-19.463031	0.000842	8.416316	2.851525	0.000337
1983	1.9721e+02	-1.0363	-19.245026	0.000548	5.475675	1.855209	0.000219
1984	1.9731e+02	-0.9994	-18.962427	0.000710	7.098098	2.404901	0.000284
1985	1.9741e+02	-0.9561	-18.667716	0.000740	7.402302	2.507968	0.000296
1986	1.9751e+02	-0.9112	-18.393190	0.000690	6.895295	2.336189	0.000276
1987	1.9761e+02	-0.8759	-18.098480	0.000740	7.402302	2.507968	0.000296
1988	1.9771e+02	-0.8422	-17.832029	0.000669	6.692492	2.267478	0.000268
1989	1.9781e+02	-0.8021	-17.569615	0.000659	6.591091	2.233122	0.000264
1990	1.9791e+02	-0.7620	-17.262792	0.000771	7.706506	2.611035	0.000308
1991	1.9800e+02	-0.7171	-16.992304	0.000679	6.793893	2.301833	0.000272
1992	1.9810e+02	-0.6802	-16.717779	0.000690	6.895295	2.336189	0.000276
1993	1.9820e+02	-0.6465	-16.459402	0.000649	6.489689	2.198766	0.000260
1994	1.9830e+02	-0.5968	-16.156617	0.000761	7.605105	2.576679	0.000304
1995	1.9840e+02	-0.5663	-15.865943	0.000730	7.300900	2.473612	0.000292
1996	1.9850e+02	-0.5182	-15.607567	0.000649	6.489689	2.198766	0.000260
1997	1.9860e+02	-0.4797	-15.320930	0.000720	7.199499	2.439256	0.000288
1998	1.9870e+02	-0.4380	-15.018145	0.000761	7.605105	2.576679	0.000304
1999	1.9880e+02	-0.3995	-14.751694	0.000669	6.692492	2.267478	0.000268
2000	1.9890e+02	-0.3545	-14.452946	0.000750	7.503703	2.542323	0.000300
2001	1.9900e+02	-0.3257	-14.162272	0.000730	7.300900	2.473612	0.000292
2002	1.9910e+02	-0.2823	-13.891784	0.000679	6.793893	2.301833	0.000272
2003	1.9920e+02	-0.2374	-13.621296	0.000679	6.793893	2.301833	0.000272
2004	1.9930e+02	-0.1989	-13.326585	0.000740	7.402302	2.507968	0.000296
2005	1.9940e+02	-0.1636	-13.043986	0.000710	7.098098	2.404901	0.000284
2006	1.9950e+02	-0.1283	-12.753312	0.000730	7.300900	2.473612	0.000292
2007	1.9960e+02	-0.0834	-12.458601	0.000740	7.402302	2.507968	0.000296
2008	1.9970e+02	-0.0449	-12.192150	0.000669	6.692492	2.267478	0.000268
2009	1.9980e+02	-0.0128	-11.873216	0.000669	6.692492	2.267478	0.000321

Center data before PMax,+/-Pr and +/-Vc Calc.

PMax (uC/cm2):	1.09e+02
Pr (uC/cm2):	5.75e+00
-Pr (uC/cm2):	-1.19e+01
PLoss (uC/cm2):	-5.16e+00
Vc:	1.04e+00
-Vc:	-7.88e-01
C (Max-Eff) (nF):	5.48e-01
K (Eff):	1.86e+03
Vert. (+/-Pr) Shift (uC/cm2):	-3.06e+00
Horiz. Shift (+/-Vc):	1.25e-01
Offset (uC/cm2):	6.69e+00

A (Loop Area - uC/cm2·Volts):	-4.94e-02



Hysteresis Version: 5.48.1 - Radiant Technologies, Inc., 1999 - 9/12/24

