»»»»»»»»»»»»»»»»»»»»»»»»»»»»»»»»»»»» Hysteresis ««««««««««««««««««««««««««««««««««««
»»»  Executed Version:	5.48.1
»»»  Vision Version:	5.48.4 (R)
»»»  Vision Compiled:	9/18/24
»»»  Driver Version:	5.47.0
»»»  Windows Version:	Windows 8 or 8.1
»»»  Processor Information:	x86 (AMD or Intel) - 32 Processors
»»»  Tester Name:	PMF21124-494 (100V)
»»»  Tester S/N:	PMF21124-494
»»»  Internal Amp Type:	100V RevK 270k
»»»  Internal Amp S/N:	iAB2-596/K     
»»»  Execution Count:	1
»»»»»»»»»»»»»»»»»»»»»»»»»»»»»»»»»»»»»»»»»»««««««««««««««««««««««««««««««««««««««««««

Stored:	6/4/2025 - 15:16:29
Configured:	06/04/25 01:46:06 PM
Executed:	06/04/25 03:15:40 PM

»»»»»»»»»»»»»»»»»»»»»»»»»»»»»»»»»»» Sample Info ««««««««««««««««««««««««««««««««««««
Sample Name:	
Lot Name:	
Wafer Name:	
Die Row/Column:	0/0
Capacitor Number:	0
Sample Area (cm2):	1.00e-04
Sample Thickness (microns):	3.00e-01

Amplifier:	Internal

»»»»»»»»»»»»»»»»»»»»»»»»»»»»»»»»»»» Tester Info «««««««««««««««««««««««««««««««««««
Tester Name:	PMF21124-494 (100V)
Tester Serial Number:	PMF21124-494
Return Signal Amp. Level:	0.19 [Index: 3]

»»»»»»»»»»»»»»»»»»»»»»»»»»»»»»»» Hysteresis Info ««««««««««««««««««««««««««««««««««
Task Name:	Hyst-37
Volts:	20.00
Field:	666.67 (kV/cm)
DCBias:	0.00
DCField:	0.00 (kV/cm)
Hysteresis Period (ms):	2.00e+02
Preset:	Enabled
Preset Delay (ms):	1.00e+03
Profile:	Standard Bipolar

»»»»»»»»»»»»»»»»»»»»»»»»»»»»»»»»»»»»»» Data «««««««««««««««««««««««««««««««««««««««
Points:	2009

Valid Data

Point	Time (ms)	Drive Voltage	Measured Polarization (uC/cm2)	Capacitance (uF)	Normalized Capacitance (uF/cm2)	Dielectric Constant	Instantaneous Current (mA)
   1	0.0000e+00	-0.0080	-6.077908	0.000567	5.673583	1.922262	0.000227
   2	9.9500e-02	0.0305	-5.851828	0.000567	5.673583	1.922262	0.000227
   3	1.9900e-01	0.0722	-5.613637	0.000598	5.977524	2.025240	0.000239
   4	2.9850e-01	0.1075	-5.302778	0.000780	7.801176	2.643110	0.000312
   5	3.9800e-01	0.1492	-5.080735	0.000557	5.572269	1.887936	0.000223
   6	4.9750e-01	0.1925	-4.806210	0.000689	6.889350	2.334175	0.000276
   7	5.9700e-01	0.2326	-4.531685	0.000689	6.889350	2.334175	0.000276
   8	6.9650e-01	0.2743	-4.265234	0.000669	6.686722	2.265523	0.000268
   9	7.9600e-01	0.3048	-4.002820	0.000659	6.585408	2.231197	0.000264
  10	8.9550e-01	0.3497	-3.683886	0.000800	8.003804	2.711762	0.000321
  11	9.9500e-01	0.3898	-3.417435	0.000669	6.686722	2.265523	0.000268
  12	1.0945e+00	0.4299	-3.150984	0.000669	6.686722	2.265523	0.000268
  13	1.1940e+00	0.4749	-2.864348	0.000719	7.193292	2.437153	0.000288
  14	1.2935e+00	0.5037	-2.597897	0.000669	6.686722	2.265523	0.000268
  15	1.3930e+00	0.5503	-2.327409	0.000679	6.788036	2.299849	0.000272
  16	1.4925e+00	0.5855	-2.056921	0.000679	6.788036	2.299849	0.000272
  17	1.5920e+00	0.6369	-1.737987	0.000800	8.003804	2.711762	0.000321
  18	1.6915e+00	0.6658	-1.443276	0.000740	7.395920	2.505806	0.000296
  19	1.7910e+00	0.7027	-1.172788	0.000679	6.788036	2.299849	0.000272
  20	1.8905e+00	0.7444	-0.865966	0.000770	7.699862	2.608784	0.000308
  21	1.9900e+00	0.7861	-0.583366	0.000709	7.091978	2.402827	0.000284
  22	2.0895e+00	0.8310	-0.333064	0.000628	6.281466	2.128218	0.000252
  23	2.1890e+00	0.8647	-0.066613	0.000669	6.686722	2.265523	0.000268
  24	2.2885e+00	0.9112	0.240210	0.000770	7.699862	2.608784	0.000308
  25	2.3880e+00	0.9481	0.526846	0.000719	7.193292	2.437153	0.000288
  26	2.4875e+00	0.9834	0.845780	0.000800	8.003804	2.711762	0.000321
  27	2.5870e+00	1.0331	1.067822	0.000557	5.572269	1.887936	0.000223
  28	2.6865e+00	1.0716	1.362533	0.000740	7.395920	2.505806	0.000296
  29	2.7860e+00	1.0989	1.661281	0.000750	7.497234	2.540132	0.000300
  30	2.8855e+00	1.1518	1.960029	0.000750	7.497234	2.540132	0.000300
  31	2.9850e+00	1.1903	2.242629	0.000709	7.091978	2.402827	0.000284
  32	3.0845e+00	1.2256	2.553488	0.000780	7.801176	2.643110	0.000312
  33	3.1840e+00	1.2673	2.819939	0.000669	6.686722	2.265523	0.000268
  34	3.2835e+00	1.2978	3.078316	0.000648	6.484094	2.196871	0.000260
  35	3.3830e+00	1.3443	3.405324	0.000821	8.206432	2.780414	0.000329
  36	3.4825e+00	1.3845	3.671775	0.000669	6.686722	2.265523	0.000268
  37	3.5820e+00	1.4230	3.978597	0.000770	7.699862	2.608784	0.000308
  38	3.6815e+00	1.4550	4.273308	0.000740	7.395920	2.505806	0.000296
  39	3.7810e+00	1.5000	4.535722	0.000659	6.585408	2.231197	0.000264
  40	3.8805e+00	1.5449	4.862730	0.000821	8.206432	2.780414	0.000329
  41	3.9800e+00	1.5882	5.121107	0.000648	6.484094	2.196871	0.000260
  42	4.0795e+00	1.6219	5.391595	0.000679	6.788036	2.299849	0.000272
  43	4.1790e+00	1.6716	5.730714	0.000851	8.510374	2.883393	0.000341
  44	4.2785e+00	1.7037	5.968905	0.000598	5.977524	2.025240	0.000239
  45	4.3780e+00	1.7422	6.295913	0.000821	8.206432	2.780414	0.000329
  46	4.4775e+00	1.7791	6.542178	0.000618	6.180152	2.093892	0.000248
  47	4.5770e+00	1.8224	6.861112	0.000800	8.003804	2.711762	0.000321
  48	4.6765e+00	1.8657	7.200232	0.000851	8.510374	2.883393	0.000341
  49	4.7760e+00	1.9058	7.434385	0.000588	5.876210	1.990914	0.000235
  50	4.8755e+00	1.9459	7.737171	0.000760	7.598548	2.574458	0.000304
  51	4.9750e+00	1.9892	7.983436	0.000618	6.180152	2.093892	0.000248
  52	5.0745e+00	2.0213	8.326592	0.000861	8.611688	2.917719	0.000345
  53	5.1740e+00	2.0630	8.593043	0.000669	6.686722	2.265523	0.000268
  54	5.2735e+00	2.1064	8.859494	0.000669	6.686722	2.265523	0.000268
  55	5.3730e+00	2.1481	9.174391	0.000790	7.902490	2.677436	0.000316
  56	5.4725e+00	2.1882	9.465065	0.000729	7.294606	2.471479	0.000292
  57	5.5720e+00	2.2315	9.755739	0.000729	7.294606	2.471479	0.000292
  58	5.6715e+00	2.2668	10.082747	0.000821	8.206432	2.780414	0.000329
  59	5.7710e+00	2.3069	10.324975	0.000608	6.078838	2.059566	0.000243
  60	5.8705e+00	2.3454	10.647946	0.000811	8.105118	2.746088	0.000325
  61	5.9700e+00	2.3791	10.922471	0.000689	6.889350	2.334175	0.000276
  62	6.0695e+00	2.4256	11.225256	0.000760	7.598548	2.574458	0.000304
  63	6.1690e+00	2.4625	11.471521	0.000618	6.180152	2.093892	0.000248
  64	6.2685e+00	2.5010	11.786418	0.000790	7.902490	2.677436	0.000316
  65	6.3680e+00	2.5379	12.073054	0.000719	7.193292	2.437153	0.000288
  66	6.4675e+00	2.5860	12.391988	0.000800	8.003804	2.711762	0.000321
  67	6.5670e+00	2.6117	12.666513	0.000689	6.889350	2.334175	0.000276
  68	6.6665e+00	2.6566	12.973336	0.000770	7.699862	2.608784	0.000308
  69	6.7660e+00	2.7015	13.215564	0.000608	6.078838	2.059566	0.000243
  70	6.8655e+00	2.7432	13.514312	0.000750	7.497234	2.540132	0.000300
  71	6.9650e+00	2.7801	13.796911	0.000709	7.091978	2.402827	0.000284
  72	7.0645e+00	2.8251	14.127957	0.000831	8.307746	2.814740	0.000333
  73	7.1640e+00	2.8523	14.382296	0.000638	6.382780	2.162545	0.000256
  74	7.2635e+00	2.9037	14.725453	0.000861	8.611688	2.917719	0.000345
  75	7.3630e+00	2.9390	14.979792	0.000638	6.382780	2.162545	0.000256
  76	7.4625e+00	2.9871	15.258355	0.000699	6.990664	2.368501	0.000280
  77	7.5620e+00	3.0224	15.544991	0.000719	7.193292	2.437153	0.000288
  78	7.6615e+00	3.0513	15.863925	0.000800	8.003804	2.711762	0.000321
  79	7.7610e+00	3.0978	16.114227	0.000628	6.281466	2.128218	0.000252
  80	7.8605e+00	3.1427	16.445272	0.000831	8.307746	2.814740	0.000333
  81	7.9600e+00	3.1796	16.727872	0.000709	7.091978	2.402827	0.000284
  82	8.0595e+00	3.2149	16.978174	0.000628	6.281466	2.128218	0.000252
  83	8.1590e+00	3.2582	17.309219	0.000831	8.307746	2.814740	0.000333
  84	8.2585e+00	3.3031	17.575670	0.000669	6.686722	2.265523	0.000268
  85	8.3580e+00	3.3432	17.838084	0.000659	6.585408	2.231197	0.000264
  86	8.4575e+00	3.3817	18.148944	0.000780	7.801176	2.643110	0.000312
  87	8.5570e+00	3.4234	18.411358	0.000659	6.585408	2.231197	0.000264
  88	8.6565e+00	3.4684	18.718180	0.000770	7.699862	2.608784	0.000308
  89	8.7560e+00	3.4972	18.992705	0.000689	6.889350	2.334175	0.000276
  90	8.8555e+00	3.5438	19.271267	0.000699	6.990664	2.368501	0.000280
  91	8.9550e+00	3.5758	19.590201	0.000800	8.003804	2.711762	0.000321
  92	9.0545e+00	3.6159	19.856652	0.000669	6.686722	2.265523	0.000268
  93	9.1540e+00	3.6609	20.151363	0.000740	7.395920	2.505806	0.000296
  94	9.2535e+00	3.7010	20.442037	0.000729	7.294606	2.471479	0.000292
  95	9.3530e+00	3.7347	20.696376	0.000638	6.382780	2.162545	0.000256
  96	9.4525e+00	3.7812	21.007236	0.000780	7.801176	2.643110	0.000312
  97	9.5520e+00	3.8229	21.277724	0.000679	6.788036	2.299849	0.000272
  98	9.6515e+00	3.8486	21.532063	0.000638	6.382780	2.162545	0.000256
  99	9.7510e+00	3.9015	21.822737	0.000729	7.294606	2.471479	0.000292
 100	9.8505e+00	3.9464	22.141671	0.000800	8.003804	2.711762	0.000321
 101	9.9500e+00	3.9737	22.404085	0.000659	6.585408	2.231197	0.000264
 102	1.0050e+01	4.0202	22.662461	0.000648	6.484094	2.196871	0.000260
 103	1.0149e+01	4.0539	22.920838	0.000648	6.484094	2.196871	0.000260
 104	1.0248e+01	4.0956	23.219586	0.000750	7.497234	2.540132	0.000300
 105	1.0348e+01	4.1341	23.514297	0.000740	7.395920	2.505806	0.000296
 106	1.0447e+01	4.1822	23.780748	0.000669	6.686722	2.265523	0.000268
 107	1.0547e+01	4.2143	24.123905	0.000861	8.611688	2.917719	0.000345
 108	1.0646e+01	4.2528	24.337873	0.000537	5.369641	1.819283	0.000215
 109	1.0746e+01	4.2929	24.632584	0.000740	7.395920	2.505806	0.000296
 110	1.0845e+01	4.3394	24.911146	0.000699	6.990664	2.368501	0.000280
 111	1.0945e+01	4.3715	25.177597	0.000669	6.686722	2.265523	0.000268
 112	1.1044e+01	4.4165	25.440011	0.000659	6.585408	2.231197	0.000264
 113	1.1144e+01	4.4485	25.730685	0.000729	7.294606	2.471479	0.000292
 114	1.1243e+01	4.4967	26.005210	0.000689	6.889350	2.334175	0.000276
 115	1.1343e+01	4.5448	26.299921	0.000740	7.395920	2.505806	0.000296
 116	1.1443e+01	4.5769	26.602706	0.000760	7.598548	2.574458	0.000304
 117	1.1542e+01	4.6074	26.857045	0.000638	6.382780	2.162545	0.000256
 118	1.1642e+01	4.6555	27.115422	0.000648	6.484094	2.196871	0.000260
 119	1.1741e+01	4.6908	27.406096	0.000729	7.294606	2.471479	0.000292
 120	1.1841e+01	4.7485	27.692733	0.000719	7.193292	2.437153	0.000288
 121	1.1940e+01	4.7806	27.963221	0.000679	6.788036	2.299849	0.000272
 122	1.2040e+01	4.8175	28.221597	0.000648	6.484094	2.196871	0.000260
 123	1.2139e+01	4.8512	28.496123	0.000689	6.889350	2.334175	0.000276
 124	1.2239e+01	4.9057	28.774685	0.000699	6.990664	2.368501	0.000280
 125	1.2338e+01	4.9314	29.053247	0.000699	6.990664	2.368501	0.000280
 126	1.2438e+01	4.9779	29.347958	0.000740	7.395920	2.505806	0.000296
 127	1.2537e+01	5.0212	29.598261	0.000628	6.281466	2.128218	0.000252
 128	1.2636e+01	5.0630	29.888934	0.000729	7.294606	2.471479	0.000292
 129	1.2736e+01	5.0886	30.143274	0.000638	6.382780	2.162545	0.000256
 130	1.2835e+01	5.1335	30.425873	0.000709	7.091978	2.402827	0.000284
 131	1.2935e+01	5.1704	30.684250	0.000648	6.484094	2.196871	0.000260
 132	1.3034e+01	5.2122	30.938590	0.000638	6.382780	2.162545	0.000256
 133	1.3134e+01	5.2490	31.257523	0.000800	8.003804	2.711762	0.000321
 134	1.3233e+01	5.2908	31.528012	0.000679	6.788036	2.299849	0.000272
 135	1.3333e+01	5.3341	31.774277	0.000618	6.180152	2.093892	0.000248
 136	1.3432e+01	5.3742	32.024579	0.000628	6.281466	2.128218	0.000252
 137	1.3532e+01	5.4079	32.323327	0.000750	7.497234	2.540132	0.000300
 138	1.3632e+01	5.4512	32.581704	0.000648	6.484094	2.196871	0.000260
 139	1.3731e+01	5.4977	32.892563	0.000780	7.801176	2.643110	0.000312
 140	1.3831e+01	5.5314	33.199386	0.000770	7.699862	2.608784	0.000308
 141	1.3930e+01	5.5779	33.477948	0.000699	6.990664	2.368501	0.000280
 142	1.4030e+01	5.6132	33.671731	0.000486	4.863071	1.647653	0.000195
 143	1.4129e+01	5.6453	33.978553	0.000770	7.699862	2.608784	0.000308
 144	1.4229e+01	5.6854	34.220781	0.000608	6.078838	2.059566	0.000243
 145	1.4328e+01	5.7303	34.531641	0.000780	7.801176	2.643110	0.000312
 146	1.4428e+01	5.7752	34.753683	0.000557	5.572269	1.887936	0.000223
 147	1.4527e+01	5.8073	35.028208	0.000689	6.889350	2.334175	0.000276
 148	1.4627e+01	5.8474	35.270436	0.000608	6.078838	2.059566	0.000243
 149	1.4726e+01	5.8843	35.557073	0.000719	7.193292	2.437153	0.000288
 150	1.4825e+01	5.9292	35.803338	0.000618	6.180152	2.093892	0.000248
 151	1.4925e+01	5.9694	36.102086	0.000750	7.497234	2.540132	0.000300
 152	1.5024e+01	6.0095	36.344314	0.000608	6.078838	2.059566	0.000243
 153	1.5124e+01	6.0447	36.606728	0.000659	6.585408	2.231197	0.000264
 154	1.5223e+01	6.0897	36.852994	0.000618	6.180152	2.093892	0.000248
 155	1.5323e+01	6.1314	37.159816	0.000770	7.699862	2.608784	0.000308
 156	1.5422e+01	6.1699	37.410118	0.000628	6.281466	2.128218	0.000252
 157	1.5522e+01	6.2148	37.680606	0.000679	6.788036	2.299849	0.000272
 158	1.5621e+01	6.2453	37.934946	0.000638	6.382780	2.162545	0.000256
 159	1.5721e+01	6.2870	38.189286	0.000638	6.382780	2.162545	0.000256
 160	1.5820e+01	6.3303	38.423439	0.000588	5.876210	1.990914	0.000235
 161	1.5920e+01	6.3704	38.677779	0.000638	6.382780	2.162545	0.000256
 162	1.6020e+01	6.4073	38.964416	0.000719	7.193292	2.437153	0.000288
 163	1.6119e+01	6.4458	39.222792	0.000648	6.484094	2.196871	0.000260
 164	1.6218e+01	6.4795	39.448872	0.000567	5.673583	1.922262	0.000227
 165	1.6318e+01	6.5228	39.711286	0.000659	6.585408	2.231197	0.000264
 166	1.6418e+01	6.5693	39.993885	0.000709	7.091978	2.402827	0.000284
 167	1.6517e+01	6.6078	40.244188	0.000628	6.281466	2.128218	0.000252
 168	1.6616e+01	6.6447	40.458156	0.000537	5.369641	1.819283	0.000215
 169	1.6716e+01	6.6816	40.756904	0.000750	7.497234	2.540132	0.000300
 170	1.6816e+01	6.7249	41.015281	0.000648	6.484094	2.196871	0.000260
 171	1.6915e+01	6.7650	41.273657	0.000648	6.484094	2.196871	0.000260
 172	1.7015e+01	6.8036	41.540108	0.000669	6.686722	2.265523	0.000268
 173	1.7114e+01	6.8324	41.770225	0.000577	5.774896	1.956588	0.000231
 174	1.7213e+01	6.8918	42.060899	0.000729	7.294606	2.471479	0.000292
 175	1.7313e+01	6.9223	42.291015	0.000577	5.774896	1.956588	0.000231
 176	1.7413e+01	6.9688	42.549392	0.000648	6.484094	2.196871	0.000260
 177	1.7512e+01	6.9977	42.856214	0.000770	7.699862	2.608784	0.000308
 178	1.7611e+01	7.0490	43.066145	0.000527	5.268327	1.784957	0.000211
 179	1.7711e+01	7.0827	43.312411	0.000618	6.180152	2.093892	0.000248
 180	1.7811e+01	7.1276	43.538490	0.000567	5.673583	1.922262	0.000227
 181	1.7910e+01	7.1581	43.837238	0.000750	7.497234	2.540132	0.000300
 182	1.8009e+01	7.2014	44.055244	0.000547	5.470955	1.853610	0.000219
 183	1.8109e+01	7.2431	44.293435	0.000598	5.977524	2.025240	0.000239
 184	1.8209e+01	7.2784	44.604294	0.000780	7.801176	2.643110	0.000312
 185	1.8308e+01	7.3201	44.842485	0.000598	5.977524	2.025240	0.000239
 186	1.8407e+01	7.3634	45.072602	0.000577	5.774896	1.956588	0.000231
 187	1.8507e+01	7.4083	45.330979	0.000648	6.484094	2.196871	0.000260
 188	1.8607e+01	7.4356	45.561095	0.000577	5.774896	1.956588	0.000231
 189	1.8706e+01	7.4773	45.843695	0.000709	7.091978	2.402827	0.000284
 190	1.8805e+01	7.5271	46.069774	0.000567	5.673583	1.922262	0.000227
 191	1.8905e+01	7.5656	46.364485	0.000740	7.395920	2.505806	0.000296
 192	1.9005e+01	7.5993	46.594602	0.000577	5.774896	1.956588	0.000231
 193	1.9104e+01	7.6345	46.836830	0.000608	6.078838	2.059566	0.000243
 194	1.9203e+01	7.6763	47.087133	0.000628	6.281466	2.128218	0.000252
 195	1.9303e+01	7.7180	47.325324	0.000598	5.977524	2.025240	0.000239
 196	1.9402e+01	7.7581	47.583700	0.000648	6.484094	2.196871	0.000260
 197	1.9502e+01	7.8030	47.842077	0.000648	6.484094	2.196871	0.000260
 198	1.9602e+01	7.8399	48.084305	0.000608	6.078838	2.059566	0.000243
 199	1.9701e+01	7.8736	48.350756	0.000669	6.686722	2.265523	0.000268
 200	1.9800e+01	7.9217	48.548576	0.000496	4.964385	1.681979	0.000199
 201	1.9900e+01	7.9570	48.802915	0.000638	6.382780	2.162545	0.000256
 202	2.0000e+01	8.0019	49.024958	0.000557	5.572269	1.887936	0.000223
 203	2.0099e+01	8.0468	49.307557	0.000709	7.091978	2.402827	0.000284
 204	2.0198e+01	8.0661	49.517488	0.000527	5.268327	1.784957	0.000211
 205	2.0298e+01	8.1126	49.767791	0.000628	6.281466	2.128218	0.000252
 206	2.0398e+01	8.1639	50.022130	0.000638	6.382780	2.162545	0.000256
 207	2.0497e+01	8.1992	50.256284	0.000588	5.876210	1.990914	0.000235
 208	2.0596e+01	8.2425	50.502550	0.000618	6.180152	2.093892	0.000248
 209	2.0696e+01	8.2762	50.736703	0.000588	5.876210	1.990914	0.000235
 210	2.0796e+01	8.3196	50.995080	0.000648	6.484094	2.196871	0.000260
 211	2.0895e+01	8.3564	51.188863	0.000486	4.863071	1.647653	0.000195
 212	2.0994e+01	8.3982	51.487611	0.000750	7.497234	2.540132	0.000300
 213	2.1094e+01	8.4383	51.725802	0.000598	5.977524	2.025240	0.000239
 214	2.1194e+01	8.4800	51.959956	0.000588	5.876210	1.990914	0.000235
 215	2.1293e+01	8.5217	52.194109	0.000588	5.876210	1.990914	0.000235
 216	2.1392e+01	8.5650	52.420189	0.000567	5.673583	1.922262	0.000227
 217	2.1492e+01	8.5971	52.666454	0.000618	6.180152	2.093892	0.000248
 218	2.1591e+01	8.6452	52.884460	0.000547	5.470955	1.853610	0.000219
 219	2.1691e+01	8.6693	53.138799	0.000638	6.382780	2.162545	0.000256
 220	2.1791e+01	8.7238	53.405250	0.000669	6.686722	2.265523	0.000268
 221	2.1890e+01	8.7607	53.603070	0.000496	4.964385	1.681979	0.000199
 222	2.1989e+01	8.7928	53.845298	0.000608	6.078838	2.059566	0.000243
 223	2.2089e+01	8.8409	54.063303	0.000547	5.470955	1.853610	0.000219
 224	2.2189e+01	8.8842	54.317643	0.000638	6.382780	2.162545	0.000256
 225	2.2288e+01	8.9195	54.563908	0.000618	6.180152	2.093892	0.000248
 226	2.2387e+01	8.9580	54.769802	0.000517	5.167013	1.750631	0.000207
 227	2.2487e+01	8.9853	55.024142	0.000638	6.382780	2.162545	0.000256
 228	2.2587e+01	9.0350	55.282518	0.000648	6.484094	2.196871	0.000260
 229	2.2686e+01	9.0751	55.480338	0.000496	4.964385	1.681979	0.000199
 230	2.2785e+01	9.1120	55.734677	0.000638	6.382780	2.162545	0.000256
 231	2.2885e+01	9.1505	55.908274	0.000436	4.356501	1.476022	0.000174
 232	2.2985e+01	9.2019	56.190874	0.000709	7.091978	2.402827	0.000284
 233	2.3084e+01	9.2324	56.420991	0.000577	5.774896	1.956588	0.000231
 234	2.3183e+01	9.2725	56.675330	0.000638	6.382780	2.162545	0.000256
 235	2.3283e+01	9.3110	56.897373	0.000557	5.572269	1.887936	0.000223
 236	2.3383e+01	9.3463	57.123452	0.000567	5.673583	1.922262	0.000227
 237	2.3482e+01	9.3960	57.357606	0.000588	5.876210	1.990914	0.000235
 238	2.3581e+01	9.4393	57.599834	0.000608	6.078838	2.059566	0.000243
 239	2.3681e+01	9.4730	57.821877	0.000557	5.572269	1.887936	0.000223
 240	2.3780e+01	9.5083	58.096402	0.000689	6.889350	2.334175	0.000276
 241	2.3880e+01	9.5516	58.318444	0.000557	5.572269	1.887936	0.000223
 242	2.3980e+01	9.5885	58.532412	0.000537	5.369641	1.819283	0.000215
 243	2.4079e+01	9.6382	58.790789	0.000648	6.484094	2.196871	0.000260
 244	2.4178e+01	9.6767	59.008795	0.000547	5.470955	1.853610	0.000219
 245	2.4278e+01	9.7072	59.234874	0.000567	5.673583	1.922262	0.000227
 246	2.4378e+01	9.7489	59.460954	0.000567	5.673583	1.922262	0.000227
 247	2.4477e+01	9.7858	59.674922	0.000537	5.369641	1.819283	0.000215
 248	2.4576e+01	9.8323	59.941373	0.000669	6.686722	2.265523	0.000268
 249	2.4676e+01	9.8741	60.171490	0.000577	5.774896	1.956588	0.000231
 250	2.4776e+01	9.9142	60.365272	0.000486	4.863071	1.647653	0.000195
 251	2.4875e+01	9.9559	60.631723	0.000669	6.686722	2.265523	0.000268
 252	2.4974e+01	9.9928	60.817431	0.000466	4.660443	1.579001	0.000187
 253	2.5074e+01	10.0297	61.055622	0.000598	5.977524	2.025240	0.000239
 254	2.5174e+01	10.0682	61.289776	0.000588	5.876210	1.990914	0.000235
 255	2.5273e+01	10.1131	61.544116	0.000638	6.382780	2.162545	0.000256
 256	2.5372e+01	10.1612	61.745973	0.000507	5.065699	1.716305	0.000203
 257	2.5472e+01	10.1981	61.968015	0.000557	5.572269	1.887936	0.000223
 258	2.5572e+01	10.2286	62.230429	0.000659	6.585408	2.231197	0.000264
 259	2.5671e+01	10.2671	62.420174	0.000476	4.761757	1.613327	0.000191
 260	2.5770e+01	10.3120	62.690662	0.000679	6.788036	2.299849	0.000272
 261	2.5870e+01	10.3473	62.904631	0.000537	5.369641	1.819283	0.000215
 262	2.5970e+01	10.3906	63.142822	0.000598	5.977524	2.025240	0.000239
 263	2.6069e+01	10.4291	63.328530	0.000466	4.660443	1.579001	0.000187
 264	2.6169e+01	10.4724	63.574795	0.000618	6.180152	2.093892	0.000248
 265	2.6268e+01	10.5093	63.796838	0.000557	5.572269	1.887936	0.000223
 266	2.6367e+01	10.5494	64.030991	0.000588	5.876210	1.990914	0.000235
 267	2.6467e+01	10.5879	64.261108	0.000577	5.774896	1.956588	0.000231
 268	2.6567e+01	10.6329	64.487188	0.000567	5.673583	1.922262	0.000227
 269	2.6666e+01	10.6665	64.729416	0.000608	6.078838	2.059566	0.000243
 270	2.6765e+01	10.7099	64.927236	0.000496	4.964385	1.681979	0.000199
 271	2.6865e+01	10.7484	65.149278	0.000557	5.572269	1.887936	0.000223
 272	2.6965e+01	10.7997	65.334986	0.000466	4.660443	1.579001	0.000187
 273	2.7064e+01	10.8238	65.621623	0.000719	7.193292	2.437153	0.000288
 274	2.7163e+01	10.8735	65.819443	0.000496	4.964385	1.681979	0.000199
 275	2.7263e+01	10.9040	66.053596	0.000588	5.876210	1.990914	0.000235
 276	2.7363e+01	10.9521	66.299862	0.000618	6.180152	2.093892	0.000248
 277	2.7462e+01	10.9858	66.477496	0.000446	4.457815	1.510349	0.000179
 278	2.7561e+01	11.0227	66.739909	0.000659	6.585408	2.231197	0.000264
 279	2.7661e+01	11.0772	66.961952	0.000557	5.572269	1.887936	0.000223
 280	2.7761e+01	11.1173	67.208217	0.000618	6.180152	2.093892	0.000248
 281	2.7860e+01	11.1462	67.397963	0.000476	4.761757	1.613327	0.000191
 282	2.7959e+01	11.1895	67.624042	0.000567	5.673583	1.922262	0.000227
 283	2.8059e+01	11.2360	67.862233	0.000598	5.977524	2.025240	0.000239
 284	2.8159e+01	11.2729	68.076201	0.000537	5.369641	1.819283	0.000215
 285	2.8258e+01	11.3098	68.306318	0.000577	5.774896	1.956588	0.000231
 286	2.8358e+01	11.3467	68.524323	0.000547	5.470955	1.853610	0.000219
 287	2.8457e+01	11.3933	68.746366	0.000557	5.572269	1.887936	0.000223
 288	2.8556e+01	11.4286	68.944186	0.000496	4.964385	1.681979	0.000199
 289	2.8656e+01	11.4735	69.194488	0.000628	6.281466	2.128218	0.000252
 290	2.8756e+01	11.5072	69.416530	0.000557	5.572269	1.887936	0.000223
 291	2.8855e+01	11.5489	69.658759	0.000608	6.078838	2.059566	0.000243
 292	2.8954e+01	11.5874	69.828318	0.000426	4.255187	1.441696	0.000170
 293	2.9054e+01	11.6291	70.106881	0.000699	6.990664	2.368501	0.000280
 294	2.9154e+01	11.6676	70.320849	0.000537	5.369641	1.819283	0.000215
 295	2.9253e+01	11.7013	70.538854	0.000547	5.470955	1.853610	0.000219
 296	2.9352e+01	11.7574	70.728600	0.000476	4.761757	1.613327	0.000191
 297	2.9452e+01	11.7783	70.986976	0.000648	6.484094	2.196871	0.000260
 298	2.9552e+01	11.8280	71.192870	0.000517	5.167013	1.750631	0.000207
 299	2.9651e+01	11.8633	71.463358	0.000679	6.788036	2.299849	0.000272
 300	2.9750e+01	11.9082	71.649067	0.000466	4.660443	1.579001	0.000187
 301	2.9850e+01	11.9387	71.858998	0.000527	5.268327	1.784957	0.000211
 302	2.9950e+01	11.9740	72.085077	0.000567	5.673583	1.922262	0.000227
 303	3.0049e+01	12.0317	72.311157	0.000567	5.673583	1.922262	0.000227
 304	3.0148e+01	12.0558	72.545311	0.000588	5.876210	1.990914	0.000235
 305	3.0248e+01	12.1023	72.726982	0.000456	4.559129	1.544675	0.000183
 306	3.0348e+01	12.1505	73.001507	0.000689	6.889350	2.334175	0.000276
 307	3.0447e+01	12.1906	73.211438	0.000527	5.268327	1.784957	0.000211
 308	3.0547e+01	12.2259	73.417332	0.000517	5.167013	1.750631	0.000207
 309	3.0646e+01	12.2612	73.663597	0.000618	6.180152	2.093892	0.000248
 310	3.0745e+01	12.3125	73.853343	0.000476	4.761757	1.613327	0.000191
 311	3.0845e+01	12.3446	74.079422	0.000567	5.673583	1.922262	0.000227
 312	3.0945e+01	12.3767	74.305502	0.000567	5.673583	1.922262	0.000227
 313	3.1044e+01	12.4264	74.543693	0.000598	5.977524	2.025240	0.000239
 314	3.1143e+01	12.4745	74.757661	0.000537	5.369641	1.819283	0.000215
 315	3.1243e+01	12.5066	74.955481	0.000496	4.964385	1.681979	0.000199
 316	3.1343e+01	12.5339	75.181560	0.000567	5.673583	1.922262	0.000227
 317	3.1442e+01	12.5868	75.403603	0.000557	5.572269	1.887936	0.000223
 318	3.1541e+01	12.6125	75.629682	0.000567	5.673583	1.922262	0.000227
 319	3.1641e+01	12.6670	75.787131	0.000395	3.951245	1.338718	0.000158
 320	3.1741e+01	12.6975	76.025322	0.000598	5.977524	2.025240	0.000239
 321	3.1840e+01	12.7328	76.255438	0.000577	5.774896	1.956588	0.000231
 322	3.1939e+01	12.7889	76.477481	0.000557	5.572269	1.887936	0.000223
 323	3.2039e+01	12.8226	76.643003	0.000415	4.153873	1.407370	0.000166
 324	3.2139e+01	12.8659	76.897343	0.000638	6.382780	2.162545	0.000256
 325	3.2238e+01	12.9077	77.123423	0.000567	5.673583	1.922262	0.000227
 326	3.2337e+01	12.9381	77.329316	0.000517	5.167013	1.750631	0.000207
 327	3.2437e+01	12.9718	77.547322	0.000547	5.470955	1.853610	0.000219
 328	3.2536e+01	13.0200	77.712844	0.000415	4.153873	1.407370	0.000166
 329	3.2636e+01	13.0569	77.955073	0.000608	6.078838	2.059566	0.000243
 330	3.2736e+01	13.0970	78.156929	0.000507	5.065699	1.716305	0.000203
 331	3.2835e+01	13.1403	78.362823	0.000517	5.167013	1.750631	0.000207
 332	3.2934e+01	13.1740	78.564680	0.000507	5.065699	1.716305	0.000203
 333	3.3034e+01	13.2205	78.778648	0.000537	5.369641	1.819283	0.000215
 334	3.3133e+01	13.2638	79.061248	0.000709	7.091978	2.402827	0.000284
 335	3.3233e+01	13.2975	79.226770	0.000415	4.153873	1.407370	0.000166
 336	3.3333e+01	13.3424	79.440738	0.000537	5.369641	1.819283	0.000215
 337	3.3432e+01	13.3825	79.650670	0.000527	5.268327	1.784957	0.000211
 338	3.3532e+01	13.4146	79.880786	0.000577	5.774896	1.956588	0.000231
 339	3.3631e+01	13.4499	80.058420	0.000446	4.457815	1.510349	0.000179
 340	3.3730e+01	13.5012	80.312760	0.000638	6.382780	2.162545	0.000256
 341	3.3830e+01	13.5365	80.554988	0.000608	6.078838	2.059566	0.000243
 342	3.3929e+01	13.5782	80.728585	0.000436	4.356501	1.476022	0.000174
 343	3.4029e+01	13.6199	80.930442	0.000507	5.065699	1.716305	0.000203
 344	3.4129e+01	13.6568	81.144410	0.000537	5.369641	1.819283	0.000215
 345	3.4228e+01	13.7018	81.334155	0.000476	4.761757	1.613327	0.000191
 346	3.4328e+01	13.7419	81.576383	0.000608	6.078838	2.059566	0.000243
 347	3.4427e+01	13.7772	81.786314	0.000527	5.268327	1.784957	0.000211
 348	3.4526e+01	13.8157	81.980097	0.000486	4.863071	1.647653	0.000195
 349	3.4626e+01	13.8558	82.210214	0.000577	5.774896	1.956588	0.000231
 350	3.4725e+01	13.8943	82.408033	0.000496	4.964385	1.681979	0.000199
 351	3.4825e+01	13.9456	82.617964	0.000527	5.268327	1.784957	0.000211
 352	3.4925e+01	13.9745	82.807710	0.000476	4.761757	1.613327	0.000191
 353	3.5024e+01	14.0194	83.049938	0.000608	6.078838	2.059566	0.000243
 354	3.5123e+01	14.0499	83.235646	0.000466	4.660443	1.579001	0.000187
 355	3.5223e+01	14.0884	83.421354	0.000466	4.660443	1.579001	0.000187
 356	3.5322e+01	14.1285	83.643397	0.000557	5.572269	1.887936	0.000223
 357	3.5422e+01	14.1766	83.841216	0.000496	4.964385	1.681979	0.000199
 358	3.5522e+01	14.2071	84.079407	0.000598	5.977524	2.025240	0.000239
 359	3.5621e+01	14.2648	84.261079	0.000456	4.559129	1.544675	0.000183
 360	3.5721e+01	14.2921	84.475047	0.000537	5.369641	1.819283	0.000215
 361	3.5820e+01	14.3306	84.684978	0.000527	5.268327	1.784957	0.000211
 362	3.5919e+01	14.3819	84.862612	0.000446	4.457815	1.510349	0.000179
 363	3.6019e+01	14.4156	85.060431	0.000496	4.964385	1.681979	0.000199
 364	3.6118e+01	14.4541	85.298622	0.000598	5.977524	2.025240	0.000239
 365	3.6218e+01	14.4910	85.504516	0.000517	5.167013	1.750631	0.000207
 366	3.6318e+01	14.5360	85.678113	0.000436	4.356501	1.476022	0.000174
 367	3.6417e+01	14.5729	85.884007	0.000517	5.167013	1.750631	0.000207
 368	3.6517e+01	14.6146	86.081827	0.000496	4.964385	1.681979	0.000199
 369	3.6616e+01	14.6547	86.275609	0.000486	4.863071	1.647653	0.000195
 370	3.6715e+01	14.6948	86.521875	0.000618	6.180152	2.093892	0.000248
 371	3.6815e+01	14.7381	86.719694	0.000496	4.964385	1.681979	0.000199
 372	3.6914e+01	14.7702	86.929625	0.000527	5.268327	1.784957	0.000211
 373	3.7014e+01	14.8087	87.135519	0.000517	5.167013	1.750631	0.000207
 374	3.7114e+01	14.8488	87.341413	0.000517	5.167013	1.750631	0.000207
 375	3.7213e+01	14.8905	87.547307	0.000517	5.167013	1.750631	0.000207
 376	3.7313e+01	14.9258	87.745127	0.000496	4.964385	1.681979	0.000199
 377	3.7412e+01	14.9707	87.930835	0.000466	4.660443	1.579001	0.000187
 378	3.7511e+01	15.0108	88.120580	0.000476	4.761757	1.613327	0.000191
 379	3.7611e+01	15.0493	88.298214	0.000446	4.457815	1.510349	0.000179
 380	3.7711e+01	15.0862	88.516220	0.000547	5.470955	1.853610	0.000219
 381	3.7810e+01	15.1440	88.722114	0.000517	5.167013	1.750631	0.000207
 382	3.7910e+01	15.1728	88.907822	0.000466	4.660443	1.579001	0.000187
 383	3.8009e+01	15.2210	89.113716	0.000517	5.167013	1.750631	0.000207
 384	3.8108e+01	15.2418	89.331721	0.000547	5.470955	1.853610	0.000219
 385	3.8208e+01	15.2819	89.497244	0.000415	4.153873	1.407370	0.000166
 386	3.8307e+01	15.3333	89.723323	0.000567	5.673583	1.922262	0.000227
 387	3.8407e+01	15.3734	89.929217	0.000517	5.167013	1.750631	0.000207
 388	3.8507e+01	15.4151	90.110888	0.000456	4.559129	1.544675	0.000183
 389	3.8606e+01	15.4600	90.292559	0.000456	4.559129	1.544675	0.000183
 390	3.8706e+01	15.4792	90.482305	0.000476	4.761757	1.613327	0.000191
 391	3.8805e+01	15.5354	90.692236	0.000527	5.268327	1.784957	0.000211
 392	3.8904e+01	15.5691	90.886018	0.000486	4.863071	1.647653	0.000195
 393	3.9004e+01	15.6092	91.104024	0.000547	5.470955	1.853610	0.000219
 394	3.9103e+01	15.6413	91.277620	0.000436	4.356501	1.476022	0.000174
 395	3.9203e+01	15.6894	91.479477	0.000507	5.065699	1.716305	0.000203
 396	3.9303e+01	15.7247	91.673260	0.000486	4.863071	1.647653	0.000195
 397	3.9402e+01	15.7744	91.867042	0.000486	4.863071	1.647653	0.000195
 398	3.9502e+01	15.8097	92.076973	0.000527	5.268327	1.784957	0.000211
 399	3.9601e+01	15.8530	92.270756	0.000486	4.863071	1.647653	0.000195
 400	3.9700e+01	15.8883	92.488761	0.000547	5.470955	1.853610	0.000219
 401	3.9800e+01	15.9252	92.698692	0.000527	5.268327	1.784957	0.000211
 402	3.9900e+01	15.9573	92.835955	0.000344	3.444675	1.167088	0.000138
 403	3.9999e+01	16.0102	93.041849	0.000517	5.167013	1.750631	0.000207
 404	4.0099e+01	16.0439	93.259854	0.000547	5.470955	1.853610	0.000219
 405	4.0198e+01	16.0856	93.477859	0.000547	5.470955	1.853610	0.000219
 406	4.0297e+01	16.1161	93.675679	0.000496	4.964385	1.681979	0.000199
 407	4.0397e+01	16.1691	93.853313	0.000446	4.457815	1.510349	0.000179
 408	4.0496e+01	16.2060	94.075356	0.000557	5.572269	1.887936	0.000223
 409	4.0596e+01	16.2445	94.236841	0.000405	4.052559	1.373044	0.000162
 410	4.0696e+01	16.2894	94.487143	0.000628	6.281466	2.128218	0.000252
 411	4.0795e+01	16.3215	94.656703	0.000426	4.255187	1.441696	0.000170
 412	4.0895e+01	16.3648	94.850486	0.000486	4.863071	1.647653	0.000195
 413	4.0994e+01	16.4097	95.028120	0.000446	4.457815	1.510349	0.000179
 414	4.1093e+01	16.4386	95.254199	0.000567	5.673583	1.922262	0.000227
 415	4.1193e+01	16.4883	95.423759	0.000426	4.255187	1.441696	0.000170
 416	4.1292e+01	16.5332	95.617541	0.000486	4.863071	1.647653	0.000195
 417	4.1392e+01	16.5701	95.803250	0.000466	4.660443	1.579001	0.000187
 418	4.1492e+01	16.6038	96.013181	0.000527	5.268327	1.784957	0.000211
 419	4.1591e+01	16.6439	96.186778	0.000436	4.356501	1.476022	0.000174
 420	4.1691e+01	16.6840	96.380560	0.000486	4.863071	1.647653	0.000195
 421	4.1790e+01	16.7241	96.590491	0.000527	5.268327	1.784957	0.000211
 422	4.1889e+01	16.7690	96.768125	0.000446	4.457815	1.510349	0.000179
 423	4.1989e+01	16.8075	96.974019	0.000517	5.167013	1.750631	0.000207
 424	4.2089e+01	16.8509	97.204136	0.000577	5.774896	1.956588	0.000231
 425	4.2188e+01	16.8942	97.361584	0.000395	3.951245	1.338718	0.000158
 426	4.2288e+01	16.9263	97.551329	0.000476	4.761757	1.613327	0.000191
 427	4.2387e+01	16.9664	97.773372	0.000557	5.572269	1.887936	0.000223
 428	4.2486e+01	17.0017	97.955043	0.000456	4.559129	1.544675	0.000183
 429	4.2586e+01	17.0370	98.160937	0.000517	5.167013	1.750631	0.000207
 430	4.2685e+01	17.0819	98.326459	0.000415	4.153873	1.407370	0.000166
 431	4.2785e+01	17.1268	98.564650	0.000598	5.977524	2.025240	0.000239
 432	4.2885e+01	17.1717	98.754396	0.000476	4.761757	1.613327	0.000191
 433	4.2984e+01	17.2022	98.927993	0.000436	4.356501	1.476022	0.000174
 434	4.3084e+01	17.2391	99.113701	0.000466	4.660443	1.579001	0.000187
 435	4.3183e+01	17.2824	99.315558	0.000507	5.065699	1.716305	0.000203
 436	4.3282e+01	17.3209	99.501266	0.000466	4.660443	1.579001	0.000187
 437	4.3382e+01	17.3706	99.678900	0.000446	4.457815	1.510349	0.000179
 438	4.3481e+01	17.4059	99.880757	0.000507	5.065699	1.716305	0.000203
 439	4.3581e+01	17.4412	100.082614	0.000507	5.065699	1.716305	0.000203
 440	4.3681e+01	17.4893	100.300619	0.000547	5.470955	1.853610	0.000219
 441	4.3780e+01	17.5182	100.498438	0.000496	4.964385	1.681979	0.000199
 442	4.3880e+01	17.5696	100.688184	0.000476	4.761757	1.613327	0.000191
 443	4.3979e+01	17.6065	100.865818	0.000446	4.457815	1.510349	0.000179
 444	4.4078e+01	17.6385	101.083823	0.000547	5.470955	1.853610	0.000219
 445	4.4178e+01	17.6851	101.277606	0.000486	4.863071	1.647653	0.000195
 446	4.4278e+01	17.7268	101.451203	0.000436	4.356501	1.476022	0.000174
 447	4.4377e+01	17.7556	101.665171	0.000537	5.369641	1.819283	0.000215
 448	4.4477e+01	17.8006	101.879139	0.000537	5.369641	1.819283	0.000215
 449	4.4576e+01	17.8359	102.089070	0.000527	5.268327	1.784957	0.000211
 450	4.4675e+01	17.8760	102.254593	0.000415	4.153873	1.407370	0.000166
 451	4.4775e+01	17.9177	102.448375	0.000486	4.863071	1.647653	0.000195
 452	4.4874e+01	17.9578	102.650232	0.000507	5.065699	1.716305	0.000203
 453	4.4974e+01	17.9979	102.823829	0.000436	4.356501	1.476022	0.000174
 454	4.5074e+01	18.0316	103.017611	0.000486	4.863071	1.647653	0.000195
 455	4.5173e+01	18.0765	103.199282	0.000456	4.559129	1.544675	0.000183
 456	4.5273e+01	18.1150	103.429399	0.000577	5.774896	1.956588	0.000231
 457	4.5372e+01	18.1615	103.623182	0.000486	4.863071	1.647653	0.000195
 458	4.5471e+01	18.2096	103.812927	0.000476	4.761757	1.613327	0.000191
 459	4.5571e+01	18.2337	104.055155	0.000608	6.078838	2.059566	0.000243
 460	4.5670e+01	18.2770	104.208566	0.000385	3.849931	1.304392	0.000154
 461	4.5770e+01	18.3203	104.426572	0.000547	5.470955	1.853610	0.000219
 462	4.5870e+01	18.3588	104.616317	0.000476	4.761757	1.613327	0.000191
 463	4.5969e+01	18.4006	104.838359	0.000557	5.572269	1.887936	0.000223
 464	4.6069e+01	18.4391	104.911028	0.000182	1.823652	0.617870	0.000073
 465	4.6168e+01	18.4824	105.213813	0.000760	7.598548	2.574458	0.000304
 466	4.6267e+01	18.5225	105.387410	0.000436	4.356501	1.476022	0.000174
 467	4.6367e+01	18.5530	105.561007	0.000436	4.356501	1.476022	0.000174
 468	4.6467e+01	18.5947	105.795161	0.000588	5.876210	1.990914	0.000235
 469	4.6566e+01	18.6348	106.021240	0.000567	5.673583	1.922262	0.000227
 470	4.6666e+01	18.6861	106.198874	0.000446	4.457815	1.510349	0.000179
 471	4.6765e+01	18.7214	106.384582	0.000466	4.660443	1.579001	0.000187
 472	4.6864e+01	18.7599	106.614699	0.000577	5.774896	1.956588	0.000231
 473	4.6964e+01	18.7952	106.792333	0.000446	4.457815	1.510349	0.000179
 474	4.7063e+01	18.8401	106.986116	0.000486	4.863071	1.647653	0.000195
 475	4.7163e+01	18.8818	107.167787	0.000456	4.559129	1.544675	0.000183
 476	4.7263e+01	18.9155	107.405978	0.000598	5.977524	2.025240	0.000239
 477	4.7362e+01	18.9492	107.551315	0.000365	3.647303	1.235740	0.000146
 478	4.7462e+01	18.9989	107.563426	0.000030	0.303942	0.102978	0.000012
 479	4.7561e+01	19.0342	107.531129	-0.000081	-0.810512	-0.274609	-0.000032
 480	4.7660e+01	19.0791	107.579575	0.000122	1.215768	0.411913	0.000049
 481	4.7760e+01	19.1192	107.599760	0.000051	0.506570	0.171631	0.000020
 482	4.7859e+01	19.1642	107.587649	-0.000030	-0.303942	-0.102978	-0.000012
 483	4.7959e+01	19.1946	107.623983	0.000091	0.911826	0.308935	0.000037
 484	4.8059e+01	19.2299	107.607835	-0.000041	-0.405256	-0.137304	-0.000016
 485	4.8158e+01	19.2813	107.672429	0.000162	1.621024	0.549218	0.000065
 486	4.8258e+01	19.3150	107.696652	0.000061	0.607884	0.205957	0.000024
 487	4.8357e+01	19.3551	107.708763	0.000030	0.303942	0.102978	0.000012
 488	4.8456e+01	19.4016	107.737023	0.000071	0.709198	0.240283	0.000028
 489	4.8556e+01	19.4353	107.801617	0.000162	1.621024	0.549218	0.000065
 490	4.8656e+01	19.4738	107.809691	0.000020	0.202628	0.068652	0.000008
 491	4.8755e+01	19.5123	107.850063	0.000101	1.013140	0.343261	0.000041
 492	4.8855e+01	19.5508	107.898508	0.000122	1.215768	0.411913	0.000049
 493	4.8954e+01	19.5957	107.942917	0.000111	1.114454	0.377587	0.000045
 494	4.9053e+01	19.6374	107.975214	0.000081	0.810512	0.274609	0.000032
 495	4.9153e+01	19.6695	108.039808	0.000162	1.621024	0.549218	0.000065
 496	4.9252e+01	19.7144	108.132662	0.000233	2.330221	0.789500	0.000093
 497	4.9352e+01	19.7481	108.136699	0.000010	0.101314	0.034326	0.000004
 498	4.9452e+01	19.7946	108.205331	0.000172	1.722338	0.583544	0.000069
 499	4.9551e+01	19.8331	108.261851	0.000142	1.418396	0.480565	0.000057
 500	4.9651e+01	19.8797	108.374890	0.000284	2.836791	0.961131	0.000114
 501	4.9750e+01	19.9085	108.399113	0.000061	0.607884	0.205957	0.000024
 502	4.9849e+01	19.9534	108.411225	0.000030	0.303942	0.102978	0.000012
 503	4.9949e+01	19.9936	108.544450	0.000334	3.343361	1.132761	0.000134
 504	5.0048e+01	19.9534	108.605007	-0.000152	-1.519710	-0.514892	0.000061
 505	5.0148e+01	19.9053	108.689787	-0.000213	-2.127593	-0.720848	0.000085
 506	5.0248e+01	19.8716	108.774567	-0.000213	-2.127593	-0.720848	0.000085
 507	5.0347e+01	19.8299	108.823012	-0.000122	-1.215768	-0.411913	0.000049
 508	5.0447e+01	19.7946	108.911829	-0.000223	-2.228907	-0.755174	0.000089
 509	5.0546e+01	19.7545	108.932015	-0.000051	-0.506570	-0.171631	0.000020
 510	5.0645e+01	19.6952	108.976424	-0.000111	-1.114454	-0.377587	0.000045
 511	5.0745e+01	19.6695	109.032943	-0.000142	-1.418396	-0.480565	0.000057
 512	5.0844e+01	19.6326	109.061203	-0.000071	-0.709198	-0.240283	0.000028
 513	5.0944e+01	19.5957	109.121760	-0.000152	-1.519710	-0.514892	0.000061
 514	5.1044e+01	19.5556	109.182317	-0.000152	-1.519710	-0.514892	0.000061
 515	5.1143e+01	19.5107	109.186355	-0.000010	-0.101314	-0.034326	0.000004
 516	5.1242e+01	19.4658	109.190392	-0.000010	-0.101314	-0.034326	0.000004
 517	5.1342e+01	19.4289	109.218652	-0.000071	-0.709198	-0.240283	0.000028
 518	5.1441e+01	19.3984	109.226726	-0.000020	-0.202628	-0.068652	0.000008
 519	5.1541e+01	19.3567	109.246912	-0.000051	-0.506570	-0.171631	0.000020
 520	5.1641e+01	19.3102	109.275172	-0.000071	-0.709198	-0.240283	0.000028
 521	5.1740e+01	19.2765	109.259023	0.000041	0.405256	0.137304	-0.000016
 522	5.1840e+01	19.2364	109.319580	-0.000152	-1.519710	-0.514892	0.000061
 523	5.1939e+01	19.2011	109.307469	0.000030	0.303942	0.102978	-0.000012
 524	5.2038e+01	19.1642	109.307469	-0.000000	-0.000000	-0.000000	0.000000
 525	5.2138e+01	19.1160	109.271134	0.000091	0.911826	0.308935	-0.000037
 526	5.2237e+01	19.0727	109.299394	-0.000071	-0.709198	-0.240283	0.000028
 527	5.2337e+01	19.0374	109.315543	-0.000041	-0.405256	-0.137304	0.000016
 528	5.2437e+01	18.9973	109.303432	0.000030	0.303942	0.102978	-0.000012
 529	5.2536e+01	18.9540	109.319580	-0.000041	-0.405256	-0.137304	0.000016
 530	5.2636e+01	18.9171	109.311506	0.000020	0.202628	0.068652	-0.000008
 531	5.2735e+01	18.8770	109.287283	0.000061	0.607884	0.205957	-0.000024
 532	5.2834e+01	18.8449	109.234800	0.000132	1.317082	0.446239	-0.000053
 533	5.2934e+01	18.7952	109.242875	-0.000020	-0.202628	-0.068652	0.000008
 534	5.3033e+01	18.7615	109.250949	-0.000020	-0.202628	-0.068652	0.000008
 535	5.3133e+01	18.7214	109.218652	0.000081	0.810512	0.274609	-0.000032
 536	5.3233e+01	18.6813	109.214615	0.000010	0.101314	0.034326	-0.000004
 537	5.3332e+01	18.6332	109.194429	0.000051	0.506570	0.171631	-0.000020
 538	5.3431e+01	18.6043	109.174243	0.000051	0.506570	0.171631	-0.000020
 539	5.3531e+01	18.5674	109.141946	0.000081	0.810512	0.274609	-0.000032
 540	5.3630e+01	18.5305	109.121760	0.000051	0.506570	0.171631	-0.000020
 541	5.3730e+01	18.4759	109.032943	0.000223	2.228907	0.755174	-0.000089
 542	5.3830e+01	18.4439	109.057166	-0.000061	-0.607884	-0.205957	0.000024
 543	5.3929e+01	18.4038	109.016795	0.000101	1.013140	0.343261	-0.000041
 544	5.4029e+01	18.3556	108.964312	0.000132	1.317082	0.446239	-0.000053
 545	5.4128e+01	18.3235	108.964312	-0.000000	-0.000000	-0.000000	0.000000
 546	5.4227e+01	18.2754	108.895681	0.000172	1.722338	0.583544	-0.000069
 547	5.4327e+01	18.2449	108.887607	0.000020	0.202628	0.068652	-0.000008
 548	5.4426e+01	18.1968	108.794752	0.000233	2.330221	0.789500	-0.000093
 549	5.4526e+01	18.1615	108.754381	0.000101	1.013140	0.343261	-0.000041
 550	5.4626e+01	18.1246	108.697861	0.000142	1.418396	0.480565	-0.000057
 551	5.4725e+01	18.0877	108.677675	0.000051	0.506570	0.171631	-0.000020
 552	5.4825e+01	18.0460	108.641341	0.000091	0.911826	0.308935	-0.000037
 553	5.4924e+01	17.9979	108.548487	0.000233	2.330221	0.789500	-0.000093
 554	5.5023e+01	17.9626	108.528301	0.000051	0.506570	0.171631	-0.000020
 555	5.5123e+01	17.9289	108.471782	0.000142	1.418396	0.480565	-0.000057
 556	5.5222e+01	17.8856	108.415262	0.000142	1.418396	0.480565	-0.000057
 557	5.5322e+01	17.8407	108.342593	0.000182	1.823652	0.617870	-0.000073
 558	5.5422e+01	17.8006	108.282036	0.000152	1.519710	0.514892	-0.000061
 559	5.5521e+01	17.7556	108.209368	0.000182	1.823652	0.617870	-0.000073
 560	5.5620e+01	17.7252	108.148811	0.000152	1.519710	0.514892	-0.000061
 561	5.5720e+01	17.6851	108.015585	0.000334	3.343361	1.132761	-0.000134
 562	5.5819e+01	17.6514	107.971177	0.000111	1.114454	0.377587	-0.000045
 563	5.5919e+01	17.5984	107.922731	0.000122	1.215768	0.411913	-0.000049
 564	5.6019e+01	17.5551	107.825840	0.000243	2.431535	0.823826	-0.000097
 565	5.6118e+01	17.5166	107.769320	0.000142	1.418396	0.480565	-0.000057
 566	5.6218e+01	17.4877	107.708763	0.000152	1.519710	0.514892	-0.000061
 567	5.6317e+01	17.4428	107.640132	0.000172	1.722338	0.583544	-0.000069
 568	5.6416e+01	17.4027	107.523055	0.000294	2.938105	0.995457	-0.000118
 569	5.6516e+01	17.3530	107.442312	0.000203	2.026279	0.686522	-0.000081
 570	5.6615e+01	17.3273	107.103193	0.000851	8.510374	2.883393	-0.000341
 571	5.6715e+01	17.2856	105.871866	0.003090	30.900762	10.469462	-0.001238
 572	5.6815e+01	17.2455	103.986524	0.004731	47.313626	16.030290	-0.001895
 573	5.6914e+01	17.1974	102.585638	0.003516	35.155949	11.911158	-0.001408
 574	5.7014e+01	17.1621	102.347447	0.000598	5.977524	2.025240	-0.000239
 575	5.7113e+01	17.1268	102.149627	0.000496	4.964385	1.681979	-0.000199
 576	5.7212e+01	17.0819	102.036587	0.000284	2.836791	0.961131	-0.000114
 577	5.7312e+01	17.0466	101.850879	0.000466	4.660443	1.579001	-0.000187
 578	5.7411e+01	16.9985	101.685356	0.000415	4.153873	1.407370	-0.000166
 579	5.7511e+01	16.9680	101.540020	0.000365	3.647303	1.235740	-0.000146
 580	5.7611e+01	16.9198	101.342200	0.000496	4.964385	1.681979	-0.000199
 581	5.7710e+01	16.8733	101.164566	0.000446	4.457815	1.510349	-0.000179
 582	5.7809e+01	16.8477	101.047489	0.000294	2.938105	0.995457	-0.000118
 583	5.7909e+01	16.8075	100.853706	0.000486	4.863071	1.647653	-0.000195
 584	5.8008e+01	16.7690	100.712407	0.000355	3.545989	1.201414	-0.000142
 585	5.8108e+01	16.7257	100.502476	0.000527	5.268327	1.784957	-0.000211
 586	5.8208e+01	16.6888	100.353102	0.000375	3.748617	1.270066	-0.000150
 587	5.8307e+01	16.6439	100.199690	0.000385	3.849931	1.304392	-0.000154
 588	5.8407e+01	16.6054	100.022056	0.000446	4.457815	1.510349	-0.000179
 589	5.8506e+01	16.5605	99.844423	0.000446	4.457815	1.510349	-0.000179
 590	5.8605e+01	16.5220	99.658714	0.000466	4.660443	1.579001	-0.000187
 591	5.8705e+01	16.4915	99.509340	0.000375	3.748617	1.270066	-0.000150
 592	5.8804e+01	16.4594	99.359966	0.000375	3.748617	1.270066	-0.000150
 593	5.8904e+01	16.4049	99.178295	0.000456	4.559129	1.544675	-0.000183
 594	5.9004e+01	16.3712	98.992587	0.000466	4.660443	1.579001	-0.000187
 595	5.9103e+01	16.3183	98.818990	0.000436	4.356501	1.476022	-0.000174
 596	5.9203e+01	16.2910	98.677690	0.000355	3.545989	1.201414	-0.000142
 597	5.9302e+01	16.2525	98.540428	0.000344	3.444675	1.167088	-0.000138
 598	5.9401e+01	16.2044	98.354719	0.000466	4.660443	1.579001	-0.000187
 599	5.9501e+01	16.1739	98.193234	0.000405	4.052559	1.373044	-0.000162
 600	5.9600e+01	16.1274	97.995414	0.000496	4.964385	1.681979	-0.000199
 601	5.9700e+01	16.0953	97.846040	0.000375	3.748617	1.270066	-0.000150
 602	5.9800e+01	16.0520	97.648221	0.000496	4.964385	1.681979	-0.000199
 603	5.9899e+01	16.0118	97.494810	0.000385	3.849931	1.304392	-0.000154
 604	5.9998e+01	15.9637	97.337361	0.000395	3.951245	1.338718	-0.000158
 605	6.0098e+01	15.9332	97.155690	0.000456	4.559129	1.544675	-0.000183
 606	6.0197e+01	15.8915	97.006316	0.000375	3.748617	1.270066	-0.000150
 607	6.0297e+01	15.8482	96.804459	0.000507	5.065699	1.716305	-0.000203
 608	6.0397e+01	15.8097	96.667197	0.000344	3.444675	1.167088	-0.000138
 609	6.0496e+01	15.7712	96.533971	0.000334	3.343361	1.132761	-0.000134
 610	6.0596e+01	15.7359	96.332114	0.000507	5.065699	1.716305	-0.000203
 611	6.0695e+01	15.6830	96.162555	0.000426	4.255187	1.441696	-0.000170
 612	6.0794e+01	15.6477	95.972809	0.000476	4.761757	1.613327	-0.000191
 613	6.0894e+01	15.6172	95.819398	0.000385	3.849931	1.304392	-0.000154
 614	6.0993e+01	15.5691	95.637727	0.000456	4.559129	1.544675	-0.000183
 615	6.1093e+01	15.5274	95.508539	0.000324	3.242047	1.098435	-0.000130
 616	6.1193e+01	15.4889	95.322830	0.000466	4.660443	1.579001	-0.000187
 617	6.1292e+01	15.4456	95.137122	0.000466	4.660443	1.579001	-0.000187
 618	6.1392e+01	15.4071	94.951414	0.000466	4.660443	1.579001	-0.000187
 619	6.1491e+01	15.3702	94.814151	0.000344	3.444675	1.167088	-0.000138
 620	6.1590e+01	15.3268	94.656703	0.000395	3.951245	1.338718	-0.000158
 621	6.1690e+01	15.2899	94.442735	0.000537	5.369641	1.819283	-0.000215
 622	6.1789e+01	15.2611	94.248952	0.000486	4.863071	1.647653	-0.000195
 623	6.1889e+01	15.2033	94.127838	0.000304	3.039419	1.029783	-0.000122
 624	6.1989e+01	15.1776	93.934056	0.000486	4.863071	1.647653	-0.000195
 625	6.2088e+01	15.1311	93.768533	0.000415	4.153873	1.407370	-0.000166
 626	6.2188e+01	15.0814	93.611085	0.000395	3.951245	1.338718	-0.000158
 627	6.2287e+01	15.0541	93.457674	0.000385	3.849931	1.304392	-0.000154
 628	6.2386e+01	15.0188	93.243706	0.000537	5.369641	1.819283	-0.000215
 629	6.2486e+01	14.9691	93.090294	0.000385	3.849931	1.304392	-0.000154
 630	6.2586e+01	14.9322	92.948995	0.000355	3.545989	1.201414	-0.000142
 631	6.2685e+01	14.8953	92.783472	0.000415	4.153873	1.407370	-0.000166
 632	6.2785e+01	14.8552	92.597764	0.000466	4.660443	1.579001	-0.000187
 633	6.2884e+01	14.8055	92.440316	0.000395	3.951245	1.338718	-0.000158
 634	6.2983e+01	14.7782	92.254607	0.000466	4.660443	1.579001	-0.000187
 635	6.3083e+01	14.7301	92.085048	0.000426	4.255187	1.441696	-0.000170
 636	6.3182e+01	14.6932	91.919525	0.000415	4.153873	1.407370	-0.000166
 637	6.3282e+01	14.6563	91.745928	0.000436	4.356501	1.476022	-0.000174
 638	6.3382e+01	14.6210	91.604628	0.000355	3.545989	1.201414	-0.000142
 639	6.3481e+01	14.5664	91.410846	0.000486	4.863071	1.647653	-0.000195
 640	6.3581e+01	14.5343	91.265509	0.000365	3.647303	1.235740	-0.000146
 641	6.3680e+01	14.4958	91.063652	0.000507	5.065699	1.716305	-0.000203
 642	6.3779e+01	14.4590	90.869870	0.000486	4.863071	1.647653	-0.000195
 643	6.3879e+01	14.4221	90.728570	0.000355	3.545989	1.201414	-0.000142
 644	6.3978e+01	14.3739	90.534787	0.000486	4.863071	1.647653	-0.000195
 645	6.4078e+01	14.3338	90.353116	0.000456	4.559129	1.544675	-0.000183
 646	6.4177e+01	14.2921	90.207779	0.000365	3.647303	1.235740	-0.000146
 647	6.4277e+01	14.2536	90.042257	0.000415	4.153873	1.407370	-0.000166
 648	6.4376e+01	14.2167	89.844437	0.000496	4.964385	1.681979	-0.000199
 649	6.4476e+01	14.1910	89.686989	0.000395	3.951245	1.338718	-0.000158
 650	6.4576e+01	14.1317	89.485132	0.000507	5.065699	1.716305	-0.000203
 651	6.4675e+01	14.0884	89.331721	0.000385	3.849931	1.304392	-0.000154
 652	6.4775e+01	14.0531	89.129864	0.000507	5.065699	1.716305	-0.000203
 653	6.4874e+01	14.0098	88.996639	0.000334	3.343361	1.132761	-0.000134
 654	6.4974e+01	13.9761	88.827079	0.000426	4.255187	1.441696	-0.000170
 655	6.5073e+01	13.9312	88.629259	0.000496	4.964385	1.681979	-0.000199
 656	6.5172e+01	13.8862	88.443551	0.000466	4.660443	1.579001	-0.000187
 657	6.5272e+01	13.8606	88.282066	0.000405	4.052559	1.373044	-0.000162
 658	6.5371e+01	13.8269	88.112506	0.000426	4.255187	1.441696	-0.000170
 659	6.5471e+01	13.7804	87.906612	0.000517	5.167013	1.750631	-0.000207
 660	6.5570e+01	13.7322	87.789535	0.000294	2.938105	0.995457	-0.000118
 661	6.5670e+01	13.6921	87.559418	0.000577	5.774896	1.956588	-0.000231
 662	6.5769e+01	13.6552	87.418119	0.000355	3.545989	1.201414	-0.000142
 663	6.5869e+01	13.6151	87.220299	0.000496	4.964385	1.681979	-0.000199
 664	6.5969e+01	13.5750	87.010368	0.000527	5.268327	1.784957	-0.000211
 665	6.6068e+01	13.5349	86.840808	0.000426	4.255187	1.441696	-0.000170
 666	6.6168e+01	13.4964	86.675286	0.000415	4.153873	1.407370	-0.000166
 667	6.6267e+01	13.4579	86.509763	0.000415	4.153873	1.407370	-0.000166
 668	6.6367e+01	13.4210	86.320018	0.000476	4.761757	1.613327	-0.000191
 669	6.6466e+01	13.3793	86.142384	0.000446	4.457815	1.510349	-0.000179
 670	6.6566e+01	13.3344	85.920341	0.000557	5.572269	1.887936	-0.000223
 671	6.6665e+01	13.2895	85.754819	0.000415	4.153873	1.407370	-0.000166
 672	6.6764e+01	13.2558	85.593333	0.000405	4.052559	1.373044	-0.000162
 673	6.6864e+01	13.2141	85.427811	0.000415	4.153873	1.407370	-0.000166
 674	6.6963e+01	13.1740	85.242103	0.000466	4.660443	1.579001	-0.000187
 675	6.7063e+01	13.1387	85.064469	0.000446	4.457815	1.510349	-0.000179
 676	6.7162e+01	13.1034	84.882797	0.000456	4.559129	1.544675	-0.000183
 677	6.7262e+01	13.0585	84.729386	0.000385	3.849931	1.304392	-0.000154
 678	6.7362e+01	13.0264	84.499270	0.000577	5.774896	1.956588	-0.000231
 679	6.7461e+01	12.9750	84.309524	0.000476	4.761757	1.613327	-0.000191
 680	6.7561e+01	12.9397	84.135927	0.000436	4.356501	1.476022	-0.000174
 681	6.7660e+01	12.8916	83.994628	0.000355	3.545989	1.201414	-0.000142
 682	6.7760e+01	12.8595	83.816994	0.000446	4.457815	1.510349	-0.000179
 683	6.7859e+01	12.8162	83.619174	0.000496	4.964385	1.681979	-0.000199
 684	6.7959e+01	12.7905	83.469800	0.000375	3.748617	1.270066	-0.000150
 685	6.8058e+01	12.7392	83.263906	0.000517	5.167013	1.750631	-0.000207
 686	6.8157e+01	12.6975	83.078198	0.000466	4.660443	1.579001	-0.000187
 687	6.8257e+01	12.6686	82.908638	0.000426	4.255187	1.441696	-0.000170
 688	6.8356e+01	12.6253	82.718893	0.000476	4.761757	1.613327	-0.000191
 689	6.8456e+01	12.5804	82.508962	0.000527	5.268327	1.784957	-0.000211
 690	6.8555e+01	12.5387	82.367662	0.000355	3.545989	1.201414	-0.000142
 691	6.8655e+01	12.5082	82.185991	0.000456	4.559129	1.544675	-0.000183
 692	6.8754e+01	12.4601	81.992208	0.000486	4.863071	1.647653	-0.000195
 693	6.8854e+01	12.4328	81.782277	0.000527	5.268327	1.784957	-0.000211
 694	6.8954e+01	12.3911	81.584458	0.000496	4.964385	1.681979	-0.000199
 695	6.9053e+01	12.3478	81.398749	0.000466	4.660443	1.579001	-0.000187
 696	6.9153e+01	12.3013	81.225152	0.000436	4.356501	1.476022	-0.000174
 697	6.9252e+01	12.2676	81.023296	0.000507	5.065699	1.716305	-0.000203
 698	6.9352e+01	12.2259	80.845662	0.000446	4.457815	1.510349	-0.000179
 699	6.9451e+01	12.1906	80.655916	0.000476	4.761757	1.613327	-0.000191
 700	6.9550e+01	12.1392	80.474245	0.000456	4.559129	1.544675	-0.000183
 701	6.9650e+01	12.1039	80.304686	0.000426	4.255187	1.441696	-0.000170
 702	6.9749e+01	12.0702	80.094754	0.000527	5.268327	1.784957	-0.000211
 703	6.9849e+01	12.0205	79.929232	0.000415	4.153873	1.407370	-0.000166
 704	6.9948e+01	11.9820	79.703152	0.000567	5.673583	1.922262	-0.000227
 705	7.0048e+01	11.9483	79.525518	0.000446	4.457815	1.510349	-0.000179
 706	7.0147e+01	11.9018	79.368070	0.000395	3.951245	1.338718	-0.000158
 707	7.0247e+01	11.8665	79.154102	0.000537	5.369641	1.819283	-0.000215
 708	7.0347e+01	11.8280	78.956282	0.000496	4.964385	1.681979	-0.000199
 709	7.0446e+01	11.7895	78.762500	0.000486	4.863071	1.647653	-0.000195
 710	7.0546e+01	11.7414	78.552569	0.000527	5.268327	1.784957	-0.000211
 711	7.0645e+01	11.7141	78.395120	0.000395	3.951245	1.338718	-0.000158
 712	7.0745e+01	11.6644	78.165004	0.000577	5.774896	1.956588	-0.000231
 713	7.0844e+01	11.6307	77.963147	0.000507	5.065699	1.716305	-0.000203
 714	7.0944e+01	11.5826	77.813773	0.000375	3.748617	1.270066	-0.000150
 715	7.1043e+01	11.5425	77.607879	0.000517	5.167013	1.750631	-0.000207
 716	7.1142e+01	11.5136	77.422171	0.000466	4.660443	1.579001	-0.000187
 717	7.1242e+01	11.4671	77.208202	0.000537	5.369641	1.819283	-0.000215
 718	7.1341e+01	11.4334	77.002308	0.000517	5.167013	1.750631	-0.000207
 719	7.1441e+01	11.3933	76.828712	0.000436	4.356501	1.476022	-0.000174
 720	7.1540e+01	11.3451	76.630892	0.000496	4.964385	1.681979	-0.000199
 721	7.1640e+01	11.3066	76.404812	0.000567	5.673583	1.922262	-0.000227
 722	7.1740e+01	11.2665	76.251401	0.000385	3.849931	1.304392	-0.000154
 723	7.1839e+01	11.2328	76.049544	0.000507	5.065699	1.716305	-0.000203
 724	7.1939e+01	11.1863	75.831539	0.000547	5.470955	1.853610	-0.000219
 725	7.2038e+01	11.1494	75.657942	0.000436	4.356501	1.476022	-0.000174
 726	7.2138e+01	11.1141	75.443974	0.000537	5.369641	1.819283	-0.000215
 727	7.2237e+01	11.0660	75.213857	0.000577	5.774896	1.956588	-0.000231
 728	7.2337e+01	11.0339	75.048335	0.000415	4.153873	1.407370	-0.000166
 729	7.2436e+01	10.9826	74.854552	0.000486	4.863071	1.647653	-0.000195
 730	7.2535e+01	10.9489	74.689030	0.000415	4.153873	1.407370	-0.000166
 731	7.2635e+01	10.9088	74.434690	0.000638	6.382780	2.162545	-0.000256
 732	7.2734e+01	10.8751	74.253019	0.000456	4.559129	1.544675	-0.000183
 733	7.2834e+01	10.8254	74.067311	0.000466	4.660443	1.579001	-0.000187
 734	7.2933e+01	10.7917	73.861417	0.000517	5.167013	1.750631	-0.000207
 735	7.3033e+01	10.7548	73.655523	0.000517	5.167013	1.750631	-0.000207
 736	7.3132e+01	10.7195	73.485963	0.000426	4.255187	1.441696	-0.000170
 737	7.3232e+01	10.6762	73.263921	0.000557	5.572269	1.887936	-0.000223
 738	7.3332e+01	10.6361	73.037841	0.000567	5.673583	1.922262	-0.000227
 739	7.3431e+01	10.5815	72.876356	0.000405	4.052559	1.373044	-0.000162
 740	7.3531e+01	10.5478	72.662388	0.000537	5.369641	1.819283	-0.000215
 741	7.3630e+01	10.5190	72.484754	0.000446	4.457815	1.510349	-0.000179
 742	7.3730e+01	10.4805	72.262711	0.000557	5.572269	1.887936	-0.000223
 743	7.3829e+01	10.4387	72.089114	0.000436	4.356501	1.476022	-0.000174
 744	7.3928e+01	10.3826	71.875146	0.000537	5.369641	1.819283	-0.000215
 745	7.4028e+01	10.3409	71.649067	0.000567	5.673583	1.922262	-0.000227
 746	7.4127e+01	10.3136	71.471433	0.000446	4.457815	1.510349	-0.000179
 747	7.4227e+01	10.2687	71.261501	0.000527	5.268327	1.784957	-0.000211
 748	7.4326e+01	10.2286	71.055608	0.000517	5.167013	1.750631	-0.000207
 749	7.4426e+01	10.1869	70.918345	0.000344	3.444675	1.167088	-0.000138
 750	7.4525e+01	10.1516	70.659968	0.000648	6.484094	2.196871	-0.000260
 751	7.4625e+01	10.1131	70.433889	0.000567	5.673583	1.922262	-0.000227
 752	7.4725e+01	10.0682	70.280477	0.000385	3.849931	1.304392	-0.000154
 753	7.4824e+01	10.0297	70.078621	0.000507	5.065699	1.716305	-0.000203
 754	7.4924e+01	9.9944	69.840430	0.000598	5.977524	2.025240	-0.000239
 755	7.5023e+01	9.9495	69.662796	0.000446	4.457815	1.510349	-0.000179
 756	7.5123e+01	9.9126	69.436716	0.000567	5.673583	1.922262	-0.000227
 757	7.5222e+01	9.8676	69.234859	0.000507	5.065699	1.716305	-0.000203
 758	7.5322e+01	9.8243	69.016854	0.000547	5.470955	1.853610	-0.000219
 759	7.5421e+01	9.7954	68.843257	0.000436	4.356501	1.476022	-0.000174
 760	7.5520e+01	9.7569	68.609103	0.000588	5.876210	1.990914	-0.000235
 761	7.5620e+01	9.7184	68.435506	0.000436	4.356501	1.476022	-0.000174
 762	7.5719e+01	9.6735	68.201353	0.000588	5.876210	1.990914	-0.000235
 763	7.5819e+01	9.6254	67.987384	0.000537	5.369641	1.819283	-0.000215
 764	7.5918e+01	9.5933	67.797639	0.000476	4.761757	1.613327	-0.000191
 765	7.6018e+01	9.5580	67.611931	0.000466	4.660443	1.579001	-0.000187
 766	7.6118e+01	9.5083	67.389888	0.000557	5.572269	1.887936	-0.000223
 767	7.6217e+01	9.4746	67.188032	0.000507	5.065699	1.716305	-0.000203
 768	7.6317e+01	9.4377	67.010398	0.000446	4.457815	1.510349	-0.000179
 769	7.6416e+01	9.3976	66.780281	0.000577	5.774896	1.956588	-0.000231
 770	7.6516e+01	9.3559	66.546127	0.000588	5.876210	1.990914	-0.000235
 771	7.6615e+01	9.3174	66.336196	0.000527	5.268327	1.784957	-0.000211
 772	7.6715e+01	9.2805	66.130302	0.000517	5.167013	1.750631	-0.000207
 773	7.6814e+01	9.2340	65.952668	0.000446	4.457815	1.510349	-0.000179
 774	7.6913e+01	9.1955	65.714477	0.000598	5.977524	2.025240	-0.000239
 775	7.7013e+01	9.1602	65.528769	0.000466	4.660443	1.579001	-0.000187
 776	7.7112e+01	9.1217	65.306726	0.000557	5.572269	1.887936	-0.000223
 777	7.7212e+01	9.0767	65.108907	0.000496	4.964385	1.681979	-0.000199
 778	7.7311e+01	9.0415	64.907050	0.000507	5.065699	1.716305	-0.000203
 779	7.7411e+01	8.9949	64.652710	0.000638	6.382780	2.162545	-0.000256
 780	7.7510e+01	8.9548	64.495262	0.000395	3.951245	1.338718	-0.000158
 781	7.7610e+01	8.9163	64.277257	0.000547	5.470955	1.853610	-0.000219
 782	7.7710e+01	8.8730	64.071363	0.000517	5.167013	1.750631	-0.000207
 783	7.7809e+01	8.8329	63.845283	0.000567	5.673583	1.922262	-0.000227
 784	7.7909e+01	8.7944	63.655538	0.000476	4.761757	1.613327	-0.000191
 785	7.8008e+01	8.7511	63.481941	0.000436	4.356501	1.476022	-0.000174
 786	7.8108e+01	8.7222	63.243750	0.000598	5.977524	2.025240	-0.000239
 787	7.8207e+01	8.6821	63.058042	0.000466	4.660443	1.579001	-0.000187
 788	7.8306e+01	8.6372	62.803702	0.000638	6.382780	2.162545	-0.000256
 789	7.8406e+01	8.6019	62.601845	0.000507	5.065699	1.716305	-0.000203
 790	7.8505e+01	8.5634	62.383840	0.000547	5.470955	1.853610	-0.000219
 791	7.8605e+01	8.5121	62.173909	0.000527	5.268327	1.784957	-0.000211
 792	7.8704e+01	8.4768	61.980126	0.000486	4.863071	1.647653	-0.000195
 793	7.8804e+01	8.4415	61.741935	0.000598	5.977524	2.025240	-0.000239
 794	7.8903e+01	8.3950	61.544116	0.000496	4.964385	1.681979	-0.000199
 795	7.9003e+01	8.3564	61.322073	0.000557	5.572269	1.887936	-0.000223
 796	7.9103e+01	8.3196	61.087919	0.000588	5.876210	1.990914	-0.000235
 797	7.9202e+01	8.2778	60.902211	0.000466	4.660443	1.579001	-0.000187
 798	7.9302e+01	8.2297	60.720540	0.000456	4.559129	1.544675	-0.000183
 799	7.9401e+01	8.2057	60.502535	0.000547	5.470955	1.853610	-0.000219
 800	7.9501e+01	8.1671	60.292604	0.000527	5.268327	1.784957	-0.000211
 801	7.9600e+01	8.1126	60.066524	0.000567	5.673583	1.922262	-0.000227
 802	7.9700e+01	8.0773	59.832370	0.000588	5.876210	1.990914	-0.000235
 803	7.9799e+01	8.0500	59.630513	0.000507	5.065699	1.716305	-0.000203
 804	7.9898e+01	8.0051	59.440768	0.000476	4.761757	1.613327	-0.000191
 805	7.9998e+01	7.9618	59.178354	0.000659	6.585408	2.231197	-0.000264
 806	8.0097e+01	7.9169	59.000720	0.000446	4.457815	1.510349	-0.000179
 807	8.0197e+01	7.8816	58.786752	0.000537	5.369641	1.819283	-0.000215
 808	8.0296e+01	7.8431	58.588932	0.000496	4.964385	1.681979	-0.000199
 809	8.0396e+01	7.8014	58.379001	0.000527	5.268327	1.784957	-0.000211
 810	8.0496e+01	7.7597	58.132736	0.000618	6.180152	2.093892	-0.000248
 811	8.0595e+01	7.7244	57.942991	0.000476	4.761757	1.613327	-0.000191
 812	8.0695e+01	7.6795	57.737097	0.000517	5.167013	1.750631	-0.000207
 813	8.0794e+01	7.6394	57.502943	0.000588	5.876210	1.990914	-0.000235
 814	8.0894e+01	7.6073	57.244566	0.000648	6.484094	2.196871	-0.000260
 815	8.0993e+01	7.5607	57.087118	0.000395	3.951245	1.338718	-0.000158
 816	8.1093e+01	7.5222	56.865075	0.000557	5.572269	1.887936	-0.000223
 817	8.1192e+01	7.4821	56.679367	0.000466	4.660443	1.579001	-0.000187
 818	8.1291e+01	7.4340	56.425028	0.000638	6.382780	2.162545	-0.000256
 819	8.1391e+01	7.4083	56.202985	0.000557	5.572269	1.887936	-0.000223
 820	8.1490e+01	7.3586	55.936534	0.000669	6.686722	2.265523	-0.000268
 821	8.1590e+01	7.3153	55.762937	0.000436	4.356501	1.476022	-0.000174
 822	8.1689e+01	7.2768	55.569155	0.000486	4.863071	1.647653	-0.000195
 823	8.1789e+01	7.2335	55.314815	0.000638	6.382780	2.162545	-0.000256
 824	8.1888e+01	7.2030	55.072587	0.000608	6.078838	2.059566	-0.000243
 825	8.1988e+01	7.1597	54.862656	0.000527	5.268327	1.784957	-0.000211
 826	8.2088e+01	7.1212	54.660799	0.000507	5.065699	1.716305	-0.000203
 827	8.2187e+01	7.0811	54.426645	0.000588	5.876210	1.990914	-0.000235
 828	8.2287e+01	7.0426	54.184417	0.000608	6.078838	2.059566	-0.000243
 829	8.2386e+01	7.0025	53.982561	0.000507	5.065699	1.716305	-0.000203
 830	8.2486e+01	6.9560	53.752444	0.000577	5.774896	1.956588	-0.000231
 831	8.2585e+01	6.9191	53.542513	0.000527	5.268327	1.784957	-0.000211
 832	8.2684e+01	6.8902	53.267987	0.000689	6.889350	2.334175	-0.000276
 833	8.2784e+01	6.8388	53.049982	0.000547	5.470955	1.853610	-0.000219
 834	8.2883e+01	6.8100	52.872348	0.000446	4.457815	1.510349	-0.000179
 835	8.2983e+01	6.7667	52.626083	0.000618	6.180152	2.093892	-0.000248
 836	8.3082e+01	6.7314	52.371743	0.000638	6.382780	2.162545	-0.000256
 837	8.3182e+01	6.6784	52.117404	0.000638	6.382780	2.162545	-0.000256
 838	8.3281e+01	6.6399	52.004364	0.000284	2.836791	0.961131	-0.000114
 839	8.3381e+01	6.6062	51.717727	0.000719	7.193292	2.437153	-0.000288
 840	8.3481e+01	6.5645	51.507796	0.000527	5.268327	1.784957	-0.000211
 841	8.3580e+01	6.5212	51.265568	0.000608	6.078838	2.059566	-0.000243
 842	8.3680e+01	6.4907	51.059674	0.000517	5.167013	1.750631	-0.000207
 843	8.3779e+01	6.4458	50.837632	0.000557	5.572269	1.887936	-0.000223
 844	8.3879e+01	6.4025	50.599441	0.000598	5.977524	2.025240	-0.000239
 845	8.3978e+01	6.3752	50.357213	0.000608	6.078838	2.059566	-0.000243
 846	8.4078e+01	6.3367	50.175542	0.000456	4.559129	1.544675	-0.000183
 847	8.4177e+01	6.2870	49.929276	0.000618	6.180152	2.093892	-0.000248
 848	8.4276e+01	6.2565	49.670900	0.000648	6.484094	2.196871	-0.000260
 849	8.4376e+01	6.2084	49.469043	0.000507	5.065699	1.716305	-0.000203
 850	8.4475e+01	6.1667	49.206629	0.000659	6.585408	2.231197	-0.000264
 851	8.4575e+01	6.1234	49.049181	0.000395	3.951245	1.338718	-0.000158
 852	8.4674e+01	6.0881	48.786767	0.000659	6.585408	2.231197	-0.000264
 853	8.4774e+01	6.0464	48.536464	0.000628	6.281466	2.128218	-0.000252
 854	8.4874e+01	6.0079	48.290199	0.000618	6.180152	2.093892	-0.000248
 855	8.4973e+01	5.9677	48.088342	0.000507	5.065699	1.716305	-0.000203
 856	8.5073e+01	5.9244	47.854188	0.000588	5.876210	1.990914	-0.000235
 857	8.5172e+01	5.8923	47.615997	0.000598	5.977524	2.025240	-0.000239
 858	8.5272e+01	5.8554	47.381844	0.000588	5.876210	1.990914	-0.000235
 859	8.5371e+01	5.8105	47.135578	0.000618	6.180152	2.093892	-0.000248
 860	8.5471e+01	5.7736	46.941796	0.000486	4.863071	1.647653	-0.000195
 861	8.5570e+01	5.7367	46.703605	0.000598	5.977524	2.025240	-0.000239
 862	8.5669e+01	5.6870	46.445228	0.000648	6.484094	2.196871	-0.000260
 863	8.5769e+01	5.6533	46.223186	0.000557	5.572269	1.887936	-0.000223
 864	8.5868e+01	5.6116	45.968846	0.000638	6.382780	2.162545	-0.000256
 865	8.5968e+01	5.5763	45.734692	0.000588	5.876210	1.990914	-0.000235
 866	8.6067e+01	5.5282	45.480353	0.000638	6.382780	2.162545	-0.000256
 867	8.6167e+01	5.4817	45.230050	0.000628	6.281466	2.128218	-0.000252
 868	8.6266e+01	5.4560	44.975711	0.000638	6.382780	2.162545	-0.000256
 869	8.6366e+01	5.4063	44.785965	0.000476	4.761757	1.613327	-0.000191
 870	8.6466e+01	5.3678	44.503366	0.000709	7.091978	2.402827	-0.000284
 871	8.6565e+01	5.3357	44.289398	0.000537	5.369641	1.819283	-0.000215
 872	8.6665e+01	5.2859	44.039095	0.000628	6.281466	2.128218	-0.000252
 873	8.6764e+01	5.2410	43.784756	0.000638	6.382780	2.162545	-0.000256
 874	8.6864e+01	5.2138	43.558676	0.000567	5.673583	1.922262	-0.000227
 875	8.6963e+01	5.1640	43.340671	0.000547	5.470955	1.853610	-0.000219
 876	8.7063e+01	5.1432	43.094405	0.000618	6.180152	2.093892	-0.000248
 877	8.7162e+01	5.0902	42.848140	0.000618	6.180152	2.093892	-0.000248
 878	8.7261e+01	5.0453	42.646283	0.000507	5.065699	1.716305	-0.000203
 879	8.7361e+01	5.0084	42.367721	0.000699	6.990664	2.368501	-0.000280
 880	8.7460e+01	4.9603	42.125493	0.000608	6.078838	2.059566	-0.000243
 881	8.7560e+01	4.9426	41.879228	0.000618	6.180152	2.093892	-0.000248
 882	8.7659e+01	4.8945	41.580480	0.000750	7.497234	2.540132	-0.000300
 883	8.7759e+01	4.8416	41.354400	0.000567	5.673583	1.922262	-0.000227
 884	8.7859e+01	4.8207	41.148506	0.000517	5.167013	1.750631	-0.000207
 885	8.7958e+01	4.7694	40.861869	0.000719	7.193292	2.437153	-0.000288
 886	8.8058e+01	4.7293	40.660013	0.000507	5.065699	1.716305	-0.000203
 887	8.8157e+01	4.6924	40.393562	0.000669	6.686722	2.265523	-0.000268
 888	8.8257e+01	4.6667	40.135185	0.000648	6.484094	2.196871	-0.000260
 889	8.8356e+01	4.6074	39.901031	0.000588	5.876210	1.990914	-0.000235
 890	8.8456e+01	4.5753	39.650729	0.000628	6.281466	2.128218	-0.000252
 891	8.8555e+01	4.5223	39.380241	0.000679	6.788036	2.299849	-0.000272
 892	8.8654e+01	4.4967	39.154161	0.000567	5.673583	1.922262	-0.000227
 893	8.8754e+01	4.4534	38.879636	0.000689	6.889350	2.334175	-0.000276
 894	8.8853e+01	4.4165	38.629333	0.000628	6.281466	2.128218	-0.000252
 895	8.8953e+01	4.3828	38.374994	0.000638	6.382780	2.162545	-0.000256
 896	8.9052e+01	4.3314	38.140840	0.000588	5.876210	1.990914	-0.000235
 897	8.9152e+01	4.2913	37.882463	0.000648	6.484094	2.196871	-0.000260
 898	8.9251e+01	4.2624	37.616012	0.000669	6.686722	2.265523	-0.000268
 899	8.9351e+01	4.2175	37.385896	0.000577	5.774896	1.956588	-0.000231
 900	8.9451e+01	4.1726	37.155779	0.000577	5.774896	1.956588	-0.000231
 901	8.9550e+01	4.1309	36.877216	0.000699	6.990664	2.368501	-0.000280
 902	8.9650e+01	4.0860	36.594617	0.000709	7.091978	2.402827	-0.000284
 903	8.9749e+01	4.0523	36.340277	0.000638	6.382780	2.162545	-0.000256
 904	8.9849e+01	4.0186	36.114198	0.000567	5.673583	1.922262	-0.000227
 905	8.9948e+01	3.9817	35.843710	0.000679	6.788036	2.299849	-0.000272
 906	9.0047e+01	3.9320	35.597444	0.000618	6.180152	2.093892	-0.000248
 907	9.0147e+01	3.8935	35.355216	0.000608	6.078838	2.059566	-0.000243
 908	9.0246e+01	3.8566	35.064542	0.000729	7.294606	2.471479	-0.000292
 909	9.0346e+01	3.8133	34.838463	0.000567	5.673583	1.922262	-0.000227
 910	9.0445e+01	3.7812	34.604309	0.000588	5.876210	1.990914	-0.000235
 911	9.0545e+01	3.7282	34.333821	0.000679	6.788036	2.299849	-0.000272
 912	9.0644e+01	3.6913	34.014887	0.000800	8.003804	2.711762	-0.000321
 913	9.0744e+01	3.6625	33.808993	0.000517	5.167013	1.750631	-0.000207
 914	9.0844e+01	3.6111	33.534468	0.000689	6.889350	2.334175	-0.000276
 915	9.0943e+01	3.5823	33.292240	0.000608	6.078838	2.059566	-0.000243
 916	9.1043e+01	3.5389	33.037900	0.000638	6.382780	2.162545	-0.000256
 917	9.1142e+01	3.5004	32.775486	0.000659	6.585408	2.231197	-0.000264
 918	9.1242e+01	3.4571	32.533258	0.000608	6.078838	2.059566	-0.000243
 919	9.1341e+01	3.4154	32.258733	0.000689	6.889350	2.334175	-0.000276
 920	9.1441e+01	3.3769	32.028616	0.000577	5.774896	1.956588	-0.000231
 921	9.1540e+01	3.3384	31.774277	0.000638	6.382780	2.162545	-0.000256
 922	9.1639e+01	3.3031	31.471492	0.000760	7.598548	2.574458	-0.000304
 923	9.1739e+01	3.2598	31.221189	0.000628	6.281466	2.128218	-0.000252
 924	9.1838e+01	3.2197	30.978961	0.000608	6.078838	2.059566	-0.000243
 925	9.1938e+01	3.1828	30.688287	0.000729	7.294606	2.471479	-0.000292
 926	9.2037e+01	3.1379	30.425873	0.000659	6.585408	2.231197	-0.000264
 927	9.2137e+01	3.0930	30.183645	0.000608	6.078838	2.059566	-0.000243
 928	9.2237e+01	3.0641	29.913157	0.000679	6.788036	2.299849	-0.000272
 929	9.2336e+01	3.0192	29.594224	0.000800	8.003804	2.711762	-0.000321
 930	9.2436e+01	2.9807	29.356033	0.000598	5.977524	2.025240	-0.000239
 931	9.2535e+01	2.9406	29.154176	0.000507	5.065699	1.716305	-0.000203
 932	9.2635e+01	2.9069	28.827168	0.000821	8.206432	2.780414	-0.000329
 933	9.2734e+01	2.8620	28.564754	0.000659	6.585408	2.231197	-0.000264
 934	9.2834e+01	2.8186	28.282154	0.000709	7.091978	2.402827	-0.000284
 935	9.2933e+01	2.7769	28.035889	0.000618	6.180152	2.093892	-0.000248
 936	9.3032e+01	2.7416	27.737141	0.000750	7.497234	2.540132	-0.000300
 937	9.3132e+01	2.6983	27.482802	0.000638	6.382780	2.162545	-0.000256
 938	9.3231e+01	2.6534	27.200202	0.000709	7.091978	2.402827	-0.000284
 939	9.3331e+01	2.6229	26.953937	0.000618	6.180152	2.093892	-0.000248
 940	9.3430e+01	2.5876	26.695560	0.000648	6.484094	2.196871	-0.000260
 941	9.3530e+01	2.5491	26.412961	0.000709	7.091978	2.402827	-0.000284
 942	9.3629e+01	2.4978	26.154584	0.000648	6.484094	2.196871	-0.000260
 943	9.3729e+01	2.4609	25.863910	0.000729	7.294606	2.471479	-0.000292
 944	9.3829e+01	2.4288	25.641868	0.000557	5.572269	1.887936	-0.000223
 945	9.3928e+01	2.3727	25.367342	0.000689	6.889350	2.334175	-0.000276
 946	9.4028e+01	2.3422	25.088780	0.000699	6.990664	2.368501	-0.000280
 947	9.4127e+01	2.3005	24.781958	0.000770	7.699862	2.608784	-0.000308
 948	9.4227e+01	2.2636	24.527618	0.000638	6.382780	2.162545	-0.000256
 949	9.4326e+01	2.2235	24.273279	0.000638	6.382780	2.162545	-0.000256
 950	9.4425e+01	2.1818	23.966456	0.000770	7.699862	2.608784	-0.000308
 951	9.4525e+01	2.1433	23.712117	0.000638	6.382780	2.162545	-0.000256
 952	9.4624e+01	2.1031	23.441629	0.000679	6.788036	2.299849	-0.000272
 953	9.4724e+01	2.0630	23.142881	0.000750	7.497234	2.540132	-0.000300
 954	9.4823e+01	2.0213	22.924875	0.000547	5.470955	1.853610	-0.000219
 955	9.4923e+01	1.9780	22.618053	0.000770	7.699862	2.608784	-0.000308
 956	9.5022e+01	1.9395	22.327379	0.000729	7.294606	2.471479	-0.000292
 957	9.5122e+01	1.9010	22.056891	0.000679	6.788036	2.299849	-0.000272
 958	9.5222e+01	1.8593	21.729883	0.000821	8.206432	2.780414	-0.000329
 959	9.5321e+01	1.8224	21.511878	0.000547	5.470955	1.853610	-0.000219
 960	9.5421e+01	1.7839	21.209093	0.000760	7.598548	2.574458	-0.000304
 961	9.5520e+01	1.7406	20.966864	0.000608	6.078838	2.059566	-0.000243
 962	9.5620e+01	1.7053	20.696376	0.000679	6.788036	2.299849	-0.000272
 963	9.5719e+01	1.6620	20.405703	0.000729	7.294606	2.471479	-0.000292
 964	9.5819e+01	1.6283	20.135214	0.000679	6.788036	2.299849	-0.000272
 965	9.5918e+01	1.5770	19.856652	0.000699	6.990664	2.368501	-0.000280
 966	9.6017e+01	1.5497	19.586164	0.000679	6.788036	2.299849	-0.000272
 967	9.6117e+01	1.5032	19.303565	0.000709	7.091978	2.402827	-0.000284
 968	9.6216e+01	1.4631	19.037114	0.000669	6.686722	2.265523	-0.000268
 969	9.6316e+01	1.4262	18.706068	0.000831	8.307746	2.814740	-0.000333
 970	9.6415e+01	1.3877	18.403283	0.000760	7.598548	2.574458	-0.000304
 971	9.6515e+01	1.3427	18.197389	0.000517	5.167013	1.750631	-0.000207
 972	9.6615e+01	1.3042	17.886530	0.000780	7.801176	2.643110	-0.000312
 973	9.6714e+01	1.2609	17.607968	0.000699	6.990664	2.368501	-0.000280
 974	9.6814e+01	1.2224	17.353628	0.000638	6.382780	2.162545	-0.000256
 975	9.6913e+01	1.1887	17.095251	0.000648	6.484094	2.196871	-0.000260
 976	9.7013e+01	1.1390	16.792466	0.000760	7.598548	2.574458	-0.000304
 977	9.7112e+01	1.1085	16.465458	0.000821	8.206432	2.780414	-0.000329
 978	9.7212e+01	1.0604	16.247453	0.000547	5.470955	1.853610	-0.000219
 979	9.7311e+01	1.0267	15.896222	0.000881	8.814316	2.986371	-0.000353
 980	9.7410e+01	0.9930	15.645920	0.000628	6.281466	2.128218	-0.000252
 981	9.7510e+01	0.9449	15.375431	0.000679	6.788036	2.299849	-0.000272
 982	9.7609e+01	0.9064	15.064572	0.000780	7.801176	2.643110	-0.000312
 983	9.7709e+01	0.8631	14.802158	0.000659	6.585408	2.231197	-0.000264
 984	9.7808e+01	0.8262	14.503410	0.000750	7.497234	2.540132	-0.000300
 985	9.7908e+01	0.7829	14.172365	0.000831	8.307746	2.814740	-0.000333
 986	9.8007e+01	0.7412	13.913988	0.000648	6.484094	2.196871	-0.000260
 987	9.8107e+01	0.7027	13.635426	0.000699	6.990664	2.368501	-0.000280
 988	9.8207e+01	0.6674	13.332641	0.000760	7.598548	2.574458	-0.000304
 989	9.8306e+01	0.6273	13.050041	0.000709	7.091978	2.402827	-0.000284
 990	9.8406e+01	0.5936	12.799739	0.000628	6.281466	2.128218	-0.000252
 991	9.8505e+01	0.5470	12.436397	0.000912	9.118258	3.089349	-0.000365
 992	9.8605e+01	0.5021	12.202243	0.000588	5.876210	1.990914	-0.000235
 993	9.8704e+01	0.4620	11.907532	0.000740	7.395920	2.505806	-0.000296
 994	9.8803e+01	0.4315	11.596672	0.000780	7.801176	2.643110	-0.000312
 995	9.8903e+01	0.3914	11.326184	0.000679	6.788036	2.299849	-0.000272
 996	9.9002e+01	0.3465	10.999176	0.000821	8.206432	2.780414	-0.000329
 997	9.9102e+01	0.3128	10.728688	0.000679	6.788036	2.299849	-0.000272
 998	9.9201e+01	0.2679	10.413792	0.000790	7.902490	2.677436	-0.000316
 999	9.9301e+01	0.2246	10.106969	0.000770	7.699862	2.608784	-0.000308
1000	9.9400e+01	0.1861	9.828407	0.000699	6.990664	2.368501	-0.000280
1001	9.9500e+01	0.1492	9.525622	0.000760	7.598548	2.574458	-0.000304
1002	9.9600e+01	0.1043	9.255134	0.000679	6.788036	2.299849	-0.000272
1003	9.9699e+01	0.0690	9.000794	0.000638	6.382780	2.162545	-0.000256
1004	9.9799e+01	0.0176	8.661675	0.000851	8.510374	2.883393	-0.000341
1005	9.9898e+01	0.0032	8.435595	0.000567	5.673583	1.922262	-0.000227
1006	9.9998e+01	-0.0449	8.128773	0.000770	7.699862	2.608784	-0.000308
1007	1.0010e+02	-0.0866	7.850210	0.000699	6.990664	2.368501	-0.000280
1008	1.0020e+02	-0.1299	7.539351	0.000780	7.801176	2.643110	-0.000312
1009	1.0030e+02	-0.1540	7.268863	0.000679	6.788036	2.299849	-0.000272
1010	1.0040e+02	-0.2021	6.937818	0.000831	8.307746	2.814740	-0.000333
1011	1.0050e+02	-0.2454	6.667330	0.000679	6.788036	2.299849	-0.000272
1012	1.0059e+02	-0.2872	6.364544	0.000760	7.598548	2.574458	-0.000304
1013	1.0069e+02	-0.3305	6.041574	0.000811	8.105118	2.746088	-0.000325
1014	1.0079e+02	-0.3610	5.779160	0.000659	6.585408	2.231197	-0.000264
1015	1.0089e+02	-0.3995	5.512709	0.000669	6.686722	2.265523	-0.000268
1016	1.0099e+02	-0.4540	5.157441	0.000892	8.915630	3.020697	-0.000357
1017	1.0109e+02	-0.4861	4.878879	0.000699	6.990664	2.368501	-0.000280
1018	1.0119e+02	-0.5182	4.576093	0.000760	7.598548	2.574458	-0.000304
1019	1.0129e+02	-0.5647	4.309642	0.000669	6.686722	2.265523	-0.000268
1020	1.0139e+02	-0.6080	4.006857	0.000760	7.598548	2.574458	-0.000304
1021	1.0149e+02	-0.6401	3.683886	0.000811	8.105118	2.746088	-0.000325
1022	1.0159e+02	-0.6786	3.401287	0.000709	7.091978	2.402827	-0.000284
1023	1.0169e+02	-0.7187	3.150984	0.000628	6.281466	2.128218	-0.000252
1024	1.0179e+02	-0.7556	2.775531	0.000942	9.422200	3.192328	-0.000377
1025	1.0189e+02	-0.7941	2.545414	0.000577	5.774896	1.956588	-0.000231
1026	1.0199e+02	-0.8358	2.214369	0.000831	8.307746	2.814740	-0.000333
1027	1.0209e+02	-0.8903	1.911584	0.000760	7.598548	2.574458	-0.000304
1028	1.0219e+02	-0.9305	1.592650	0.000800	8.003804	2.711762	-0.000321
1029	1.0229e+02	-0.9674	1.289865	0.000760	7.598548	2.574458	-0.000304
1030	1.0239e+02	-1.0010	1.015340	0.000689	6.889350	2.334175	-0.000276
1031	1.0248e+02	-1.0331	0.651997	0.000912	9.118258	3.089349	-0.000365
1032	1.0258e+02	-1.0764	0.421881	0.000577	5.774896	1.956588	-0.000231
1033	1.0268e+02	-1.1278	0.111021	0.000780	7.801176	2.643110	-0.000312
1034	1.0278e+02	-1.1599	-0.175615	0.000719	7.193292	2.437153	-0.000288
1035	1.0288e+02	-1.2032	-0.518772	0.000861	8.611688	2.917719	-0.000345
1036	1.0298e+02	-1.2449	-0.748889	0.000577	5.774896	1.956588	-0.000231
1037	1.0308e+02	-1.2786	-1.108194	0.000902	9.016944	3.055023	-0.000361
1038	1.0318e+02	-1.3219	-1.378682	0.000679	6.788036	2.299849	-0.000272
1039	1.0328e+02	-1.3652	-1.693578	0.000790	7.902490	2.677436	-0.000316
1040	1.0338e+02	-1.4037	-1.992326	0.000750	7.497234	2.540132	-0.000300
1041	1.0348e+02	-1.4358	-2.307223	0.000790	7.902490	2.677436	-0.000316
1042	1.0358e+02	-1.4759	-2.565600	0.000648	6.484094	2.196871	-0.000260
1043	1.0368e+02	-1.5240	-2.920868	0.000892	8.915630	3.020697	-0.000357
1044	1.0378e+02	-1.5497	-3.171170	0.000628	6.281466	2.128218	-0.000252
1045	1.0388e+02	-1.5962	-3.486067	0.000790	7.902490	2.677436	-0.000316
1046	1.0398e+02	-1.6283	-3.784815	0.000750	7.497234	2.540132	-0.000300
1047	1.0408e+02	-1.6780	-4.067414	0.000709	7.091978	2.402827	-0.000284
1048	1.0418e+02	-1.7133	-4.374237	0.000770	7.699862	2.608784	-0.000308
1049	1.0428e+02	-1.7598	-4.689133	0.000790	7.902490	2.677436	-0.000316
1050	1.0438e+02	-1.7951	-4.979807	0.000729	7.294606	2.471479	-0.000292
1051	1.0447e+02	-1.8320	-5.282592	0.000760	7.598548	2.574458	-0.000304
1052	1.0457e+02	-1.8753	-5.532895	0.000628	6.281466	2.128218	-0.000252
1053	1.0467e+02	-1.9171	-5.855865	0.000811	8.105118	2.746088	-0.000325
1054	1.0477e+02	-1.9604	-6.154613	0.000750	7.497234	2.540132	-0.000300
1055	1.0487e+02	-2.0005	-6.481621	0.000821	8.206432	2.780414	-0.000329
1056	1.0497e+02	-2.0438	-6.792481	0.000780	7.801176	2.643110	-0.000312
1057	1.0507e+02	-2.0807	-7.079118	0.000719	7.193292	2.437153	-0.000288
1058	1.0517e+02	-2.1192	-7.325383	0.000618	6.180152	2.093892	-0.000248
1059	1.0527e+02	-2.1545	-7.656428	0.000831	8.307746	2.814740	-0.000333
1060	1.0537e+02	-2.1930	-7.947102	0.000729	7.294606	2.471479	-0.000292
1061	1.0547e+02	-2.2395	-8.257961	0.000780	7.801176	2.643110	-0.000312
1062	1.0557e+02	-2.2780	-8.508264	0.000628	6.281466	2.128218	-0.000252
1063	1.0567e+02	-2.3085	-8.859494	0.000881	8.814316	2.986371	-0.000353
1064	1.0577e+02	-2.3518	-9.105760	0.000618	6.180152	2.093892	-0.000248
1065	1.0587e+02	-2.3951	-9.368173	0.000659	6.585408	2.231197	-0.000264
1066	1.0597e+02	-2.4432	-9.695181	0.000821	8.206432	2.780414	-0.000329
1067	1.0607e+02	-2.4705	-9.985855	0.000729	7.294606	2.471479	-0.000292
1068	1.0617e+02	-2.5058	-10.280566	0.000740	7.395920	2.505806	-0.000296
1069	1.0627e+02	-2.5523	-10.555091	0.000689	6.889350	2.334175	-0.000276
1070	1.0637e+02	-2.5989	-10.853839	0.000750	7.497234	2.540132	-0.000300
1071	1.0647e+02	-2.6245	-11.124328	0.000679	6.788036	2.299849	-0.000272
1072	1.0656e+02	-2.6710	-11.475558	0.000881	8.814316	2.986371	-0.000353
1073	1.0666e+02	-2.7144	-11.693564	0.000547	5.470955	1.853610	-0.000219
1074	1.0676e+02	-2.7513	-11.996349	0.000760	7.598548	2.574458	-0.000304
1075	1.0686e+02	-2.8010	-12.266837	0.000679	6.788036	2.299849	-0.000272
1076	1.0696e+02	-2.8299	-12.561548	0.000740	7.395920	2.505806	-0.000296
1077	1.0706e+02	-2.8684	-12.848184	0.000719	7.193292	2.437153	-0.000288
1078	1.0716e+02	-2.9101	-13.126747	0.000699	6.990664	2.368501	-0.000280
1079	1.0726e+02	-2.9582	-13.433569	0.000770	7.699862	2.608784	-0.000308
1080	1.0736e+02	-2.9903	-13.716169	0.000709	7.091978	2.402827	-0.000284
1081	1.0746e+02	-3.0320	-13.998768	0.000709	7.091978	2.402827	-0.000284
1082	1.0756e+02	-3.0705	-14.285405	0.000719	7.193292	2.437153	-0.000288
1083	1.0766e+02	-3.1186	-14.559930	0.000689	6.889350	2.334175	-0.000276
1084	1.0776e+02	-3.1523	-14.838492	0.000699	6.990664	2.368501	-0.000280
1085	1.0786e+02	-3.1860	-15.088795	0.000628	6.281466	2.128218	-0.000252
1086	1.0796e+02	-3.2293	-15.383506	0.000740	7.395920	2.505806	-0.000296
1087	1.0806e+02	-3.2726	-15.666105	0.000709	7.091978	2.402827	-0.000284
1088	1.0816e+02	-3.3015	-15.932556	0.000669	6.686722	2.265523	-0.000268
1089	1.0826e+02	-3.3545	-16.215156	0.000709	7.091978	2.402827	-0.000284
1090	1.0836e+02	-3.3913	-16.497755	0.000709	7.091978	2.402827	-0.000284
1091	1.0845e+02	-3.4298	-16.768243	0.000679	6.788036	2.299849	-0.000272
1092	1.0855e+02	-3.4700	-16.994323	0.000567	5.673583	1.922262	-0.000227
1093	1.0865e+02	-3.5020	-17.345554	0.000881	8.814316	2.986371	-0.000353
1094	1.0875e+02	-3.5534	-17.599893	0.000638	6.382780	2.162545	-0.000256
1095	1.0885e+02	-3.5983	-17.894604	0.000740	7.395920	2.505806	-0.000296
1096	1.0895e+02	-3.6272	-18.169129	0.000689	6.889350	2.334175	-0.000276
1097	1.0905e+02	-3.6801	-18.467877	0.000750	7.497234	2.540132	-0.000300
1098	1.0915e+02	-3.7042	-18.697994	0.000577	5.774896	1.956588	-0.000231
1099	1.0925e+02	-3.7475	-19.037114	0.000851	8.510374	2.883393	-0.000341
1100	1.0935e+02	-3.7876	-19.243007	0.000517	5.167013	1.750631	-0.000207
1101	1.0945e+02	-3.8309	-19.594238	0.000881	8.814316	2.986371	-0.000353
1102	1.0955e+02	-3.8678	-19.824355	0.000577	5.774896	1.956588	-0.000231
1103	1.0965e+02	-3.8999	-20.094843	0.000679	6.788036	2.299849	-0.000272
1104	1.0975e+02	-3.9512	-20.377443	0.000709	7.091978	2.402827	-0.000284
1105	1.0985e+02	-3.9817	-20.631782	0.000638	6.382780	2.162545	-0.000256
1106	1.0995e+02	-4.0314	-20.857862	0.000567	5.673583	1.922262	-0.000227
1107	1.1005e+02	-4.0635	-21.156610	0.000750	7.497234	2.540132	-0.000300
1108	1.1015e+02	-4.1068	-21.455358	0.000750	7.497234	2.540132	-0.000300
1109	1.1025e+02	-4.1421	-21.701623	0.000618	6.180152	2.093892	-0.000248
1110	1.1035e+02	-4.1903	-21.964037	0.000659	6.585408	2.231197	-0.000264
1111	1.1044e+02	-4.2223	-22.246636	0.000709	7.091978	2.402827	-0.000284
1112	1.1054e+02	-4.2576	-22.513087	0.000669	6.686722	2.265523	-0.000268
1113	1.1064e+02	-4.3042	-22.739167	0.000567	5.673583	1.922262	-0.000227
1114	1.1074e+02	-4.3539	-23.025804	0.000719	7.193292	2.437153	-0.000288
1115	1.1084e+02	-4.3844	-23.272069	0.000618	6.180152	2.093892	-0.000248
1116	1.1094e+02	-4.4229	-23.534483	0.000659	6.585408	2.231197	-0.000264
1117	1.1104e+02	-4.4742	-23.857454	0.000811	8.105118	2.746088	-0.000325
1118	1.1114e+02	-4.5111	-24.095645	0.000598	5.977524	2.025240	-0.000239
1119	1.1124e+02	-4.5544	-24.370170	0.000689	6.889350	2.334175	-0.000276
1120	1.1134e+02	-4.5881	-24.620472	0.000628	6.281466	2.128218	-0.000252
1121	1.1144e+02	-4.6314	-24.870775	0.000628	6.281466	2.128218	-0.000252
1122	1.1154e+02	-4.6587	-25.129151	0.000648	6.484094	2.196871	-0.000260
1123	1.1164e+02	-4.7180	-25.435974	0.000770	7.699862	2.608784	-0.000308
1124	1.1174e+02	-4.7437	-25.662053	0.000567	5.673583	1.922262	-0.000227
1125	1.1184e+02	-4.7822	-25.924467	0.000659	6.585408	2.231197	-0.000264
1126	1.1194e+02	-4.8271	-26.154584	0.000577	5.774896	1.956588	-0.000231
1127	1.1204e+02	-4.8624	-26.421035	0.000669	6.686722	2.265523	-0.000268
1128	1.1214e+02	-4.9041	-26.744006	0.000811	8.105118	2.746088	-0.000325
1129	1.1224e+02	-4.9475	-26.929714	0.000466	4.660443	1.579001	-0.000187
1130	1.1234e+02	-4.9924	-27.228462	0.000750	7.497234	2.540132	-0.000300
1131	1.1244e+02	-5.0196	-27.507024	0.000699	6.990664	2.368501	-0.000280
1132	1.1253e+02	-5.0646	-27.733104	0.000567	5.673583	1.922262	-0.000227
1133	1.1263e+02	-5.1047	-27.975332	0.000608	6.078838	2.059566	-0.000243
1134	1.1273e+02	-5.1464	-28.221597	0.000618	6.180152	2.093892	-0.000248
1135	1.1283e+02	-5.1785	-28.508234	0.000719	7.193292	2.437153	-0.000288
1136	1.1293e+02	-5.2202	-28.693942	0.000466	4.660443	1.579001	-0.000187
1137	1.1303e+02	-5.2619	-28.976542	0.000709	7.091978	2.402827	-0.000284
1138	1.1313e+02	-5.3052	-29.287401	0.000780	7.801176	2.643110	-0.000312
1139	1.1323e+02	-5.3517	-29.517518	0.000577	5.774896	1.956588	-0.000231
1140	1.1333e+02	-5.3822	-29.763783	0.000618	6.180152	2.093892	-0.000248
1141	1.1343e+02	-5.4191	-29.993900	0.000577	5.774896	1.956588	-0.000231
1142	1.1353e+02	-5.4688	-30.252277	0.000648	6.484094	2.196871	-0.000260
1143	1.1363e+02	-5.4945	-30.506616	0.000638	6.382780	2.162545	-0.000256
1144	1.1373e+02	-5.5522	-30.760956	0.000638	6.382780	2.162545	-0.000256
1145	1.1383e+02	-5.5763	-30.999147	0.000598	5.977524	2.025240	-0.000239
1146	1.1393e+02	-5.6244	-31.261561	0.000659	6.585408	2.231197	-0.000264
1147	1.1403e+02	-5.6645	-31.507826	0.000618	6.180152	2.093892	-0.000248
1148	1.1413e+02	-5.6982	-31.713720	0.000517	5.167013	1.750631	-0.000207
1149	1.1423e+02	-5.7367	-31.972096	0.000648	6.484094	2.196871	-0.000260
1150	1.1433e+02	-5.7833	-32.254696	0.000709	7.091978	2.402827	-0.000284
1151	1.1442e+02	-5.8169	-32.444441	0.000476	4.761757	1.613327	-0.000191
1152	1.1452e+02	-5.8619	-32.718967	0.000689	6.889350	2.334175	-0.000276
1153	1.1462e+02	-5.9004	-32.981380	0.000659	6.585408	2.231197	-0.000264
1154	1.1472e+02	-5.9453	-33.231683	0.000628	6.281466	2.128218	-0.000252
1155	1.1482e+02	-5.9838	-33.473911	0.000608	6.078838	2.059566	-0.000243
1156	1.1492e+02	-6.0255	-33.687879	0.000537	5.369641	1.819283	-0.000215
1157	1.1502e+02	-6.0560	-34.022961	0.000841	8.409060	2.849067	-0.000337
1158	1.1512e+02	-6.1057	-34.224818	0.000507	5.065699	1.716305	-0.000203
1159	1.1522e+02	-6.1442	-34.483195	0.000648	6.484094	2.196871	-0.000260
1160	1.1532e+02	-6.1779	-34.721386	0.000598	5.977524	2.025240	-0.000239
1161	1.1542e+02	-6.2212	-34.987837	0.000669	6.686722	2.265523	-0.000268
1162	1.1552e+02	-6.2709	-35.201805	0.000537	5.369641	1.819283	-0.000215
1163	1.1562e+02	-6.2982	-35.472293	0.000679	6.788036	2.299849	-0.000272
1164	1.1572e+02	-6.3463	-35.686261	0.000537	5.369641	1.819283	-0.000215
1165	1.1582e+02	-6.3752	-35.928490	0.000608	6.078838	2.059566	-0.000243
1166	1.1592e+02	-6.4169	-36.194940	0.000669	6.686722	2.265523	-0.000268
1167	1.1602e+02	-6.4554	-36.412946	0.000547	5.470955	1.853610	-0.000219
1168	1.1612e+02	-6.4923	-36.679397	0.000669	6.686722	2.265523	-0.000268
1169	1.1622e+02	-6.5372	-36.897402	0.000547	5.470955	1.853610	-0.000219
1170	1.1632e+02	-6.5677	-37.143667	0.000618	6.180152	2.093892	-0.000248
1171	1.1642e+02	-6.6159	-37.398007	0.000638	6.382780	2.162545	-0.000256
1172	1.1651e+02	-6.6544	-37.660421	0.000659	6.585408	2.231197	-0.000264
1173	1.1661e+02	-6.6945	-37.866315	0.000517	5.167013	1.750631	-0.000207
1174	1.1671e+02	-6.7298	-38.128728	0.000659	6.585408	2.231197	-0.000264
1175	1.1681e+02	-6.7795	-38.338660	0.000527	5.268327	1.784957	-0.000211
1176	1.1691e+02	-6.8164	-38.649519	0.000780	7.801176	2.643110	-0.000312
1177	1.1701e+02	-6.8485	-38.827153	0.000446	4.457815	1.510349	-0.000179
1178	1.1711e+02	-6.8838	-39.109752	0.000709	7.091978	2.402827	-0.000284
1179	1.1721e+02	-6.9303	-39.319684	0.000527	5.268327	1.784957	-0.000211
1180	1.1731e+02	-6.9768	-39.590172	0.000679	6.788036	2.299849	-0.000272
1181	1.1741e+02	-7.0105	-39.800103	0.000527	5.268327	1.784957	-0.000211
1182	1.1751e+02	-7.0538	-40.022145	0.000557	5.572269	1.887936	-0.000223
1183	1.1761e+02	-7.0939	-40.304745	0.000709	7.091978	2.402827	-0.000284
1184	1.1771e+02	-7.1324	-40.510639	0.000517	5.167013	1.750631	-0.000207
1185	1.1781e+02	-7.1661	-40.769015	0.000648	6.484094	2.196871	-0.000260
1186	1.1791e+02	-7.2142	-41.011243	0.000608	6.078838	2.059566	-0.000243
1187	1.1801e+02	-7.2543	-41.229249	0.000547	5.470955	1.853610	-0.000219
1188	1.1811e+02	-7.2928	-41.491663	0.000659	6.585408	2.231197	-0.000264
1189	1.1821e+02	-7.3346	-41.705631	0.000537	5.369641	1.819283	-0.000215
1190	1.1831e+02	-7.3570	-41.959970	0.000638	6.382780	2.162545	-0.000256
1191	1.1841e+02	-7.4196	-42.182013	0.000557	5.572269	1.887936	-0.000223
1192	1.1850e+02	-7.4485	-42.412129	0.000577	5.774896	1.956588	-0.000231
1193	1.1860e+02	-7.4886	-42.694729	0.000709	7.091978	2.402827	-0.000284
1194	1.1870e+02	-7.5335	-42.924846	0.000577	5.774896	1.956588	-0.000231
1195	1.1880e+02	-7.5768	-43.110554	0.000466	4.660443	1.579001	-0.000187
1196	1.1890e+02	-7.6153	-43.377005	0.000669	6.686722	2.265523	-0.000268
1197	1.1900e+02	-7.6538	-43.599047	0.000557	5.572269	1.887936	-0.000223
1198	1.1910e+02	-7.6923	-43.869535	0.000679	6.788036	2.299849	-0.000272
1199	1.1920e+02	-7.7308	-44.047169	0.000446	4.457815	1.510349	-0.000179
1200	1.1930e+02	-7.7597	-44.273249	0.000567	5.673583	1.922262	-0.000227
1201	1.1940e+02	-7.8126	-44.567960	0.000740	7.395920	2.505806	-0.000296
1202	1.1950e+02	-7.8527	-44.773854	0.000517	5.167013	1.750631	-0.000207
1203	1.1960e+02	-7.8864	-45.016082	0.000608	6.078838	2.059566	-0.000243
1204	1.1970e+02	-7.9265	-45.262347	0.000618	6.180152	2.093892	-0.000248
1205	1.1980e+02	-7.9746	-45.500538	0.000598	5.977524	2.025240	-0.000239
1206	1.1990e+02	-8.0051	-45.722581	0.000557	5.572269	1.887936	-0.000223
1207	1.2000e+02	-8.0484	-45.968846	0.000618	6.180152	2.093892	-0.000248
1208	1.2010e+02	-8.0901	-46.211074	0.000608	6.078838	2.059566	-0.000243
1209	1.2020e+02	-8.1270	-46.485599	0.000689	6.889350	2.334175	-0.000276
1210	1.2030e+02	-8.1768	-46.691493	0.000517	5.167013	1.750631	-0.000207
1211	1.2039e+02	-8.2057	-46.921610	0.000577	5.774896	1.956588	-0.000231
1212	1.2049e+02	-8.2538	-47.127504	0.000517	5.167013	1.750631	-0.000207
1213	1.2059e+02	-8.2939	-47.381844	0.000638	6.382780	2.162545	-0.000256
1214	1.2069e+02	-8.3308	-47.660406	0.000699	6.990664	2.368501	-0.000280
1215	1.2079e+02	-8.3677	-47.858226	0.000496	4.964385	1.681979	-0.000199
1216	1.2089e+02	-8.4046	-48.080268	0.000557	5.572269	1.887936	-0.000223
1217	1.2099e+02	-8.4431	-48.310385	0.000577	5.774896	1.956588	-0.000231
1218	1.2109e+02	-8.4976	-48.601059	0.000729	7.294606	2.471479	-0.000292
1219	1.2119e+02	-8.5217	-48.819064	0.000547	5.470955	1.853610	-0.000219
1220	1.2129e+02	-8.5810	-49.069366	0.000628	6.281466	2.128218	-0.000252
1221	1.2139e+02	-8.6067	-49.271223	0.000507	5.065699	1.716305	-0.000203
1222	1.2149e+02	-8.6484	-49.513451	0.000608	6.078838	2.059566	-0.000243
1223	1.2159e+02	-8.6837	-49.731457	0.000547	5.470955	1.853610	-0.000219
1224	1.2169e+02	-8.7334	-49.973685	0.000608	6.078838	2.059566	-0.000243
1225	1.2179e+02	-8.7671	-50.203801	0.000577	5.774896	1.956588	-0.000231
1226	1.2189e+02	-8.8040	-50.417770	0.000537	5.369641	1.819283	-0.000215
1227	1.2199e+02	-8.8425	-50.688258	0.000679	6.788036	2.299849	-0.000272
1228	1.2209e+02	-8.8858	-50.902226	0.000537	5.369641	1.819283	-0.000215
1229	1.2219e+02	-8.9308	-51.160603	0.000648	6.484094	2.196871	-0.000260
1230	1.2229e+02	-8.9661	-51.374571	0.000537	5.369641	1.819283	-0.000215
1231	1.2239e+02	-9.0094	-51.604688	0.000577	5.774896	1.956588	-0.000231
1232	1.2248e+02	-9.0431	-51.822693	0.000547	5.470955	1.853610	-0.000219
1233	1.2258e+02	-9.0880	-52.105292	0.000709	7.091978	2.402827	-0.000284
1234	1.2268e+02	-9.1249	-52.303112	0.000496	4.964385	1.681979	-0.000199
1235	1.2278e+02	-9.1650	-52.525155	0.000557	5.572269	1.887936	-0.000223
1236	1.2288e+02	-9.2035	-52.783531	0.000648	6.484094	2.196871	-0.000260
1237	1.2298e+02	-9.2484	-52.985388	0.000507	5.065699	1.716305	-0.000203
1238	1.2308e+02	-9.2933	-53.243765	0.000648	6.484094	2.196871	-0.000260
1239	1.2318e+02	-9.3174	-53.433510	0.000476	4.761757	1.613327	-0.000191
1240	1.2328e+02	-9.3639	-53.663627	0.000577	5.774896	1.956588	-0.000231
1241	1.2338e+02	-9.4120	-53.909892	0.000618	6.180152	2.093892	-0.000248
1242	1.2348e+02	-9.4505	-54.152120	0.000608	6.078838	2.059566	-0.000243
1243	1.2358e+02	-9.4858	-54.337828	0.000466	4.660443	1.579001	-0.000187
1244	1.2368e+02	-9.5307	-54.596205	0.000648	6.484094	2.196871	-0.000260
1245	1.2378e+02	-9.5660	-54.810173	0.000537	5.369641	1.819283	-0.000215
1246	1.2388e+02	-9.6029	-55.088736	0.000699	6.990664	2.368501	-0.000280
1247	1.2398e+02	-9.6463	-55.266370	0.000446	4.457815	1.510349	-0.000179
1248	1.2408e+02	-9.6848	-55.516672	0.000628	6.281466	2.128218	-0.000252
1249	1.2418e+02	-9.7200	-55.758900	0.000608	6.078838	2.059566	-0.000243
1250	1.2428e+02	-9.7698	-55.912311	0.000385	3.849931	1.304392	-0.000154
1251	1.2438e+02	-9.8003	-56.162614	0.000628	6.281466	2.128218	-0.000252
1252	1.2447e+02	-9.8420	-56.388693	0.000567	5.673583	1.922262	-0.000227
1253	1.2457e+02	-9.8869	-56.610736	0.000557	5.572269	1.887936	-0.000223
1254	1.2467e+02	-9.9270	-56.873150	0.000659	6.585408	2.231197	-0.000264
1255	1.2477e+02	-9.9607	-57.087118	0.000537	5.369641	1.819283	-0.000215
1256	1.2487e+02	-10.0056	-57.288975	0.000507	5.065699	1.716305	-0.000203
1257	1.2497e+02	-10.0393	-57.523129	0.000588	5.876210	1.990914	-0.000235
1258	1.2507e+02	-10.0730	-57.733060	0.000527	5.268327	1.784957	-0.000211
1259	1.2517e+02	-10.1227	-57.987399	0.000638	6.382780	2.162545	-0.000256
1260	1.2527e+02	-10.1564	-58.189256	0.000507	5.065699	1.716305	-0.000203
1261	1.2537e+02	-10.2029	-58.399187	0.000527	5.268327	1.784957	-0.000211
1262	1.2547e+02	-10.2446	-58.625267	0.000567	5.673583	1.922262	-0.000227
1263	1.2557e+02	-10.2815	-58.875569	0.000628	6.281466	2.128218	-0.000252
1264	1.2567e+02	-10.3200	-59.077426	0.000507	5.065699	1.716305	-0.000203
1265	1.2577e+02	-10.3649	-59.339840	0.000659	6.585408	2.231197	-0.000264
1266	1.2587e+02	-10.4067	-59.525548	0.000466	4.660443	1.579001	-0.000187
1267	1.2597e+02	-10.4420	-59.787962	0.000659	6.585408	2.231197	-0.000264
1268	1.2607e+02	-10.4981	-59.985781	0.000496	4.964385	1.681979	-0.000199
1269	1.2617e+02	-10.5174	-60.187638	0.000507	5.065699	1.716305	-0.000203
1270	1.2627e+02	-10.5494	-60.413718	0.000567	5.673583	1.922262	-0.000227
1271	1.2636e+02	-10.5992	-60.647872	0.000588	5.876210	1.990914	-0.000235
1272	1.2646e+02	-10.6441	-60.877988	0.000577	5.774896	1.956588	-0.000231
1273	1.2656e+02	-10.6858	-61.059659	0.000456	4.559129	1.544675	-0.000183
1274	1.2666e+02	-10.7163	-61.297850	0.000598	5.977524	2.025240	-0.000239
1275	1.2676e+02	-10.7580	-61.483559	0.000466	4.660443	1.579001	-0.000187
1276	1.2686e+02	-10.8013	-61.721750	0.000598	5.977524	2.025240	-0.000239
1277	1.2696e+02	-10.8382	-61.963978	0.000608	6.078838	2.059566	-0.000243
1278	1.2706e+02	-10.8847	-62.157760	0.000486	4.863071	1.647653	-0.000195
1279	1.2716e+02	-10.9184	-62.399989	0.000608	6.078838	2.059566	-0.000243
1280	1.2726e+02	-10.9601	-62.605882	0.000517	5.167013	1.750631	-0.000207
1281	1.2736e+02	-11.0002	-62.844073	0.000598	5.977524	2.025240	-0.000239
1282	1.2746e+02	-11.0355	-63.074190	0.000577	5.774896	1.956588	-0.000231
1283	1.2756e+02	-11.0869	-63.251824	0.000446	4.457815	1.510349	-0.000179
1284	1.2766e+02	-11.1141	-63.477904	0.000567	5.673583	1.922262	-0.000227
1285	1.2776e+02	-11.1639	-63.687835	0.000527	5.268327	1.784957	-0.000211
1286	1.2786e+02	-11.1943	-63.934100	0.000618	6.180152	2.093892	-0.000248
1287	1.2796e+02	-11.2344	-64.152105	0.000547	5.470955	1.853610	-0.000219
1288	1.2806e+02	-11.2794	-64.341851	0.000476	4.761757	1.613327	-0.000191
1289	1.2816e+02	-11.3195	-64.571968	0.000577	5.774896	1.956588	-0.000231
1290	1.2826e+02	-11.3596	-64.773824	0.000507	5.065699	1.716305	-0.000203
1291	1.2835e+02	-11.4029	-64.995867	0.000557	5.572269	1.887936	-0.000223
1292	1.2845e+02	-11.4318	-65.242132	0.000618	6.180152	2.093892	-0.000248
1293	1.2855e+02	-11.4831	-65.419766	0.000446	4.457815	1.510349	-0.000179
1294	1.2865e+02	-11.5168	-65.649883	0.000577	5.774896	1.956588	-0.000231
1295	1.2875e+02	-11.5537	-65.847702	0.000496	4.964385	1.681979	-0.000199
1296	1.2885e+02	-11.5842	-66.041485	0.000486	4.863071	1.647653	-0.000195
1297	1.2895e+02	-11.6355	-66.311973	0.000679	6.788036	2.299849	-0.000272
1298	1.2905e+02	-11.6740	-66.505756	0.000486	4.863071	1.647653	-0.000195
1299	1.2915e+02	-11.7109	-66.723761	0.000547	5.470955	1.853610	-0.000219
1300	1.2925e+02	-11.7542	-66.905432	0.000456	4.559129	1.544675	-0.000183
1301	1.2935e+02	-11.7959	-67.135549	0.000577	5.774896	1.956588	-0.000231
1302	1.2945e+02	-11.8296	-67.305108	0.000426	4.255187	1.441696	-0.000170
1303	1.2955e+02	-11.8842	-67.523114	0.000547	5.470955	1.853610	-0.000219
1304	1.2965e+02	-11.9146	-67.729008	0.000517	5.167013	1.750631	-0.000207
1305	1.2975e+02	-11.9563	-67.963162	0.000588	5.876210	1.990914	-0.000235
1306	1.2985e+02	-11.9900	-68.132721	0.000426	4.255187	1.441696	-0.000170
1307	1.2995e+02	-12.0317	-68.350727	0.000547	5.470955	1.853610	-0.000219
1308	1.3005e+02	-12.0751	-68.592955	0.000608	6.078838	2.059566	-0.000243
1309	1.3015e+02	-12.1232	-68.786737	0.000486	4.863071	1.647653	-0.000195
1310	1.3025e+02	-12.1521	-68.976483	0.000476	4.761757	1.613327	-0.000191
1311	1.3034e+02	-12.1890	-69.214674	0.000598	5.977524	2.025240	-0.000239
1312	1.3044e+02	-12.2387	-69.408456	0.000486	4.863071	1.647653	-0.000195
1313	1.3054e+02	-12.2708	-69.590127	0.000456	4.559129	1.544675	-0.000183
1314	1.3064e+02	-12.3189	-69.848504	0.000648	6.484094	2.196871	-0.000260
1315	1.3074e+02	-12.3574	-70.034212	0.000466	4.660443	1.579001	-0.000187
1316	1.3084e+02	-12.3927	-70.227995	0.000486	4.863071	1.647653	-0.000195
1317	1.3094e+02	-12.4360	-70.450037	0.000557	5.572269	1.887936	-0.000223
1318	1.3104e+02	-12.4697	-70.643820	0.000486	4.863071	1.647653	-0.000195
1319	1.3114e+02	-12.5146	-70.877974	0.000588	5.876210	1.990914	-0.000235
1320	1.3124e+02	-12.5611	-71.095979	0.000547	5.470955	1.853610	-0.000219
1321	1.3134e+02	-12.6012	-71.281687	0.000466	4.660443	1.579001	-0.000187
1322	1.3144e+02	-12.6269	-71.483544	0.000507	5.065699	1.716305	-0.000203
1323	1.3154e+02	-12.6750	-71.689438	0.000517	5.167013	1.750631	-0.000207
1324	1.3164e+02	-12.7200	-71.903406	0.000537	5.369641	1.819283	-0.000215
1325	1.3174e+02	-12.7569	-72.097189	0.000486	4.863071	1.647653	-0.000195
1326	1.3184e+02	-12.7954	-72.331342	0.000588	5.876210	1.990914	-0.000235
1327	1.3194e+02	-12.8323	-72.496865	0.000415	4.153873	1.407370	-0.000166
1328	1.3204e+02	-12.8659	-72.763316	0.000669	6.686722	2.265523	-0.000268
1329	1.3214e+02	-12.9109	-72.965173	0.000507	5.065699	1.716305	-0.000203
1330	1.3224e+02	-12.9462	-73.134732	0.000426	4.255187	1.441696	-0.000170
1331	1.3234e+02	-13.0007	-73.328515	0.000486	4.863071	1.647653	-0.000195
1332	1.3243e+02	-13.0376	-73.550557	0.000557	5.572269	1.887936	-0.000223
1333	1.3253e+02	-13.0681	-73.744340	0.000486	4.863071	1.647653	-0.000195
1334	1.3263e+02	-13.1034	-73.962345	0.000547	5.470955	1.853610	-0.000219
1335	1.3273e+02	-13.1435	-74.176313	0.000537	5.369641	1.819283	-0.000215
1336	1.3283e+02	-13.1932	-74.357985	0.000456	4.559129	1.544675	-0.000183
1337	1.3293e+02	-13.2397	-74.563879	0.000517	5.167013	1.750631	-0.000207
1338	1.3303e+02	-13.2686	-74.793995	0.000577	5.774896	1.956588	-0.000231
1339	1.3313e+02	-13.3087	-75.007963	0.000537	5.369641	1.819283	-0.000215
1340	1.3323e+02	-13.3536	-75.157337	0.000375	3.748617	1.270066	-0.000150
1341	1.3333e+02	-13.3937	-75.391491	0.000588	5.876210	1.990914	-0.000235
1342	1.3343e+02	-13.4306	-75.593348	0.000507	5.065699	1.716305	-0.000203
1343	1.3353e+02	-13.4691	-75.775019	0.000456	4.559129	1.544675	-0.000183
1344	1.3363e+02	-13.5028	-75.964765	0.000476	4.761757	1.613327	-0.000191
1345	1.3373e+02	-13.5429	-76.174696	0.000527	5.268327	1.784957	-0.000211
1346	1.3383e+02	-13.5895	-76.384627	0.000527	5.268327	1.784957	-0.000211
1347	1.3393e+02	-13.6344	-76.622818	0.000598	5.977524	2.025240	-0.000239
1348	1.3403e+02	-13.6697	-76.760080	0.000344	3.444675	1.167088	-0.000138
1349	1.3413e+02	-13.7066	-77.034606	0.000689	6.889350	2.334175	-0.000276
1350	1.3423e+02	-13.7403	-77.192054	0.000395	3.951245	1.338718	-0.000158
1351	1.3432e+02	-13.7820	-77.377762	0.000466	4.660443	1.579001	-0.000187
1352	1.3442e+02	-13.8173	-77.583656	0.000517	5.167013	1.750631	-0.000207
1353	1.3452e+02	-13.8750	-77.789550	0.000517	5.167013	1.750631	-0.000207
1354	1.3462e+02	-13.9007	-78.003518	0.000537	5.369641	1.819283	-0.000215
1355	1.3472e+02	-13.9376	-78.225561	0.000557	5.572269	1.887936	-0.000223
1356	1.3482e+02	-13.9825	-78.395120	0.000426	4.255187	1.441696	-0.000170
1357	1.3492e+02	-14.0322	-78.560643	0.000415	4.153873	1.407370	-0.000166
1358	1.3502e+02	-14.0643	-78.790760	0.000577	5.774896	1.956588	-0.000231
1359	1.3512e+02	-14.1092	-78.972431	0.000456	4.559129	1.544675	-0.000183
1360	1.3522e+02	-14.1445	-79.234845	0.000659	6.585408	2.231197	-0.000264
1361	1.3532e+02	-14.1830	-79.420553	0.000466	4.660443	1.579001	-0.000187
1362	1.3542e+02	-14.2328	-79.650670	0.000577	5.774896	1.956588	-0.000231
1363	1.3552e+02	-14.2632	-79.860601	0.000527	5.268327	1.784957	-0.000211
1364	1.3562e+02	-14.3162	-80.005937	0.000365	3.647303	1.235740	-0.000146
1365	1.3572e+02	-14.3499	-80.219906	0.000537	5.369641	1.819283	-0.000215
1366	1.3582e+02	-14.3964	-80.450022	0.000577	5.774896	1.956588	-0.000231
1367	1.3592e+02	-14.4269	-80.651879	0.000507	5.065699	1.716305	-0.000203
1368	1.3602e+02	-14.4750	-80.825476	0.000436	4.356501	1.476022	-0.000174
1369	1.3612e+02	-14.5023	-81.051556	0.000567	5.673583	1.922262	-0.000227
1370	1.3622e+02	-14.5488	-81.225152	0.000436	4.356501	1.476022	-0.000174
1371	1.3631e+02	-14.5857	-81.435084	0.000527	5.268327	1.784957	-0.000211
1372	1.3641e+02	-14.6146	-81.645015	0.000527	5.268327	1.784957	-0.000211
1373	1.3651e+02	-14.6659	-81.806500	0.000405	4.052559	1.373044	-0.000162
1374	1.3661e+02	-14.7092	-82.040654	0.000588	5.876210	1.990914	-0.000235
1375	1.3671e+02	-14.7461	-82.270771	0.000577	5.774896	1.956588	-0.000231
1376	1.3681e+02	-14.7830	-82.468590	0.000496	4.964385	1.681979	-0.000199
1377	1.3691e+02	-14.8295	-82.597779	0.000324	3.242047	1.098435	-0.000130
1378	1.3701e+02	-14.8632	-82.840007	0.000608	6.078838	2.059566	-0.000243
1379	1.3711e+02	-14.9049	-82.989381	0.000375	3.748617	1.270066	-0.000150
1380	1.3721e+02	-14.9531	-83.231609	0.000608	6.078838	2.059566	-0.000243
1381	1.3731e+02	-14.9883	-83.417317	0.000466	4.660443	1.579001	-0.000187
1382	1.3741e+02	-15.0204	-83.627248	0.000527	5.268327	1.784957	-0.000211
1383	1.3751e+02	-15.0573	-83.821031	0.000486	4.863071	1.647653	-0.000195
1384	1.3761e+02	-15.1039	-84.051147	0.000577	5.774896	1.956588	-0.000231
1385	1.3771e+02	-15.1472	-84.244930	0.000486	4.863071	1.647653	-0.000195
1386	1.3781e+02	-15.1809	-84.466972	0.000557	5.572269	1.887936	-0.000223
1387	1.3791e+02	-15.2178	-84.652681	0.000466	4.660443	1.579001	-0.000187
1388	1.3801e+02	-15.2643	-84.785906	0.000334	3.343361	1.132761	-0.000134
1389	1.3811e+02	-15.2948	-85.048320	0.000659	6.585408	2.231197	-0.000264
1390	1.3821e+02	-15.3381	-85.238065	0.000476	4.761757	1.613327	-0.000191
1391	1.3831e+02	-15.3846	-85.411662	0.000436	4.356501	1.476022	-0.000174
1392	1.3840e+02	-15.4231	-85.637742	0.000567	5.673583	1.922262	-0.000227
1393	1.3850e+02	-15.4616	-85.879970	0.000608	6.078838	2.059566	-0.000243
1394	1.3860e+02	-15.5049	-86.045493	0.000415	4.153873	1.407370	-0.000166
1395	1.3870e+02	-15.5450	-86.259461	0.000537	5.369641	1.819283	-0.000215
1396	1.3880e+02	-15.5835	-86.445169	0.000466	4.660443	1.579001	-0.000187
1397	1.3890e+02	-15.6252	-86.651063	0.000517	5.167013	1.750631	-0.000207
1398	1.3900e+02	-15.6477	-86.836771	0.000466	4.660443	1.579001	-0.000187
1399	1.3910e+02	-15.7022	-87.050739	0.000537	5.369641	1.819283	-0.000215
1400	1.3920e+02	-15.7488	-87.228373	0.000446	4.457815	1.510349	-0.000179
1401	1.3930e+02	-15.7840	-87.442342	0.000537	5.369641	1.819283	-0.000215
1402	1.3940e+02	-15.8225	-87.684570	0.000608	6.078838	2.059566	-0.000243
1403	1.3950e+02	-15.8610	-87.866241	0.000456	4.559129	1.544675	-0.000183
1404	1.3960e+02	-15.9028	-88.047912	0.000456	4.559129	1.544675	-0.000183
1405	1.3970e+02	-15.9348	-88.225546	0.000446	4.457815	1.510349	-0.000179
1406	1.3980e+02	-15.9814	-88.427403	0.000507	5.065699	1.716305	-0.000203
1407	1.3990e+02	-16.0183	-88.617148	0.000476	4.761757	1.613327	-0.000191
1408	1.4000e+02	-16.0632	-88.851302	0.000588	5.876210	1.990914	-0.000235
1409	1.4010e+02	-16.1033	-89.049122	0.000496	4.964385	1.681979	-0.000199
1410	1.4020e+02	-16.1418	-89.226756	0.000446	4.457815	1.510349	-0.000179
1411	1.4029e+02	-16.1835	-89.432649	0.000517	5.167013	1.750631	-0.000207
1412	1.4039e+02	-16.2156	-89.634506	0.000507	5.065699	1.716305	-0.000203
1413	1.4049e+02	-16.2541	-89.804066	0.000426	4.255187	1.441696	-0.000170
1414	1.4059e+02	-16.3038	-90.038220	0.000588	5.876210	1.990914	-0.000235
1415	1.4069e+02	-16.3423	-90.215854	0.000446	4.457815	1.510349	-0.000179
1416	1.4079e+02	-16.3728	-90.417711	0.000507	5.065699	1.716305	-0.000203
1417	1.4089e+02	-16.4225	-90.623604	0.000517	5.167013	1.750631	-0.000207
1418	1.4099e+02	-16.4514	-90.829498	0.000517	5.167013	1.750631	-0.000207
1419	1.4109e+02	-16.4931	-91.027318	0.000496	4.964385	1.681979	-0.000199
1420	1.4119e+02	-16.5300	-91.200915	0.000436	4.356501	1.476022	-0.000174
1421	1.4129e+02	-16.5701	-91.374512	0.000436	4.356501	1.476022	-0.000174
1422	1.4139e+02	-16.6182	-91.612703	0.000598	5.977524	2.025240	-0.000239
1423	1.4149e+02	-16.6584	-91.778225	0.000415	4.153873	1.407370	-0.000166
1424	1.4159e+02	-16.6904	-92.028528	0.000628	6.281466	2.128218	-0.000252
1425	1.4169e+02	-16.7418	-92.254607	0.000567	5.673583	1.922262	-0.000227
1426	1.4179e+02	-16.7819	-92.420130	0.000415	4.153873	1.407370	-0.000166
1427	1.4189e+02	-16.8188	-92.630061	0.000527	5.268327	1.784957	-0.000211
1428	1.4199e+02	-16.8509	-92.848066	0.000547	5.470955	1.853610	-0.000219
1429	1.4209e+02	-16.8910	-93.021663	0.000436	4.356501	1.476022	-0.000174
1430	1.4219e+02	-16.9391	-93.195260	0.000436	4.356501	1.476022	-0.000174
1431	1.4228e+02	-16.9744	-93.413265	0.000547	5.470955	1.853610	-0.000219
1432	1.4238e+02	-17.0129	-93.590899	0.000446	4.457815	1.510349	-0.000179
1433	1.4248e+02	-17.0562	-93.804867	0.000537	5.369641	1.819283	-0.000215
1434	1.4258e+02	-17.0995	-94.002687	0.000496	4.964385	1.681979	-0.000199
1435	1.4268e+02	-17.1332	-94.208581	0.000517	5.167013	1.750631	-0.000207
1436	1.4278e+02	-17.1781	-94.454846	0.000618	6.180152	2.093892	-0.000248
1437	1.4288e+02	-17.2166	-94.656703	0.000507	5.065699	1.716305	-0.000203
1438	1.4298e+02	-17.2615	-94.826263	0.000426	4.255187	1.441696	-0.000170
1439	1.4308e+02	-17.2904	-95.024082	0.000496	4.964385	1.681979	-0.000199
1440	1.4318e+02	-17.3321	-95.234013	0.000527	5.268327	1.784957	-0.000211
1441	1.4328e+02	-17.3787	-95.468167	0.000588	5.876210	1.990914	-0.000235
1442	1.4338e+02	-17.4156	-95.613504	0.000365	3.647303	1.235740	-0.000146
1443	1.4348e+02	-17.4557	-95.839584	0.000567	5.673583	1.922262	-0.000227
1444	1.4358e+02	-17.4990	-96.025292	0.000466	4.660443	1.579001	-0.000187
1445	1.4368e+02	-17.5391	-96.239260	0.000537	5.369641	1.819283	-0.000215
1446	1.4378e+02	-17.5728	-96.437080	0.000496	4.964385	1.681979	-0.000199
1447	1.4388e+02	-17.6193	-96.614714	0.000446	4.457815	1.510349	-0.000179
1448	1.4398e+02	-17.6450	-96.808496	0.000486	4.863071	1.647653	-0.000195
1449	1.4408e+02	-17.6995	-97.018427	0.000527	5.268327	1.784957	-0.000211
1450	1.4418e+02	-17.7300	-97.272767	0.000638	6.382780	2.162545	-0.000256
1451	1.4428e+02	-17.7749	-97.454438	0.000456	4.559129	1.544675	-0.000183
1452	1.4437e+02	-17.8070	-97.623998	0.000426	4.255187	1.441696	-0.000170
1453	1.4447e+02	-17.8599	-97.854115	0.000577	5.774896	1.956588	-0.000231
1454	1.4457e+02	-17.8840	-98.055971	0.000507	5.065699	1.716305	-0.000203
1455	1.4467e+02	-17.9289	-98.269940	0.000537	5.369641	1.819283	-0.000215
1456	1.4477e+02	-17.9706	-98.459685	0.000476	4.761757	1.613327	-0.000191
1457	1.4487e+02	-18.0123	-98.661542	0.000507	5.065699	1.716305	-0.000203
1458	1.4497e+02	-18.0540	-98.895696	0.000588	5.876210	1.990914	-0.000235
1459	1.4507e+02	-18.0990	-99.089478	0.000486	4.863071	1.647653	-0.000195
1460	1.4517e+02	-18.1359	-99.271149	0.000456	4.559129	1.544675	-0.000183
1461	1.4527e+02	-18.1663	-99.493192	0.000557	5.572269	1.887936	-0.000223
1462	1.4537e+02	-18.2129	-99.707160	0.000537	5.369641	1.819283	-0.000215
1463	1.4547e+02	-18.2449	-99.925165	0.000547	5.470955	1.853610	-0.000219
1464	1.4557e+02	-18.2979	-100.074539	0.000375	3.748617	1.270066	-0.000150
1465	1.4567e+02	-18.3316	-100.280433	0.000517	5.167013	1.750631	-0.000207
1466	1.4577e+02	-18.3701	-100.494401	0.000537	5.369641	1.819283	-0.000215
1467	1.4587e+02	-18.4118	-100.704332	0.000527	5.268327	1.784957	-0.000211
1468	1.4597e+02	-18.4503	-100.930412	0.000567	5.673583	1.922262	-0.000227
1469	1.4607e+02	-18.4904	-101.164566	0.000588	5.876210	1.990914	-0.000235
1470	1.4617e+02	-18.5257	-101.322014	0.000395	3.951245	1.338718	-0.000158
1471	1.4626e+02	-18.5722	-101.564242	0.000608	6.078838	2.059566	-0.000243
1472	1.4636e+02	-18.6075	-101.745913	0.000456	4.559129	1.544675	-0.000183
1473	1.4646e+02	-18.6412	-101.963919	0.000547	5.470955	1.853610	-0.000219
1474	1.4656e+02	-18.6893	-102.129441	0.000415	4.153873	1.407370	-0.000166
1475	1.4666e+02	-18.7246	-102.335335	0.000517	5.167013	1.750631	-0.000207
1476	1.4676e+02	-18.7663	-102.585638	0.000628	6.281466	2.128218	-0.000252
1477	1.4686e+02	-18.8112	-102.783457	0.000496	4.964385	1.681979	-0.000199
1478	1.4696e+02	-18.8433	-102.985314	0.000507	5.065699	1.716305	-0.000203
1479	1.4706e+02	-18.8947	-103.223505	0.000598	5.977524	2.025240	-0.000239
1480	1.4716e+02	-18.9299	-103.397102	0.000436	4.356501	1.476022	-0.000174
1481	1.4726e+02	-18.9733	-103.594922	0.000496	4.964385	1.681979	-0.000199
1482	1.4736e+02	-19.0053	-103.829075	0.000588	5.876210	1.990914	-0.000235
1483	1.4746e+02	-19.0551	-104.047081	0.000547	5.470955	1.853610	-0.000219
1484	1.4756e+02	-19.0872	-104.240863	0.000486	4.863071	1.647653	-0.000195
1485	1.4766e+02	-19.1273	-104.466943	0.000567	5.673583	1.922262	-0.000227
1486	1.4776e+02	-19.1706	-104.701097	0.000588	5.876210	1.990914	-0.000235
1487	1.4786e+02	-19.1962	-104.906991	0.000517	5.167013	1.750631	-0.000207
1488	1.4796e+02	-19.2428	-105.116922	0.000527	5.268327	1.784957	-0.000211
1489	1.4806e+02	-19.2877	-105.347039	0.000577	5.774896	1.956588	-0.000231
1490	1.4816e+02	-19.3278	-105.585230	0.000598	5.977524	2.025240	-0.000239
1491	1.4825e+02	-19.3567	-105.787086	0.000507	5.065699	1.716305	-0.000203
1492	1.4835e+02	-19.4064	-106.045463	0.000648	6.484094	2.196871	-0.000260
1493	1.4845e+02	-19.4513	-106.223097	0.000446	4.457815	1.510349	-0.000179
1494	1.4855e+02	-19.4866	-106.445139	0.000557	5.572269	1.887936	-0.000223
1495	1.4865e+02	-19.5203	-106.659108	0.000537	5.369641	1.819283	-0.000215
1496	1.4875e+02	-19.5604	-106.897299	0.000598	5.977524	2.025240	-0.000239
1497	1.4885e+02	-19.6053	-107.099155	0.000507	5.065699	1.716305	-0.000203
1498	1.4895e+02	-19.6454	-107.329272	0.000577	5.774896	1.956588	-0.000231
1499	1.4905e+02	-19.6807	-107.519018	0.000476	4.761757	1.613327	-0.000191
1500	1.4915e+02	-19.7192	-107.805654	0.000719	7.193292	2.437153	-0.000288
1501	1.4925e+02	-19.7674	-107.975214	0.000426	4.255187	1.441696	-0.000170
1502	1.4935e+02	-19.8010	-108.225516	0.000628	6.281466	2.128218	-0.000252
1503	1.4945e+02	-19.8460	-108.455633	0.000577	5.774896	1.956588	-0.000231
1504	1.4955e+02	-19.8877	-108.653453	0.000496	4.964385	1.681979	-0.000199
1505	1.4965e+02	-19.9230	-108.887607	0.000588	5.876210	1.990914	-0.000235
1506	1.4975e+02	-19.9631	-109.137909	0.000628	6.281466	2.128218	-0.000252
1507	1.4985e+02	-20.0048	-109.319580	0.000456	4.559129	1.544675	-0.000183
1508	1.4995e+02	-19.9599	-109.307469	0.000030	0.303942	0.102978	0.000012
1509	1.5005e+02	-19.9230	-109.206540	0.000253	2.532849	0.858153	0.000101
1510	1.5015e+02	-19.8925	-109.166169	0.000101	1.013140	0.343261	0.000041
1511	1.5025e+02	-19.8444	-109.113686	0.000132	1.317082	0.446239	0.000053
1512	1.5034e+02	-19.8091	-108.988535	0.000314	3.140733	1.064109	0.000126
1513	1.5044e+02	-19.7625	-108.903755	0.000213	2.127593	0.720848	0.000085
1514	1.5054e+02	-19.7273	-108.827050	0.000192	1.924965	0.652196	0.000077
1515	1.5064e+02	-19.6823	-108.750344	0.000192	1.924965	0.652196	0.000077
1516	1.5074e+02	-19.6502	-108.641341	0.000274	2.735477	0.926805	0.000110
1517	1.5084e+02	-19.6005	-108.568673	0.000182	1.823652	0.617870	0.000073
1518	1.5094e+02	-19.5636	-108.451596	0.000294	2.938105	0.995457	0.000118
1519	1.5104e+02	-19.5283	-108.346630	0.000263	2.634163	0.892479	0.000105
1520	1.5114e+02	-19.4802	-108.261851	0.000213	2.127593	0.720848	0.000085
1521	1.5124e+02	-19.4529	-108.152848	0.000274	2.735477	0.926805	0.000110
1522	1.5134e+02	-19.3984	-108.088254	0.000162	1.621024	0.549218	0.000065
1523	1.5144e+02	-19.3743	-107.930805	0.000395	3.951245	1.338718	0.000158
1524	1.5154e+02	-19.3294	-107.837951	0.000233	2.330221	0.789500	0.000093
1525	1.5164e+02	-19.2909	-107.712800	0.000314	3.140733	1.064109	0.000126
1526	1.5174e+02	-19.2428	-107.611872	0.000253	2.532849	0.858153	0.000101
1527	1.5184e+02	-19.2075	-107.514980	0.000243	2.431535	0.823826	0.000097
1528	1.5194e+02	-19.1658	-107.397903	0.000294	2.938105	0.995457	0.000118
1529	1.5204e+02	-19.1257	-107.272752	0.000314	3.140733	1.064109	0.000126
1530	1.5214e+02	-19.0888	-107.167787	0.000263	2.634163	0.892479	0.000105
1531	1.5224e+02	-19.0487	-107.066858	0.000253	2.532849	0.858153	0.000101
1532	1.5233e+02	-19.0053	-106.969967	0.000243	2.431535	0.823826	0.000097
1533	1.5243e+02	-18.9701	-106.832704	0.000344	3.444675	1.167088	0.000138
1534	1.5253e+02	-18.9235	-106.679293	0.000385	3.849931	1.304392	0.000154
1535	1.5263e+02	-18.8930	-106.614699	0.000162	1.621024	0.549218	0.000065
1536	1.5273e+02	-18.8529	-106.453214	0.000405	4.052559	1.373044	0.000162
1537	1.5283e+02	-18.8080	-106.340174	0.000284	2.836791	0.961131	0.000114
1538	1.5293e+02	-18.7743	-106.239246	0.000253	2.532849	0.858153	0.000101
1539	1.5303e+02	-18.7342	-106.122169	0.000294	2.938105	0.995457	0.000118
1540	1.5313e+02	-18.6861	-105.960683	0.000405	4.052559	1.373044	0.000162
1541	1.5323e+02	-18.6460	-105.859755	0.000253	2.532849	0.858153	0.000101
1542	1.5333e+02	-18.6075	-105.730566	0.000324	3.242047	1.098435	0.000130
1543	1.5343e+02	-18.5722	-105.601378	0.000324	3.242047	1.098435	0.000130
1544	1.5353e+02	-18.5337	-105.492375	0.000274	2.735477	0.926805	0.000110
1545	1.5363e+02	-18.4872	-105.359150	0.000334	3.343361	1.132761	0.000134
1546	1.5373e+02	-18.4471	-105.205739	0.000385	3.849931	1.304392	0.000154
1547	1.5383e+02	-18.4150	-105.060402	0.000365	3.647303	1.235740	0.000146
1548	1.5393e+02	-18.3620	-104.991771	0.000172	1.722338	0.583544	0.000069
1549	1.5403e+02	-18.3284	-104.826248	0.000415	4.153873	1.407370	0.000166
1550	1.5413e+02	-18.2883	-104.697060	0.000324	3.242047	1.098435	0.000130
1551	1.5422e+02	-18.2562	-104.579983	0.000294	2.938105	0.995457	0.000118
1552	1.5432e+02	-18.2145	-104.394274	0.000466	4.660443	1.579001	0.000187
1553	1.5442e+02	-18.1824	-104.305457	0.000223	2.228907	0.755174	0.000089
1554	1.5452e+02	-18.1391	-104.204529	0.000253	2.532849	0.858153	0.000101
1555	1.5462e+02	-18.0941	-104.055155	0.000375	3.748617	1.270066	0.000150
1556	1.5472e+02	-18.0508	-103.954227	0.000253	2.532849	0.858153	0.000101
1557	1.5482e+02	-18.0123	-103.821001	0.000334	3.343361	1.132761	0.000134
1558	1.5492e+02	-17.9690	-103.639330	0.000456	4.559129	1.544675	0.000183
1559	1.5502e+02	-17.9369	-103.510142	0.000324	3.242047	1.098435	0.000130
1560	1.5512e+02	-17.8872	-103.372879	0.000344	3.444675	1.167088	0.000138
1561	1.5522e+02	-17.8583	-103.275988	0.000243	2.431535	0.823826	0.000097
1562	1.5532e+02	-17.8134	-103.126614	0.000375	3.748617	1.270066	0.000150
1563	1.5542e+02	-17.7685	-103.021648	0.000263	2.634163	0.892479	0.000105
1564	1.5552e+02	-17.7316	-102.864200	0.000395	3.951245	1.338718	0.000158
1565	1.5562e+02	-17.6979	-102.686566	0.000446	4.457815	1.510349	0.000179
1566	1.5572e+02	-17.6514	-102.589675	0.000243	2.431535	0.823826	0.000097
1567	1.5582e+02	-17.6161	-102.468561	0.000304	3.039419	1.029783	0.000122
1568	1.5592e+02	-17.5808	-102.299001	0.000426	4.255187	1.441696	0.000170
1569	1.5602e+02	-17.5423	-102.194036	0.000263	2.634163	0.892479	0.000105
1570	1.5612e+02	-17.5054	-101.988142	0.000517	5.167013	1.750631	0.000207
1571	1.5622e+02	-17.4653	-101.887213	0.000253	2.532849	0.858153	0.000101
1572	1.5631e+02	-17.4123	-101.766099	0.000304	3.039419	1.029783	0.000122
1573	1.5641e+02	-17.3803	-101.632874	0.000334	3.343361	1.132761	0.000134
1574	1.5651e+02	-17.3369	-101.451203	0.000456	4.559129	1.544675	0.000183
1575	1.5661e+02	-17.2952	-101.346237	0.000263	2.634163	0.892479	0.000105
1576	1.5671e+02	-17.2551	-101.221086	0.000314	3.140733	1.064109	0.000126
1577	1.5681e+02	-17.2214	-101.063637	0.000395	3.951245	1.338718	0.000158
1578	1.5691e+02	-17.1861	-100.890041	0.000436	4.356501	1.476022	0.000174
1579	1.5701e+02	-17.1380	-100.777001	0.000284	2.836791	0.961131	0.000114
1580	1.5711e+02	-17.0931	-100.607441	0.000426	4.255187	1.441696	0.000170
1581	1.5721e+02	-17.0530	-100.421733	0.000466	4.660443	1.579001	0.000187
1582	1.5731e+02	-17.0305	-100.328879	0.000233	2.330221	0.789500	0.000093
1583	1.5741e+02	-16.9808	-100.175468	0.000385	3.849931	1.304392	0.000154
1584	1.5751e+02	-16.9439	-100.054354	0.000304	3.039419	1.029783	0.000122
1585	1.5761e+02	-16.9118	-99.860571	0.000486	4.863071	1.647653	0.000195
1586	1.5771e+02	-16.8541	-99.747531	0.000284	2.836791	0.961131	0.000114
1587	1.5781e+02	-16.8108	-99.582009	0.000415	4.153873	1.407370	0.000166
1588	1.5791e+02	-16.7771	-99.404375	0.000446	4.457815	1.510349	0.000179
1589	1.5801e+02	-16.7450	-99.279224	0.000314	3.140733	1.064109	0.000126
1590	1.5811e+02	-16.7017	-99.158109	0.000304	3.039419	1.029783	0.000122
1591	1.5821e+02	-16.6519	-98.984513	0.000436	4.356501	1.476022	0.000174
1592	1.5830e+02	-16.6247	-98.867436	0.000294	2.938105	0.995457	0.000118
1593	1.5840e+02	-16.5733	-98.730173	0.000344	3.444675	1.167088	0.000138
1594	1.5850e+02	-16.5380	-98.588873	0.000355	3.545989	1.201414	0.000142
1595	1.5860e+02	-16.4883	-98.387017	0.000507	5.065699	1.716305	0.000203
1596	1.5870e+02	-16.4594	-98.282051	0.000263	2.634163	0.892479	0.000105
1597	1.5880e+02	-16.4113	-98.132677	0.000375	3.748617	1.270066	0.000150
1598	1.5890e+02	-16.3728	-97.999451	0.000334	3.343361	1.132761	0.000134
1599	1.5900e+02	-16.3375	-97.821818	0.000446	4.457815	1.510349	0.000179
1600	1.5910e+02	-16.2990	-97.672443	0.000375	3.748617	1.270066	0.000150
1601	1.5920e+02	-16.2557	-97.523069	0.000375	3.748617	1.270066	0.000150
1602	1.5930e+02	-16.2204	-97.389844	0.000334	3.343361	1.132761	0.000134
1603	1.5940e+02	-16.1819	-97.216247	0.000436	4.356501	1.476022	0.000174
1604	1.5950e+02	-16.1322	-97.095133	0.000304	3.039419	1.029783	0.000122
1605	1.5960e+02	-16.1065	-96.937685	0.000395	3.951245	1.338718	0.000158
1606	1.5970e+02	-16.0584	-96.784274	0.000385	3.849931	1.304392	0.000154
1607	1.5980e+02	-16.0183	-96.630862	0.000385	3.849931	1.304392	0.000154
1608	1.5990e+02	-15.9830	-96.501674	0.000324	3.242047	1.098435	0.000130
1609	1.6000e+02	-15.9493	-96.291743	0.000527	5.268327	1.784957	0.000211
1610	1.6010e+02	-15.9028	-96.186778	0.000263	2.634163	0.892479	0.000105
1611	1.6019e+02	-15.8530	-96.041441	0.000365	3.647303	1.235740	0.000146
1612	1.6029e+02	-15.8193	-95.892067	0.000375	3.748617	1.270066	0.000150
1613	1.6039e+02	-15.7792	-95.742693	0.000375	3.748617	1.270066	0.000150
1614	1.6049e+02	-15.7407	-95.573133	0.000426	4.255187	1.441696	0.000170
1615	1.6059e+02	-15.7022	-95.431833	0.000355	3.545989	1.201414	0.000142
1616	1.6069e+02	-15.6605	-95.221902	0.000527	5.268327	1.784957	0.000211
1617	1.6079e+02	-15.6252	-95.125011	0.000243	2.431535	0.823826	0.000097
1618	1.6089e+02	-15.5899	-94.963525	0.000405	4.052559	1.373044	0.000162
1619	1.6099e+02	-15.5402	-94.773780	0.000476	4.761757	1.613327	0.000191
1620	1.6109e+02	-15.5033	-94.664777	0.000274	2.735477	0.926805	0.000110
1621	1.6119e+02	-15.4552	-94.511366	0.000385	3.849931	1.304392	0.000154
1622	1.6129e+02	-15.4151	-94.301435	0.000527	5.268327	1.784957	0.000211
1623	1.6139e+02	-15.3814	-94.212618	0.000223	2.228907	0.755174	0.000089
1624	1.6149e+02	-15.3300	-94.022873	0.000476	4.761757	1.613327	0.000191
1625	1.6159e+02	-15.2996	-93.901759	0.000304	3.039419	1.029783	0.000122
1626	1.6169e+02	-15.2563	-93.687791	0.000537	5.369641	1.819283	0.000215
1627	1.6179e+02	-15.2226	-93.506119	0.000456	4.559129	1.544675	0.000183
1628	1.6189e+02	-15.1760	-93.385005	0.000304	3.039419	1.029783	0.000122
1629	1.6199e+02	-15.1440	-93.247743	0.000344	3.444675	1.167088	0.000138
1630	1.6209e+02	-15.1022	-93.025700	0.000557	5.572269	1.887936	0.000223
1631	1.6219e+02	-15.0670	-92.888438	0.000344	3.444675	1.167088	0.000138
1632	1.6228e+02	-15.0285	-92.735026	0.000385	3.849931	1.304392	0.000154
1633	1.6238e+02	-14.9787	-92.549318	0.000466	4.660443	1.579001	0.000187
1634	1.6248e+02	-14.9531	-92.424167	0.000314	3.140733	1.064109	0.000126
1635	1.6258e+02	-14.9049	-92.230385	0.000486	4.863071	1.647653	0.000195
1636	1.6268e+02	-14.8632	-92.089085	0.000355	3.545989	1.201414	0.000142
1637	1.6278e+02	-14.8231	-91.947785	0.000355	3.545989	1.201414	0.000142
1638	1.6288e+02	-14.7846	-91.741891	0.000517	5.167013	1.750631	0.000207
1639	1.6298e+02	-14.7477	-91.588480	0.000385	3.849931	1.304392	0.000154
1640	1.6308e+02	-14.7028	-91.422957	0.000415	4.153873	1.407370	0.000166
1641	1.6318e+02	-14.6707	-91.285695	0.000344	3.444675	1.167088	0.000138
1642	1.6328e+02	-14.6194	-91.099986	0.000466	4.660443	1.579001	0.000187
1643	1.6338e+02	-14.5873	-90.922353	0.000446	4.457815	1.510349	0.000179
1644	1.6348e+02	-14.5552	-90.760867	0.000405	4.052559	1.373044	0.000162
1645	1.6358e+02	-14.5055	-90.623604	0.000344	3.444675	1.167088	0.000138
1646	1.6368e+02	-14.4638	-90.433859	0.000476	4.761757	1.613327	0.000191
1647	1.6378e+02	-14.4301	-90.288522	0.000365	3.647303	1.235740	0.000146
1648	1.6388e+02	-14.3755	-90.094740	0.000486	4.863071	1.647653	0.000195
1649	1.6398e+02	-14.3515	-89.941329	0.000385	3.849931	1.304392	0.000154
1650	1.6408e+02	-14.3049	-89.787917	0.000385	3.849931	1.304392	0.000154
1651	1.6418e+02	-14.2680	-89.606246	0.000456	4.559129	1.544675	0.000183
1652	1.6427e+02	-14.2231	-89.444761	0.000405	4.052559	1.373044	0.000162
1653	1.6437e+02	-14.1910	-89.279238	0.000415	4.153873	1.407370	0.000166
1654	1.6447e+02	-14.1541	-89.085456	0.000486	4.863071	1.647653	0.000195
1655	1.6457e+02	-14.1060	-88.936082	0.000375	3.748617	1.270066	0.000150
1656	1.6467e+02	-14.0643	-88.814968	0.000304	3.039419	1.029783	0.000122
1657	1.6477e+02	-14.0210	-88.600999	0.000537	5.369641	1.819283	0.000215
1658	1.6487e+02	-13.9857	-88.463737	0.000344	3.444675	1.167088	0.000138
1659	1.6497e+02	-13.9440	-88.330511	0.000334	3.343361	1.132761	0.000134
1660	1.6507e+02	-13.8991	-88.124617	0.000517	5.167013	1.750631	0.000207
1661	1.6517e+02	-13.8590	-87.942946	0.000456	4.559129	1.544675	0.000183
1662	1.6527e+02	-13.8253	-87.781461	0.000405	4.052559	1.373044	0.000162
1663	1.6537e+02	-13.7916	-87.644198	0.000344	3.444675	1.167088	0.000138
1664	1.6547e+02	-13.7547	-87.418119	0.000567	5.673583	1.922262	0.000227
1665	1.6557e+02	-13.7146	-87.280856	0.000344	3.444675	1.167088	0.000138
1666	1.6567e+02	-13.6616	-87.107259	0.000436	4.356501	1.476022	0.000174
1667	1.6577e+02	-13.6328	-86.965960	0.000355	3.545989	1.201414	0.000142
1668	1.6587e+02	-13.5879	-86.747954	0.000547	5.470955	1.853610	0.000219
1669	1.6597e+02	-13.5542	-86.606654	0.000355	3.545989	1.201414	0.000142
1670	1.6607e+02	-13.5044	-86.416909	0.000476	4.761757	1.613327	0.000191
1671	1.6616e+02	-13.4691	-86.279646	0.000344	3.444675	1.167088	0.000138
1672	1.6626e+02	-13.4258	-86.065678	0.000537	5.369641	1.819283	0.000215
1673	1.6636e+02	-13.3841	-85.928416	0.000344	3.444675	1.167088	0.000138
1674	1.6646e+02	-13.3472	-85.742707	0.000466	4.660443	1.579001	0.000187
1675	1.6656e+02	-13.3167	-85.601408	0.000355	3.545989	1.201414	0.000142
1676	1.6666e+02	-13.2702	-85.407625	0.000486	4.863071	1.647653	0.000195
1677	1.6676e+02	-13.2317	-85.294585	0.000284	2.836791	0.961131	0.000114
1678	1.6686e+02	-13.1964	-85.076580	0.000547	5.470955	1.853610	0.000219
1679	1.6696e+02	-13.1531	-84.890872	0.000466	4.660443	1.579001	0.000187
1680	1.6706e+02	-13.1130	-84.709201	0.000456	4.559129	1.544675	0.000183
1681	1.6716e+02	-13.0729	-84.539641	0.000426	4.255187	1.441696	0.000170
1682	1.6726e+02	-13.0312	-84.410453	0.000324	3.242047	1.098435	0.000130
1683	1.6736e+02	-12.9831	-84.220707	0.000476	4.761757	1.613327	0.000191
1684	1.6746e+02	-12.9494	-84.043073	0.000446	4.457815	1.510349	0.000179
1685	1.6756e+02	-12.9093	-83.873514	0.000426	4.255187	1.441696	0.000170
1686	1.6766e+02	-12.8772	-83.675694	0.000496	4.964385	1.681979	0.000199
1687	1.6776e+02	-12.8323	-83.522283	0.000385	3.849931	1.304392	0.000154
1688	1.6786e+02	-12.8034	-83.332537	0.000476	4.761757	1.613327	0.000191
1689	1.6796e+02	-12.7408	-83.183163	0.000375	3.748617	1.270066	0.000150
1690	1.6806e+02	-12.7135	-82.985344	0.000496	4.964385	1.681979	0.000199
1691	1.6816e+02	-12.6702	-82.840007	0.000365	3.647303	1.235740	0.000146
1692	1.6825e+02	-12.6365	-82.622001	0.000547	5.470955	1.853610	0.000219
1693	1.6835e+02	-12.5948	-82.476665	0.000365	3.647303	1.235740	0.000146
1694	1.6845e+02	-12.5611	-82.331328	0.000365	3.647303	1.235740	0.000146
1695	1.6855e+02	-12.5114	-82.169842	0.000405	4.052559	1.373044	0.000162
1696	1.6865e+02	-12.4793	-81.972023	0.000496	4.964385	1.681979	0.000199
1697	1.6875e+02	-12.4296	-81.782277	0.000476	4.761757	1.613327	0.000191
1698	1.6885e+02	-12.3959	-81.632903	0.000375	3.748617	1.270066	0.000150
1699	1.6895e+02	-12.3526	-81.410861	0.000557	5.572269	1.887936	0.000223
1700	1.6905e+02	-12.3077	-81.257450	0.000385	3.849931	1.304392	0.000154
1701	1.6915e+02	-12.2756	-81.087890	0.000426	4.255187	1.441696	0.000170
1702	1.6925e+02	-12.2387	-80.950627	0.000344	3.444675	1.167088	0.000138
1703	1.6935e+02	-12.1890	-80.752808	0.000496	4.964385	1.681979	0.000199
1704	1.6945e+02	-12.1569	-80.575174	0.000446	4.457815	1.510349	0.000179
1705	1.6955e+02	-12.1136	-80.393503	0.000456	4.559129	1.544675	0.000183
1706	1.6965e+02	-12.0767	-80.232017	0.000405	4.052559	1.373044	0.000162
1707	1.6975e+02	-12.0350	-80.046309	0.000466	4.660443	1.579001	0.000187
1708	1.6985e+02	-11.9981	-79.884823	0.000405	4.052559	1.373044	0.000162
1709	1.6995e+02	-11.9531	-79.735449	0.000375	3.748617	1.270066	0.000150
1710	1.7005e+02	-11.9050	-79.473036	0.000659	6.585408	2.231197	0.000264
1711	1.7015e+02	-11.8617	-79.319624	0.000385	3.849931	1.304392	0.000154
1712	1.7024e+02	-11.8328	-79.174288	0.000365	3.647303	1.235740	0.000146
1713	1.7034e+02	-11.7959	-78.980505	0.000486	4.863071	1.647653	0.000195
1714	1.7044e+02	-11.7526	-78.778648	0.000507	5.065699	1.716305	0.000203
1715	1.7054e+02	-11.7173	-78.629274	0.000375	3.748617	1.270066	0.000150
1716	1.7064e+02	-11.6804	-78.439529	0.000476	4.761757	1.613327	0.000191
1717	1.7074e+02	-11.6403	-78.294192	0.000365	3.647303	1.235740	0.000146
1718	1.7084e+02	-11.5970	-78.084261	0.000527	5.268327	1.784957	0.000211
1719	1.7094e+02	-11.5665	-77.955073	0.000324	3.242047	1.098435	0.000130
1720	1.7104e+02	-11.5184	-77.712844	0.000608	6.078838	2.059566	0.000243
1721	1.7114e+02	-11.4815	-77.535210	0.000446	4.457815	1.510349	0.000179
1722	1.7124e+02	-11.4398	-77.369688	0.000415	4.153873	1.407370	0.000166
1723	1.7134e+02	-11.4061	-77.196091	0.000436	4.356501	1.476022	0.000174
1724	1.7144e+02	-11.3612	-77.087088	0.000274	2.735477	0.926805	0.000110
1725	1.7154e+02	-11.3211	-76.877157	0.000527	5.268327	1.784957	0.000211
1726	1.7164e+02	-11.2745	-76.683375	0.000486	4.863071	1.647653	0.000195
1727	1.7174e+02	-11.2360	-76.538038	0.000365	3.647303	1.235740	0.000146
1728	1.7184e+02	-11.2008	-76.295810	0.000608	6.078838	2.059566	0.000243
1729	1.7194e+02	-11.1574	-76.126250	0.000426	4.255187	1.441696	0.000170
1730	1.7204e+02	-11.1189	-75.956690	0.000426	4.255187	1.441696	0.000170
1731	1.7213e+02	-11.0788	-75.795205	0.000405	4.052559	1.373044	0.000162
1732	1.7223e+02	-11.0387	-75.605460	0.000476	4.761757	1.613327	0.000191
1733	1.7233e+02	-10.9874	-75.423788	0.000456	4.559129	1.544675	0.000183
1734	1.7243e+02	-10.9617	-75.230006	0.000486	4.863071	1.647653	0.000195
1735	1.7253e+02	-10.9232	-75.044298	0.000466	4.660443	1.579001	0.000187
1736	1.7263e+02	-10.8735	-74.898961	0.000365	3.647303	1.235740	0.000146
1737	1.7273e+02	-10.8398	-74.733438	0.000415	4.153873	1.407370	0.000166
1738	1.7283e+02	-10.7981	-74.523507	0.000527	5.268327	1.784957	0.000211
1739	1.7293e+02	-10.7644	-74.386245	0.000344	3.444675	1.167088	0.000138
1740	1.7303e+02	-10.7227	-74.127868	0.000648	6.484094	2.196871	0.000260
1741	1.7313e+02	-10.6826	-73.970420	0.000395	3.951245	1.338718	0.000158
1742	1.7323e+02	-10.6425	-73.804897	0.000415	4.153873	1.407370	0.000166
1743	1.7333e+02	-10.6104	-73.594966	0.000527	5.268327	1.784957	0.000211
1744	1.7343e+02	-10.5671	-73.433481	0.000405	4.052559	1.373044	0.000162
1745	1.7353e+02	-10.5318	-73.195289	0.000598	5.977524	2.025240	0.000239
1746	1.7363e+02	-10.4869	-73.062064	0.000334	3.343361	1.132761	0.000134
1747	1.7373e+02	-10.4371	-72.831947	0.000577	5.774896	1.956588	0.000231
1748	1.7383e+02	-10.4067	-72.674499	0.000395	3.951245	1.338718	0.000158
1749	1.7393e+02	-10.3601	-72.492828	0.000456	4.559129	1.544675	0.000183
1750	1.7403e+02	-10.3248	-72.295008	0.000496	4.964385	1.681979	0.000199
1751	1.7413e+02	-10.2735	-72.117374	0.000446	4.457815	1.510349	0.000179
1752	1.7422e+02	-10.2382	-71.927629	0.000476	4.761757	1.613327	0.000191
1753	1.7432e+02	-10.1965	-71.717698	0.000527	5.268327	1.784957	0.000211
1754	1.7442e+02	-10.1660	-71.568324	0.000375	3.748617	1.270066	0.000150
1755	1.7452e+02	-10.1211	-71.350318	0.000547	5.470955	1.853610	0.000219
1756	1.7462e+02	-10.0826	-71.225167	0.000314	3.140733	1.064109	0.000126
1757	1.7472e+02	-10.0521	-70.950642	0.000689	6.889350	2.334175	0.000276
1758	1.7482e+02	-9.9976	-70.781082	0.000426	4.255187	1.441696	0.000170
1759	1.7492e+02	-9.9607	-70.615560	0.000415	4.153873	1.407370	0.000166
1760	1.7502e+02	-9.9238	-70.405629	0.000527	5.268327	1.784957	0.000211
1761	1.7512e+02	-9.8821	-70.227995	0.000446	4.457815	1.510349	0.000179
1762	1.7522e+02	-9.8404	-70.009989	0.000547	5.470955	1.853610	0.000219
1763	1.7532e+02	-9.8051	-69.852541	0.000395	3.951245	1.338718	0.000158
1764	1.7542e+02	-9.7618	-69.687019	0.000415	4.153873	1.407370	0.000166
1765	1.7552e+02	-9.7200	-69.501310	0.000466	4.660443	1.579001	0.000187
1766	1.7562e+02	-9.6864	-69.311565	0.000476	4.761757	1.613327	0.000191
1767	1.7572e+02	-9.6398	-69.125857	0.000466	4.660443	1.579001	0.000187
1768	1.7582e+02	-9.6045	-68.895740	0.000577	5.774896	1.956588	0.000231
1769	1.7592e+02	-9.5676	-68.710032	0.000466	4.660443	1.579001	0.000187
1770	1.7602e+02	-9.5259	-68.552583	0.000395	3.951245	1.338718	0.000158
1771	1.7612e+02	-9.4971	-68.338615	0.000537	5.369641	1.819283	0.000215
1772	1.7621e+02	-9.4473	-68.124647	0.000537	5.369641	1.819283	0.000215
1773	1.7631e+02	-9.4072	-67.926827	0.000496	4.964385	1.681979	0.000199
1774	1.7641e+02	-9.3623	-67.761305	0.000415	4.153873	1.407370	0.000166
1775	1.7651e+02	-9.3270	-67.587708	0.000436	4.356501	1.476022	0.000174
1776	1.7661e+02	-9.2885	-67.349517	0.000598	5.977524	2.025240	0.000239
1777	1.7671e+02	-9.2484	-67.175920	0.000436	4.356501	1.476022	0.000174
1778	1.7681e+02	-9.2019	-66.990212	0.000466	4.660443	1.579001	0.000187
1779	1.7691e+02	-9.1666	-66.796429	0.000486	4.863071	1.647653	0.000195
1780	1.7701e+02	-9.1281	-66.614758	0.000456	4.559129	1.544675	0.000183
1781	1.7711e+02	-9.0912	-66.433087	0.000456	4.559129	1.544675	0.000183
1782	1.7721e+02	-9.0479	-66.202970	0.000577	5.774896	1.956588	0.000231
1783	1.7731e+02	-9.0094	-65.997076	0.000517	5.167013	1.750631	0.000207
1784	1.7741e+02	-8.9580	-65.811368	0.000466	4.660443	1.579001	0.000187
1785	1.7751e+02	-8.9276	-65.613549	0.000496	4.964385	1.681979	0.000199
1786	1.7761e+02	-8.8874	-65.407655	0.000517	5.167013	1.750631	0.000207
1787	1.7771e+02	-8.8457	-65.185612	0.000557	5.572269	1.887936	0.000223
1788	1.7781e+02	-8.8121	-65.007978	0.000446	4.457815	1.510349	0.000179
1789	1.7791e+02	-8.7671	-64.814196	0.000486	4.863071	1.647653	0.000195
1790	1.7801e+02	-8.7318	-64.616376	0.000496	4.964385	1.681979	0.000199
1791	1.7810e+02	-8.6917	-64.406445	0.000527	5.268327	1.784957	0.000211
1792	1.7820e+02	-8.6436	-64.212662	0.000486	4.863071	1.647653	0.000195
1793	1.7830e+02	-8.6131	-64.018880	0.000486	4.863071	1.647653	0.000195
1794	1.7840e+02	-8.5746	-63.784726	0.000588	5.876210	1.990914	0.000235
1795	1.7850e+02	-8.5297	-63.631315	0.000385	3.849931	1.304392	0.000154
1796	1.7860e+02	-8.4880	-63.413310	0.000547	5.470955	1.853610	0.000219
1797	1.7870e+02	-8.4479	-63.187230	0.000567	5.673583	1.922262	0.000227
1798	1.7880e+02	-8.4062	-63.005559	0.000456	4.559129	1.544675	0.000183
1799	1.7890e+02	-8.3725	-62.823888	0.000456	4.559129	1.544675	0.000183
1800	1.7900e+02	-8.3340	-62.658365	0.000415	4.153873	1.407370	0.000166
1801	1.7910e+02	-8.2923	-62.375766	0.000709	7.091978	2.402827	0.000284
1802	1.7920e+02	-8.2506	-62.206206	0.000426	4.255187	1.441696	0.000170
1803	1.7930e+02	-8.1960	-61.968015	0.000598	5.977524	2.025240	0.000239
1804	1.7940e+02	-8.1607	-61.782307	0.000466	4.660443	1.579001	0.000187
1805	1.7950e+02	-8.1238	-61.548153	0.000588	5.876210	1.990914	0.000235
1806	1.7960e+02	-8.0885	-61.386667	0.000405	4.052559	1.373044	0.000162
1807	1.7970e+02	-8.0436	-61.164625	0.000557	5.572269	1.887936	0.000223
1808	1.7980e+02	-8.0035	-60.966805	0.000496	4.964385	1.681979	0.000199
1809	1.7990e+02	-7.9714	-60.744763	0.000557	5.572269	1.887936	0.000223
1810	1.8000e+02	-7.9329	-60.538869	0.000517	5.167013	1.750631	0.000207
1811	1.8009e+02	-7.8896	-60.361235	0.000446	4.457815	1.510349	0.000179
1812	1.8019e+02	-7.8511	-60.074598	0.000719	7.193292	2.437153	0.000288
1813	1.8029e+02	-7.8174	-59.884853	0.000476	4.761757	1.613327	0.000191
1814	1.8039e+02	-7.7661	-59.695108	0.000476	4.761757	1.613327	0.000191
1815	1.8049e+02	-7.7356	-59.517474	0.000446	4.457815	1.510349	0.000179
1816	1.8059e+02	-7.6971	-59.263134	0.000638	6.382780	2.162545	0.000256
1817	1.8069e+02	-7.6474	-59.041092	0.000557	5.572269	1.887936	0.000223
1818	1.8079e+02	-7.6137	-58.843272	0.000496	4.964385	1.681979	0.000199
1819	1.8089e+02	-7.5816	-58.637378	0.000517	5.167013	1.750631	0.000207
1820	1.8099e+02	-7.5479	-58.439558	0.000496	4.964385	1.681979	0.000199
1821	1.8109e+02	-7.4934	-58.253850	0.000466	4.660443	1.579001	0.000187
1822	1.8119e+02	-7.4549	-58.003548	0.000628	6.281466	2.128218	0.000252
1823	1.8129e+02	-7.4116	-57.785542	0.000547	5.470955	1.853610	0.000219
1824	1.8139e+02	-7.3779	-57.583686	0.000507	5.065699	1.716305	0.000203
1825	1.8149e+02	-7.3297	-57.393940	0.000476	4.761757	1.613327	0.000191
1826	1.8159e+02	-7.2961	-57.175935	0.000547	5.470955	1.853610	0.000219
1827	1.8169e+02	-7.2559	-56.974078	0.000507	5.065699	1.716305	0.000203
1828	1.8179e+02	-7.2190	-56.731850	0.000608	6.078838	2.059566	0.000243
1829	1.8189e+02	-7.1789	-56.529993	0.000507	5.065699	1.716305	0.000203
1830	1.8199e+02	-7.1324	-56.287765	0.000608	6.078838	2.059566	0.000243
1831	1.8209e+02	-7.0907	-56.114168	0.000436	4.356501	1.476022	0.000174
1832	1.8218e+02	-7.0554	-55.884051	0.000577	5.774896	1.956588	0.000231
1833	1.8228e+02	-7.0105	-55.674120	0.000527	5.268327	1.784957	0.000211
1834	1.8238e+02	-6.9624	-55.476301	0.000496	4.964385	1.681979	0.000199
1835	1.8248e+02	-6.9335	-55.262333	0.000537	5.369641	1.819283	0.000215
1836	1.8258e+02	-6.8950	-55.003956	0.000648	6.484094	2.196871	0.000260
1837	1.8268e+02	-6.8597	-54.818248	0.000466	4.660443	1.579001	0.000187
1838	1.8278e+02	-6.8148	-54.636577	0.000456	4.559129	1.544675	0.000183
1839	1.8288e+02	-6.7747	-54.382237	0.000638	6.382780	2.162545	0.000256
1840	1.8298e+02	-6.7442	-54.188454	0.000486	4.863071	1.647653	0.000195
1841	1.8308e+02	-6.6897	-53.934115	0.000638	6.382780	2.162545	0.000256
1842	1.8318e+02	-6.6640	-53.784741	0.000375	3.748617	1.270066	0.000150
1843	1.8328e+02	-6.6126	-53.518290	0.000669	6.686722	2.265523	0.000268
1844	1.8338e+02	-6.5758	-53.316433	0.000507	5.065699	1.716305	0.000203
1845	1.8348e+02	-6.5324	-53.082279	0.000588	5.876210	1.990914	0.000235
1846	1.8358e+02	-6.4923	-52.868311	0.000537	5.369641	1.819283	0.000215
1847	1.8368e+02	-6.4586	-52.634157	0.000588	5.876210	1.990914	0.000235
1848	1.8378e+02	-6.4282	-52.440375	0.000486	4.863071	1.647653	0.000195
1849	1.8388e+02	-6.3784	-52.246592	0.000486	4.863071	1.647653	0.000195
1850	1.8398e+02	-6.3415	-52.004364	0.000608	6.078838	2.059566	0.000243
1851	1.8407e+02	-6.3062	-51.818656	0.000466	4.660443	1.579001	0.000187
1852	1.8417e+02	-6.2597	-51.544131	0.000689	6.889350	2.334175	0.000276
1853	1.8427e+02	-6.2228	-51.370534	0.000436	4.356501	1.476022	0.000174
1854	1.8437e+02	-6.1795	-51.120231	0.000628	6.281466	2.128218	0.000252
1855	1.8447e+02	-6.1362	-50.906263	0.000537	5.369641	1.819283	0.000215
1856	1.8457e+02	-6.0913	-50.688258	0.000547	5.470955	1.853610	0.000219
1857	1.8467e+02	-6.0640	-50.450067	0.000598	5.977524	2.025240	0.000239
1858	1.8477e+02	-6.0271	-50.240136	0.000527	5.268327	1.784957	0.000211
1859	1.8487e+02	-5.9806	-50.018093	0.000557	5.572269	1.887936	0.000223
1860	1.8497e+02	-5.9357	-49.739531	0.000699	6.990664	2.368501	0.000280
1861	1.8507e+02	-5.9036	-49.541711	0.000496	4.964385	1.681979	0.000199
1862	1.8517e+02	-5.8619	-49.347929	0.000486	4.863071	1.647653	0.000195
1863	1.8527e+02	-5.8250	-49.158183	0.000476	4.761757	1.613327	0.000191
1864	1.8537e+02	-5.7897	-48.895769	0.000659	6.585408	2.231197	0.000264
1865	1.8547e+02	-5.7448	-48.685838	0.000527	5.268327	1.784957	0.000211
1866	1.8557e+02	-5.7047	-48.488019	0.000496	4.964385	1.681979	0.000199
1867	1.8567e+02	-5.6629	-48.201382	0.000719	7.193292	2.437153	0.000288
1868	1.8577e+02	-5.6100	-47.975303	0.000567	5.673583	1.922262	0.000227
1869	1.8587e+02	-5.5795	-47.777483	0.000496	4.964385	1.681979	0.000199
1870	1.8597e+02	-5.5426	-47.539292	0.000598	5.977524	2.025240	0.000239
1871	1.8606e+02	-5.4993	-47.325324	0.000537	5.369641	1.819283	0.000215
1872	1.8616e+02	-5.4720	-47.111355	0.000537	5.369641	1.819283	0.000215
1873	1.8626e+02	-5.4175	-46.885276	0.000567	5.673583	1.922262	0.000227
1874	1.8636e+02	-5.3870	-46.663233	0.000557	5.572269	1.887936	0.000223
1875	1.8646e+02	-5.3421	-46.441191	0.000557	5.572269	1.887936	0.000223
1876	1.8656e+02	-5.3004	-46.178777	0.000659	6.585408	2.231197	0.000264
1877	1.8666e+02	-5.2555	-45.993069	0.000466	4.660443	1.579001	0.000187
1878	1.8676e+02	-5.2202	-45.750841	0.000608	6.078838	2.059566	0.000243
1879	1.8686e+02	-5.1833	-45.496501	0.000638	6.382780	2.162545	0.000256
1880	1.8696e+02	-5.1448	-45.274459	0.000557	5.572269	1.887936	0.000223
1881	1.8706e+02	-5.1127	-45.032231	0.000608	6.078838	2.059566	0.000243
1882	1.8716e+02	-5.0581	-44.822300	0.000527	5.268327	1.784957	0.000211
1883	1.8726e+02	-5.0277	-44.580071	0.000608	6.078838	2.059566	0.000243
1884	1.8736e+02	-4.9892	-44.390326	0.000476	4.761757	1.613327	0.000191
1885	1.8746e+02	-4.9458	-44.135986	0.000638	6.382780	2.162545	0.000256
1886	1.8756e+02	-4.8993	-43.877610	0.000648	6.484094	2.196871	0.000260
1887	1.8766e+02	-4.8705	-43.643456	0.000588	5.876210	1.990914	0.000235
1888	1.8776e+02	-4.8207	-43.397191	0.000618	6.180152	2.093892	0.000248
1889	1.8786e+02	-4.7854	-43.247817	0.000375	3.748617	1.270066	0.000150
1890	1.8796e+02	-4.7533	-42.993477	0.000638	6.382780	2.162545	0.000256
1891	1.8806e+02	-4.7132	-42.763360	0.000577	5.774896	1.956588	0.000231
1892	1.8815e+02	-4.6635	-42.513058	0.000628	6.281466	2.128218	0.000252
1893	1.8825e+02	-4.6298	-42.278904	0.000588	5.876210	1.990914	0.000235
1894	1.8835e+02	-4.5849	-42.040713	0.000598	5.977524	2.025240	0.000239
1895	1.8845e+02	-4.5416	-41.842893	0.000496	4.964385	1.681979	0.000199
1896	1.8855e+02	-4.5111	-41.592591	0.000628	6.281466	2.128218	0.000252
1897	1.8865e+02	-4.4678	-41.297880	0.000740	7.395920	2.505806	0.000296
1898	1.8875e+02	-4.4293	-41.136395	0.000405	4.052559	1.373044	0.000162
1899	1.8885e+02	-4.3892	-40.869944	0.000669	6.686722	2.265523	0.000268
1900	1.8895e+02	-4.3475	-40.619641	0.000628	6.281466	2.128218	0.000252
1901	1.8905e+02	-4.3154	-40.413747	0.000517	5.167013	1.750631	0.000207
1902	1.8915e+02	-4.2624	-40.159408	0.000638	6.382780	2.162545	0.000256
1903	1.8925e+02	-4.2255	-39.909105	0.000628	6.281466	2.128218	0.000252
1904	1.8935e+02	-4.1806	-39.743583	0.000415	4.153873	1.407370	0.000166
1905	1.8945e+02	-4.1550	-39.456946	0.000719	7.193292	2.437153	0.000288
1906	1.8955e+02	-4.1036	-39.194532	0.000659	6.585408	2.231197	0.000264
1907	1.8965e+02	-4.0619	-38.968453	0.000567	5.673583	1.922262	0.000227
1908	1.8975e+02	-4.0282	-38.762559	0.000517	5.167013	1.750631	0.000207
1909	1.8985e+02	-3.9913	-38.512256	0.000628	6.281466	2.128218	0.000252
1910	1.8995e+02	-3.9496	-38.282140	0.000577	5.774896	1.956588	0.000231
1911	1.9004e+02	-3.9111	-38.015689	0.000669	6.686722	2.265523	0.000268
1912	1.9014e+02	-3.8694	-37.741163	0.000689	6.889350	2.334175	0.000276
1913	1.9024e+02	-3.8197	-37.539307	0.000507	5.065699	1.716305	0.000203
1914	1.9034e+02	-3.7828	-37.248633	0.000729	7.294606	2.471479	0.000292
1915	1.9044e+02	-3.7475	-37.042739	0.000517	5.167013	1.750631	0.000207
1916	1.9054e+02	-3.7074	-36.776288	0.000669	6.686722	2.265523	0.000268
1917	1.9064e+02	-3.6721	-36.562320	0.000537	5.369641	1.819283	0.000215
1918	1.9074e+02	-3.6320	-36.291832	0.000679	6.788036	2.299849	0.000272
1919	1.9084e+02	-3.5919	-36.065752	0.000567	5.673583	1.922262	0.000227
1920	1.9094e+02	-3.5502	-35.795264	0.000679	6.788036	2.299849	0.000272
1921	1.9104e+02	-3.5069	-35.540924	0.000638	6.382780	2.162545	0.000256
1922	1.9114e+02	-3.4684	-35.310808	0.000577	5.774896	1.956588	0.000231
1923	1.9124e+02	-3.4331	-35.092802	0.000547	5.470955	1.853610	0.000219
1924	1.9134e+02	-3.3849	-34.802129	0.000729	7.294606	2.471479	0.000292
1925	1.9144e+02	-3.3480	-34.551826	0.000628	6.281466	2.128218	0.000252
1926	1.9154e+02	-3.3063	-34.333821	0.000547	5.470955	1.853610	0.000219
1927	1.9164e+02	-3.2742	-34.063333	0.000679	6.788036	2.299849	0.000272
1928	1.9174e+02	-3.2309	-33.849365	0.000537	5.369641	1.819283	0.000215
1929	1.9184e+02	-3.1908	-33.558691	0.000729	7.294606	2.471479	0.000292
1930	1.9194e+02	-3.1539	-33.320500	0.000598	5.977524	2.025240	0.000239
1931	1.9203e+02	-3.1090	-33.102494	0.000547	5.470955	1.853610	0.000219
1932	1.9213e+02	-3.0737	-32.807784	0.000740	7.395920	2.505806	0.000296
1933	1.9223e+02	-3.0320	-32.565555	0.000608	6.078838	2.059566	0.000243
1934	1.9233e+02	-2.9903	-32.315253	0.000628	6.281466	2.128218	0.000252
1935	1.9243e+02	-2.9502	-32.056876	0.000648	6.484094	2.196871	0.000260
1936	1.9253e+02	-2.9037	-31.814648	0.000608	6.078838	2.059566	0.000243
1937	1.9263e+02	-2.8748	-31.548197	0.000669	6.686722	2.265523	0.000268
1938	1.9273e+02	-2.8267	-31.281746	0.000669	6.686722	2.265523	0.000268
1939	1.9283e+02	-2.7930	-31.003184	0.000699	6.990664	2.368501	0.000280
1940	1.9293e+02	-2.7497	-30.773067	0.000577	5.774896	1.956588	0.000231
1941	1.9303e+02	-2.7144	-30.510653	0.000659	6.585408	2.231197	0.000264
1942	1.9313e+02	-2.6743	-30.308797	0.000507	5.065699	1.716305	0.000203
1943	1.9323e+02	-2.6293	-29.989863	0.000800	8.003804	2.711762	0.000321
1944	1.9333e+02	-2.5924	-29.751672	0.000598	5.977524	2.025240	0.000239
1945	1.9343e+02	-2.5475	-29.444850	0.000770	7.699862	2.608784	0.000308
1946	1.9353e+02	-2.5154	-29.206658	0.000598	5.977524	2.025240	0.000239
1947	1.9363e+02	-2.4721	-28.964430	0.000608	6.078838	2.059566	0.000243
1948	1.9373e+02	-2.4352	-28.702017	0.000659	6.585408	2.231197	0.000264
1949	1.9383e+02	-2.3855	-28.399231	0.000760	7.598548	2.574458	0.000304
1950	1.9393e+02	-2.3582	-28.152966	0.000618	6.180152	2.093892	0.000248
1951	1.9403e+02	-2.3149	-27.894589	0.000648	6.484094	2.196871	0.000260
1952	1.9412e+02	-2.2684	-27.660436	0.000588	5.876210	1.990914	0.000235
1953	1.9422e+02	-2.2411	-27.349576	0.000780	7.801176	2.643110	0.000312
1954	1.9432e+02	-2.2026	-27.131571	0.000547	5.470955	1.853610	0.000219
1955	1.9442e+02	-2.1561	-26.796488	0.000841	8.409060	2.849067	0.000337
1956	1.9452e+02	-2.1160	-26.562335	0.000588	5.876210	1.990914	0.000235
1957	1.9462e+02	-2.0727	-26.299921	0.000659	6.585408	2.231197	0.000264
1958	1.9472e+02	-2.0342	-26.049618	0.000628	6.281466	2.128218	0.000252
1959	1.9482e+02	-1.9989	-25.750870	0.000750	7.497234	2.540132	0.000300
1960	1.9492e+02	-1.9475	-25.488456	0.000659	6.585408	2.231197	0.000264
1961	1.9502e+02	-1.9171	-25.189708	0.000750	7.497234	2.540132	0.000300
1962	1.9512e+02	-1.8705	-24.915183	0.000689	6.889350	2.334175	0.000276
1963	1.9522e+02	-1.8368	-24.689104	0.000567	5.673583	1.922262	0.000227
1964	1.9532e+02	-1.7983	-24.398430	0.000729	7.294606	2.471479	0.000292
1965	1.9542e+02	-1.7566	-24.091608	0.000770	7.699862	2.608784	0.000308
1966	1.9552e+02	-1.7069	-23.833231	0.000648	6.484094	2.196871	0.000260
1967	1.9562e+02	-1.6780	-23.518334	0.000790	7.902490	2.677436	0.000316
1968	1.9572e+02	-1.6347	-23.227660	0.000729	7.294606	2.471479	0.000292
1969	1.9582e+02	-1.6026	-23.001581	0.000567	5.673583	1.922262	0.000227
1970	1.9592e+02	-1.5529	-22.714944	0.000719	7.193292	2.437153	0.000288
1971	1.9601e+02	-1.5160	-22.436382	0.000699	6.990664	2.368501	0.000280
1972	1.9611e+02	-1.4823	-22.137634	0.000750	7.497234	2.540132	0.000300
1973	1.9621e+02	-1.4390	-21.826774	0.000780	7.801176	2.643110	0.000312
1974	1.9631e+02	-1.4005	-21.568398	0.000648	6.484094	2.196871	0.000260
1975	1.9641e+02	-1.3620	-21.297910	0.000679	6.788036	2.299849	0.000272
1976	1.9651e+02	-1.3203	-21.007236	0.000729	7.294606	2.471479	0.000292
1977	1.9661e+02	-1.2754	-20.708488	0.000750	7.497234	2.540132	0.000300
1978	1.9671e+02	-1.2369	-20.454148	0.000638	6.382780	2.162545	0.000256
1979	1.9681e+02	-1.2048	-20.167512	0.000719	7.193292	2.437153	0.000288
1980	1.9691e+02	-1.1518	-19.880875	0.000719	7.193292	2.437153	0.000288
1981	1.9701e+02	-1.1117	-19.565978	0.000790	7.902490	2.677436	0.000316
1982	1.9711e+02	-1.0684	-19.279342	0.000719	7.193292	2.437153	0.000288
1983	1.9721e+02	-1.0428	-19.037114	0.000608	6.078838	2.059566	0.000243
1984	1.9731e+02	-1.0026	-18.718180	0.000800	8.003804	2.711762	0.000321
1985	1.9741e+02	-0.9641	-18.407320	0.000780	7.801176	2.643110	0.000312
1986	1.9751e+02	-0.9240	-18.132795	0.000689	6.889350	2.334175	0.000276
1987	1.9761e+02	-0.8743	-17.838084	0.000740	7.395920	2.505806	0.000296
1988	1.9771e+02	-0.8326	-17.555485	0.000709	7.091978	2.402827	0.000284
1989	1.9781e+02	-0.8021	-17.224440	0.000831	8.307746	2.814740	0.000333
1990	1.9791e+02	-0.7572	-16.974137	0.000628	6.281466	2.128218	0.000252
1991	1.9800e+02	-0.7235	-16.663278	0.000780	7.801176	2.643110	0.000312
1992	1.9810e+02	-0.6866	-16.356455	0.000770	7.699862	2.608784	0.000308
1993	1.9820e+02	-0.6353	-16.098079	0.000648	6.484094	2.196871	0.000260
1994	1.9830e+02	-0.5984	-15.783182	0.000790	7.902490	2.677436	0.000316
1995	1.9840e+02	-0.5567	-15.492508	0.000729	7.294606	2.471479	0.000292
1996	1.9850e+02	-0.5214	-15.185686	0.000770	7.699862	2.608784	0.000308
1997	1.9860e+02	-0.4909	-14.874827	0.000780	7.801176	2.643110	0.000312
1998	1.9870e+02	-0.4428	-14.600301	0.000689	6.889350	2.334175	0.000276
1999	1.9880e+02	-0.3962	-14.293479	0.000770	7.699862	2.608784	0.000308
2000	1.9890e+02	-0.3690	-13.990694	0.000760	7.598548	2.574458	0.000304
2001	1.9900e+02	-0.3257	-13.675797	0.000790	7.902490	2.677436	0.000316
2002	1.9910e+02	-0.2807	-13.377049	0.000750	7.497234	2.540132	0.000300
2003	1.9920e+02	-0.2358	-13.150970	0.000567	5.673583	1.922262	0.000227
2004	1.9930e+02	-0.1957	-12.791665	0.000902	9.016944	3.055023	0.000361
2005	1.9940e+02	-0.1668	-12.513102	0.000699	6.990664	2.368501	0.000280
2006	1.9950e+02	-0.1235	-12.226466	0.000719	7.193292	2.437153	0.000288
2007	1.9960e+02	-0.0834	-11.871198	0.000892	8.915630	3.020697	0.000357
2008	1.9970e+02	-0.0417	-11.608784	0.000659	6.585408	2.231197	0.000264
2009	1.9980e+02	0.0096	-11.305999	0.000659	6.585408	2.231197	0.000304

Center data before PMax,+/-Pr and +/-Vc Calc.

PMax (uC/cm2):	1.09e+02
Pr (uC/cm2):	8.42e+00
-Pr (uC/cm2):	-1.13e+01
PLoss (uC/cm2):	-5.23e+00
Vc:	8.75e-01
-Vc:	-1.14e+00
C (Max-Eff) (nF):	5.43e-01
K (Eff):	1.84e+03
Vert. (+/-Pr) Shift (uC/cm2):	-1.45e+00
Horiz. Shift (+/-Vc):	-1.33e-01
Offset (uC/cm2):	6.06e+00

A (Loop Area - uC/cm2·Volts):	1.77e-01



Hysteresis Version: 5.48.1 - Radiant Technologies, Inc., 1999 - 9/12/24

