»»»»»»»»»»»»»»»»»»»»»»»»»»»»»»»»»»»» Hysteresis ««««««««««««««««««««««««««««««««««««
»»»  Executed Version:	5.48.1
»»»  Vision Version:	5.48.4 (R)
»»»  Vision Compiled:	9/18/24
»»»  Driver Version:	5.47.0
»»»  Windows Version:	Windows 8 or 8.1
»»»  Processor Information:	x86 (AMD or Intel) - 32 Processors
»»»  Tester Name:	PMF21124-494 (100V)
»»»  Tester S/N:	PMF21124-494
»»»  Internal Amp Type:	100V RevK 270k
»»»  Internal Amp S/N:	iAB2-596/K     
»»»  Execution Count:	1
»»»»»»»»»»»»»»»»»»»»»»»»»»»»»»»»»»»»»»»»»»««««««««««««««««««««««««««««««««««««««««««

Stored:	6/4/2025 - 15:17:47
Configured:	06/04/25 01:46:06 PM
Executed:	06/04/25 03:16:43 PM

»»»»»»»»»»»»»»»»»»»»»»»»»»»»»»»»»»» Sample Info ««««««««««««««««««««««««««««««««««««
Sample Name:	
Lot Name:	
Wafer Name:	
Die Row/Column:	0/0
Capacitor Number:	0
Sample Area (cm2):	1.00e-04
Sample Thickness (microns):	3.00e-01

Amplifier:	Internal

»»»»»»»»»»»»»»»»»»»»»»»»»»»»»»»»»»» Tester Info «««««««««««««««««««««««««««««««««««
Tester Name:	PMF21124-494 (100V)
Tester Serial Number:	PMF21124-494
Return Signal Amp. Level:	0.19 [Index: 3]

»»»»»»»»»»»»»»»»»»»»»»»»»»»»»»»» Hysteresis Info ««««««««««««««««««««««««««««««««««
Task Name:	Hyst-37
Volts:	20.00
Field:	666.67 (kV/cm)
DCBias:	0.00
DCField:	0.00 (kV/cm)
Hysteresis Period (ms):	2.00e+02
Preset:	Enabled
Preset Delay (ms):	1.00e+03
Profile:	Standard Bipolar

»»»»»»»»»»»»»»»»»»»»»»»»»»»»»»»»»»»»»» Data «««««««««««««««««««««««««««««««««««««««
Points:	2009

Valid Data

Point	Time (ms)	Drive Voltage	Measured Polarization (uC/cm2)	Capacitance (uF)	Normalized Capacitance (uF/cm2)	Dielectric Constant	Instantaneous Current (mA)
   1	0.0000e+00	0.0064	-7.135637	0.000415	4.154873	1.407709	0.000166
   2	9.9500e-02	0.0321	-6.970115	0.000415	4.154873	1.407709	0.000166
   3	1.9900e-01	0.0754	-6.695590	0.000689	6.891008	2.334737	0.000276
   4	2.9850e-01	0.1187	-6.465473	0.000578	5.776286	1.957059	0.000231
   5	3.9800e-01	0.1556	-6.235356	0.000578	5.776286	1.957059	0.000231
   6	4.9750e-01	0.1973	-5.940645	0.000740	7.397700	2.506409	0.000296
   7	5.9700e-01	0.2246	-5.690343	0.000628	6.282978	2.128731	0.000252
   8	6.9650e-01	0.2647	-5.399669	0.000730	7.296362	2.472074	0.000292
   9	7.9600e-01	0.3096	-5.145329	0.000638	6.384316	2.163065	0.000256
  10	8.9550e-01	0.3481	-4.903101	0.000608	6.080301	2.060062	0.000243
  11	9.9500e-01	0.3786	-4.648762	0.000638	6.384316	2.163065	0.000256
  12	1.0945e+00	0.4347	-4.329828	0.000801	8.005730	2.712415	0.000321
  13	1.1940e+00	0.4700	-4.087600	0.000608	6.080301	2.060062	0.000243
  14	1.2935e+00	0.5085	-3.760592	0.000821	8.208407	2.781083	0.000329
  15	1.3930e+00	0.5438	-3.586995	0.000436	4.357549	1.476378	0.000174
  16	1.4925e+00	0.5888	-3.247876	0.000851	8.512422	2.884087	0.000341
  17	1.5920e+00	0.6305	-2.997573	0.000628	6.282978	2.128731	0.000252
  18	1.6915e+00	0.6674	-2.743234	0.000638	6.384316	2.163065	0.000256
  19	1.7910e+00	0.7043	-2.464671	0.000699	6.992346	2.369071	0.000280
  20	1.8905e+00	0.7556	-2.186109	0.000699	6.992346	2.369071	0.000280
  21	1.9900e+00	0.7797	-1.943881	0.000608	6.080301	2.060062	0.000243
  22	2.0895e+00	0.8310	-1.657244	0.000720	7.195023	2.437740	0.000288
  23	2.1890e+00	0.8647	-1.354459	0.000760	7.600377	2.575077	0.000304
  24	2.2885e+00	0.9112	-1.083971	0.000679	6.789670	2.300402	0.000272
  25	2.3880e+00	0.9481	-0.857891	0.000567	5.674948	1.922724	0.000227
  26	2.4875e+00	0.9818	-0.575292	0.000709	7.093685	2.403405	0.000284
  27	2.5870e+00	1.0187	-0.296729	0.000699	6.992346	2.369071	0.000280
  28	2.6865e+00	1.0684	0.010093	0.000770	7.701715	2.609412	0.000308
  29	2.7860e+00	1.1005	0.268470	0.000649	6.485655	2.197399	0.000260
  30	2.8855e+00	1.1486	0.547032	0.000699	6.992346	2.369071	0.000280
  31	2.9850e+00	1.1855	0.825594	0.000699	6.992346	2.369071	0.000280
  32	3.0845e+00	1.2288	1.104157	0.000699	6.992346	2.369071	0.000280
  33	3.1840e+00	1.2641	1.394830	0.000730	7.296362	2.472074	0.000292
  34	3.2835e+00	1.2962	1.645133	0.000628	6.282978	2.128731	0.000252
  35	3.3830e+00	1.3411	1.935807	0.000730	7.296362	2.472074	0.000292
  36	3.4825e+00	1.3828	2.230517	0.000740	7.397700	2.506409	0.000296
  37	3.5820e+00	1.4214	2.501006	0.000679	6.789670	2.300402	0.000272
  38	3.6815e+00	1.4647	2.763419	0.000659	6.586993	2.231734	0.000264
  39	3.7810e+00	1.5032	3.041982	0.000699	6.992346	2.369071	0.000280
  40	3.8805e+00	1.5545	3.348804	0.000770	7.701715	2.609412	0.000308
  41	3.9800e+00	1.5850	3.655626	0.000770	7.701715	2.609412	0.000308
  42	4.0795e+00	1.6235	3.905929	0.000628	6.282978	2.128731	0.000252
  43	4.1790e+00	1.6716	4.228900	0.000811	8.107068	2.746749	0.000325
  44	4.2785e+00	1.7069	4.479202	0.000628	6.282978	2.128731	0.000252
  45	4.3780e+00	1.7454	4.765839	0.000720	7.195023	2.437740	0.000288
  46	4.4775e+00	1.7791	5.048438	0.000709	7.093685	2.403405	0.000284
  47	4.5770e+00	1.8160	5.294704	0.000618	6.181640	2.094396	0.000248
  48	4.6765e+00	1.8737	5.629786	0.000841	8.411083	2.849752	0.000337
  49	4.7760e+00	1.9042	5.863940	0.000588	5.877625	1.991393	0.000235
  50	4.8755e+00	1.9363	6.126353	0.000659	6.586993	2.231734	0.000264
  51	4.9750e+00	1.9780	6.449324	0.000811	8.107068	2.746749	0.000325
  52	5.0745e+00	2.0310	6.735961	0.000720	7.195023	2.437740	0.000288
  53	5.1740e+00	2.0614	7.054895	0.000801	8.005730	2.712415	0.000321
  54	5.2735e+00	2.0919	7.309234	0.000638	6.384316	2.163065	0.000256
  55	5.3730e+00	2.1400	7.599908	0.000730	7.296362	2.472074	0.000292
  56	5.4725e+00	2.1882	7.882508	0.000709	7.093685	2.403405	0.000284
  57	5.5720e+00	2.2235	8.177218	0.000740	7.397700	2.506409	0.000296
  58	5.6715e+00	2.2636	8.455781	0.000699	6.992346	2.369071	0.000280
  59	5.7710e+00	2.3069	8.698009	0.000608	6.080301	2.060062	0.000243
  60	5.8705e+00	2.3342	9.012906	0.000790	7.904392	2.678080	0.000316
  61	5.9700e+00	2.3791	9.331839	0.000801	8.005730	2.712415	0.000321
  62	6.0695e+00	2.4176	9.646736	0.000790	7.904392	2.678080	0.000316
  63	6.1690e+00	2.4529	9.905113	0.000649	6.485655	2.197399	0.000260
  64	6.2685e+00	2.4978	10.203861	0.000750	7.499038	2.540743	0.000300
  65	6.3680e+00	2.5555	10.454163	0.000628	6.282978	2.128731	0.000252
  66	6.4675e+00	2.5860	10.752911	0.000750	7.499038	2.540743	0.000300
  67	6.5670e+00	2.6149	11.047622	0.000740	7.397700	2.506409	0.000296
  68	6.6665e+00	2.6646	11.374630	0.000821	8.208407	2.781083	0.000329
  69	6.7660e+00	2.7015	11.624932	0.000628	6.282978	2.128731	0.000252
  70	6.8655e+00	2.7497	11.907532	0.000709	7.093685	2.403405	0.000284
  71	6.9650e+00	2.7801	12.157834	0.000628	6.282978	2.128731	0.000252
  72	7.0645e+00	2.8122	12.472731	0.000790	7.904392	2.678080	0.000316
  73	7.1640e+00	2.8571	12.783590	0.000780	7.803053	2.643746	0.000312
  74	7.2635e+00	2.9021	13.041967	0.000649	6.485655	2.197399	0.000260
  75	7.3630e+00	2.9374	13.344752	0.000760	7.600377	2.575077	0.000304
  76	7.4625e+00	2.9775	13.603129	0.000649	6.485655	2.197399	0.000260
  77	7.5620e+00	3.0192	13.893803	0.000730	7.296362	2.472074	0.000292
  78	7.6615e+00	3.0609	14.220811	0.000821	8.208407	2.781083	0.000329
  79	7.7610e+00	3.0946	14.471113	0.000628	6.282978	2.128731	0.000252
  80	7.8605e+00	3.1443	14.745638	0.000689	6.891008	2.334737	0.000276
  81	7.9600e+00	3.1764	15.060535	0.000790	7.904392	2.678080	0.000316
  82	8.0595e+00	3.2197	15.347172	0.000720	7.195023	2.437740	0.000288
  83	8.1590e+00	3.2598	15.629771	0.000709	7.093685	2.403405	0.000284
  84	8.2585e+00	3.2935	15.916408	0.000720	7.195023	2.437740	0.000288
  85	8.3580e+00	3.3384	16.223230	0.000770	7.701715	2.609412	0.000308
  86	8.4575e+00	3.3769	16.513904	0.000730	7.296362	2.472074	0.000292
  87	8.5570e+00	3.4170	16.792466	0.000699	6.992346	2.369071	0.000280
  88	8.6565e+00	3.4555	17.058917	0.000669	6.688331	2.266068	0.000268
  89	8.7560e+00	3.5020	17.349591	0.000730	7.296362	2.472074	0.000292
  90	8.8555e+00	3.5389	17.628153	0.000699	6.992346	2.369071	0.000280
  91	8.9550e+00	3.5726	17.930938	0.000760	7.600377	2.575077	0.000304
  92	9.0545e+00	3.6256	18.185278	0.000638	6.384316	2.163065	0.000256
  93	9.1540e+00	3.6577	18.484026	0.000750	7.499038	2.540743	0.000300
  94	9.2535e+00	3.6897	18.762588	0.000699	6.992346	2.369071	0.000280
  95	9.3530e+00	3.7347	19.029039	0.000669	6.688331	2.266068	0.000268
  96	9.4525e+00	3.7732	19.311639	0.000709	7.093685	2.403405	0.000284
  97	9.5520e+00	3.8117	19.594238	0.000709	7.093685	2.403405	0.000284
  98	9.6515e+00	3.8550	19.892986	0.000750	7.499038	2.540743	0.000300
  99	9.7510e+00	3.8951	20.171549	0.000699	6.992346	2.369071	0.000280
 100	9.8505e+00	3.9416	20.425888	0.000638	6.384316	2.163065	0.000256
 101	9.9500e+00	3.9785	20.760971	0.000841	8.411083	2.849752	0.000337
 102	1.0050e+01	4.0202	21.023384	0.000659	6.586993	2.231734	0.000264
 103	1.0149e+01	4.0555	21.293872	0.000679	6.789670	2.300402	0.000272
 104	1.0248e+01	4.0924	21.596658	0.000760	7.600377	2.575077	0.000304
 105	1.0348e+01	4.1357	21.887331	0.000730	7.296362	2.472074	0.000292
 106	1.0447e+01	4.1662	22.121485	0.000588	5.877625	1.991393	0.000235
 107	1.0547e+01	4.2095	22.416196	0.000740	7.397700	2.506409	0.000296
 108	1.0646e+01	4.2512	22.702833	0.000720	7.195023	2.437740	0.000288
 109	1.0746e+01	4.3026	22.953135	0.000628	6.282978	2.128731	0.000252
 110	1.0845e+01	4.3411	23.243809	0.000730	7.296362	2.472074	0.000292
 111	1.0945e+01	4.3747	23.522371	0.000699	6.992346	2.369071	0.000280
 112	1.1044e+01	4.4197	23.817082	0.000740	7.397700	2.506409	0.000296
 113	1.1144e+01	4.4469	24.095645	0.000699	6.992346	2.369071	0.000280
 114	1.1243e+01	4.4983	24.378244	0.000709	7.093685	2.403405	0.000284
 115	1.1343e+01	4.5368	24.640658	0.000659	6.586993	2.231734	0.000264
 116	1.1443e+01	4.5737	24.894998	0.000638	6.384316	2.163065	0.000256
 117	1.1542e+01	4.6090	25.201820	0.000770	7.701715	2.609412	0.000308
 118	1.1642e+01	4.6507	25.460197	0.000649	6.485655	2.197399	0.000260
 119	1.1741e+01	4.6892	25.706462	0.000618	6.181640	2.094396	0.000248
 120	1.1841e+01	4.7293	26.013284	0.000770	7.701715	2.609412	0.000308
 121	1.1940e+01	4.7758	26.263587	0.000628	6.282978	2.128731	0.000252
 122	1.2040e+01	4.8191	26.538112	0.000689	6.891008	2.334737	0.000276
 123	1.2139e+01	4.8512	26.776303	0.000598	5.978963	2.025727	0.000239
 124	1.2239e+01	4.9057	27.066977	0.000730	7.296362	2.472074	0.000292
 125	1.2338e+01	4.9314	27.349576	0.000709	7.093685	2.403405	0.000284
 126	1.2438e+01	4.9651	27.611990	0.000659	6.586993	2.231734	0.000264
 127	1.2537e+01	5.0100	27.898627	0.000720	7.195023	2.437740	0.000288
 128	1.2636e+01	5.0565	28.161040	0.000659	6.586993	2.231734	0.000264
 129	1.2736e+01	5.0983	28.427491	0.000669	6.688331	2.266068	0.000268
 130	1.2835e+01	5.1303	28.722202	0.000740	7.397700	2.506409	0.000296
 131	1.2935e+01	5.1785	28.992690	0.000679	6.789670	2.300402	0.000272
 132	1.3034e+01	5.2138	29.178399	0.000466	4.661564	1.579381	0.000187
 133	1.3134e+01	5.2523	29.489258	0.000780	7.803053	2.643746	0.000312
 134	1.3233e+01	5.2972	29.735523	0.000618	6.181640	2.094396	0.000248
 135	1.3333e+01	5.3325	30.030234	0.000740	7.397700	2.506409	0.000296
 136	1.3432e+01	5.3694	30.276499	0.000618	6.181640	2.094396	0.000248
 137	1.3532e+01	5.4063	30.530839	0.000638	6.384316	2.163065	0.000256
 138	1.3632e+01	5.4528	30.825550	0.000740	7.397700	2.506409	0.000296
 139	1.3731e+01	5.4993	31.063741	0.000598	5.978963	2.025727	0.000239
 140	1.3831e+01	5.5346	31.342303	0.000699	6.992346	2.369071	0.000280
 141	1.3930e+01	5.5635	31.616829	0.000689	6.891008	2.334737	0.000276
 142	1.4030e+01	5.6036	31.859057	0.000608	6.080301	2.060062	0.000243
 143	1.4129e+01	5.6437	32.089173	0.000578	5.776286	1.957059	0.000231
 144	1.4229e+01	5.6886	32.379847	0.000730	7.296362	2.472074	0.000292
 145	1.4328e+01	5.7335	32.662447	0.000709	7.093685	2.403405	0.000284
 146	1.4428e+01	5.7784	32.908712	0.000618	6.181640	2.094396	0.000248
 147	1.4527e+01	5.8089	33.171126	0.000659	6.586993	2.231734	0.000264
 148	1.4627e+01	5.8490	33.445651	0.000689	6.891008	2.334737	0.000276
 149	1.4726e+01	5.8940	33.699991	0.000638	6.384316	2.163065	0.000256
 150	1.4825e+01	5.9308	33.966442	0.000669	6.688331	2.266068	0.000268
 151	1.4925e+01	5.9806	34.240967	0.000689	6.891008	2.334737	0.000276
 152	1.5024e+01	6.0046	34.479158	0.000598	5.978963	2.025727	0.000239
 153	1.5124e+01	6.0415	34.713312	0.000588	5.877625	1.991393	0.000235
 154	1.5223e+01	6.0961	34.979763	0.000669	6.688331	2.266068	0.000268
 155	1.5323e+01	6.1234	35.262362	0.000709	7.093685	2.403405	0.000284
 156	1.5422e+01	6.1795	35.504590	0.000608	6.080301	2.060062	0.000243
 157	1.5522e+01	6.2036	35.754893	0.000628	6.282978	2.128731	0.000252
 158	1.5621e+01	6.2437	35.993084	0.000598	5.978963	2.025727	0.000239
 159	1.5721e+01	6.2966	36.275683	0.000709	7.093685	2.403405	0.000284
 160	1.5820e+01	6.3303	36.525986	0.000628	6.282978	2.128731	0.000252
 161	1.5920e+01	6.3624	36.796474	0.000679	6.789670	2.300402	0.000272
 162	1.6020e+01	6.4137	37.034665	0.000598	5.978963	2.025727	0.000239
 163	1.6119e+01	6.4474	37.272856	0.000598	5.978963	2.025727	0.000239
 164	1.6218e+01	6.4891	37.559492	0.000720	7.195023	2.437740	0.000288
 165	1.6318e+01	6.5292	37.785572	0.000567	5.674948	1.922724	0.000227
 166	1.6418e+01	6.5774	38.084320	0.000750	7.499038	2.540743	0.000300
 167	1.6517e+01	6.6014	38.278103	0.000486	4.864241	1.648049	0.000195
 168	1.6616e+01	6.6415	38.520331	0.000608	6.080301	2.060062	0.000243
 169	1.6716e+01	6.6816	38.782744	0.000659	6.586993	2.231734	0.000264
 170	1.6816e+01	6.7169	39.020935	0.000598	5.978963	2.025727	0.000239
 171	1.6915e+01	6.7586	39.275275	0.000638	6.384316	2.163065	0.000256
 172	1.7015e+01	6.8100	39.517503	0.000608	6.080301	2.060062	0.000243
 173	1.7114e+01	6.8340	39.735509	0.000547	5.472271	1.854056	0.000219
 174	1.7213e+01	6.8838	40.014071	0.000699	6.992346	2.369071	0.000280
 175	1.7313e+01	6.9239	40.300708	0.000720	7.195023	2.437740	0.000288
 176	1.7413e+01	6.9592	40.555047	0.000638	6.384316	2.163065	0.000256
 177	1.7512e+01	7.0137	40.781127	0.000567	5.674948	1.922724	0.000227
 178	1.7611e+01	7.0506	41.035466	0.000638	6.384316	2.163065	0.000256
 179	1.7711e+01	7.0779	41.297880	0.000659	6.586993	2.231734	0.000264
 180	1.7811e+01	7.1212	41.552220	0.000638	6.384316	2.163065	0.000256
 181	1.7910e+01	7.1565	41.790411	0.000598	5.978963	2.025727	0.000239
 182	1.8009e+01	7.2046	41.980156	0.000476	4.762903	1.613715	0.000191
 183	1.8109e+01	7.2527	42.303127	0.000811	8.107068	2.746749	0.000325
 184	1.8209e+01	7.2816	42.533244	0.000578	5.776286	1.957059	0.000231
 185	1.8308e+01	7.3249	42.751249	0.000547	5.472271	1.854056	0.000219
 186	1.8407e+01	7.3698	42.977328	0.000567	5.674948	1.922724	0.000227
 187	1.8507e+01	7.4019	43.239742	0.000659	6.586993	2.231734	0.000264
 188	1.8607e+01	7.4372	43.502156	0.000659	6.586993	2.231734	0.000264
 189	1.8706e+01	7.4773	43.756496	0.000638	6.384316	2.163065	0.000256
 190	1.8805e+01	7.5206	43.970464	0.000537	5.370933	1.819721	0.000215
 191	1.8905e+01	7.5591	44.244989	0.000689	6.891008	2.334737	0.000276
 192	1.9005e+01	7.6025	44.446846	0.000507	5.066918	1.716718	0.000203
 193	1.9104e+01	7.6361	44.729445	0.000709	7.093685	2.403405	0.000284
 194	1.9203e+01	7.6779	44.959562	0.000578	5.776286	1.957059	0.000231
 195	1.9303e+01	7.7308	45.197753	0.000598	5.978963	2.025727	0.000239
 196	1.9402e+01	7.7613	45.456130	0.000649	6.485655	2.197399	0.000260
 197	1.9502e+01	7.8030	45.690284	0.000588	5.877625	1.991393	0.000235
 198	1.9602e+01	7.8415	45.908289	0.000547	5.472271	1.854056	0.000219
 199	1.9701e+01	7.8720	46.182814	0.000689	6.891008	2.334737	0.000276
 200	1.9800e+01	7.9201	46.412931	0.000578	5.776286	1.957059	0.000231
 201	1.9900e+01	7.9634	46.651122	0.000598	5.978963	2.025727	0.000239
 202	2.0000e+01	7.9891	46.869127	0.000547	5.472271	1.854056	0.000219
 203	2.0099e+01	8.0388	47.143653	0.000689	6.891008	2.334737	0.000276
 204	2.0198e+01	8.0773	47.353584	0.000527	5.269594	1.785387	0.000211
 205	2.0298e+01	8.1222	47.579663	0.000567	5.674948	1.922724	0.000227
 206	2.0398e+01	8.1559	47.854188	0.000689	6.891008	2.334737	0.000276
 207	2.0497e+01	8.1976	48.100454	0.000618	6.181640	2.094396	0.000248
 208	2.0596e+01	8.2393	48.326533	0.000567	5.674948	1.922724	0.000227
 209	2.0696e+01	8.2682	48.605096	0.000699	6.992346	2.369071	0.000280
 210	2.0796e+01	8.3228	48.831175	0.000567	5.674948	1.922724	0.000227
 211	2.0895e+01	8.3548	49.045144	0.000537	5.370933	1.819721	0.000215
 212	2.0994e+01	8.4014	49.315632	0.000679	6.789670	2.300402	0.000272
 213	2.1094e+01	8.4254	49.569971	0.000638	6.384316	2.163065	0.000256
 214	2.1194e+01	8.4896	49.828348	0.000649	6.485655	2.197399	0.000260
 215	2.1293e+01	8.5233	50.062502	0.000588	5.877625	1.991393	0.000235
 216	2.1392e+01	8.5634	50.320878	0.000649	6.485655	2.197399	0.000260
 217	2.1492e+01	8.6003	50.510624	0.000476	4.762903	1.613715	0.000191
 218	2.1591e+01	8.6484	50.773038	0.000659	6.586993	2.231734	0.000264
 219	2.1691e+01	8.6741	51.031414	0.000649	6.485655	2.197399	0.000260
 220	2.1791e+01	8.7174	51.245382	0.000537	5.370933	1.819721	0.000215
 221	2.1890e+01	8.7623	51.483573	0.000598	5.978963	2.025727	0.000239
 222	2.1989e+01	8.7992	51.713690	0.000578	5.776286	1.957059	0.000231
 223	2.2089e+01	8.8441	51.919584	0.000517	5.168256	1.751053	0.000207
 224	2.2189e+01	8.8826	52.190072	0.000679	6.789670	2.300402	0.000272
 225	2.2288e+01	8.9147	52.432300	0.000608	6.080301	2.060062	0.000243
 226	2.2387e+01	8.9548	52.698751	0.000669	6.688331	2.266068	0.000268
 227	2.2487e+01	8.9949	52.904645	0.000517	5.168256	1.751053	0.000207
 228	2.2587e+01	9.0334	53.138799	0.000588	5.877625	1.991393	0.000235
 229	2.2686e+01	9.0703	53.381027	0.000608	6.080301	2.060062	0.000243
 230	2.2785e+01	9.1169	53.643441	0.000659	6.586993	2.231734	0.000264
 231	2.2885e+01	9.1521	53.861446	0.000547	5.472271	1.854056	0.000219
 232	2.2985e+01	9.1971	54.099637	0.000598	5.978963	2.025727	0.000239
 233	2.3084e+01	9.2275	54.341866	0.000608	6.080301	2.060062	0.000243
 234	2.3183e+01	9.2805	54.555834	0.000537	5.370933	1.819721	0.000215
 235	2.3283e+01	9.3254	54.806136	0.000628	6.282978	2.128731	0.000252
 236	2.3383e+01	9.3543	55.044327	0.000598	5.978963	2.025727	0.000239
 237	2.3482e+01	9.3912	55.278481	0.000588	5.877625	1.991393	0.000235
 238	2.3581e+01	9.4313	55.532821	0.000638	6.384316	2.163065	0.000256
 239	2.3681e+01	9.4746	55.750826	0.000547	5.472271	1.854056	0.000219
 240	2.3780e+01	9.5211	55.968831	0.000547	5.472271	1.854056	0.000219
 241	2.3880e+01	9.5564	56.194911	0.000567	5.674948	1.922724	0.000227
 242	2.3980e+01	9.5949	56.445213	0.000628	6.282978	2.128731	0.000252
 243	2.4079e+01	9.6495	56.719739	0.000689	6.891008	2.334737	0.000276
 244	2.4178e+01	9.6767	56.921595	0.000507	5.066918	1.716718	0.000203
 245	2.4278e+01	9.7120	57.163823	0.000608	6.080301	2.060062	0.000243
 246	2.4378e+01	9.7505	57.422200	0.000649	6.485655	2.197399	0.000260
 247	2.4477e+01	9.7874	57.644243	0.000557	5.573610	1.888390	0.000223
 248	2.4576e+01	9.8307	57.825914	0.000456	4.560226	1.545046	0.000183
 249	2.4676e+01	9.8692	58.100439	0.000689	6.891008	2.334737	0.000276
 250	2.4776e+01	9.9206	58.338630	0.000598	5.978963	2.025727	0.000239
 251	2.4875e+01	9.9495	58.548561	0.000527	5.269594	1.785387	0.000211
 252	2.4974e+01	9.9880	58.782715	0.000588	5.877625	1.991393	0.000235
 253	2.5074e+01	10.0329	59.053203	0.000679	6.789670	2.300402	0.000272
 254	2.5174e+01	10.0698	59.259097	0.000517	5.168256	1.751053	0.000207
 255	2.5273e+01	10.1163	59.529585	0.000679	6.789670	2.300402	0.000272
 256	2.5372e+01	10.1516	59.739516	0.000527	5.269594	1.785387	0.000211
 257	2.5472e+01	10.1837	59.949447	0.000527	5.269594	1.785387	0.000211
 258	2.5572e+01	10.2302	60.203787	0.000638	6.384316	2.163065	0.000256
 259	2.5671e+01	10.2719	60.421792	0.000547	5.472271	1.854056	0.000219
 260	2.5770e+01	10.3216	60.631723	0.000527	5.269594	1.785387	0.000211
 261	2.5870e+01	10.3521	60.849728	0.000547	5.472271	1.854056	0.000219
 262	2.5970e+01	10.3826	61.112142	0.000659	6.586993	2.231734	0.000264
 263	2.6069e+01	10.4403	61.322073	0.000527	5.269594	1.785387	0.000211
 264	2.6169e+01	10.4676	61.572376	0.000628	6.282978	2.128731	0.000252
 265	2.6268e+01	10.5206	61.774232	0.000507	5.066918	1.716718	0.000203
 266	2.6367e+01	10.5526	62.008386	0.000588	5.877625	1.991393	0.000235
 267	2.6467e+01	10.5911	62.246577	0.000598	5.978963	2.025727	0.000239
 268	2.6567e+01	10.6345	62.504954	0.000649	6.485655	2.197399	0.000260
 269	2.6666e+01	10.6746	62.722959	0.000547	5.472271	1.854056	0.000219
 270	2.6765e+01	10.7083	62.936928	0.000537	5.370933	1.819721	0.000215
 271	2.6865e+01	10.7548	63.203379	0.000669	6.688331	2.266068	0.000268
 272	2.6965e+01	10.7997	63.441570	0.000598	5.978963	2.025727	0.000239
 273	2.7064e+01	10.8478	63.635352	0.000486	4.864241	1.648049	0.000195
 274	2.7163e+01	10.8671	63.857395	0.000557	5.573610	1.888390	0.000223
 275	2.7263e+01	10.9072	64.071363	0.000537	5.370933	1.819721	0.000215
 276	2.7363e+01	10.9505	64.301479	0.000578	5.776286	1.957059	0.000231
 277	2.7462e+01	10.9842	64.507373	0.000517	5.168256	1.751053	0.000207
 278	2.7561e+01	11.0355	64.757676	0.000628	6.282978	2.128731	0.000252
 279	2.7661e+01	11.0596	64.955495	0.000497	4.965579	1.682384	0.000199
 280	2.7761e+01	11.1093	65.193686	0.000598	5.978963	2.025727	0.000239
 281	2.7860e+01	11.1382	65.452063	0.000649	6.485655	2.197399	0.000260
 282	2.7959e+01	11.1927	65.657957	0.000517	5.168256	1.751053	0.000207
 283	2.8059e+01	11.2264	65.871925	0.000537	5.370933	1.819721	0.000215
 284	2.8159e+01	11.2633	66.118191	0.000618	6.181640	2.094396	0.000248
 285	2.8258e+01	11.3163	66.316010	0.000497	4.965579	1.682384	0.000199
 286	2.8358e+01	11.3499	66.550164	0.000588	5.877625	1.991393	0.000235
 287	2.8457e+01	11.3965	66.739909	0.000476	4.762903	1.613715	0.000191
 288	2.8556e+01	11.4270	66.982138	0.000608	6.080301	2.060062	0.000243
 289	2.8656e+01	11.4671	67.228403	0.000618	6.181640	2.094396	0.000248
 290	2.8756e+01	11.5007	67.430260	0.000507	5.066918	1.716718	0.000203
 291	2.8855e+01	11.5537	67.676525	0.000618	6.181640	2.094396	0.000248
 292	2.8954e+01	11.5761	67.850122	0.000436	4.357549	1.476378	0.000174
 293	2.9054e+01	11.6323	68.088313	0.000598	5.978963	2.025727	0.000239
 294	2.9154e+01	11.6596	68.318430	0.000578	5.776286	1.957059	0.000231
 295	2.9253e+01	11.7141	68.544509	0.000567	5.674948	1.922724	0.000227
 296	2.9352e+01	11.7446	68.750403	0.000517	5.168256	1.751053	0.000207
 297	2.9452e+01	11.7895	68.944186	0.000486	4.864241	1.648049	0.000195
 298	2.9552e+01	11.8248	69.174302	0.000578	5.776286	1.957059	0.000231
 299	2.9651e+01	11.8601	69.408456	0.000588	5.877625	1.991393	0.000235
 300	2.9750e+01	11.8954	69.622424	0.000537	5.370933	1.819721	0.000215
 301	2.9850e+01	11.9451	69.872727	0.000628	6.282978	2.128731	0.000252
 302	2.9950e+01	11.9820	70.042286	0.000426	4.256211	1.442043	0.000170
 303	3.0049e+01	12.0269	70.276440	0.000588	5.877625	1.991393	0.000235
 304	3.0148e+01	12.0702	70.494446	0.000547	5.472271	1.854056	0.000219
 305	3.0248e+01	12.1120	70.740711	0.000618	6.181640	2.094396	0.000248
 306	3.0348e+01	12.1473	70.890085	0.000375	3.749519	1.270371	0.000150
 307	3.0447e+01	12.1890	71.108090	0.000547	5.472271	1.854056	0.000219
 308	3.0547e+01	12.2259	71.346281	0.000598	5.978963	2.025727	0.000239
 309	3.0646e+01	12.2692	71.576398	0.000578	5.776286	1.957059	0.000231
 310	3.0745e+01	12.2964	71.806515	0.000578	5.776286	1.957059	0.000231
 311	3.0845e+01	12.3349	71.992223	0.000466	4.661564	1.579381	0.000187
 312	3.0945e+01	12.3879	72.198117	0.000517	5.168256	1.751053	0.000207
 313	3.1044e+01	12.4168	72.412085	0.000537	5.370933	1.819721	0.000215
 314	3.1143e+01	12.4633	72.634128	0.000557	5.573610	1.888390	0.000223
 315	3.1243e+01	12.5066	72.819836	0.000466	4.661564	1.579381	0.000187
 316	3.1343e+01	12.5403	73.045915	0.000567	5.674948	1.922724	0.000227
 317	3.1442e+01	12.5900	73.263921	0.000547	5.472271	1.854056	0.000219
 318	3.1541e+01	12.6221	73.457703	0.000486	4.864241	1.648049	0.000195
 319	3.1641e+01	12.6638	73.687820	0.000578	5.776286	1.957059	0.000231
 320	3.1741e+01	12.6879	73.881603	0.000486	4.864241	1.648049	0.000195
 321	3.1840e+01	12.7456	74.127868	0.000618	6.181640	2.094396	0.000248
 322	3.1939e+01	12.7857	74.333762	0.000517	5.168256	1.751053	0.000207
 323	3.2039e+01	12.8194	74.531581	0.000497	4.965579	1.682384	0.000199
 324	3.2139e+01	12.8676	74.749587	0.000547	5.472271	1.854056	0.000219
 325	3.2238e+01	12.9028	74.943369	0.000486	4.864241	1.648049	0.000195
 326	3.2337e+01	12.9430	75.153300	0.000527	5.269594	1.785387	0.000211
 327	3.2437e+01	12.9782	75.326897	0.000436	4.357549	1.476378	0.000174
 328	3.2536e+01	13.0216	75.552977	0.000567	5.674948	1.922724	0.000227
 329	3.2636e+01	13.0488	75.779056	0.000567	5.674948	1.922724	0.000227
 330	3.2736e+01	13.1002	75.976876	0.000497	4.965579	1.682384	0.000199
 331	3.2835e+01	13.1371	76.194881	0.000547	5.472271	1.854056	0.000219
 332	3.2934e+01	13.1836	76.388664	0.000486	4.864241	1.648049	0.000195
 333	3.3034e+01	13.2189	76.618781	0.000578	5.776286	1.957059	0.000231
 334	3.3133e+01	13.2654	76.776229	0.000395	3.952196	1.339040	0.000158
 335	3.3233e+01	13.2975	76.986160	0.000527	5.269594	1.785387	0.000211
 336	3.3333e+01	13.3424	77.200128	0.000537	5.370933	1.819721	0.000215
 337	3.3432e+01	13.3761	77.397948	0.000497	4.965579	1.682384	0.000199
 338	3.3532e+01	13.4242	77.607879	0.000527	5.269594	1.785387	0.000211
 339	3.3631e+01	13.4563	77.821847	0.000537	5.370933	1.819721	0.000215
 340	3.3730e+01	13.4900	77.991407	0.000426	4.256211	1.442043	0.000170
 341	3.3830e+01	13.5253	78.225561	0.000588	5.877625	1.991393	0.000235
 342	3.3929e+01	13.5734	78.431455	0.000517	5.168256	1.751053	0.000207
 343	3.4029e+01	13.6183	78.645423	0.000537	5.370933	1.819721	0.000215
 344	3.4129e+01	13.6488	78.891688	0.000618	6.181640	2.094396	0.000248
 345	3.4228e+01	13.6985	79.089508	0.000497	4.965579	1.682384	0.000199
 346	3.4328e+01	13.7483	79.263105	0.000436	4.357549	1.476378	0.000174
 347	3.4427e+01	13.7788	79.464961	0.000507	5.066918	1.716718	0.000203
 348	3.4526e+01	13.8076	79.646632	0.000456	4.560226	1.545046	0.000183
 349	3.4626e+01	13.8606	79.876749	0.000578	5.776286	1.957059	0.000231
 350	3.4725e+01	13.8943	80.086680	0.000527	5.269594	1.785387	0.000211
 351	3.4825e+01	13.9328	80.256240	0.000426	4.256211	1.442043	0.000170
 352	3.4925e+01	13.9729	80.474245	0.000547	5.472271	1.854056	0.000219
 353	3.5024e+01	14.0162	80.692251	0.000547	5.472271	1.854056	0.000219
 354	3.5123e+01	14.0579	80.914293	0.000557	5.573610	1.888390	0.000223
 355	3.5223e+01	14.0980	81.095964	0.000456	4.560226	1.545046	0.000183
 356	3.5322e+01	14.1349	81.257450	0.000405	4.053534	1.373375	0.000162
 357	3.5422e+01	14.1750	81.523901	0.000669	6.688331	2.266068	0.000268
 358	3.5522e+01	14.2023	81.705572	0.000456	4.560226	1.545046	0.000183
 359	3.5621e+01	14.2520	81.899354	0.000486	4.864241	1.648049	0.000195
 360	3.5721e+01	14.2873	82.105248	0.000517	5.168256	1.751053	0.000207
 361	3.5820e+01	14.3386	82.315179	0.000527	5.269594	1.785387	0.000211
 362	3.5919e+01	14.3739	82.480702	0.000415	4.154873	1.407709	0.000166
 363	3.6019e+01	14.4140	82.710818	0.000578	5.776286	1.957059	0.000231
 364	3.6118e+01	14.4590	82.940935	0.000578	5.776286	1.957059	0.000231
 365	3.6218e+01	14.5023	83.122606	0.000456	4.560226	1.545046	0.000183
 366	3.6318e+01	14.5279	83.336574	0.000537	5.370933	1.819721	0.000215
 367	3.6417e+01	14.5680	83.526320	0.000476	4.762903	1.613715	0.000191
 368	3.6517e+01	14.6049	83.732214	0.000517	5.168256	1.751053	0.000207
 369	3.6616e+01	14.6499	83.909848	0.000446	4.458888	1.510712	0.000179
 370	3.6715e+01	14.6996	84.135927	0.000567	5.674948	1.922724	0.000227
 371	3.6815e+01	14.7317	84.321636	0.000466	4.661564	1.579381	0.000187
 372	3.6914e+01	14.7718	84.479084	0.000395	3.952196	1.339040	0.000158
 373	3.7014e+01	14.8151	84.733423	0.000638	6.384316	2.163065	0.000256
 374	3.7114e+01	14.8472	84.902983	0.000426	4.256211	1.442043	0.000170
 375	3.7213e+01	14.8841	85.129063	0.000567	5.674948	1.922724	0.000227
 376	3.7313e+01	14.9210	85.318808	0.000476	4.762903	1.613715	0.000191
 377	3.7412e+01	14.9707	85.544888	0.000567	5.674948	1.922724	0.000227
 378	3.7511e+01	15.0060	85.754819	0.000527	5.269594	1.785387	0.000211
 379	3.7611e+01	15.0509	85.972824	0.000547	5.472271	1.854056	0.000219
 380	3.7711e+01	15.0830	86.134310	0.000405	4.053534	1.373375	0.000162
 381	3.7810e+01	15.1359	86.311944	0.000446	4.458888	1.510712	0.000179
 382	3.7910e+01	15.1744	86.558209	0.000618	6.181640	2.094396	0.000248
 383	3.8009e+01	15.2065	86.751991	0.000486	4.864241	1.648049	0.000195
 384	3.8108e+01	15.2482	86.945774	0.000486	4.864241	1.648049	0.000195
 385	3.8208e+01	15.2915	87.103222	0.000395	3.952196	1.339040	0.000158
 386	3.8307e+01	15.3349	87.341413	0.000598	5.978963	2.025727	0.000239
 387	3.8407e+01	15.3766	87.519047	0.000446	4.458888	1.510712	0.000179
 388	3.8507e+01	15.4087	87.753201	0.000588	5.877625	1.991393	0.000235
 389	3.8606e+01	15.4439	87.938909	0.000466	4.661564	1.579381	0.000187
 390	3.8706e+01	15.4937	88.164989	0.000567	5.674948	1.922724	0.000227
 391	3.8805e+01	15.5306	88.338586	0.000436	4.357549	1.476378	0.000174
 392	3.8904e+01	15.5723	88.552554	0.000537	5.370933	1.819721	0.000215
 393	3.9004e+01	15.6092	88.770559	0.000547	5.472271	1.854056	0.000219
 394	3.9103e+01	15.6525	88.919933	0.000375	3.749519	1.270371	0.000150
 395	3.9203e+01	15.6798	89.117753	0.000497	4.965579	1.682384	0.000199
 396	3.9303e+01	15.7327	89.327684	0.000527	5.269594	1.785387	0.000211
 397	3.9402e+01	15.7776	89.513392	0.000466	4.661564	1.579381	0.000187
 398	3.9502e+01	15.8113	89.755620	0.000608	6.080301	2.060062	0.000243
 399	3.9601e+01	15.8466	89.913069	0.000395	3.952196	1.339040	0.000158
 400	3.9700e+01	15.8931	90.139148	0.000567	5.674948	1.922724	0.000227
 401	3.9800e+01	15.9332	90.328894	0.000476	4.762903	1.613715	0.000191
 402	3.9900e+01	15.9637	90.486342	0.000395	3.952196	1.339040	0.000158
 403	3.9999e+01	16.0054	90.740681	0.000638	6.384316	2.163065	0.000256
 404	4.0099e+01	16.0552	90.918315	0.000446	4.458888	1.510712	0.000179
 405	4.0198e+01	16.0856	91.124209	0.000517	5.168256	1.751053	0.000207
 406	4.0297e+01	16.1354	91.301843	0.000446	4.458888	1.510712	0.000179
 407	4.0397e+01	16.1675	91.519849	0.000547	5.472271	1.854056	0.000219
 408	4.0496e+01	16.2060	91.713631	0.000486	4.864241	1.648049	0.000195
 409	4.0596e+01	16.2445	91.931636	0.000547	5.472271	1.854056	0.000219
 410	4.0696e+01	16.2830	92.097159	0.000415	4.154873	1.407709	0.000166
 411	4.0795e+01	16.3183	92.286904	0.000476	4.762903	1.613715	0.000191
 412	4.0895e+01	16.3680	92.521058	0.000588	5.877625	1.991393	0.000235
 413	4.0994e+01	16.4065	92.694655	0.000436	4.357549	1.476378	0.000174
 414	4.1093e+01	16.4402	92.904586	0.000527	5.269594	1.785387	0.000211
 415	4.1193e+01	16.4851	93.090294	0.000466	4.661564	1.579381	0.000187
 416	4.1292e+01	16.5348	93.300225	0.000527	5.269594	1.785387	0.000211
 417	4.1392e+01	16.5637	93.538416	0.000598	5.978963	2.025727	0.000239
 418	4.1492e+01	16.5990	93.703939	0.000415	4.154873	1.407709	0.000166
 419	4.1591e+01	16.6391	93.921944	0.000547	5.472271	1.854056	0.000219
 420	4.1691e+01	16.6808	94.115727	0.000486	4.864241	1.648049	0.000195
 421	4.1790e+01	16.7145	94.309509	0.000486	4.864241	1.648049	0.000195
 422	4.1889e+01	16.7706	94.515403	0.000517	5.168256	1.751053	0.000207
 423	4.1989e+01	16.8092	94.672852	0.000395	3.952196	1.339040	0.000158
 424	4.2089e+01	16.8541	94.898931	0.000567	5.674948	1.922724	0.000227
 425	4.2188e+01	16.8829	95.076565	0.000446	4.458888	1.510712	0.000179
 426	4.2288e+01	16.9247	95.266311	0.000476	4.762903	1.613715	0.000191
 427	4.2387e+01	16.9599	95.488353	0.000557	5.573610	1.888390	0.000223
 428	4.2486e+01	17.0113	95.670024	0.000456	4.560226	1.545046	0.000183
 429	4.2586e+01	17.0482	95.871881	0.000507	5.066918	1.716718	0.000203
 430	4.2685e+01	17.0851	96.069701	0.000497	4.965579	1.682384	0.000199
 431	4.2785e+01	17.1252	96.263483	0.000486	4.864241	1.648049	0.000195
 432	4.2885e+01	17.1573	96.453228	0.000476	4.762903	1.613715	0.000191
 433	4.2984e+01	17.1974	96.638937	0.000466	4.661564	1.579381	0.000187
 434	4.3084e+01	17.2471	96.820608	0.000456	4.560226	1.545046	0.000183
 435	4.3183e+01	17.2872	97.014390	0.000486	4.864241	1.648049	0.000195
 436	4.3282e+01	17.3193	97.240470	0.000567	5.674948	1.922724	0.000227
 437	4.3382e+01	17.3610	97.422141	0.000456	4.560226	1.545046	0.000183
 438	4.3481e+01	17.4011	97.599775	0.000446	4.458888	1.510712	0.000179
 439	4.3581e+01	17.4444	97.773372	0.000436	4.357549	1.476378	0.000174
 440	4.3681e+01	17.4845	98.007526	0.000588	5.877625	1.991393	0.000235
 441	4.3780e+01	17.5198	98.229568	0.000557	5.573610	1.888390	0.000223
 442	4.3880e+01	17.5615	98.362794	0.000334	3.344166	1.133034	0.000134
 443	4.3979e+01	17.6049	98.605022	0.000608	6.080301	2.060062	0.000243
 444	4.4078e+01	17.6434	98.794767	0.000476	4.762903	1.613715	0.000191
 445	4.4178e+01	17.6867	98.956253	0.000405	4.053534	1.373375	0.000162
 446	4.4278e+01	17.7204	99.154072	0.000497	4.965579	1.682384	0.000199
 447	4.4377e+01	17.7605	99.392263	0.000598	5.978963	2.025727	0.000239
 448	4.4477e+01	17.8070	99.577972	0.000466	4.661564	1.579381	0.000187
 449	4.4576e+01	17.8423	99.767717	0.000476	4.762903	1.613715	0.000191
 450	4.4675e+01	17.8776	99.945351	0.000446	4.458888	1.510712	0.000179
 451	4.4775e+01	17.9257	100.139133	0.000486	4.864241	1.648049	0.000195
 452	4.4874e+01	17.9546	100.332916	0.000486	4.864241	1.648049	0.000195
 453	4.4974e+01	18.0027	100.518624	0.000466	4.661564	1.579381	0.000187
 454	4.5074e+01	18.0364	100.716444	0.000497	4.965579	1.682384	0.000199
 455	4.5173e+01	18.0717	100.894078	0.000446	4.458888	1.510712	0.000179
 456	4.5273e+01	18.1118	101.091897	0.000497	4.965579	1.682384	0.000199
 457	4.5372e+01	18.1551	101.305866	0.000537	5.370933	1.819721	0.000215
 458	4.5471e+01	18.1920	101.471388	0.000415	4.154873	1.407709	0.000166
 459	4.5571e+01	18.2417	101.636911	0.000415	4.154873	1.407709	0.000166
 460	4.5670e+01	18.2722	101.854916	0.000547	5.472271	1.854056	0.000219
 461	4.5770e+01	18.3123	102.028513	0.000436	4.357549	1.476378	0.000174
 462	4.5870e+01	18.3540	102.238444	0.000527	5.269594	1.785387	0.000211
 463	4.5969e+01	18.4022	102.428189	0.000476	4.762903	1.613715	0.000191
 464	4.6069e+01	18.4374	102.613898	0.000466	4.661564	1.579381	0.000187
 465	4.6168e+01	18.4824	102.775383	0.000405	4.053534	1.373375	0.000162
 466	4.6267e+01	18.5193	103.021648	0.000618	6.181640	2.094396	0.000248
 467	4.6367e+01	18.5626	103.191208	0.000426	4.256211	1.442043	0.000170
 468	4.6467e+01	18.5995	103.356731	0.000415	4.154873	1.407709	0.000166
 469	4.6566e+01	18.6316	103.534365	0.000446	4.458888	1.510712	0.000179
 470	4.6666e+01	18.6765	103.724110	0.000476	4.762903	1.613715	0.000191
 471	4.6765e+01	18.7182	103.942115	0.000547	5.472271	1.854056	0.000219
 472	4.6864e+01	18.7519	104.127824	0.000466	4.661564	1.579381	0.000187
 473	4.6964e+01	18.8000	104.313532	0.000466	4.661564	1.579381	0.000187
 474	4.7063e+01	18.8401	104.499240	0.000466	4.661564	1.579381	0.000187
 475	4.7163e+01	18.8786	104.672837	0.000436	4.357549	1.476378	0.000174
 476	4.7263e+01	18.9235	104.878731	0.000517	5.168256	1.751053	0.000207
 477	4.7362e+01	18.9492	105.036179	0.000395	3.952196	1.339040	0.000158
 478	4.7462e+01	18.9973	105.282444	0.000618	6.181640	2.094396	0.000248
 479	4.7561e+01	19.0390	105.427781	0.000365	3.648181	1.236037	0.000146
 480	4.7660e+01	19.0679	105.645787	0.000547	5.472271	1.854056	0.000219
 481	4.7760e+01	19.1192	105.807272	0.000405	4.053534	1.373375	0.000162
 482	4.7859e+01	19.1529	106.025277	0.000547	5.472271	1.854056	0.000219
 483	4.7959e+01	19.2027	106.178688	0.000385	3.850857	1.304706	0.000154
 484	4.8059e+01	19.2460	106.376508	0.000497	4.965579	1.682384	0.000199
 485	4.8158e+01	19.2829	106.554142	0.000446	4.458888	1.510712	0.000179
 486	4.8258e+01	19.3118	106.739850	0.000466	4.661564	1.579381	0.000187
 487	4.8357e+01	19.3535	106.941707	0.000507	5.066918	1.716718	0.000203
 488	4.8456e+01	19.3936	107.119341	0.000446	4.458888	1.510712	0.000179
 489	4.8556e+01	19.4289	107.309086	0.000476	4.762903	1.613715	0.000191
 490	4.8656e+01	19.4786	107.466535	0.000395	3.952196	1.339040	0.000158
 491	4.8755e+01	19.5187	107.668392	0.000507	5.066918	1.716718	0.000203
 492	4.8855e+01	19.5588	107.870248	0.000507	5.066918	1.716718	0.000203
 493	4.8954e+01	19.5989	108.059994	0.000476	4.762903	1.613715	0.000191
 494	4.9053e+01	19.6310	108.233591	0.000436	4.357549	1.476378	0.000174
 495	4.9153e+01	19.6679	108.407187	0.000436	4.357549	1.476378	0.000174
 496	4.9252e+01	19.7064	108.588859	0.000456	4.560226	1.545046	0.000183
 497	4.9352e+01	19.7545	108.790715	0.000507	5.066918	1.716718	0.000203
 498	4.9452e+01	19.7866	108.976424	0.000466	4.661564	1.579381	0.000187
 499	4.9551e+01	19.8283	109.141946	0.000415	4.154873	1.407709	0.000166
 500	4.9651e+01	19.8748	109.311506	0.000426	4.256211	1.442043	0.000170
 501	4.9750e+01	19.9053	109.541623	0.000578	5.776286	1.957059	0.000231
 502	4.9849e+01	19.9518	109.727331	0.000466	4.661564	1.579381	0.000187
 503	4.9949e+01	19.9919	109.917076	0.000476	4.762903	1.613715	0.000191
 504	5.0048e+01	19.9470	109.783851	0.000334	3.344166	1.133034	-0.000134
 505	5.0148e+01	19.9149	109.682922	0.000253	2.533459	0.858359	-0.000101
 506	5.0248e+01	19.8668	109.533548	0.000375	3.749519	1.270371	-0.000150
 507	5.0347e+01	19.8251	109.436657	0.000243	2.432121	0.824025	-0.000097
 508	5.0447e+01	19.7978	109.291320	0.000365	3.648181	1.236037	-0.000146
 509	5.0546e+01	19.7529	109.145983	0.000365	3.648181	1.236037	-0.000146
 510	5.0645e+01	19.7128	109.032943	0.000284	2.837474	0.961362	-0.000114
 511	5.0745e+01	19.6711	108.891644	0.000355	3.546842	1.201703	-0.000142
 512	5.0844e+01	19.6358	108.758418	0.000334	3.344166	1.133034	-0.000134
 513	5.0944e+01	19.5925	108.645378	0.000284	2.837474	0.961362	-0.000114
 514	5.1044e+01	19.5460	108.479856	0.000415	4.154873	1.407709	-0.000166
 515	5.1143e+01	19.5139	108.366816	0.000284	2.837474	0.961362	-0.000114
 516	5.1242e+01	19.4802	108.193219	0.000436	4.357549	1.476378	-0.000174
 517	5.1342e+01	19.4353	108.064031	0.000324	3.242827	1.098700	-0.000130
 518	5.1441e+01	19.3920	107.926768	0.000345	3.445504	1.167368	-0.000138
 519	5.1541e+01	19.3535	107.813728	0.000284	2.837474	0.961362	-0.000114
 520	5.1641e+01	19.3166	107.656280	0.000395	3.952196	1.339040	-0.000158
 521	5.1740e+01	19.2684	107.527092	0.000324	3.242827	1.098700	-0.000130
 522	5.1840e+01	19.2348	107.401941	0.000314	3.141489	1.064365	-0.000126
 523	5.1939e+01	19.1962	107.200084	0.000507	5.066918	1.716718	-0.000203
 524	5.2038e+01	19.1626	107.058784	0.000355	3.546842	1.201703	-0.000142
 525	5.2138e+01	19.1209	106.953819	0.000263	2.634797	0.892693	-0.000105
 526	5.2237e+01	19.0840	106.776185	0.000446	4.458888	1.510712	-0.000179
 527	5.2337e+01	19.0358	106.667182	0.000274	2.736136	0.927028	-0.000110
 528	5.2437e+01	18.9941	106.505696	0.000405	4.053534	1.373375	-0.000162
 529	5.2536e+01	18.9540	106.360360	0.000365	3.648181	1.236037	-0.000146
 530	5.2636e+01	18.9123	106.223097	0.000345	3.445504	1.167368	-0.000138
 531	5.2735e+01	18.8706	106.053537	0.000426	4.256211	1.442043	-0.000170
 532	5.2834e+01	18.8465	105.896089	0.000395	3.952196	1.339040	-0.000158
 533	5.2934e+01	18.7920	105.762863	0.000334	3.344166	1.133034	-0.000134
 534	5.3033e+01	18.7583	105.593304	0.000426	4.256211	1.442043	-0.000170
 535	5.3133e+01	18.7230	105.468153	0.000314	3.141489	1.064365	-0.000126
 536	5.3233e+01	18.6749	105.282444	0.000466	4.661564	1.579381	-0.000187
 537	5.3332e+01	18.6380	105.185553	0.000243	2.432121	0.824025	-0.000097
 538	5.3431e+01	18.5979	105.003882	0.000456	4.560226	1.545046	-0.000183
 539	5.3531e+01	18.5578	104.850471	0.000385	3.850857	1.304706	-0.000154
 540	5.3630e+01	18.5193	104.717245	0.000334	3.344166	1.133034	-0.000134
 541	5.3730e+01	18.4743	104.592094	0.000314	3.141489	1.064365	-0.000126
 542	5.3830e+01	18.4391	104.386200	0.000517	5.168256	1.751053	-0.000207
 543	5.3929e+01	18.4038	104.285272	0.000253	2.533459	0.858359	-0.000101
 544	5.4029e+01	18.3604	104.099564	0.000466	4.661564	1.579381	-0.000187
 545	5.4128e+01	18.3203	103.970375	0.000324	3.242827	1.098700	-0.000130
 546	5.4227e+01	18.2802	103.788704	0.000456	4.560226	1.545046	-0.000183
 547	5.4327e+01	18.2369	103.643367	0.000365	3.648181	1.236037	-0.000146
 548	5.4426e+01	18.1968	103.502067	0.000355	3.546842	1.201703	-0.000142
 549	5.4526e+01	18.1583	103.356731	0.000365	3.648181	1.236037	-0.000146
 550	5.4626e+01	18.1262	103.171022	0.000466	4.661564	1.579381	-0.000187
 551	5.4725e+01	18.0797	103.033760	0.000345	3.445504	1.167368	-0.000138
 552	5.4825e+01	18.0316	102.908609	0.000314	3.141489	1.064365	-0.000126
 553	5.4924e+01	18.0075	102.751160	0.000395	3.952196	1.339040	-0.000158
 554	5.5023e+01	17.9610	102.573526	0.000446	4.458888	1.510712	-0.000179
 555	5.5123e+01	17.9145	102.436264	0.000345	3.445504	1.167368	-0.000138
 556	5.5222e+01	17.8824	102.282852	0.000385	3.850857	1.304706	-0.000154
 557	5.5322e+01	17.8455	102.153664	0.000324	3.242827	1.098700	-0.000130
 558	5.5422e+01	17.7942	101.967956	0.000466	4.661564	1.579381	-0.000187
 559	5.5521e+01	17.7653	101.842805	0.000314	3.141489	1.064365	-0.000126
 560	5.5620e+01	17.7220	101.636911	0.000517	5.168256	1.751053	-0.000207
 561	5.5720e+01	17.6867	101.499648	0.000345	3.445504	1.167368	-0.000138
 562	5.5819e+01	17.6385	101.350274	0.000375	3.749519	1.270371	-0.000150
 563	5.5919e+01	17.6016	101.196863	0.000385	3.850857	1.304706	-0.000154
 564	5.6019e+01	17.5680	101.027303	0.000426	4.256211	1.442043	-0.000170
 565	5.6118e+01	17.5246	100.881966	0.000365	3.648181	1.236037	-0.000146
 566	5.6218e+01	17.4749	100.748741	0.000334	3.344166	1.133034	-0.000134
 567	5.6317e+01	17.4412	100.542847	0.000517	5.168256	1.751053	-0.000207
 568	5.6416e+01	17.3899	100.409622	0.000334	3.344166	1.133034	-0.000134
 569	5.6516e+01	17.3626	100.236025	0.000436	4.357549	1.476378	-0.000174
 570	5.6615e+01	17.3225	100.102799	0.000334	3.344166	1.133034	-0.000134
 571	5.6715e+01	17.2856	99.929202	0.000436	4.357549	1.476378	-0.000174
 572	5.6815e+01	17.2343	99.755606	0.000436	4.357549	1.476378	-0.000174
 573	5.6914e+01	17.1974	99.614306	0.000355	3.546842	1.201703	-0.000142
 574	5.7014e+01	17.1701	99.416486	0.000497	4.965579	1.682384	-0.000199
 575	5.7113e+01	17.1220	99.299409	0.000294	2.938812	0.995697	-0.000118
 576	5.7212e+01	17.0819	99.154072	0.000365	3.648181	1.236037	-0.000146
 577	5.7312e+01	17.0482	99.008735	0.000365	3.648181	1.236037	-0.000146
 578	5.7411e+01	17.0081	98.810916	0.000497	4.965579	1.682384	-0.000199
 579	5.7511e+01	16.9519	98.677690	0.000334	3.344166	1.133034	-0.000134
 580	5.7611e+01	16.9247	98.528316	0.000375	3.749519	1.270371	-0.000150
 581	5.7710e+01	16.8797	98.358757	0.000426	4.256211	1.442043	-0.000170
 582	5.7809e+01	16.8460	98.209383	0.000375	3.749519	1.270371	-0.000150
 583	5.7909e+01	16.8092	98.055971	0.000385	3.850857	1.304706	-0.000154
 584	5.8008e+01	16.7674	97.854115	0.000507	5.066918	1.716718	-0.000203
 585	5.8108e+01	16.7161	97.728963	0.000314	3.141489	1.064365	-0.000126
 586	5.8208e+01	16.6920	97.535181	0.000486	4.864241	1.648049	-0.000195
 587	5.8307e+01	16.6455	97.401955	0.000334	3.344166	1.133034	-0.000134
 588	5.8407e+01	16.6134	97.244507	0.000395	3.952196	1.339040	-0.000158
 589	5.8506e+01	16.5653	97.070910	0.000436	4.357549	1.476378	-0.000174
 590	5.8605e+01	16.5252	96.933648	0.000345	3.445504	1.167368	-0.000138
 591	5.8705e+01	16.4867	96.743902	0.000476	4.762903	1.613715	-0.000191
 592	5.8804e+01	16.4402	96.562231	0.000456	4.560226	1.545046	-0.000183
 593	5.8904e+01	16.4113	96.408820	0.000385	3.850857	1.304706	-0.000154
 594	5.9004e+01	16.3648	96.263483	0.000365	3.648181	1.236037	-0.000146
 595	5.9103e+01	16.3167	96.089886	0.000436	4.357549	1.476378	-0.000174
 596	5.9203e+01	16.2782	95.948587	0.000355	3.546842	1.201703	-0.000142
 597	5.9302e+01	16.2461	95.783064	0.000415	4.154873	1.407709	-0.000166
 598	5.9401e+01	16.2011	95.581207	0.000507	5.066918	1.716718	-0.000203
 599	5.9501e+01	16.1626	95.443945	0.000345	3.445504	1.167368	-0.000138
 600	5.9600e+01	16.1241	95.246125	0.000497	4.965579	1.682384	-0.000199
 601	5.9700e+01	16.0776	95.133085	0.000284	2.837474	0.961362	-0.000114
 602	5.9800e+01	16.0520	94.967563	0.000415	4.154873	1.407709	-0.000166
 603	5.9899e+01	16.0151	94.810114	0.000395	3.952196	1.339040	-0.000158
 604	5.9998e+01	15.9621	94.604220	0.000517	5.168256	1.751053	-0.000207
 605	6.0098e+01	15.9236	94.483106	0.000304	3.040151	1.030031	-0.000122
 606	6.0197e+01	15.8915	94.333732	0.000375	3.749519	1.270371	-0.000150
 607	6.0297e+01	15.8546	94.127838	0.000517	5.168256	1.751053	-0.000207
 608	6.0397e+01	15.8081	93.962316	0.000415	4.154873	1.407709	-0.000166
 609	6.0496e+01	15.7584	93.780645	0.000456	4.560226	1.545046	-0.000183
 610	6.0596e+01	15.7295	93.627233	0.000385	3.850857	1.304706	-0.000154
 611	6.0695e+01	15.6894	93.481897	0.000365	3.648181	1.236037	-0.000146
 612	6.0794e+01	15.6397	93.304263	0.000446	4.458888	1.510712	-0.000179
 613	6.0894e+01	15.6060	93.167000	0.000345	3.445504	1.167368	-0.000138
 614	6.0993e+01	15.5803	92.973217	0.000486	4.864241	1.648049	-0.000195
 615	6.1093e+01	15.5354	92.811732	0.000405	4.053534	1.373375	-0.000162
 616	6.1193e+01	15.4841	92.634098	0.000446	4.458888	1.510712	-0.000179
 617	6.1292e+01	15.4456	92.460501	0.000436	4.357549	1.476378	-0.000174
 618	6.1392e+01	15.4119	92.327276	0.000334	3.344166	1.133034	-0.000134
 619	6.1491e+01	15.3686	92.153679	0.000436	4.357549	1.476378	-0.000174
 620	6.1590e+01	15.3300	91.996231	0.000395	3.952196	1.339040	-0.000158
 621	6.1690e+01	15.2948	91.794374	0.000507	5.066918	1.716718	-0.000203
 622	6.1789e+01	15.2563	91.612703	0.000456	4.560226	1.545046	-0.000183
 623	6.1889e+01	15.2049	91.471403	0.000355	3.546842	1.201703	-0.000142
 624	6.1989e+01	15.1728	91.285695	0.000466	4.661564	1.579381	-0.000187
 625	6.2088e+01	15.1375	91.099986	0.000466	4.661564	1.579381	-0.000187
 626	6.2188e+01	15.0878	90.918315	0.000456	4.560226	1.545046	-0.000183
 627	6.2287e+01	15.0525	90.768941	0.000375	3.749519	1.270371	-0.000150
 628	6.2386e+01	15.0076	90.635716	0.000334	3.344166	1.133034	-0.000134
 629	6.2486e+01	14.9771	90.458082	0.000446	4.458888	1.510712	-0.000179
 630	6.2586e+01	14.9274	90.256225	0.000507	5.066918	1.716718	-0.000203
 631	6.2685e+01	14.8889	90.114925	0.000355	3.546842	1.201703	-0.000142
 632	6.2785e+01	14.8488	89.981700	0.000334	3.344166	1.133034	-0.000134
 633	6.2884e+01	14.8119	89.783880	0.000497	4.965579	1.682384	-0.000199
 634	6.2983e+01	14.7734	89.569912	0.000537	5.370933	1.819721	-0.000215
 635	6.3083e+01	14.7269	89.392278	0.000446	4.458888	1.510712	-0.000179
 636	6.3182e+01	14.6932	89.226756	0.000415	4.154873	1.407709	-0.000166
 637	6.3282e+01	14.6627	89.016824	0.000527	5.269594	1.785387	-0.000211
 638	6.3382e+01	14.6097	88.859376	0.000395	3.952196	1.339040	-0.000158
 639	6.3481e+01	14.5745	88.726151	0.000334	3.344166	1.133034	-0.000134
 640	6.3581e+01	14.5327	88.512182	0.000537	5.370933	1.819721	-0.000215
 641	6.3680e+01	14.4846	88.322437	0.000476	4.762903	1.613715	-0.000191
 642	6.3779e+01	14.4509	88.173063	0.000375	3.749519	1.270371	-0.000150
 643	6.3879e+01	14.4172	88.007541	0.000415	4.154873	1.407709	-0.000166
 644	6.3978e+01	14.3659	87.805684	0.000507	5.066918	1.716718	-0.000203
 645	6.4078e+01	14.3306	87.624013	0.000456	4.560226	1.545046	-0.000183
 646	6.4177e+01	14.2953	87.454453	0.000426	4.256211	1.442043	-0.000170
 647	6.4277e+01	14.2440	87.268745	0.000466	4.661564	1.579381	-0.000187
 648	6.4376e+01	14.2135	87.091111	0.000446	4.458888	1.510712	-0.000179
 649	6.4476e+01	14.1750	86.909440	0.000456	4.560226	1.545046	-0.000183
 650	6.4576e+01	14.1349	86.764103	0.000365	3.648181	1.236037	-0.000146
 651	6.4675e+01	14.0932	86.525912	0.000598	5.978963	2.025727	-0.000239
 652	6.4775e+01	14.0515	86.376538	0.000375	3.749519	1.270371	-0.000150
 653	6.4874e+01	14.0210	86.271572	0.000263	2.634797	0.892693	-0.000105
 654	6.4974e+01	13.9777	86.037418	0.000588	5.877625	1.991393	-0.000235
 655	6.5073e+01	13.9312	85.839599	0.000497	4.965579	1.682384	-0.000199
 656	6.5172e+01	13.8911	85.686187	0.000385	3.850857	1.304706	-0.000154
 657	6.5272e+01	13.8558	85.476256	0.000527	5.269594	1.785387	-0.000211
 658	6.5371e+01	13.8173	85.282474	0.000486	4.864241	1.648049	-0.000195
 659	6.5471e+01	13.7707	85.129063	0.000385	3.850857	1.304706	-0.000154
 660	6.5570e+01	13.7386	84.939317	0.000476	4.762903	1.613715	-0.000191
 661	6.5670e+01	13.6937	84.725349	0.000537	5.370933	1.819721	-0.000215
 662	6.5769e+01	13.6504	84.608272	0.000294	2.938812	0.995697	-0.000118
 663	6.5869e+01	13.6296	84.382193	0.000567	5.674948	1.922724	-0.000227
 664	6.5969e+01	13.5766	84.208596	0.000436	4.357549	1.476378	-0.000174
 665	6.6068e+01	13.5413	84.018850	0.000476	4.762903	1.613715	-0.000191
 666	6.6168e+01	13.5028	83.845254	0.000436	4.357549	1.476378	-0.000174
 667	6.6267e+01	13.4531	83.659545	0.000466	4.661564	1.579381	-0.000187
 668	6.6367e+01	13.4242	83.469800	0.000476	4.762903	1.613715	-0.000191
 669	6.6466e+01	13.3793	83.304277	0.000415	4.154873	1.407709	-0.000166
 670	6.6566e+01	13.3360	83.090309	0.000537	5.370933	1.819721	-0.000215
 671	6.6665e+01	13.3055	82.916712	0.000436	4.357549	1.476378	-0.000174
 672	6.6764e+01	13.2638	82.702744	0.000537	5.370933	1.819721	-0.000215
 673	6.6864e+01	13.2317	82.529147	0.000436	4.357549	1.476378	-0.000174
 674	6.6963e+01	13.1740	82.383810	0.000365	3.648181	1.236037	-0.000146
 675	6.7063e+01	13.1403	82.145619	0.000598	5.978963	2.025727	-0.000239
 676	6.7162e+01	13.1034	81.951837	0.000486	4.864241	1.648049	-0.000195
 677	6.7262e+01	13.0601	81.818611	0.000334	3.344166	1.133034	-0.000134
 678	6.7362e+01	13.0167	81.604643	0.000537	5.370933	1.819721	-0.000215
 679	6.7461e+01	12.9847	81.459306	0.000365	3.648181	1.236037	-0.000146
 680	6.7561e+01	12.9558	81.249375	0.000527	5.269594	1.785387	-0.000211
 681	6.7660e+01	12.9077	81.075778	0.000436	4.357549	1.476378	-0.000174
 682	6.7760e+01	12.8579	80.914293	0.000405	4.053534	1.373375	-0.000162
 683	6.7859e+01	12.8226	80.732622	0.000456	4.560226	1.545046	-0.000183
 684	6.7959e+01	12.7922	80.546914	0.000466	4.661564	1.579381	-0.000187
 685	6.8058e+01	12.7360	80.336983	0.000527	5.269594	1.785387	-0.000211
 686	6.8157e+01	12.6991	80.131089	0.000517	5.168256	1.751053	-0.000207
 687	6.8257e+01	12.6686	79.945380	0.000466	4.661564	1.579381	-0.000187
 688	6.8356e+01	12.6221	79.759672	0.000466	4.661564	1.579381	-0.000187
 689	6.8456e+01	12.5788	79.569927	0.000476	4.762903	1.613715	-0.000191
 690	6.8555e+01	12.5403	79.384219	0.000466	4.661564	1.579381	-0.000187
 691	6.8655e+01	12.5066	79.158139	0.000567	5.674948	1.922724	-0.000227
 692	6.8754e+01	12.4617	79.004728	0.000385	3.850857	1.304706	-0.000154
 693	6.8854e+01	12.4232	78.827094	0.000446	4.458888	1.510712	-0.000179
 694	6.8954e+01	12.3847	78.625237	0.000507	5.066918	1.716718	-0.000203
 695	6.9053e+01	12.3430	78.435492	0.000476	4.762903	1.613715	-0.000191
 696	6.9153e+01	12.3061	78.274006	0.000405	4.053534	1.373375	-0.000162
 697	6.9252e+01	12.2676	78.080224	0.000486	4.864241	1.648049	-0.000195
 698	6.9352e+01	12.2307	77.878367	0.000507	5.066918	1.716718	-0.000203
 699	6.9451e+01	12.1858	77.692659	0.000466	4.661564	1.579381	-0.000187
 700	6.9550e+01	12.1489	77.498876	0.000486	4.864241	1.648049	-0.000195
 701	6.9650e+01	12.1071	77.292982	0.000517	5.168256	1.751053	-0.000207
 702	6.9749e+01	12.0558	77.091125	0.000507	5.066918	1.716718	-0.000203
 703	6.9849e+01	12.0157	76.909454	0.000456	4.560226	1.545046	-0.000183
 704	6.9948e+01	11.9868	76.719709	0.000476	4.762903	1.613715	-0.000191
 705	7.0048e+01	11.9451	76.550149	0.000426	4.256211	1.442043	-0.000170
 706	7.0147e+01	11.9034	76.376552	0.000436	4.357549	1.476378	-0.000174
 707	7.0247e+01	11.8681	76.178733	0.000497	4.965579	1.682384	-0.000199
 708	7.0347e+01	11.8280	75.960727	0.000547	5.472271	1.854056	-0.000219
 709	7.0446e+01	11.7847	75.779056	0.000456	4.560226	1.545046	-0.000183
 710	7.0546e+01	11.7398	75.605460	0.000436	4.357549	1.476378	-0.000174
 711	7.0645e+01	11.7141	75.415714	0.000476	4.762903	1.613715	-0.000191
 712	7.0745e+01	11.6548	75.242117	0.000436	4.357549	1.476378	-0.000174
 713	7.0844e+01	11.6323	75.020075	0.000557	5.573610	1.888390	-0.000223
 714	7.0944e+01	11.5826	74.834367	0.000466	4.661564	1.579381	-0.000187
 715	7.1043e+01	11.5473	74.660770	0.000436	4.357549	1.476378	-0.000174
 716	7.1142e+01	11.5040	74.430653	0.000578	5.776286	1.957059	-0.000231
 717	7.1242e+01	11.4719	74.248982	0.000456	4.560226	1.545046	-0.000183
 718	7.1341e+01	11.4253	74.071348	0.000446	4.458888	1.510712	-0.000179
 719	7.1441e+01	11.3852	73.861417	0.000527	5.269594	1.785387	-0.000211
 720	7.1540e+01	11.3403	73.699931	0.000405	4.053534	1.373375	-0.000162
 721	7.1640e+01	11.3130	73.461740	0.000598	5.978963	2.025727	-0.000239
 722	7.1740e+01	11.2713	73.308329	0.000385	3.850857	1.304706	-0.000154
 723	7.1839e+01	11.2248	73.106473	0.000507	5.066918	1.716718	-0.000203
 724	7.1939e+01	11.1991	72.928839	0.000446	4.458888	1.510712	-0.000179
 725	7.2038e+01	11.1526	72.731019	0.000497	4.965579	1.682384	-0.000199
 726	7.2138e+01	11.1013	72.525125	0.000517	5.168256	1.751053	-0.000207
 727	7.2237e+01	11.0580	72.339417	0.000466	4.661564	1.579381	-0.000187
 728	7.2337e+01	11.0291	72.129486	0.000527	5.269594	1.785387	-0.000211
 729	7.2436e+01	10.9826	71.984149	0.000365	3.648181	1.236037	-0.000146
 730	7.2535e+01	10.9457	71.774218	0.000527	5.269594	1.785387	-0.000211
 731	7.2635e+01	10.9184	71.580435	0.000486	4.864241	1.648049	-0.000195
 732	7.2734e+01	10.8703	71.370504	0.000527	5.269594	1.785387	-0.000211
 733	7.2834e+01	10.8350	71.176722	0.000486	4.864241	1.648049	-0.000195
 734	7.2933e+01	10.7965	70.966791	0.000527	5.269594	1.785387	-0.000211
 735	7.3033e+01	10.7419	70.777045	0.000476	4.762903	1.613715	-0.000191
 736	7.3132e+01	10.7147	70.563077	0.000537	5.370933	1.819721	-0.000215
 737	7.3232e+01	10.6730	70.389480	0.000436	4.357549	1.476378	-0.000174
 738	7.3332e+01	10.6280	70.195698	0.000486	4.864241	1.648049	-0.000195
 739	7.3431e+01	10.5911	70.018064	0.000446	4.458888	1.510712	-0.000179
 740	7.3531e+01	10.5478	69.820244	0.000497	4.965579	1.682384	-0.000199
 741	7.3630e+01	10.5093	69.614350	0.000517	5.168256	1.751053	-0.000207
 742	7.3730e+01	10.4676	69.424605	0.000476	4.762903	1.613715	-0.000191
 743	7.3829e+01	10.4307	69.222748	0.000507	5.066918	1.716718	-0.000203
 744	7.3928e+01	10.3970	69.004743	0.000547	5.472271	1.854056	-0.000219
 745	7.4028e+01	10.3457	68.806923	0.000497	4.965579	1.682384	-0.000199
 746	7.4127e+01	10.3024	68.657549	0.000375	3.749519	1.270371	-0.000150
 747	7.4227e+01	10.2623	68.443581	0.000537	5.370933	1.819721	-0.000215
 748	7.4326e+01	10.2286	68.209427	0.000588	5.877625	1.991393	-0.000235
 749	7.4426e+01	10.1981	68.023719	0.000466	4.661564	1.579381	-0.000187
 750	7.4525e+01	10.1468	67.866270	0.000395	3.952196	1.339040	-0.000158
 751	7.4625e+01	10.1099	67.652302	0.000537	5.370933	1.819721	-0.000215
 752	7.4725e+01	10.0650	67.422185	0.000578	5.776286	1.957059	-0.000231
 753	7.4824e+01	10.0361	67.204180	0.000547	5.472271	1.854056	-0.000219
 754	7.4924e+01	9.9896	67.062880	0.000355	3.546842	1.201703	-0.000142
 755	7.5023e+01	9.9430	66.861024	0.000507	5.066918	1.716718	-0.000203
 756	7.5123e+01	9.9093	66.643018	0.000547	5.472271	1.854056	-0.000219
 757	7.5222e+01	9.8773	66.457310	0.000466	4.661564	1.579381	-0.000187
 758	7.5322e+01	9.8356	66.263527	0.000486	4.864241	1.648049	-0.000195
 759	7.5421e+01	9.7970	66.041485	0.000557	5.573610	1.888390	-0.000223
 760	7.5520e+01	9.7553	65.811368	0.000578	5.776286	1.957059	-0.000231
 761	7.5620e+01	9.7104	65.674106	0.000345	3.445504	1.167368	-0.000138
 762	7.5719e+01	9.6815	65.423803	0.000628	6.282978	2.128731	-0.000252
 763	7.5819e+01	9.6318	65.270392	0.000385	3.850857	1.304706	-0.000154
 764	7.5918e+01	9.5933	65.060461	0.000527	5.269594	1.785387	-0.000211
 765	7.6018e+01	9.5532	64.838419	0.000557	5.573610	1.888390	-0.000223
 766	7.6118e+01	9.5179	64.672896	0.000415	4.154873	1.407709	-0.000166
 767	7.6217e+01	9.4762	64.442779	0.000578	5.776286	1.957059	-0.000231
 768	7.6317e+01	9.4313	64.257071	0.000466	4.661564	1.579381	-0.000187
 769	7.6416e+01	9.3992	64.055214	0.000507	5.066918	1.716718	-0.000203
 770	7.6516e+01	9.3607	63.849320	0.000517	5.168256	1.751053	-0.000207
 771	7.6615e+01	9.3126	63.631315	0.000547	5.472271	1.854056	-0.000219
 772	7.6715e+01	9.2741	63.421384	0.000527	5.269594	1.785387	-0.000211
 773	7.6814e+01	9.2404	63.215490	0.000517	5.168256	1.751053	-0.000207
 774	7.6913e+01	9.1971	63.033819	0.000456	4.560226	1.545046	-0.000183
 775	7.7013e+01	9.1618	62.819851	0.000537	5.370933	1.819721	-0.000215
 776	7.7112e+01	9.1217	62.585697	0.000588	5.877625	1.991393	-0.000235
 777	7.7212e+01	9.0735	62.420174	0.000415	4.154873	1.407709	-0.000166
 778	7.7311e+01	9.0382	62.194095	0.000567	5.674948	1.922724	-0.000227
 779	7.7411e+01	9.0030	61.980126	0.000537	5.370933	1.819721	-0.000215
 780	7.7510e+01	8.9484	61.794418	0.000466	4.661564	1.579381	-0.000187
 781	7.7610e+01	8.9163	61.600636	0.000486	4.864241	1.648049	-0.000195
 782	7.7710e+01	8.8826	61.382630	0.000547	5.472271	1.854056	-0.000219
 783	7.7809e+01	8.8345	61.192885	0.000476	4.762903	1.613715	-0.000191
 784	7.7909e+01	8.7976	60.970842	0.000557	5.573610	1.888390	-0.000223
 785	7.8008e+01	8.7575	60.777060	0.000486	4.864241	1.648049	-0.000195
 786	7.8108e+01	8.7190	60.555018	0.000557	5.573610	1.888390	-0.000223
 787	7.8207e+01	8.6677	60.385458	0.000426	4.256211	1.442043	-0.000170
 788	7.8306e+01	8.6420	60.357198	0.000071	0.709368	0.240341	-0.000028
 789	7.8406e+01	8.5923	60.316826	0.000101	1.013384	0.343344	-0.000041
 790	7.8505e+01	8.5618	60.280492	0.000091	0.912045	0.309009	-0.000037
 791	7.8605e+01	8.5249	59.521511	0.001905	19.051611	6.454860	-0.000763
 792	7.8704e+01	8.4832	59.283320	0.000598	5.978963	2.025727	-0.000239
 793	7.8804e+01	8.4335	59.033017	0.000628	6.282978	2.128731	-0.000252
 794	7.8903e+01	8.3966	58.867495	0.000415	4.154873	1.407709	-0.000166
 795	7.9003e+01	8.3613	58.726195	0.000355	3.546842	1.201703	-0.000142
 796	7.9103e+01	8.3196	58.597007	0.000324	3.242827	1.098700	-0.000130
 797	7.9202e+01	8.2794	58.201367	0.000993	9.931159	3.364768	-0.000398
 798	7.9302e+01	8.2345	58.003548	0.000497	4.965579	1.682384	-0.000199
 799	7.9401e+01	8.2008	57.797654	0.000517	5.168256	1.751053	-0.000207
 800	7.9501e+01	8.1607	57.559463	0.000598	5.978963	2.025727	-0.000239
 801	7.9600e+01	8.1174	57.365680	0.000486	4.864241	1.648049	-0.000195
 802	7.9700e+01	8.0789	57.127489	0.000598	5.978963	2.025727	-0.000239
 803	7.9799e+01	8.0436	56.925632	0.000507	5.066918	1.716718	-0.000203
 804	7.9898e+01	8.0083	56.703590	0.000557	5.573610	1.888390	-0.000223
 805	7.9998e+01	7.9650	56.465399	0.000598	5.978963	2.025727	-0.000239
 806	8.0097e+01	7.9137	56.251431	0.000537	5.370933	1.819721	-0.000215
 807	8.0197e+01	7.8880	56.061685	0.000476	4.762903	1.613715	-0.000191
 808	8.0296e+01	7.8447	55.835606	0.000567	5.674948	1.922724	-0.000227
 809	8.0396e+01	7.7950	55.593378	0.000608	6.080301	2.060062	-0.000243
 810	8.0496e+01	7.7581	55.415744	0.000446	4.458888	1.510712	-0.000179
 811	8.0595e+01	7.7244	55.161404	0.000638	6.384316	2.163065	-0.000256
 812	8.0695e+01	7.6827	54.959547	0.000507	5.066918	1.716718	-0.000203
 813	8.0794e+01	7.6474	54.753653	0.000517	5.168256	1.751053	-0.000207
 814	8.0894e+01	7.5976	54.503351	0.000628	6.282978	2.128731	-0.000252
 815	8.0993e+01	7.5543	54.285346	0.000547	5.472271	1.854056	-0.000219
 816	8.1093e+01	7.5206	54.059266	0.000567	5.674948	1.922724	-0.000227
 817	8.1192e+01	7.4805	53.849335	0.000527	5.269594	1.785387	-0.000211
 818	8.1291e+01	7.4356	53.611144	0.000598	5.978963	2.025727	-0.000239
 819	8.1391e+01	7.4083	53.449659	0.000405	4.053534	1.373375	-0.000162
 820	8.1490e+01	7.3570	53.171096	0.000699	6.992346	2.369071	-0.000280
 821	8.1590e+01	7.3217	52.953091	0.000547	5.472271	1.854056	-0.000219
 822	8.1689e+01	7.2880	52.755271	0.000497	4.965579	1.682384	-0.000199
 823	8.1789e+01	7.2415	52.509006	0.000618	6.181640	2.094396	-0.000248
 824	8.1888e+01	7.1982	52.311186	0.000497	4.965579	1.682384	-0.000199
 825	8.1988e+01	7.1613	52.081070	0.000578	5.776286	1.957059	-0.000231
 826	8.2088e+01	7.1260	51.854990	0.000567	5.674948	1.922724	-0.000227
 827	8.2187e+01	7.0763	51.645059	0.000527	5.269594	1.785387	-0.000211
 828	8.2287e+01	7.0362	51.398794	0.000618	6.181640	2.094396	-0.000248
 829	8.2386e+01	6.9993	51.160603	0.000598	5.978963	2.025727	-0.000239
 830	8.2486e+01	6.9656	50.942597	0.000547	5.472271	1.854056	-0.000219
 831	8.2585e+01	6.9175	50.696332	0.000618	6.181640	2.094396	-0.000248
 832	8.2684e+01	6.8918	50.466215	0.000578	5.776286	1.957059	-0.000231
 833	8.2784e+01	6.8404	50.252247	0.000537	5.370933	1.819721	-0.000215
 834	8.2883e+01	6.8019	50.046353	0.000517	5.168256	1.751053	-0.000207
 835	8.2983e+01	6.7650	49.779902	0.000669	6.688331	2.266068	-0.000268
 836	8.3082e+01	6.7265	49.565934	0.000537	5.370933	1.819721	-0.000215
 837	8.3182e+01	6.6832	49.327743	0.000598	5.978963	2.025727	-0.000239
 838	8.3281e+01	6.6383	49.093589	0.000588	5.877625	1.991393	-0.000235
 839	8.3381e+01	6.5966	48.827138	0.000669	6.688331	2.266068	-0.000268
 840	8.3481e+01	6.5629	48.625281	0.000507	5.066918	1.716718	-0.000203
 841	8.3580e+01	6.5292	48.399202	0.000567	5.674948	1.922724	-0.000227
 842	8.3680e+01	6.4827	48.197345	0.000507	5.066918	1.716718	-0.000203
 843	8.3779e+01	6.4442	47.955117	0.000608	6.080301	2.060062	-0.000243
 844	8.3879e+01	6.4041	47.729037	0.000567	5.674948	1.922724	-0.000227
 845	8.3978e+01	6.3704	47.490846	0.000598	5.978963	2.025727	-0.000239
 846	8.4078e+01	6.3319	47.244581	0.000618	6.181640	2.094396	-0.000248
 847	8.4177e+01	6.2854	47.010427	0.000588	5.877625	1.991393	-0.000235
 848	8.4276e+01	6.2501	46.820682	0.000476	4.762903	1.613715	-0.000191
 849	8.4376e+01	6.2116	46.558268	0.000659	6.586993	2.231734	-0.000264
 850	8.4475e+01	6.1699	46.340263	0.000547	5.472271	1.854056	-0.000219
 851	8.4575e+01	6.1218	46.081886	0.000649	6.485655	2.197399	-0.000260
 852	8.4674e+01	6.0881	45.867918	0.000537	5.370933	1.819721	-0.000215
 853	8.4774e+01	6.0447	45.581281	0.000720	7.195023	2.437740	-0.000288
 854	8.4874e+01	6.0095	45.343090	0.000598	5.978963	2.025727	-0.000239
 855	8.4973e+01	5.9661	45.121048	0.000557	5.573610	1.888390	-0.000223
 856	8.5073e+01	5.9212	44.955525	0.000415	4.154873	1.407709	-0.000166
 857	8.5172e+01	5.8875	44.693111	0.000659	6.586993	2.231734	-0.000264
 858	8.5272e+01	5.8554	44.462994	0.000578	5.776286	1.957059	-0.000231
 859	8.5371e+01	5.8105	44.184432	0.000699	6.992346	2.369071	-0.000280
 860	8.5471e+01	5.7817	43.998724	0.000466	4.661564	1.579381	-0.000187
 861	8.5570e+01	5.7319	43.708050	0.000730	7.296362	2.472074	-0.000292
 862	8.5669e+01	5.6854	43.510230	0.000497	4.965579	1.682384	-0.000199
 863	8.5769e+01	5.6453	43.243779	0.000669	6.688331	2.266068	-0.000268
 864	8.5868e+01	5.6068	43.029811	0.000537	5.370933	1.819721	-0.000215
 865	8.5968e+01	5.5587	42.791620	0.000598	5.978963	2.025727	-0.000239
 866	8.6067e+01	5.5330	42.541318	0.000628	6.282978	2.128731	-0.000252
 867	8.6167e+01	5.4961	42.274867	0.000669	6.688331	2.266068	-0.000268
 868	8.6266e+01	5.4496	42.081084	0.000486	4.864241	1.648049	-0.000195
 869	8.6366e+01	5.4175	41.822708	0.000649	6.485655	2.197399	-0.000260
 870	8.6466e+01	5.3694	41.568368	0.000638	6.384316	2.163065	-0.000256
 871	8.6565e+01	5.3261	41.354400	0.000537	5.370933	1.819721	-0.000215
 872	8.6665e+01	5.2876	41.104098	0.000628	6.282978	2.128731	-0.000252
 873	8.6764e+01	5.2571	40.841684	0.000659	6.586993	2.231734	-0.000264
 874	8.6864e+01	5.2089	40.611567	0.000578	5.776286	1.957059	-0.000231
 875	8.6963e+01	5.1769	40.401636	0.000527	5.269594	1.785387	-0.000211
 876	8.7063e+01	5.1287	40.131148	0.000679	6.789670	2.300402	-0.000272
 877	8.7162e+01	5.0950	39.913142	0.000547	5.472271	1.854056	-0.000219
 878	8.7261e+01	5.0533	39.666877	0.000618	6.181640	2.094396	-0.000248
 879	8.7361e+01	5.0084	39.408501	0.000649	6.485655	2.197399	-0.000260
 880	8.7460e+01	4.9811	39.206644	0.000507	5.066918	1.716718	-0.000203
 881	8.7560e+01	4.9282	38.915970	0.000730	7.296362	2.472074	-0.000292
 882	8.7659e+01	4.8913	38.754485	0.000405	4.053534	1.373375	-0.000162
 883	8.7759e+01	4.8512	38.504182	0.000628	6.282978	2.128731	-0.000252
 884	8.7859e+01	4.8111	38.249843	0.000638	6.384316	2.163065	-0.000256
 885	8.7958e+01	4.7742	38.156988	0.000233	2.330782	0.789690	-0.000093
 886	8.8058e+01	4.7389	37.999540	0.000395	3.952196	1.339040	-0.000158
 887	8.8157e+01	4.6924	37.862278	0.000345	3.445504	1.167368	-0.000138
 888	8.8257e+01	4.6523	37.700792	0.000405	4.053534	1.373375	-0.000162
 889	8.8356e+01	4.6090	37.595827	0.000263	2.634797	0.892693	-0.000105
 890	8.8456e+01	4.5817	37.349561	0.000618	6.181640	2.094396	-0.000248
 891	8.8555e+01	4.5320	37.143667	0.000517	5.168256	1.751053	-0.000207
 892	8.8654e+01	4.5031	36.792437	0.000882	8.816437	2.987090	-0.000353
 893	8.8754e+01	4.4534	36.517911	0.000689	6.891008	2.334737	-0.000276
 894	8.8853e+01	4.4052	36.154569	0.000912	9.120452	3.090093	-0.000365
 895	8.8953e+01	4.3715	35.839673	0.000790	7.904392	2.678080	-0.000316
 896	8.9052e+01	4.3330	35.464219	0.000942	9.424467	3.193096	-0.000377
 897	8.9152e+01	4.2929	35.193731	0.000679	6.789670	2.300402	-0.000272
 898	8.9251e+01	4.2464	34.858649	0.000841	8.411083	2.849752	-0.000337
 899	8.9351e+01	4.2111	34.563938	0.000740	7.397700	2.506409	-0.000296
 900	8.9451e+01	4.1758	34.277301	0.000720	7.195023	2.437740	-0.000288
 901	8.9550e+01	4.1341	34.119853	0.000395	3.952196	1.339040	-0.000158
 902	8.9650e+01	4.0940	33.926070	0.000486	4.864241	1.648049	-0.000195
 903	8.9749e+01	4.0667	33.712102	0.000537	5.370933	1.819721	-0.000215
 904	8.9849e+01	4.0202	33.457762	0.000638	6.384316	2.163065	-0.000256
 905	8.9948e+01	3.9801	33.223609	0.000588	5.877625	1.991393	-0.000235
 906	9.0047e+01	3.9400	32.973306	0.000628	6.282978	2.128731	-0.000252
 907	9.0147e+01	3.9031	32.727041	0.000618	6.181640	2.094396	-0.000248
 908	9.0246e+01	3.8550	32.460590	0.000669	6.688331	2.266068	-0.000268
 909	9.0346e+01	3.8149	32.266807	0.000486	4.864241	1.648049	-0.000195
 910	9.0445e+01	3.7828	32.024579	0.000608	6.080301	2.060062	-0.000243
 911	9.0545e+01	3.7363	31.741980	0.000709	7.093685	2.403405	-0.000284
 912	9.0644e+01	3.6929	31.507826	0.000588	5.877625	1.991393	-0.000235
 913	9.0744e+01	3.6641	31.273672	0.000588	5.877625	1.991393	-0.000235
 914	9.0844e+01	3.6208	31.027407	0.000618	6.181640	2.094396	-0.000248
 915	9.0943e+01	3.5694	30.777104	0.000628	6.282978	2.128731	-0.000252
 916	9.1043e+01	3.5421	30.567173	0.000527	5.269594	1.785387	-0.000211
 917	9.1142e+01	3.4988	30.316871	0.000628	6.282978	2.128731	-0.000252
 918	9.1242e+01	3.4651	30.094828	0.000557	5.573610	1.888390	-0.000223
 919	9.1341e+01	3.4202	29.844526	0.000628	6.282978	2.128731	-0.000252
 920	9.1441e+01	3.3913	29.606335	0.000598	5.978963	2.025727	-0.000239
 921	9.1540e+01	3.3320	29.436775	0.000426	4.256211	1.442043	-0.000170
 922	9.1639e+01	3.3031	29.234918	0.000507	5.066918	1.716718	-0.000203
 923	9.1739e+01	3.2614	29.085544	0.000375	3.749519	1.270371	-0.000150
 924	9.1838e+01	3.2213	28.806982	0.000699	6.992346	2.369071	-0.000280
 925	9.1938e+01	3.1828	28.605125	0.000507	5.066918	1.716718	-0.000203
 926	9.2037e+01	3.1427	28.370971	0.000588	5.877625	1.991393	-0.000235
 927	9.2137e+01	3.1010	28.257932	0.000284	2.837474	0.961362	-0.000114
 928	9.2237e+01	3.0593	28.048001	0.000527	5.269594	1.785387	-0.000211
 929	9.2336e+01	3.0144	27.947072	0.000253	2.533459	0.858359	-0.000101
 930	9.2436e+01	2.9871	27.882478	0.000162	1.621414	0.549350	-0.000065
 931	9.2535e+01	2.9438	27.821921	0.000152	1.520075	0.515015	-0.000061
 932	9.2635e+01	2.9021	27.793661	0.000071	0.709368	0.240341	-0.000028
 933	9.2734e+01	2.8587	27.789624	0.000010	0.101338	0.034334	-0.000004
 934	9.2834e+01	2.8218	27.737141	0.000132	1.317399	0.446347	-0.000053
 935	9.2933e+01	2.7769	27.720993	0.000041	0.405353	0.137337	-0.000016
 936	9.3032e+01	2.7336	27.700807	0.000051	0.506692	0.171672	-0.000020
 937	9.3132e+01	2.7031	27.700807	-0.000000	-0.000000	-0.000000	0.000000
 938	9.3231e+01	2.6630	27.692733	0.000020	0.202677	0.068669	-0.000008
 939	9.3331e+01	2.6213	27.704844	-0.000030	-0.304015	-0.103003	0.000012
 940	9.3430e+01	2.5780	27.672547	0.000081	0.810707	0.274675	-0.000032
 941	9.3530e+01	2.5363	27.696770	-0.000061	-0.608030	-0.206006	0.000024
 942	9.3629e+01	2.4994	27.676584	0.000051	0.506692	0.171672	-0.000020
 943	9.3729e+01	2.4593	27.648324	0.000071	0.709368	0.240341	-0.000028
 944	9.3829e+01	2.4208	27.563544	0.000213	2.128105	0.721022	-0.000085
 945	9.3928e+01	2.3823	27.188091	0.000942	9.424467	3.193096	-0.000377
 946	9.4028e+01	2.3454	26.408923	0.001956	19.558302	6.626532	-0.000783
 947	9.4127e+01	2.3053	25.056483	0.003395	33.948349	11.502012	-0.001359
 948	9.4227e+01	2.2684	23.473926	0.003972	39.724635	13.459071	-0.001591
 949	9.4326e+01	2.2219	22.262785	0.003040	30.401506	10.300309	-0.001217
 950	9.4425e+01	2.1834	21.721809	0.001358	13.579340	4.600805	-0.000544
 951	9.4525e+01	2.1400	21.386727	0.000841	8.411083	2.849752	-0.000337
 952	9.4624e+01	2.1144	21.067793	0.000801	8.005730	2.712415	-0.000321
 953	9.4724e+01	2.0630	20.797305	0.000679	6.789670	2.300402	-0.000272
 954	9.4823e+01	2.0149	20.530854	0.000669	6.688331	2.266068	-0.000268
 955	9.4923e+01	1.9828	20.203846	0.000821	8.208407	2.781083	-0.000329
 956	9.5022e+01	1.9315	19.917209	0.000720	7.195023	2.437740	-0.000288
 957	9.5122e+01	1.9010	19.670944	0.000618	6.181640	2.094396	-0.000248
 958	9.5222e+01	1.8593	19.368159	0.000760	7.600377	2.575077	-0.000304
 959	9.5321e+01	1.8256	19.089596	0.000699	6.992346	2.369071	-0.000280
 960	9.5421e+01	1.7791	18.819108	0.000679	6.789670	2.300402	-0.000272
 961	9.5520e+01	1.7438	18.544583	0.000689	6.891008	2.334737	-0.000276
 962	9.5620e+01	1.7101	18.233724	0.000780	7.803053	2.643746	-0.000312
 963	9.5719e+01	1.6700	17.979384	0.000638	6.384316	2.163065	-0.000256
 964	9.5819e+01	1.6299	17.692747	0.000720	7.195023	2.437740	-0.000288
 965	9.5918e+01	1.5802	17.402074	0.000730	7.296362	2.472074	-0.000292
 966	9.6017e+01	1.5465	17.115437	0.000720	7.195023	2.437740	-0.000288
 967	9.6117e+01	1.5080	16.873209	0.000608	6.080301	2.060062	-0.000243
 968	9.6216e+01	1.4647	16.542164	0.000831	8.309745	2.815418	-0.000333
 969	9.6316e+01	1.4262	16.287824	0.000638	6.384316	2.163065	-0.000256
 970	9.6415e+01	1.3828	15.993113	0.000740	7.397700	2.506409	-0.000296
 971	9.6515e+01	1.3443	15.730699	0.000659	6.586993	2.231734	-0.000264
 972	9.6615e+01	1.2994	15.456174	0.000689	6.891008	2.334737	-0.000276
 973	9.6714e+01	1.2545	15.193760	0.000659	6.586993	2.231734	-0.000264
 974	9.6814e+01	1.2321	14.927309	0.000669	6.688331	2.266068	-0.000268
 975	9.6913e+01	1.1839	14.600301	0.000821	8.208407	2.781083	-0.000329
 976	9.7013e+01	1.1406	14.313665	0.000720	7.195023	2.437740	-0.000288
 977	9.7112e+01	1.1053	14.039140	0.000689	6.891008	2.334737	-0.000276
 978	9.7212e+01	1.0813	13.768651	0.000679	6.789670	2.300402	-0.000272
 979	9.7311e+01	1.0251	13.461829	0.000770	7.701715	2.609412	-0.000308
 980	9.7410e+01	0.9834	13.163081	0.000750	7.499038	2.540743	-0.000300
 981	9.7510e+01	0.9433	12.896630	0.000669	6.688331	2.266068	-0.000268
 982	9.7609e+01	0.9048	12.638253	0.000649	6.485655	2.197399	-0.000260
 983	9.7709e+01	0.8711	12.347580	0.000730	7.296362	2.472074	-0.000292
 984	9.7808e+01	0.8262	12.052869	0.000740	7.397700	2.506409	-0.000296
 985	9.7908e+01	0.7893	11.733935	0.000801	8.005730	2.712415	-0.000321
 986	9.8007e+01	0.7396	11.463447	0.000679	6.789670	2.300402	-0.000272
 987	9.8107e+01	0.7059	11.196996	0.000669	6.688331	2.266068	-0.000268
 988	9.8207e+01	0.6658	10.930545	0.000669	6.688331	2.266068	-0.000268
 989	9.8306e+01	0.6337	10.591426	0.000851	8.512422	2.884087	-0.000341
 990	9.8406e+01	0.5871	10.284603	0.000770	7.701715	2.609412	-0.000308
 991	9.8505e+01	0.5390	10.018152	0.000669	6.688331	2.266068	-0.000268
 992	9.8605e+01	0.5101	9.727479	0.000730	7.296362	2.472074	-0.000292
 993	9.8704e+01	0.4684	9.400471	0.000821	8.208407	2.781083	-0.000329
 994	9.8803e+01	0.4331	9.150168	0.000628	6.282978	2.128731	-0.000252
 995	9.8903e+01	0.3930	8.831234	0.000801	8.005730	2.712415	-0.000321
 996	9.9002e+01	0.3465	8.601118	0.000578	5.776286	1.957059	-0.000231
 997	9.9102e+01	0.3144	8.270073	0.000831	8.309745	2.815418	-0.000333
 998	9.9201e+01	0.2583	8.027844	0.000608	6.080301	2.060062	-0.000243
 999	9.9301e+01	0.2246	7.696799	0.000831	8.309745	2.815418	-0.000333
1000	9.9400e+01	0.1909	7.389977	0.000770	7.701715	2.609412	-0.000308
1001	9.9500e+01	0.1476	7.115452	0.000689	6.891008	2.334737	-0.000276
1002	9.9600e+01	0.1075	6.796518	0.000801	8.005730	2.712415	-0.000321
1003	9.9699e+01	0.0626	6.526030	0.000679	6.789670	2.300402	-0.000272
1004	9.9799e+01	0.0337	6.243430	0.000709	7.093685	2.403405	-0.000284
1005	9.9898e+01	-0.0048	6.013314	0.000578	5.776286	1.957059	-0.000231
1006	9.9998e+01	-0.0433	5.706491	0.000770	7.701715	2.609412	-0.000308
1007	1.0010e+02	-0.0786	5.415818	0.000730	7.296362	2.472074	-0.000292
1008	1.0020e+02	-0.1283	5.113032	0.000760	7.600377	2.575077	-0.000304
1009	1.0030e+02	-0.1572	4.842544	0.000679	6.789670	2.300402	-0.000272
1010	1.0040e+02	-0.1989	4.580130	0.000659	6.586993	2.231734	-0.000264
1011	1.0050e+02	-0.2390	4.269271	0.000780	7.803053	2.643746	-0.000312
1012	1.0059e+02	-0.2759	4.079526	0.000476	4.762903	1.613715	-0.000191
1013	1.0069e+02	-0.3257	3.893817	0.000466	4.661564	1.579381	-0.000187
1014	1.0079e+02	-0.3593	3.736369	0.000395	3.952196	1.339040	-0.000158
1015	1.0089e+02	-0.3995	3.586995	0.000375	3.749519	1.270371	-0.000150
1016	1.0099e+02	-0.4412	3.360916	0.000567	5.674948	1.922724	-0.000227
1017	1.0109e+02	-0.4813	3.195393	0.000415	4.154873	1.407709	-0.000166
1018	1.0119e+02	-0.5182	3.033908	0.000405	4.053534	1.373375	-0.000162
1019	1.0129e+02	-0.5583	2.872422	0.000405	4.053534	1.373375	-0.000162
1020	1.0139e+02	-0.5936	2.694788	0.000446	4.458888	1.510712	-0.000179
1021	1.0149e+02	-0.6305	2.480820	0.000537	5.370933	1.819721	-0.000215
1022	1.0159e+02	-0.6738	2.323372	0.000395	3.952196	1.339040	-0.000158
1023	1.0169e+02	-0.7187	2.153812	0.000426	4.256211	1.442043	-0.000170
1024	1.0179e+02	-0.7636	1.992326	0.000405	4.053534	1.373375	-0.000162
1025	1.0189e+02	-0.7957	1.802581	0.000476	4.762903	1.613715	-0.000191
1026	1.0199e+02	-0.8422	1.592650	0.000527	5.269594	1.785387	-0.000211
1027	1.0209e+02	-0.8791	1.394830	0.000497	4.965579	1.682384	-0.000199
1028	1.0219e+02	-0.9096	1.160677	0.000588	5.877625	1.991393	-0.000235
1029	1.0229e+02	-0.9577	0.781186	0.000953	9.525805	3.227430	-0.000381
1030	1.0239e+02	-1.0075	0.389584	0.000983	9.829820	3.330433	-0.000394
1031	1.0248e+02	-1.0411	0.102947	0.000720	7.195023	2.437740	-0.000288
1032	1.0258e+02	-1.0732	-0.240210	0.000861	8.613760	2.918421	-0.000345
1033	1.0268e+02	-1.1214	-0.619700	0.000953	9.525805	3.227430	-0.000381
1034	1.0278e+02	-1.1647	-1.027451	0.001024	10.235174	3.467771	-0.000410
1035	1.0288e+02	-1.2000	-1.524019	0.001246	12.464618	4.223127	-0.000499
1036	1.0298e+02	-1.2465	-2.028661	0.001267	12.667294	4.291795	-0.000507
1037	1.0308e+02	-1.2770	-2.521191	0.001236	12.363279	4.188792	-0.000495
1038	1.0318e+02	-1.3123	-2.977388	0.001145	11.451234	3.879783	-0.000458
1039	1.0328e+02	-1.3604	-3.514327	0.001348	13.478001	4.566470	-0.000540
1040	1.0338e+02	-1.3989	-3.954374	0.001105	11.045881	3.742446	-0.000442
1041	1.0348e+02	-1.4358	-4.390385	0.001094	10.944542	3.708111	-0.000438
1042	1.0358e+02	-1.4775	-4.729505	0.000851	8.512422	2.884087	-0.000341
1043	1.0368e+02	-1.5192	-5.008067	0.000699	6.992346	2.369071	-0.000280
1044	1.0378e+02	-1.5561	-5.355261	0.000872	8.715098	2.952755	-0.000349
1045	1.0388e+02	-1.5962	-5.621712	0.000669	6.688331	2.266068	-0.000268
1046	1.0398e+02	-1.6443	-5.916422	0.000740	7.397700	2.506409	-0.000296
1047	1.0408e+02	-1.6684	-6.251505	0.000841	8.411083	2.849752	-0.000337
1048	1.0418e+02	-1.7181	-6.521993	0.000679	6.789670	2.300402	-0.000272
1049	1.0428e+02	-1.7582	-6.812667	0.000730	7.296362	2.472074	-0.000292
1050	1.0438e+02	-1.7967	-7.147749	0.000841	8.411083	2.849752	-0.000337
1051	1.0447e+02	-1.8433	-7.394014	0.000618	6.181640	2.094396	-0.000248
1052	1.0457e+02	-1.8786	-7.708911	0.000790	7.904392	2.678080	-0.000316
1053	1.0467e+02	-1.9219	-7.951139	0.000608	6.080301	2.060062	-0.000243
1054	1.0477e+02	-1.9684	-8.266035	0.000790	7.904392	2.678080	-0.000316
1055	1.0487e+02	-2.0037	-8.536524	0.000679	6.789670	2.300402	-0.000272
1056	1.0497e+02	-2.0326	-8.851420	0.000790	7.904392	2.678080	-0.000316
1057	1.0507e+02	-2.0711	-9.129982	0.000699	6.992346	2.369071	-0.000280
1058	1.0517e+02	-2.1160	-9.408545	0.000699	6.992346	2.369071	-0.000280
1059	1.0527e+02	-2.1497	-9.703256	0.000740	7.397700	2.506409	-0.000296
1060	1.0537e+02	-2.1978	-9.993930	0.000730	7.296362	2.472074	-0.000292
1061	1.0547e+02	-2.2379	-10.264418	0.000679	6.789670	2.300402	-0.000272
1062	1.0557e+02	-2.2732	-10.551054	0.000720	7.195023	2.437740	-0.000288
1063	1.0567e+02	-2.3117	-10.817505	0.000669	6.688331	2.266068	-0.000268
1064	1.0577e+02	-2.3438	-11.092030	0.000689	6.891008	2.334737	-0.000276
1065	1.0587e+02	-2.3935	-11.410964	0.000801	8.005730	2.712415	-0.000321
1066	1.0597e+02	-2.4352	-11.742009	0.000831	8.309745	2.815418	-0.000333
1067	1.0607e+02	-2.4673	-11.960015	0.000547	5.472271	1.854056	-0.000219
1068	1.0617e+02	-2.5106	-12.250688	0.000730	7.296362	2.472074	-0.000292
1069	1.0627e+02	-2.5523	-12.533288	0.000709	7.093685	2.403405	-0.000284
1070	1.0637e+02	-2.6005	-12.848184	0.000790	7.904392	2.678080	-0.000316
1071	1.0647e+02	-2.6309	-13.058116	0.000527	5.269594	1.785387	-0.000211
1072	1.0656e+02	-2.6759	-13.364938	0.000770	7.701715	2.609412	-0.000308
1073	1.0666e+02	-2.7208	-13.647537	0.000709	7.093685	2.403405	-0.000284
1074	1.0676e+02	-2.7481	-13.897840	0.000628	6.282978	2.128731	-0.000252
1075	1.0686e+02	-2.7898	-14.232922	0.000841	8.411083	2.849752	-0.000337
1076	1.0696e+02	-2.8347	-14.471113	0.000598	5.978963	2.025727	-0.000239
1077	1.0706e+02	-2.8796	-14.761787	0.000730	7.296362	2.472074	-0.000292
1078	1.0716e+02	-2.9149	-15.044386	0.000709	7.093685	2.403405	-0.000284
1079	1.0726e+02	-2.9598	-15.339097	0.000740	7.397700	2.506409	-0.000296
1080	1.0736e+02	-2.9919	-15.601511	0.000659	6.586993	2.231734	-0.000264
1081	1.0746e+02	-3.0304	-15.835665	0.000588	5.877625	1.991393	-0.000235
1082	1.0756e+02	-3.0737	-16.114227	0.000699	6.992346	2.369071	-0.000280
1083	1.0766e+02	-3.1186	-16.404901	0.000730	7.296362	2.472074	-0.000292
1084	1.0776e+02	-3.1491	-16.675389	0.000679	6.789670	2.300402	-0.000272
1085	1.0786e+02	-3.1924	-16.921654	0.000618	6.181640	2.094396	-0.000248
1086	1.0796e+02	-3.2341	-17.184068	0.000659	6.586993	2.231734	-0.000264
1087	1.0806e+02	-3.2710	-17.478779	0.000740	7.397700	2.506409	-0.000296
1088	1.0816e+02	-3.3095	-17.729082	0.000628	6.282978	2.128731	-0.000252
1089	1.0826e+02	-3.3480	-18.007644	0.000699	6.992346	2.369071	-0.000280
1090	1.0836e+02	-3.3881	-18.282169	0.000689	6.891008	2.334737	-0.000276
1091	1.0845e+02	-3.4347	-18.560732	0.000699	6.992346	2.369071	-0.000280
1092	1.0855e+02	-3.4684	-18.819108	0.000649	6.485655	2.197399	-0.000260
1093	1.0865e+02	-3.5101	-19.081522	0.000659	6.586993	2.231734	-0.000264
1094	1.0875e+02	-3.5550	-19.360084	0.000699	6.992346	2.369071	-0.000280
1095	1.0885e+02	-3.5903	-19.622498	0.000659	6.586993	2.231734	-0.000264
1096	1.0895e+02	-3.6304	-19.897023	0.000689	6.891008	2.334737	-0.000276
1097	1.0905e+02	-3.6673	-20.159437	0.000659	6.586993	2.231734	-0.000264
1098	1.0915e+02	-3.7106	-20.421851	0.000659	6.586993	2.231734	-0.000264
1099	1.0925e+02	-3.7603	-20.704451	0.000709	7.093685	2.403405	-0.000284
1100	1.0935e+02	-3.7828	-20.946679	0.000608	6.080301	2.060062	-0.000243
1101	1.0945e+02	-3.8277	-21.213130	0.000669	6.688331	2.266068	-0.000268
1102	1.0955e+02	-3.8726	-21.463432	0.000628	6.282978	2.128731	-0.000252
1103	1.0965e+02	-3.9063	-21.786403	0.000811	8.107068	2.746749	-0.000325
1104	1.0975e+02	-3.9464	-22.032668	0.000618	6.181640	2.094396	-0.000248
1105	1.0985e+02	-3.9865	-22.266822	0.000588	5.877625	1.991393	-0.000235
1106	1.0995e+02	-4.0282	-22.553459	0.000720	7.195023	2.437740	-0.000288
1107	1.1005e+02	-4.0780	-22.840095	0.000720	7.195023	2.437740	-0.000288
1108	1.1015e+02	-4.1020	-23.090398	0.000628	6.282978	2.128731	-0.000252
1109	1.1025e+02	-4.1405	-23.340700	0.000628	6.282978	2.128731	-0.000252
1110	1.1035e+02	-4.1838	-23.615225	0.000689	6.891008	2.334737	-0.000276
1111	1.1044e+02	-4.2352	-23.881676	0.000669	6.688331	2.266068	-0.000268
1112	1.1054e+02	-4.2689	-24.107756	0.000567	5.674948	1.922724	-0.000227
1113	1.1064e+02	-4.3026	-24.366133	0.000649	6.485655	2.197399	-0.000260
1114	1.1074e+02	-4.3475	-24.648732	0.000709	7.093685	2.403405	-0.000284
1115	1.1084e+02	-4.3940	-24.874812	0.000567	5.674948	1.922724	-0.000227
1116	1.1094e+02	-4.4325	-25.117040	0.000608	6.080301	2.060062	-0.000243
1117	1.1104e+02	-4.4598	-25.415788	0.000750	7.499038	2.540743	-0.000300
1118	1.1114e+02	-4.5031	-25.686276	0.000679	6.789670	2.300402	-0.000272
1119	1.1124e+02	-4.5448	-25.900244	0.000537	5.370933	1.819721	-0.000215
1120	1.1134e+02	-4.5817	-26.174770	0.000689	6.891008	2.334737	-0.000276
1121	1.1144e+02	-4.6202	-26.457369	0.000709	7.093685	2.403405	-0.000284
1122	1.1154e+02	-4.6571	-26.711709	0.000638	6.384316	2.163065	-0.000256
1123	1.1164e+02	-4.7084	-26.937788	0.000567	5.674948	1.922724	-0.000227
1124	1.1174e+02	-4.7437	-27.204239	0.000669	6.688331	2.266068	-0.000268
1125	1.1184e+02	-4.7838	-27.486839	0.000709	7.093685	2.403405	-0.000284
1126	1.1194e+02	-4.8271	-27.749252	0.000659	6.586993	2.231734	-0.000264
1127	1.1204e+02	-4.8656	-28.007629	0.000649	6.485655	2.197399	-0.000260
1128	1.1214e+02	-4.9154	-28.278117	0.000679	6.789670	2.300402	-0.000272
1129	1.1224e+02	-4.9458	-28.496123	0.000547	5.472271	1.854056	-0.000219
1130	1.1234e+02	-4.9795	-28.774685	0.000699	6.992346	2.369071	-0.000280
1131	1.1244e+02	-5.0309	-29.029025	0.000638	6.384316	2.163065	-0.000256
1132	1.1253e+02	-5.0533	-29.295475	0.000669	6.688331	2.266068	-0.000268
1133	1.1263e+02	-5.0983	-29.549815	0.000638	6.384316	2.163065	-0.000256
1134	1.1273e+02	-5.1464	-29.763783	0.000537	5.370933	1.819721	-0.000215
1135	1.1283e+02	-5.1849	-30.082717	0.000801	8.005730	2.712415	-0.000321
1136	1.1293e+02	-5.2186	-30.341094	0.000649	6.485655	2.197399	-0.000260
1137	1.1303e+02	-5.2619	-30.551025	0.000527	5.269594	1.785387	-0.000211
1138	1.1313e+02	-5.3052	-30.773067	0.000557	5.573610	1.888390	-0.000223
1139	1.1323e+02	-5.3421	-31.100075	0.000821	8.208407	2.781083	-0.000329
1140	1.1333e+02	-5.3870	-31.318080	0.000547	5.472271	1.854056	-0.000219
1141	1.1343e+02	-5.4287	-31.588569	0.000679	6.789670	2.300402	-0.000272
1142	1.1353e+02	-5.4528	-31.818685	0.000578	5.776286	1.957059	-0.000231
1143	1.1363e+02	-5.4993	-32.085136	0.000669	6.688331	2.266068	-0.000268
1144	1.1373e+02	-5.5490	-32.315253	0.000578	5.776286	1.957059	-0.000231
1145	1.1383e+02	-5.5715	-32.585741	0.000679	6.789670	2.300402	-0.000272
1146	1.1393e+02	-5.6212	-32.815858	0.000578	5.776286	1.957059	-0.000231
1147	1.1403e+02	-5.6629	-33.070197	0.000638	6.384316	2.163065	-0.000256
1148	1.1413e+02	-5.6982	-33.320500	0.000628	6.282978	2.128731	-0.000252
1149	1.1423e+02	-5.7432	-33.599062	0.000699	6.992346	2.369071	-0.000280
1150	1.1433e+02	-5.7784	-33.821105	0.000557	5.573610	1.888390	-0.000223
1151	1.1442e+02	-5.8218	-34.079481	0.000649	6.485655	2.197399	-0.000260
1152	1.1452e+02	-5.8587	-34.301524	0.000557	5.573610	1.888390	-0.000223
1153	1.1462e+02	-5.9068	-34.600272	0.000750	7.499038	2.540743	-0.000300
1154	1.1472e+02	-5.9325	-34.858649	0.000649	6.485655	2.197399	-0.000260
1155	1.1482e+02	-5.9790	-35.092802	0.000588	5.877625	1.991393	-0.000235
1156	1.1492e+02	-6.0271	-35.326956	0.000588	5.877625	1.991393	-0.000235
1157	1.1502e+02	-6.0608	-35.605519	0.000699	6.992346	2.369071	-0.000280
1158	1.1512e+02	-6.0961	-35.851784	0.000618	6.181640	2.094396	-0.000248
1159	1.1522e+02	-6.1330	-36.065752	0.000537	5.370933	1.819721	-0.000215
1160	1.1532e+02	-6.1811	-36.316055	0.000628	6.282978	2.128731	-0.000252
1161	1.1542e+02	-6.2180	-36.570394	0.000638	6.384316	2.163065	-0.000256
1162	1.1552e+02	-6.2549	-36.832808	0.000659	6.586993	2.231734	-0.000264
1163	1.1562e+02	-6.3094	-37.062925	0.000578	5.776286	1.957059	-0.000231
1164	1.1572e+02	-6.3383	-37.280930	0.000547	5.472271	1.854056	-0.000219
1165	1.1582e+02	-6.3865	-37.587752	0.000770	7.701715	2.609412	-0.000308
1166	1.1592e+02	-6.4201	-37.850166	0.000659	6.586993	2.231734	-0.000264
1167	1.1602e+02	-6.4538	-38.060097	0.000527	5.269594	1.785387	-0.000211
1168	1.1612e+02	-6.4939	-38.294251	0.000588	5.877625	1.991393	-0.000235
1169	1.1622e+02	-6.5389	-38.548591	0.000638	6.384316	2.163065	-0.000256
1170	1.1632e+02	-6.5741	-38.750447	0.000507	5.066918	1.716718	-0.000203
1171	1.1642e+02	-6.6126	-38.992676	0.000608	6.080301	2.060062	-0.000243
1172	1.1651e+02	-6.6624	-39.251052	0.000649	6.485655	2.197399	-0.000260
1173	1.1661e+02	-6.6977	-39.481169	0.000578	5.776286	1.957059	-0.000231
1174	1.1671e+02	-6.7314	-39.719360	0.000598	5.978963	2.025727	-0.000239
1175	1.1681e+02	-6.7747	-39.957551	0.000598	5.978963	2.025727	-0.000239
1176	1.1691e+02	-6.8100	-40.207853	0.000628	6.282978	2.128731	-0.000252
1177	1.1701e+02	-6.8485	-40.446044	0.000598	5.978963	2.025727	-0.000239
1178	1.1711e+02	-6.8918	-40.700384	0.000638	6.384316	2.163065	-0.000256
1179	1.1721e+02	-6.9383	-40.902241	0.000507	5.066918	1.716718	-0.000203
1180	1.1731e+02	-6.9800	-41.148506	0.000618	6.181640	2.094396	-0.000248
1181	1.1741e+02	-7.0121	-41.390734	0.000608	6.080301	2.060062	-0.000243
1182	1.1751e+02	-7.0522	-41.620851	0.000578	5.776286	1.957059	-0.000231
1183	1.1761e+02	-7.1003	-41.855005	0.000588	5.877625	1.991393	-0.000235
1184	1.1771e+02	-7.1292	-42.125493	0.000679	6.789670	2.300402	-0.000272
1185	1.1781e+02	-7.1757	-42.347535	0.000557	5.573610	1.888390	-0.000223
1186	1.1791e+02	-7.2158	-42.573615	0.000567	5.674948	1.922724	-0.000227
1187	1.1801e+02	-7.2511	-42.807769	0.000588	5.877625	1.991393	-0.000235
1188	1.1811e+02	-7.3041	-43.049997	0.000608	6.080301	2.060062	-0.000243
1189	1.1821e+02	-7.3362	-43.340671	0.000730	7.296362	2.472074	-0.000292
1190	1.1831e+02	-7.3634	-43.498119	0.000395	3.952196	1.339040	-0.000158
1191	1.1841e+02	-7.4132	-43.740347	0.000608	6.080301	2.060062	-0.000243
1192	1.1850e+02	-7.4533	-43.974501	0.000588	5.877625	1.991393	-0.000235
1193	1.1860e+02	-7.5094	-44.244989	0.000679	6.789670	2.300402	-0.000272
1194	1.1870e+02	-7.5335	-44.406475	0.000405	4.053534	1.373375	-0.000162
1195	1.1880e+02	-7.5704	-44.600257	0.000486	4.864241	1.648049	-0.000195
1196	1.1890e+02	-7.6121	-44.822300	0.000557	5.573610	1.888390	-0.000223
1197	1.1900e+02	-7.6602	-45.076639	0.000638	6.384316	2.163065	-0.000256
1198	1.1910e+02	-7.6955	-45.322904	0.000618	6.181640	2.094396	-0.000248
1199	1.1920e+02	-7.7356	-45.476316	0.000385	3.850857	1.304706	-0.000154
1200	1.1930e+02	-7.7629	-45.766989	0.000730	7.296362	2.472074	-0.000292
1201	1.1940e+02	-7.8126	-46.045552	0.000699	6.992346	2.369071	-0.000280
1202	1.1950e+02	-7.8511	-46.271631	0.000567	5.674948	1.922724	-0.000227
1203	1.1960e+02	-7.8912	-46.530008	0.000649	6.485655	2.197399	-0.000260
1204	1.1970e+02	-7.9185	-46.792422	0.000659	6.586993	2.231734	-0.000264
1205	1.1980e+02	-7.9746	-47.075021	0.000709	7.093685	2.403405	-0.000284
1206	1.1990e+02	-8.0115	-47.385881	0.000780	7.803053	2.643746	-0.000312
1207	1.2000e+02	-8.0500	-47.640220	0.000638	6.384316	2.163065	-0.000256
1208	1.2010e+02	-8.0805	-47.918783	0.000699	6.992346	2.369071	-0.000280
1209	1.2020e+02	-8.1351	-48.116602	0.000497	4.965579	1.682384	-0.000199
1210	1.2030e+02	-8.1704	-48.330570	0.000537	5.370933	1.819721	-0.000215
1211	1.2039e+02	-8.2073	-48.613170	0.000709	7.093685	2.403405	-0.000284
1212	1.2049e+02	-8.2602	-48.823101	0.000527	5.269594	1.785387	-0.000211
1213	1.2059e+02	-8.2810	-49.065329	0.000608	6.080301	2.060062	-0.000243
1214	1.2069e+02	-8.3356	-49.323706	0.000649	6.485655	2.197399	-0.000260
1215	1.2079e+02	-8.3773	-49.525563	0.000507	5.066918	1.716718	-0.000203
1216	1.2089e+02	-8.4158	-49.767791	0.000608	6.080301	2.060062	-0.000243
1217	1.2099e+02	-8.4463	-49.993870	0.000567	5.674948	1.922724	-0.000227
1218	1.2109e+02	-8.4832	-50.228024	0.000588	5.877625	1.991393	-0.000235
1219	1.2119e+02	-8.5249	-50.446030	0.000547	5.472271	1.854056	-0.000219
1220	1.2129e+02	-8.5682	-50.676146	0.000578	5.776286	1.957059	-0.000231
1221	1.2139e+02	-8.6067	-50.926449	0.000628	6.282978	2.128731	-0.000252
1222	1.2149e+02	-8.6500	-51.148491	0.000557	5.573610	1.888390	-0.000223
1223	1.2159e+02	-8.6917	-51.386682	0.000598	5.978963	2.025727	-0.000239
1224	1.2169e+02	-8.7302	-51.592576	0.000517	5.168256	1.751053	-0.000207
1225	1.2179e+02	-8.7639	-51.834804	0.000608	6.080301	2.060062	-0.000243
1226	1.2189e+02	-8.8072	-52.036661	0.000507	5.066918	1.716718	-0.000203
1227	1.2199e+02	-8.8506	-52.262741	0.000567	5.674948	1.922724	-0.000227
1228	1.2209e+02	-8.8891	-52.484783	0.000557	5.573610	1.888390	-0.000223
1229	1.2219e+02	-8.9324	-52.735086	0.000628	6.282978	2.128731	-0.000252
1230	1.2229e+02	-8.9612	-52.973277	0.000598	5.978963	2.025727	-0.000239
1231	1.2239e+02	-9.0078	-53.163022	0.000476	4.762903	1.613715	-0.000191
1232	1.2248e+02	-9.0511	-53.352767	0.000476	4.762903	1.613715	-0.000191
1233	1.2258e+02	-9.0944	-53.485993	0.000334	3.344166	1.133034	-0.000134
1234	1.2268e+02	-9.1265	-53.748407	0.000659	6.586993	2.231734	-0.000264
1235	1.2278e+02	-9.1714	-53.942189	0.000486	4.864241	1.648049	-0.000195
1236	1.2288e+02	-9.2019	-54.079452	0.000345	3.445504	1.167368	-0.000138
1237	1.2298e+02	-9.2452	-54.297457	0.000547	5.472271	1.854056	-0.000219
1238	1.2308e+02	-9.2917	-54.406460	0.000274	2.736136	0.927028	-0.000110
1239	1.2318e+02	-9.3254	-54.535648	0.000324	3.242827	1.098700	-0.000130
1240	1.2328e+02	-9.3703	-54.628502	0.000233	2.330782	0.789690	-0.000093
1241	1.2338e+02	-9.4040	-54.709245	0.000203	2.026767	0.686687	-0.000081
1242	1.2348e+02	-9.4377	-54.822285	0.000284	2.837474	0.961362	-0.000114
1243	1.2358e+02	-9.4890	-54.898990	0.000193	1.925429	0.652353	-0.000077
1244	1.2368e+02	-9.5307	-54.931287	0.000081	0.810707	0.274675	-0.000032
1245	1.2378e+02	-9.5725	-55.028179	0.000243	2.432121	0.824025	-0.000097
1246	1.2388e+02	-9.5981	-55.112959	0.000213	2.128105	0.721022	-0.000085
1247	1.2398e+02	-9.6414	-55.177553	0.000162	1.621414	0.549350	-0.000065
1248	1.2408e+02	-9.6848	-55.209850	0.000081	0.810707	0.274675	-0.000032
1249	1.2418e+02	-9.7200	-55.306741	0.000243	2.432121	0.824025	-0.000097
1250	1.2428e+02	-9.7585	-55.367298	0.000152	1.520075	0.515015	-0.000061
1251	1.2438e+02	-9.8067	-55.456115	0.000223	2.229444	0.755356	-0.000089
1252	1.2447e+02	-9.8388	-55.464189	0.000020	0.202677	0.068669	-0.000008
1253	1.2457e+02	-9.8789	-55.577229	0.000284	2.837474	0.961362	-0.000114
1254	1.2467e+02	-9.9222	-55.645860	0.000172	1.722752	0.583684	-0.000069
1255	1.2477e+02	-9.9607	-55.702380	0.000142	1.418737	0.480681	-0.000057
1256	1.2487e+02	-10.0008	-55.746789	0.000111	1.114722	0.377678	-0.000045
1257	1.2497e+02	-10.0409	-55.896163	0.000375	3.749519	1.270371	-0.000150
1258	1.2507e+02	-10.0874	-56.021314	0.000314	3.141489	1.064365	-0.000126
1259	1.2517e+02	-10.1227	-56.098020	0.000193	1.925429	0.652353	-0.000077
1260	1.2527e+02	-10.1596	-56.215097	0.000294	2.938812	0.995697	-0.000118
1261	1.2537e+02	-10.2093	-56.344285	0.000324	3.242827	1.098700	-0.000130
1262	1.2547e+02	-10.2430	-56.469436	0.000314	3.141489	1.064365	-0.000126
1263	1.2557e+02	-10.2879	-56.610736	0.000355	3.546842	1.201703	-0.000142
1264	1.2567e+02	-10.3152	-56.812593	0.000507	5.066918	1.716718	-0.000203
1265	1.2577e+02	-10.3666	-56.945818	0.000334	3.344166	1.133034	-0.000134
1266	1.2587e+02	-10.4067	-57.151712	0.000517	5.168256	1.751053	-0.000207
1267	1.2597e+02	-10.4403	-57.369717	0.000547	5.472271	1.854056	-0.000219
1268	1.2607e+02	-10.4917	-57.559463	0.000476	4.762903	1.613715	-0.000191
1269	1.2617e+02	-10.5206	-57.825914	0.000669	6.688331	2.266068	-0.000268
1270	1.2627e+02	-10.5591	-58.039882	0.000537	5.370933	1.819721	-0.000215
1271	1.2636e+02	-10.6040	-58.290184	0.000628	6.282978	2.128731	-0.000252
1272	1.2646e+02	-10.6377	-58.592970	0.000760	7.600377	2.575077	-0.000304
1273	1.2656e+02	-10.6826	-58.823086	0.000578	5.776286	1.957059	-0.000231
1274	1.2666e+02	-10.7211	-59.097612	0.000689	6.891008	2.334737	-0.000276
1275	1.2676e+02	-10.7548	-59.372137	0.000689	6.891008	2.334737	-0.000276
1276	1.2686e+02	-10.8061	-59.759702	0.000973	9.728482	3.296099	-0.000390
1277	1.2696e+02	-10.8398	-60.074598	0.000790	7.904392	2.678080	-0.000316
1278	1.2706e+02	-10.8847	-60.567129	0.001236	12.363279	4.188792	-0.000495
1279	1.2716e+02	-10.9152	-61.108105	0.001358	13.579340	4.600805	-0.000544
1280	1.2726e+02	-10.9649	-61.641007	0.001338	13.376663	4.532136	-0.000536
1281	1.2736e+02	-11.0066	-62.177946	0.001348	13.478001	4.566470	-0.000540
1282	1.2746e+02	-11.0371	-62.852148	0.001692	16.923505	5.733839	-0.000678
1283	1.2756e+02	-11.0804	-63.328530	0.001196	11.957926	4.051455	-0.000479
1284	1.2766e+02	-11.1189	-63.909877	0.001459	14.592723	4.944148	-0.000584
1285	1.2776e+02	-11.1558	-64.297442	0.000973	9.728482	3.296099	-0.000390
1286	1.2786e+02	-11.2008	-64.689044	0.000983	9.829820	3.330433	-0.000394
1287	1.2796e+02	-11.2296	-65.036238	0.000872	8.715098	2.952755	-0.000349
1288	1.2806e+02	-11.2842	-65.371320	0.000841	8.411083	2.849752	-0.000337
1289	1.2816e+02	-11.3227	-65.609511	0.000598	5.978963	2.025727	-0.000239
1290	1.2826e+02	-11.3516	-65.799257	0.000476	4.762903	1.613715	-0.000191
1291	1.2835e+02	-11.3981	-66.029374	0.000578	5.776286	1.957059	-0.000231
1292	1.2845e+02	-11.4382	-66.275639	0.000618	6.181640	2.094396	-0.000248
1293	1.2855e+02	-11.4751	-66.489607	0.000537	5.370933	1.819721	-0.000215
1294	1.2865e+02	-11.5104	-66.671278	0.000456	4.560226	1.545046	-0.000183
1295	1.2875e+02	-11.5585	-66.945803	0.000689	6.891008	2.334737	-0.000276
1296	1.2885e+02	-11.6018	-67.139586	0.000486	4.864241	1.648049	-0.000195
1297	1.2895e+02	-11.6419	-67.365665	0.000567	5.674948	1.922724	-0.000227
1298	1.2905e+02	-11.6660	-67.620005	0.000638	6.384316	2.163065	-0.000256
1299	1.2915e+02	-11.7141	-67.817825	0.000497	4.965579	1.682384	-0.000199
1300	1.2925e+02	-11.7574	-68.043904	0.000567	5.674948	1.922724	-0.000227
1301	1.2935e+02	-11.7975	-68.241724	0.000497	4.965579	1.682384	-0.000199
1302	1.2945e+02	-11.8312	-68.459729	0.000547	5.472271	1.854056	-0.000219
1303	1.2955e+02	-11.8858	-68.673697	0.000537	5.370933	1.819721	-0.000215
1304	1.2965e+02	-11.9098	-68.843257	0.000426	4.256211	1.442043	-0.000170
1305	1.2975e+02	-11.9596	-69.105671	0.000659	6.586993	2.231734	-0.000264
1306	1.2985e+02	-11.9981	-69.315602	0.000527	5.269594	1.785387	-0.000211
1307	1.2995e+02	-12.0334	-69.505347	0.000476	4.762903	1.613715	-0.000191
1308	1.3005e+02	-12.0719	-69.731427	0.000567	5.674948	1.922724	-0.000227
1309	1.3015e+02	-12.1087	-69.917135	0.000466	4.661564	1.579381	-0.000187
1310	1.3025e+02	-12.1537	-70.147252	0.000578	5.776286	1.957059	-0.000231
1311	1.3034e+02	-12.1890	-70.332960	0.000466	4.661564	1.579381	-0.000187
1312	1.3044e+02	-12.2419	-70.510594	0.000446	4.458888	1.510712	-0.000179
1313	1.3054e+02	-12.2740	-70.684191	0.000436	4.357549	1.476378	-0.000174
1314	1.3064e+02	-12.3125	-70.849714	0.000415	4.154873	1.407709	-0.000166
1315	1.3074e+02	-12.3526	-71.083868	0.000588	5.877625	1.991393	-0.000235
1316	1.3084e+02	-12.3895	-71.265539	0.000456	4.560226	1.545046	-0.000183
1317	1.3094e+02	-12.4296	-71.402801	0.000345	3.445504	1.167368	-0.000138
1318	1.3104e+02	-12.4697	-71.548138	0.000365	3.648181	1.236037	-0.000146
1319	1.3114e+02	-12.5178	-71.673289	0.000314	3.141489	1.064365	-0.000126
1320	1.3124e+02	-12.5579	-71.790366	0.000294	2.938812	0.995697	-0.000118
1321	1.3134e+02	-12.5948	-71.899369	0.000274	2.736136	0.927028	-0.000110
1322	1.3144e+02	-12.6365	-72.056817	0.000395	3.952196	1.339040	-0.000158
1323	1.3154e+02	-12.6686	-72.141597	0.000213	2.128105	0.721022	-0.000085
1324	1.3164e+02	-12.7119	-72.278860	0.000345	3.445504	1.167368	-0.000138
1325	1.3174e+02	-12.7537	-72.379788	0.000253	2.533459	0.858359	-0.000101
1326	1.3184e+02	-12.7986	-72.472642	0.000233	2.330782	0.789690	-0.000093
1327	1.3194e+02	-12.8274	-72.658350	0.000466	4.661564	1.579381	-0.000187
1328	1.3204e+02	-12.8724	-72.763316	0.000263	2.634797	0.892693	-0.000105
1329	1.3214e+02	-12.9157	-72.904616	0.000355	3.546842	1.201703	-0.000142
1330	1.3224e+02	-12.9462	-73.033804	0.000324	3.242827	1.098700	-0.000130
1331	1.3234e+02	-12.9911	-73.150881	0.000294	2.938812	0.995697	-0.000118
1332	1.3243e+02	-13.0328	-73.280069	0.000324	3.242827	1.098700	-0.000130
1333	1.3253e+02	-13.0681	-73.445592	0.000415	4.154873	1.407709	-0.000166
1334	1.3263e+02	-13.1050	-73.619189	0.000436	4.357549	1.476378	-0.000174
1335	1.3273e+02	-13.1499	-73.752414	0.000334	3.344166	1.133034	-0.000134
1336	1.3283e+02	-13.1820	-73.837194	0.000213	2.128105	0.721022	-0.000085
1337	1.3293e+02	-13.2381	-74.035014	0.000497	4.965579	1.682384	-0.000199
1338	1.3303e+02	-13.2702	-74.244945	0.000527	5.269594	1.785387	-0.000211
1339	1.3313e+02	-13.3119	-74.446802	0.000507	5.066918	1.716718	-0.000203
1340	1.3323e+02	-13.3584	-74.612324	0.000415	4.154873	1.407709	-0.000166
1341	1.3333e+02	-13.4002	-74.769772	0.000395	3.952196	1.339040	-0.000158
1342	1.3343e+02	-13.4338	-74.991815	0.000557	5.573610	1.888390	-0.000223
1343	1.3353e+02	-13.4707	-75.286526	0.000740	7.397700	2.506409	-0.000296
1344	1.3363e+02	-13.5028	-75.528754	0.000608	6.080301	2.060062	-0.000243
1345	1.3373e+02	-13.5477	-75.859799	0.000831	8.309745	2.815418	-0.000333
1346	1.3383e+02	-13.5895	-76.142399	0.000709	7.093685	2.403405	-0.000284
1347	1.3393e+02	-13.6280	-76.469407	0.000821	8.208407	2.781083	-0.000329
1348	1.3403e+02	-13.6633	-76.877157	0.001024	10.235174	3.467771	-0.000410
1349	1.3413e+02	-13.7001	-77.192054	0.000790	7.904392	2.678080	-0.000316
1350	1.3423e+02	-13.7467	-77.474653	0.000709	7.093685	2.403405	-0.000284
1351	1.3432e+02	-13.7900	-77.850107	0.000942	9.424467	3.193096	-0.000377
1352	1.3442e+02	-13.8237	-78.152892	0.000760	7.600377	2.575077	-0.000304
1353	1.3452e+02	-13.8686	-78.500086	0.000872	8.715098	2.952755	-0.000349
1354	1.3462e+02	-13.9087	-78.875539	0.000942	9.424467	3.193096	-0.000377
1355	1.3472e+02	-13.9440	-79.283290	0.001024	10.235174	3.467771	-0.000410
1356	1.3482e+02	-13.9873	-79.464961	0.000456	4.560226	1.545046	-0.000183
1357	1.3492e+02	-14.0258	-79.791969	0.000821	8.208407	2.781083	-0.000329
1358	1.3502e+02	-14.0611	-80.022086	0.000578	5.776286	1.957059	-0.000231
1359	1.3512e+02	-14.1205	-80.240091	0.000547	5.472271	1.854056	-0.000219
1360	1.3522e+02	-14.1381	-80.421762	0.000456	4.560226	1.545046	-0.000183
1361	1.3532e+02	-14.1846	-80.655916	0.000588	5.877625	1.991393	-0.000235
1362	1.3542e+02	-14.2231	-80.906219	0.000628	6.282978	2.128731	-0.000252
1363	1.3552e+02	-14.2697	-81.108076	0.000507	5.066918	1.716718	-0.000203
1364	1.3562e+02	-14.3114	-81.338192	0.000578	5.776286	1.957059	-0.000231
1365	1.3572e+02	-14.3467	-81.511789	0.000436	4.357549	1.476378	-0.000174
1366	1.3582e+02	-14.3819	-81.733832	0.000557	5.573610	1.888390	-0.000223
1367	1.3592e+02	-14.4301	-81.919540	0.000466	4.661564	1.579381	-0.000187
1368	1.3602e+02	-14.4654	-82.105248	0.000466	4.661564	1.579381	-0.000187
1369	1.3612e+02	-14.5023	-82.363625	0.000649	6.485655	2.197399	-0.000260
1370	1.3622e+02	-14.5472	-82.553370	0.000476	4.762903	1.613715	-0.000191
1371	1.3631e+02	-14.5841	-82.767338	0.000537	5.370933	1.819721	-0.000215
1372	1.3641e+02	-14.6178	-82.973232	0.000517	5.168256	1.751053	-0.000207
1373	1.3651e+02	-14.6643	-83.154903	0.000456	4.560226	1.545046	-0.000183
1374	1.3661e+02	-14.7044	-83.368872	0.000537	5.370933	1.819721	-0.000215
1375	1.3671e+02	-14.7477	-83.570728	0.000507	5.066918	1.716718	-0.000203
1376	1.3681e+02	-14.7782	-83.792771	0.000557	5.573610	1.888390	-0.000223
1377	1.3691e+02	-14.8327	-83.974442	0.000456	4.560226	1.545046	-0.000183
1378	1.3701e+02	-14.8648	-84.160150	0.000466	4.661564	1.579381	-0.000187
1379	1.3711e+02	-14.8969	-84.337784	0.000446	4.458888	1.510712	-0.000179
1380	1.3721e+02	-14.9434	-84.600198	0.000659	6.586993	2.231734	-0.000264
1381	1.3731e+02	-14.9851	-84.749572	0.000375	3.749519	1.270371	-0.000150
1382	1.3741e+02	-15.0268	-84.947392	0.000497	4.965579	1.682384	-0.000199
1383	1.3751e+02	-15.0573	-85.169434	0.000557	5.573610	1.888390	-0.000223
1384	1.3761e+02	-15.0958	-85.334957	0.000415	4.154873	1.407709	-0.000166
1385	1.3771e+02	-15.1504	-85.544888	0.000527	5.269594	1.785387	-0.000211
1386	1.3781e+02	-15.1809	-85.783079	0.000598	5.978963	2.025727	-0.000239
1387	1.3791e+02	-15.2274	-85.944564	0.000405	4.053534	1.373375	-0.000162
1388	1.3801e+02	-15.2675	-86.130272	0.000466	4.661564	1.579381	-0.000187
1389	1.3811e+02	-15.2980	-86.324055	0.000486	4.864241	1.648049	-0.000195
1390	1.3821e+02	-15.3413	-86.521875	0.000497	4.965579	1.682384	-0.000199
1391	1.3831e+02	-15.3942	-86.691434	0.000426	4.256211	1.442043	-0.000170
1392	1.3840e+02	-15.4247	-86.897328	0.000517	5.168256	1.751053	-0.000207
1393	1.3850e+02	-15.4680	-87.095148	0.000497	4.965579	1.682384	-0.000199
1394	1.3860e+02	-15.5065	-87.329302	0.000588	5.877625	1.991393	-0.000235
1395	1.3870e+02	-15.5466	-87.498861	0.000426	4.256211	1.442043	-0.000170
1396	1.3880e+02	-15.5819	-87.684570	0.000466	4.661564	1.579381	-0.000187
1397	1.3890e+02	-15.6300	-87.801647	0.000294	2.938812	0.995697	-0.000118
1398	1.3900e+02	-15.6525	-88.072135	0.000679	6.789670	2.300402	-0.000272
1399	1.3910e+02	-15.6958	-88.269954	0.000497	4.965579	1.682384	-0.000199
1400	1.3920e+02	-15.7423	-88.451625	0.000456	4.560226	1.545046	-0.000183
1401	1.3930e+02	-15.7760	-88.641371	0.000476	4.762903	1.613715	-0.000191
1402	1.3940e+02	-15.8258	-88.855339	0.000537	5.370933	1.819721	-0.000215
1403	1.3950e+02	-15.8627	-89.053159	0.000497	4.965579	1.682384	-0.000199
1404	1.3960e+02	-15.8996	-89.218681	0.000415	4.154873	1.407709	-0.000166
1405	1.3970e+02	-15.9429	-89.404389	0.000466	4.661564	1.579381	-0.000187
1406	1.3980e+02	-15.9798	-89.586061	0.000456	4.560226	1.545046	-0.000183
1407	1.3990e+02	-16.0247	-89.872697	0.000720	7.195023	2.437740	-0.000288
1408	1.4000e+02	-16.0568	-89.961514	0.000223	2.229444	0.755356	-0.000089
1409	1.4010e+02	-16.1033	-90.215854	0.000638	6.384316	2.163065	-0.000256
1410	1.4020e+02	-16.1418	-90.357154	0.000355	3.546842	1.201703	-0.000142
1411	1.4029e+02	-16.1755	-90.571122	0.000537	5.370933	1.819721	-0.000215
1412	1.4039e+02	-16.2236	-90.797201	0.000567	5.674948	1.922724	-0.000227
1413	1.4049e+02	-16.2557	-90.982910	0.000466	4.661564	1.579381	-0.000187
1414	1.4059e+02	-16.3006	-91.168618	0.000466	4.661564	1.579381	-0.000187
1415	1.4069e+02	-16.3359	-91.346252	0.000446	4.458888	1.510712	-0.000179
1416	1.4079e+02	-16.3760	-91.552146	0.000517	5.168256	1.751053	-0.000207
1417	1.4089e+02	-16.4209	-91.754002	0.000507	5.066918	1.716718	-0.000203
1418	1.4099e+02	-16.4642	-91.951822	0.000497	4.965579	1.682384	-0.000199
1419	1.4109e+02	-16.4995	-92.117345	0.000415	4.154873	1.407709	-0.000166
1420	1.4119e+02	-16.5428	-92.290942	0.000436	4.357549	1.476378	-0.000174
1421	1.4129e+02	-16.5814	-92.525095	0.000588	5.877625	1.991393	-0.000235
1422	1.4139e+02	-16.6134	-92.722915	0.000497	4.965579	1.682384	-0.000199
1423	1.4149e+02	-16.6535	-92.868252	0.000365	3.648181	1.236037	-0.000146
1424	1.4159e+02	-16.6953	-93.049923	0.000456	4.560226	1.545046	-0.000183
1425	1.4169e+02	-16.7434	-93.247743	0.000497	4.965579	1.682384	-0.000199
1426	1.4179e+02	-16.7771	-93.477859	0.000578	5.776286	1.957059	-0.000231
1427	1.4189e+02	-16.8059	-93.655493	0.000446	4.458888	1.510712	-0.000179
1428	1.4199e+02	-16.8541	-93.865424	0.000527	5.269594	1.785387	-0.000211
1429	1.4209e+02	-16.8942	-94.047096	0.000456	4.560226	1.545046	-0.000183
1430	1.4219e+02	-16.9375	-94.232804	0.000466	4.661564	1.579381	-0.000187
1431	1.4228e+02	-16.9808	-94.422549	0.000476	4.762903	1.613715	-0.000191
1432	1.4238e+02	-17.0161	-94.648629	0.000567	5.674948	1.922724	-0.000227
1433	1.4248e+02	-17.0546	-94.834337	0.000466	4.661564	1.579381	-0.000187
1434	1.4258e+02	-17.0995	-95.072528	0.000598	5.978963	2.025727	-0.000239
1435	1.4268e+02	-17.1396	-95.197679	0.000314	3.141489	1.064365	-0.000126
1436	1.4278e+02	-17.1797	-95.452019	0.000638	6.384316	2.163065	-0.000256
1437	1.4288e+02	-17.2150	-95.609467	0.000395	3.952196	1.339040	-0.000158
1438	1.4298e+02	-17.2503	-95.811324	0.000507	5.066918	1.716718	-0.000203
1439	1.4308e+02	-17.2920	-96.005106	0.000486	4.864241	1.648049	-0.000195
1440	1.4318e+02	-17.3353	-96.231186	0.000567	5.674948	1.922724	-0.000227
1441	1.4328e+02	-17.3722	-96.364411	0.000334	3.344166	1.133034	-0.000134
1442	1.4338e+02	-17.4204	-96.558194	0.000486	4.864241	1.648049	-0.000195
1443	1.4348e+02	-17.4653	-96.760051	0.000507	5.066918	1.716718	-0.000203
1444	1.4358e+02	-17.4990	-96.953833	0.000486	4.864241	1.648049	-0.000195
1445	1.4368e+02	-17.5359	-97.171839	0.000547	5.472271	1.854056	-0.000219
1446	1.4378e+02	-17.5824	-97.369658	0.000497	4.965579	1.682384	-0.000199
1447	1.4388e+02	-17.6097	-97.531144	0.000405	4.053534	1.373375	-0.000162
1448	1.4398e+02	-17.6546	-97.777409	0.000618	6.181640	2.094396	-0.000248
1449	1.4408e+02	-17.6915	-97.942932	0.000415	4.154873	1.407709	-0.000166
1450	1.4418e+02	-17.7332	-98.120566	0.000446	4.458888	1.510712	-0.000179
1451	1.4428e+02	-17.7829	-98.342608	0.000557	5.573610	1.888390	-0.000223
1452	1.4437e+02	-17.8134	-98.528316	0.000466	4.661564	1.579381	-0.000187
1453	1.4447e+02	-17.8599	-98.734210	0.000517	5.168256	1.751053	-0.000207
1454	1.4457e+02	-17.8936	-98.923956	0.000476	4.762903	1.613715	-0.000191
1455	1.4467e+02	-17.9385	-99.121775	0.000497	4.965579	1.682384	-0.000199
1456	1.4477e+02	-17.9786	-99.343818	0.000557	5.573610	1.888390	-0.000223
1457	1.4487e+02	-18.0236	-99.529526	0.000466	4.661564	1.579381	-0.000187
1458	1.4497e+02	-18.0653	-99.723308	0.000486	4.864241	1.648049	-0.000195
1459	1.4507e+02	-18.0893	-99.892868	0.000426	4.256211	1.442043	-0.000170
1460	1.4517e+02	-18.1294	-100.086651	0.000486	4.864241	1.648049	-0.000195
1461	1.4527e+02	-18.1679	-100.304656	0.000547	5.472271	1.854056	-0.000219
1462	1.4537e+02	-18.2193	-100.462104	0.000395	3.952196	1.339040	-0.000158
1463	1.4547e+02	-18.2498	-100.704332	0.000608	6.080301	2.060062	-0.000243
1464	1.4557e+02	-18.2818	-100.922338	0.000547	5.472271	1.854056	-0.000219
1465	1.4567e+02	-18.3284	-101.116120	0.000486	4.864241	1.648049	-0.000195
1466	1.4577e+02	-18.3749	-101.305866	0.000476	4.762903	1.613715	-0.000191
1467	1.4587e+02	-18.4198	-101.535982	0.000578	5.776286	1.957059	-0.000231
1468	1.4597e+02	-18.4535	-101.721691	0.000466	4.661564	1.579381	-0.000187
1469	1.4607e+02	-18.5000	-101.943733	0.000557	5.573610	1.888390	-0.000223
1470	1.4617e+02	-18.5401	-102.145590	0.000507	5.066918	1.716718	-0.000203
1471	1.4626e+02	-18.5770	-102.323224	0.000446	4.458888	1.510712	-0.000179
1472	1.4636e+02	-18.6155	-102.537192	0.000537	5.370933	1.819721	-0.000215
1473	1.4646e+02	-18.6476	-102.747123	0.000527	5.269594	1.785387	-0.000211
1474	1.4656e+02	-18.6989	-102.953017	0.000517	5.168256	1.751053	-0.000207
1475	1.4666e+02	-18.7423	-103.142762	0.000476	4.762903	1.613715	-0.000191
1476	1.4676e+02	-18.7695	-103.360768	0.000547	5.472271	1.854056	-0.000219
1477	1.4686e+02	-18.8048	-103.586847	0.000567	5.674948	1.922724	-0.000227
1478	1.4696e+02	-18.8465	-103.752370	0.000415	4.154873	1.407709	-0.000166
1479	1.4706e+02	-18.8930	-103.966338	0.000537	5.370933	1.819721	-0.000215
1480	1.4716e+02	-18.9251	-104.168195	0.000507	5.066918	1.716718	-0.000203
1481	1.4726e+02	-18.9717	-104.386200	0.000547	5.472271	1.854056	-0.000219
1482	1.4736e+02	-19.0150	-104.608243	0.000557	5.573610	1.888390	-0.000223
1483	1.4746e+02	-19.0455	-104.777802	0.000426	4.256211	1.442043	-0.000170
1484	1.4756e+02	-19.0920	-104.995808	0.000547	5.472271	1.854056	-0.000219
1485	1.4766e+02	-19.1241	-105.197664	0.000507	5.066918	1.716718	-0.000203
1486	1.4776e+02	-19.1658	-105.443930	0.000618	6.181640	2.094396	-0.000248
1487	1.4786e+02	-19.2107	-105.581192	0.000345	3.445504	1.167368	-0.000138
1488	1.4796e+02	-19.2476	-105.839569	0.000649	6.485655	2.197399	-0.000260
1489	1.4806e+02	-19.2909	-106.029314	0.000476	4.762903	1.613715	-0.000191
1490	1.4816e+02	-19.3230	-106.239246	0.000527	5.269594	1.785387	-0.000211
1491	1.4825e+02	-19.3695	-106.433028	0.000486	4.864241	1.648049	-0.000195
1492	1.4835e+02	-19.4096	-106.659108	0.000567	5.674948	1.922724	-0.000227
1493	1.4845e+02	-19.4513	-106.881150	0.000557	5.573610	1.888390	-0.000223
1494	1.4855e+02	-19.4962	-107.066858	0.000466	4.661564	1.579381	-0.000187
1495	1.4865e+02	-19.5251	-107.305049	0.000598	5.978963	2.025727	-0.000239
1496	1.4875e+02	-19.5732	-107.490758	0.000466	4.661564	1.579381	-0.000187
1497	1.4885e+02	-19.6117	-107.684540	0.000486	4.864241	1.648049	-0.000195
1498	1.4895e+02	-19.6454	-107.922731	0.000598	5.978963	2.025727	-0.000239
1499	1.4905e+02	-19.6791	-108.156885	0.000588	5.877625	1.991393	-0.000235
1500	1.4915e+02	-19.7208	-108.407187	0.000628	6.282978	2.128731	-0.000252
1501	1.4925e+02	-19.7722	-108.600970	0.000486	4.864241	1.648049	-0.000195
1502	1.4935e+02	-19.7962	-108.827050	0.000567	5.674948	1.922724	-0.000227
1503	1.4945e+02	-19.8363	-109.057166	0.000578	5.776286	1.957059	-0.000231
1504	1.4955e+02	-19.8861	-109.238837	0.000456	4.560226	1.545046	-0.000183
1505	1.4965e+02	-19.9310	-109.452806	0.000537	5.370933	1.819721	-0.000215
1506	1.4975e+02	-19.9647	-109.719257	0.000669	6.688331	2.266068	-0.000268
1507	1.4985e+02	-20.0112	-109.917076	0.000497	4.965579	1.682384	-0.000199
1508	1.4995e+02	-19.9647	-109.892853	0.000061	0.608030	0.206006	0.000024
1509	1.5005e+02	-19.9342	-109.828259	0.000162	1.621414	0.549350	0.000065
1510	1.5015e+02	-19.8893	-109.751554	0.000193	1.925429	0.652353	0.000077
1511	1.5025e+02	-19.8412	-109.678885	0.000182	1.824090	0.618019	0.000073
1512	1.5034e+02	-19.8107	-109.561808	0.000294	2.938812	0.995697	0.000118
1513	1.5044e+02	-19.7674	-109.485103	0.000193	1.925429	0.652353	0.000077
1514	1.5054e+02	-19.7208	-109.416471	0.000172	1.722752	0.583684	0.000069
1515	1.5064e+02	-19.6855	-109.351877	0.000162	1.621414	0.549350	0.000065
1516	1.5074e+02	-19.6422	-109.222689	0.000324	3.242827	1.098700	0.000130
1517	1.5084e+02	-19.6005	-109.121760	0.000253	2.533459	0.858359	0.000101
1518	1.5094e+02	-19.5652	-109.036981	0.000213	2.128105	0.721022	0.000085
1519	1.5104e+02	-19.5219	-108.968349	0.000172	1.722752	0.583684	0.000069
1520	1.5114e+02	-19.4914	-108.814938	0.000385	3.850857	1.304706	0.000154
1521	1.5124e+02	-19.4545	-108.701898	0.000284	2.837474	0.961362	0.000114
1522	1.5134e+02	-19.4032	-108.621156	0.000203	2.026767	0.686687	0.000081
1523	1.5144e+02	-19.3711	-108.536376	0.000213	2.128105	0.721022	0.000085
1524	1.5154e+02	-19.3358	-108.451596	0.000213	2.128105	0.721022	0.000085
1525	1.5164e+02	-19.2941	-108.318370	0.000334	3.344166	1.133034	0.000134
1526	1.5174e+02	-19.2508	-108.205331	0.000284	2.837474	0.961362	0.000114
1527	1.5184e+02	-19.2075	-108.108439	0.000243	2.432121	0.824025	0.000097
1528	1.5194e+02	-19.1690	-108.003474	0.000263	2.634797	0.892693	0.000105
1529	1.5204e+02	-19.1305	-107.858137	0.000365	3.648181	1.236037	0.000146
1530	1.5214e+02	-19.0888	-107.753171	0.000263	2.634797	0.892693	0.000105
1531	1.5224e+02	-19.0422	-107.668392	0.000213	2.128105	0.721022	0.000085
1532	1.5233e+02	-19.0086	-107.523055	0.000365	3.648181	1.236037	0.000146
1533	1.5243e+02	-18.9733	-107.369644	0.000385	3.850857	1.304706	0.000154
1534	1.5253e+02	-18.9316	-107.284864	0.000213	2.128105	0.721022	0.000085
1535	1.5263e+02	-18.8930	-107.187972	0.000243	2.432121	0.824025	0.000097
1536	1.5273e+02	-18.8497	-107.054747	0.000334	3.344166	1.133034	0.000134
1537	1.5283e+02	-18.7968	-106.925559	0.000324	3.242827	1.098700	0.000130
1538	1.5293e+02	-18.7663	-106.800407	0.000314	3.141489	1.064365	0.000126
1539	1.5303e+02	-18.7326	-106.655070	0.000365	3.648181	1.236037	0.000146
1540	1.5313e+02	-18.6909	-106.578365	0.000193	1.925429	0.652353	0.000077
1541	1.5323e+02	-18.6540	-106.428991	0.000375	3.749519	1.270371	0.000150
1542	1.5333e+02	-18.6203	-106.303840	0.000314	3.141489	1.064365	0.000126
1543	1.5343e+02	-18.5754	-106.198874	0.000263	2.634797	0.892693	0.000105
1544	1.5353e+02	-18.5305	-106.073723	0.000314	3.141489	1.064365	0.000126
1545	1.5363e+02	-18.4872	-105.920312	0.000385	3.850857	1.304706	0.000154
1546	1.5373e+02	-18.4487	-105.803235	0.000294	2.938812	0.995697	0.000118
1547	1.5383e+02	-18.4134	-105.718455	0.000213	2.128105	0.721022	0.000085
1548	1.5393e+02	-18.3701	-105.593304	0.000314	3.141489	1.064365	0.000126
1549	1.5403e+02	-18.3348	-105.443930	0.000375	3.749519	1.270371	0.000150
1550	1.5413e+02	-18.2866	-105.338964	0.000263	2.634797	0.892693	0.000105
1551	1.5422e+02	-18.2578	-105.181516	0.000395	3.952196	1.339040	0.000158
1552	1.5432e+02	-18.2209	-105.056365	0.000314	3.141489	1.064365	0.000126
1553	1.5442e+02	-18.1727	-105.015993	0.000101	1.013384	0.343344	0.000041
1554	1.5452e+02	-18.1262	-104.870656	0.000365	3.648181	1.236037	0.000146
1555	1.5462e+02	-18.0974	-104.749542	0.000304	3.040151	1.030031	0.000122
1556	1.5472e+02	-18.0492	-104.652651	0.000243	2.432121	0.824025	0.000097
1557	1.5482e+02	-18.0123	-104.543649	0.000274	2.736136	0.927028	0.000110
1558	1.5492e+02	-17.9658	-104.402349	0.000355	3.546842	1.201703	0.000142
1559	1.5502e+02	-17.9321	-104.265086	0.000345	3.445504	1.167368	0.000138
1560	1.5512e+02	-17.8920	-104.176269	0.000223	2.229444	0.755356	0.000089
1561	1.5522e+02	-17.8551	-104.075341	0.000253	2.533459	0.858359	0.000101
1562	1.5532e+02	-17.8214	-103.913855	0.000405	4.053534	1.373375	0.000162
1563	1.5542e+02	-17.7701	-103.905781	0.000020	0.202677	0.068669	0.000008
1564	1.5552e+02	-17.7332	-103.772556	0.000334	3.344166	1.133034	0.000134
1565	1.5562e+02	-17.6947	-103.615107	0.000395	3.952196	1.339040	0.000158
1566	1.5572e+02	-17.6530	-103.570699	0.000111	1.114722	0.377678	0.000045
1567	1.5582e+02	-17.6193	-103.437473	0.000334	3.344166	1.133034	0.000134
1568	1.5592e+02	-17.5776	-103.296174	0.000355	3.546842	1.201703	0.000142
1569	1.5602e+02	-17.5391	-103.179097	0.000294	2.938812	0.995697	0.000118
1570	1.5612e+02	-17.4926	-103.041834	0.000345	3.445504	1.167368	0.000138
1571	1.5622e+02	-17.4541	-102.940906	0.000253	2.533459	0.858359	0.000101
1572	1.5631e+02	-17.4188	-102.791532	0.000375	3.749519	1.270371	0.000150
1573	1.5641e+02	-17.3722	-102.654269	0.000345	3.445504	1.167368	0.000138
1574	1.5651e+02	-17.3434	-102.504895	0.000375	3.749519	1.270371	0.000150
1575	1.5661e+02	-17.2984	-102.359558	0.000365	3.648181	1.236037	0.000146
1576	1.5671e+02	-17.2551	-102.189998	0.000426	4.256211	1.442043	0.000170
1577	1.5681e+02	-17.2150	-102.016402	0.000436	4.357549	1.476378	0.000174
1578	1.5691e+02	-17.1829	-101.907399	0.000274	2.736136	0.927028	0.000110
1579	1.5701e+02	-17.1284	-101.685356	0.000557	5.573610	1.888390	0.000223
1580	1.5711e+02	-17.0867	-101.544057	0.000355	3.546842	1.201703	0.000142
1581	1.5721e+02	-17.0514	-101.350274	0.000486	4.864241	1.648049	0.000195
1582	1.5731e+02	-17.0113	-101.112083	0.000598	5.978963	2.025727	0.000239
1583	1.5741e+02	-16.9728	-100.982895	0.000324	3.242827	1.098700	0.000130
1584	1.5751e+02	-16.9407	-100.797187	0.000466	4.661564	1.579381	0.000187
1585	1.5761e+02	-16.8974	-100.627627	0.000426	4.256211	1.442043	0.000170
1586	1.5771e+02	-16.8541	-100.449993	0.000446	4.458888	1.510712	0.000179
1587	1.5781e+02	-16.8156	-100.304656	0.000365	3.648181	1.236037	0.000146
1588	1.5791e+02	-16.7690	-100.118948	0.000466	4.661564	1.579381	0.000187
1589	1.5801e+02	-16.7321	-99.973611	0.000365	3.648181	1.236037	0.000146
1590	1.5811e+02	-16.6985	-99.808088	0.000415	4.154873	1.407709	0.000166
1591	1.5821e+02	-16.6600	-99.626417	0.000456	4.560226	1.545046	0.000183
1592	1.5830e+02	-16.6199	-99.452820	0.000436	4.357549	1.476378	0.000174
1593	1.5840e+02	-16.5830	-99.259038	0.000486	4.864241	1.648049	0.000195
1594	1.5850e+02	-16.5412	-99.049107	0.000527	5.269594	1.785387	0.000211
1595	1.5860e+02	-16.4995	-98.919918	0.000324	3.242827	1.098700	0.000130
1596	1.5870e+02	-16.4578	-98.722099	0.000497	4.965579	1.682384	0.000199
1597	1.5880e+02	-16.4177	-98.504093	0.000547	5.472271	1.854056	0.000219
1598	1.5890e+02	-16.3872	-98.362794	0.000355	3.546842	1.201703	0.000142
1599	1.5900e+02	-16.3295	-98.205345	0.000395	3.952196	1.339040	0.000158
1600	1.5910e+02	-16.2942	-97.995414	0.000527	5.269594	1.785387	0.000211
1601	1.5920e+02	-16.2637	-97.870263	0.000314	3.141489	1.064365	0.000126
1602	1.5930e+02	-16.2220	-97.741075	0.000324	3.242827	1.098700	0.000130
1603	1.5940e+02	-16.1739	-97.595738	0.000365	3.648181	1.236037	0.000146
1604	1.5950e+02	-16.1354	-97.422141	0.000436	4.357549	1.476378	0.000174
1605	1.5960e+02	-16.1017	-97.248544	0.000436	4.357549	1.476378	0.000174
1606	1.5970e+02	-16.0552	-97.070910	0.000446	4.458888	1.510712	0.000179
1607	1.5980e+02	-16.0199	-96.929611	0.000355	3.546842	1.201703	0.000142
1608	1.5990e+02	-15.9766	-96.788311	0.000355	3.546842	1.201703	0.000142
1609	1.6000e+02	-15.9429	-96.606640	0.000456	4.560226	1.545046	0.000183
1610	1.6010e+02	-15.9012	-96.505711	0.000253	2.533459	0.858359	0.000101
1611	1.6019e+02	-15.8578	-96.332114	0.000436	4.357549	1.476378	0.000174
1612	1.6029e+02	-15.8177	-96.142369	0.000476	4.762903	1.613715	0.000191
1613	1.6039e+02	-15.7873	-96.033366	0.000274	2.736136	0.927028	0.000110
1614	1.6049e+02	-15.7439	-95.839584	0.000486	4.864241	1.648049	0.000195
1615	1.6059e+02	-15.7103	-95.714433	0.000314	3.141489	1.064365	0.000126
1616	1.6069e+02	-15.6653	-95.556984	0.000395	3.952196	1.339040	0.000158
1617	1.6079e+02	-15.6188	-95.435870	0.000304	3.040151	1.030031	0.000122
1618	1.6089e+02	-15.5819	-95.234013	0.000507	5.066918	1.716718	0.000203
1619	1.6099e+02	-15.5450	-95.088677	0.000365	3.648181	1.236037	0.000146
1620	1.6109e+02	-15.5049	-94.902968	0.000466	4.661564	1.579381	0.000187
1621	1.6119e+02	-15.4664	-94.773780	0.000324	3.242827	1.098700	0.000130
1622	1.6129e+02	-15.4247	-94.620369	0.000385	3.850857	1.304706	0.000154
1623	1.6139e+02	-15.3894	-94.450809	0.000426	4.256211	1.442043	0.000170
1624	1.6149e+02	-15.3493	-94.333732	0.000294	2.938812	0.995697	0.000118
1625	1.6159e+02	-15.2996	-94.164173	0.000426	4.256211	1.442043	0.000170
1626	1.6169e+02	-15.2595	-94.002687	0.000405	4.053534	1.373375	0.000162
1627	1.6179e+02	-15.2210	-93.857350	0.000365	3.648181	1.236037	0.000146
1628	1.6189e+02	-15.1776	-93.728162	0.000324	3.242827	1.098700	0.000130
1629	1.6199e+02	-15.1456	-93.631271	0.000243	2.432121	0.824025	0.000097
1630	1.6209e+02	-15.1087	-93.453637	0.000446	4.458888	1.510712	0.000179
1631	1.6219e+02	-15.0589	-93.324448	0.000324	3.242827	1.098700	0.000130
1632	1.6228e+02	-15.0268	-93.150851	0.000436	4.357549	1.476378	0.000174
1633	1.6238e+02	-14.9739	-93.021663	0.000324	3.242827	1.098700	0.000130
1634	1.6248e+02	-14.9434	-92.864215	0.000395	3.952196	1.339040	0.000158
1635	1.6258e+02	-14.8985	-92.650247	0.000537	5.370933	1.819721	0.000215
1636	1.6268e+02	-14.8664	-92.565467	0.000213	2.128105	0.721022	0.000085
1637	1.6278e+02	-14.8231	-92.355536	0.000527	5.269594	1.785387	0.000211
1638	1.6288e+02	-14.7926	-92.206162	0.000375	3.749519	1.270371	0.000150
1639	1.6298e+02	-14.7509	-92.052751	0.000385	3.850857	1.304706	0.000154
1640	1.6308e+02	-14.6996	-91.935674	0.000294	2.938812	0.995697	0.000118
1641	1.6318e+02	-14.6563	-91.774188	0.000405	4.053534	1.373375	0.000162
1642	1.6328e+02	-14.6210	-91.657111	0.000294	2.938812	0.995697	0.000118
1643	1.6338e+02	-14.5889	-91.418920	0.000598	5.978963	2.025727	0.000239
1644	1.6348e+02	-14.5424	-91.281658	0.000345	3.445504	1.167368	0.000138
1645	1.6358e+02	-14.4975	-91.095949	0.000466	4.661564	1.579381	0.000187
1646	1.6368e+02	-14.4654	-90.894093	0.000507	5.066918	1.716718	0.000203
1647	1.6378e+02	-14.4333	-90.752793	0.000355	3.546842	1.201703	0.000142
1648	1.6388e+02	-14.3868	-90.579196	0.000436	4.357549	1.476378	0.000174
1649	1.6398e+02	-14.3531	-90.441933	0.000345	3.445504	1.167368	0.000138
1650	1.6408e+02	-14.3033	-90.284485	0.000395	3.952196	1.339040	0.000158
1651	1.6418e+02	-14.2697	-90.090703	0.000486	4.864241	1.648049	0.000195
1652	1.6427e+02	-14.2344	-89.973626	0.000294	2.938812	0.995697	0.000118
1653	1.6437e+02	-14.1991	-89.783880	0.000476	4.762903	1.613715	0.000191
1654	1.6447e+02	-14.1445	-89.586061	0.000497	4.965579	1.682384	0.000199
1655	1.6457e+02	-14.1092	-89.408427	0.000446	4.458888	1.510712	0.000179
1656	1.6467e+02	-14.0707	-89.291350	0.000294	2.938812	0.995697	0.000118
1657	1.6477e+02	-14.0210	-89.081419	0.000527	5.269594	1.785387	0.000211
1658	1.6487e+02	-13.9873	-88.871488	0.000527	5.269594	1.785387	0.000211
1659	1.6497e+02	-13.9536	-88.705965	0.000415	4.154873	1.407709	0.000166
1660	1.6507e+02	-13.9135	-88.556591	0.000375	3.749519	1.270371	0.000150
1661	1.6517e+02	-13.8606	-88.374920	0.000456	4.560226	1.545046	0.000183
1662	1.6527e+02	-13.8365	-88.229583	0.000365	3.648181	1.236037	0.000146
1663	1.6537e+02	-13.7932	-87.987355	0.000608	6.080301	2.060062	0.000243
1664	1.6547e+02	-13.7451	-87.858166	0.000324	3.242827	1.098700	0.000130
1665	1.6557e+02	-13.7146	-87.652273	0.000517	5.168256	1.751053	0.000207
1666	1.6567e+02	-13.6745	-87.519047	0.000334	3.344166	1.133034	0.000134
1667	1.6577e+02	-13.6264	-87.325265	0.000486	4.864241	1.648049	0.000195
1668	1.6587e+02	-13.5846	-87.147631	0.000446	4.458888	1.510712	0.000179
1669	1.6597e+02	-13.5510	-86.990182	0.000395	3.952196	1.339040	0.000158
1670	1.6607e+02	-13.4964	-86.873105	0.000294	2.938812	0.995697	0.000118
1671	1.6616e+02	-13.4691	-86.687397	0.000466	4.661564	1.579381	0.000187
1672	1.6626e+02	-13.4162	-86.501689	0.000466	4.661564	1.579381	0.000187
1673	1.6636e+02	-13.3873	-86.315981	0.000466	4.661564	1.579381	0.000187
1674	1.6646e+02	-13.3504	-86.215052	0.000253	2.533459	0.858359	0.000101
1675	1.6656e+02	-13.3087	-86.021270	0.000486	4.864241	1.648049	0.000195
1676	1.6666e+02	-13.2766	-85.839599	0.000456	4.560226	1.545046	0.000183
1677	1.6676e+02	-13.2333	-85.674076	0.000415	4.154873	1.407709	0.000166
1678	1.6686e+02	-13.1804	-85.556999	0.000294	2.938812	0.995697	0.000118
1679	1.6696e+02	-13.1579	-85.399551	0.000395	3.952196	1.339040	0.000158
1680	1.6706e+02	-13.1098	-85.217880	0.000456	4.560226	1.545046	0.000183
1681	1.6716e+02	-13.0761	-85.028134	0.000476	4.762903	1.613715	0.000191
1682	1.6726e+02	-13.0264	-84.870686	0.000395	3.952196	1.339040	0.000158
1683	1.6736e+02	-12.9815	-84.684978	0.000466	4.661564	1.579381	0.000187
1684	1.6746e+02	-12.9606	-84.515418	0.000426	4.256211	1.442043	0.000170
1685	1.6756e+02	-12.9157	-84.333747	0.000456	4.560226	1.545046	0.000183
1686	1.6766e+02	-12.8756	-84.172262	0.000405	4.053534	1.373375	0.000162
1687	1.6776e+02	-12.8242	-84.026925	0.000365	3.648181	1.236037	0.000146
1688	1.6786e+02	-12.7954	-83.845254	0.000456	4.560226	1.545046	0.000183
1689	1.6796e+02	-12.7360	-83.679731	0.000415	4.154873	1.407709	0.000166
1690	1.6806e+02	-12.7119	-83.530357	0.000375	3.749519	1.270371	0.000150
1691	1.6816e+02	-12.6750	-83.372909	0.000395	3.952196	1.339040	0.000158
1692	1.6825e+02	-12.6365	-83.191238	0.000456	4.560226	1.545046	0.000183
1693	1.6835e+02	-12.5852	-83.017641	0.000436	4.357549	1.476378	0.000174
1694	1.6845e+02	-12.5595	-82.852118	0.000415	4.154873	1.407709	0.000166
1695	1.6855e+02	-12.5082	-82.666410	0.000466	4.661564	1.579381	0.000187
1696	1.6865e+02	-12.4745	-82.504925	0.000405	4.053534	1.373375	0.000162
1697	1.6875e+02	-12.4344	-82.303068	0.000507	5.066918	1.716718	0.000203
1698	1.6885e+02	-12.3911	-82.153694	0.000375	3.749519	1.270371	0.000150
1699	1.6895e+02	-12.3606	-81.967985	0.000466	4.661564	1.579381	0.000187
1700	1.6905e+02	-12.3125	-81.814574	0.000385	3.850857	1.304706	0.000154
1701	1.6915e+02	-12.2708	-81.632903	0.000456	4.560226	1.545046	0.000183
1702	1.6925e+02	-12.2419	-81.467381	0.000415	4.154873	1.407709	0.000166
1703	1.6935e+02	-12.1922	-81.261487	0.000517	5.168256	1.751053	0.000207
1704	1.6945e+02	-12.1681	-81.087890	0.000436	4.357549	1.476378	0.000174
1705	1.6955e+02	-12.1168	-80.934479	0.000385	3.850857	1.304706	0.000154
1706	1.6965e+02	-12.0702	-80.801253	0.000334	3.344166	1.133034	0.000134
1707	1.6975e+02	-12.0350	-80.615545	0.000466	4.661564	1.579381	0.000187
1708	1.6985e+02	-11.9965	-80.429837	0.000466	4.661564	1.579381	0.000187
1709	1.6995e+02	-11.9547	-80.264314	0.000415	4.154873	1.407709	0.000166
1710	1.7005e+02	-11.9114	-80.054383	0.000527	5.269594	1.785387	0.000211
1711	1.7015e+02	-11.8729	-79.888861	0.000415	4.154873	1.407709	0.000166
1712	1.7024e+02	-11.8376	-79.707189	0.000456	4.560226	1.545046	0.000183
1713	1.7034e+02	-11.7959	-79.533593	0.000436	4.357549	1.476378	0.000174
1714	1.7044e+02	-11.7574	-79.364033	0.000426	4.256211	1.442043	0.000170
1715	1.7054e+02	-11.7205	-79.158139	0.000517	5.168256	1.751053	0.000207
1716	1.7064e+02	-11.6740	-78.968394	0.000476	4.762903	1.613715	0.000191
1717	1.7074e+02	-11.6419	-78.823057	0.000365	3.648181	1.236037	0.000146
1718	1.7084e+02	-11.5938	-78.625237	0.000497	4.965579	1.682384	0.000199
1719	1.7094e+02	-11.5633	-78.487974	0.000345	3.445504	1.167368	0.000138
1720	1.7104e+02	-11.5248	-78.269969	0.000547	5.472271	1.854056	0.000219
1721	1.7114e+02	-11.4799	-78.112521	0.000395	3.952196	1.339040	0.000158
1722	1.7124e+02	-11.4302	-77.866256	0.000618	6.181640	2.094396	0.000248
1723	1.7134e+02	-11.4109	-77.749179	0.000294	2.938812	0.995697	0.000118
1724	1.7144e+02	-11.3548	-77.563470	0.000466	4.661564	1.579381	0.000187
1725	1.7154e+02	-11.3227	-77.337391	0.000567	5.674948	1.922724	0.000227
1726	1.7164e+02	-11.2794	-77.188017	0.000375	3.749519	1.270371	0.000150
1727	1.7174e+02	-11.2425	-76.998271	0.000476	4.762903	1.613715	0.000191
1728	1.7184e+02	-11.2024	-76.804489	0.000486	4.864241	1.648049	0.000195
1729	1.7194e+02	-11.1606	-76.651078	0.000385	3.850857	1.304706	0.000154
1730	1.7204e+02	-11.1238	-76.469407	0.000456	4.560226	1.545046	0.000183
1731	1.7213e+02	-11.0869	-76.283698	0.000466	4.661564	1.579381	0.000187
1732	1.7223e+02	-11.0435	-76.093953	0.000476	4.762903	1.613715	0.000191
1733	1.7233e+02	-11.0018	-75.892096	0.000507	5.066918	1.716718	0.000203
1734	1.7243e+02	-10.9553	-75.738685	0.000385	3.850857	1.304706	0.000154
1735	1.7253e+02	-10.9152	-75.504531	0.000588	5.877625	1.991393	0.000235
1736	1.7263e+02	-10.8815	-75.383417	0.000304	3.040151	1.030031	0.000122
1737	1.7273e+02	-10.8286	-75.173486	0.000527	5.269594	1.785387	0.000211
1738	1.7283e+02	-10.8029	-75.028149	0.000365	3.648181	1.236037	0.000146
1739	1.7293e+02	-10.7644	-74.814181	0.000537	5.370933	1.819721	0.000215
1740	1.7303e+02	-10.7195	-74.668844	0.000365	3.648181	1.236037	0.000146
1741	1.7313e+02	-10.6778	-74.450839	0.000547	5.472271	1.854056	0.000219
1742	1.7323e+02	-10.6441	-74.265130	0.000466	4.661564	1.579381	0.000187
1743	1.7333e+02	-10.6056	-74.075385	0.000476	4.762903	1.613715	0.000191
1744	1.7343e+02	-10.5607	-73.889677	0.000466	4.661564	1.579381	0.000187
1745	1.7353e+02	-10.5174	-73.699931	0.000476	4.762903	1.613715	0.000191
1746	1.7363e+02	-10.4788	-73.518260	0.000456	4.560226	1.545046	0.000183
1747	1.7373e+02	-10.4339	-73.344664	0.000436	4.357549	1.476378	0.000174
1748	1.7383e+02	-10.4002	-73.130695	0.000537	5.370933	1.819721	0.000215
1749	1.7393e+02	-10.3601	-72.900579	0.000578	5.776286	1.957059	0.000231
1750	1.7403e+02	-10.3216	-72.718907	0.000456	4.560226	1.545046	0.000183
1751	1.7413e+02	-10.2847	-72.525125	0.000486	4.864241	1.648049	0.000195
1752	1.7422e+02	-10.2414	-72.363640	0.000405	4.053534	1.373375	0.000162
1753	1.7432e+02	-10.2029	-72.157746	0.000517	5.168256	1.751053	0.000207
1754	1.7442e+02	-10.1708	-71.992223	0.000415	4.154873	1.407709	0.000166
1755	1.7452e+02	-10.1259	-71.766143	0.000567	5.674948	1.922724	0.000227
1756	1.7462e+02	-10.0826	-71.576398	0.000476	4.762903	1.613715	0.000191
1757	1.7472e+02	-10.0329	-71.390690	0.000466	4.661564	1.579381	0.000187
1758	1.7482e+02	-10.0088	-71.172684	0.000547	5.472271	1.854056	0.000219
1759	1.7492e+02	-9.9623	-70.966791	0.000517	5.168256	1.751053	0.000207
1760	1.7502e+02	-9.9206	-70.777045	0.000476	4.762903	1.613715	0.000191
1761	1.7512e+02	-9.8789	-70.595374	0.000456	4.560226	1.545046	0.000183
1762	1.7522e+02	-9.8388	-70.405629	0.000476	4.762903	1.613715	0.000191
1763	1.7532e+02	-9.8019	-70.207809	0.000497	4.965579	1.682384	0.000199
1764	1.7542e+02	-9.7618	-70.026138	0.000456	4.560226	1.545046	0.000183
1765	1.7552e+02	-9.7233	-69.824281	0.000507	5.066918	1.716718	0.000203
1766	1.7562e+02	-9.6799	-69.638573	0.000466	4.661564	1.579381	0.000187
1767	1.7572e+02	-9.6430	-69.448828	0.000476	4.762903	1.613715	0.000191
1768	1.7582e+02	-9.5965	-69.242934	0.000517	5.168256	1.751053	0.000207
1769	1.7592e+02	-9.5596	-69.065300	0.000446	4.458888	1.510712	0.000179
1770	1.7602e+02	-9.5179	-68.855369	0.000527	5.269594	1.785387	0.000211
1771	1.7612e+02	-9.4810	-68.673697	0.000456	4.560226	1.545046	0.000183
1772	1.7621e+02	-9.4473	-68.459729	0.000537	5.370933	1.819721	0.000215
1773	1.7631e+02	-9.4072	-68.286132	0.000436	4.357549	1.476378	0.000174
1774	1.7641e+02	-9.3639	-68.096387	0.000476	4.762903	1.613715	0.000191
1775	1.7651e+02	-9.3366	-67.898567	0.000497	4.965579	1.682384	0.000199
1776	1.7661e+02	-9.2837	-67.720933	0.000446	4.458888	1.510712	0.000179
1777	1.7671e+02	-9.2420	-67.519077	0.000507	5.066918	1.716718	0.000203
1778	1.7681e+02	-9.2035	-67.349517	0.000426	4.256211	1.442043	0.000170
1779	1.7691e+02	-9.1650	-67.204180	0.000365	3.648181	1.236037	0.000146
1780	1.7701e+02	-9.1249	-67.054806	0.000375	3.749519	1.270371	0.000150
1781	1.7711e+02	-9.0912	-66.921581	0.000334	3.344166	1.133034	0.000134
1782	1.7721e+02	-9.0479	-66.784318	0.000345	3.445504	1.167368	0.000138
1783	1.7731e+02	-9.0110	-66.687427	0.000243	2.432121	0.824025	0.000097
1784	1.7741e+02	-8.9661	-66.578424	0.000274	2.736136	0.927028	0.000110
1785	1.7751e+02	-8.9243	-66.429050	0.000375	3.749519	1.270371	0.000150
1786	1.7761e+02	-8.9019	-66.283713	0.000365	3.648181	1.236037	0.000146
1787	1.7771e+02	-8.8522	-66.178748	0.000263	2.634797	0.892693	0.000105
1788	1.7781e+02	-8.8072	-65.980928	0.000497	4.965579	1.682384	0.000199
1789	1.7791e+02	-8.7719	-65.839628	0.000355	3.546842	1.201703	0.000142
1790	1.7801e+02	-8.7367	-65.674106	0.000415	4.154873	1.407709	0.000166
1791	1.7810e+02	-8.6869	-65.528769	0.000365	3.648181	1.236037	0.000146
1792	1.7820e+02	-8.6420	-65.403618	0.000314	3.141489	1.064365	0.000126
1793	1.7830e+02	-8.6051	-65.290578	0.000284	2.837474	0.961362	0.000114
1794	1.7840e+02	-8.5714	-65.189649	0.000253	2.533459	0.858359	0.000101
1795	1.7850e+02	-8.5345	-65.137167	0.000132	1.317399	0.446347	0.000053
1796	1.7860e+02	-8.4848	-65.036238	0.000253	2.533459	0.858359	0.000101
1797	1.7870e+02	-8.4479	-64.927236	0.000274	2.736136	0.927028	0.000110
1798	1.7880e+02	-8.4142	-64.834381	0.000233	2.330782	0.789690	0.000093
1799	1.7890e+02	-8.3613	-64.749602	0.000213	2.128105	0.721022	0.000085
1800	1.7900e+02	-8.3244	-64.624450	0.000314	3.141489	1.064365	0.000126
1801	1.7910e+02	-8.2907	-64.479113	0.000365	3.648181	1.236037	0.000146
1802	1.7920e+02	-8.2490	-64.285331	0.000486	4.864241	1.648049	0.000195
1803	1.7930e+02	-8.2233	-64.164217	0.000304	3.040151	1.030031	0.000122
1804	1.7940e+02	-8.1704	-63.970434	0.000486	4.864241	1.648049	0.000195
1805	1.7950e+02	-8.1335	-63.784726	0.000466	4.661564	1.579381	0.000187
1806	1.7960e+02	-8.0934	-63.647463	0.000345	3.445504	1.167368	0.000138
1807	1.7970e+02	-8.0532	-63.502127	0.000365	3.648181	1.236037	0.000146
1808	1.7980e+02	-8.0180	-63.328530	0.000436	4.357549	1.476378	0.000174
1809	1.7990e+02	-7.9698	-63.187230	0.000355	3.546842	1.201703	0.000142
1810	1.8000e+02	-7.9361	-63.017670	0.000426	4.256211	1.442043	0.000170
1811	1.8009e+02	-7.8848	-62.876371	0.000355	3.546842	1.201703	0.000142
1812	1.8019e+02	-7.8495	-62.706811	0.000426	4.256211	1.442043	0.000170
1813	1.8029e+02	-7.8174	-62.533214	0.000436	4.357549	1.476378	0.000174
1814	1.8039e+02	-7.7709	-62.387877	0.000365	3.648181	1.236037	0.000146
1815	1.8049e+02	-7.7388	-62.141612	0.000618	6.181640	2.094396	0.000248
1816	1.8059e+02	-7.6939	-61.923607	0.000547	5.472271	1.854056	0.000219
1817	1.8069e+02	-7.6410	-61.705601	0.000547	5.472271	1.854056	0.000219
1818	1.8079e+02	-7.6137	-61.483559	0.000557	5.573610	1.888390	0.000223
1819	1.8089e+02	-7.5688	-61.285739	0.000497	4.965579	1.682384	0.000199
1820	1.8099e+02	-7.5399	-61.011214	0.000689	6.891008	2.334737	0.000276
1821	1.8109e+02	-7.4982	-60.736689	0.000689	6.891008	2.334737	0.000276
1822	1.8119e+02	-7.4581	-60.482349	0.000638	6.384316	2.163065	0.000256
1823	1.8129e+02	-7.4132	-60.155341	0.000821	8.208407	2.781083	0.000329
1824	1.8139e+02	-7.3714	-59.864667	0.000730	7.296362	2.472074	0.000292
1825	1.8149e+02	-7.3394	-59.537659	0.000821	8.208407	2.781083	0.000329
1826	1.8159e+02	-7.2944	-59.154131	0.000963	9.627144	3.261765	0.000385
1827	1.8169e+02	-7.2592	-58.786752	0.000922	9.221790	3.124427	0.000369
1828	1.8179e+02	-7.2126	-58.379001	0.001024	10.235174	3.467771	0.000410
1829	1.8189e+02	-7.1805	-57.999511	0.000953	9.525805	3.227430	0.000381
1830	1.8199e+02	-7.1372	-57.656354	0.000861	8.613760	2.918421	0.000345
1831	1.8209e+02	-7.0939	-57.224381	0.001084	10.843204	3.673777	0.000434
1832	1.8218e+02	-7.0554	-56.933707	0.000730	7.296362	2.472074	0.000292
1833	1.8228e+02	-7.0249	-56.566327	0.000922	9.221790	3.124427	0.000369
1834	1.8238e+02	-6.9672	-56.364471	0.000507	5.066918	1.716718	0.000203
1835	1.8248e+02	-6.9287	-56.053611	0.000780	7.803053	2.643746	0.000312
1836	1.8258e+02	-6.8822	-55.847717	0.000517	5.168256	1.751053	0.000207
1837	1.8268e+02	-6.8549	-55.653935	0.000486	4.864241	1.648049	0.000195
1838	1.8278e+02	-6.8148	-55.367298	0.000720	7.195023	2.437740	0.000288
1839	1.8288e+02	-6.7827	-55.217924	0.000375	3.749519	1.270371	0.000150
1840	1.8298e+02	-6.7410	-54.979733	0.000598	5.978963	2.025727	0.000239
1841	1.8308e+02	-6.6993	-54.773839	0.000517	5.168256	1.751053	0.000207
1842	1.8318e+02	-6.6544	-54.580057	0.000486	4.864241	1.648049	0.000195
1843	1.8328e+02	-6.6271	-54.358014	0.000557	5.573610	1.888390	0.000223
1844	1.8338e+02	-6.5741	-54.152120	0.000517	5.168256	1.751053	0.000207
1845	1.8348e+02	-6.5340	-53.938152	0.000537	5.370933	1.819721	0.000215
1846	1.8358e+02	-6.4971	-53.724184	0.000537	5.370933	1.819721	0.000215
1847	1.8368e+02	-6.4618	-53.506179	0.000547	5.472271	1.854056	0.000219
1848	1.8378e+02	-6.4185	-53.340656	0.000415	4.154873	1.407709	0.000166
1849	1.8388e+02	-6.3752	-53.167059	0.000436	4.357549	1.476378	0.000174
1850	1.8398e+02	-6.3399	-52.936942	0.000578	5.776286	1.957059	0.000231
1851	1.8407e+02	-6.2966	-52.775457	0.000405	4.053534	1.373375	0.000162
1852	1.8417e+02	-6.2645	-52.642231	0.000334	3.344166	1.133034	0.000134
1853	1.8427e+02	-6.2180	-52.412115	0.000578	5.776286	1.957059	0.000231
1854	1.8437e+02	-6.1875	-52.198147	0.000537	5.370933	1.819721	0.000215
1855	1.8447e+02	-6.1442	-51.959956	0.000598	5.978963	2.025727	0.000239
1856	1.8457e+02	-6.1041	-51.842879	0.000294	2.938812	0.995697	0.000118
1857	1.8467e+02	-6.0672	-51.645059	0.000497	4.965579	1.682384	0.000199
1858	1.8477e+02	-6.0255	-51.451276	0.000486	4.864241	1.648049	0.000195
1859	1.8487e+02	-5.9886	-51.253457	0.000497	4.965579	1.682384	0.000199
1860	1.8497e+02	-5.9405	-51.051600	0.000507	5.066918	1.716718	0.000203
1861	1.8507e+02	-5.9004	-50.865892	0.000466	4.661564	1.579381	0.000187
1862	1.8517e+02	-5.8554	-50.651924	0.000537	5.370933	1.819721	0.000215
1863	1.8527e+02	-5.8250	-50.446030	0.000517	5.168256	1.751053	0.000207
1864	1.8537e+02	-5.7801	-50.171504	0.000689	6.891008	2.334737	0.000276
1865	1.8547e+02	-5.7464	-49.969648	0.000507	5.066918	1.716718	0.000203
1866	1.8557e+02	-5.6918	-49.792014	0.000446	4.458888	1.510712	0.000179
1867	1.8567e+02	-5.6613	-49.582083	0.000527	5.269594	1.785387	0.000211
1868	1.8577e+02	-5.6212	-49.400411	0.000456	4.560226	1.545046	0.000183
1869	1.8587e+02	-5.5843	-49.186443	0.000537	5.370933	1.819721	0.000215
1870	1.8597e+02	-5.5298	-49.053218	0.000334	3.344166	1.133034	0.000134
1871	1.8606e+02	-5.5041	-48.863472	0.000476	4.762903	1.613715	0.000191
1872	1.8616e+02	-5.4560	-48.633356	0.000578	5.776286	1.957059	0.000231
1873	1.8626e+02	-5.4303	-48.423425	0.000527	5.269594	1.785387	0.000211
1874	1.8636e+02	-5.3822	-48.233679	0.000476	4.762903	1.613715	0.000191
1875	1.8646e+02	-5.3373	-48.047971	0.000466	4.661564	1.579381	0.000187
1876	1.8656e+02	-5.2988	-47.789594	0.000649	6.485655	2.197399	0.000260
1877	1.8666e+02	-5.2683	-47.571589	0.000547	5.472271	1.854056	0.000219
1878	1.8676e+02	-5.2266	-47.264767	0.000770	7.701715	2.609412	0.000308
1879	1.8686e+02	-5.1817	-47.014464	0.000628	6.282978	2.128731	0.000252
1880	1.8696e+02	-5.1416	-46.788385	0.000567	5.674948	1.922724	0.000227
1881	1.8706e+02	-5.1127	-46.534045	0.000638	6.384316	2.163065	0.000256
1882	1.8716e+02	-5.0710	-46.275668	0.000649	6.485655	2.197399	0.000260
1883	1.8726e+02	-5.0212	-46.093997	0.000456	4.560226	1.545046	0.000183
1884	1.8736e+02	-4.9892	-45.811398	0.000709	7.093685	2.403405	0.000284
1885	1.8746e+02	-4.9458	-45.585318	0.000567	5.674948	1.922724	0.000227
1886	1.8756e+02	-4.9122	-45.326941	0.000649	6.485655	2.197399	0.000260
1887	1.8766e+02	-4.8592	-45.044342	0.000709	7.093685	2.403405	0.000284
1888	1.8776e+02	-4.8207	-44.802114	0.000608	6.080301	2.060062	0.000243
1889	1.8786e+02	-4.7902	-44.495292	0.000770	7.701715	2.609412	0.000308
1890	1.8796e+02	-4.7533	-44.249026	0.000618	6.181640	2.094396	0.000248
1891	1.8806e+02	-4.6988	-43.950278	0.000750	7.499038	2.540743	0.000300
1892	1.8815e+02	-4.6635	-43.704013	0.000618	6.181640	2.094396	0.000248
1893	1.8825e+02	-4.6218	-43.421413	0.000709	7.093685	2.403405	0.000284
1894	1.8835e+02	-4.5817	-43.070183	0.000882	8.816437	2.987090	0.000353
1895	1.8845e+02	-4.5464	-42.848140	0.000557	5.573610	1.888390	0.000223
1896	1.8855e+02	-4.5079	-42.509021	0.000851	8.512422	2.884087	0.000341
1897	1.8865e+02	-4.4646	-42.165864	0.000861	8.613760	2.918421	0.000345
1898	1.8875e+02	-4.4213	-41.899413	0.000669	6.688331	2.266068	0.000268
1899	1.8885e+02	-4.3844	-41.681408	0.000547	5.472271	1.854056	0.000219
1900	1.8895e+02	-4.3475	-41.386697	0.000740	7.397700	2.506409	0.000296
1901	1.8905e+02	-4.3090	-41.148506	0.000598	5.978963	2.025727	0.000239
1902	1.8915e+02	-4.2737	-40.845721	0.000760	7.600377	2.575077	0.000304
1903	1.8925e+02	-4.2272	-40.627715	0.000547	5.472271	1.854056	0.000219
1904	1.8935e+02	-4.1887	-40.361265	0.000669	6.688331	2.266068	0.000268
1905	1.8945e+02	-4.1502	-40.119036	0.000608	6.080301	2.060062	0.000243
1906	1.8955e+02	-4.0908	-39.836437	0.000709	7.093685	2.403405	0.000284
1907	1.8965e+02	-4.0699	-39.598246	0.000598	5.978963	2.025727	0.000239
1908	1.8975e+02	-4.0234	-39.372166	0.000567	5.674948	1.922724	0.000227
1909	1.8985e+02	-3.9913	-39.081493	0.000730	7.296362	2.472074	0.000292
1910	1.8995e+02	-3.9496	-38.855413	0.000567	5.674948	1.922724	0.000227
1911	1.9004e+02	-3.9063	-38.592999	0.000659	6.586993	2.231734	0.000264
1912	1.9014e+02	-3.8630	-38.366919	0.000567	5.674948	1.922724	0.000227
1913	1.9024e+02	-3.8341	-38.124691	0.000608	6.080301	2.060062	0.000243
1914	1.9034e+02	-3.7908	-37.898612	0.000567	5.674948	1.922724	0.000227
1915	1.9044e+02	-3.7571	-37.616012	0.000709	7.093685	2.403405	0.000284
1916	1.9054e+02	-3.7090	-37.369747	0.000618	6.181640	2.094396	0.000248
1917	1.9064e+02	-3.6769	-37.151742	0.000547	5.472271	1.854056	0.000219
1918	1.9074e+02	-3.6208	-36.857031	0.000740	7.397700	2.506409	0.000296
1919	1.9084e+02	-3.5871	-36.614803	0.000608	6.080301	2.060062	0.000243
1920	1.9094e+02	-3.5534	-36.348352	0.000669	6.688331	2.266068	0.000268
1921	1.9104e+02	-3.5181	-36.110161	0.000598	5.978963	2.025727	0.000239
1922	1.9114e+02	-3.4732	-35.855821	0.000638	6.384316	2.163065	0.000256
1923	1.9124e+02	-3.4315	-35.601482	0.000638	6.384316	2.163065	0.000256
1924	1.9134e+02	-3.3913	-35.339068	0.000659	6.586993	2.231734	0.000264
1925	1.9144e+02	-3.3432	-35.084728	0.000638	6.384316	2.163065	0.000256
1926	1.9154e+02	-3.3111	-34.830389	0.000638	6.384316	2.163065	0.000256
1927	1.9164e+02	-3.2710	-34.576049	0.000638	6.384316	2.163065	0.000256
1928	1.9174e+02	-3.2293	-34.337858	0.000598	5.978963	2.025727	0.000239
1929	1.9184e+02	-3.1940	-34.115816	0.000557	5.573610	1.888390	0.000223
1930	1.9194e+02	-3.1491	-33.808993	0.000770	7.701715	2.609412	0.000308
1931	1.9203e+02	-3.1138	-33.566765	0.000608	6.080301	2.060062	0.000243
1932	1.9213e+02	-3.0785	-33.324537	0.000608	6.080301	2.060062	0.000243
1933	1.9223e+02	-3.0368	-33.001566	0.000811	8.107068	2.746749	0.000325
1934	1.9233e+02	-2.9903	-32.791635	0.000527	5.269594	1.785387	0.000211
1935	1.9243e+02	-2.9598	-32.549407	0.000608	6.080301	2.060062	0.000243
1936	1.9253e+02	-2.9101	-32.254696	0.000740	7.397700	2.506409	0.000296
1937	1.9263e+02	-2.8732	-31.996319	0.000649	6.485655	2.197399	0.000260
1938	1.9273e+02	-2.8218	-31.778314	0.000547	5.472271	1.854056	0.000219
1939	1.9283e+02	-2.7962	-31.515900	0.000659	6.586993	2.231734	0.000264
1940	1.9293e+02	-2.7609	-31.253486	0.000659	6.586993	2.231734	0.000264
1941	1.9303e+02	-2.7128	-30.962813	0.000730	7.296362	2.472074	0.000292
1942	1.9313e+02	-2.6743	-30.732696	0.000578	5.776286	1.957059	0.000231
1943	1.9323e+02	-2.6277	-30.462208	0.000679	6.789670	2.300402	0.000272
1944	1.9333e+02	-2.5956	-30.219980	0.000608	6.080301	2.060062	0.000243
1945	1.9343e+02	-2.5555	-29.989863	0.000578	5.776286	1.957059	0.000231
1946	1.9353e+02	-2.5122	-29.679003	0.000780	7.803053	2.643746	0.000312
1947	1.9363e+02	-2.4769	-29.424664	0.000638	6.384316	2.163065	0.000256
1948	1.9373e+02	-2.4481	-29.202621	0.000557	5.573610	1.888390	0.000223
1949	1.9383e+02	-2.3919	-28.924059	0.000699	6.992346	2.369071	0.000280
1950	1.9393e+02	-2.3614	-28.702017	0.000557	5.573610	1.888390	0.000223
1951	1.9403e+02	-2.3133	-28.427491	0.000689	6.891008	2.334737	0.000276
1952	1.9412e+02	-2.2780	-28.157003	0.000679	6.789670	2.300402	0.000272
1953	1.9422e+02	-2.2379	-27.862292	0.000740	7.397700	2.506409	0.000296
1954	1.9432e+02	-2.1978	-27.632176	0.000578	5.776286	1.957059	0.000231
1955	1.9442e+02	-2.1497	-27.333428	0.000750	7.499038	2.540743	0.000300
1956	1.9452e+02	-2.1192	-27.071014	0.000659	6.586993	2.231734	0.000264
1957	1.9462e+02	-2.0759	-26.836860	0.000588	5.877625	1.991393	0.000235
1958	1.9472e+02	-2.0390	-26.534075	0.000760	7.600377	2.575077	0.000304
1959	1.9482e+02	-2.0005	-26.275698	0.000649	6.485655	2.197399	0.000260
1960	1.9492e+02	-1.9588	-25.997136	0.000699	6.992346	2.369071	0.000280
1961	1.9502e+02	-1.9283	-25.702425	0.000740	7.397700	2.506409	0.000296
1962	1.9512e+02	-1.8721	-25.472308	0.000578	5.776286	1.957059	0.000231
1963	1.9522e+02	-1.8385	-25.185671	0.000720	7.195023	2.437740	0.000288
1964	1.9532e+02	-1.8048	-24.903072	0.000709	7.093685	2.403405	0.000284
1965	1.9542e+02	-1.7598	-24.664881	0.000598	5.978963	2.025727	0.000239
1966	1.9552e+02	-1.7149	-24.329799	0.000841	8.411083	2.849752	0.000337
1967	1.9562e+02	-1.6764	-24.075459	0.000638	6.384316	2.163065	0.000256
1968	1.9572e+02	-1.6395	-23.809008	0.000669	6.688331	2.266068	0.000268
1969	1.9582e+02	-1.6058	-23.542557	0.000669	6.688331	2.266068	0.000268
1970	1.9592e+02	-1.5641	-23.263995	0.000699	6.992346	2.369071	0.000280
1971	1.9601e+02	-1.5128	-23.005618	0.000649	6.485655	2.197399	0.000260
1972	1.9611e+02	-1.4775	-22.654387	0.000882	8.816437	2.987090	0.000353
1973	1.9621e+02	-1.4438	-22.448493	0.000517	5.168256	1.751053	0.000207
1974	1.9631e+02	-1.4021	-22.133597	0.000790	7.904392	2.678080	0.000316
1975	1.9641e+02	-1.3684	-21.887331	0.000618	6.181640	2.094396	0.000248
1976	1.9651e+02	-1.3219	-21.608769	0.000699	6.992346	2.369071	0.000280
1977	1.9661e+02	-1.2786	-21.305984	0.000760	7.600377	2.575077	0.000304
1978	1.9671e+02	-1.2321	-21.039533	0.000669	6.688331	2.266068	0.000268
1979	1.9681e+02	-1.2032	-20.704451	0.000841	8.411083	2.849752	0.000337
1980	1.9691e+02	-1.1550	-20.474334	0.000578	5.776286	1.957059	0.000231
1981	1.9701e+02	-1.1278	-20.163474	0.000780	7.803053	2.643746	0.000312
1982	1.9711e+02	-1.0796	-19.909135	0.000638	6.384316	2.163065	0.000256
1983	1.9721e+02	-1.0411	-19.666907	0.000608	6.080301	2.060062	0.000243
1984	1.9731e+02	-0.9930	-19.364122	0.000760	7.600377	2.575077	0.000304
1985	1.9741e+02	-0.9609	-19.081522	0.000709	7.093685	2.403405	0.000284
1986	1.9751e+02	-0.9240	-18.823145	0.000649	6.485655	2.197399	0.000260
1987	1.9761e+02	-0.8807	-18.524397	0.000750	7.499038	2.540743	0.000300
1988	1.9771e+02	-0.8374	-18.221612	0.000760	7.600377	2.575077	0.000304
1989	1.9781e+02	-0.7941	-17.914790	0.000770	7.701715	2.609412	0.000308
1990	1.9791e+02	-0.7556	-17.668525	0.000618	6.181640	2.094396	0.000248
1991	1.9800e+02	-0.7299	-17.337479	0.000831	8.309745	2.815418	0.000333
1992	1.9810e+02	-0.6770	-17.091214	0.000618	6.181640	2.094396	0.000248
1993	1.9820e+02	-0.6465	-16.780355	0.000780	7.803053	2.643746	0.000312
1994	1.9830e+02	-0.6064	-16.566387	0.000537	5.370933	1.819721	0.000215
1995	1.9840e+02	-0.5551	-16.263601	0.000760	7.600377	2.575077	0.000304
1996	1.9850e+02	-0.5246	-15.944668	0.000801	8.005730	2.712415	0.000321
1997	1.9860e+02	-0.4893	-15.658031	0.000720	7.195023	2.437740	0.000288
1998	1.9870e+02	-0.4412	-15.383506	0.000689	6.891008	2.334737	0.000276
1999	1.9880e+02	-0.4043	-15.084758	0.000750	7.499038	2.540743	0.000300
2000	1.9890e+02	-0.3658	-14.806195	0.000699	6.992346	2.369071	0.000280
2001	1.9900e+02	-0.3176	-14.535707	0.000679	6.789670	2.300402	0.000272
2002	1.9910e+02	-0.2743	-14.224848	0.000780	7.803053	2.643746	0.000312
2003	1.9920e+02	-0.2406	-13.942248	0.000709	7.093685	2.403405	0.000284
2004	1.9930e+02	-0.1989	-13.643500	0.000750	7.499038	2.540743	0.000300
2005	1.9940e+02	-0.1572	-13.373012	0.000679	6.789670	2.300402	0.000272
2006	1.9950e+02	-0.1267	-13.098487	0.000689	6.891008	2.334737	0.000276
2007	1.9960e+02	-0.0834	-12.856259	0.000608	6.080301	2.060062	0.000243
2008	1.9970e+02	-0.0465	-12.601919	0.000638	6.384316	2.163065	0.000256
2009	1.9980e+02	-0.0048	-12.246651	0.000638	6.384316	2.163065	0.000357

Center data before PMax,+/-Pr and +/-Vc Calc.

PMax (uC/cm2):	1.10e+02
Pr (uC/cm2):	6.04e+00
-Pr (uC/cm2):	-1.22e+01
PLoss (uC/cm2):	-5.11e+00
Vc:	1.07e+00
-Vc:	-1.05e+00
C (Max-Eff) (nF):	5.50e-01
K (Eff):	1.86e+03
Vert. (+/-Pr) Shift (uC/cm2):	-3.10e+00
Horiz. Shift (+/-Vc):	8.01e-03
Offset (uC/cm2):	7.10e+00

A (Loop Area - uC/cm2·Volts):	8.85e-03



Hysteresis Version: 5.48.1 - Radiant Technologies, Inc., 1999 - 9/12/24

