»»»»»»»»»»»»»»»»»»»»»»»»»»»»»»»»»»»» Hysteresis ««««««««««««««««««««««««««««««««««««
»»»  Executed Version:	5.48.1
»»»  Vision Version:	5.48.4 (R)
»»»  Vision Compiled:	9/18/24
»»»  Driver Version:	5.47.0
»»»  Windows Version:	Windows 8 or 8.1
»»»  Processor Information:	x86 (AMD or Intel) - 32 Processors
»»»  Tester Name:	PMF21124-494 (100V)
»»»  Tester S/N:	PMF21124-494
»»»  Internal Amp Type:	100V RevK 270k
»»»  Internal Amp S/N:	iAB2-596/K     
»»»  Execution Count:	1
»»»»»»»»»»»»»»»»»»»»»»»»»»»»»»»»»»»»»»»»»»««««««««««««««««««««««««««««««««««««««««««

Stored:	6/4/2025 - 14:21:54
Configured:	06/04/25 01:46:06 PM
Executed:	06/04/25 02:21:21 PM

»»»»»»»»»»»»»»»»»»»»»»»»»»»»»»»»»»» Sample Info ««««««««««««««««««««««««««««««««««««
Sample Name:	
Lot Name:	
Wafer Name:	
Die Row/Column:	0/0
Capacitor Number:	0
Sample Area (cm2):	1.00e-04
Sample Thickness (microns):	3.00e-01

Amplifier:	Internal

»»»»»»»»»»»»»»»»»»»»»»»»»»»»»»»»»»» Tester Info «««««««««««««««««««««««««««««««««««
Tester Name:	PMF21124-494 (100V)
Tester Serial Number:	PMF21124-494
Return Signal Amp. Level:	0.19 [Index: 3]

»»»»»»»»»»»»»»»»»»»»»»»»»»»»»»»» Hysteresis Info ««««««««««««««««««««««««««««««««««
Task Name:	Hyst-37
Volts:	20.00
Field:	666.67 (kV/cm)
DCBias:	0.00
DCField:	0.00 (kV/cm)
Hysteresis Period (ms):	2.00e+02
Preset:	Enabled
Preset Delay (ms):	1.00e+03
Profile:	Standard Bipolar

»»»»»»»»»»»»»»»»»»»»»»»»»»»»»»»»»»»»»» Data «««««««««««««««««««««««««««««««««««««««
Points:	2009

Valid Data

Point	Time (ms)	Drive Voltage	Measured Polarization (uC/cm2)	Capacitance (uF)	Normalized Capacitance (uF/cm2)	Dielectric Constant	Instantaneous Current (mA)
   1	0.0000e+00	0.0000	-4.557926	0.000304	3.039968	1.029969	0.000122
   2	9.9500e-02	0.0289	-4.436812	0.000304	3.039968	1.029969	0.000122
   3	1.9900e-01	0.0658	-4.267252	0.000426	4.255955	1.441957	0.000170
   4	2.9850e-01	0.1091	-4.125953	0.000355	3.546629	1.201630	0.000142
   5	3.9800e-01	0.1428	-3.887762	0.000598	5.978603	2.025606	0.000239
   6	4.9750e-01	0.1845	-3.766648	0.000304	3.039968	1.029969	0.000122
   7	5.9700e-01	0.2278	-3.580939	0.000466	4.661284	1.579286	0.000187
   8	6.9650e-01	0.2711	-3.411380	0.000426	4.255955	1.441957	0.000170
   9	7.9600e-01	0.3128	-3.209523	0.000507	5.066613	1.716615	0.000203
  10	8.9550e-01	0.3417	-3.035926	0.000436	4.357287	1.476289	0.000174
  11	9.9500e-01	0.3850	-2.834069	0.000507	5.066613	1.716615	0.000203
  12	1.0945e+00	0.4299	-2.636250	0.000497	4.965281	1.682283	0.000199
  13	1.1940e+00	0.4588	-2.442467	0.000486	4.863948	1.647950	0.000195
  14	1.2935e+00	0.5021	-2.256759	0.000466	4.661284	1.579286	0.000187
  15	1.3930e+00	0.5486	-2.075088	0.000456	4.559952	1.544953	0.000183
  16	1.4925e+00	0.5888	-1.840934	0.000588	5.877271	1.991273	0.000235
  17	1.5920e+00	0.6208	-1.675411	0.000415	4.154623	1.407624	0.000166
  18	1.6915e+00	0.6722	-1.477592	0.000497	4.965281	1.682283	0.000199
  19	1.7910e+00	0.7043	-1.259586	0.000547	5.471942	1.853944	0.000219
  20	1.8905e+00	0.7492	-1.049655	0.000527	5.269277	1.785280	0.000211
  21	1.9900e+00	0.7845	-0.876058	0.000436	4.357287	1.476289	0.000174
  22	2.0895e+00	0.8246	-0.645942	0.000578	5.775939	1.956941	0.000231
  23	2.1890e+00	0.8727	-0.423899	0.000557	5.573274	1.888276	0.000223
  24	2.2885e+00	0.9064	-0.266451	0.000395	3.951958	1.338960	0.000158
  25	2.3880e+00	0.9481	-0.020186	0.000618	6.181268	2.094270	0.000248
  26	2.4875e+00	0.9770	0.157448	0.000446	4.458619	1.510621	0.000179
  27	2.5870e+00	1.0299	0.391602	0.000588	5.877271	1.991273	0.000235
  28	2.6865e+00	1.0572	0.593459	0.000507	5.066613	1.716615	0.000203
  29	2.7860e+00	1.1021	0.803390	0.000527	5.269277	1.785280	0.000211
  30	2.8855e+00	1.1454	1.005247	0.000507	5.066613	1.716615	0.000203
  31	2.9850e+00	1.1807	1.194992	0.000476	4.762616	1.613618	0.000191
  32	3.0845e+00	1.2288	1.388775	0.000486	4.863948	1.647950	0.000195
  33	3.1840e+00	1.2673	1.639077	0.000628	6.282600	2.128603	0.000252
  34	3.2835e+00	1.3091	1.840934	0.000507	5.066613	1.716615	0.000203
  35	3.3830e+00	1.3524	2.087199	0.000618	6.181268	2.094270	0.000248
  36	3.4825e+00	1.3796	2.289056	0.000507	5.066613	1.716615	0.000203
  37	3.5820e+00	1.4262	2.494950	0.000517	5.167945	1.750947	0.000207
  38	3.6815e+00	1.4582	2.684695	0.000476	4.762616	1.613618	0.000191
  39	3.7810e+00	1.4967	2.898663	0.000537	5.370610	1.819612	0.000215
  40	3.8805e+00	1.5417	3.100520	0.000507	5.066613	1.716615	0.000203
  41	3.9800e+00	1.5786	3.286228	0.000466	4.661284	1.579286	0.000187
  42	4.0795e+00	1.6106	3.524419	0.000598	5.978603	2.025606	0.000239
  43	4.1790e+00	1.6652	3.706091	0.000456	4.559952	1.544953	0.000183
  44	4.2785e+00	1.6941	3.924096	0.000547	5.471942	1.853944	0.000219
  45	4.3780e+00	1.7342	4.170361	0.000618	6.181268	2.094270	0.000248
  46	4.4775e+00	1.7839	4.331847	0.000405	4.053290	1.373292	0.000162
  47	4.5770e+00	1.8288	4.549852	0.000547	5.471942	1.853944	0.000219
  48	4.6765e+00	1.8577	4.824377	0.000689	6.890594	2.334596	0.000276
  49	4.7760e+00	1.8946	5.010085	0.000466	4.661284	1.579286	0.000187
  50	4.8755e+00	1.9363	5.203868	0.000486	4.863948	1.647950	0.000195
  51	4.9750e+00	1.9748	5.421873	0.000547	5.471942	1.853944	0.000219
  52	5.0745e+00	2.0213	5.639879	0.000547	5.471942	1.853944	0.000219
  53	5.1740e+00	2.0598	5.845773	0.000517	5.167945	1.750947	0.000207
  54	5.2735e+00	2.0999	6.059741	0.000537	5.370610	1.819612	0.000215
  55	5.3730e+00	2.1465	6.257560	0.000497	4.965281	1.682283	0.000199
  56	5.4725e+00	2.1834	6.499789	0.000608	6.079935	2.059938	0.000243
  57	5.5720e+00	2.2235	6.713757	0.000537	5.370610	1.819612	0.000215
  58	5.6715e+00	2.2539	6.915614	0.000507	5.066613	1.716615	0.000203
  59	5.7710e+00	2.2989	7.137656	0.000557	5.573274	1.888276	0.000223
  60	5.8705e+00	2.3422	7.315290	0.000446	4.458619	1.510621	0.000179
  61	5.9700e+00	2.3839	7.593852	0.000699	6.991926	2.368929	0.000280
  62	6.0695e+00	2.4224	7.807821	0.000537	5.370610	1.819612	0.000215
  63	6.1690e+00	2.4593	7.997566	0.000476	4.762616	1.613618	0.000191
  64	6.2685e+00	2.5090	8.203460	0.000517	5.167945	1.750947	0.000207
  65	6.3680e+00	2.5315	8.425502	0.000557	5.573274	1.888276	0.000223
  66	6.4675e+00	2.5700	8.687916	0.000659	6.586597	2.231599	0.000264
  67	6.5670e+00	2.6181	8.869587	0.000456	4.559952	1.544953	0.000183
  68	6.6665e+00	2.6598	9.107778	0.000598	5.978603	2.025606	0.000239
  69	6.7660e+00	2.6983	9.321746	0.000537	5.370610	1.819612	0.000215
  70	6.8655e+00	2.7400	9.539752	0.000547	5.471942	1.853944	0.000219
  71	6.9650e+00	2.7817	9.733534	0.000486	4.863948	1.647950	0.000195
  72	7.0645e+00	2.8218	9.967688	0.000588	5.877271	1.991273	0.000235
  73	7.1640e+00	2.8523	10.193768	0.000567	5.674606	1.922609	0.000227
  74	7.2635e+00	2.9053	10.423884	0.000578	5.775939	1.956941	0.000231
  75	7.3630e+00	2.9502	10.597481	0.000436	4.357287	1.476289	0.000174
  76	7.4625e+00	2.9791	10.843747	0.000618	6.181268	2.094270	0.000248
  77	7.5620e+00	3.0256	11.073863	0.000578	5.775939	1.956941	0.000231
  78	7.6615e+00	3.0480	11.279757	0.000517	5.167945	1.750947	0.000207
  79	7.7610e+00	3.1042	11.465465	0.000466	4.661284	1.579286	0.000187
  80	7.8605e+00	3.1347	11.711731	0.000618	6.181268	2.094270	0.000248
  81	7.9600e+00	3.1796	11.913588	0.000507	5.066613	1.716615	0.000203
  82	8.0595e+00	3.2261	12.139667	0.000567	5.674606	1.922609	0.000227
  83	8.1590e+00	3.2518	12.369784	0.000578	5.775939	1.956941	0.000231
  84	8.2585e+00	3.2999	12.620086	0.000628	6.282600	2.128603	0.000252
  85	8.3580e+00	3.3336	12.825980	0.000517	5.167945	1.750947	0.000207
  86	8.4575e+00	3.3785	13.011688	0.000466	4.661284	1.579286	0.000187
  87	8.5570e+00	3.4154	13.233731	0.000557	5.573274	1.888276	0.000223
  88	8.6565e+00	3.4587	13.475959	0.000608	6.079935	2.059938	0.000243
  89	8.7560e+00	3.4972	13.722224	0.000618	6.181268	2.094270	0.000248
  90	8.8555e+00	3.5389	13.903895	0.000456	4.559952	1.544953	0.000183
  91	8.9550e+00	3.5694	14.101715	0.000497	4.965281	1.682283	0.000199
  92	9.0545e+00	3.6143	14.384315	0.000709	7.093258	2.403261	0.000284
  93	9.1540e+00	3.6689	14.598283	0.000537	5.370610	1.819612	0.000215
  94	9.2535e+00	3.6962	14.808214	0.000527	5.269277	1.785280	0.000211
  95	9.3530e+00	3.7314	15.046405	0.000598	5.978603	2.025606	0.000239
  96	9.4525e+00	3.7716	15.252299	0.000517	5.167945	1.750947	0.000207
  97	9.5520e+00	3.8197	15.446081	0.000486	4.863948	1.647950	0.000195
  98	9.6515e+00	3.8598	15.668124	0.000557	5.573274	1.888276	0.000223
  99	9.7510e+00	3.8983	15.886129	0.000547	5.471942	1.853944	0.000219
 100	9.8505e+00	3.9384	16.116246	0.000578	5.775939	1.956941	0.000231
 101	9.9500e+00	3.9737	16.289843	0.000436	4.357287	1.476289	0.000174
 102	1.0050e+01	4.0138	16.495737	0.000517	5.167945	1.750947	0.000207
 103	1.0149e+01	4.0555	16.737965	0.000608	6.079935	2.059938	0.000243
 104	1.0248e+01	4.1004	16.984230	0.000618	6.181268	2.094270	0.000248
 105	1.0348e+01	4.1325	17.194161	0.000527	5.269277	1.785280	0.000211
 106	1.0447e+01	4.1774	17.400055	0.000517	5.167945	1.750947	0.000207
 107	1.0547e+01	4.2095	17.646320	0.000618	6.181268	2.094270	0.000248
 108	1.0646e+01	4.2512	17.823954	0.000446	4.458619	1.510621	0.000179
 109	1.0746e+01	4.2913	18.021774	0.000497	4.965281	1.682283	0.000199
 110	1.0845e+01	4.3394	18.272076	0.000628	6.282600	2.128603	0.000252
 111	1.0945e+01	4.3715	18.498156	0.000567	5.674606	1.922609	0.000227
 112	1.1044e+01	4.4116	18.732310	0.000588	5.877271	1.991273	0.000235
 113	1.1144e+01	4.4453	18.909944	0.000446	4.458619	1.510621	0.000179
 114	1.1243e+01	4.4919	19.119875	0.000527	5.269277	1.785280	0.000211
 115	1.1343e+01	4.5320	19.354029	0.000588	5.877271	1.991273	0.000235
 116	1.1443e+01	4.5721	19.567997	0.000537	5.370610	1.819612	0.000215
 117	1.1542e+01	4.6090	19.794077	0.000567	5.674606	1.922609	0.000227
 118	1.1642e+01	4.6443	19.955562	0.000405	4.053290	1.373292	0.000162
 119	1.1741e+01	4.6940	20.197790	0.000608	6.079935	2.059938	0.000243
 120	1.1841e+01	4.7309	20.435981	0.000598	5.978603	2.025606	0.000239
 121	1.1940e+01	4.7646	20.674172	0.000598	5.978603	2.025606	0.000239
 122	1.2040e+01	4.8111	20.859880	0.000466	4.661284	1.579286	0.000187
 123	1.2139e+01	4.8640	21.069811	0.000527	5.269277	1.785280	0.000211
 124	1.2239e+01	4.8961	21.275705	0.000517	5.167945	1.750947	0.000207
 125	1.2338e+01	4.9314	21.517933	0.000608	6.079935	2.059938	0.000243
 126	1.2438e+01	4.9731	21.735939	0.000547	5.471942	1.853944	0.000219
 127	1.2537e+01	5.0068	21.974130	0.000598	5.978603	2.025606	0.000239
 128	1.2636e+01	5.0533	22.167912	0.000486	4.863948	1.647950	0.000195
 129	1.2736e+01	5.0838	22.385918	0.000547	5.471942	1.853944	0.000219
 130	1.2835e+01	5.1319	22.607960	0.000557	5.573274	1.888276	0.000223
 131	1.2935e+01	5.1688	22.866337	0.000649	6.485265	2.197267	0.000260
 132	1.3034e+01	5.2105	23.043971	0.000446	4.458619	1.510621	0.000179
 133	1.3134e+01	5.2378	23.298310	0.000638	6.383932	2.162935	0.000256
 134	1.3233e+01	5.2892	23.459796	0.000405	4.053290	1.373292	0.000162
 135	1.3333e+01	5.3325	23.689913	0.000578	5.775939	1.956941	0.000231
 136	1.3432e+01	5.3742	23.883695	0.000486	4.863948	1.647950	0.000195
 137	1.3532e+01	5.4143	24.138035	0.000638	6.383932	2.162935	0.000256
 138	1.3632e+01	5.4560	24.347966	0.000527	5.269277	1.785280	0.000211
 139	1.3731e+01	5.4897	24.565971	0.000547	5.471942	1.853944	0.000219
 140	1.3831e+01	5.5346	24.759753	0.000486	4.863948	1.647950	0.000195
 141	1.3930e+01	5.5667	25.054464	0.000740	7.397255	2.506258	0.000296
 142	1.4030e+01	5.6100	25.195764	0.000355	3.546629	1.201630	0.000142
 143	1.4129e+01	5.6501	25.442029	0.000618	6.181268	2.094270	0.000248
 144	1.4229e+01	5.6870	25.651960	0.000527	5.269277	1.785280	0.000211
 145	1.4328e+01	5.7271	25.853817	0.000507	5.066613	1.716615	0.000203
 146	1.4428e+01	5.7624	26.071823	0.000547	5.471942	1.853944	0.000219
 147	1.4527e+01	5.8041	26.305976	0.000588	5.877271	1.991273	0.000235
 148	1.4627e+01	5.8458	26.499759	0.000486	4.863948	1.647950	0.000195
 149	1.4726e+01	5.8907	26.677393	0.000446	4.458619	1.510621	0.000179
 150	1.4825e+01	5.9276	26.947881	0.000679	6.789261	2.300264	0.000272
 151	1.4925e+01	5.9661	27.177998	0.000578	5.775939	1.956941	0.000231
 152	1.5024e+01	6.0062	27.339483	0.000405	4.053290	1.373292	0.000162
 153	1.5124e+01	6.0399	27.577674	0.000598	5.978603	2.025606	0.000239
 154	1.5223e+01	6.0913	27.795680	0.000547	5.471942	1.853944	0.000219
 155	1.5323e+01	6.1314	28.005611	0.000527	5.269277	1.785280	0.000211
 156	1.5422e+01	6.1651	28.211505	0.000517	5.167945	1.750947	0.000207
 157	1.5522e+01	6.2052	28.441621	0.000578	5.775939	1.956941	0.000231
 158	1.5621e+01	6.2517	28.623292	0.000456	4.559952	1.544953	0.000183
 159	1.5721e+01	6.2950	28.857446	0.000588	5.877271	1.991273	0.000235
 160	1.5820e+01	6.3191	29.067377	0.000527	5.269277	1.785280	0.000211
 161	1.5920e+01	6.3784	29.257123	0.000476	4.762616	1.613618	0.000191
 162	1.6020e+01	6.3993	29.491277	0.000588	5.877271	1.991273	0.000235
 163	1.6119e+01	6.4458	29.709282	0.000547	5.471942	1.853944	0.000219
 164	1.6218e+01	6.4795	29.915176	0.000517	5.167945	1.750947	0.000207
 165	1.6318e+01	6.5228	30.092810	0.000446	4.458619	1.510621	0.000179
 166	1.6418e+01	6.5693	30.331001	0.000598	5.978603	2.025606	0.000239
 167	1.6517e+01	6.5982	30.532858	0.000507	5.066613	1.716615	0.000203
 168	1.6616e+01	6.6479	30.722603	0.000476	4.762616	1.613618	0.000191
 169	1.6716e+01	6.6720	30.916385	0.000486	4.863948	1.647950	0.000195
 170	1.6816e+01	6.7121	31.186874	0.000679	6.789261	2.300264	0.000272
 171	1.6915e+01	6.7538	31.368545	0.000456	4.559952	1.544953	0.000183
 172	1.7015e+01	6.8003	31.574439	0.000517	5.167945	1.750947	0.000207
 173	1.7114e+01	6.8437	31.812630	0.000598	5.978603	2.025606	0.000239
 174	1.7213e+01	6.8806	31.994301	0.000456	4.559952	1.544953	0.000183
 175	1.7313e+01	6.9223	32.200195	0.000517	5.167945	1.750947	0.000207
 176	1.7413e+01	6.9704	32.398014	0.000497	4.965281	1.682283	0.000199
 177	1.7512e+01	6.9929	32.640242	0.000608	6.079935	2.059938	0.000243
 178	1.7611e+01	7.0394	32.813839	0.000436	4.357287	1.476289	0.000174
 179	1.7711e+01	7.0875	33.019733	0.000517	5.167945	1.750947	0.000207
 180	1.7811e+01	7.1292	33.245813	0.000567	5.674606	1.922609	0.000227
 181	1.7910e+01	7.1533	33.435558	0.000476	4.762616	1.613618	0.000191
 182	1.8009e+01	7.2062	33.677786	0.000608	6.079935	2.059938	0.000243
 183	1.8109e+01	7.2367	33.863495	0.000466	4.661284	1.579286	0.000187
 184	1.8209e+01	7.2768	34.093611	0.000578	5.775939	1.956941	0.000231
 185	1.8308e+01	7.3169	34.299505	0.000517	5.167945	1.750947	0.000207
 186	1.8407e+01	7.3554	34.469065	0.000426	4.255955	1.441957	0.000170
 187	1.8507e+01	7.3939	34.691107	0.000557	5.573274	1.888276	0.000223
 188	1.8607e+01	7.4356	34.880853	0.000476	4.762616	1.613618	0.000191
 189	1.8706e+01	7.4757	35.078672	0.000497	4.965281	1.682283	0.000199
 190	1.8805e+01	7.5190	35.308789	0.000578	5.775939	1.956941	0.000231
 191	1.8905e+01	7.5575	35.526794	0.000547	5.471942	1.853944	0.000219
 192	1.9005e+01	7.5976	35.732688	0.000517	5.167945	1.750947	0.000207
 193	1.9104e+01	7.6410	35.974917	0.000608	6.079935	2.059938	0.000243
 194	1.9203e+01	7.6843	36.152551	0.000446	4.458619	1.510621	0.000179
 195	1.9303e+01	7.7244	36.374593	0.000557	5.573274	1.888276	0.000223
 196	1.9402e+01	7.7613	36.580487	0.000517	5.167945	1.750947	0.000207
 197	1.9502e+01	7.7998	36.778307	0.000497	4.965281	1.682283	0.000199
 198	1.9602e+01	7.8367	36.968052	0.000476	4.762616	1.613618	0.000191
 199	1.9701e+01	7.8800	37.177983	0.000527	5.269277	1.785280	0.000211
 200	1.9800e+01	7.9265	37.375803	0.000497	4.965281	1.682283	0.000199
 201	1.9900e+01	7.9650	37.593808	0.000547	5.471942	1.853944	0.000219
 202	2.0000e+01	8.0003	37.811813	0.000547	5.471942	1.853944	0.000219
 203	2.0099e+01	8.0356	38.033856	0.000557	5.573274	1.888276	0.000223
 204	2.0198e+01	8.0677	38.227638	0.000486	4.863948	1.647950	0.000195
 205	2.0298e+01	8.1126	38.449681	0.000557	5.573274	1.888276	0.000223
 206	2.0398e+01	8.1575	38.599055	0.000375	3.749294	1.270295	0.000150
 207	2.0497e+01	8.2008	38.833209	0.000588	5.877271	1.991273	0.000235
 208	2.0596e+01	8.2393	39.035065	0.000507	5.066613	1.716615	0.000203
 209	2.0696e+01	8.2810	39.244997	0.000527	5.269277	1.785280	0.000211
 210	2.0796e+01	8.3196	39.426668	0.000456	4.559952	1.544953	0.000183
 211	2.0895e+01	8.3548	39.636599	0.000527	5.269277	1.785280	0.000211
 212	2.0994e+01	8.3950	39.822307	0.000466	4.661284	1.579286	0.000187
 213	2.1094e+01	8.4415	40.008015	0.000466	4.661284	1.579286	0.000187
 214	2.1194e+01	8.4768	40.213909	0.000517	5.167945	1.750947	0.000207
 215	2.1293e+01	8.5153	40.423840	0.000527	5.269277	1.785280	0.000211
 216	2.1392e+01	8.5618	40.617623	0.000486	4.863948	1.647950	0.000195
 217	2.1492e+01	8.5923	40.811405	0.000486	4.863948	1.647950	0.000195
 218	2.1591e+01	8.6388	41.057670	0.000618	6.181268	2.094270	0.000248
 219	2.1691e+01	8.6837	41.231267	0.000436	4.357287	1.476289	0.000174
 220	2.1791e+01	8.7142	41.441198	0.000527	5.269277	1.785280	0.000211
 221	2.1890e+01	8.7479	41.626907	0.000466	4.661284	1.579286	0.000187
 222	2.1989e+01	8.7880	41.816652	0.000476	4.762616	1.613618	0.000191
 223	2.2089e+01	8.8217	42.034657	0.000547	5.471942	1.853944	0.000219
 224	2.2189e+01	8.8666	42.212291	0.000446	4.458619	1.510621	0.000179
 225	2.2288e+01	8.9179	42.438371	0.000567	5.674606	1.922609	0.000227
 226	2.2387e+01	8.9612	42.616005	0.000446	4.458619	1.510621	0.000179
 227	2.2487e+01	8.9949	42.809787	0.000486	4.863948	1.647950	0.000195
 228	2.2587e+01	9.0399	42.991458	0.000456	4.559952	1.544953	0.000183
 229	2.2686e+01	9.0671	43.197352	0.000517	5.167945	1.750947	0.000207
 230	2.2785e+01	9.1088	43.419395	0.000557	5.573274	1.888276	0.000223
 231	2.2885e+01	9.1554	43.597029	0.000446	4.458619	1.510621	0.000179
 232	2.2985e+01	9.1939	43.819071	0.000557	5.573274	1.888276	0.000223
 233	2.3084e+01	9.2324	44.004780	0.000466	4.661284	1.579286	0.000187
 234	2.3183e+01	9.2709	44.210673	0.000517	5.167945	1.750947	0.000207
 235	2.3283e+01	9.3142	44.416567	0.000517	5.167945	1.750947	0.000207
 236	2.3383e+01	9.3559	44.622461	0.000517	5.167945	1.750947	0.000207
 237	2.3482e+01	9.3960	44.787984	0.000415	4.154623	1.407624	0.000166
 238	2.3581e+01	9.4393	45.010026	0.000557	5.573274	1.888276	0.000223
 239	2.3681e+01	9.4746	45.191697	0.000456	4.559952	1.544953	0.000183
 240	2.3780e+01	9.5179	45.373369	0.000456	4.559952	1.544953	0.000183
 241	2.3880e+01	9.5548	45.635782	0.000659	6.586597	2.231599	0.000264
 242	2.3980e+01	9.5965	45.773045	0.000345	3.445297	1.167298	0.000138
 243	2.4079e+01	9.6382	45.995087	0.000557	5.573274	1.888276	0.000223
 244	2.4178e+01	9.6687	46.192907	0.000497	4.965281	1.682283	0.000199
 245	2.4278e+01	9.7136	46.362467	0.000426	4.255955	1.441957	0.000170
 246	2.4378e+01	9.7585	46.556249	0.000486	4.863948	1.647950	0.000195
 247	2.4477e+01	9.7890	46.778292	0.000557	5.573274	1.888276	0.000223
 248	2.4576e+01	9.8211	46.976111	0.000497	4.965281	1.682283	0.000199
 249	2.4676e+01	9.8708	47.153745	0.000446	4.458619	1.510621	0.000179
 250	2.4776e+01	9.9093	47.351565	0.000497	4.965281	1.682283	0.000199
 251	2.4875e+01	9.9430	47.549385	0.000497	4.965281	1.682283	0.000199
 252	2.4974e+01	9.9880	47.759316	0.000527	5.269277	1.785280	0.000211
 253	2.5074e+01	10.0313	47.961173	0.000507	5.066613	1.716615	0.000203
 254	2.5174e+01	10.0714	48.138807	0.000446	4.458619	1.510621	0.000179
 255	2.5273e+01	10.1035	48.328552	0.000476	4.762616	1.613618	0.000191
 256	2.5372e+01	10.1468	48.530409	0.000507	5.066613	1.716615	0.000203
 257	2.5472e+01	10.1949	48.720154	0.000476	4.762616	1.613618	0.000191
 258	2.5572e+01	10.2318	48.901825	0.000456	4.559952	1.544953	0.000183
 259	2.5671e+01	10.2639	49.087533	0.000466	4.661284	1.579286	0.000187
 260	2.5770e+01	10.3184	49.329762	0.000608	6.079935	2.059938	0.000243
 261	2.5870e+01	10.3393	49.495284	0.000415	4.154623	1.407624	0.000166
 262	2.5970e+01	10.3874	49.701178	0.000517	5.167945	1.750947	0.000207
 263	2.6069e+01	10.4179	49.882849	0.000456	4.559952	1.544953	0.000183
 264	2.6169e+01	10.4740	50.072595	0.000476	4.762616	1.613618	0.000191
 265	2.6268e+01	10.5093	50.298674	0.000567	5.674606	1.922609	0.000227
 266	2.6367e+01	10.5446	50.472271	0.000436	4.357287	1.476289	0.000174
 267	2.6467e+01	10.5815	50.657979	0.000466	4.661284	1.579286	0.000187
 268	2.6567e+01	10.6264	50.855799	0.000497	4.965281	1.682283	0.000199
 269	2.6666e+01	10.6649	51.041507	0.000466	4.661284	1.579286	0.000187
 270	2.6765e+01	10.7147	51.251438	0.000527	5.269277	1.785280	0.000211
 271	2.6865e+01	10.7500	51.445221	0.000486	4.863948	1.647950	0.000195
 272	2.6965e+01	10.7869	51.590558	0.000365	3.647961	1.235963	0.000146
 273	2.7064e+01	10.8286	51.820674	0.000578	5.775939	1.956941	0.000231
 274	2.7163e+01	10.8751	52.002345	0.000456	4.559952	1.544953	0.000183
 275	2.7263e+01	10.9040	52.192091	0.000476	4.762616	1.613618	0.000191
 276	2.7363e+01	10.9457	52.389910	0.000497	4.965281	1.682283	0.000199
 277	2.7462e+01	10.9890	52.583693	0.000486	4.863948	1.647950	0.000195
 278	2.7561e+01	11.0243	52.793624	0.000527	5.269277	1.785280	0.000211
 279	2.7661e+01	11.0692	52.971258	0.000446	4.458619	1.510621	0.000179
 280	2.7761e+01	11.1157	53.148892	0.000446	4.458619	1.510621	0.000179
 281	2.7860e+01	11.1430	53.330563	0.000456	4.559952	1.544953	0.000183
 282	2.7959e+01	11.1767	53.528383	0.000497	4.965281	1.682283	0.000199
 283	2.8059e+01	11.2184	53.714091	0.000466	4.661284	1.579286	0.000187
 284	2.8159e+01	11.2649	53.883651	0.000426	4.255955	1.441957	0.000170
 285	2.8258e+01	11.3050	54.125879	0.000608	6.079935	2.059938	0.000243
 286	2.8358e+01	11.3516	54.255067	0.000324	3.242632	1.098634	0.000130
 287	2.8457e+01	11.3852	54.489221	0.000588	5.877271	1.991273	0.000235
 288	2.8556e+01	11.4189	54.666855	0.000446	4.458619	1.510621	0.000179
 289	2.8656e+01	11.4671	54.868712	0.000507	5.066613	1.716615	0.000203
 290	2.8756e+01	11.5088	55.086717	0.000547	5.471942	1.853944	0.000219
 291	2.8855e+01	11.5473	55.256277	0.000426	4.255955	1.441957	0.000170
 292	2.8954e+01	11.5777	55.437948	0.000456	4.559952	1.544953	0.000183
 293	2.9054e+01	11.6291	55.631730	0.000486	4.863948	1.647950	0.000195
 294	2.9154e+01	11.6676	55.821476	0.000476	4.762616	1.613618	0.000191
 295	2.9253e+01	11.7029	55.999110	0.000446	4.458619	1.510621	0.000179
 296	2.9352e+01	11.7510	56.176744	0.000446	4.458619	1.510621	0.000179
 297	2.9452e+01	11.7815	56.382638	0.000517	5.167945	1.750947	0.000207
 298	2.9552e+01	11.8264	56.580457	0.000497	4.965281	1.682283	0.000199
 299	2.9651e+01	11.8601	56.750017	0.000426	4.255955	1.441957	0.000170
 300	2.9750e+01	11.9066	56.980134	0.000578	5.775939	1.956941	0.000231
 301	2.9850e+01	11.9371	57.157768	0.000446	4.458619	1.510621	0.000179
 302	2.9950e+01	11.9772	57.379810	0.000557	5.573274	1.888276	0.000223
 303	3.0049e+01	12.0253	57.513036	0.000334	3.343965	1.132966	0.000134
 304	3.0148e+01	12.0622	57.722967	0.000527	5.269277	1.785280	0.000211
 305	3.0248e+01	12.1087	57.932898	0.000527	5.269277	1.785280	0.000211
 306	3.0348e+01	12.1392	58.142829	0.000527	5.269277	1.785280	0.000211
 307	3.0447e+01	12.1825	58.320463	0.000446	4.458619	1.510621	0.000179
 308	3.0547e+01	12.2291	58.490023	0.000426	4.255955	1.441957	0.000170
 309	3.0646e+01	12.2692	58.679768	0.000476	4.762616	1.613618	0.000191
 310	3.0745e+01	12.2964	58.861439	0.000456	4.559952	1.544953	0.000183
 311	3.0845e+01	12.3398	59.075407	0.000537	5.370610	1.819612	0.000215
 312	3.0945e+01	12.3863	59.269190	0.000486	4.863948	1.647950	0.000195
 313	3.1044e+01	12.4248	59.450861	0.000456	4.559952	1.544953	0.000183
 314	3.1143e+01	12.4633	59.644643	0.000486	4.863948	1.647950	0.000195
 315	3.1243e+01	12.5066	59.810166	0.000415	4.154623	1.407624	0.000166
 316	3.1343e+01	12.5387	60.012023	0.000507	5.066613	1.716615	0.000203
 317	3.1442e+01	12.5900	60.189657	0.000446	4.458619	1.510621	0.000179
 318	3.1541e+01	12.6253	60.367291	0.000446	4.458619	1.510621	0.000179
 319	3.1641e+01	12.6558	60.557036	0.000476	4.762616	1.613618	0.000191
 320	3.1741e+01	12.7055	60.762930	0.000517	5.167945	1.750947	0.000207
 321	3.1840e+01	12.7472	60.936527	0.000436	4.357287	1.476289	0.000174
 322	3.1939e+01	12.7825	61.130309	0.000486	4.863948	1.647950	0.000195
 323	3.2039e+01	12.8178	61.324092	0.000486	4.863948	1.647950	0.000195
 324	3.2139e+01	12.8611	61.521912	0.000497	4.965281	1.682283	0.000199
 325	3.2238e+01	12.8996	61.659174	0.000345	3.445297	1.167298	0.000138
 326	3.2337e+01	12.9397	61.905439	0.000618	6.181268	2.094270	0.000248
 327	3.2437e+01	12.9750	62.010405	0.000263	2.634639	0.892640	0.000105
 328	3.2536e+01	13.0135	62.248596	0.000598	5.978603	2.025606	0.000239
 329	3.2636e+01	13.0440	62.414119	0.000415	4.154623	1.407624	0.000166
 330	3.2736e+01	13.0986	62.579641	0.000415	4.154623	1.407624	0.000166
 331	3.2835e+01	13.1419	62.785535	0.000517	5.167945	1.750947	0.000207
 332	3.2934e+01	13.1756	62.967206	0.000456	4.559952	1.544953	0.000183
 333	3.3034e+01	13.2076	63.209434	0.000608	6.079935	2.059938	0.000243
 334	3.3133e+01	13.2542	63.330548	0.000304	3.039968	1.029969	0.000122
 335	3.3233e+01	13.2895	63.532405	0.000507	5.066613	1.716615	0.000203
 336	3.3333e+01	13.3360	63.697928	0.000415	4.154623	1.407624	0.000166
 337	3.3432e+01	13.3777	63.895747	0.000497	4.965281	1.682283	0.000199
 338	3.3532e+01	13.4210	64.065307	0.000426	4.255955	1.441957	0.000170
 339	3.3631e+01	13.4579	64.271201	0.000517	5.167945	1.750947	0.000207
 340	3.3730e+01	13.4996	64.440761	0.000426	4.255955	1.441957	0.000170
 341	3.3830e+01	13.5317	64.614357	0.000436	4.357287	1.476289	0.000174
 342	3.3929e+01	13.5734	64.808140	0.000486	4.863948	1.647950	0.000195
 343	3.4029e+01	13.6247	64.997885	0.000476	4.762616	1.613618	0.000191
 344	3.4129e+01	13.6552	65.175519	0.000446	4.458619	1.510621	0.000179
 345	3.4228e+01	13.6937	65.353153	0.000446	4.458619	1.510621	0.000179
 346	3.4328e+01	13.7338	65.546936	0.000486	4.863948	1.647950	0.000195
 347	3.4427e+01	13.7691	65.724570	0.000446	4.458619	1.510621	0.000179
 348	3.4526e+01	13.8173	65.910278	0.000466	4.661284	1.579286	0.000187
 349	3.4626e+01	13.8542	66.083875	0.000436	4.357287	1.476289	0.000174
 350	3.4725e+01	13.8943	66.289769	0.000517	5.167945	1.750947	0.000207
 351	3.4825e+01	13.9263	66.471440	0.000456	4.559952	1.544953	0.000183
 352	3.4925e+01	13.9729	66.620814	0.000375	3.749294	1.270295	0.000150
 353	3.5024e+01	14.0226	66.838819	0.000547	5.471942	1.853944	0.000219
 354	3.5123e+01	14.0483	67.008379	0.000426	4.255955	1.441957	0.000170
 355	3.5223e+01	14.0868	67.190050	0.000456	4.559952	1.544953	0.000183
 356	3.5322e+01	14.1317	67.367684	0.000446	4.458619	1.510621	0.000179
 357	3.5422e+01	14.1862	67.557429	0.000476	4.762616	1.613618	0.000191
 358	3.5522e+01	14.1991	67.759286	0.000507	5.066613	1.716615	0.000203
 359	3.5621e+01	14.2408	67.936920	0.000446	4.458619	1.510621	0.000179
 360	3.5721e+01	14.2969	68.082257	0.000365	3.647961	1.235963	0.000146
 361	3.5820e+01	14.3418	68.312374	0.000578	5.775939	1.956941	0.000231
 362	3.5919e+01	14.3723	68.445599	0.000334	3.343965	1.132966	0.000134
 363	3.6019e+01	14.4156	68.655530	0.000527	5.269277	1.785280	0.000211
 364	3.6118e+01	14.4573	68.841239	0.000466	4.661284	1.579286	0.000187
 365	3.6218e+01	14.4846	69.026947	0.000466	4.661284	1.579286	0.000187
 366	3.6318e+01	14.5231	69.176321	0.000375	3.749294	1.270295	0.000150
 367	3.6417e+01	14.5648	69.390289	0.000537	5.370610	1.819612	0.000215
 368	3.6517e+01	14.6065	69.519477	0.000324	3.242632	1.098634	0.000130
 369	3.6616e+01	14.6499	69.737483	0.000547	5.471942	1.853944	0.000219
 370	3.6715e+01	14.6916	69.915117	0.000446	4.458619	1.510621	0.000179
 371	3.6815e+01	14.7365	70.104862	0.000476	4.762616	1.613618	0.000191
 372	3.6914e+01	14.7589	70.286533	0.000456	4.559952	1.544953	0.000183
 373	3.7014e+01	14.8151	70.464167	0.000446	4.458619	1.510621	0.000179
 374	3.7114e+01	14.8456	70.666024	0.000507	5.066613	1.716615	0.000203
 375	3.7213e+01	14.8969	70.839621	0.000436	4.357287	1.476289	0.000174
 376	3.7313e+01	14.9322	70.968809	0.000324	3.242632	1.098634	0.000130
 377	3.7412e+01	14.9723	71.166629	0.000497	4.965281	1.682283	0.000199
 378	3.7511e+01	15.0076	71.344263	0.000446	4.458619	1.510621	0.000179
 379	3.7611e+01	15.0541	71.529971	0.000466	4.661284	1.579286	0.000187
 380	3.7711e+01	15.0958	71.691456	0.000405	4.053290	1.373292	0.000162
 381	3.7810e+01	15.1199	71.865053	0.000436	4.357287	1.476289	0.000174
 382	3.7910e+01	15.1680	72.022502	0.000395	3.951958	1.338960	0.000158
 383	3.8009e+01	15.2129	72.220321	0.000497	4.965281	1.682283	0.000199
 384	3.8108e+01	15.2563	72.406029	0.000466	4.661284	1.579286	0.000187
 385	3.8208e+01	15.2899	72.567515	0.000405	4.053290	1.373292	0.000162
 386	3.8307e+01	15.3284	72.745149	0.000446	4.458619	1.510621	0.000179
 387	3.8407e+01	15.3669	72.914709	0.000426	4.255955	1.441957	0.000170
 388	3.8507e+01	15.4119	73.039860	0.000314	3.141300	1.064301	0.000126
 389	3.8606e+01	15.4375	73.282088	0.000608	6.079935	2.059938	0.000243
 390	3.8706e+01	15.4921	73.455685	0.000436	4.357287	1.476289	0.000174
 391	3.8805e+01	15.5322	73.592947	0.000345	3.445297	1.167298	0.000138
 392	3.8904e+01	15.5675	73.823064	0.000578	5.775939	1.956941	0.000231
 393	3.9004e+01	15.6092	73.952252	0.000324	3.242632	1.098634	0.000130
 394	3.9103e+01	15.6541	74.133924	0.000456	4.559952	1.544953	0.000183
 395	3.9203e+01	15.6910	74.335780	0.000507	5.066613	1.716615	0.000203
 396	3.9303e+01	15.7199	74.485154	0.000375	3.749294	1.270295	0.000150
 397	3.9402e+01	15.7648	74.674900	0.000476	4.762616	1.613618	0.000191
 398	3.9502e+01	15.8017	74.844459	0.000426	4.255955	1.441957	0.000170
 399	3.9601e+01	15.8402	74.993833	0.000375	3.749294	1.270295	0.000150
 400	3.9700e+01	15.8851	75.195690	0.000507	5.066613	1.716615	0.000203
 401	3.9800e+01	15.9204	75.361213	0.000415	4.154623	1.407624	0.000166
 402	3.9900e+01	15.9653	75.546921	0.000466	4.661284	1.579286	0.000187
 403	3.9999e+01	15.9990	75.708406	0.000405	4.053290	1.373292	0.000162
 404	4.0099e+01	16.0471	75.869892	0.000405	4.053290	1.373292	0.000162
 405	4.0198e+01	16.0937	76.083860	0.000537	5.370610	1.819612	0.000215
 406	4.0297e+01	16.1193	76.204974	0.000304	3.039968	1.029969	0.000122
 407	4.0397e+01	16.1626	76.362422	0.000395	3.951958	1.338960	0.000158
 408	4.0496e+01	16.1979	76.584465	0.000557	5.573274	1.888276	0.000223
 409	4.0596e+01	16.2461	76.717690	0.000334	3.343965	1.132966	0.000134
 410	4.0696e+01	16.2942	76.879176	0.000405	4.053290	1.373292	0.000162
 411	4.0795e+01	16.3183	77.072958	0.000486	4.863948	1.647950	0.000195
 412	4.0895e+01	16.3792	77.270778	0.000497	4.965281	1.682283	0.000199
 413	4.0994e+01	16.4033	77.432263	0.000405	4.053290	1.373292	0.000162
 414	4.1093e+01	16.4466	77.589712	0.000395	3.951958	1.338960	0.000158
 415	4.1193e+01	16.4883	77.775420	0.000466	4.661284	1.579286	0.000187
 416	4.1292e+01	16.5204	77.940943	0.000415	4.154623	1.407624	0.000166
 417	4.1392e+01	16.5653	78.142799	0.000507	5.066613	1.716615	0.000203
 418	4.1492e+01	16.6054	78.308322	0.000415	4.154623	1.407624	0.000166
 419	4.1591e+01	16.6407	78.449622	0.000355	3.546629	1.201630	0.000142
 420	4.1691e+01	16.6792	78.647441	0.000497	4.965281	1.682283	0.000199
 421	4.1790e+01	16.7209	78.780667	0.000334	3.343965	1.132966	0.000134
 422	4.1889e+01	16.7578	78.966375	0.000466	4.661284	1.579286	0.000187
 423	4.1989e+01	16.7947	79.172269	0.000517	5.167945	1.750947	0.000207
 424	4.2089e+01	16.8444	79.337792	0.000415	4.154623	1.407624	0.000166
 425	4.2188e+01	16.8878	79.475054	0.000345	3.445297	1.167298	0.000138
 426	4.2288e+01	16.9198	79.660762	0.000466	4.661284	1.579286	0.000187
 427	4.2387e+01	16.9664	79.814174	0.000385	3.850626	1.304627	0.000154
 428	4.2486e+01	16.9985	79.987770	0.000436	4.357287	1.476289	0.000174
 429	4.2586e+01	17.0418	80.149256	0.000405	4.053290	1.373292	0.000162
 430	4.2685e+01	17.0835	80.330927	0.000456	4.559952	1.544953	0.000183
 431	4.2785e+01	17.1220	80.504524	0.000436	4.357287	1.476289	0.000174
 432	4.2885e+01	17.1573	80.666009	0.000405	4.053290	1.373292	0.000162
 433	4.2984e+01	17.1990	80.847680	0.000456	4.559952	1.544953	0.000183
 434	4.3084e+01	17.2423	81.045500	0.000497	4.965281	1.682283	0.000199
 435	4.3183e+01	17.2808	81.186800	0.000355	3.546629	1.201630	0.000142
 436	4.3282e+01	17.3241	81.368471	0.000456	4.559952	1.544953	0.000183
 437	4.3382e+01	17.3610	81.529956	0.000405	4.053290	1.373292	0.000162
 438	4.3481e+01	17.3931	81.703553	0.000436	4.357287	1.476289	0.000174
 439	4.3581e+01	17.4492	81.873113	0.000426	4.255955	1.441957	0.000170
 440	4.3681e+01	17.4781	82.006338	0.000334	3.343965	1.132966	0.000134
 441	4.3780e+01	17.5214	82.179935	0.000436	4.357287	1.476289	0.000174
 442	4.3880e+01	17.5583	82.365643	0.000466	4.661284	1.579286	0.000187
 443	4.3979e+01	17.5920	82.494832	0.000324	3.242632	1.098634	0.000130
 444	4.4078e+01	17.6466	82.664391	0.000426	4.255955	1.441957	0.000170
 445	4.4178e+01	17.6851	82.850100	0.000466	4.661284	1.579286	0.000187
 446	4.4278e+01	17.7220	83.031771	0.000456	4.559952	1.544953	0.000183
 447	4.4377e+01	17.7589	83.181145	0.000375	3.749294	1.270295	0.000150
 448	4.4477e+01	17.7958	83.370890	0.000476	4.762616	1.613618	0.000191
 449	4.4576e+01	17.8375	83.540450	0.000426	4.255955	1.441957	0.000170
 450	4.4675e+01	17.8695	83.673675	0.000334	3.343965	1.132966	0.000134
 451	4.4775e+01	17.9145	83.843235	0.000426	4.255955	1.441957	0.000170
 452	4.4874e+01	17.9594	83.980498	0.000345	3.445297	1.167298	0.000138
 453	4.4974e+01	17.9963	84.182354	0.000507	5.066613	1.716615	0.000203
 454	4.5074e+01	18.0332	84.355951	0.000436	4.357287	1.476289	0.000174
 455	4.5173e+01	18.0765	84.505325	0.000375	3.749294	1.270295	0.000150
 456	4.5273e+01	18.1182	84.682959	0.000446	4.458619	1.510621	0.000179
 457	4.5372e+01	18.1535	84.844445	0.000405	4.053290	1.373292	0.000162
 458	4.5471e+01	18.2080	85.018042	0.000436	4.357287	1.476289	0.000174
 459	4.5571e+01	18.2417	85.159341	0.000355	3.546629	1.201630	0.000142
 460	4.5670e+01	18.2610	85.336975	0.000446	4.458619	1.510621	0.000179
 461	4.5770e+01	18.3219	85.530758	0.000486	4.863948	1.647950	0.000195
 462	4.5870e+01	18.3524	85.663983	0.000334	3.343965	1.132966	0.000134
 463	4.5969e+01	18.4006	85.845654	0.000456	4.559952	1.544953	0.000183
 464	4.6069e+01	18.4455	86.003103	0.000395	3.951958	1.338960	0.000158
 465	4.6168e+01	18.4776	86.204959	0.000507	5.066613	1.716615	0.000203
 466	4.6267e+01	18.5161	86.354333	0.000375	3.749294	1.270295	0.000150
 467	4.6367e+01	18.5642	86.515819	0.000405	4.053290	1.373292	0.000162
 468	4.6467e+01	18.6043	86.705564	0.000476	4.762616	1.613618	0.000191
 469	4.6566e+01	18.6364	86.854938	0.000375	3.749294	1.270295	0.000150
 470	4.6666e+01	18.6701	87.032572	0.000446	4.458619	1.510621	0.000179
 471	4.6765e+01	18.7118	87.185983	0.000385	3.850626	1.304627	0.000154
 472	4.6864e+01	18.7567	87.379766	0.000486	4.863948	1.647950	0.000195
 473	4.6964e+01	18.7968	87.541251	0.000405	4.053290	1.373292	0.000162
 474	4.7063e+01	18.8385	87.726960	0.000466	4.661284	1.579286	0.000187
 475	4.7163e+01	18.8610	87.844037	0.000294	2.938635	0.995637	0.000118
 476	4.7263e+01	18.9187	88.005522	0.000405	4.053290	1.373292	0.000162
 477	4.7362e+01	18.9556	88.219490	0.000537	5.370610	1.819612	0.000215
 478	4.7462e+01	19.0005	88.348678	0.000324	3.242632	1.098634	0.000130
 479	4.7561e+01	19.0390	88.514201	0.000415	4.154623	1.407624	0.000166
 480	4.7660e+01	19.0759	88.671649	0.000395	3.951958	1.338960	0.000158
 481	4.7760e+01	19.1176	88.849283	0.000446	4.458619	1.510621	0.000179
 482	4.7859e+01	19.1577	89.014806	0.000415	4.154623	1.407624	0.000166
 483	4.7959e+01	19.2011	89.168217	0.000385	3.850626	1.304627	0.000154
 484	4.8059e+01	19.2315	89.313554	0.000365	3.647961	1.235963	0.000146
 485	4.8158e+01	19.2765	89.503299	0.000476	4.762616	1.613618	0.000191
 486	4.8258e+01	19.3134	89.644599	0.000355	3.546629	1.201630	0.000142
 487	4.8357e+01	19.3535	89.806084	0.000405	4.053290	1.373292	0.000162
 488	4.8456e+01	19.3920	89.983718	0.000446	4.458619	1.510621	0.000179
 489	4.8556e+01	19.4449	90.149241	0.000415	4.154623	1.407624	0.000166
 490	4.8656e+01	19.4690	90.290541	0.000355	3.546629	1.201630	0.000142
 491	4.8755e+01	19.5059	90.447989	0.000395	3.951958	1.338960	0.000158
 492	4.8855e+01	19.5460	90.613512	0.000415	4.154623	1.407624	0.000166
 493	4.8954e+01	19.5957	90.791146	0.000446	4.458619	1.510621	0.000179
 494	4.9053e+01	19.6358	90.908223	0.000294	2.938635	0.995637	0.000118
 495	4.9153e+01	19.6759	91.073745	0.000415	4.154623	1.407624	0.000166
 496	4.9252e+01	19.7064	91.243305	0.000426	4.255955	1.441957	0.000170
 497	4.9352e+01	19.7593	91.424976	0.000456	4.559952	1.544953	0.000183
 498	4.9452e+01	19.7962	91.574350	0.000375	3.749294	1.270295	0.000150
 499	4.9551e+01	19.8331	91.731798	0.000395	3.951958	1.338960	0.000158
 500	4.9651e+01	19.8797	91.881172	0.000375	3.749294	1.270295	0.000150
 501	4.9750e+01	19.9117	92.083029	0.000507	5.066613	1.716615	0.000203
 502	4.9849e+01	19.9422	92.196069	0.000284	2.837303	0.961304	0.000114
 503	4.9949e+01	19.9952	92.406000	0.000527	5.269277	1.785280	0.000211
 504	5.0048e+01	19.9583	92.337369	0.000172	1.722648	0.583649	-0.000069
 505	5.0148e+01	19.9005	92.313146	0.000061	0.607994	0.205994	-0.000024
 506	5.0248e+01	19.8652	92.216255	0.000243	2.431974	0.823975	-0.000097
 507	5.0347e+01	19.8299	92.143586	0.000182	1.823981	0.617981	-0.000073
 508	5.0447e+01	19.7850	92.038621	0.000263	2.634639	0.892640	-0.000105
 509	5.0546e+01	19.7417	91.974026	0.000162	1.621316	0.549317	-0.000065
 510	5.0645e+01	19.7080	91.881172	0.000233	2.330642	0.789643	-0.000093
 511	5.0745e+01	19.6743	91.832727	0.000122	1.215987	0.411988	-0.000049
 512	5.0844e+01	19.6262	91.731798	0.000253	2.533306	0.858307	-0.000101
 513	5.0944e+01	19.5877	91.626833	0.000263	2.634639	0.892640	-0.000105
 514	5.1044e+01	19.5524	91.493607	0.000334	3.343965	1.132966	-0.000134
 515	5.1143e+01	19.5203	91.437087	0.000142	1.418652	0.480652	-0.000057
 516	5.1242e+01	19.4738	91.332122	0.000263	2.634639	0.892640	-0.000105
 517	5.1342e+01	19.4353	91.211008	0.000304	3.039968	1.029969	-0.000122
 518	5.1441e+01	19.3872	91.118154	0.000233	2.330642	0.789643	-0.000093
 519	5.1541e+01	19.3374	91.009151	0.000274	2.735971	0.926972	-0.000110
 520	5.1641e+01	19.3198	90.916297	0.000233	2.330642	0.789643	-0.000093
 521	5.1740e+01	19.2716	90.787108	0.000324	3.242632	1.098634	-0.000130
 522	5.1840e+01	19.2283	90.702329	0.000213	2.127977	0.720978	-0.000085
 523	5.1939e+01	19.1898	90.585252	0.000294	2.938635	0.995637	-0.000118
 524	5.2038e+01	19.1529	90.496435	0.000223	2.229310	0.755311	-0.000089
 525	5.2138e+01	19.1160	90.419729	0.000193	1.925313	0.652314	-0.000077
 526	5.2237e+01	19.0775	90.286504	0.000334	3.343965	1.132966	-0.000134
 527	5.2337e+01	19.0326	90.153278	0.000334	3.343965	1.132966	-0.000134
 528	5.2437e+01	18.9877	90.080610	0.000182	1.823981	0.617981	-0.000073
 529	5.2536e+01	18.9588	89.959496	0.000304	3.039968	1.029969	-0.000122
 530	5.2636e+01	18.9187	89.838382	0.000304	3.039968	1.029969	-0.000122
 531	5.2735e+01	18.8738	89.745527	0.000233	2.330642	0.789643	-0.000093
 532	5.2834e+01	18.8337	89.608265	0.000345	3.445297	1.167298	-0.000138
 533	5.2934e+01	18.7888	89.507336	0.000253	2.533306	0.858307	-0.000101
 534	5.3033e+01	18.7631	89.366037	0.000355	3.546629	1.201630	-0.000142
 535	5.3133e+01	18.7230	89.289331	0.000193	1.925313	0.652314	-0.000077
 536	5.3233e+01	18.6781	89.164180	0.000314	3.141300	1.064301	-0.000126
 537	5.3332e+01	18.6364	89.030954	0.000334	3.343965	1.132966	-0.000134
 538	5.3431e+01	18.6043	88.942137	0.000223	2.229310	0.755311	-0.000089
 539	5.3531e+01	18.5530	88.825061	0.000294	2.938635	0.995637	-0.000118
 540	5.3630e+01	18.5225	88.712021	0.000284	2.837303	0.961304	-0.000114
 541	5.3730e+01	18.4808	88.590907	0.000304	3.039968	1.029969	-0.000122
 542	5.3830e+01	18.4358	88.437495	0.000385	3.850626	1.304627	-0.000154
 543	5.3929e+01	18.4022	88.356753	0.000203	2.026645	0.686646	-0.000081
 544	5.4029e+01	18.3540	88.199304	0.000395	3.951958	1.338960	-0.000158
 545	5.4128e+01	18.3171	88.082228	0.000294	2.938635	0.995637	-0.000118
 546	5.4227e+01	18.2802	87.969188	0.000284	2.837303	0.961304	-0.000114
 547	5.4327e+01	18.2417	87.848074	0.000304	3.039968	1.029969	-0.000122
 548	5.4426e+01	18.2064	87.706774	0.000355	3.546629	1.201630	-0.000142
 549	5.4526e+01	18.1647	87.585660	0.000304	3.039968	1.029969	-0.000122
 550	5.4626e+01	18.1166	87.468583	0.000294	2.938635	0.995637	-0.000118
 551	5.4725e+01	18.0717	87.323246	0.000365	3.647961	1.235963	-0.000146
 552	5.4825e+01	18.0332	87.214243	0.000274	2.735971	0.926972	-0.000110
 553	5.4924e+01	17.9915	87.064869	0.000375	3.749294	1.270295	-0.000150
 554	5.5023e+01	17.9642	86.963941	0.000253	2.533306	0.858307	-0.000101
 555	5.5123e+01	17.9145	86.798418	0.000415	4.154623	1.407624	-0.000166
 556	5.5222e+01	17.8760	86.681341	0.000294	2.938635	0.995637	-0.000118
 557	5.5322e+01	17.8391	86.588487	0.000233	2.330642	0.789643	-0.000093
 558	5.5422e+01	17.8022	86.435076	0.000385	3.850626	1.304627	-0.000154
 559	5.5521e+01	17.7653	86.313962	0.000304	3.039968	1.029969	-0.000122
 560	5.5620e+01	17.7188	86.208997	0.000263	2.634639	0.892640	-0.000105
 561	5.5720e+01	17.6754	86.063660	0.000365	3.647961	1.235963	-0.000146
 562	5.5819e+01	17.6401	85.942546	0.000304	3.039968	1.029969	-0.000122
 563	5.5919e+01	17.6032	85.825469	0.000294	2.938635	0.995637	-0.000118
 564	5.6019e+01	17.5615	85.696280	0.000324	3.242632	1.098634	-0.000130
 565	5.6118e+01	17.5262	85.530758	0.000415	4.154623	1.407624	-0.000166
 566	5.6218e+01	17.4781	85.393495	0.000345	3.445297	1.167298	-0.000138
 567	5.6317e+01	17.4380	85.280455	0.000284	2.837303	0.961304	-0.000114
 568	5.6416e+01	17.4043	85.155304	0.000314	3.141300	1.064301	-0.000126
 569	5.6516e+01	17.3514	85.022079	0.000334	3.343965	1.132966	-0.000134
 570	5.6615e+01	17.3113	84.929225	0.000233	2.330642	0.789643	-0.000093
 571	5.6715e+01	17.2792	84.787925	0.000355	3.546629	1.201630	-0.000142
 572	5.6815e+01	17.2551	84.618365	0.000426	4.255955	1.441957	-0.000170
 573	5.6914e+01	17.2054	84.517437	0.000253	2.533306	0.858307	-0.000101
 574	5.7014e+01	17.1685	84.412471	0.000263	2.634639	0.892640	-0.000105
 575	5.7113e+01	17.1188	84.259060	0.000385	3.850626	1.304627	-0.000154
 576	5.7212e+01	17.0915	84.109686	0.000375	3.749294	1.270295	-0.000150
 577	5.7312e+01	17.0386	83.968386	0.000355	3.546629	1.201630	-0.000142
 578	5.7411e+01	17.0113	83.867458	0.000253	2.533306	0.858307	-0.000101
 579	5.7511e+01	16.9616	83.710010	0.000395	3.951958	1.338960	-0.000158
 580	5.7611e+01	16.9279	83.588895	0.000304	3.039968	1.029969	-0.000122
 581	5.7710e+01	16.8846	83.435484	0.000385	3.850626	1.304627	-0.000154
 582	5.7809e+01	16.8493	83.322444	0.000284	2.837303	0.961304	-0.000114
 583	5.7909e+01	16.7995	83.177108	0.000365	3.647961	1.235963	-0.000146
 584	5.8008e+01	16.7578	83.051956	0.000314	3.141300	1.064301	-0.000126
 585	5.8108e+01	16.7193	82.930842	0.000304	3.039968	1.029969	-0.000122
 586	5.8208e+01	16.6792	82.773394	0.000395	3.951958	1.338960	-0.000158
 587	5.8307e+01	16.6503	82.636131	0.000345	3.445297	1.167298	-0.000138
 588	5.8407e+01	16.6022	82.539240	0.000243	2.431974	0.823975	-0.000097
 589	5.8506e+01	16.5685	82.422163	0.000294	2.938635	0.995637	-0.000118
 590	5.8605e+01	16.5220	82.244529	0.000446	4.458619	1.510621	-0.000179
 591	5.8705e+01	16.4803	82.115341	0.000324	3.242632	1.098634	-0.000130
 592	5.8804e+01	16.4498	81.978078	0.000345	3.445297	1.167298	-0.000138
 593	5.8904e+01	16.4097	81.840816	0.000345	3.445297	1.167298	-0.000138
 594	5.9004e+01	16.3648	81.659145	0.000456	4.559952	1.544953	-0.000183
 595	5.9103e+01	16.3295	81.550142	0.000274	2.735971	0.926972	-0.000110
 596	5.9203e+01	16.2814	81.429028	0.000304	3.039968	1.029969	-0.000122
 597	5.9302e+01	16.2493	81.275617	0.000385	3.850626	1.304627	-0.000154
 598	5.9401e+01	16.2108	81.154503	0.000304	3.039968	1.029969	-0.000122
 599	5.9501e+01	16.1691	81.037426	0.000294	2.938635	0.995637	-0.000118
 600	5.9600e+01	16.1241	80.871903	0.000415	4.154623	1.407624	-0.000166
 601	5.9700e+01	16.0872	80.734640	0.000345	3.445297	1.167298	-0.000138
 602	5.9800e+01	16.0423	80.621601	0.000284	2.837303	0.961304	-0.000114
 603	5.9899e+01	16.0167	80.480301	0.000355	3.546629	1.201630	-0.000142
 604	5.9998e+01	15.9605	80.294593	0.000466	4.661284	1.579286	-0.000187
 605	6.0098e+01	15.9348	80.193664	0.000253	2.533306	0.858307	-0.000101
 606	6.0197e+01	15.8947	80.024105	0.000426	4.255955	1.441957	-0.000170
 607	6.0297e+01	15.8482	79.919139	0.000263	2.634639	0.892640	-0.000105
 608	6.0397e+01	15.8113	79.793988	0.000314	3.141300	1.064301	-0.000126
 609	6.0496e+01	15.7712	79.636540	0.000395	3.951958	1.338960	-0.000158
 610	6.0596e+01	15.7167	79.495240	0.000355	3.546629	1.201630	-0.000142
 611	6.0695e+01	15.6862	79.366051	0.000324	3.242632	1.098634	-0.000130
 612	6.0794e+01	15.6445	79.196492	0.000426	4.255955	1.441957	-0.000170
 613	6.0894e+01	15.6076	79.043081	0.000385	3.850626	1.304627	-0.000154
 614	6.0993e+01	15.5627	78.897744	0.000365	3.647961	1.235963	-0.000146
 615	6.1093e+01	15.5306	78.752407	0.000365	3.647961	1.235963	-0.000146
 616	6.1193e+01	15.4937	78.607070	0.000365	3.647961	1.235963	-0.000146
 617	6.1292e+01	15.4407	78.473844	0.000334	3.343965	1.132966	-0.000134
 618	6.1392e+01	15.4087	78.324470	0.000375	3.749294	1.270295	-0.000150
 619	6.1491e+01	15.3686	78.187208	0.000345	3.445297	1.167298	-0.000138
 620	6.1590e+01	15.3284	78.041871	0.000365	3.647961	1.235963	-0.000146
 621	6.1690e+01	15.2835	77.908645	0.000334	3.343965	1.132966	-0.000134
 622	6.1789e+01	15.2530	77.763309	0.000365	3.647961	1.235963	-0.000146
 623	6.1889e+01	15.2145	77.646232	0.000294	2.938635	0.995637	-0.000118
 624	6.1989e+01	15.1664	77.460523	0.000466	4.661284	1.579286	-0.000187
 625	6.2088e+01	15.1263	77.327298	0.000334	3.343965	1.132966	-0.000134
 626	6.2188e+01	15.0846	77.185998	0.000355	3.546629	1.201630	-0.000142
 627	6.2287e+01	15.0461	77.068921	0.000294	2.938635	0.995637	-0.000118
 628	6.2386e+01	15.0108	76.915510	0.000385	3.850626	1.304627	-0.000154
 629	6.2486e+01	14.9819	76.778247	0.000345	3.445297	1.167298	-0.000138
 630	6.2586e+01	14.9290	76.608688	0.000426	4.255955	1.441957	-0.000170
 631	6.2685e+01	14.8841	76.475462	0.000334	3.343965	1.132966	-0.000134
 632	6.2785e+01	14.8456	76.346274	0.000324	3.242632	1.098634	-0.000130
 633	6.2884e+01	14.8055	76.156529	0.000476	4.762616	1.613618	-0.000191
 634	6.2983e+01	14.7702	76.051563	0.000263	2.634639	0.892640	-0.000105
 635	6.3083e+01	14.7253	75.902189	0.000375	3.749294	1.270295	-0.000150
 636	6.3182e+01	14.6932	75.744741	0.000395	3.951958	1.338960	-0.000158
 637	6.3282e+01	14.6466	75.635738	0.000274	2.735971	0.926972	-0.000110
 638	6.3382e+01	14.6049	75.494438	0.000355	3.546629	1.201630	-0.000142
 639	6.3481e+01	14.5729	75.357176	0.000345	3.445297	1.167298	-0.000138
 640	6.3581e+01	14.5311	75.179542	0.000446	4.458619	1.510621	-0.000179
 641	6.3680e+01	14.4926	75.034205	0.000365	3.647961	1.235963	-0.000146
 642	6.3779e+01	14.4493	74.913091	0.000304	3.039968	1.029969	-0.000122
 643	6.3879e+01	14.4076	74.755642	0.000395	3.951958	1.338960	-0.000158
 644	6.3978e+01	14.3739	74.654714	0.000253	2.533306	0.858307	-0.000101
 645	6.4078e+01	14.3322	74.469006	0.000466	4.661284	1.579286	-0.000187
 646	6.4177e+01	14.2937	74.343855	0.000314	3.141300	1.064301	-0.000126
 647	6.4277e+01	14.2568	74.146035	0.000497	4.965281	1.682283	-0.000199
 648	6.4376e+01	14.2103	74.049144	0.000243	2.431974	0.823975	-0.000097
 649	6.4476e+01	14.1734	73.859398	0.000476	4.762616	1.613618	-0.000191
 650	6.4576e+01	14.1285	73.693876	0.000415	4.154623	1.407624	-0.000166
 651	6.4675e+01	14.0900	73.580836	0.000284	2.837303	0.961304	-0.000114
 652	6.4775e+01	14.0579	73.411276	0.000426	4.255955	1.441957	-0.000170
 653	6.4874e+01	14.0194	73.282088	0.000324	3.242632	1.098634	-0.000130
 654	6.4974e+01	13.9697	73.100417	0.000456	4.559952	1.544953	-0.000183
 655	6.5073e+01	13.9296	72.987377	0.000284	2.837303	0.961304	-0.000114
 656	6.5172e+01	13.8894	72.793594	0.000486	4.863948	1.647950	-0.000195
 657	6.5272e+01	13.8574	72.664406	0.000324	3.242632	1.098634	-0.000130
 658	6.5371e+01	13.8237	72.527144	0.000345	3.445297	1.167298	-0.000138
 659	6.5471e+01	13.7691	72.377770	0.000375	3.749294	1.270295	-0.000150
 660	6.5570e+01	13.7386	72.236470	0.000355	3.546629	1.201630	-0.000142
 661	6.5670e+01	13.6825	72.054799	0.000456	4.559952	1.544953	-0.000183
 662	6.5769e+01	13.6584	71.933685	0.000304	3.039968	1.029969	-0.000122
 663	6.5869e+01	13.6071	71.768162	0.000415	4.154623	1.407624	-0.000166
 664	6.5969e+01	13.5814	71.630899	0.000345	3.445297	1.167298	-0.000138
 665	6.6068e+01	13.5317	71.453265	0.000446	4.458619	1.510621	-0.000179
 666	6.6168e+01	13.4932	71.311966	0.000355	3.546629	1.201630	-0.000142
 667	6.6267e+01	13.4515	71.202963	0.000274	2.735971	0.926972	-0.000110
 668	6.6367e+01	13.4210	71.013218	0.000476	4.762616	1.613618	-0.000191
 669	6.6466e+01	13.3761	70.871918	0.000355	3.546629	1.201630	-0.000142
 670	6.6566e+01	13.3424	70.714470	0.000395	3.951958	1.338960	-0.000158
 671	6.6665e+01	13.2959	70.544910	0.000426	4.255955	1.441957	-0.000170
 672	6.6764e+01	13.2510	70.375350	0.000426	4.255955	1.441957	-0.000170
 673	6.6864e+01	13.2012	70.270385	0.000263	2.634639	0.892640	-0.000105
 674	6.6963e+01	13.1788	70.088714	0.000456	4.559952	1.544953	-0.000183
 675	6.7063e+01	13.1322	69.935302	0.000385	3.850626	1.304627	-0.000154
 676	6.7162e+01	13.1034	69.753631	0.000456	4.559952	1.544953	-0.000183
 677	6.7262e+01	13.0504	69.616369	0.000345	3.445297	1.167298	-0.000138
 678	6.7362e+01	13.0183	69.446809	0.000426	4.255955	1.441957	-0.000170
 679	6.7461e+01	12.9782	69.309546	0.000345	3.445297	1.167298	-0.000138
 680	6.7561e+01	12.9413	69.152098	0.000395	3.951958	1.338960	-0.000158
 681	6.7660e+01	12.8980	69.030984	0.000304	3.039968	1.029969	-0.000122
 682	6.7760e+01	12.8692	68.865461	0.000415	4.154623	1.407624	-0.000166
 683	6.7859e+01	12.8178	68.679753	0.000466	4.661284	1.579286	-0.000187
 684	6.7959e+01	12.7777	68.566713	0.000284	2.837303	0.961304	-0.000114
 685	6.8058e+01	12.7344	68.409265	0.000395	3.951958	1.338960	-0.000158
 686	6.8157e+01	12.7039	68.243743	0.000415	4.154623	1.407624	-0.000166
 687	6.8257e+01	12.6558	68.062071	0.000456	4.559952	1.544953	-0.000183
 688	6.8356e+01	12.6221	67.936920	0.000314	3.141300	1.064301	-0.000126
 689	6.8456e+01	12.5724	67.731026	0.000517	5.167945	1.750947	-0.000207
 690	6.8555e+01	12.5499	67.597801	0.000334	3.343965	1.132966	-0.000134
 691	6.8655e+01	12.4986	67.436315	0.000405	4.053290	1.373292	-0.000162
 692	6.8754e+01	12.4601	67.278867	0.000395	3.951958	1.338960	-0.000158
 693	6.8854e+01	12.4248	67.145642	0.000334	3.343965	1.132966	-0.000134
 694	6.8954e+01	12.3895	66.976082	0.000426	4.255955	1.441957	-0.000170
 695	6.9053e+01	12.3398	66.838819	0.000345	3.445297	1.167298	-0.000138
 696	6.9153e+01	12.2916	66.705594	0.000334	3.343965	1.132966	-0.000134
 697	6.9252e+01	12.2660	66.511811	0.000486	4.863948	1.647950	-0.000195
 698	6.9352e+01	12.2226	66.366474	0.000365	3.647961	1.235963	-0.000146
 699	6.9451e+01	12.1809	66.225175	0.000355	3.546629	1.201630	-0.000142
 700	6.9550e+01	12.1424	66.027355	0.000497	4.965281	1.682283	-0.000199
 701	6.9650e+01	12.1007	65.882018	0.000365	3.647961	1.235963	-0.000146
 702	6.9749e+01	12.0542	65.712458	0.000426	4.255955	1.441957	-0.000170
 703	6.9849e+01	12.0141	65.555010	0.000395	3.951958	1.338960	-0.000158
 704	6.9948e+01	11.9852	65.413710	0.000355	3.546629	1.201630	-0.000142
 705	7.0048e+01	11.9403	65.280485	0.000334	3.343965	1.132966	-0.000134
 706	7.0147e+01	11.9034	65.094777	0.000466	4.661284	1.579286	-0.000187
 707	7.0247e+01	11.8649	64.921180	0.000436	4.357287	1.476289	-0.000174
 708	7.0347e+01	11.8248	64.755657	0.000415	4.154623	1.407624	-0.000166
 709	7.0446e+01	11.7847	64.586098	0.000426	4.255955	1.441957	-0.000170
 710	7.0546e+01	11.7414	64.456909	0.000324	3.242632	1.098634	-0.000130
 711	7.0645e+01	11.7045	64.222755	0.000588	5.877271	1.991273	-0.000235
 712	7.0745e+01	11.6644	64.081456	0.000355	3.546629	1.201630	-0.000142
 713	7.0844e+01	11.6227	63.911896	0.000426	4.255955	1.441957	-0.000170
 714	7.0944e+01	11.5890	63.762522	0.000375	3.749294	1.270295	-0.000150
 715	7.1043e+01	11.5473	63.629296	0.000334	3.343965	1.132966	-0.000134
 716	7.1142e+01	11.5072	63.443588	0.000466	4.661284	1.579286	-0.000187
 717	7.1242e+01	11.4671	63.274028	0.000426	4.255955	1.441957	-0.000170
 718	7.1341e+01	11.4205	63.096394	0.000446	4.458619	1.510621	-0.000179
 719	7.1441e+01	11.3917	62.951058	0.000365	3.647961	1.235963	-0.000146
 720	7.1540e+01	11.3467	62.789572	0.000405	4.053290	1.373292	-0.000162
 721	7.1640e+01	11.3050	62.583678	0.000517	5.167945	1.750947	-0.000207
 722	7.1740e+01	11.2633	62.442378	0.000355	3.546629	1.201630	-0.000142
 723	7.1839e+01	11.2280	62.264744	0.000446	4.458619	1.510621	-0.000179
 724	7.1939e+01	11.1863	62.091148	0.000436	4.357287	1.476289	-0.000174
 725	7.2038e+01	11.1462	61.925625	0.000415	4.154623	1.407624	-0.000166
 726	7.2138e+01	11.0981	61.768177	0.000395	3.951958	1.338960	-0.000158
 727	7.2237e+01	11.0676	61.562283	0.000517	5.167945	1.750947	-0.000207
 728	7.2337e+01	11.0259	61.437132	0.000314	3.141300	1.064301	-0.000126
 729	7.2436e+01	10.9842	61.239312	0.000497	4.965281	1.682283	-0.000199
 730	7.2535e+01	10.9473	61.098012	0.000355	3.546629	1.201630	-0.000142
 731	7.2635e+01	10.9008	60.916341	0.000456	4.559952	1.544953	-0.000183
 732	7.2734e+01	10.8735	60.742744	0.000436	4.357287	1.476289	-0.000174
 733	7.2834e+01	10.8206	60.617593	0.000314	3.141300	1.064301	-0.000126
 734	7.2933e+01	10.7917	60.427848	0.000476	4.762616	1.613618	-0.000191
 735	7.3033e+01	10.7419	60.250214	0.000446	4.458619	1.510621	-0.000179
 736	7.3132e+01	10.7083	60.068543	0.000456	4.559952	1.544953	-0.000183
 737	7.3232e+01	10.6649	59.923206	0.000365	3.647961	1.235963	-0.000146
 738	7.3332e+01	10.6200	59.777869	0.000365	3.647961	1.235963	-0.000146
 739	7.3431e+01	10.5815	59.588123	0.000476	4.762616	1.613618	-0.000191
 740	7.3531e+01	10.5398	59.406452	0.000456	4.559952	1.544953	-0.000183
 741	7.3630e+01	10.5061	59.208633	0.000497	4.965281	1.682283	-0.000199
 742	7.3730e+01	10.4724	59.087519	0.000304	3.039968	1.029969	-0.000122
 743	7.3829e+01	10.4275	58.897773	0.000476	4.762616	1.613618	-0.000191
 744	7.3928e+01	10.3858	58.724176	0.000436	4.357287	1.476289	-0.000174
 745	7.4028e+01	10.3521	58.554617	0.000426	4.255955	1.441957	-0.000170
 746	7.4127e+01	10.3168	58.385057	0.000426	4.255955	1.441957	-0.000170
 747	7.4227e+01	10.2719	58.223572	0.000405	4.053290	1.373292	-0.000162
 748	7.4326e+01	10.2286	58.029789	0.000486	4.863948	1.647950	-0.000195
 749	7.4426e+01	10.1853	57.864267	0.000415	4.154623	1.407624	-0.000166
 750	7.4525e+01	10.1500	57.698744	0.000415	4.154623	1.407624	-0.000166
 751	7.4625e+01	10.1131	57.521110	0.000446	4.458619	1.510621	-0.000179
 752	7.4725e+01	10.0617	57.351550	0.000426	4.255955	1.441957	-0.000170
 753	7.4824e+01	10.0345	57.169879	0.000456	4.559952	1.544953	-0.000183
 754	7.4924e+01	9.9912	57.024542	0.000365	3.647961	1.235963	-0.000146
 755	7.5023e+01	9.9591	56.842871	0.000456	4.559952	1.544953	-0.000183
 756	7.5123e+01	9.9190	56.624866	0.000547	5.471942	1.853944	-0.000219
 757	7.5222e+01	9.8676	56.483566	0.000355	3.546629	1.201630	-0.000142
 758	7.5322e+01	9.8356	56.309969	0.000436	4.357287	1.476289	-0.000174
 759	7.5421e+01	9.7890	56.120224	0.000476	4.762616	1.613618	-0.000191
 760	7.5520e+01	9.7569	55.942590	0.000446	4.458619	1.510621	-0.000179
 761	7.5620e+01	9.7152	55.817439	0.000314	3.141300	1.064301	-0.000126
 762	7.5719e+01	9.6623	55.623656	0.000486	4.863948	1.647950	-0.000195
 763	7.5819e+01	9.6334	55.446022	0.000446	4.458619	1.510621	-0.000179
 764	7.5918e+01	9.5901	55.292611	0.000385	3.850626	1.304627	-0.000154
 765	7.6018e+01	9.5548	55.098829	0.000486	4.863948	1.647950	-0.000195
 766	7.6118e+01	9.5099	54.933306	0.000415	4.154623	1.407624	-0.000166
 767	7.6217e+01	9.4714	54.747598	0.000466	4.661284	1.579286	-0.000187
 768	7.6317e+01	9.4329	54.565927	0.000456	4.559952	1.544953	-0.000183
 769	7.6416e+01	9.3976	54.396367	0.000426	4.255955	1.441957	-0.000170
 770	7.6516e+01	9.3575	54.242956	0.000385	3.850626	1.304627	-0.000154
 771	7.6615e+01	9.3094	54.053210	0.000476	4.762616	1.613618	-0.000191
 772	7.6715e+01	9.2725	53.883651	0.000426	4.255955	1.441957	-0.000170
 773	7.6814e+01	9.2324	53.681794	0.000507	5.066613	1.716615	-0.000203
 774	7.6913e+01	9.1890	53.500123	0.000456	4.559952	1.544953	-0.000183
 775	7.7013e+01	9.1521	53.334600	0.000415	4.154623	1.407624	-0.000166
 776	7.7112e+01	9.1104	53.156966	0.000446	4.458619	1.510621	-0.000179
 777	7.7212e+01	9.0735	52.979332	0.000446	4.458619	1.510621	-0.000179
 778	7.7311e+01	9.0334	52.825921	0.000385	3.850626	1.304627	-0.000154
 779	7.7411e+01	8.9949	52.640213	0.000466	4.661284	1.579286	-0.000187
 780	7.7510e+01	8.9596	52.446430	0.000486	4.863948	1.647950	-0.000195
 781	7.7610e+01	8.9083	52.268796	0.000446	4.458619	1.510621	-0.000179
 782	7.7710e+01	8.8730	52.091162	0.000446	4.458619	1.510621	-0.000179
 783	7.7809e+01	8.8281	51.905454	0.000466	4.661284	1.579286	-0.000187
 784	7.7909e+01	8.7944	51.715709	0.000476	4.762616	1.613618	-0.000191
 785	7.8008e+01	8.7591	51.546149	0.000426	4.255955	1.441957	-0.000170
 786	7.8108e+01	8.7126	51.299884	0.000618	6.181268	2.094270	-0.000248
 787	7.8207e+01	8.6709	51.170695	0.000324	3.242632	1.098634	-0.000130
 788	7.8306e+01	8.6420	50.989024	0.000456	4.559952	1.544953	-0.000183
 789	7.8406e+01	8.5907	50.779093	0.000527	5.269277	1.785280	-0.000211
 790	7.8505e+01	8.5538	50.597422	0.000456	4.559952	1.544953	-0.000183
 791	7.8605e+01	8.5121	50.444011	0.000385	3.850626	1.304627	-0.000154
 792	7.8704e+01	8.4800	50.278488	0.000415	4.154623	1.407624	-0.000166
 793	7.8804e+01	8.4335	50.088743	0.000476	4.762616	1.613618	-0.000191
 794	7.8903e+01	8.3933	49.870738	0.000547	5.471942	1.853944	-0.000219
 795	7.9003e+01	8.3516	49.701178	0.000426	4.255955	1.441957	-0.000170
 796	7.9103e+01	8.3212	49.571990	0.000324	3.242632	1.098634	-0.000130
 797	7.9202e+01	8.2794	49.378207	0.000486	4.863948	1.647950	-0.000195
 798	7.9302e+01	8.2361	49.176350	0.000507	5.066613	1.716615	-0.000203
 799	7.9401e+01	8.2024	49.010828	0.000415	4.154623	1.407624	-0.000166
 800	7.9501e+01	8.1479	48.841268	0.000426	4.255955	1.441957	-0.000170
 801	7.9600e+01	8.1238	48.651523	0.000476	4.762616	1.613618	-0.000191
 802	7.9700e+01	8.0789	48.449666	0.000507	5.066613	1.716615	-0.000203
 803	7.9799e+01	8.0372	48.267995	0.000456	4.559952	1.544953	-0.000183
 804	7.9898e+01	7.9939	48.106509	0.000405	4.053290	1.373292	-0.000162
 805	7.9998e+01	7.9554	47.961173	0.000365	3.647961	1.235963	-0.000146
 806	8.0097e+01	7.9169	47.710870	0.000628	6.282600	2.128603	-0.000252
 807	8.0197e+01	7.8768	47.565533	0.000365	3.647961	1.235963	-0.000146
 808	8.0296e+01	7.8319	47.391936	0.000436	4.357287	1.476289	-0.000174
 809	8.0396e+01	7.7950	47.202191	0.000476	4.762616	1.613618	-0.000191
 810	8.0496e+01	7.7549	47.016483	0.000466	4.661284	1.579286	-0.000187
 811	8.0595e+01	7.7276	46.842886	0.000436	4.357287	1.476289	-0.000174
 812	8.0695e+01	7.6779	46.657178	0.000466	4.661284	1.579286	-0.000187
 813	8.0794e+01	7.6458	46.503767	0.000385	3.850626	1.304627	-0.000154
 814	8.0894e+01	7.6009	46.277687	0.000567	5.674606	1.922609	-0.000227
 815	8.0993e+01	7.5624	46.140424	0.000345	3.445297	1.167298	-0.000138
 816	8.1093e+01	7.5222	45.914345	0.000567	5.674606	1.922609	-0.000227
 817	8.1192e+01	7.4773	45.724599	0.000476	4.762616	1.613618	-0.000191
 818	8.1291e+01	7.4308	45.559077	0.000415	4.154623	1.407624	-0.000166
 819	8.1391e+01	7.3939	45.365294	0.000486	4.863948	1.647950	-0.000195
 820	8.1490e+01	7.3618	45.135178	0.000578	5.775939	1.956941	-0.000231
 821	8.1590e+01	7.3233	44.985804	0.000375	3.749294	1.270295	-0.000150
 822	8.1689e+01	7.2816	44.828355	0.000395	3.951958	1.338960	-0.000158
 823	8.1789e+01	7.2367	44.610350	0.000547	5.471942	1.853944	-0.000219
 824	8.1888e+01	7.1998	44.420605	0.000476	4.762616	1.613618	-0.000191
 825	8.1988e+01	7.1613	44.202599	0.000547	5.471942	1.853944	-0.000219
 826	8.2088e+01	7.1196	44.037077	0.000415	4.154623	1.407624	-0.000166
 827	8.2187e+01	7.0859	43.835220	0.000507	5.066613	1.716615	-0.000203
 828	8.2287e+01	7.0394	43.673734	0.000405	4.053290	1.373292	-0.000162
 829	8.2386e+01	7.0041	43.459766	0.000537	5.370610	1.819612	-0.000215
 830	8.2486e+01	6.9592	43.334615	0.000314	3.141300	1.064301	-0.000126
 831	8.2585e+01	6.9207	43.072201	0.000659	6.586597	2.231599	-0.000264
 832	8.2684e+01	6.8741	42.910716	0.000405	4.053290	1.373292	-0.000162
 833	8.2784e+01	6.8372	42.712896	0.000497	4.965281	1.682283	-0.000199
 834	8.2883e+01	6.8068	42.531225	0.000456	4.559952	1.544953	-0.000183
 835	8.2983e+01	6.7618	42.329368	0.000507	5.066613	1.716615	-0.000203
 836	8.3082e+01	6.7249	42.143660	0.000466	4.661284	1.579286	-0.000187
 837	8.3182e+01	6.6800	41.961989	0.000456	4.559952	1.544953	-0.000183
 838	8.3281e+01	6.6495	41.784355	0.000446	4.458619	1.510621	-0.000179
 839	8.3381e+01	6.6030	41.614795	0.000426	4.255955	1.441957	-0.000170
 840	8.3481e+01	6.5565	41.352381	0.000659	6.586597	2.231599	-0.000264
 841	8.3580e+01	6.5340	41.203007	0.000375	3.749294	1.270295	-0.000150
 842	8.3680e+01	6.4747	41.005188	0.000497	4.965281	1.682283	-0.000199
 843	8.3779e+01	6.4394	40.831591	0.000436	4.357287	1.476289	-0.000174
 844	8.3879e+01	6.4041	40.617623	0.000537	5.370610	1.819612	-0.000215
 845	8.3978e+01	6.3672	40.427877	0.000476	4.762616	1.613618	-0.000191
 846	8.4078e+01	6.3239	40.266392	0.000405	4.053290	1.373292	-0.000162
 847	8.4177e+01	6.2854	40.044349	0.000557	5.573274	1.888276	-0.000223
 848	8.4276e+01	6.2533	39.854604	0.000476	4.762616	1.613618	-0.000191
 849	8.4376e+01	6.2068	39.668896	0.000466	4.661284	1.579286	-0.000187
 850	8.4475e+01	6.1619	39.458965	0.000527	5.269277	1.785280	-0.000211
 851	8.4575e+01	6.1282	39.265182	0.000486	4.863948	1.647950	-0.000195
 852	8.4674e+01	6.0849	39.051214	0.000537	5.370610	1.819612	-0.000215
 853	8.4774e+01	6.0528	38.893766	0.000395	3.951958	1.338960	-0.000158
 854	8.4874e+01	6.0062	38.671723	0.000557	5.573274	1.888276	-0.000223
 855	8.4973e+01	5.9613	38.514275	0.000395	3.951958	1.338960	-0.000158
 856	8.5073e+01	5.9276	38.320492	0.000486	4.863948	1.647950	-0.000195
 857	8.5172e+01	5.8891	38.114599	0.000517	5.167945	1.750947	-0.000207
 858	8.5272e+01	5.8458	37.941002	0.000436	4.357287	1.476289	-0.000174
 859	8.5371e+01	5.8073	37.751256	0.000476	4.762616	1.613618	-0.000191
 860	8.5471e+01	5.7672	37.533251	0.000547	5.471942	1.853944	-0.000219
 861	8.5570e+01	5.7255	37.323320	0.000527	5.269277	1.785280	-0.000211
 862	8.5669e+01	5.6822	37.145686	0.000446	4.458619	1.510621	-0.000179
 863	8.5769e+01	5.6533	36.939792	0.000517	5.167945	1.750947	-0.000207
 864	8.5868e+01	5.6148	36.766195	0.000436	4.357287	1.476289	-0.000174
 865	8.5968e+01	5.5763	36.499744	0.000669	6.687929	2.265932	-0.000268
 866	8.6067e+01	5.5314	36.382667	0.000294	2.938635	0.995637	-0.000118
 867	8.6167e+01	5.4817	36.140439	0.000608	6.079935	2.059938	-0.000243
 868	8.6266e+01	5.4432	35.970879	0.000426	4.255955	1.441957	-0.000170
 869	8.6366e+01	5.4095	35.764986	0.000517	5.167945	1.750947	-0.000207
 870	8.6466e+01	5.3646	35.567166	0.000497	4.965281	1.682283	-0.000199
 871	8.6565e+01	5.3277	35.341086	0.000567	5.674606	1.922609	-0.000227
 872	8.6665e+01	5.2811	35.191712	0.000375	3.749294	1.270295	-0.000150
 873	8.6764e+01	5.2490	34.965633	0.000567	5.674606	1.922609	-0.000227
 874	8.6864e+01	5.2009	34.787999	0.000446	4.458619	1.510621	-0.000179
 875	8.6963e+01	5.1624	34.578068	0.000527	5.269277	1.785280	-0.000211
 876	8.7063e+01	5.1319	34.356025	0.000557	5.573274	1.888276	-0.000223
 877	8.7162e+01	5.0854	34.158205	0.000497	4.965281	1.682283	-0.000199
 878	8.7261e+01	5.0598	33.976534	0.000456	4.559952	1.544953	-0.000183
 879	8.7361e+01	5.0036	33.770640	0.000517	5.167945	1.750947	-0.000207
 880	8.7460e+01	4.9747	33.548598	0.000557	5.573274	1.888276	-0.000223
 881	8.7560e+01	4.9218	33.342704	0.000517	5.167945	1.750947	-0.000207
 882	8.7659e+01	4.8881	33.152959	0.000476	4.762616	1.613618	-0.000191
 883	8.7759e+01	4.8464	32.922842	0.000578	5.775939	1.956941	-0.000231
 884	8.7859e+01	4.8031	32.745208	0.000446	4.458619	1.510621	-0.000179
 885	8.7958e+01	4.7726	32.519128	0.000567	5.674606	1.922609	-0.000227
 886	8.8058e+01	4.7309	32.293049	0.000567	5.674606	1.922609	-0.000227
 887	8.8157e+01	4.6924	32.087155	0.000517	5.167945	1.750947	-0.000207
 888	8.8257e+01	4.6571	31.925669	0.000405	4.053290	1.373292	-0.000162
 889	8.8356e+01	4.6090	31.711701	0.000537	5.370610	1.819612	-0.000215
 890	8.8456e+01	4.5753	31.517919	0.000486	4.863948	1.647950	-0.000195
 891	8.8555e+01	4.5207	31.287802	0.000578	5.775939	1.956941	-0.000231
 892	8.8654e+01	4.4983	31.118242	0.000426	4.255955	1.441957	-0.000170
 893	8.8754e+01	4.4550	30.843717	0.000689	6.890594	2.334596	-0.000276
 894	8.8853e+01	4.4165	30.621675	0.000557	5.573274	1.888276	-0.000223
 895	8.8953e+01	4.3699	30.464226	0.000395	3.951958	1.338960	-0.000158
 896	8.9052e+01	4.3362	30.246221	0.000547	5.471942	1.853944	-0.000219
 897	8.9152e+01	4.2945	30.016104	0.000578	5.775939	1.956941	-0.000231
 898	8.9251e+01	4.2480	29.834433	0.000456	4.559952	1.544953	-0.000183
 899	8.9351e+01	4.2095	29.612391	0.000557	5.573274	1.888276	-0.000223
 900	8.9451e+01	4.1710	29.394385	0.000547	5.471942	1.853944	-0.000219
 901	8.9550e+01	4.1341	29.208677	0.000466	4.661284	1.579286	-0.000187
 902	8.9650e+01	4.0924	28.994709	0.000537	5.370610	1.819612	-0.000215
 903	8.9749e+01	4.0507	28.756518	0.000598	5.978603	2.025606	-0.000239
 904	8.9849e+01	4.0138	28.595032	0.000405	4.053290	1.373292	-0.000162
 905	8.9948e+01	3.9737	28.377027	0.000547	5.471942	1.853944	-0.000219
 906	9.0047e+01	3.9159	28.163059	0.000537	5.370610	1.819612	-0.000215
 907	9.0147e+01	3.8951	27.969276	0.000486	4.863948	1.647950	-0.000195
 908	9.0246e+01	3.8453	27.751271	0.000547	5.471942	1.853944	-0.000219
 909	9.0346e+01	3.8117	27.533266	0.000547	5.471942	1.853944	-0.000219
 910	9.0445e+01	3.7748	27.311223	0.000557	5.573274	1.888276	-0.000223
 911	9.0545e+01	3.7379	27.093218	0.000547	5.471942	1.853944	-0.000219
 912	9.0644e+01	3.6913	26.875213	0.000547	5.471942	1.853944	-0.000219
 913	9.0744e+01	3.6609	26.677393	0.000497	4.965281	1.682283	-0.000199
 914	9.0844e+01	3.6143	26.459388	0.000547	5.471942	1.853944	-0.000219
 915	9.0943e+01	3.5774	26.233308	0.000567	5.674606	1.922609	-0.000227
 916	9.1043e+01	3.5309	26.031451	0.000507	5.066613	1.716615	-0.000203
 917	9.1142e+01	3.4956	25.853817	0.000446	4.458619	1.510621	-0.000179
 918	9.1242e+01	3.4571	25.603515	0.000628	6.282600	2.128603	-0.000252
 919	9.1341e+01	3.4138	25.417807	0.000466	4.661284	1.579286	-0.000187
 920	9.1441e+01	3.3673	25.219987	0.000497	4.965281	1.682283	-0.000199
 921	9.1540e+01	3.3352	24.969685	0.000628	6.282600	2.128603	-0.000252
 922	9.1639e+01	3.2871	24.779939	0.000476	4.762616	1.613618	-0.000191
 923	9.1739e+01	3.2582	24.561934	0.000547	5.471942	1.853944	-0.000219
 924	9.1838e+01	3.2101	24.364114	0.000497	4.965281	1.682283	-0.000199
 925	9.1938e+01	3.1780	24.146109	0.000547	5.471942	1.853944	-0.000219
 926	9.2037e+01	3.1347	23.932141	0.000537	5.370610	1.819612	-0.000215
 927	9.2137e+01	3.0978	23.710098	0.000557	5.573274	1.888276	-0.000223
 928	9.2237e+01	3.0625	23.471907	0.000598	5.978603	2.025606	-0.000239
 929	9.2336e+01	3.0144	23.261976	0.000527	5.269277	1.785280	-0.000211
 930	9.2436e+01	2.9726	23.056082	0.000517	5.167945	1.750947	-0.000207
 931	9.2535e+01	2.9406	22.842114	0.000537	5.370610	1.819612	-0.000215
 932	9.2635e+01	2.9005	22.616034	0.000567	5.674606	1.922609	-0.000227
 933	9.2734e+01	2.8539	22.389955	0.000567	5.674606	1.922609	-0.000227
 934	9.2834e+01	2.8170	22.159838	0.000578	5.775939	1.956941	-0.000231
 935	9.2933e+01	2.7817	21.966056	0.000486	4.863948	1.647950	-0.000195
 936	9.3032e+01	2.7352	21.756124	0.000527	5.269277	1.785280	-0.000211
 937	9.3132e+01	2.6871	21.513896	0.000608	6.079935	2.059938	-0.000243
 938	9.3231e+01	2.6678	21.316077	0.000497	4.965281	1.682283	-0.000199
 939	9.3331e+01	2.6197	21.094034	0.000557	5.573274	1.888276	-0.000223
 940	9.3430e+01	2.5876	20.835658	0.000649	6.485265	2.197267	-0.000260
 941	9.3530e+01	2.5427	20.613615	0.000557	5.573274	1.888276	-0.000223
 942	9.3629e+01	2.5010	20.391573	0.000557	5.573274	1.888276	-0.000223
 943	9.3729e+01	2.4513	20.209902	0.000456	4.559952	1.544953	-0.000183
 944	9.3829e+01	2.4144	19.987859	0.000557	5.573274	1.888276	-0.000223
 945	9.3928e+01	2.3807	19.781965	0.000517	5.167945	1.750947	-0.000207
 946	9.4028e+01	2.3342	19.531663	0.000628	6.282600	2.128603	-0.000252
 947	9.4127e+01	2.2989	19.313657	0.000547	5.471942	1.853944	-0.000219
 948	9.4227e+01	2.2572	19.079503	0.000588	5.877271	1.991273	-0.000235
 949	9.4326e+01	2.2203	18.865535	0.000537	5.370610	1.819612	-0.000215
 950	9.4425e+01	2.1721	18.623307	0.000608	6.079935	2.059938	-0.000243
 951	9.4525e+01	2.1465	18.409339	0.000537	5.370610	1.819612	-0.000215
 952	9.4624e+01	2.1031	18.191334	0.000547	5.471942	1.853944	-0.000219
 953	9.4724e+01	2.0663	17.949105	0.000608	6.079935	2.059938	-0.000243
 954	9.4823e+01	2.0181	17.735137	0.000537	5.370610	1.819612	-0.000215
 955	9.4923e+01	1.9732	17.513095	0.000557	5.573274	1.888276	-0.000223
 956	9.5022e+01	1.9411	17.262792	0.000628	6.282600	2.128603	-0.000252
 957	9.5122e+01	1.9010	17.060936	0.000507	5.066613	1.716615	-0.000203
 958	9.5222e+01	1.8593	16.818707	0.000608	6.079935	2.059938	-0.000243
 959	9.5321e+01	1.8192	16.604739	0.000537	5.370610	1.819612	-0.000215
 960	9.5421e+01	1.7855	16.394808	0.000527	5.269277	1.785280	-0.000211
 961	9.5520e+01	1.7358	16.160654	0.000588	5.877271	1.991273	-0.000235
 962	9.5620e+01	1.6973	15.922463	0.000598	5.978603	2.025606	-0.000239
 963	9.5719e+01	1.6684	15.728681	0.000486	4.863948	1.647950	-0.000195
 964	9.5819e+01	1.6203	15.494527	0.000588	5.877271	1.991273	-0.000235
 965	9.5918e+01	1.5818	15.252299	0.000608	6.079935	2.059938	-0.000243
 966	9.6017e+01	1.5401	15.006034	0.000618	6.181268	2.094270	-0.000248
 967	9.6117e+01	1.4967	14.824362	0.000456	4.559952	1.544953	-0.000183
 968	9.6216e+01	1.4679	14.598283	0.000567	5.674606	1.922609	-0.000227
 969	9.6316e+01	1.4197	14.384315	0.000537	5.370610	1.819612	-0.000215
 970	9.6415e+01	1.3845	14.113827	0.000679	6.789261	2.300264	-0.000272
 971	9.6515e+01	1.3443	13.875636	0.000598	5.978603	2.025606	-0.000239
 972	9.6615e+01	1.3074	13.633407	0.000608	6.079935	2.059938	-0.000243
 973	9.6714e+01	1.2689	13.419439	0.000537	5.370610	1.819612	-0.000215
 974	9.6814e+01	1.2256	13.193360	0.000567	5.674606	1.922609	-0.000227
 975	9.6913e+01	1.1823	12.999577	0.000486	4.863948	1.647950	-0.000195
 976	9.7013e+01	1.1550	12.753312	0.000618	6.181268	2.094270	-0.000248
 977	9.7112e+01	1.1053	12.498972	0.000638	6.383932	2.162935	-0.000256
 978	9.7212e+01	1.0620	12.297115	0.000507	5.066613	1.716615	-0.000203
 979	9.7311e+01	1.0203	12.050850	0.000618	6.181268	2.094270	-0.000248
 980	9.7410e+01	0.9882	11.816696	0.000588	5.877271	1.991273	-0.000235
 981	9.7510e+01	0.9465	11.582542	0.000588	5.877271	1.991273	-0.000235
 982	9.7609e+01	0.9048	11.360500	0.000557	5.573274	1.888276	-0.000223
 983	9.7709e+01	0.8583	11.106160	0.000638	6.383932	2.162935	-0.000256
 984	9.7808e+01	0.8182	10.920452	0.000466	4.661284	1.579286	-0.000187
 985	9.7908e+01	0.7797	10.654001	0.000669	6.687929	2.265932	-0.000268
 986	9.8007e+01	0.7460	10.427922	0.000567	5.674606	1.922609	-0.000227
 987	9.8107e+01	0.7043	10.185693	0.000608	6.079935	2.059938	-0.000243
 988	9.8207e+01	0.6674	9.983837	0.000507	5.066613	1.716615	-0.000203
 989	9.8306e+01	0.6208	9.705274	0.000699	6.991926	2.368929	-0.000280
 990	9.8406e+01	0.5871	9.475158	0.000578	5.775939	1.956941	-0.000231
 991	9.8505e+01	0.5503	9.236967	0.000598	5.978603	2.025606	-0.000239
 992	9.8605e+01	0.5085	8.994738	0.000608	6.079935	2.059938	-0.000243
 993	9.8704e+01	0.4636	8.788845	0.000517	5.167945	1.750947	-0.000207
 994	9.8803e+01	0.4315	8.534505	0.000638	6.383932	2.162935	-0.000256
 995	9.8903e+01	0.3914	8.284203	0.000628	6.282600	2.128603	-0.000252
 996	9.9002e+01	0.3401	8.098494	0.000466	4.661284	1.579286	-0.000187
 997	9.9102e+01	0.3032	7.844155	0.000638	6.383932	2.162935	-0.000256
 998	9.9201e+01	0.2663	7.610001	0.000588	5.877271	1.991273	-0.000235
 999	9.9301e+01	0.2214	7.319327	0.000730	7.295923	2.471925	-0.000292
1000	9.9400e+01	0.1829	7.145730	0.000436	4.357287	1.476289	-0.000174
1001	9.9500e+01	0.1364	6.887354	0.000649	6.485265	2.197267	-0.000260
1002	9.9600e+01	0.1107	6.653200	0.000588	5.877271	1.991273	-0.000235
1003	9.9699e+01	0.0690	6.398860	0.000638	6.383932	2.162935	-0.000256
1004	9.9799e+01	0.0176	6.180855	0.000547	5.471942	1.853944	-0.000219
1005	9.9898e+01	-0.0064	5.962849	0.000547	5.471942	1.853944	-0.000219
1006	9.9998e+01	-0.0465	5.732733	0.000578	5.775939	1.956941	-0.000231
1007	1.0010e+02	-0.0882	5.514727	0.000547	5.471942	1.853944	-0.000219
1008	1.0020e+02	-0.1332	5.260388	0.000638	6.383932	2.162935	-0.000256
1009	1.0030e+02	-0.1588	5.022197	0.000598	5.978603	2.025606	-0.000239
1010	1.0040e+02	-0.2021	4.735560	0.000719	7.194590	2.437593	-0.000288
1011	1.0050e+02	-0.2374	4.525629	0.000527	5.269277	1.785280	-0.000211
1012	1.0059e+02	-0.2839	4.291475	0.000588	5.877271	1.991273	-0.000235
1013	1.0069e+02	-0.3273	4.049247	0.000608	6.079935	2.059938	-0.000243
1014	1.0079e+02	-0.3561	3.807019	0.000608	6.079935	2.059938	-0.000243
1015	1.0089e+02	-0.4059	3.528457	0.000699	6.991926	2.368929	-0.000280
1016	1.0099e+02	-0.4428	3.330637	0.000497	4.965281	1.682283	-0.000199
1017	1.0109e+02	-0.4845	3.092446	0.000598	5.978603	2.025606	-0.000239
1018	1.0119e+02	-0.5198	2.838106	0.000638	6.383932	2.162935	-0.000256
1019	1.0129e+02	-0.5631	2.575693	0.000659	6.586597	2.231599	-0.000264
1020	1.0139e+02	-0.6112	2.325390	0.000628	6.282600	2.128603	-0.000252
1021	1.0149e+02	-0.6385	2.115459	0.000527	5.269277	1.785280	-0.000211
1022	1.0159e+02	-0.6850	1.832860	0.000709	7.093258	2.403261	-0.000284
1023	1.0169e+02	-0.7187	1.639077	0.000486	4.863948	1.647950	-0.000195
1024	1.0179e+02	-0.7620	1.396849	0.000608	6.079935	2.059938	-0.000243
1025	1.0189e+02	-0.8021	1.142509	0.000638	6.383932	2.162935	-0.000256
1026	1.0199e+02	-0.8454	0.884133	0.000649	6.485265	2.197267	-0.000260
1027	1.0209e+02	-0.8727	0.682276	0.000507	5.066613	1.716615	-0.000203
1028	1.0219e+02	-0.9240	0.423899	0.000649	6.485265	2.197267	-0.000260
1029	1.0229e+02	-0.9577	0.161485	0.000659	6.586597	2.231599	-0.000264
1030	1.0239e+02	-0.9978	-0.060557	0.000557	5.573274	1.888276	-0.000223
1031	1.0248e+02	-1.0428	-0.327008	0.000669	6.687929	2.265932	-0.000268
1032	1.0258e+02	-1.0829	-0.532902	0.000517	5.167945	1.750947	-0.000207
1033	1.0268e+02	-1.1246	-0.775130	0.000608	6.079935	2.059938	-0.000243
1034	1.0278e+02	-1.1631	-1.009284	0.000588	5.877271	1.991273	-0.000235
1035	1.0288e+02	-1.2064	-1.299958	0.000730	7.295923	2.471925	-0.000292
1036	1.0298e+02	-1.2481	-1.497777	0.000497	4.965281	1.682283	-0.000199
1037	1.0308e+02	-1.2834	-1.772303	0.000689	6.890594	2.334596	-0.000276
1038	1.0318e+02	-1.3219	-1.982234	0.000527	5.269277	1.785280	-0.000211
1039	1.0328e+02	-1.3604	-2.236573	0.000638	6.383932	2.162935	-0.000256
1040	1.0338e+02	-1.4005	-2.503024	0.000669	6.687929	2.265932	-0.000268
1041	1.0348e+02	-1.4390	-2.716992	0.000537	5.370610	1.819612	-0.000215
1042	1.0358e+02	-1.4823	-2.951146	0.000588	5.877271	1.991273	-0.000235
1043	1.0368e+02	-1.5160	-3.229709	0.000699	6.991926	2.368929	-0.000280
1044	1.0378e+02	-1.5593	-3.459825	0.000578	5.775939	1.956941	-0.000231
1045	1.0388e+02	-1.6074	-3.685905	0.000567	5.674606	1.922609	-0.000227
1046	1.0398e+02	-1.6411	-3.940244	0.000638	6.383932	2.162935	-0.000256
1047	1.0408e+02	-1.6828	-4.190547	0.000628	6.282600	2.128603	-0.000252
1048	1.0418e+02	-1.7181	-4.404515	0.000537	5.370610	1.819612	-0.000215
1049	1.0428e+02	-1.7550	-4.638669	0.000588	5.877271	1.991273	-0.000235
1050	1.0438e+02	-1.8032	-4.909157	0.000679	6.789261	2.300264	-0.000272
1051	1.0447e+02	-1.8385	-5.143311	0.000588	5.877271	1.991273	-0.000235
1052	1.0457e+02	-1.8786	-5.409762	0.000669	6.687929	2.265932	-0.000268
1053	1.0467e+02	-1.9203	-5.623730	0.000537	5.370610	1.819612	-0.000215
1054	1.0477e+02	-1.9604	-5.886144	0.000659	6.586597	2.231599	-0.000264
1055	1.0487e+02	-1.9973	-6.096075	0.000527	5.269277	1.785280	-0.000211
1056	1.0497e+02	-2.0502	-6.374637	0.000699	6.991926	2.368929	-0.000280
1057	1.0507e+02	-2.0855	-6.580531	0.000517	5.167945	1.750947	-0.000207
1058	1.0517e+02	-2.1192	-6.851019	0.000679	6.789261	2.300264	-0.000272
1059	1.0527e+02	-2.1577	-7.125545	0.000689	6.890594	2.334596	-0.000276
1060	1.0537e+02	-2.2042	-7.351624	0.000567	5.674606	1.922609	-0.000227
1061	1.0547e+02	-2.2379	-7.589815	0.000598	5.978603	2.025606	-0.000239
1062	1.0557e+02	-2.2684	-7.836080	0.000618	6.181268	2.094270	-0.000248
1063	1.0567e+02	-2.3149	-8.058123	0.000557	5.573274	1.888276	-0.000223
1064	1.0577e+02	-2.3598	-8.316500	0.000649	6.485265	2.197267	-0.000260
1065	1.0587e+02	-2.3999	-8.534505	0.000547	5.471942	1.853944	-0.000219
1066	1.0597e+02	-2.4384	-8.796919	0.000659	6.586597	2.231599	-0.000264
1067	1.0607e+02	-2.4817	-8.986664	0.000476	4.762616	1.613618	-0.000191
1068	1.0617e+02	-2.5202	-9.245041	0.000649	6.485265	2.197267	-0.000260
1069	1.0627e+02	-2.5523	-9.471120	0.000567	5.674606	1.922609	-0.000227
1070	1.0637e+02	-2.5956	-9.757757	0.000719	7.194590	2.437593	-0.000288
1071	1.0647e+02	-2.6358	-9.935391	0.000446	4.458619	1.510621	-0.000179
1072	1.0656e+02	-2.6775	-10.193768	0.000649	6.485265	2.197267	-0.000260
1073	1.0666e+02	-2.7144	-10.448107	0.000638	6.383932	2.162935	-0.000256
1074	1.0676e+02	-2.7657	-10.682261	0.000588	5.877271	1.991273	-0.000235
1075	1.0686e+02	-2.7962	-10.916415	0.000588	5.877271	1.991273	-0.000235
1076	1.0696e+02	-2.8379	-11.154606	0.000598	5.978603	2.025606	-0.000239
1077	1.0706e+02	-2.8716	-11.364537	0.000527	5.269277	1.785280	-0.000211
1078	1.0716e+02	-2.9165	-11.626951	0.000659	6.586597	2.231599	-0.000264
1079	1.0726e+02	-2.9566	-11.853031	0.000567	5.674606	1.922609	-0.000227
1080	1.0736e+02	-2.9999	-12.095259	0.000608	6.079935	2.059938	-0.000243
1081	1.0746e+02	-3.0368	-12.321338	0.000567	5.674606	1.922609	-0.000227
1082	1.0756e+02	-3.0753	-12.559529	0.000598	5.978603	2.025606	-0.000239
1083	1.0766e+02	-3.1218	-12.813869	0.000638	6.383932	2.162935	-0.000256
1084	1.0776e+02	-3.1507	-13.064171	0.000628	6.282600	2.128603	-0.000252
1085	1.0786e+02	-3.1972	-13.266028	0.000507	5.066613	1.716615	-0.000203
1086	1.0796e+02	-3.2406	-13.488071	0.000557	5.573274	1.888276	-0.000223
1087	1.0806e+02	-3.2774	-13.710113	0.000557	5.573274	1.888276	-0.000223
1088	1.0816e+02	-3.3192	-13.940230	0.000578	5.775939	1.956941	-0.000231
1089	1.0826e+02	-3.3448	-14.166309	0.000567	5.674606	1.922609	-0.000227
1090	1.0836e+02	-3.3946	-14.392389	0.000567	5.674606	1.922609	-0.000227
1091	1.0845e+02	-3.4379	-14.658840	0.000669	6.687929	2.265932	-0.000268
1092	1.0855e+02	-3.4700	-14.905105	0.000618	6.181268	2.094270	-0.000248
1093	1.0865e+02	-3.5101	-15.110999	0.000517	5.167945	1.750947	-0.000207
1094	1.0875e+02	-3.5534	-15.333042	0.000557	5.573274	1.888276	-0.000223
1095	1.0885e+02	-3.5935	-15.583344	0.000628	6.282600	2.128603	-0.000252
1096	1.0895e+02	-3.6304	-15.773089	0.000476	4.762616	1.613618	-0.000191
1097	1.0905e+02	-3.6625	-16.067800	0.000740	7.397255	2.506258	-0.000296
1098	1.0915e+02	-3.7090	-16.277731	0.000527	5.269277	1.785280	-0.000211
1099	1.0925e+02	-3.7475	-16.495737	0.000547	5.471942	1.853944	-0.000219
1100	1.0935e+02	-3.7940	-16.709705	0.000537	5.370610	1.819612	-0.000215
1101	1.0945e+02	-3.8325	-16.915599	0.000517	5.167945	1.750947	-0.000207
1102	1.0955e+02	-3.8662	-17.182050	0.000669	6.687929	2.265932	-0.000268
1103	1.0965e+02	-3.9159	-17.391981	0.000527	5.269277	1.785280	-0.000211
1104	1.0975e+02	-3.9528	-17.605949	0.000537	5.370610	1.819612	-0.000215
1105	1.0985e+02	-3.9913	-17.844140	0.000598	5.978603	2.025606	-0.000239
1106	1.0995e+02	-4.0314	-18.070220	0.000567	5.674606	1.922609	-0.000227
1107	1.1005e+02	-4.0731	-18.288225	0.000547	5.471942	1.853944	-0.000219
1108	1.1015e+02	-4.1052	-18.534490	0.000618	6.181268	2.094270	-0.000248
1109	1.1025e+02	-4.1534	-18.760570	0.000567	5.674606	1.922609	-0.000227
1110	1.1035e+02	-4.1999	-18.990687	0.000578	5.775939	1.956941	-0.000231
1111	1.1044e+02	-4.2400	-19.180432	0.000476	4.762616	1.613618	-0.000191
1112	1.1054e+02	-4.2721	-19.422660	0.000608	6.079935	2.059938	-0.000243
1113	1.1064e+02	-4.3106	-19.636628	0.000537	5.370610	1.819612	-0.000215
1114	1.1074e+02	-4.3523	-19.858671	0.000557	5.573274	1.888276	-0.000223
1115	1.1084e+02	-4.3812	-20.100899	0.000608	6.079935	2.059938	-0.000243
1116	1.1094e+02	-4.4277	-20.339090	0.000598	5.978603	2.025606	-0.000239
1117	1.1104e+02	-4.4790	-20.516724	0.000446	4.458619	1.510621	-0.000179
1118	1.1114e+02	-4.5159	-20.787212	0.000679	6.789261	2.300264	-0.000272
1119	1.1124e+02	-4.5432	-20.989069	0.000507	5.066613	1.716615	-0.000203
1120	1.1134e+02	-4.5865	-21.207074	0.000547	5.471942	1.853944	-0.000219
1121	1.1144e+02	-4.6314	-21.429116	0.000557	5.573274	1.888276	-0.000223
1122	1.1154e+02	-4.6731	-21.647122	0.000547	5.471942	1.853944	-0.000219
1123	1.1164e+02	-4.7052	-21.909536	0.000659	6.586597	2.231599	-0.000264
1124	1.1174e+02	-4.7469	-22.123504	0.000537	5.370610	1.819612	-0.000215
1125	1.1184e+02	-4.8031	-22.341509	0.000547	5.471942	1.853944	-0.000219
1126	1.1194e+02	-4.8255	-22.535292	0.000486	4.863948	1.647950	-0.000195
1127	1.1204e+02	-4.8608	-22.785594	0.000628	6.282600	2.128603	-0.000252
1128	1.1214e+02	-4.9025	-22.987451	0.000507	5.066613	1.716615	-0.000203
1129	1.1224e+02	-4.9458	-23.189308	0.000507	5.066613	1.716615	-0.000203
1130	1.1234e+02	-4.9908	-23.403276	0.000537	5.370610	1.819612	-0.000215
1131	1.1244e+02	-5.0245	-23.613207	0.000527	5.269277	1.785280	-0.000211
1132	1.1253e+02	-5.0694	-23.867546	0.000638	6.383932	2.162935	-0.000256
1133	1.1263e+02	-5.1063	-24.085552	0.000547	5.471942	1.853944	-0.000219
1134	1.1273e+02	-5.1464	-24.251074	0.000415	4.154623	1.407624	-0.000166
1135	1.1283e+02	-5.1881	-24.481191	0.000578	5.775939	1.956941	-0.000231
1136	1.1293e+02	-5.2314	-24.674974	0.000486	4.863948	1.647950	-0.000195
1137	1.1303e+02	-5.2619	-24.848570	0.000436	4.357287	1.476289	-0.000174
1138	1.1313e+02	-5.3052	-25.094836	0.000618	6.181268	2.094270	-0.000248
1139	1.1323e+02	-5.3469	-25.312841	0.000547	5.471942	1.853944	-0.000219
1140	1.1333e+02	-5.3918	-25.551032	0.000598	5.978603	2.025606	-0.000239
1141	1.1343e+02	-5.4191	-25.777112	0.000567	5.674606	1.922609	-0.000227
1142	1.1353e+02	-5.4672	-26.003191	0.000567	5.674606	1.922609	-0.000227
1143	1.1363e+02	-5.5057	-26.176788	0.000436	4.357287	1.476289	-0.000174
1144	1.1373e+02	-5.5410	-26.358459	0.000456	4.559952	1.544953	-0.000183
1145	1.1383e+02	-5.5891	-26.612799	0.000638	6.383932	2.162935	-0.000256
1146	1.1393e+02	-5.6228	-26.846953	0.000588	5.877271	1.991273	-0.000235
1147	1.1403e+02	-5.6678	-27.008438	0.000405	4.053290	1.373292	-0.000162
1148	1.1413e+02	-5.7014	-27.238555	0.000578	5.775939	1.956941	-0.000231
1149	1.1423e+02	-5.7512	-27.428300	0.000476	4.762616	1.613618	-0.000191
1150	1.1433e+02	-5.7817	-27.646306	0.000547	5.471942	1.853944	-0.000219
1151	1.1442e+02	-5.8202	-27.856237	0.000527	5.269277	1.785280	-0.000211
1152	1.1452e+02	-5.8651	-28.106539	0.000628	6.282600	2.128603	-0.000252
1153	1.1462e+02	-5.9036	-28.296284	0.000476	4.762616	1.613618	-0.000191
1154	1.1472e+02	-5.9453	-28.473918	0.000446	4.458619	1.510621	-0.000179
1155	1.1482e+02	-5.9838	-28.712109	0.000598	5.978603	2.025606	-0.000239
1156	1.1492e+02	-6.0255	-28.930115	0.000547	5.471942	1.853944	-0.000219
1157	1.1502e+02	-6.0560	-29.115823	0.000466	4.661284	1.579286	-0.000187
1158	1.1512e+02	-6.0977	-29.362088	0.000618	6.181268	2.094270	-0.000248
1159	1.1522e+02	-6.1410	-29.535685	0.000436	4.357287	1.476289	-0.000174
1160	1.1532e+02	-6.1779	-29.733505	0.000497	4.965281	1.682283	-0.000199
1161	1.1542e+02	-6.2164	-29.967659	0.000588	5.877271	1.991273	-0.000235
1162	1.1552e+02	-6.2597	-30.193738	0.000567	5.674606	1.922609	-0.000227
1163	1.1562e+02	-6.3030	-30.379446	0.000466	4.661284	1.579286	-0.000187
1164	1.1572e+02	-6.3479	-30.601489	0.000557	5.573274	1.888276	-0.000223
1165	1.1582e+02	-6.3784	-30.803346	0.000507	5.066613	1.716615	-0.000203
1166	1.1592e+02	-6.4217	-31.033462	0.000578	5.775939	1.956941	-0.000231
1167	1.1602e+02	-6.4570	-31.211096	0.000446	4.458619	1.510621	-0.000179
1168	1.1612e+02	-6.4987	-31.429102	0.000547	5.471942	1.853944	-0.000219
1169	1.1622e+02	-6.5389	-31.675367	0.000618	6.181268	2.094270	-0.000248
1170	1.1632e+02	-6.5822	-31.840890	0.000415	4.154623	1.407624	-0.000166
1171	1.1642e+02	-6.6223	-32.046783	0.000517	5.167945	1.750947	-0.000207
1172	1.1651e+02	-6.6640	-32.236529	0.000476	4.762616	1.613618	-0.000191
1173	1.1661e+02	-6.7009	-32.418200	0.000456	4.559952	1.544953	-0.000183
1174	1.1671e+02	-6.7378	-32.668502	0.000628	6.282600	2.128603	-0.000252
1175	1.1681e+02	-6.7779	-32.878433	0.000527	5.269277	1.785280	-0.000211
1176	1.1691e+02	-6.8212	-33.088365	0.000527	5.269277	1.785280	-0.000211
1177	1.1701e+02	-6.8613	-33.265998	0.000446	4.458619	1.510621	-0.000179
1178	1.1711e+02	-6.8902	-33.459781	0.000486	4.863948	1.647950	-0.000195
1179	1.1721e+02	-6.9431	-33.710083	0.000628	6.282600	2.128603	-0.000252
1180	1.1731e+02	-6.9752	-33.915977	0.000517	5.167945	1.750947	-0.000207
1181	1.1741e+02	-7.0201	-34.057277	0.000355	3.546629	1.201630	-0.000142
1182	1.1751e+02	-7.0570	-34.307580	0.000628	6.282600	2.128603	-0.000252
1183	1.1761e+02	-7.1051	-34.537696	0.000578	5.775939	1.956941	-0.000231
1184	1.1771e+02	-7.1340	-34.699182	0.000405	4.053290	1.373292	-0.000162
1185	1.1781e+02	-7.1822	-34.892964	0.000486	4.863948	1.647950	-0.000195
1186	1.1791e+02	-7.2126	-35.090784	0.000497	4.965281	1.682283	-0.000199
1187	1.1801e+02	-7.2575	-35.316863	0.000567	5.674606	1.922609	-0.000227
1188	1.1811e+02	-7.2993	-35.510646	0.000486	4.863948	1.647950	-0.000195
1189	1.1821e+02	-7.3297	-35.712503	0.000507	5.066613	1.716615	-0.000203
1190	1.1831e+02	-7.3747	-35.918397	0.000517	5.167945	1.750947	-0.000207
1191	1.1841e+02	-7.4100	-36.140439	0.000557	5.573274	1.888276	-0.000223
1192	1.1850e+02	-7.4533	-36.309999	0.000426	4.255955	1.441957	-0.000170
1193	1.1860e+02	-7.4934	-36.515893	0.000517	5.167945	1.750947	-0.000207
1194	1.1870e+02	-7.5399	-36.709675	0.000486	4.863948	1.647950	-0.000195
1195	1.1880e+02	-7.5736	-36.939792	0.000578	5.775939	1.956941	-0.000231
1196	1.1890e+02	-7.6153	-37.105315	0.000415	4.154623	1.407624	-0.000166
1197	1.1900e+02	-7.6586	-37.303134	0.000497	4.965281	1.682283	-0.000199
1198	1.1910e+02	-7.6939	-37.525177	0.000557	5.573274	1.888276	-0.000223
1199	1.1920e+02	-7.7452	-37.718959	0.000486	4.863948	1.647950	-0.000195
1200	1.1930e+02	-7.7773	-37.916779	0.000497	4.965281	1.682283	-0.000199
1201	1.1940e+02	-7.8174	-38.130747	0.000537	5.370610	1.819612	-0.000215
1202	1.1950e+02	-7.8720	-38.324530	0.000486	4.863948	1.647950	-0.000195
1203	1.1960e+02	-7.8992	-38.502164	0.000446	4.458619	1.510621	-0.000179
1204	1.1970e+02	-7.9393	-38.699983	0.000497	4.965281	1.682283	-0.000199
1205	1.1980e+02	-7.9746	-38.913951	0.000537	5.370610	1.819612	-0.000215
1206	1.1990e+02	-8.0131	-39.148105	0.000588	5.877271	1.991273	-0.000235
1207	1.2000e+02	-8.0549	-39.341888	0.000486	4.863948	1.647950	-0.000195
1208	1.2010e+02	-8.0901	-39.523559	0.000456	4.559952	1.544953	-0.000183
1209	1.2020e+02	-8.1383	-39.701193	0.000446	4.458619	1.510621	-0.000179
1210	1.2030e+02	-8.1704	-39.919198	0.000547	5.471942	1.853944	-0.000219
1211	1.2039e+02	-8.2137	-40.104906	0.000466	4.661284	1.579286	-0.000187
1212	1.2049e+02	-8.2522	-40.335023	0.000578	5.775939	1.956941	-0.000231
1213	1.2059e+02	-8.2907	-40.528806	0.000486	4.863948	1.647950	-0.000195
1214	1.2069e+02	-8.3372	-40.734700	0.000517	5.167945	1.750947	-0.000207
1215	1.2079e+02	-8.3741	-40.932519	0.000497	4.965281	1.682283	-0.000199
1216	1.2089e+02	-8.4126	-41.126302	0.000486	4.863948	1.647950	-0.000195
1217	1.2099e+02	-8.4463	-41.332196	0.000517	5.167945	1.750947	-0.000207
1218	1.2109e+02	-8.4864	-41.534052	0.000507	5.066613	1.716615	-0.000203
1219	1.2119e+02	-8.5313	-41.748021	0.000537	5.370610	1.819612	-0.000215
1220	1.2129e+02	-8.5842	-41.929692	0.000456	4.559952	1.544953	-0.000183
1221	1.2139e+02	-8.6147	-42.087140	0.000395	3.951958	1.338960	-0.000158
1222	1.2149e+02	-8.6532	-42.309183	0.000557	5.573274	1.888276	-0.000223
1223	1.2159e+02	-8.6885	-42.523151	0.000537	5.370610	1.819612	-0.000215
1224	1.2169e+02	-8.7367	-42.688673	0.000415	4.154623	1.407624	-0.000166
1225	1.2179e+02	-8.7703	-42.890530	0.000507	5.066613	1.716615	-0.000203
1226	1.2189e+02	-8.8121	-43.104498	0.000537	5.370610	1.819612	-0.000215
1227	1.2199e+02	-8.8538	-43.306355	0.000507	5.066613	1.716615	-0.000203
1228	1.2209e+02	-8.8891	-43.508212	0.000507	5.066613	1.716615	-0.000203
1229	1.2219e+02	-8.9324	-43.734291	0.000567	5.674606	1.922609	-0.000227
1230	1.2229e+02	-8.9564	-43.924037	0.000476	4.762616	1.613618	-0.000191
1231	1.2239e+02	-9.0174	-44.117819	0.000486	4.863948	1.647950	-0.000195
1232	1.2248e+02	-9.0511	-44.267193	0.000375	3.749294	1.270295	-0.000150
1233	1.2258e+02	-9.0976	-44.513459	0.000618	6.181268	2.094270	-0.000248
1234	1.2268e+02	-9.1217	-44.658796	0.000365	3.647961	1.235963	-0.000146
1235	1.2278e+02	-9.1682	-44.876801	0.000547	5.471942	1.853944	-0.000219
1236	1.2288e+02	-9.2147	-45.082695	0.000517	5.167945	1.750947	-0.000207
1237	1.2298e+02	-9.2532	-45.276477	0.000486	4.863948	1.647950	-0.000195
1238	1.2308e+02	-9.2901	-45.490445	0.000537	5.370610	1.819612	-0.000215
1239	1.2318e+02	-9.3350	-45.647894	0.000395	3.951958	1.338960	-0.000158
1240	1.2328e+02	-9.3639	-45.865899	0.000547	5.471942	1.853944	-0.000219
1241	1.2338e+02	-9.4088	-46.039496	0.000436	4.357287	1.476289	-0.000174
1242	1.2348e+02	-9.4489	-46.221167	0.000456	4.559952	1.544953	-0.000183
1243	1.2358e+02	-9.4890	-46.467432	0.000618	6.181268	2.094270	-0.000248
1244	1.2368e+02	-9.5324	-46.620844	0.000385	3.850626	1.304627	-0.000154
1245	1.2378e+02	-9.5612	-46.854997	0.000588	5.877271	1.991273	-0.000235
1246	1.2388e+02	-9.6142	-46.980149	0.000314	3.141300	1.064301	-0.000126
1247	1.2398e+02	-9.6495	-47.190080	0.000527	5.269277	1.785280	-0.000211
1248	1.2408e+02	-9.6864	-47.404048	0.000537	5.370610	1.819612	-0.000215
1249	1.2418e+02	-9.7297	-47.581682	0.000446	4.458619	1.510621	-0.000179
1250	1.2428e+02	-9.7634	-47.779501	0.000497	4.965281	1.682283	-0.000199
1251	1.2438e+02	-9.7922	-47.953098	0.000436	4.357287	1.476289	-0.000174
1252	1.2447e+02	-9.8516	-48.179178	0.000567	5.674606	1.922609	-0.000227
1253	1.2457e+02	-9.8853	-48.348738	0.000426	4.255955	1.441957	-0.000170
1254	1.2467e+02	-9.9286	-48.574817	0.000567	5.674606	1.922609	-0.000227
1255	1.2477e+02	-9.9559	-48.780711	0.000517	5.167945	1.750947	-0.000207
1256	1.2487e+02	-10.0088	-48.946234	0.000415	4.154623	1.407624	-0.000166
1257	1.2497e+02	-10.0425	-49.111756	0.000415	4.154623	1.407624	-0.000166
1258	1.2507e+02	-10.0938	-49.345910	0.000588	5.877271	1.991273	-0.000235
1259	1.2517e+02	-10.1275	-49.527581	0.000456	4.559952	1.544953	-0.000183
1260	1.2527e+02	-10.1692	-49.689067	0.000405	4.053290	1.373292	-0.000162
1261	1.2537e+02	-10.1997	-49.866701	0.000446	4.458619	1.510621	-0.000179
1262	1.2547e+02	-10.2527	-50.104892	0.000598	5.978603	2.025606	-0.000239
1263	1.2557e+02	-10.2928	-50.302711	0.000497	4.965281	1.682283	-0.000199
1264	1.2567e+02	-10.3248	-50.452085	0.000375	3.749294	1.270295	-0.000150
1265	1.2577e+02	-10.3649	-50.633756	0.000456	4.559952	1.544953	-0.000183
1266	1.2587e+02	-10.4083	-50.839650	0.000517	5.167945	1.750947	-0.000207
1267	1.2597e+02	-10.4468	-51.049581	0.000527	5.269277	1.785280	-0.000211
1268	1.2607e+02	-10.4901	-51.223178	0.000436	4.357287	1.476289	-0.000174
1269	1.2617e+02	-10.5270	-51.380627	0.000395	3.951958	1.338960	-0.000158
1270	1.2627e+02	-10.5623	-51.614780	0.000588	5.877271	1.991273	-0.000235
1271	1.2636e+02	-10.6008	-51.792414	0.000446	4.458619	1.510621	-0.000179
1272	1.2646e+02	-10.6441	-51.961974	0.000426	4.255955	1.441957	-0.000170
1273	1.2656e+02	-10.6810	-52.188054	0.000567	5.674606	1.922609	-0.000227
1274	1.2666e+02	-10.7259	-52.349539	0.000405	4.053290	1.373292	-0.000162
1275	1.2676e+02	-10.7596	-52.547359	0.000497	4.965281	1.682283	-0.000199
1276	1.2686e+02	-10.8029	-52.708844	0.000405	4.053290	1.373292	-0.000162
1277	1.2696e+02	-10.8494	-52.906664	0.000497	4.965281	1.682283	-0.000199
1278	1.2706e+02	-10.8847	-53.092372	0.000466	4.661284	1.579286	-0.000187
1279	1.2716e+02	-10.9216	-53.314415	0.000557	5.573274	1.888276	-0.000223
1280	1.2726e+02	-10.9697	-53.463789	0.000375	3.749294	1.270295	-0.000150
1281	1.2736e+02	-11.0131	-53.653534	0.000476	4.762616	1.613618	-0.000191
1282	1.2746e+02	-11.0467	-53.831168	0.000446	4.458619	1.510621	-0.000179
1283	1.2756e+02	-11.0836	-54.049173	0.000547	5.471942	1.853944	-0.000219
1284	1.2766e+02	-11.1205	-54.222770	0.000436	4.357287	1.476289	-0.000174
1285	1.2776e+02	-11.1606	-54.448850	0.000567	5.674606	1.922609	-0.000227
1286	1.2786e+02	-11.1991	-54.646669	0.000497	4.965281	1.682283	-0.000199
1287	1.2796e+02	-11.2312	-54.796043	0.000375	3.749294	1.270295	-0.000150
1288	1.2806e+02	-11.2842	-54.965603	0.000426	4.255955	1.441957	-0.000170
1289	1.2816e+02	-11.3243	-55.195720	0.000578	5.775939	1.956941	-0.000231
1290	1.2826e+02	-11.3596	-55.349131	0.000385	3.850626	1.304627	-0.000154
1291	1.2835e+02	-11.3868	-55.559062	0.000527	5.269277	1.785280	-0.000211
1292	1.2845e+02	-11.4414	-55.732659	0.000436	4.357287	1.476289	-0.000174
1293	1.2855e+02	-11.4767	-55.946627	0.000537	5.370610	1.819612	-0.000215
1294	1.2865e+02	-11.5200	-56.096001	0.000375	3.749294	1.270295	-0.000150
1295	1.2875e+02	-11.5633	-56.269598	0.000436	4.357287	1.476289	-0.000174
1296	1.2885e+02	-11.6066	-56.511826	0.000608	6.079935	2.059938	-0.000243
1297	1.2895e+02	-11.6355	-56.669274	0.000395	3.951958	1.338960	-0.000158
1298	1.2905e+02	-11.6756	-56.834797	0.000415	4.154623	1.407624	-0.000166
1299	1.2915e+02	-11.7237	-57.016468	0.000456	4.559952	1.544953	-0.000183
1300	1.2925e+02	-11.7638	-57.210251	0.000486	4.863948	1.647950	-0.000195
1301	1.2935e+02	-11.8007	-57.399996	0.000476	4.762616	1.613618	-0.000191
1302	1.2945e+02	-11.8376	-57.569556	0.000426	4.255955	1.441957	-0.000170
1303	1.2955e+02	-11.8729	-57.731041	0.000405	4.053290	1.373292	-0.000162
1304	1.2965e+02	-11.9211	-57.957121	0.000567	5.674606	1.922609	-0.000227
1305	1.2975e+02	-11.9612	-58.094383	0.000345	3.445297	1.167298	-0.000138
1306	1.2985e+02	-11.9965	-58.296240	0.000507	5.066613	1.716615	-0.000203
1307	1.2995e+02	-12.0446	-58.445614	0.000375	3.749294	1.270295	-0.000150
1308	1.3005e+02	-12.0799	-58.651508	0.000517	5.167945	1.750947	-0.000207
1309	1.3015e+02	-12.1087	-58.784733	0.000334	3.343965	1.132966	-0.000134
1310	1.3025e+02	-12.1617	-58.986590	0.000507	5.066613	1.716615	-0.000203
1311	1.3034e+02	-12.1986	-59.172299	0.000466	4.661284	1.579286	-0.000187
1312	1.3044e+02	-12.2419	-59.382230	0.000527	5.269277	1.785280	-0.000211
1313	1.3054e+02	-12.2756	-59.551789	0.000426	4.255955	1.441957	-0.000170
1314	1.3064e+02	-12.3221	-59.769795	0.000547	5.471942	1.853944	-0.000219
1315	1.3074e+02	-12.3622	-59.919169	0.000375	3.749294	1.270295	-0.000150
1316	1.3084e+02	-12.3959	-60.108914	0.000476	4.762616	1.613618	-0.000191
1317	1.3094e+02	-12.4408	-60.266362	0.000395	3.951958	1.338960	-0.000158
1318	1.3104e+02	-12.4777	-60.476293	0.000527	5.269277	1.785280	-0.000211
1319	1.3114e+02	-12.5146	-60.694299	0.000547	5.471942	1.853944	-0.000219
1320	1.3124e+02	-12.5563	-60.819450	0.000314	3.141300	1.064301	-0.000126
1321	1.3134e+02	-12.5996	-60.997084	0.000446	4.458619	1.510621	-0.000179
1322	1.3144e+02	-12.6349	-61.158569	0.000405	4.053290	1.373292	-0.000162
1323	1.3154e+02	-12.6783	-61.364463	0.000517	5.167945	1.750947	-0.000207
1324	1.3164e+02	-12.7200	-61.554209	0.000476	4.762616	1.613618	-0.000191
1325	1.3174e+02	-12.7649	-61.723768	0.000426	4.255955	1.441957	-0.000170
1326	1.3184e+02	-12.7986	-61.905439	0.000456	4.559952	1.544953	-0.000183
1327	1.3194e+02	-12.8355	-62.066925	0.000405	4.053290	1.373292	-0.000162
1328	1.3204e+02	-12.8804	-62.248596	0.000456	4.559952	1.544953	-0.000183
1329	1.3214e+02	-12.9221	-62.454490	0.000517	5.167945	1.750947	-0.000207
1330	1.3224e+02	-12.9558	-62.595790	0.000355	3.546629	1.201630	-0.000142
1331	1.3234e+02	-12.9943	-62.797646	0.000507	5.066613	1.716615	-0.000203
1332	1.3243e+02	-13.0264	-62.983355	0.000466	4.661284	1.579286	-0.000187
1333	1.3253e+02	-13.0729	-63.140803	0.000395	3.951958	1.338960	-0.000158
1334	1.3263e+02	-13.1034	-63.310363	0.000426	4.255955	1.441957	-0.000170
1335	1.3273e+02	-13.1547	-63.471848	0.000405	4.053290	1.373292	-0.000162
1336	1.3283e+02	-13.1996	-63.665631	0.000486	4.863948	1.647950	-0.000195
1337	1.3293e+02	-13.2317	-63.867487	0.000507	5.066613	1.716615	-0.000203
1338	1.3303e+02	-13.2750	-64.041084	0.000436	4.357287	1.476289	-0.000174
1339	1.3313e+02	-13.3167	-64.214681	0.000436	4.357287	1.476289	-0.000174
1340	1.3323e+02	-13.3552	-64.380204	0.000415	4.154623	1.407624	-0.000166
1341	1.3333e+02	-13.3969	-64.529578	0.000375	3.749294	1.270295	-0.000150
1342	1.3343e+02	-13.4354	-64.751620	0.000557	5.573274	1.888276	-0.000223
1343	1.3353e+02	-13.4740	-64.921180	0.000426	4.255955	1.441957	-0.000170
1344	1.3363e+02	-13.5108	-65.110925	0.000476	4.762616	1.613618	-0.000191
1345	1.3373e+02	-13.5477	-65.272411	0.000405	4.053290	1.373292	-0.000162
1346	1.3383e+02	-13.5959	-65.482342	0.000527	5.269277	1.785280	-0.000211
1347	1.3393e+02	-13.6328	-65.611530	0.000324	3.242632	1.098634	-0.000130
1348	1.3403e+02	-13.6745	-65.805313	0.000486	4.863948	1.647950	-0.000195
1349	1.3413e+02	-13.7210	-65.966798	0.000405	4.053290	1.373292	-0.000162
1350	1.3423e+02	-13.7531	-66.184803	0.000547	5.471942	1.853944	-0.000219
1351	1.3432e+02	-13.7884	-66.346289	0.000405	4.053290	1.373292	-0.000162
1352	1.3442e+02	-13.8301	-66.531997	0.000466	4.661284	1.579286	-0.000187
1353	1.3452e+02	-13.8670	-66.689445	0.000395	3.951958	1.338960	-0.000158
1354	1.3462e+02	-13.9039	-66.834782	0.000365	3.647961	1.235963	-0.000146
1355	1.3472e+02	-13.9488	-67.068936	0.000588	5.877271	1.991273	-0.000235
1356	1.3482e+02	-13.9969	-67.190050	0.000304	3.039968	1.029969	-0.000122
1357	1.3492e+02	-14.0290	-67.424204	0.000588	5.877271	1.991273	-0.000235
1358	1.3502e+02	-14.0691	-67.569541	0.000365	3.647961	1.235963	-0.000146
1359	1.3512e+02	-14.1060	-67.771398	0.000507	5.066613	1.716615	-0.000203
1360	1.3522e+02	-14.1509	-67.900586	0.000324	3.242632	1.098634	-0.000130
1361	1.3532e+02	-14.1894	-68.058034	0.000395	3.951958	1.338960	-0.000158
1362	1.3542e+02	-14.2328	-68.251817	0.000486	4.863948	1.647950	-0.000195
1363	1.3552e+02	-14.2664	-68.441562	0.000476	4.762616	1.613618	-0.000191
1364	1.3562e+02	-14.3162	-68.599010	0.000395	3.951958	1.338960	-0.000158
1365	1.3572e+02	-14.3499	-68.780682	0.000456	4.559952	1.544953	-0.000183
1366	1.3582e+02	-14.3916	-68.978501	0.000497	4.965281	1.682283	-0.000199
1367	1.3592e+02	-14.4301	-69.148061	0.000426	4.255955	1.441957	-0.000170
1368	1.3602e+02	-14.4686	-69.297435	0.000375	3.749294	1.270295	-0.000150
1369	1.3612e+02	-14.5135	-69.487180	0.000476	4.762616	1.613618	-0.000191
1370	1.3622e+02	-14.5520	-69.656740	0.000426	4.255955	1.441957	-0.000170
1371	1.3631e+02	-14.5937	-69.822263	0.000415	4.154623	1.407624	-0.000166
1372	1.3641e+02	-14.6226	-69.971637	0.000375	3.749294	1.270295	-0.000150
1373	1.3651e+02	-14.6611	-70.141196	0.000426	4.255955	1.441957	-0.000170
1374	1.3661e+02	-14.7124	-70.326905	0.000466	4.661284	1.579286	-0.000187
1375	1.3671e+02	-14.7493	-70.508576	0.000456	4.559952	1.544953	-0.000183
1376	1.3681e+02	-14.7846	-70.686210	0.000446	4.458619	1.510621	-0.000179
1377	1.3691e+02	-14.8263	-70.875955	0.000476	4.762616	1.613618	-0.000191
1378	1.3701e+02	-14.8696	-71.041478	0.000415	4.154623	1.407624	-0.000166
1379	1.3711e+02	-14.9081	-71.227186	0.000466	4.661284	1.579286	-0.000187
1380	1.3721e+02	-14.9498	-71.404820	0.000446	4.458619	1.510621	-0.000179
1381	1.3731e+02	-14.9883	-71.554194	0.000375	3.749294	1.270295	-0.000150
1382	1.3741e+02	-15.0349	-71.735865	0.000456	4.559952	1.544953	-0.000183
1383	1.3751e+02	-15.0670	-71.893313	0.000395	3.951958	1.338960	-0.000158
1384	1.3761e+02	-15.1055	-72.103244	0.000527	5.269277	1.785280	-0.000211
1385	1.3771e+02	-15.1472	-72.268767	0.000415	4.154623	1.407624	-0.000166
1386	1.3781e+02	-15.1857	-72.458512	0.000476	4.762616	1.613618	-0.000191
1387	1.3791e+02	-15.2306	-72.579626	0.000304	3.039968	1.029969	-0.000122
1388	1.3801e+02	-15.2659	-72.785520	0.000517	5.167945	1.750947	-0.000207
1389	1.3811e+02	-15.3076	-72.955080	0.000426	4.255955	1.441957	-0.000170
1390	1.3821e+02	-15.3541	-73.092343	0.000345	3.445297	1.167298	-0.000138
1391	1.3831e+02	-15.3814	-73.306311	0.000537	5.370610	1.819612	-0.000215
1392	1.3840e+02	-15.4231	-73.512205	0.000517	5.167945	1.750947	-0.000207
1393	1.3850e+02	-15.4664	-73.681764	0.000426	4.255955	1.441957	-0.000170
1394	1.3860e+02	-15.5049	-73.810953	0.000324	3.242632	1.098634	-0.000130
1395	1.3870e+02	-15.5434	-74.008772	0.000497	4.965281	1.682283	-0.000199
1396	1.3880e+02	-15.5819	-74.182369	0.000436	4.357287	1.476289	-0.000174
1397	1.3890e+02	-15.6268	-74.311558	0.000324	3.242632	1.098634	-0.000130
1398	1.3900e+02	-15.6782	-74.541674	0.000578	5.775939	1.956941	-0.000231
1399	1.3910e+02	-15.7086	-74.682974	0.000355	3.546629	1.201630	-0.000142
1400	1.3920e+02	-15.7439	-74.872719	0.000476	4.762616	1.613618	-0.000191
1401	1.3930e+02	-15.7921	-75.038242	0.000415	4.154623	1.407624	-0.000166
1402	1.3940e+02	-15.8209	-75.183579	0.000365	3.647961	1.235963	-0.000146
1403	1.3950e+02	-15.8659	-75.381399	0.000497	4.965281	1.682283	-0.000199
1404	1.3960e+02	-15.9012	-75.498475	0.000294	2.938635	0.995637	-0.000118
1405	1.3970e+02	-15.9364	-75.700332	0.000507	5.066613	1.716615	-0.000203
1406	1.3980e+02	-15.9782	-75.849706	0.000375	3.749294	1.270295	-0.000150
1407	1.3990e+02	-16.0263	-76.031377	0.000456	4.559952	1.544953	-0.000183
1408	1.4000e+02	-16.0664	-76.204974	0.000436	4.357287	1.476289	-0.000174
1409	1.4010e+02	-16.1113	-76.394720	0.000476	4.762616	1.613618	-0.000191
1410	1.4020e+02	-16.1386	-76.548131	0.000385	3.850626	1.304627	-0.000154
1411	1.4029e+02	-16.1867	-76.737876	0.000476	4.762616	1.613618	-0.000191
1412	1.4039e+02	-16.2204	-76.911473	0.000436	4.357287	1.476289	-0.000174
1413	1.4049e+02	-16.2557	-77.093144	0.000456	4.559952	1.544953	-0.000183
1414	1.4059e+02	-16.3086	-77.222332	0.000324	3.242632	1.098634	-0.000130
1415	1.4069e+02	-16.3439	-77.404004	0.000456	4.559952	1.544953	-0.000183
1416	1.4079e+02	-16.3872	-77.545303	0.000355	3.546629	1.201630	-0.000142
1417	1.4089e+02	-16.4177	-77.726974	0.000456	4.559952	1.544953	-0.000183
1418	1.4099e+02	-16.4626	-77.880386	0.000385	3.850626	1.304627	-0.000154
1419	1.4109e+02	-16.5060	-78.074168	0.000486	4.863948	1.647950	-0.000195
1420	1.4119e+02	-16.5428	-78.280062	0.000517	5.167945	1.750947	-0.000207
1421	1.4129e+02	-16.5749	-78.417325	0.000345	3.445297	1.167298	-0.000138
1422	1.4139e+02	-16.6166	-78.603033	0.000466	4.661284	1.579286	-0.000187
1423	1.4149e+02	-16.6616	-78.756444	0.000385	3.850626	1.304627	-0.000154
1424	1.4159e+02	-16.7081	-78.889669	0.000334	3.343965	1.132966	-0.000134
1425	1.4169e+02	-16.7434	-79.071341	0.000456	4.559952	1.544953	-0.000183
1426	1.4179e+02	-16.7787	-79.253012	0.000456	4.559952	1.544953	-0.000183
1427	1.4189e+02	-16.8140	-79.442757	0.000476	4.762616	1.613618	-0.000191
1428	1.4199e+02	-16.8477	-79.604242	0.000405	4.053290	1.373292	-0.000162
1429	1.4209e+02	-16.9166	-79.749579	0.000365	3.647961	1.235963	-0.000146
1430	1.4219e+02	-16.9439	-79.931250	0.000456	4.559952	1.544953	-0.000183
1431	1.4228e+02	-16.9952	-80.104847	0.000436	4.357287	1.476289	-0.000174
1432	1.4238e+02	-17.0177	-80.266333	0.000405	4.053290	1.373292	-0.000162
1433	1.4248e+02	-17.0498	-80.411670	0.000365	3.647961	1.235963	-0.000146
1434	1.4258e+02	-17.0963	-80.561044	0.000375	3.749294	1.270295	-0.000150
1435	1.4268e+02	-17.1412	-80.746752	0.000466	4.661284	1.579286	-0.000187
1436	1.4278e+02	-17.1781	-80.916312	0.000426	4.255955	1.441957	-0.000170
1437	1.4288e+02	-17.2230	-81.097983	0.000456	4.559952	1.544953	-0.000183
1438	1.4298e+02	-17.2599	-81.211023	0.000284	2.837303	0.961304	-0.000114
1439	1.4308e+02	-17.2968	-81.384619	0.000436	4.357287	1.476289	-0.000174
1440	1.4318e+02	-17.3369	-81.582439	0.000497	4.965281	1.682283	-0.000199
1441	1.4328e+02	-17.3787	-81.743924	0.000405	4.053290	1.373292	-0.000162
1442	1.4338e+02	-17.4188	-81.913484	0.000426	4.255955	1.441957	-0.000170
1443	1.4348e+02	-17.4621	-82.062858	0.000375	3.749294	1.270295	-0.000150
1444	1.4358e+02	-17.4910	-82.240492	0.000446	4.458619	1.510621	-0.000179
1445	1.4368e+02	-17.5343	-82.397940	0.000395	3.951958	1.338960	-0.000158
1446	1.4378e+02	-17.5776	-82.563463	0.000415	4.154623	1.407624	-0.000166
1447	1.4388e+02	-17.6193	-82.712837	0.000375	3.749294	1.270295	-0.000150
1448	1.4398e+02	-17.6578	-82.870285	0.000395	3.951958	1.338960	-0.000158
1449	1.4408e+02	-17.6963	-83.064068	0.000486	4.863948	1.647950	-0.000195
1450	1.4418e+02	-17.7348	-83.209405	0.000365	3.647961	1.235963	-0.000146
1451	1.4428e+02	-17.7797	-83.366853	0.000395	3.951958	1.338960	-0.000158
1452	1.4437e+02	-17.8198	-83.572747	0.000517	5.167945	1.750947	-0.000207
1453	1.4447e+02	-17.8551	-83.770567	0.000497	4.965281	1.682283	-0.000199
1454	1.4457e+02	-17.9000	-83.879569	0.000274	2.735971	0.926972	-0.000110
1455	1.4467e+02	-17.9353	-84.012795	0.000334	3.343965	1.132966	-0.000134
1456	1.4477e+02	-17.9802	-84.271171	0.000649	6.485265	2.197267	-0.000260
1457	1.4487e+02	-18.0203	-84.392285	0.000304	3.039968	1.029969	-0.000122
1458	1.4497e+02	-18.0508	-84.582031	0.000476	4.762616	1.613618	-0.000191
1459	1.4507e+02	-18.0957	-84.723331	0.000355	3.546629	1.201630	-0.000142
1460	1.4517e+02	-18.1391	-84.868667	0.000365	3.647961	1.235963	-0.000146
1461	1.4527e+02	-18.1711	-85.042264	0.000436	4.357287	1.476289	-0.000174
1462	1.4537e+02	-18.2193	-85.211824	0.000426	4.255955	1.441957	-0.000170
1463	1.4547e+02	-18.2514	-85.369272	0.000395	3.951958	1.338960	-0.000158
1464	1.4557e+02	-18.2883	-85.522683	0.000385	3.850626	1.304627	-0.000154
1465	1.4567e+02	-18.3380	-85.688206	0.000415	4.154623	1.407624	-0.000166
1466	1.4577e+02	-18.3685	-85.849691	0.000405	4.053290	1.373292	-0.000162
1467	1.4587e+02	-18.4086	-86.031363	0.000456	4.559952	1.544953	-0.000183
1468	1.4597e+02	-18.4567	-86.200922	0.000426	4.255955	1.441957	-0.000170
1469	1.4607e+02	-18.4952	-86.374519	0.000436	4.357287	1.476289	-0.000174
1470	1.4617e+02	-18.5337	-86.483522	0.000274	2.735971	0.926972	-0.000110
1471	1.4626e+02	-18.5802	-86.665193	0.000456	4.559952	1.544953	-0.000183
1472	1.4636e+02	-18.6075	-86.830715	0.000415	4.154623	1.407624	-0.000166
1473	1.4646e+02	-18.6540	-86.967978	0.000345	3.445297	1.167298	-0.000138
1474	1.4656e+02	-18.6941	-87.137538	0.000426	4.255955	1.441957	-0.000170
1475	1.4666e+02	-18.7326	-87.258652	0.000304	3.039968	1.029969	-0.000122
1476	1.4676e+02	-18.7743	-87.428212	0.000426	4.255955	1.441957	-0.000170
1477	1.4686e+02	-18.8144	-87.585660	0.000395	3.951958	1.338960	-0.000158
1478	1.4696e+02	-18.8433	-87.779442	0.000486	4.863948	1.647950	-0.000195
1479	1.4706e+02	-18.8914	-87.876334	0.000243	2.431974	0.823975	-0.000097
1480	1.4716e+02	-18.9348	-88.090302	0.000537	5.370610	1.819612	-0.000215
1481	1.4726e+02	-18.9652	-88.215453	0.000314	3.141300	1.064301	-0.000126
1482	1.4736e+02	-19.0102	-88.417310	0.000507	5.066613	1.716615	-0.000203
1483	1.4746e+02	-19.0583	-88.554572	0.000345	3.445297	1.167298	-0.000138
1484	1.4756e+02	-19.0920	-88.736244	0.000456	4.559952	1.544953	-0.000183
1485	1.4766e+02	-19.1465	-88.901766	0.000415	4.154623	1.407624	-0.000166
1486	1.4776e+02	-19.1754	-89.059214	0.000395	3.951958	1.338960	-0.000158
1487	1.4786e+02	-19.2075	-89.192440	0.000334	3.343965	1.132966	-0.000134
1488	1.4796e+02	-19.2572	-89.349888	0.000395	3.951958	1.338960	-0.000158
1489	1.4806e+02	-19.2957	-89.539634	0.000476	4.762616	1.613618	-0.000191
1490	1.4816e+02	-19.3310	-89.676896	0.000345	3.445297	1.167298	-0.000138
1491	1.4825e+02	-19.3695	-89.858567	0.000456	4.559952	1.544953	-0.000183
1492	1.4835e+02	-19.4096	-90.003904	0.000365	3.647961	1.235963	-0.000146
1493	1.4845e+02	-19.4465	-90.173464	0.000426	4.255955	1.441957	-0.000170
1494	1.4855e+02	-19.4834	-90.318801	0.000365	3.647961	1.235963	-0.000146
1495	1.4865e+02	-19.5347	-90.460100	0.000355	3.546629	1.201630	-0.000142
1496	1.4875e+02	-19.5813	-90.609475	0.000375	3.749294	1.270295	-0.000150
1497	1.4885e+02	-19.6069	-90.779034	0.000426	4.255955	1.441957	-0.000170
1498	1.4895e+02	-19.6502	-90.940520	0.000405	4.053290	1.373292	-0.000162
1499	1.4905e+02	-19.6839	-91.089894	0.000375	3.749294	1.270295	-0.000150
1500	1.4915e+02	-19.7353	-91.255416	0.000415	4.154623	1.407624	-0.000166
1501	1.4925e+02	-19.7625	-91.457273	0.000507	5.066613	1.716615	-0.000203
1502	1.4935e+02	-19.8107	-91.594536	0.000345	3.445297	1.167298	-0.000138
1503	1.4945e+02	-19.8476	-91.751984	0.000395	3.951958	1.338960	-0.000158
1504	1.4955e+02	-19.8845	-91.881172	0.000324	3.242632	1.098634	-0.000130
1505	1.4965e+02	-19.9278	-92.034583	0.000385	3.850626	1.304627	-0.000154
1506	1.4975e+02	-19.9695	-92.232403	0.000497	4.965281	1.682283	-0.000199
1507	1.4985e+02	-20.0048	-92.406000	0.000436	4.357287	1.476289	-0.000174
1508	1.4995e+02	-19.9679	-92.329294	0.000193	1.925313	0.652314	0.000077
1509	1.5005e+02	-19.9262	-92.284886	0.000111	1.114655	0.377655	0.000045
1510	1.5015e+02	-19.8877	-92.216255	0.000172	1.722648	0.583649	0.000069
1511	1.5025e+02	-19.8476	-92.159735	0.000142	1.418652	0.480652	0.000057
1512	1.5034e+02	-19.8026	-92.062843	0.000243	2.431974	0.823975	0.000097
1513	1.5044e+02	-19.7722	-92.022472	0.000101	1.013323	0.343323	0.000041
1514	1.5054e+02	-19.7337	-91.893284	0.000324	3.242632	1.098634	0.000130
1515	1.5064e+02	-19.6823	-91.860987	0.000081	0.810658	0.274658	0.000032
1516	1.5074e+02	-19.6470	-91.751984	0.000274	2.735971	0.926972	0.000110
1517	1.5084e+02	-19.6117	-91.723724	0.000071	0.709326	0.240326	0.000028
1518	1.5094e+02	-19.5716	-91.602610	0.000304	3.039968	1.029969	0.000122
1519	1.5104e+02	-19.5251	-91.505719	0.000243	2.431974	0.823975	0.000097
1520	1.5114e+02	-19.4898	-91.412865	0.000233	2.330642	0.789643	0.000093
1521	1.5124e+02	-19.4561	-91.348270	0.000162	1.621316	0.549317	0.000065
1522	1.5134e+02	-19.4112	-91.223119	0.000314	3.141300	1.064301	0.000126
1523	1.5144e+02	-19.3663	-91.130265	0.000233	2.330642	0.789643	0.000093
1524	1.5154e+02	-19.3278	-91.081819	0.000122	1.215987	0.411988	0.000049
1525	1.5164e+02	-19.2877	-90.972817	0.000274	2.735971	0.926972	0.000110
1526	1.5174e+02	-19.2508	-90.879963	0.000233	2.330642	0.789643	0.000093
1527	1.5184e+02	-19.2091	-90.779034	0.000253	2.533306	0.858307	0.000101
1528	1.5194e+02	-19.1690	-90.653883	0.000314	3.141300	1.064301	0.000126
1529	1.5204e+02	-19.1369	-90.577177	0.000193	1.925313	0.652314	0.000077
1530	1.5214e+02	-19.0984	-90.464138	0.000284	2.837303	0.961304	0.000114
1531	1.5224e+02	-19.0567	-90.375321	0.000223	2.229310	0.755311	0.000089
1532	1.5233e+02	-19.0086	-90.262281	0.000284	2.837303	0.961304	0.000114
1533	1.5243e+02	-18.9733	-90.169427	0.000233	2.330642	0.789643	0.000093
1534	1.5253e+02	-18.9316	-90.080610	0.000223	2.229310	0.755311	0.000089
1535	1.5263e+02	-18.8882	-89.927199	0.000385	3.850626	1.304627	0.000154
1536	1.5273e+02	-18.8497	-89.834344	0.000233	2.330642	0.789643	0.000093
1537	1.5283e+02	-18.8096	-89.709193	0.000314	3.141300	1.064301	0.000126
1538	1.5293e+02	-18.7791	-89.608265	0.000253	2.533306	0.858307	0.000101
1539	1.5303e+02	-18.7374	-89.531559	0.000193	1.925313	0.652314	0.000077
1540	1.5313e+02	-18.6941	-89.438705	0.000233	2.330642	0.789643	0.000093
1541	1.5323e+02	-18.6492	-89.313554	0.000314	3.141300	1.064301	0.000126
1542	1.5333e+02	-18.6203	-89.208588	0.000263	2.634639	0.892640	0.000105
1543	1.5343e+02	-18.5706	-89.119771	0.000223	2.229310	0.755311	0.000089
1544	1.5353e+02	-18.5305	-89.002694	0.000294	2.938635	0.995637	0.000118
1545	1.5363e+02	-18.4904	-88.873506	0.000324	3.242632	1.098634	0.000130
1546	1.5373e+02	-18.4551	-88.788726	0.000213	2.127977	0.720978	0.000085
1547	1.5383e+02	-18.4054	-88.643389	0.000365	3.647961	1.235963	0.000146
1548	1.5393e+02	-18.3733	-88.562647	0.000203	2.026645	0.686646	0.000081
1549	1.5403e+02	-18.3380	-88.425384	0.000345	3.445297	1.167298	0.000138
1550	1.5413e+02	-18.2931	-88.316381	0.000274	2.735971	0.926972	0.000110
1551	1.5422e+02	-18.2578	-88.243713	0.000182	1.823981	0.617981	0.000073
1552	1.5432e+02	-18.2177	-88.154896	0.000223	2.229310	0.755311	0.000089
1553	1.5442e+02	-18.1760	-88.017633	0.000345	3.445297	1.167298	0.000138
1554	1.5452e+02	-18.1407	-87.900556	0.000294	2.938635	0.995637	0.000118
1555	1.5462e+02	-18.0957	-87.775405	0.000314	3.141300	1.064301	0.000126
1556	1.5472e+02	-18.0524	-87.678514	0.000243	2.431974	0.823975	0.000097
1557	1.5482e+02	-18.0155	-87.597771	0.000203	2.026645	0.686646	0.000081
1558	1.5492e+02	-17.9722	-87.444360	0.000385	3.850626	1.304627	0.000154
1559	1.5502e+02	-17.9401	-87.359580	0.000213	2.127977	0.720978	0.000085
1560	1.5512e+02	-17.8872	-87.214243	0.000365	3.647961	1.235963	0.000146
1561	1.5522e+02	-17.8551	-87.125426	0.000223	2.229310	0.755311	0.000089
1562	1.5532e+02	-17.8102	-87.032572	0.000233	2.330642	0.789643	0.000093
1563	1.5542e+02	-17.7797	-86.875124	0.000395	3.951958	1.338960	0.000158
1564	1.5552e+02	-17.7396	-86.798418	0.000193	1.925313	0.652314	0.000077
1565	1.5562e+02	-17.6947	-86.677304	0.000304	3.039968	1.029969	0.000122
1566	1.5572e+02	-17.6514	-86.552153	0.000314	3.141300	1.064301	0.000126
1567	1.5582e+02	-17.6257	-86.431039	0.000304	3.039968	1.029969	0.000122
1568	1.5592e+02	-17.5792	-86.301851	0.000324	3.242632	1.098634	0.000130
1569	1.5602e+02	-17.5359	-86.196885	0.000263	2.634639	0.892640	0.000105
1570	1.5612e+02	-17.5038	-86.063660	0.000334	3.343965	1.132966	0.000134
1571	1.5622e+02	-17.4573	-85.970806	0.000233	2.330642	0.789643	0.000093
1572	1.5631e+02	-17.4107	-85.853729	0.000294	2.938635	0.995637	0.000118
1573	1.5641e+02	-17.3819	-85.712429	0.000355	3.546629	1.201630	0.000142
1574	1.5651e+02	-17.3337	-85.615538	0.000243	2.431974	0.823975	0.000097
1575	1.5661e+02	-17.3017	-85.490386	0.000314	3.141300	1.064301	0.000126
1576	1.5671e+02	-17.2535	-85.385421	0.000263	2.634639	0.892640	0.000105
1577	1.5681e+02	-17.2166	-85.272381	0.000284	2.837303	0.961304	0.000114
1578	1.5691e+02	-17.1829	-85.159341	0.000284	2.837303	0.961304	0.000114
1579	1.5701e+02	-17.1396	-84.993819	0.000415	4.154623	1.407624	0.000166
1580	1.5711e+02	-17.0931	-84.872705	0.000304	3.039968	1.029969	0.000122
1581	1.5721e+02	-17.0690	-84.779850	0.000233	2.330642	0.789643	0.000093
1582	1.5731e+02	-17.0161	-84.658736	0.000304	3.039968	1.029969	0.000122
1583	1.5741e+02	-16.9856	-84.561845	0.000243	2.431974	0.823975	0.000097
1584	1.5751e+02	-16.9407	-84.392285	0.000426	4.255955	1.441957	0.000170
1585	1.5761e+02	-16.8926	-84.291357	0.000253	2.533306	0.858307	0.000101
1586	1.5771e+02	-16.8541	-84.178317	0.000284	2.837303	0.961304	0.000114
1587	1.5781e+02	-16.8204	-84.069315	0.000274	2.735971	0.926972	0.000110
1588	1.5791e+02	-16.7835	-83.928015	0.000355	3.546629	1.201630	0.000142
1589	1.5801e+02	-16.7418	-83.794789	0.000334	3.343965	1.132966	0.000134
1590	1.5811e+02	-16.7017	-83.649452	0.000365	3.647961	1.235963	0.000146
1591	1.5821e+02	-16.6632	-83.548524	0.000253	2.533306	0.858307	0.000101
1592	1.5830e+02	-16.6166	-83.439521	0.000274	2.735971	0.926972	0.000110
1593	1.5840e+02	-16.5781	-83.302259	0.000345	3.445297	1.167298	0.000138
1594	1.5850e+02	-16.5477	-83.148848	0.000385	3.850626	1.304627	0.000154
1595	1.5860e+02	-16.5011	-83.039845	0.000274	2.735971	0.926972	0.000110
1596	1.5870e+02	-16.4578	-82.922768	0.000294	2.938635	0.995637	0.000118
1597	1.5880e+02	-16.4338	-82.813765	0.000274	2.735971	0.926972	0.000110
1598	1.5890e+02	-16.3872	-82.664391	0.000375	3.749294	1.270295	0.000150
1599	1.5900e+02	-16.3439	-82.563463	0.000253	2.533306	0.858307	0.000101
1600	1.5910e+02	-16.2974	-82.418126	0.000365	3.647961	1.235963	0.000146
1601	1.5920e+02	-16.2701	-82.264715	0.000385	3.850626	1.304627	0.000154
1602	1.5930e+02	-16.2236	-82.175898	0.000223	2.229310	0.755311	0.000089
1603	1.5940e+02	-16.1787	-82.046710	0.000324	3.242632	1.098634	0.000130
1604	1.5950e+02	-16.1434	-81.869076	0.000446	4.458619	1.510621	0.000179
1605	1.5960e+02	-16.1017	-81.780259	0.000223	2.229310	0.755311	0.000089
1606	1.5970e+02	-16.0632	-81.634922	0.000365	3.647961	1.235963	0.000146
1607	1.5980e+02	-16.0167	-81.513808	0.000304	3.039968	1.029969	0.000122
1608	1.5990e+02	-15.9766	-81.372508	0.000355	3.546629	1.201630	0.000142
1609	1.6000e+02	-15.9429	-81.295802	0.000193	1.925313	0.652314	0.000077
1610	1.6010e+02	-15.8931	-81.134317	0.000405	4.053290	1.373292	0.000162
1611	1.6019e+02	-15.8610	-81.013203	0.000304	3.039968	1.029969	0.000122
1612	1.6029e+02	-15.8306	-80.892089	0.000304	3.039968	1.029969	0.000122
1613	1.6039e+02	-15.7905	-80.726566	0.000415	4.154623	1.407624	0.000166
1614	1.6049e+02	-15.7552	-80.641786	0.000213	2.127977	0.720978	0.000085
1615	1.6059e+02	-15.7022	-80.508561	0.000334	3.343965	1.132966	0.000134
1616	1.6069e+02	-15.6621	-80.355150	0.000385	3.850626	1.304627	0.000154
1617	1.6079e+02	-15.6204	-80.217887	0.000345	3.445297	1.167298	0.000138
1618	1.6089e+02	-15.5787	-80.092736	0.000314	3.141300	1.064301	0.000126
1619	1.6099e+02	-15.5418	-79.967585	0.000314	3.141300	1.064301	0.000126
1620	1.6109e+02	-15.5065	-79.850508	0.000294	2.938635	0.995637	0.000118
1621	1.6119e+02	-15.4696	-79.737468	0.000284	2.837303	0.961304	0.000114
1622	1.6129e+02	-15.4327	-79.604242	0.000334	3.343965	1.132966	0.000134
1623	1.6139e+02	-15.3798	-79.442757	0.000405	4.053290	1.373292	0.000162
1624	1.6149e+02	-15.3477	-79.325680	0.000294	2.938635	0.995637	0.000118
1625	1.6159e+02	-15.3044	-79.208603	0.000294	2.938635	0.995637	0.000118
1626	1.6169e+02	-15.2643	-79.079415	0.000324	3.242632	1.098634	0.000130
1627	1.6179e+02	-15.2354	-78.934078	0.000365	3.647961	1.235963	0.000146
1628	1.6189e+02	-15.1825	-78.812964	0.000304	3.039968	1.029969	0.000122
1629	1.6199e+02	-15.1488	-78.627256	0.000466	4.661284	1.579286	0.000187
1630	1.6209e+02	-15.1039	-78.510179	0.000294	2.938635	0.995637	0.000118
1631	1.6219e+02	-15.0654	-78.372916	0.000345	3.445297	1.167298	0.000138
1632	1.6228e+02	-15.0252	-78.259876	0.000284	2.837303	0.961304	0.000114
1633	1.6238e+02	-14.9851	-78.126651	0.000334	3.343965	1.132966	0.000134
1634	1.6248e+02	-14.9531	-77.949017	0.000446	4.458619	1.510621	0.000179
1635	1.6258e+02	-14.9113	-77.799643	0.000375	3.749294	1.270295	0.000150
1636	1.6268e+02	-14.8728	-77.670454	0.000324	3.242632	1.098634	0.000130
1637	1.6278e+02	-14.8247	-77.553378	0.000294	2.938635	0.995637	0.000118
1638	1.6288e+02	-14.7782	-77.395929	0.000395	3.951958	1.338960	0.000158
1639	1.6298e+02	-14.7589	-77.282889	0.000284	2.837303	0.961304	0.000114
1640	1.6308e+02	-14.7076	-77.121404	0.000405	4.053290	1.373292	0.000162
1641	1.6318e+02	-14.6691	-76.984141	0.000345	3.445297	1.167298	0.000138
1642	1.6328e+02	-14.6226	-76.891287	0.000233	2.330642	0.789643	0.000093
1643	1.6338e+02	-14.5857	-76.721728	0.000426	4.255955	1.441957	0.000170
1644	1.6348e+02	-14.5488	-76.608688	0.000284	2.837303	0.961304	0.000114
1645	1.6358e+02	-14.5087	-76.443165	0.000415	4.154623	1.407624	0.000166
1646	1.6368e+02	-14.4734	-76.334163	0.000274	2.735971	0.926972	0.000110
1647	1.6378e+02	-14.4317	-76.180751	0.000385	3.850626	1.304627	0.000154
1648	1.6388e+02	-14.3868	-75.991006	0.000476	4.762616	1.613618	0.000191
1649	1.6398e+02	-14.3450	-75.873929	0.000294	2.938635	0.995637	0.000118
1650	1.6408e+02	-14.3082	-75.760889	0.000284	2.837303	0.961304	0.000114
1651	1.6418e+02	-14.2729	-75.583255	0.000446	4.458619	1.510621	0.000179
1652	1.6427e+02	-14.2295	-75.450030	0.000334	3.343965	1.132966	0.000134
1653	1.6437e+02	-14.1943	-75.304693	0.000365	3.647961	1.235963	0.000146
1654	1.6447e+02	-14.1493	-75.175505	0.000324	3.242632	1.098634	0.000130
1655	1.6457e+02	-14.1189	-75.038242	0.000345	3.445297	1.167298	0.000138
1656	1.6467e+02	-14.0675	-74.872719	0.000415	4.154623	1.407624	0.000166
1657	1.6477e+02	-14.0210	-74.735457	0.000345	3.445297	1.167298	0.000138
1658	1.6487e+02	-13.9953	-74.573971	0.000405	4.053290	1.373292	0.000162
1659	1.6497e+02	-13.9568	-74.501303	0.000182	1.823981	0.617981	0.000073
1660	1.6507e+02	-13.9167	-74.323669	0.000446	4.458619	1.510621	0.000179
1661	1.6517e+02	-13.8718	-74.214666	0.000274	2.735971	0.926972	0.000110
1662	1.6527e+02	-13.8269	-74.045107	0.000426	4.255955	1.441957	0.000170
1663	1.6537e+02	-13.7916	-73.879584	0.000415	4.154623	1.407624	0.000166
1664	1.6547e+02	-13.7499	-73.766544	0.000284	2.837303	0.961304	0.000114
1665	1.6557e+02	-13.7130	-73.588910	0.000446	4.458619	1.510621	0.000179
1666	1.6567e+02	-13.6681	-73.475870	0.000284	2.837303	0.961304	0.000114
1667	1.6577e+02	-13.6312	-73.326496	0.000375	3.749294	1.270295	0.000150
1668	1.6587e+02	-13.5943	-73.193271	0.000334	3.343965	1.132966	0.000134
1669	1.6597e+02	-13.5477	-73.043897	0.000375	3.749294	1.270295	0.000150
1670	1.6607e+02	-13.5028	-72.882411	0.000405	4.053290	1.373292	0.000162
1671	1.6616e+02	-13.4691	-72.757260	0.000314	3.141300	1.064301	0.000126
1672	1.6626e+02	-13.4403	-72.640183	0.000294	2.938635	0.995637	0.000118
1673	1.6636e+02	-13.3921	-72.446401	0.000486	4.863948	1.647950	0.000195
1674	1.6646e+02	-13.3552	-72.329324	0.000294	2.938635	0.995637	0.000118
1675	1.6656e+02	-13.3167	-72.155727	0.000436	4.357287	1.476289	0.000174
1676	1.6666e+02	-13.2814	-72.006353	0.000375	3.749294	1.270295	0.000150
1677	1.6676e+02	-13.2365	-71.873128	0.000334	3.343965	1.132966	0.000134
1678	1.6686e+02	-13.1900	-71.723754	0.000375	3.749294	1.270295	0.000150
1679	1.6696e+02	-13.1483	-71.610714	0.000284	2.837303	0.961304	0.000114
1680	1.6706e+02	-13.1146	-71.449228	0.000405	4.053290	1.373292	0.000162
1681	1.6716e+02	-13.0745	-71.295817	0.000385	3.850626	1.304627	0.000154
1682	1.6726e+02	-13.0376	-71.126257	0.000426	4.255955	1.441957	0.000170
1683	1.6736e+02	-12.9991	-70.980921	0.000365	3.647961	1.235963	0.000146
1684	1.6746e+02	-12.9510	-70.847695	0.000334	3.343965	1.132966	0.000134
1685	1.6756e+02	-12.9109	-70.706395	0.000355	3.546629	1.201630	0.000142
1686	1.6766e+02	-12.8659	-70.557021	0.000375	3.749294	1.270295	0.000150
1687	1.6776e+02	-12.8467	-70.371313	0.000466	4.661284	1.579286	0.000187
1688	1.6786e+02	-12.8034	-70.278459	0.000233	2.330642	0.789643	0.000093
1689	1.6796e+02	-12.7585	-70.173493	0.000263	2.634639	0.892640	0.000105
1690	1.6806e+02	-12.7103	-69.931265	0.000608	6.079935	2.059938	0.000243
1691	1.6816e+02	-12.6750	-69.870708	0.000152	1.519984	0.514984	0.000061
1692	1.6825e+02	-12.6365	-69.640591	0.000578	5.775939	1.956941	0.000231
1693	1.6835e+02	-12.6012	-69.487180	0.000385	3.850626	1.304627	0.000154
1694	1.6845e+02	-12.5579	-69.353955	0.000334	3.343965	1.132966	0.000134
1695	1.6855e+02	-12.5162	-69.200544	0.000385	3.850626	1.304627	0.000154
1696	1.6865e+02	-12.4777	-69.051170	0.000375	3.749294	1.270295	0.000150
1697	1.6875e+02	-12.4408	-68.934093	0.000294	2.938635	0.995637	0.000118
1698	1.6885e+02	-12.3991	-68.728199	0.000517	5.167945	1.750947	0.000207
1699	1.6895e+02	-12.3590	-68.599010	0.000324	3.242632	1.098634	0.000130
1700	1.6905e+02	-12.3173	-68.477896	0.000304	3.039968	1.029969	0.000122
1701	1.6915e+02	-12.2820	-68.247780	0.000578	5.775939	1.956941	0.000231
1702	1.6925e+02	-12.2371	-68.158963	0.000223	2.229310	0.755311	0.000089
1703	1.6935e+02	-12.2018	-67.981329	0.000446	4.458619	1.510621	0.000179
1704	1.6945e+02	-12.1537	-67.860215	0.000304	3.039968	1.029969	0.000122
1705	1.6955e+02	-12.1232	-67.662395	0.000497	4.965281	1.682283	0.000199
1706	1.6965e+02	-12.0847	-67.521095	0.000355	3.546629	1.201630	0.000142
1707	1.6975e+02	-12.0478	-67.367684	0.000385	3.850626	1.304627	0.000154
1708	1.6985e+02	-12.0013	-67.218310	0.000375	3.749294	1.270295	0.000150
1709	1.6995e+02	-11.9547	-67.077010	0.000355	3.546629	1.201630	0.000142
1710	1.7005e+02	-11.9162	-66.927636	0.000375	3.749294	1.270295	0.000150
1711	1.7015e+02	-11.8890	-66.846894	0.000203	2.026645	0.686646	0.000081
1712	1.7024e+02	-11.8408	-66.612740	0.000588	5.877271	1.991273	0.000235
1713	1.7034e+02	-11.7975	-66.455291	0.000395	3.951958	1.338960	0.000158
1714	1.7044e+02	-11.7703	-66.338214	0.000294	2.938635	0.995637	0.000118
1715	1.7054e+02	-11.7173	-66.120209	0.000547	5.471942	1.853944	0.000219
1716	1.7064e+02	-11.6788	-65.995058	0.000314	3.141300	1.064301	0.000126
1717	1.7074e+02	-11.6483	-65.857795	0.000345	3.445297	1.167298	0.000138
1718	1.7084e+02	-11.5986	-65.700347	0.000395	3.951958	1.338960	0.000158
1719	1.7094e+02	-11.5633	-65.555010	0.000365	3.647961	1.235963	0.000146
1720	1.7104e+02	-11.5216	-65.417747	0.000345	3.445297	1.167298	0.000138
1721	1.7114e+02	-11.4847	-65.264336	0.000385	3.850626	1.304627	0.000154
1722	1.7124e+02	-11.4366	-65.090740	0.000436	4.357287	1.476289	0.000174
1723	1.7134e+02	-11.4077	-64.945403	0.000365	3.647961	1.235963	0.000146
1724	1.7144e+02	-11.3596	-64.800066	0.000365	3.647961	1.235963	0.000146
1725	1.7154e+02	-11.3275	-64.626469	0.000436	4.357287	1.476289	0.000174
1726	1.7164e+02	-11.2906	-64.444798	0.000456	4.559952	1.544953	0.000183
1727	1.7174e+02	-11.2393	-64.347907	0.000243	2.431974	0.823975	0.000097
1728	1.7184e+02	-11.1927	-64.218718	0.000324	3.242632	1.098634	0.000130
1729	1.7194e+02	-11.1655	-64.016861	0.000507	5.066613	1.716615	0.000203
1730	1.7204e+02	-11.1205	-63.855376	0.000405	4.053290	1.373292	0.000162
1731	1.7213e+02	-11.0836	-63.685816	0.000426	4.255955	1.441957	0.000170
1732	1.7223e+02	-11.0339	-63.540479	0.000365	3.647961	1.235963	0.000146
1733	1.7233e+02	-11.0147	-63.391105	0.000375	3.749294	1.270295	0.000150
1734	1.7243e+02	-10.9553	-63.269991	0.000304	3.039968	1.029969	0.000122
1735	1.7253e+02	-10.9296	-63.100432	0.000426	4.255955	1.441957	0.000170
1736	1.7263e+02	-10.8783	-62.955095	0.000365	3.647961	1.235963	0.000146
1737	1.7273e+02	-10.8462	-62.785535	0.000426	4.255955	1.441957	0.000170
1738	1.7283e+02	-10.7997	-62.595790	0.000476	4.762616	1.613618	0.000191
1739	1.7293e+02	-10.7676	-62.446416	0.000375	3.749294	1.270295	0.000150
1740	1.7303e+02	-10.7211	-62.276856	0.000426	4.255955	1.441957	0.000170
1741	1.7313e+02	-10.6826	-62.103259	0.000436	4.357287	1.476289	0.000174
1742	1.7323e+02	-10.6425	-61.961959	0.000355	3.546629	1.201630	0.000142
1743	1.7333e+02	-10.5976	-61.820660	0.000355	3.546629	1.201630	0.000142
1744	1.7343e+02	-10.5639	-61.634951	0.000466	4.661284	1.579286	0.000187
1745	1.7353e+02	-10.5190	-61.465392	0.000426	4.255955	1.441957	0.000170
1746	1.7363e+02	-10.4756	-61.324092	0.000355	3.546629	1.201630	0.000142
1747	1.7373e+02	-10.4436	-61.158569	0.000415	4.154623	1.407624	0.000166
1748	1.7383e+02	-10.4067	-61.025344	0.000334	3.343965	1.132966	0.000134
1749	1.7393e+02	-10.3601	-60.863858	0.000405	4.053290	1.373292	0.000162
1750	1.7403e+02	-10.3232	-60.742744	0.000304	3.039968	1.029969	0.000122
1751	1.7413e+02	-10.2799	-60.520702	0.000557	5.573274	1.888276	0.000223
1752	1.7422e+02	-10.2430	-60.375365	0.000365	3.647961	1.235963	0.000146
1753	1.7432e+02	-10.2061	-60.221954	0.000385	3.850626	1.304627	0.000154
1754	1.7442e+02	-10.1660	-60.036246	0.000466	4.661284	1.579286	0.000187
1755	1.7452e+02	-10.1195	-59.903020	0.000334	3.343965	1.132966	0.000134
1756	1.7462e+02	-10.0842	-59.709238	0.000486	4.863948	1.647950	0.000195
1757	1.7472e+02	-10.0537	-59.567938	0.000355	3.546629	1.201630	0.000142
1758	1.7482e+02	-10.0088	-59.406452	0.000405	4.053290	1.373292	0.000162
1759	1.7492e+02	-9.9655	-59.249004	0.000395	3.951958	1.338960	0.000158
1760	1.7502e+02	-9.9190	-59.022924	0.000567	5.674606	1.922609	0.000227
1761	1.7512e+02	-9.8933	-58.881625	0.000355	3.546629	1.201630	0.000142
1762	1.7522e+02	-9.8468	-58.748399	0.000334	3.343965	1.132966	0.000134
1763	1.7532e+02	-9.8035	-58.582877	0.000415	4.154623	1.407624	0.000166
1764	1.7542e+02	-9.7714	-58.413317	0.000426	4.255955	1.441957	0.000170
1765	1.7552e+02	-9.7249	-58.207423	0.000517	5.167945	1.750947	0.000207
1766	1.7562e+02	-9.6848	-58.098420	0.000274	2.735971	0.926972	0.000110
1767	1.7572e+02	-9.6463	-57.920786	0.000446	4.458619	1.510621	0.000179
1768	1.7582e+02	-9.5997	-57.771412	0.000375	3.749294	1.270295	0.000150
1769	1.7592e+02	-9.5757	-57.561481	0.000527	5.269277	1.785280	0.000211
1770	1.7602e+02	-9.5356	-57.408070	0.000385	3.850626	1.304627	0.000154
1771	1.7612e+02	-9.4938	-57.270808	0.000345	3.445297	1.167298	0.000138
1772	1.7621e+02	-9.4457	-57.089136	0.000456	4.559952	1.544953	0.000183
1773	1.7631e+02	-9.4120	-56.955911	0.000334	3.343965	1.132966	0.000134
1774	1.7641e+02	-9.3719	-56.741943	0.000537	5.370610	1.819612	0.000215
1775	1.7651e+02	-9.3302	-56.628903	0.000284	2.837303	0.961304	0.000114
1776	1.7661e+02	-9.2853	-56.447232	0.000456	4.559952	1.544953	0.000183
1777	1.7671e+02	-9.2516	-56.273635	0.000436	4.357287	1.476289	0.000174
1778	1.7681e+02	-9.2035	-56.108112	0.000415	4.154623	1.407624	0.000166
1779	1.7691e+02	-9.1714	-55.902219	0.000517	5.167945	1.750947	0.000207
1780	1.7701e+02	-9.1265	-55.704399	0.000497	4.965281	1.682283	0.000199
1781	1.7711e+02	-9.0928	-55.579248	0.000314	3.141300	1.064301	0.000126
1782	1.7721e+02	-9.0495	-55.433911	0.000365	3.647961	1.235963	0.000146
1783	1.7731e+02	-9.0030	-55.232054	0.000507	5.066613	1.716615	0.000203
1784	1.7741e+02	-8.9661	-55.098829	0.000334	3.343965	1.132966	0.000134
1785	1.7751e+02	-8.9292	-54.909083	0.000476	4.762616	1.613618	0.000191
1786	1.7761e+02	-8.8874	-54.739523	0.000426	4.255955	1.441957	0.000170
1787	1.7771e+02	-8.8506	-54.606298	0.000334	3.343965	1.132966	0.000134
1788	1.7781e+02	-8.8121	-54.444813	0.000405	4.053290	1.373292	0.000162
1789	1.7791e+02	-8.7671	-54.246993	0.000497	4.965281	1.682283	0.000199
1790	1.7801e+02	-8.7270	-54.093582	0.000385	3.850626	1.304627	0.000154
1791	1.7810e+02	-8.6837	-53.944208	0.000375	3.749294	1.270295	0.000150
1792	1.7820e+02	-8.6548	-53.730240	0.000537	5.370610	1.819612	0.000215
1793	1.7830e+02	-8.6131	-53.580866	0.000375	3.749294	1.270295	0.000150
1794	1.7840e+02	-8.5682	-53.463789	0.000294	2.938635	0.995637	0.000118
1795	1.7850e+02	-8.5265	-53.193300	0.000679	6.789261	2.300264	0.000272
1796	1.7860e+02	-8.4976	-53.100446	0.000233	2.330642	0.789643	0.000093
1797	1.7870e+02	-8.4607	-52.874367	0.000567	5.674606	1.922609	0.000227
1798	1.7880e+02	-8.4174	-52.708844	0.000415	4.154623	1.407624	0.000166
1799	1.7890e+02	-8.3709	-52.523136	0.000466	4.661284	1.579286	0.000187
1800	1.7900e+02	-8.3340	-52.373762	0.000375	3.749294	1.270295	0.000150
1801	1.7910e+02	-8.2859	-52.179979	0.000486	4.863948	1.647950	0.000195
1802	1.7920e+02	-8.2442	-52.018494	0.000405	4.053290	1.373292	0.000162
1803	1.7930e+02	-8.2073	-51.844897	0.000436	4.357287	1.476289	0.000174
1804	1.7940e+02	-8.1752	-51.667263	0.000446	4.458619	1.510621	0.000179
1805	1.7950e+02	-8.1303	-51.509815	0.000395	3.951958	1.338960	0.000158
1806	1.7960e+02	-8.0918	-51.344292	0.000415	4.154623	1.407624	0.000166
1807	1.7970e+02	-8.0581	-51.110138	0.000588	5.877271	1.991273	0.000235
1808	1.7980e+02	-8.0212	-50.932504	0.000446	4.458619	1.510621	0.000179
1809	1.7990e+02	-7.9762	-50.746796	0.000466	4.661284	1.579286	0.000187
1810	1.8000e+02	-7.9297	-50.569162	0.000446	4.458619	1.510621	0.000179
1811	1.8009e+02	-7.8928	-50.407677	0.000405	4.053290	1.373292	0.000162
1812	1.8019e+02	-7.8559	-50.238117	0.000426	4.255955	1.441957	0.000170
1813	1.8029e+02	-7.8158	-50.016075	0.000557	5.573274	1.888276	0.000223
1814	1.8039e+02	-7.7757	-49.850552	0.000415	4.154623	1.407624	0.000166
1815	1.8049e+02	-7.7276	-49.725401	0.000314	3.141300	1.064301	0.000126
1816	1.8059e+02	-7.6987	-49.523544	0.000507	5.066613	1.716615	0.000203
1817	1.8069e+02	-7.6586	-49.341873	0.000456	4.559952	1.544953	0.000183
1818	1.8079e+02	-7.6169	-49.144053	0.000497	4.965281	1.682283	0.000199
1819	1.8089e+02	-7.5864	-48.942197	0.000507	5.066613	1.716615	0.000203
1820	1.8099e+02	-7.5303	-48.796860	0.000365	3.647961	1.235963	0.000146
1821	1.8109e+02	-7.4982	-48.603077	0.000486	4.863948	1.647950	0.000195
1822	1.8119e+02	-7.4549	-48.457740	0.000365	3.647961	1.235963	0.000146
1823	1.8129e+02	-7.4180	-48.280106	0.000446	4.458619	1.510621	0.000179
1824	1.8139e+02	-7.3779	-48.098435	0.000456	4.559952	1.544953	0.000183
1825	1.8149e+02	-7.3346	-47.900616	0.000497	4.965281	1.682283	0.000199
1826	1.8159e+02	-7.2977	-47.694722	0.000517	5.167945	1.750947	0.000207
1827	1.8169e+02	-7.2527	-47.504976	0.000476	4.762616	1.613618	0.000191
1828	1.8179e+02	-7.2174	-47.335417	0.000426	4.255955	1.441957	0.000170
1829	1.8189e+02	-7.1757	-47.153745	0.000456	4.559952	1.544953	0.000183
1830	1.8199e+02	-7.1324	-46.980149	0.000436	4.357287	1.476289	0.000174
1831	1.8209e+02	-7.0971	-46.814626	0.000415	4.154623	1.407624	0.000166
1832	1.8218e+02	-7.0538	-46.636992	0.000446	4.458619	1.510621	0.000179
1833	1.8228e+02	-7.0137	-46.447247	0.000476	4.762616	1.613618	0.000191
1834	1.8238e+02	-6.9736	-46.269613	0.000446	4.458619	1.510621	0.000179
1835	1.8248e+02	-6.9335	-46.067756	0.000507	5.066613	1.716615	0.000203
1836	1.8258e+02	-6.9030	-45.918382	0.000375	3.749294	1.270295	0.000150
1837	1.8268e+02	-6.8597	-45.712488	0.000517	5.167945	1.750947	0.000207
1838	1.8278e+02	-6.8164	-45.555040	0.000395	3.951958	1.338960	0.000158
1839	1.8288e+02	-6.7731	-45.353183	0.000507	5.066613	1.716615	0.000203
1840	1.8298e+02	-6.7426	-45.167475	0.000466	4.661284	1.579286	0.000187
1841	1.8308e+02	-6.6977	-44.985804	0.000456	4.559952	1.544953	0.000183
1842	1.8318e+02	-6.6608	-44.832392	0.000385	3.850626	1.304627	0.000154
1843	1.8328e+02	-6.6110	-44.650721	0.000456	4.559952	1.544953	0.000183
1844	1.8338e+02	-6.5838	-44.448864	0.000507	5.066613	1.716615	0.000203
1845	1.8348e+02	-6.5372	-44.251045	0.000497	4.965281	1.682283	0.000199
1846	1.8358e+02	-6.4955	-44.061299	0.000476	4.762616	1.613618	0.000191
1847	1.8368e+02	-6.4618	-43.887703	0.000436	4.357287	1.476289	0.000174
1848	1.8378e+02	-6.4153	-43.681809	0.000517	5.167945	1.750947	0.000207
1849	1.8388e+02	-6.3736	-43.528398	0.000385	3.850626	1.304627	0.000154
1850	1.8398e+02	-6.3431	-43.358838	0.000426	4.255955	1.441957	0.000170
1851	1.8407e+02	-6.3014	-43.169092	0.000476	4.762616	1.613618	0.000191
1852	1.8417e+02	-6.2613	-42.955124	0.000537	5.370610	1.819612	0.000215
1853	1.8427e+02	-6.2276	-42.829973	0.000314	3.141300	1.064301	0.000126
1854	1.8437e+02	-6.1827	-42.620042	0.000527	5.269277	1.785280	0.000211
1855	1.8447e+02	-6.1442	-42.414148	0.000517	5.167945	1.750947	0.000207
1856	1.8457e+02	-6.1041	-42.224403	0.000476	4.762616	1.613618	0.000191
1857	1.8467e+02	-6.0704	-42.083103	0.000355	3.546629	1.201630	0.000142
1858	1.8477e+02	-6.0255	-41.844912	0.000598	5.978603	2.025606	0.000239
1859	1.8487e+02	-5.9870	-41.647092	0.000497	4.965281	1.682283	0.000199
1860	1.8497e+02	-5.9437	-41.437161	0.000527	5.269277	1.785280	0.000211
1861	1.8507e+02	-5.9084	-41.320084	0.000294	2.938635	0.995637	0.000118
1862	1.8517e+02	-5.8651	-41.077856	0.000608	6.079935	2.059938	0.000243
1863	1.8527e+02	-5.8250	-40.884074	0.000486	4.863948	1.647950	0.000195
1864	1.8537e+02	-5.7865	-40.718551	0.000415	4.154623	1.407624	0.000166
1865	1.8547e+02	-5.7448	-40.557066	0.000405	4.053290	1.373292	0.000162
1866	1.8557e+02	-5.7111	-40.371357	0.000466	4.661284	1.579286	0.000187
1867	1.8567e+02	-5.6662	-40.112981	0.000649	6.485265	2.197267	0.000260
1868	1.8577e+02	-5.6228	-39.943421	0.000426	4.255955	1.441957	0.000170
1869	1.8587e+02	-5.5859	-39.741564	0.000507	5.066613	1.716615	0.000203
1870	1.8597e+02	-5.5490	-39.555856	0.000466	4.661284	1.579286	0.000187
1871	1.8606e+02	-5.5041	-39.378222	0.000446	4.458619	1.510621	0.000179
1872	1.8616e+02	-5.4672	-39.172328	0.000517	5.167945	1.750947	0.000207
1873	1.8626e+02	-5.4287	-38.974508	0.000497	4.965281	1.682283	0.000199
1874	1.8636e+02	-5.3918	-38.792837	0.000456	4.559952	1.544953	0.000183
1875	1.8646e+02	-5.3517	-38.615203	0.000446	4.458619	1.510621	0.000179
1876	1.8656e+02	-5.3052	-38.360864	0.000638	6.383932	2.162935	0.000256
1877	1.8666e+02	-5.2763	-38.195341	0.000415	4.154623	1.407624	0.000166
1878	1.8676e+02	-5.2250	-37.969262	0.000567	5.674606	1.922609	0.000227
1879	1.8686e+02	-5.1833	-37.840073	0.000324	3.242632	1.098634	0.000130
1880	1.8696e+02	-5.1464	-37.605919	0.000588	5.877271	1.991273	0.000235
1881	1.8706e+02	-5.1143	-37.391951	0.000537	5.370610	1.819612	0.000215
1882	1.8716e+02	-5.0678	-37.222392	0.000426	4.255955	1.441957	0.000170
1883	1.8726e+02	-5.0261	-37.036683	0.000466	4.661284	1.579286	0.000187
1884	1.8736e+02	-4.9860	-36.838864	0.000497	4.965281	1.682283	0.000199
1885	1.8746e+02	-4.9426	-36.620858	0.000547	5.471942	1.853944	0.000219
1886	1.8756e+02	-4.9057	-36.487633	0.000334	3.343965	1.132966	0.000134
1887	1.8766e+02	-4.8672	-36.277702	0.000527	5.269277	1.785280	0.000211
1888	1.8776e+02	-4.8287	-36.091993	0.000466	4.661284	1.579286	0.000187
1889	1.8786e+02	-4.7886	-35.882062	0.000527	5.269277	1.785280	0.000211
1890	1.8796e+02	-4.7469	-35.684243	0.000497	4.965281	1.682283	0.000199
1891	1.8806e+02	-4.7116	-35.514683	0.000426	4.255955	1.441957	0.000170
1892	1.8815e+02	-4.6667	-35.304752	0.000527	5.269277	1.785280	0.000211
1893	1.8825e+02	-4.6250	-35.110970	0.000486	4.863948	1.647950	0.000195
1894	1.8835e+02	-4.5881	-34.921224	0.000476	4.762616	1.613618	0.000191
1895	1.8845e+02	-4.5528	-34.715330	0.000517	5.167945	1.750947	0.000207
1896	1.8855e+02	-4.5127	-34.569993	0.000365	3.647961	1.235963	0.000146
1897	1.8865e+02	-4.4742	-34.351988	0.000547	5.471942	1.853944	0.000219
1898	1.8875e+02	-4.4229	-34.117834	0.000588	5.877271	1.991273	0.000235
1899	1.8885e+02	-4.3908	-33.920014	0.000497	4.965281	1.682283	0.000199
1900	1.8895e+02	-4.3539	-33.730269	0.000476	4.762616	1.613618	0.000191
1901	1.8905e+02	-4.3074	-33.512264	0.000547	5.471942	1.853944	0.000219
1902	1.8915e+02	-4.2737	-33.330593	0.000456	4.559952	1.544953	0.000183
1903	1.8925e+02	-4.2223	-33.112587	0.000547	5.471942	1.853944	0.000219
1904	1.8935e+02	-4.1919	-32.995510	0.000294	2.938635	0.995637	0.000118
1905	1.8945e+02	-4.1518	-32.737134	0.000649	6.485265	2.197267	0.000260
1906	1.8955e+02	-4.1165	-32.543351	0.000486	4.863948	1.647950	0.000195
1907	1.8965e+02	-4.0748	-32.337457	0.000517	5.167945	1.750947	0.000207
1908	1.8975e+02	-4.0314	-32.139638	0.000497	4.965281	1.682283	0.000199
1909	1.8985e+02	-3.9961	-31.937781	0.000507	5.066613	1.716615	0.000203
1910	1.8995e+02	-3.9480	-31.687478	0.000628	6.282600	2.128603	0.000252
1911	1.9004e+02	-3.9143	-31.525993	0.000405	4.053290	1.373292	0.000162
1912	1.9014e+02	-3.8742	-31.287802	0.000598	5.978603	2.025606	0.000239
1913	1.9024e+02	-3.8277	-31.126317	0.000405	4.053290	1.373292	0.000162
1914	1.9034e+02	-3.7972	-30.928497	0.000497	4.965281	1.682283	0.000199
1915	1.9044e+02	-3.7459	-30.750863	0.000446	4.458619	1.510621	0.000179
1916	1.9054e+02	-3.7042	-30.532858	0.000547	5.471942	1.853944	0.000219
1917	1.9064e+02	-3.6657	-30.351186	0.000456	4.559952	1.544953	0.000183
1918	1.9074e+02	-3.6304	-30.108958	0.000608	6.079935	2.059938	0.000243
1919	1.9084e+02	-3.5919	-29.882879	0.000567	5.674606	1.922609	0.000227
1920	1.9094e+02	-3.5550	-29.689096	0.000486	4.863948	1.647950	0.000195
1921	1.9104e+02	-3.5133	-29.495314	0.000486	4.863948	1.647950	0.000195
1922	1.9114e+02	-3.4748	-29.236937	0.000649	6.485265	2.197267	0.000260
1923	1.9124e+02	-3.4282	-29.047192	0.000476	4.762616	1.613618	0.000191
1924	1.9134e+02	-3.3930	-28.841298	0.000517	5.167945	1.750947	0.000207
1925	1.9144e+02	-3.3528	-28.603107	0.000598	5.978603	2.025606	0.000239
1926	1.9154e+02	-3.3047	-28.441621	0.000405	4.053290	1.373292	0.000162
1927	1.9164e+02	-3.2807	-28.235727	0.000517	5.167945	1.750947	0.000207
1928	1.9174e+02	-3.2422	-27.985425	0.000628	6.282600	2.128603	0.000252
1929	1.9184e+02	-3.1940	-27.807791	0.000446	4.458619	1.510621	0.000179
1930	1.9194e+02	-3.1427	-27.654380	0.000385	3.850626	1.304627	0.000154
1931	1.9203e+02	-3.1170	-27.404077	0.000628	6.282600	2.128603	0.000252
1932	1.9213e+02	-3.0817	-27.226443	0.000446	4.458619	1.510621	0.000179
1933	1.9223e+02	-3.0400	-26.976141	0.000628	6.282600	2.128603	0.000252
1934	1.9233e+02	-2.9983	-26.802544	0.000436	4.357287	1.476289	0.000174
1935	1.9243e+02	-2.9582	-26.576465	0.000567	5.674606	1.922609	0.000227
1936	1.9253e+02	-2.9085	-26.366534	0.000527	5.269277	1.785280	0.000211
1937	1.9263e+02	-2.8764	-26.120268	0.000618	6.181268	2.094270	0.000248
1938	1.9273e+02	-2.8299	-25.910337	0.000527	5.269277	1.785280	0.000211
1939	1.9283e+02	-2.8058	-25.672146	0.000598	5.978603	2.025606	0.000239
1940	1.9293e+02	-2.7561	-25.502586	0.000426	4.255955	1.441957	0.000170
1941	1.9303e+02	-2.7224	-25.304767	0.000497	4.965281	1.682283	0.000199
1942	1.9313e+02	-2.6775	-25.098873	0.000517	5.167945	1.750947	0.000207
1943	1.9323e+02	-2.6261	-24.856645	0.000608	6.079935	2.059938	0.000243
1944	1.9333e+02	-2.5989	-24.622491	0.000588	5.877271	1.991273	0.000235
1945	1.9343e+02	-2.5459	-24.400448	0.000557	5.573274	1.888276	0.000223
1946	1.9353e+02	-2.5154	-24.198592	0.000507	5.066613	1.716615	0.000203
1947	1.9363e+02	-2.4769	-23.996735	0.000507	5.066613	1.716615	0.000203
1948	1.9373e+02	-2.4320	-23.806989	0.000476	4.762616	1.613618	0.000191
1949	1.9383e+02	-2.3967	-23.601096	0.000517	5.167945	1.750947	0.000207
1950	1.9393e+02	-2.3598	-23.383090	0.000547	5.471942	1.853944	0.000219
1951	1.9403e+02	-2.3117	-23.148936	0.000588	5.877271	1.991273	0.000235
1952	1.9412e+02	-2.2780	-22.955154	0.000486	4.863948	1.647950	0.000195
1953	1.9422e+02	-2.2347	-22.716963	0.000598	5.978603	2.025606	0.000239
1954	1.9432e+02	-2.2090	-22.482809	0.000588	5.877271	1.991273	0.000235
1955	1.9442e+02	-2.1609	-22.256729	0.000567	5.674606	1.922609	0.000227
1956	1.9452e+02	-2.1288	-22.046798	0.000527	5.269277	1.785280	0.000211
1957	1.9462e+02	-2.0775	-21.840904	0.000517	5.167945	1.750947	0.000207
1958	1.9472e+02	-2.0390	-21.614825	0.000567	5.674606	1.922609	0.000227
1959	1.9482e+02	-2.0021	-21.372597	0.000608	6.079935	2.059938	0.000243
1960	1.9492e+02	-1.9556	-21.166703	0.000517	5.167945	1.750947	0.000207
1961	1.9502e+02	-1.9155	-20.964846	0.000507	5.066613	1.716615	0.000203
1962	1.9512e+02	-1.8770	-20.779138	0.000466	4.661284	1.579286	0.000187
1963	1.9522e+02	-1.8288	-20.524798	0.000638	6.383932	2.162935	0.000256
1964	1.9532e+02	-1.8032	-20.322941	0.000507	5.066613	1.716615	0.000203
1965	1.9542e+02	-1.7566	-20.104936	0.000547	5.471942	1.853944	0.000219
1966	1.9552e+02	-1.7181	-19.834448	0.000679	6.789261	2.300264	0.000272
1967	1.9562e+02	-1.6828	-19.624517	0.000527	5.269277	1.785280	0.000211
1968	1.9572e+02	-1.6459	-19.386326	0.000598	5.978603	2.025606	0.000239
1969	1.9582e+02	-1.5978	-19.204655	0.000456	4.559952	1.544953	0.000183
1970	1.9592e+02	-1.5577	-18.946278	0.000649	6.485265	2.197267	0.000260
1971	1.9601e+02	-1.5240	-18.716161	0.000578	5.775939	1.956941	0.000231
1972	1.9611e+02	-1.4839	-18.494119	0.000557	5.573274	1.888276	0.000223
1973	1.9621e+02	-1.4358	-18.280151	0.000537	5.370610	1.819612	0.000215
1974	1.9631e+02	-1.4069	-18.021774	0.000649	6.485265	2.197267	0.000260
1975	1.9641e+02	-1.3652	-17.755323	0.000669	6.687929	2.265932	0.000268
1976	1.9651e+02	-1.3203	-17.529243	0.000567	5.674606	1.922609	0.000227
1977	1.9661e+02	-1.2770	-17.351609	0.000446	4.458619	1.510621	0.000179
1978	1.9671e+02	-1.2353	-17.081121	0.000679	6.789261	2.300264	0.000272
1979	1.9681e+02	-1.1984	-16.875227	0.000517	5.167945	1.750947	0.000207
1980	1.9691e+02	-1.1631	-16.641074	0.000588	5.877271	1.991273	0.000235
1981	1.9701e+02	-1.1230	-16.410957	0.000578	5.775939	1.956941	0.000231
1982	1.9711e+02	-1.0748	-16.160654	0.000628	6.282600	2.128603	0.000252
1983	1.9721e+02	-1.0411	-15.942649	0.000547	5.471942	1.853944	0.000219
1984	1.9731e+02	-1.0010	-15.680235	0.000659	6.586597	2.231599	0.000264
1985	1.9741e+02	-0.9577	-15.466267	0.000537	5.370610	1.819612	0.000215
1986	1.9751e+02	-0.9256	-15.248262	0.000547	5.471942	1.853944	0.000219
1987	1.9761e+02	-0.8839	-15.010071	0.000598	5.978603	2.025606	0.000239
1988	1.9771e+02	-0.8551	-14.727471	0.000709	7.093258	2.403261	0.000284
1989	1.9781e+02	-0.8069	-14.485243	0.000608	6.079935	2.059938	0.000243
1990	1.9791e+02	-0.7700	-14.255126	0.000578	5.775939	1.956941	0.000231
1991	1.9800e+02	-0.7171	-14.004824	0.000628	6.282600	2.128603	0.000252
1992	1.9810e+02	-0.6866	-13.778744	0.000567	5.674606	1.922609	0.000227
1993	1.9820e+02	-0.6449	-13.560739	0.000547	5.471942	1.853944	0.000219
1994	1.9830e+02	-0.6112	-13.358882	0.000507	5.066613	1.716615	0.000203
1995	1.9840e+02	-0.5615	-13.096468	0.000659	6.586597	2.231599	0.000264
1996	1.9850e+02	-0.5214	-12.870389	0.000567	5.674606	1.922609	0.000227
1997	1.9860e+02	-0.4877	-12.644309	0.000567	5.674606	1.922609	0.000227
1998	1.9870e+02	-0.4476	-12.414192	0.000578	5.775939	1.956941	0.000231
1999	1.9880e+02	-0.4123	-12.171964	0.000608	6.079935	2.059938	0.000243
2000	1.9890e+02	-0.3561	-11.905513	0.000669	6.687929	2.265932	0.000268
2001	1.9900e+02	-0.3241	-11.659248	0.000618	6.181268	2.094270	0.000248
2002	1.9910e+02	-0.2807	-11.433168	0.000567	5.674606	1.922609	0.000227
2003	1.9920e+02	-0.2599	-11.182866	0.000628	6.282600	2.128603	0.000252
2004	1.9930e+02	-0.2037	-10.940638	0.000608	6.079935	2.059938	0.000243
2005	1.9940e+02	-0.1781	-10.706484	0.000588	5.877271	1.991273	0.000235
2006	1.9950e+02	-0.1203	-10.399662	0.000770	7.701252	2.609255	0.000308
2007	1.9960e+02	-0.0786	-10.201842	0.000497	4.965281	1.682283	0.000199
2008	1.9970e+02	-0.0369	-10.016134	0.000466	4.661284	1.579286	0.000187
2009	1.9980e+02	0.0000	-9.717386	0.000466	4.661284	1.579286	0.000300

Center data before PMax,+/-Pr and +/-Vc Calc.

PMax (uC/cm2):	9.24e+01
Pr (uC/cm2):	6.02e+00
-Pr (uC/cm2):	-9.72e+00
PLoss (uC/cm2):	-5.16e+00
Vc:	9.51e-01
-Vc:	-9.87e-01
C (Max-Eff) (nF):	4.62e-01
K (Eff):	1.57e+03
Vert. (+/-Pr) Shift (uC/cm2):	-1.85e+00
Horiz. Shift (+/-Vc):	-1.78e-02
Offset (uC/cm2):	4.54e+00

A (Loop Area - uC/cm2·Volts):	5.62e-02



Hysteresis Version: 5.48.1 - Radiant Technologies, Inc., 1999 - 9/12/24

