»»»»»»»»»»»»»»»»»»»»»»»»»»»»»»»»»»»» Hysteresis ««««««««««««««««««««««««««««««««««««
»»»  Executed Version:	5.48.1
»»»  Vision Version:	5.48.4 (R)
»»»  Vision Compiled:	9/18/24
»»»  Driver Version:	5.47.0
»»»  Windows Version:	Windows 8 or 8.1
»»»  Processor Information:	x86 (AMD or Intel) - 32 Processors
»»»  Tester Name:	PMF21124-494 (100V)
»»»  Tester S/N:	PMF21124-494
»»»  Internal Amp Type:	100V RevK 270k
»»»  Internal Amp S/N:	iAB2-596/K     
»»»  Execution Count:	1
»»»»»»»»»»»»»»»»»»»»»»»»»»»»»»»»»»»»»»»»»»««««««««««««««««««««««««««««««««««««««««««

Stored:	6/4/2025 - 14:30:10
Configured:	06/04/25 01:46:06 PM
Executed:	06/04/25 02:29:07 PM

»»»»»»»»»»»»»»»»»»»»»»»»»»»»»»»»»»» Sample Info ««««««««««««««««««««««««««««««««««««
Sample Name:	
Lot Name:	
Wafer Name:	
Die Row/Column:	0/0
Capacitor Number:	0
Sample Area (cm2):	1.00e-04
Sample Thickness (microns):	3.00e-01

Amplifier:	Internal

»»»»»»»»»»»»»»»»»»»»»»»»»»»»»»»»»»» Tester Info «««««««««««««««««««««««««««««««««««
Tester Name:	PMF21124-494 (100V)
Tester Serial Number:	PMF21124-494
Return Signal Amp. Level:	0.2 [Index: 1]

»»»»»»»»»»»»»»»»»»»»»»»»»»»»»»»» Hysteresis Info ««««««««««««««««««««««««««««««««««
Task Name:	Hyst-37
Volts:	20.00
Field:	666.67 (kV/cm)
DCBias:	0.00
DCField:	0.00 (kV/cm)
Hysteresis Period (ms):	1.00e-02
Preset:	Enabled
Preset Delay (ms):	1.00e+03
Profile:	Standard Bipolar

»»»»»»»»»»»»»»»»»»»»»»»»»»»»»»»»»»»»»» Data «««««««««««««««««««««««««««««««««««««««
Points:	101

Valid Data

Point	Time (ms)	Drive Voltage	Measured Polarization (uC/cm2)	Capacitance (uF)	Normalized Capacitance (uF/cm2)	Dielectric Constant	Instantaneous Current (mA)
   1	0.0000e+00	0.0706	-3.265849	0.000055	0.545672	0.184879	0.429621
   2	1.0000e-04	0.6112	-2.836228	0.000055	0.545672	0.184879	0.429621
   3	2.0000e-04	1.5818	-0.294909	0.000323	3.227787	1.093604	2.541319
   4	3.0000e-04	2.3342	-3.251286	-0.000375	-3.754962	-1.272215	-2.956376
   5	4.0000e-04	2.9935	6.928552	0.001293	12.929646	4.380683	10.179838
   6	5.0000e-04	3.8133	10.147070	0.000409	4.087914	1.385023	3.218518
   7	6.0000e-04	4.5865	15.233349	0.000646	6.460199	2.188775	5.086278
   8	7.0000e-04	5.4143	16.980960	0.000222	2.219682	0.752049	1.747612
   9	8.0000e-04	6.3046	21.936168	0.000629	6.293722	2.132371	4.955207
  10	9.0000e-04	7.0201	23.716547	0.000226	2.261301	0.766149	1.780379
  11	1.0000e-03	7.7757	27.117108	0.000432	4.319131	1.463361	3.400561
  12	1.1000e-03	8.6083	32.403633	0.000671	6.714537	2.274947	5.286525
  13	1.2000e-03	9.4072	33.950998	0.000197	1.965343	0.665876	1.547365
  14	1.3000e-03	10.1933	38.888001	0.000627	6.270601	2.124537	4.937003
  15	1.4000e-03	10.9457	40.526387	0.000208	2.080952	0.705045	1.638386
  16	1.5000e-03	11.7847	43.985202	0.000439	4.393120	1.488429	3.458815
  17	1.6000e-03	12.5900	49.348185	0.000681	6.811648	2.307849	5.362983
  18	1.7000e-03	13.4435	50.873705	0.000194	1.937597	0.656476	1.525519
  19	1.8000e-03	14.2007	55.577693	0.000597	5.974643	2.024264	4.703988
  20	1.9000e-03	14.9900	56.892042	0.000167	1.669386	0.565603	1.314350
  21	2.0000e-03	15.8209	60.278040	0.000430	4.300633	1.457094	3.385998
  22	2.1000e-03	16.6006	65.109458	0.000614	6.136495	2.079101	4.831418
  23	2.2000e-03	17.3690	66.573083	0.000186	1.858983	0.629841	1.463625
  24	2.3000e-03	18.2305	70.720020	0.000527	5.267120	1.784548	4.146937
  25	2.4000e-03	19.0118	72.252821	0.000195	1.946846	0.659609	1.532801
  26	2.5000e-03	19.7770	75.369395	0.000396	3.958432	1.341153	3.116574
  27	2.6000e-03	19.5235	78.671653	-0.000419	-4.194274	-1.421058	3.302258
  28	2.7000e-03	18.3669	74.579329	0.000520	5.197755	1.761047	-4.092324
  29	2.8000e-03	17.9209	68.411716	0.000783	7.833627	2.654105	-6.167613
  30	2.9000e-03	17.0434	68.695703	-0.000036	-0.360698	-0.122208	0.283987
  31	3.0000e-03	16.1851	66.616773	0.000264	2.640496	0.894624	-2.078930
  32	3.1000e-03	15.4985	62.684647	0.000499	4.994284	1.692109	-3.932126
  33	3.2000e-03	14.6210	60.740429	0.000247	2.469396	0.836654	-1.944218
  34	3.3000e-03	13.8493	56.731845	0.000509	5.091395	1.725011	-4.008584
  35	3.4000e-03	13.0248	54.605584	0.000270	2.700613	0.914992	-2.126261
  36	3.5000e-03	12.2628	52.268153	0.000297	2.968824	1.005865	-2.337431
  37	3.6000e-03	11.4606	47.950096	0.000548	5.484463	1.858187	-4.318057
  38	3.7000e-03	10.6409	46.027723	0.000244	2.441650	0.827253	-1.922373
  39	3.8000e-03	9.8708	41.385629	0.000590	5.896029	1.997629	-4.642094
  40	3.9000e-03	9.0495	39.532433	0.000235	2.353787	0.797485	-1.853197
  41	4.0000e-03	8.2827	36.761740	0.000352	3.519120	1.192310	-2.770693
  42	4.1000e-03	7.4581	31.853864	0.000623	6.233606	2.112003	-4.907876
  43	4.2000e-03	6.6223	29.916928	0.000246	2.460147	0.833520	-1.936936
  44	4.3000e-03	5.8571	24.885262	0.000639	6.390834	2.165273	-5.031665
  45	4.4000e-03	5.0742	23.017502	0.000237	2.372285	0.803752	-1.867760
  46	4.5000e-03	4.2432	20.024717	0.000380	3.801205	1.287883	-2.992785
  47	4.6000e-03	3.4796	14.577994	0.000692	6.918008	2.343885	-5.446723
  48	4.7000e-03	2.6710	12.830383	0.000222	2.219682	0.752049	-1.747612
  49	4.8000e-03	1.8561	7.605752	0.000664	6.635923	2.248312	-5.224631
  50	4.9000e-03	1.0572	5.617843	0.000252	2.524888	0.855455	-1.987908
  51	5.0000e-03	0.2358	2.359276	0.000414	4.138781	1.402257	-3.258568
  52	5.1000e-03	-0.4813	-3.222159	0.000709	7.089108	2.401855	-5.581435
  53	5.2000e-03	-1.3443	-4.580199	0.000172	1.724878	0.584404	-1.358040
  54	5.3000e-03	-2.1256	-9.746576	0.000656	6.561934	2.223243	-5.166377
  55	5.4000e-03	-2.9181	-11.759970	0.000256	2.557258	0.866423	-2.013394
  56	5.5000e-03	-3.7475	-14.865622	0.000394	3.944559	1.336453	-3.105652
  57	5.6000e-03	-4.5640	-19.922773	0.000642	6.423204	2.176240	-5.057151
  58	5.7000e-03	-5.3437	-21.590286	0.000212	2.117946	0.717580	-1.667513
  59	5.8000e-03	-6.1250	-26.479958	0.000621	6.210484	2.104169	-4.889672
  60	5.9000e-03	-6.9688	-28.416894	0.000246	2.460147	0.833520	-1.936936
  61	6.0000e-03	-7.7228	-31.617208	0.000406	4.064792	1.377189	-3.200314
  62	6.1000e-03	-8.5538	-36.077259	0.000566	5.664813	1.919290	-4.460051
  63	6.2000e-03	-9.3687	-37.792103	0.000218	2.178063	0.737948	-1.714844
  64	6.3000e-03	-10.1500	-42.277640	0.000570	5.697183	1.930258	-4.485537
  65	6.4000e-03	-10.9441	-44.101709	0.000232	2.316793	0.784951	-1.824070
  66	6.5000e-03	-11.7318	-47.130903	0.000385	3.847448	1.303551	-3.029194
  67	6.6000e-03	-12.5595	-51.401629	0.000542	5.424347	1.837819	-4.270726
  68	6.7000e-03	-13.3889	-53.032733	0.000207	2.071703	0.701912	-1.631104
  69	6.8000e-03	-14.1445	-57.216079	0.000531	5.313363	1.800216	-4.183345
  70	6.9000e-03	-14.9466	-58.712471	0.000190	1.900602	0.643942	-1.496393
  71	7.0000e-03	-15.7680	-61.825405	0.000395	3.953808	1.339586	-3.112933
  72	7.1000e-03	-16.5412	-65.855834	0.000512	5.119141	1.734412	-4.030429
  73	7.2000e-03	-17.3498	-67.319459	0.000186	1.858983	0.629841	-1.463625
  74	7.3000e-03	-18.1615	-70.996725	0.000467	4.670580	1.582435	-3.677266
  75	7.4000e-03	-18.9765	-72.806231	0.000230	2.298295	0.778684	-1.809506
  76	7.5000e-03	-19.7369	-75.900960	0.000393	3.930686	1.331753	-3.094729
  77	7.6000e-03	-19.4064	-78.671653	-0.000352	-3.519120	-1.192310	-2.770693
  78	7.7000e-03	-18.3203	-74.510153	0.000529	5.285617	1.790816	4.161500
  79	7.8000e-03	-17.8695	-69.332853	0.000658	6.575807	2.227944	5.177300
  80	7.9000e-03	-16.9182	-69.329212	0.000000	0.004624	0.001567	0.003641
  81	8.0000e-03	-16.1338	-67.618009	0.000217	2.173438	0.736381	1.711203
  82	8.1000e-03	-15.4006	-63.795109	0.000486	4.855554	1.645106	3.822901
  83	8.2000e-03	-14.5632	-61.916426	0.000239	2.386158	0.808452	1.878683
  84	8.3000e-03	-13.7836	-58.574119	0.000425	4.245141	1.438293	3.342307
  85	8.4000e-03	-12.9237	-56.480625	0.000266	2.658994	0.900891	2.093493
  86	8.5000e-03	-12.1874	-54.569175	0.000243	2.427777	0.822553	1.911450
  87	8.6000e-03	-11.3644	-50.709866	0.000490	4.901797	1.660774	3.859309
  88	8.7000e-03	-10.5847	-48.649141	0.000262	2.617375	0.886791	2.060725
  89	8.8000e-03	-9.7938	-44.789831	0.000490	4.901797	1.660774	3.859309
  90	8.9000e-03	-8.9997	-42.791001	0.000254	2.538761	0.860155	1.998831
  91	9.0000e-03	-8.1832	-40.610127	0.000277	2.769978	0.938494	2.180874
  92	9.1000e-03	-7.4003	-36.099104	0.000573	5.729553	1.941225	4.511023
  93	9.2000e-03	-6.5549	-34.031097	0.000263	2.626623	0.889924	2.068007
  94	9.3000e-03	-5.8089	-29.884160	0.000527	5.267120	1.784548	4.146937
  95	9.4000e-03	-4.9795	-27.943583	0.000246	2.464772	0.835087	1.940577
  96	9.5000e-03	-4.1518	-25.496926	0.000311	3.107554	1.052868	2.446656
  97	9.6000e-03	-3.3881	-20.512592	0.000633	6.330717	2.144905	4.984334
  98	9.7000e-03	-2.6229	-18.466430	0.000260	2.598877	0.880523	2.046162
  99	9.8000e-03	-1.8080	-13.991816	0.000568	5.683310	1.925558	4.474614
 100	9.9000e-03	-0.9722	-11.807302	0.000277	2.774602	0.940061	2.184515
 101	1.0000e-02	-0.2246	-9.123989	0.000277	2.774602	0.940061	2.683312

Center data before PMax,+/-Pr and +/-Vc Calc.

PMax (uC/cm2):	7.54e+01
Pr (uC/cm2):	5.24e-01
-Pr (uC/cm2):	-9.12e+00
PLoss (uC/cm2):	-5.86e+00
-Vc:	-6.73e-02
C (Max-Eff) (nF):	3.81e-01
K (Eff):	1.29e+03
Vert. (+/-Pr) Shift (uC/cm2):	-4.30e+00
Offset (uC/cm2):	3.25e+00

A (Loop Area - uC/cm2·Volts):	-3.78e+00



Hysteresis Version: 5.48.1 - Radiant Technologies, Inc., 1999 - 9/12/24

»»»»»»»»»»»»»»»»»»»»»»»»»»»»»»»»»»»» Hysteresis ««««««««««««««««««««««««««««««««««««
»»»  Executed Version:	5.48.1
»»»  Vision Version:	5.48.4 (R)
»»»  Vision Compiled:	9/18/24
»»»  Driver Version:	5.47.0
»»»  Windows Version:	Windows 8 or 8.1
»»»  Processor Information:	x86 (AMD or Intel) - 32 Processors
»»»  Tester Name:	PMF21124-494 (100V)
»»»  Tester S/N:	PMF21124-494
»»»  Internal Amp Type:	100V RevK 270k
»»»  Internal Amp S/N:	iAB2-596/K     
»»»  Execution Count:	1
»»»»»»»»»»»»»»»»»»»»»»»»»»»»»»»»»»»»»»»»»»««««««««««««««««««««««««««««««««««««««««««

Stored:	6/4/2025 - 14:31:29
Configured:	06/04/25 01:46:06 PM
Executed:	06/04/25 02:30:13 PM

»»»»»»»»»»»»»»»»»»»»»»»»»»»»»»»»»»» Sample Info ««««««««««««««««««««««««««««««««««««
Sample Name:	
Lot Name:	
Wafer Name:	
Die Row/Column:	0/0
Capacitor Number:	0
Sample Area (cm2):	1.00e-04
Sample Thickness (microns):	3.00e-01

Amplifier:	Internal

»»»»»»»»»»»»»»»»»»»»»»»»»»»»»»»»»»» Tester Info «««««««««««««««««««««««««««««««««««
Tester Name:	PMF21124-494 (100V)
Tester Serial Number:	PMF21124-494
Return Signal Amp. Level:	0.2 [Index: 1]

»»»»»»»»»»»»»»»»»»»»»»»»»»»»»»»» Hysteresis Info ««««««««««««««««««««««««««««««««««
Task Name:	Hyst-37
Volts:	20.00
Field:	666.67 (kV/cm)
DCBias:	0.00
DCField:	0.00 (kV/cm)
Hysteresis Period (ms):	1.00e-02
Preset:	Enabled
Preset Delay (ms):	1.00e+03
Profile:	Standard Bipolar

»»»»»»»»»»»»»»»»»»»»»»»»»»»»»»»»»»»»»» Data «««««««««««««««««««««««««««««««««««««««
Points:	101

Valid Data

Point	Time (ms)	Drive Voltage	Measured Polarization (uC/cm2)	Capacitance (uF)	Normalized Capacitance (uF/cm2)	Dielectric Constant	Instantaneous Current (mA)
   1	0.0000e+00	0.0642	-3.205775	0.000052	0.517704	0.175403	0.407776
   2	1.0000e-04	0.6273	-2.797999	0.000052	0.517704	0.175403	0.407776
   3	2.0000e-04	1.5545	-0.333138	0.000313	3.129337	1.060248	2.464861
   4	3.0000e-04	2.1208	5.048049	0.000683	6.831847	2.314692	5.381188
   5	4.0000e-04	2.8908	0.362265	-0.000595	-5.948976	-2.015568	-4.685784
   6	5.0000e-04	3.8117	11.248430	0.001382	13.820853	4.682632	10.886165
   7	6.0000e-04	4.6041	14.685400	0.000436	4.363507	1.478396	3.436970
   8	7.0000e-04	5.3822	17.605367	0.000371	3.707132	1.256010	2.919968
   9	8.0000e-04	6.1955	21.235303	0.000461	4.608492	1.561399	3.629935
  10	9.0000e-04	6.9560	24.912569	0.000467	4.668583	1.581759	3.677266
  11	1.0000e-03	7.7709	28.200263	0.000417	4.173990	1.414186	3.287694
  12	1.1000e-03	8.6019	31.466113	0.000415	4.146256	1.404790	3.265849
  13	1.2000e-03	9.3880	34.691913	0.000410	4.095410	1.387562	3.225800
  14	1.3000e-03	10.1708	38.066988	0.000428	4.284927	1.451772	3.375075
  15	1.4000e-03	10.9617	42.170234	0.000521	5.209399	1.764992	4.103247
  16	1.5000e-03	11.7654	44.871751	0.000343	3.429790	1.162044	2.701516
  17	1.6000e-03	12.6061	48.166727	0.000418	4.183235	1.417318	3.294976
  18	1.7000e-03	13.4338	51.250533	0.000392	3.915138	1.326485	3.083806
  19	1.8000e-03	14.1750	54.749398	0.000444	4.442087	1.505020	3.498864
  20	1.9000e-03	14.9819	58.226417	0.000441	4.414353	1.495623	3.477019
  21	2.0000e-03	15.7937	61.109976	0.000366	3.660908	1.240349	2.883559
  22	2.1000e-03	16.6006	64.128247	0.000383	3.831936	1.298295	3.018271
  23	2.2000e-03	17.3835	66.789714	0.000338	3.378944	1.144817	2.661467
  24	2.3000e-03	18.2048	69.946338	0.000401	4.007585	1.357807	3.156624
  25	2.4000e-03	19.0070	73.303208	0.000426	4.261815	1.443942	3.356871
  26	2.5000e-03	19.7802	76.110310	0.000356	3.563839	1.207461	2.807101
  27	2.6000e-03	19.4802	77.956225	-0.000234	-2.343536	-0.794011	1.845915
  28	2.7000e-03	18.3829	74.111479	0.000488	4.881211	1.653799	-3.844746
  29	2.8000e-03	17.9048	68.861362	0.000667	6.665442	2.258313	-5.250117
  30	2.9000e-03	16.9423	67.295793	0.000199	1.987614	0.673422	-1.565569
  31	3.0000e-03	16.1931	65.715661	0.000201	2.006104	0.679686	-1.580132
  32	3.1000e-03	15.4712	62.588164	0.000397	3.970606	1.345278	-3.127497
  33	3.2000e-03	14.6017	59.664556	0.000371	3.711754	1.257576	-2.923609
  34	3.3000e-03	13.8718	56.660848	0.000381	3.813446	1.292031	-3.003708
  35	3.4000e-03	12.9847	53.562478	0.000393	3.933627	1.332749	-3.098370
  36	3.5000e-03	12.2740	51.214125	0.000298	2.981422	1.010133	-2.348353
  37	3.6000e-03	11.4526	48.163086	0.000387	3.873537	1.312390	-3.051039
  38	3.7000e-03	10.6313	44.853546	0.000420	4.201724	1.423583	-3.309540
  39	3.8000e-03	9.8917	41.613183	0.000411	4.113899	1.393827	-3.240363
  40	3.9000e-03	9.0559	37.877663	0.000474	4.742540	1.606816	-3.735520
  41	4.0000e-03	8.2506	35.645817	0.000283	2.833506	0.960018	-2.231846
  42	4.1000e-03	7.4260	32.121467	0.000447	4.474443	1.515982	-3.524350
  43	4.2000e-03	6.6239	28.462405	0.000465	4.645471	1.573928	-3.659062
  44	4.3000e-03	5.9084	25.050921	0.000433	4.331150	1.467433	-3.411484
  45	4.4000e-03	5.0485	21.220739	0.000486	4.862722	1.647535	-3.830182
  46	4.5000e-03	4.2480	18.803210	0.000307	3.069246	1.039889	-2.417530
  47	4.6000e-03	3.4972	15.023999	0.000480	4.798009	1.625609	-3.779210
  48	4.7000e-03	2.6759	11.506931	0.000447	4.465199	1.512850	-3.517069
  49	4.8000e-03	1.8914	7.975299	0.000448	4.483688	1.519115	-3.531632
  50	4.9000e-03	1.0476	3.930306	0.000514	5.135441	1.739934	-4.044993
  51	5.0000e-03	0.2358	1.239712	0.000342	3.415923	1.157346	-2.690594
  52	5.1000e-03	-0.5053	-2.430273	0.000466	4.659338	1.578626	-3.669985
  53	5.2000e-03	-1.3347	-5.539565	0.000395	3.947495	1.337447	-3.109292
  54	5.3000e-03	-2.1384	-9.096683	0.000452	4.516045	1.530077	-3.557118
  55	5.4000e-03	-2.9309	-13.199930	0.000521	5.209399	1.764992	-4.103247
  56	5.5000e-03	-3.7667	-15.806784	0.000331	3.309609	1.121326	-2.606854
  57	5.6000e-03	-4.5592	-19.352979	0.000450	4.502178	1.525379	-3.546195
  58	5.7000e-03	-5.3581	-22.644314	0.000418	4.178613	1.415752	-3.291335
  59	5.8000e-03	-6.1442	-25.724480	0.000391	3.910516	1.324919	-3.080166
  60	5.9000e-03	-6.9752	-29.583789	0.000490	4.899701	1.660063	-3.859309
  61	6.0000e-03	-7.7260	-32.299869	0.000345	3.448280	1.168309	-2.716080
  62	6.1000e-03	-8.5602	-35.252605	0.000375	3.748733	1.270105	-2.952736
  63	6.2000e-03	-9.3639	-38.416510	0.000402	4.016830	1.360939	-3.163905
  64	6.3000e-03	-10.1532	-41.503957	0.000392	3.919760	1.328051	-3.087447
  65	6.4000e-03	-10.9746	-44.937286	0.000436	4.358885	1.476830	-3.433329
  66	6.5000e-03	-11.7382	-47.689775	0.000349	3.494503	1.183970	-2.752488
  67	6.6000e-03	-12.5275	-50.602461	0.000370	3.697887	1.252878	-2.912686
  68	6.7000e-03	-13.3986	-53.540633	0.000373	3.730244	1.263841	-2.938172
  69	6.8000e-03	-14.1397	-56.413270	0.000365	3.647041	1.235651	-2.872637
  70	6.9000e-03	-14.9547	-59.380569	0.000377	3.767223	1.276370	-2.967299
  71	7.0000e-03	-15.7680	-62.238642	0.000363	3.628552	1.229387	-2.858073
  72	7.1000e-03	-16.5637	-65.020257	0.000353	3.531482	1.196499	-2.781615
  73	7.2000e-03	-17.3642	-67.554294	0.000322	3.217162	1.090004	-2.534037
  74	7.3000e-03	-18.1711	-70.270374	0.000345	3.448280	1.168309	-2.716080
  75	7.4000e-03	-18.9604	-73.518019	0.000412	4.123144	1.396959	-3.247645
  76	7.5000e-03	-19.7593	-76.408860	0.000367	3.670153	1.243482	-2.890841
  77	7.6000e-03	-19.4192	-77.956225	-0.000196	-1.964503	-0.665591	-1.547365
  78	7.7000e-03	-18.3989	-73.623604	0.000550	5.500607	1.863656	4.332621
  79	7.8000e-03	-17.8327	-69.414772	0.000534	5.343447	1.810409	4.208831
  80	7.9000e-03	-16.8509	-68.351642	0.000135	1.349729	0.457301	1.063130
  81	8.0000e-03	-16.1675	-66.778791	0.000200	1.996859	0.676554	1.572851
  82	8.1000e-03	-15.3509	-63.818774	0.000376	3.757978	1.273237	2.960017
  83	8.2000e-03	-14.5616	-60.913370	0.000369	3.688642	1.249746	2.905404
  84	8.3000e-03	-13.7755	-58.335642	0.000327	3.272630	1.108797	2.577727
  85	8.4000e-03	-12.9285	-55.342857	0.000380	3.799579	1.287332	2.992785
  86	8.5000e-03	-12.2066	-53.507865	0.000233	2.329669	0.789313	1.834992
  87	8.6000e-03	-11.3660	-50.620665	0.000367	3.665531	1.241915	2.887200
  88	8.7000e-03	-10.5623	-47.715261	0.000369	3.688642	1.249746	2.905404
  89	8.8000e-03	-9.7826	-44.649658	0.000389	3.892026	1.318654	3.065602
  90	8.9000e-03	-8.9869	-41.209048	0.000437	4.368129	1.479962	3.440611
  91	9.0000e-03	-8.1720	-39.530612	0.000213	2.130907	0.721971	1.678435
  92	9.1000e-03	-7.4067	-36.133692	0.000431	4.312661	1.461169	3.396920
  93	9.2000e-03	-6.5629	-32.889688	0.000412	4.118522	1.395393	3.244004
  94	9.3000e-03	-5.8105	-29.853213	0.000386	3.855047	1.306125	3.036475
  95	9.4000e-03	-4.9988	-26.474497	0.000429	4.289549	1.453339	3.378716
  96	9.5000e-03	-4.2047	-24.330032	0.000272	2.722569	0.922431	2.144465
  97	9.6000e-03	-3.3978	-20.612716	0.000472	4.719429	1.598986	3.717316
  98	9.7000e-03	-2.6069	-17.514346	0.000393	3.933627	1.332749	3.098370
  99	9.8000e-03	-1.7887	-14.212088	0.000419	4.192480	1.420451	3.302258
 100	9.9000e-03	-1.0203	-10.192581	0.000510	5.103084	1.728972	4.019507
 101	1.0000e-02	-0.2487	-7.993503	0.000510	5.103084	1.728972	2.199078

Center data before PMax,+/-Pr and +/-Vc Calc.

PMax (uC/cm2):	7.61e+01
Pr (uC/cm2):	7.20e-02
-Pr (uC/cm2):	-7.99e+00
PLoss (uC/cm2):	-4.79e+00
-Vc:	-1.45e-02
C (Max-Eff) (nF):	3.85e-01
K (Eff):	1.30e+03
Vert. (+/-Pr) Shift (uC/cm2):	-3.96e+00
Offset (uC/cm2):	3.19e+00

A (Loop Area - uC/cm2·Volts):	-7.97e+00



Hysteresis Version: 5.48.1 - Radiant Technologies, Inc., 1999 - 9/12/24

