»»»»»»»»»»»»»»»»»»»»»»»»»»»»»»»»»»»» Hysteresis ««««««««««««««««««««««««««««««««««««
»»»  Executed Version:	5.48.1
»»»  Vision Version:	5.48.4 (R)
»»»  Vision Compiled:	9/18/24
»»»  Driver Version:	5.47.0
»»»  Windows Version:	Windows 8 or 8.1
»»»  Processor Information:	x86 (AMD or Intel) - 32 Processors
»»»  Tester Name:	PMF21124-494 (100V)
»»»  Tester S/N:	PMF21124-494
»»»  Internal Amp Type:	100V RevK 270k
»»»  Internal Amp S/N:	iAB2-596/K     
»»»  Execution Count:	1
»»»»»»»»»»»»»»»»»»»»»»»»»»»»»»»»»»»»»»»»»»««««««««««««««««««««««««««««««««««««««««««

Stored:	6/4/2025 - 14:27:29
Configured:	06/04/25 01:46:06 PM
Executed:	06/04/25 02:26:48 PM

»»»»»»»»»»»»»»»»»»»»»»»»»»»»»»»»»»» Sample Info ««««««««««««««««««««««««««««««««««««
Sample Name:	
Lot Name:	
Wafer Name:	
Die Row/Column:	0/0
Capacitor Number:	0
Sample Area (cm2):	1.00e-04
Sample Thickness (microns):	3.00e-01

Amplifier:	Internal

»»»»»»»»»»»»»»»»»»»»»»»»»»»»»»»»»»» Tester Info «««««««««««««««««««««««««««««««««««
Tester Name:	PMF21124-494 (100V)
Tester Serial Number:	PMF21124-494
Return Signal Amp. Level:	0.19 [Index: 3]

»»»»»»»»»»»»»»»»»»»»»»»»»»»»»»»» Hysteresis Info ««««««««««««««««««««««««««««««««««
Task Name:	Hyst-37
Volts:	20.00
Field:	666.67 (kV/cm)
DCBias:	0.00
DCField:	0.00 (kV/cm)
Hysteresis Period (ms):	2.00e+02
Preset:	Enabled
Preset Delay (ms):	1.00e+03
Profile:	Standard Bipolar

»»»»»»»»»»»»»»»»»»»»»»»»»»»»»»»»»»»»»» Data «««««««««««««««««««««««««««««««««««««««
Points:	2009

Valid Data

Point	Time (ms)	Drive Voltage	Measured Polarization (uC/cm2)	Capacitance (uF)	Normalized Capacitance (uF/cm2)	Dielectric Constant	Instantaneous Current (mA)
   1	0.0000e+00	-0.0016	-4.186510	0.000304	3.039175	1.029701	0.000122
   2	9.9500e-02	0.0289	-4.065396	0.000304	3.039175	1.029701	0.000122
   3	1.9900e-01	0.0706	-3.871613	0.000486	4.862681	1.647521	0.000195
   4	2.9850e-01	0.1075	-3.722239	0.000375	3.748316	1.269964	0.000150
   5	3.9800e-01	0.1572	-3.528457	0.000486	4.862681	1.647521	0.000195
   6	4.9750e-01	0.1877	-3.358897	0.000425	4.254846	1.441581	0.000170
   7	5.9700e-01	0.2262	-3.161077	0.000496	4.963987	1.681844	0.000199
   8	6.9650e-01	0.2615	-2.934998	0.000567	5.673128	1.922108	0.000227
   9	7.9600e-01	0.3096	-2.781587	0.000385	3.849622	1.304287	0.000154
  10	8.9550e-01	0.3545	-2.620101	0.000405	4.052234	1.372934	0.000162
  11	9.9500e-01	0.3850	-2.434393	0.000466	4.660069	1.578874	0.000187
  12	1.0945e+00	0.4251	-2.244647	0.000476	4.761375	1.613197	0.000191
  13	1.1940e+00	0.4652	-1.994345	0.000628	6.280963	2.128048	0.000252
  14	1.2935e+00	0.5053	-1.853045	0.000355	3.545705	1.201317	0.000142
  15	1.3930e+00	0.5503	-1.731931	0.000304	3.039175	1.029701	0.000122
  16	1.4925e+00	0.5855	-1.534112	0.000496	4.963987	1.681844	0.000199
  17	1.5920e+00	0.6273	-1.295921	0.000598	5.977045	2.025078	0.000239
  18	1.6915e+00	0.6658	-1.102138	0.000486	4.862681	1.647521	0.000195
  19	1.7910e+00	0.7075	-0.924504	0.000446	4.457457	1.510227	0.000179
  20	1.8905e+00	0.7444	-0.758982	0.000415	4.153540	1.407257	0.000166
  21	1.9900e+00	0.7781	-0.565199	0.000486	4.862681	1.647521	0.000195
  22	2.0895e+00	0.8246	-0.359305	0.000517	5.166598	1.750491	0.000207
  23	2.1890e+00	0.8551	-0.157448	0.000507	5.065292	1.716168	0.000203
  24	2.2885e+00	0.9064	0.012111	0.000425	4.254846	1.441581	0.000170
  25	2.3880e+00	0.9353	0.218005	0.000517	5.166598	1.750491	0.000207
  26	2.4875e+00	0.9802	0.403714	0.000466	4.660069	1.578874	0.000187
  27	2.5870e+00	1.0267	0.528865	0.000314	3.140481	1.064024	0.000126
  28	2.6865e+00	1.0572	0.734759	0.000517	5.166598	1.750491	0.000207
  29	2.7860e+00	1.1021	0.940653	0.000517	5.166598	1.750491	0.000207
  30	2.8855e+00	1.1534	1.126361	0.000466	4.660069	1.578874	0.000187
  31	2.9850e+00	1.1791	1.344366	0.000547	5.470516	1.853461	0.000219
  32	3.0845e+00	1.2224	1.509889	0.000415	4.153540	1.407257	0.000166
  33	3.1840e+00	1.2657	1.752117	0.000608	6.078351	2.059401	0.000243
  34	3.2835e+00	1.3042	1.921677	0.000425	4.254846	1.441581	0.000170
  35	3.3830e+00	1.3395	2.083162	0.000405	4.052234	1.372934	0.000162
  36	3.4825e+00	1.3780	2.305205	0.000557	5.571822	1.887784	0.000223
  37	3.5820e+00	1.4214	2.470727	0.000415	4.153540	1.407257	0.000166
  38	3.6815e+00	1.4647	2.672584	0.000507	5.065292	1.716168	0.000203
  39	3.7810e+00	1.4935	2.862329	0.000476	4.761375	1.613197	0.000191
  40	3.8805e+00	1.5465	3.076297	0.000537	5.369210	1.819138	0.000215
  41	3.9800e+00	1.5850	3.249894	0.000436	4.356152	1.475904	0.000174
  42	4.0795e+00	1.6219	3.415417	0.000415	4.153540	1.407257	0.000166
  43	4.1790e+00	1.6620	3.605162	0.000476	4.761375	1.613197	0.000191
  44	4.2785e+00	1.7005	3.807019	0.000507	5.065292	1.716168	0.000203
  45	4.3780e+00	1.7438	4.037136	0.000577	5.774433	1.956431	0.000231
  46	4.4775e+00	1.7887	4.190547	0.000385	3.849622	1.304287	0.000154
  47	4.5770e+00	1.8256	4.412589	0.000557	5.571822	1.887784	0.000223
  48	4.6765e+00	1.8641	4.598298	0.000466	4.660069	1.578874	0.000187
  49	4.7760e+00	1.8962	4.779969	0.000456	4.558763	1.544551	0.000183
  50	4.8755e+00	1.9427	4.965677	0.000466	4.660069	1.578874	0.000187
  51	4.9750e+00	1.9828	5.147348	0.000456	4.558763	1.544551	0.000183
  52	5.0745e+00	2.0165	5.369391	0.000557	5.571822	1.887784	0.000223
  53	5.1740e+00	2.0630	5.599507	0.000577	5.774433	1.956431	0.000231
  54	5.2735e+00	2.1015	5.712547	0.000284	2.836564	0.961054	0.000114
  55	5.3730e+00	2.1400	5.938627	0.000567	5.673128	1.922108	0.000227
  56	5.4725e+00	2.1850	6.148558	0.000527	5.267904	1.784814	0.000211
  57	5.5720e+00	2.2187	6.322155	0.000436	4.356152	1.475904	0.000174
  58	5.6715e+00	2.2620	6.532086	0.000527	5.267904	1.784814	0.000211
  59	5.7710e+00	2.2924	6.693571	0.000405	4.052234	1.372934	0.000162
  60	5.8705e+00	2.3454	6.911576	0.000547	5.470516	1.853461	0.000219
  61	5.9700e+00	2.3791	7.081136	0.000425	4.254846	1.441581	0.000170
  62	6.0695e+00	2.4272	7.303179	0.000557	5.571822	1.887784	0.000223
  63	6.1690e+00	2.4577	7.484850	0.000456	4.558763	1.544551	0.000183
  64	6.2685e+00	2.4962	7.706892	0.000557	5.571822	1.887784	0.000223
  65	6.3680e+00	2.5443	7.876452	0.000425	4.254846	1.441581	0.000170
  66	6.4675e+00	2.5780	8.102531	0.000567	5.673128	1.922108	0.000227
  67	6.5670e+00	2.6261	8.280165	0.000446	4.457457	1.510227	0.000179
  68	6.6665e+00	2.6727	8.494134	0.000537	5.369210	1.819138	0.000215
  69	6.7660e+00	2.7015	8.700028	0.000517	5.166598	1.750491	0.000207
  70	6.8655e+00	2.7384	8.893810	0.000486	4.862681	1.647521	0.000195
  71	6.9650e+00	2.7753	9.083555	0.000476	4.761375	1.613197	0.000191
  72	7.0645e+00	2.8218	9.253115	0.000425	4.254846	1.441581	0.000170
  73	7.1640e+00	2.8620	9.459009	0.000517	5.166598	1.750491	0.000207
  74	7.2635e+00	2.9037	9.664903	0.000517	5.166598	1.750491	0.000207
  75	7.3630e+00	2.9357	9.862723	0.000496	4.963987	1.681844	0.000199
  76	7.4625e+00	2.9726	10.080728	0.000547	5.470516	1.853461	0.000219
  77	7.5620e+00	3.0176	10.286622	0.000517	5.166598	1.750491	0.000207
  78	7.6615e+00	3.0561	10.504627	0.000547	5.470516	1.853461	0.000219
  79	7.7610e+00	3.0978	10.666113	0.000405	4.052234	1.372934	0.000162
  80	7.8605e+00	3.1379	10.855858	0.000476	4.761375	1.613197	0.000191
  81	7.9600e+00	3.1844	11.061752	0.000517	5.166598	1.750491	0.000207
  82	8.0595e+00	3.2133	11.267646	0.000517	5.166598	1.750491	0.000207
  83	8.1590e+00	3.2486	11.501800	0.000588	5.875739	1.990754	0.000235
  84	8.2585e+00	3.2903	11.707694	0.000517	5.166598	1.750491	0.000207
  85	8.3580e+00	3.3400	11.921662	0.000537	5.369210	1.819138	0.000215
  86	8.4575e+00	3.3705	12.058924	0.000344	3.444399	1.166994	0.000138
  87	8.5570e+00	3.4154	12.272893	0.000537	5.369210	1.819138	0.000215
  88	8.6565e+00	3.4587	12.494935	0.000557	5.571822	1.887784	0.000223
  89	8.7560e+00	3.4908	12.733126	0.000598	5.977045	2.025078	0.000239
  90	8.8555e+00	3.5405	12.878463	0.000365	3.647011	1.235641	0.000146
  91	8.9550e+00	3.5758	13.076283	0.000496	4.963987	1.681844	0.000199
  92	9.0545e+00	3.6175	13.298325	0.000557	5.571822	1.887784	0.000223
  93	9.1540e+00	3.6496	13.463848	0.000415	4.153540	1.407257	0.000166
  94	9.2535e+00	3.6945	13.669742	0.000517	5.166598	1.750491	0.000207
  95	9.3530e+00	3.7330	13.887747	0.000547	5.470516	1.853461	0.000219
  96	9.4525e+00	3.7764	14.041158	0.000385	3.849622	1.304287	0.000154
  97	9.5520e+00	3.8133	14.263201	0.000557	5.571822	1.887784	0.000223
  98	9.6515e+00	3.8453	14.473132	0.000527	5.267904	1.784814	0.000211
  99	9.7510e+00	3.8871	14.683063	0.000527	5.267904	1.784814	0.000211
 100	9.8505e+00	3.9304	14.884919	0.000507	5.065292	1.716168	0.000203
 101	9.9500e+00	3.9785	15.086776	0.000507	5.065292	1.716168	0.000203
 102	1.0050e+01	4.0042	15.308819	0.000557	5.571822	1.887784	0.000223
 103	1.0149e+01	4.0587	15.506638	0.000496	4.963987	1.681844	0.000199
 104	1.0248e+01	4.0972	15.708495	0.000507	5.065292	1.716168	0.000203
 105	1.0348e+01	4.1261	15.857869	0.000375	3.748316	1.269964	0.000150
 106	1.0447e+01	4.1742	16.108172	0.000628	6.280963	2.128048	0.000252
 107	1.0547e+01	4.1983	16.265620	0.000395	3.950928	1.338611	0.000158
 108	1.0646e+01	4.2544	16.499774	0.000588	5.875739	1.990754	0.000235
 109	1.0746e+01	4.2961	16.705668	0.000517	5.166598	1.750491	0.000207
 110	1.0845e+01	4.3314	16.846967	0.000355	3.545705	1.201317	0.000142
 111	1.0945e+01	4.3699	17.060936	0.000537	5.369210	1.819138	0.000215
 112	1.1044e+01	4.4020	17.262792	0.000507	5.065292	1.716168	0.000203
 113	1.1144e+01	4.4453	17.496946	0.000588	5.875739	1.990754	0.000235
 114	1.1243e+01	4.4999	17.682655	0.000466	4.660069	1.578874	0.000187
 115	1.1343e+01	4.5432	17.864326	0.000456	4.558763	1.544551	0.000183
 116	1.1443e+01	4.5769	18.062145	0.000496	4.963987	1.681844	0.000199
 117	1.1542e+01	4.6122	18.255928	0.000486	4.862681	1.647521	0.000195
 118	1.1642e+01	4.6619	18.473933	0.000547	5.470516	1.853461	0.000219
 119	1.1741e+01	4.6924	18.659641	0.000466	4.660069	1.578874	0.000187
 120	1.1841e+01	4.7229	18.849387	0.000476	4.761375	1.613197	0.000191
 121	1.1940e+01	4.7694	19.083541	0.000588	5.875739	1.990754	0.000235
 122	1.2040e+01	4.8191	19.309620	0.000567	5.673128	1.922108	0.000227
 123	1.2139e+01	4.8512	19.495328	0.000466	4.660069	1.578874	0.000187
 124	1.2239e+01	4.8929	19.709297	0.000537	5.369210	1.819138	0.000215
 125	1.2338e+01	4.9250	19.850596	0.000355	3.545705	1.201317	0.000142
 126	1.2438e+01	4.9587	20.080713	0.000577	5.774433	1.956431	0.000231
 127	1.2537e+01	5.0020	20.270459	0.000476	4.761375	1.613197	0.000191
 128	1.2636e+01	5.0501	20.528835	0.000648	6.483574	2.196694	0.000260
 129	1.2736e+01	5.0902	20.682246	0.000385	3.849622	1.304287	0.000154
 130	1.2835e+01	5.1287	20.871992	0.000476	4.761375	1.613197	0.000191
 131	1.2935e+01	5.1720	21.081923	0.000527	5.267904	1.784814	0.000211
 132	1.3034e+01	5.2105	21.299928	0.000547	5.470516	1.853461	0.000219
 133	1.3134e+01	5.2523	21.493711	0.000486	4.862681	1.647521	0.000195
 134	1.3233e+01	5.2924	21.675382	0.000456	4.558763	1.544551	0.000183
 135	1.3333e+01	5.3244	21.873201	0.000496	4.963987	1.681844	0.000199
 136	1.3432e+01	5.3678	22.099281	0.000567	5.673128	1.922108	0.000227
 137	1.3532e+01	5.4079	22.297101	0.000496	4.963987	1.681844	0.000199
 138	1.3632e+01	5.4528	22.454549	0.000395	3.950928	1.338611	0.000158
 139	1.3731e+01	5.4849	22.644294	0.000476	4.761375	1.613197	0.000191
 140	1.3831e+01	5.5298	22.870374	0.000567	5.673128	1.922108	0.000227
 141	1.3930e+01	5.5651	23.104528	0.000588	5.875739	1.990754	0.000235
 142	1.4030e+01	5.6052	23.278125	0.000436	4.356152	1.475904	0.000174
 143	1.4129e+01	5.6501	23.447684	0.000425	4.254846	1.441581	0.000170
 144	1.4229e+01	5.6870	23.677801	0.000577	5.774433	1.956431	0.000231
 145	1.4328e+01	5.7255	23.831212	0.000385	3.849622	1.304287	0.000154
 146	1.4428e+01	5.7544	24.045180	0.000537	5.369210	1.819138	0.000215
 147	1.4527e+01	5.7993	24.247037	0.000507	5.065292	1.716168	0.000203
 148	1.4627e+01	5.8410	24.440820	0.000486	4.862681	1.647521	0.000195
 149	1.4726e+01	5.8891	24.662862	0.000557	5.571822	1.887784	0.000223
 150	1.4825e+01	5.9357	24.852608	0.000476	4.761375	1.613197	0.000191
 151	1.4925e+01	5.9661	25.078687	0.000567	5.673128	1.922108	0.000227
 152	1.5024e+01	6.0127	25.256321	0.000446	4.457457	1.510227	0.000179
 153	1.5124e+01	6.0447	25.433955	0.000446	4.457457	1.510227	0.000179
 154	1.5223e+01	6.0913	25.583329	0.000375	3.748316	1.269964	0.000150
 155	1.5323e+01	6.1362	25.829594	0.000618	6.179657	2.093724	0.000248
 156	1.5422e+01	6.1651	25.995117	0.000415	4.153540	1.407257	0.000166
 157	1.5522e+01	6.2148	26.192937	0.000496	4.963987	1.681844	0.000199
 158	1.5621e+01	6.2549	26.374608	0.000456	4.558763	1.544551	0.000183
 159	1.5721e+01	6.2774	26.580502	0.000517	5.166598	1.750491	0.000207
 160	1.5820e+01	6.3255	26.782358	0.000507	5.065292	1.716168	0.000203
 161	1.5920e+01	6.3624	26.988252	0.000517	5.166598	1.750491	0.000207
 162	1.6020e+01	6.4073	27.198183	0.000527	5.267904	1.784814	0.000211
 163	1.6119e+01	6.4490	27.355632	0.000395	3.950928	1.338611	0.000158
 164	1.6218e+01	6.4843	27.545377	0.000476	4.761375	1.613197	0.000191
 165	1.6318e+01	6.5212	27.751271	0.000517	5.166598	1.750491	0.000207
 166	1.6418e+01	6.5597	27.928905	0.000446	4.457457	1.510227	0.000179
 167	1.6517e+01	6.6046	28.118650	0.000476	4.761375	1.613197	0.000191
 168	1.6616e+01	6.6495	28.300322	0.000456	4.558763	1.544551	0.000183
 169	1.6716e+01	6.6897	28.550624	0.000628	6.280963	2.128048	0.000252
 170	1.6816e+01	6.7249	28.691924	0.000355	3.545705	1.201317	0.000142
 171	1.6915e+01	6.7570	28.893780	0.000507	5.065292	1.716168	0.000203
 172	1.7015e+01	6.8068	29.083526	0.000476	4.761375	1.613197	0.000191
 173	1.7114e+01	6.8453	29.301531	0.000547	5.470516	1.853461	0.000219
 174	1.7213e+01	6.8806	29.487239	0.000466	4.660069	1.578874	0.000187
 175	1.7313e+01	6.9255	29.656799	0.000425	4.254846	1.441581	0.000170
 176	1.7413e+01	6.9656	29.874804	0.000547	5.470516	1.853461	0.000219
 177	1.7512e+01	6.9993	30.080698	0.000517	5.166598	1.750491	0.000207
 178	1.7611e+01	7.0442	30.274481	0.000486	4.862681	1.647521	0.000195
 179	1.7711e+01	7.0843	30.448078	0.000436	4.356152	1.475904	0.000174
 180	1.7811e+01	7.1196	30.625712	0.000446	4.457457	1.510227	0.000179
 181	1.7910e+01	7.1613	30.843717	0.000547	5.470516	1.853461	0.000219
 182	1.8009e+01	7.1950	31.037500	0.000486	4.862681	1.647521	0.000195
 183	1.8109e+01	7.2383	31.239356	0.000507	5.065292	1.716168	0.000203
 184	1.8209e+01	7.2736	31.437176	0.000496	4.963987	1.681844	0.000199
 185	1.8308e+01	7.3201	31.610773	0.000436	4.356152	1.475904	0.000174
 186	1.8407e+01	7.3666	31.836852	0.000567	5.673128	1.922108	0.000227
 187	1.8507e+01	7.4035	31.994301	0.000395	3.950928	1.338611	0.000158
 188	1.8607e+01	7.4468	32.175972	0.000456	4.558763	1.544551	0.000183
 189	1.8706e+01	7.4757	32.393977	0.000547	5.470516	1.853461	0.000219
 190	1.8805e+01	7.5239	32.587760	0.000486	4.862681	1.647521	0.000195
 191	1.8905e+01	7.5511	32.737134	0.000375	3.748316	1.269964	0.000150
 192	1.9005e+01	7.5976	32.955139	0.000547	5.470516	1.853461	0.000219
 193	1.9104e+01	7.6394	33.132773	0.000446	4.457457	1.510227	0.000179
 194	1.9203e+01	7.6827	33.383075	0.000628	6.280963	2.128048	0.000252
 195	1.9303e+01	7.7292	33.524375	0.000355	3.545705	1.201317	0.000142
 196	1.9402e+01	7.7613	33.722195	0.000496	4.963987	1.681844	0.000199
 197	1.9502e+01	7.7966	33.948274	0.000567	5.673128	1.922108	0.000227
 198	1.9602e+01	7.8335	34.138020	0.000476	4.761375	1.613197	0.000191
 199	1.9701e+01	7.8768	34.311617	0.000436	4.356152	1.475904	0.000174
 200	1.9800e+01	7.9185	34.448879	0.000344	3.444399	1.166994	0.000138
 201	1.9900e+01	7.9602	34.715330	0.000669	6.686186	2.265341	0.000268
 202	2.0000e+01	8.0083	34.888927	0.000436	4.356152	1.475904	0.000174
 203	2.0099e+01	8.0372	35.074635	0.000466	4.660069	1.578874	0.000187
 204	2.0198e+01	8.0789	35.260344	0.000466	4.660069	1.578874	0.000187
 205	2.0298e+01	8.1206	35.450089	0.000476	4.761375	1.613197	0.000191
 206	2.0398e+01	8.1607	35.680206	0.000577	5.774433	1.956431	0.000231
 207	2.0497e+01	8.1944	35.833617	0.000385	3.849622	1.304287	0.000154
 208	2.0596e+01	8.2409	36.007214	0.000436	4.356152	1.475904	0.000174
 209	2.0696e+01	8.2746	36.217145	0.000527	5.267904	1.784814	0.000211
 210	2.0796e+01	8.3196	36.386704	0.000425	4.254846	1.441581	0.000170
 211	2.0895e+01	8.3581	36.596635	0.000527	5.267904	1.784814	0.000211
 212	2.0994e+01	8.3933	36.790418	0.000486	4.862681	1.647521	0.000195
 213	2.1094e+01	8.4399	36.972089	0.000456	4.558763	1.544551	0.000183
 214	2.1194e+01	8.4800	37.113389	0.000355	3.545705	1.201317	0.000142
 215	2.1293e+01	8.5249	37.363691	0.000628	6.280963	2.128048	0.000252
 216	2.1392e+01	8.5570	37.541325	0.000446	4.457457	1.510227	0.000179
 217	2.1492e+01	8.5907	37.702811	0.000405	4.052234	1.372934	0.000162
 218	2.1591e+01	8.6404	37.888519	0.000466	4.660069	1.578874	0.000187
 219	2.1691e+01	8.6789	38.094413	0.000517	5.166598	1.750491	0.000207
 220	2.1791e+01	8.7094	38.259935	0.000415	4.153540	1.407257	0.000166
 221	2.1890e+01	8.7591	38.473904	0.000537	5.369210	1.819138	0.000215
 222	2.1989e+01	8.7880	38.667686	0.000486	4.862681	1.647521	0.000195
 223	2.2089e+01	8.8361	38.829172	0.000405	4.052234	1.372934	0.000162
 224	2.2189e+01	8.8666	39.059288	0.000577	5.774433	1.956431	0.000231
 225	2.2288e+01	8.9211	39.232885	0.000436	4.356152	1.475904	0.000174
 226	2.2387e+01	8.9548	39.426668	0.000486	4.862681	1.647521	0.000195
 227	2.2487e+01	8.9981	39.592190	0.000415	4.153540	1.407257	0.000166
 228	2.2587e+01	9.0382	39.790010	0.000496	4.963987	1.681844	0.000199
 229	2.2686e+01	9.0751	39.975718	0.000466	4.660069	1.578874	0.000187
 230	2.2785e+01	9.1169	40.193723	0.000547	5.470516	1.853461	0.000219
 231	2.2885e+01	9.1505	40.322912	0.000324	3.241787	1.098347	0.000130
 232	2.2985e+01	9.1842	40.569177	0.000618	6.179657	2.093724	0.000248
 233	2.3084e+01	9.2340	40.734700	0.000415	4.153540	1.407257	0.000166
 234	2.3183e+01	9.2677	40.924445	0.000476	4.761375	1.613197	0.000191
 235	2.3283e+01	9.3158	41.094005	0.000425	4.254846	1.441581	0.000170
 236	2.3383e+01	9.3511	41.287787	0.000486	4.862681	1.647521	0.000195
 237	2.3482e+01	9.3928	41.493681	0.000517	5.166598	1.750491	0.000207
 238	2.3581e+01	9.4265	41.691501	0.000496	4.963987	1.681844	0.000199
 239	2.3681e+01	9.4762	41.897395	0.000517	5.166598	1.750491	0.000207
 240	2.3780e+01	9.5083	42.050806	0.000385	3.849622	1.304287	0.000154
 241	2.3880e+01	9.5468	42.240551	0.000476	4.761375	1.613197	0.000191
 242	2.3980e+01	9.5917	42.418185	0.000446	4.457457	1.510227	0.000179
 243	2.4079e+01	9.6286	42.628116	0.000527	5.267904	1.784814	0.000211
 244	2.4178e+01	9.6783	42.809787	0.000456	4.558763	1.544551	0.000183
 245	2.4278e+01	9.7152	43.003570	0.000486	4.862681	1.647521	0.000195
 246	2.4378e+01	9.7585	43.201390	0.000496	4.963987	1.681844	0.000199
 247	2.4477e+01	9.7890	43.374986	0.000436	4.356152	1.475904	0.000174
 248	2.4576e+01	9.8339	43.572806	0.000496	4.963987	1.681844	0.000199
 249	2.4676e+01	9.8660	43.774663	0.000507	5.065292	1.716168	0.000203
 250	2.4776e+01	9.9045	43.940185	0.000415	4.153540	1.407257	0.000166
 251	2.4875e+01	9.9527	44.121856	0.000456	4.558763	1.544551	0.000183
 252	2.4974e+01	9.9944	44.327750	0.000517	5.166598	1.750491	0.000207
 253	2.5074e+01	10.0313	44.533644	0.000517	5.166598	1.750491	0.000207
 254	2.5174e+01	10.0682	44.703204	0.000425	4.254846	1.441581	0.000170
 255	2.5273e+01	10.1147	44.868727	0.000415	4.153540	1.407257	0.000166
 256	2.5372e+01	10.1580	45.110955	0.000608	6.078351	2.059401	0.000243
 257	2.5472e+01	10.1837	45.252254	0.000355	3.545705	1.201317	0.000142
 258	2.5572e+01	10.2254	45.466223	0.000537	5.369210	1.819138	0.000215
 259	2.5671e+01	10.2687	45.607522	0.000355	3.545705	1.201317	0.000142
 260	2.5770e+01	10.3104	45.833602	0.000567	5.673128	1.922108	0.000227
 261	2.5870e+01	10.3521	45.995087	0.000405	4.052234	1.372934	0.000162
 262	2.5970e+01	10.3842	46.188870	0.000486	4.862681	1.647521	0.000195
 263	2.6069e+01	10.4259	46.374578	0.000466	4.660069	1.578874	0.000187
 264	2.6169e+01	10.4644	46.556249	0.000456	4.558763	1.544551	0.000183
 265	2.6268e+01	10.5109	46.745995	0.000476	4.761375	1.613197	0.000191
 266	2.6367e+01	10.5462	46.927666	0.000456	4.558763	1.544551	0.000183
 267	2.6467e+01	10.5847	47.109337	0.000456	4.558763	1.544551	0.000183
 268	2.6567e+01	10.6264	47.291008	0.000456	4.558763	1.544551	0.000183
 269	2.6666e+01	10.6617	47.464605	0.000436	4.356152	1.475904	0.000174
 270	2.6765e+01	10.7131	47.650313	0.000466	4.660069	1.578874	0.000187
 271	2.6865e+01	10.7484	47.799687	0.000375	3.748316	1.269964	0.000150
 272	2.6965e+01	10.7917	48.049990	0.000628	6.280963	2.128048	0.000252
 273	2.7064e+01	10.8157	48.199364	0.000375	3.748316	1.269964	0.000150
 274	2.7163e+01	10.8671	48.417369	0.000547	5.470516	1.853461	0.000219
 275	2.7263e+01	10.9088	48.526372	0.000274	2.735258	0.926730	0.000110
 276	2.7363e+01	10.9521	48.740340	0.000537	5.369210	1.819138	0.000215
 277	2.7462e+01	10.9890	48.930085	0.000476	4.761375	1.613197	0.000191
 278	2.7561e+01	11.0275	49.123868	0.000486	4.862681	1.647521	0.000195
 279	2.7661e+01	11.0692	49.289390	0.000415	4.153540	1.407257	0.000166
 280	2.7761e+01	11.1157	49.487210	0.000496	4.963987	1.681844	0.000199
 281	2.7860e+01	11.1446	49.636584	0.000375	3.748316	1.269964	0.000150
 282	2.7959e+01	11.1911	49.862664	0.000567	5.673128	1.922108	0.000227
 283	2.8059e+01	11.2296	50.052409	0.000476	4.761375	1.613197	0.000191
 284	2.8159e+01	11.2649	50.189671	0.000344	3.444399	1.166994	0.000138
 285	2.8258e+01	11.3098	50.359231	0.000425	4.254846	1.441581	0.000170
 286	2.8358e+01	11.3483	50.548977	0.000476	4.761375	1.613197	0.000191
 287	2.8457e+01	11.3820	50.714499	0.000415	4.153540	1.407257	0.000166
 288	2.8556e+01	11.4221	50.904245	0.000476	4.761375	1.613197	0.000191
 289	2.8656e+01	11.4703	51.134361	0.000577	5.774433	1.956431	0.000231
 290	2.8756e+01	11.5023	51.267587	0.000334	3.343093	1.132671	0.000134
 291	2.8855e+01	11.5360	51.481555	0.000537	5.369210	1.819138	0.000215
 292	2.8954e+01	11.5858	51.643040	0.000405	4.052234	1.372934	0.000162
 293	2.9054e+01	11.6259	51.832786	0.000476	4.761375	1.613197	0.000191
 294	2.9154e+01	11.6644	52.030605	0.000496	4.963987	1.681844	0.000199
 295	2.9253e+01	11.7045	52.167868	0.000344	3.444399	1.166994	0.000138
 296	2.9352e+01	11.7446	52.349539	0.000456	4.558763	1.544551	0.000183
 297	2.9452e+01	11.7863	52.587730	0.000598	5.977045	2.025078	0.000239
 298	2.9552e+01	11.8200	52.729030	0.000355	3.545705	1.201317	0.000142
 299	2.9651e+01	11.8681	52.926850	0.000496	4.963987	1.681844	0.000199
 300	2.9750e+01	11.9066	53.080261	0.000385	3.849622	1.304287	0.000154
 301	2.9850e+01	11.9419	53.278080	0.000496	4.963987	1.681844	0.000199
 302	2.9950e+01	11.9900	53.451677	0.000436	4.356152	1.475904	0.000174
 303	3.0049e+01	12.0205	53.625274	0.000436	4.356152	1.475904	0.000174
 304	3.0148e+01	12.0606	53.802908	0.000446	4.457457	1.510227	0.000179
 305	3.0248e+01	12.1039	54.008802	0.000517	5.166598	1.750491	0.000207
 306	3.0348e+01	12.1473	54.146065	0.000344	3.444399	1.166994	0.000138
 307	3.0447e+01	12.1858	54.331773	0.000466	4.660069	1.578874	0.000187
 308	3.0547e+01	12.2243	54.537667	0.000517	5.166598	1.750491	0.000207
 309	3.0646e+01	12.2563	54.715301	0.000446	4.457457	1.510227	0.000179
 310	3.0745e+01	12.2980	54.868712	0.000385	3.849622	1.304287	0.000154
 311	3.0845e+01	12.3382	55.026160	0.000395	3.950928	1.338611	0.000158
 312	3.0945e+01	12.3831	55.207831	0.000456	4.558763	1.544551	0.000183
 313	3.1044e+01	12.4184	55.417762	0.000527	5.267904	1.784814	0.000211
 314	3.1143e+01	12.4601	55.603471	0.000466	4.660069	1.578874	0.000187
 315	3.1243e+01	12.5002	55.704399	0.000253	2.532646	0.858084	0.000101
 316	3.1343e+01	12.5387	55.910293	0.000517	5.166598	1.750491	0.000207
 317	3.1442e+01	12.5740	56.108112	0.000496	4.963987	1.681844	0.000199
 318	3.1541e+01	12.6237	56.269598	0.000405	4.052234	1.372934	0.000162
 319	3.1641e+01	12.6622	56.398786	0.000324	3.241787	1.098347	0.000130
 320	3.1741e+01	12.6991	56.645052	0.000618	6.179657	2.093724	0.000248
 321	3.1840e+01	12.7392	56.822686	0.000446	4.457457	1.510227	0.000179
 322	3.1939e+01	12.7761	56.947837	0.000314	3.140481	1.064024	0.000126
 323	3.2039e+01	12.8242	57.145656	0.000496	4.963987	1.681844	0.000199
 324	3.2139e+01	12.8595	57.290993	0.000365	3.647011	1.235641	0.000146
 325	3.2238e+01	12.9044	57.484776	0.000486	4.862681	1.647521	0.000195
 326	3.2337e+01	12.9349	57.650298	0.000415	4.153540	1.407257	0.000166
 327	3.2437e+01	12.9782	57.819858	0.000425	4.254846	1.441581	0.000170
 328	3.2536e+01	13.0200	57.973269	0.000385	3.849622	1.304287	0.000154
 329	3.2636e+01	13.0536	58.163015	0.000476	4.761375	1.613197	0.000191
 330	3.2736e+01	13.0986	58.324500	0.000405	4.052234	1.372934	0.000162
 331	3.2835e+01	13.1339	58.514245	0.000476	4.761375	1.613197	0.000191
 332	3.2934e+01	13.1691	58.675731	0.000405	4.052234	1.372934	0.000162
 333	3.3034e+01	13.2109	58.861439	0.000466	4.660069	1.578874	0.000187
 334	3.3133e+01	13.2510	59.014850	0.000385	3.849622	1.304287	0.000154
 335	3.3233e+01	13.2975	59.144039	0.000324	3.241787	1.098347	0.000130
 336	3.3333e+01	13.3376	59.333784	0.000476	4.761375	1.613197	0.000191
 337	3.3432e+01	13.3761	59.547752	0.000537	5.369210	1.819138	0.000215
 338	3.3532e+01	13.4050	59.676940	0.000324	3.241787	1.098347	0.000130
 339	3.3631e+01	13.4547	59.874760	0.000496	4.963987	1.681844	0.000199
 340	3.3730e+01	13.4948	60.016060	0.000355	3.545705	1.201317	0.000142
 341	3.3830e+01	13.5285	60.205805	0.000476	4.761375	1.613197	0.000191
 342	3.3929e+01	13.5782	60.339031	0.000334	3.343093	1.132671	0.000134
 343	3.4029e+01	13.6087	60.528776	0.000476	4.761375	1.613197	0.000191
 344	3.4129e+01	13.6584	60.706410	0.000446	4.457457	1.510227	0.000179
 345	3.4228e+01	13.6873	60.884044	0.000446	4.457457	1.510227	0.000179
 346	3.4328e+01	13.7338	61.033418	0.000375	3.748316	1.269964	0.000150
 347	3.4427e+01	13.7788	61.194904	0.000405	4.052234	1.372934	0.000162
 348	3.4526e+01	13.8157	61.396760	0.000507	5.065292	1.716168	0.000203
 349	3.4626e+01	13.8509	61.554209	0.000395	3.950928	1.338611	0.000158
 350	3.4725e+01	13.8959	61.703583	0.000375	3.748316	1.269964	0.000150
 351	3.4825e+01	13.9392	61.881217	0.000446	4.457457	1.510227	0.000179
 352	3.4925e+01	13.9761	62.026553	0.000365	3.647011	1.235641	0.000146
 353	3.5024e+01	14.0130	62.236485	0.000527	5.267904	1.784814	0.000211
 354	3.5123e+01	14.0643	62.393933	0.000395	3.950928	1.338611	0.000158
 355	3.5223e+01	14.1012	62.591752	0.000496	4.963987	1.681844	0.000199
 356	3.5322e+01	14.1381	62.749201	0.000395	3.950928	1.338611	0.000158
 357	3.5422e+01	14.1718	62.910686	0.000405	4.052234	1.372934	0.000162
 358	3.5522e+01	14.2055	63.068134	0.000395	3.950928	1.338611	0.000158
 359	3.5621e+01	14.2584	63.245768	0.000446	4.457457	1.510227	0.000179
 360	3.5721e+01	14.2889	63.435514	0.000476	4.761375	1.613197	0.000191
 361	3.5820e+01	14.3210	63.609111	0.000436	4.356152	1.475904	0.000174
 362	3.5919e+01	14.3755	63.750410	0.000355	3.545705	1.201317	0.000142
 363	3.6019e+01	14.4156	63.915933	0.000415	4.153540	1.407257	0.000166
 364	3.6118e+01	14.4590	64.089530	0.000436	4.356152	1.475904	0.000174
 365	3.6218e+01	14.4894	64.255052	0.000415	4.153540	1.407257	0.000166
 366	3.6318e+01	14.5392	64.432686	0.000446	4.457457	1.510227	0.000179
 367	3.6417e+01	14.5680	64.598209	0.000415	4.153540	1.407257	0.000166
 368	3.6517e+01	14.6146	64.771806	0.000436	4.356152	1.475904	0.000174
 369	3.6616e+01	14.6547	64.937328	0.000415	4.153540	1.407257	0.000166
 370	3.6715e+01	14.6964	65.086702	0.000375	3.748316	1.269964	0.000150
 371	3.6815e+01	14.7317	65.276448	0.000476	4.761375	1.613197	0.000191
 372	3.6914e+01	14.7654	65.425822	0.000375	3.748316	1.269964	0.000150
 373	3.7014e+01	14.8007	65.591344	0.000415	4.153540	1.407257	0.000166
 374	3.7114e+01	14.8520	65.748793	0.000395	3.950928	1.338611	0.000158
 375	3.7213e+01	14.8809	65.946612	0.000496	4.963987	1.681844	0.000199
 376	3.7313e+01	14.9274	66.112135	0.000415	4.153540	1.407257	0.000166
 377	3.7412e+01	14.9723	66.217100	0.000263	2.633952	0.892407	0.000105
 378	3.7511e+01	15.0092	66.431069	0.000537	5.369210	1.819138	0.000215
 379	3.7611e+01	15.0605	66.600628	0.000425	4.254846	1.441581	0.000170
 380	3.7711e+01	15.0910	66.733854	0.000334	3.343093	1.132671	0.000134
 381	3.7810e+01	15.1279	66.883228	0.000375	3.748316	1.269964	0.000150
 382	3.7910e+01	15.1696	67.081047	0.000496	4.963987	1.681844	0.000199
 383	3.8009e+01	15.2049	67.226384	0.000365	3.647011	1.235641	0.000146
 384	3.8108e+01	15.2434	67.399981	0.000436	4.356152	1.475904	0.000174
 385	3.8208e+01	15.2851	67.589727	0.000476	4.761375	1.613197	0.000191
 386	3.8307e+01	15.3300	67.714878	0.000314	3.140481	1.064024	0.000126
 387	3.8407e+01	15.3702	67.916735	0.000507	5.065292	1.716168	0.000203
 388	3.8507e+01	15.4006	68.078220	0.000405	4.052234	1.372934	0.000162
 389	3.8606e+01	15.4520	68.223557	0.000365	3.647011	1.235641	0.000146
 390	3.8706e+01	15.4873	68.401191	0.000446	4.457457	1.510227	0.000179
 391	3.8805e+01	15.5242	68.526342	0.000314	3.140481	1.064024	0.000126
 392	3.8904e+01	15.5707	68.708013	0.000456	4.558763	1.544551	0.000183
 393	3.9004e+01	15.6140	68.853350	0.000365	3.647011	1.235641	0.000146
 394	3.9103e+01	15.6477	69.055207	0.000507	5.065292	1.716168	0.000203
 395	3.9203e+01	15.6894	69.204581	0.000375	3.748316	1.269964	0.000150
 396	3.9303e+01	15.7311	69.394326	0.000476	4.761375	1.613197	0.000191
 397	3.9402e+01	15.7696	69.575997	0.000456	4.558763	1.544551	0.000183
 398	3.9502e+01	15.8065	69.701149	0.000314	3.140481	1.064024	0.000126
 399	3.9601e+01	15.8466	69.878782	0.000446	4.457457	1.510227	0.000179
 400	3.9700e+01	15.8931	69.991822	0.000284	2.836564	0.961054	0.000114
 401	3.9800e+01	15.9268	70.189642	0.000496	4.963987	1.681844	0.000199
 402	3.9900e+01	15.9605	70.359202	0.000425	4.254846	1.441581	0.000170
 403	3.9999e+01	16.0102	70.548947	0.000476	4.761375	1.613197	0.000191
 404	4.0099e+01	16.0520	70.706395	0.000395	3.950928	1.338611	0.000158
 405	4.0198e+01	16.0840	70.888066	0.000456	4.558763	1.544551	0.000183
 406	4.0297e+01	16.1225	71.033403	0.000365	3.647011	1.235641	0.000146
 407	4.0397e+01	16.1626	71.142406	0.000274	2.735258	0.926730	0.000110
 408	4.0496e+01	16.2124	71.360411	0.000547	5.470516	1.853461	0.000219
 409	4.0596e+01	16.2509	71.501711	0.000355	3.545705	1.201317	0.000142
 410	4.0696e+01	16.2830	71.667234	0.000415	4.153540	1.407257	0.000166
 411	4.0795e+01	16.3150	71.881202	0.000537	5.369210	1.819138	0.000215
 412	4.0895e+01	16.3696	72.030576	0.000375	3.748316	1.269964	0.000150
 413	4.0994e+01	16.4017	72.200136	0.000425	4.254846	1.441581	0.000170
 414	4.1093e+01	16.4450	72.393918	0.000486	4.862681	1.647521	0.000195
 415	4.1193e+01	16.4851	72.527144	0.000334	3.343093	1.132671	0.000134
 416	4.1292e+01	16.5236	72.656332	0.000324	3.241787	1.098347	0.000130
 417	4.1392e+01	16.5541	72.858189	0.000507	5.065292	1.716168	0.000203
 418	4.1492e+01	16.6038	73.015637	0.000395	3.950928	1.338611	0.000158
 419	4.1591e+01	16.6503	73.169048	0.000385	3.849622	1.304287	0.000154
 420	4.1691e+01	16.6808	73.342645	0.000436	4.356152	1.475904	0.000174
 421	4.1790e+01	16.7338	73.504130	0.000405	4.052234	1.372934	0.000162
 422	4.1889e+01	16.7642	73.681764	0.000446	4.457457	1.510227	0.000179
 423	4.1989e+01	16.8027	73.831138	0.000375	3.748316	1.269964	0.000150
 424	4.2089e+01	16.8460	73.964364	0.000334	3.343093	1.132671	0.000134
 425	4.2188e+01	16.8862	74.150072	0.000466	4.660069	1.578874	0.000187
 426	4.2288e+01	16.9343	74.283298	0.000334	3.343093	1.132671	0.000134
 427	4.2387e+01	16.9648	74.477080	0.000486	4.862681	1.647521	0.000195
 428	4.2486e+01	17.0033	74.638566	0.000405	4.052234	1.372934	0.000162
 429	4.2586e+01	17.0482	74.791977	0.000385	3.849622	1.304287	0.000154
 430	4.2685e+01	17.0787	74.949425	0.000395	3.950928	1.338611	0.000158
 431	4.2785e+01	17.1252	75.110910	0.000405	4.052234	1.372934	0.000162
 432	4.2885e+01	17.1669	75.300656	0.000476	4.761375	1.613197	0.000191
 433	4.2984e+01	17.1926	75.441956	0.000355	3.545705	1.201317	0.000142
 434	4.3084e+01	17.2439	75.627664	0.000466	4.660069	1.578874	0.000187
 435	4.3183e+01	17.2776	75.740704	0.000284	2.836564	0.961054	0.000114
 436	4.3282e+01	17.3225	75.914300	0.000436	4.356152	1.475904	0.000174
 437	4.3382e+01	17.3530	76.079823	0.000415	4.153540	1.407257	0.000166
 438	4.3481e+01	17.4027	76.261494	0.000456	4.558763	1.544551	0.000183
 439	4.3581e+01	17.4492	76.370497	0.000274	2.735258	0.926730	0.000110
 440	4.3681e+01	17.4813	76.560242	0.000476	4.761375	1.613197	0.000191
 441	4.3780e+01	17.5295	76.741913	0.000456	4.558763	1.544551	0.000183
 442	4.3880e+01	17.5680	76.875139	0.000334	3.343093	1.132671	0.000134
 443	4.3979e+01	17.6097	77.048736	0.000436	4.356152	1.475904	0.000174
 444	4.4078e+01	17.6385	77.222332	0.000436	4.356152	1.475904	0.000174
 445	4.4178e+01	17.6867	77.379781	0.000395	3.950928	1.338611	0.000158
 446	4.4278e+01	17.7171	77.492820	0.000284	2.836564	0.961054	0.000114
 447	4.4377e+01	17.7669	77.678529	0.000466	4.660069	1.578874	0.000187
 448	4.4477e+01	17.7974	77.823866	0.000365	3.647011	1.235641	0.000146
 449	4.4576e+01	17.8359	77.993425	0.000425	4.254846	1.441581	0.000170
 450	4.4675e+01	17.8808	78.134725	0.000355	3.545705	1.201317	0.000142
 451	4.4775e+01	17.9129	78.340619	0.000517	5.166598	1.750491	0.000207
 452	4.4874e+01	17.9562	78.473844	0.000334	3.343093	1.132671	0.000134
 453	4.4974e+01	17.9995	78.607070	0.000334	3.343093	1.132671	0.000134
 454	4.5074e+01	18.0332	78.796815	0.000476	4.761375	1.613197	0.000191
 455	4.5173e+01	18.0717	78.930041	0.000334	3.343093	1.132671	0.000134
 456	4.5273e+01	18.1166	79.119786	0.000476	4.761375	1.613197	0.000191
 457	4.5372e+01	18.1615	79.240900	0.000304	3.039175	1.029701	0.000122
 458	4.5471e+01	18.2048	79.402386	0.000405	4.052234	1.372934	0.000162
 459	4.5571e+01	18.2465	79.571945	0.000425	4.254846	1.441581	0.000170
 460	4.5670e+01	18.2786	79.745542	0.000436	4.356152	1.475904	0.000174
 461	4.5770e+01	18.3091	79.890879	0.000365	3.647011	1.235641	0.000146
 462	4.5870e+01	18.3556	80.020067	0.000324	3.241787	1.098347	0.000130
 463	4.5969e+01	18.3941	80.185590	0.000415	4.153540	1.407257	0.000166
 464	4.6069e+01	18.4358	80.375335	0.000476	4.761375	1.613197	0.000191
 465	4.6168e+01	18.4840	80.532784	0.000395	3.950928	1.338611	0.000158
 466	4.6267e+01	18.5209	80.674083	0.000355	3.545705	1.201317	0.000142
 467	4.6367e+01	18.5578	80.831532	0.000395	3.950928	1.338611	0.000158
 468	4.6467e+01	18.6059	80.993017	0.000405	4.052234	1.372934	0.000162
 469	4.6566e+01	18.6412	81.162577	0.000425	4.254846	1.441581	0.000170
 470	4.6666e+01	18.6749	81.320025	0.000395	3.950928	1.338611	0.000158
 471	4.6765e+01	18.7134	81.469399	0.000375	3.748316	1.269964	0.000150
 472	4.6864e+01	18.7551	81.647033	0.000446	4.457457	1.510227	0.000179
 473	4.6964e+01	18.7920	81.788333	0.000355	3.545705	1.201317	0.000142
 474	4.7063e+01	18.8337	81.921558	0.000334	3.343093	1.132671	0.000134
 475	4.7163e+01	18.8706	82.091118	0.000425	4.254846	1.441581	0.000170
 476	4.7263e+01	18.9235	82.264715	0.000436	4.356152	1.475904	0.000174
 477	4.7362e+01	18.9636	82.410052	0.000365	3.647011	1.235641	0.000146
 478	4.7462e+01	18.9925	82.571537	0.000405	4.052234	1.372934	0.000162
 479	4.7561e+01	19.0342	82.704763	0.000334	3.343093	1.132671	0.000134
 480	4.7660e+01	19.0888	82.854137	0.000375	3.748316	1.269964	0.000150
 481	4.7760e+01	19.1160	83.011585	0.000395	3.950928	1.338611	0.000158
 482	4.7859e+01	19.1626	83.160959	0.000375	3.748316	1.269964	0.000150
 483	4.7959e+01	19.1962	83.294185	0.000334	3.343093	1.132671	0.000134
 484	4.8059e+01	19.2364	83.483930	0.000476	4.761375	1.613197	0.000191
 485	4.8158e+01	19.2733	83.649452	0.000415	4.153540	1.407257	0.000166
 486	4.8258e+01	19.3134	83.802864	0.000385	3.849622	1.304287	0.000154
 487	4.8357e+01	19.3503	83.944163	0.000355	3.545705	1.201317	0.000142
 488	4.8456e+01	19.3920	84.085463	0.000355	3.545705	1.201317	0.000142
 489	4.8556e+01	19.4369	84.238874	0.000385	3.849622	1.304287	0.000154
 490	4.8656e+01	19.4834	84.380174	0.000355	3.545705	1.201317	0.000142
 491	4.8755e+01	19.5075	84.545697	0.000415	4.153540	1.407257	0.000166
 492	4.8855e+01	19.5540	84.674885	0.000324	3.241787	1.098347	0.000130
 493	4.8954e+01	19.5893	84.840408	0.000415	4.153540	1.407257	0.000166
 494	4.9053e+01	19.6278	84.985744	0.000365	3.647011	1.235641	0.000146
 495	4.9153e+01	19.6743	85.151267	0.000415	4.153540	1.407257	0.000166
 496	4.9252e+01	19.7112	85.296604	0.000365	3.647011	1.235641	0.000146
 497	4.9352e+01	19.7545	85.458089	0.000405	4.052234	1.372934	0.000162
 498	4.9452e+01	19.7946	85.587278	0.000324	3.241787	1.098347	0.000130
 499	4.9551e+01	19.8299	85.724540	0.000344	3.444399	1.166994	0.000138
 500	4.9651e+01	19.8748	85.869877	0.000365	3.647011	1.235641	0.000146
 501	4.9750e+01	19.9101	86.047511	0.000446	4.457457	1.510227	0.000179
 502	4.9849e+01	19.9518	86.156514	0.000274	2.735258	0.926730	0.000110
 503	4.9949e+01	19.9952	86.326073	0.000425	4.254846	1.441581	0.000170
 504	5.0048e+01	19.9502	86.237257	0.000223	2.228729	0.755114	-0.000089
 505	5.0148e+01	19.9085	86.124217	0.000284	2.836564	0.961054	-0.000114
 506	5.0248e+01	19.8636	85.990991	0.000334	3.343093	1.132671	-0.000134
 507	5.0347e+01	19.8283	85.934471	0.000142	1.418282	0.480527	-0.000057
 508	5.0447e+01	19.7946	85.805283	0.000324	3.241787	1.098347	-0.000130
 509	5.0546e+01	19.7545	85.635723	0.000425	4.254846	1.441581	-0.000170
 510	5.0645e+01	19.7048	85.546906	0.000223	2.228729	0.755114	-0.000089
 511	5.0745e+01	19.6647	85.433866	0.000284	2.836564	0.961054	-0.000114
 512	5.0844e+01	19.6310	85.292567	0.000355	3.545705	1.201317	-0.000142
 513	5.0944e+01	19.5973	85.175490	0.000294	2.937870	0.995377	-0.000118
 514	5.1044e+01	19.5508	85.078599	0.000243	2.431340	0.823760	-0.000097
 515	5.1143e+01	19.5171	84.969596	0.000274	2.735258	0.926730	-0.000110
 516	5.1242e+01	19.4738	84.832333	0.000344	3.444399	1.166994	-0.000138
 517	5.1342e+01	19.4321	84.691034	0.000355	3.545705	1.201317	-0.000142
 518	5.1441e+01	19.3936	84.590105	0.000253	2.532646	0.858084	-0.000101
 519	5.1541e+01	19.3567	84.485140	0.000263	2.633952	0.892407	-0.000105
 520	5.1641e+01	19.3150	84.343840	0.000355	3.545705	1.201317	-0.000142
 521	5.1740e+01	19.2765	84.234837	0.000274	2.735258	0.926730	-0.000110
 522	5.1840e+01	19.2364	84.085463	0.000375	3.748316	1.269964	-0.000150
 523	5.1939e+01	19.1946	84.000683	0.000213	2.127423	0.720790	-0.000085
 524	5.2038e+01	19.1561	83.871495	0.000324	3.241787	1.098347	-0.000130
 525	5.2138e+01	19.1080	83.746344	0.000314	3.140481	1.064024	-0.000126
 526	5.2237e+01	19.0791	83.580821	0.000415	4.153540	1.407257	-0.000166
 527	5.2337e+01	19.0278	83.459707	0.000304	3.039175	1.029701	-0.000122
 528	5.2437e+01	18.9925	83.358779	0.000253	2.532646	0.858084	-0.000101
 529	5.2536e+01	18.9508	83.225553	0.000334	3.343093	1.132671	-0.000134
 530	5.2636e+01	18.9123	83.140773	0.000213	2.127423	0.720790	-0.000085
 531	5.2735e+01	18.8850	82.991399	0.000375	3.748316	1.269964	-0.000150
 532	5.2834e+01	18.8337	82.846062	0.000365	3.647011	1.235641	-0.000146
 533	5.2934e+01	18.8048	82.720911	0.000314	3.140481	1.064024	-0.000126
 534	5.3033e+01	18.7583	82.611909	0.000274	2.735258	0.926730	-0.000110
 535	5.3133e+01	18.7214	82.466572	0.000365	3.647011	1.235641	-0.000146
 536	5.3233e+01	18.6749	82.353532	0.000284	2.836564	0.961054	-0.000114
 537	5.3332e+01	18.6380	82.216269	0.000344	3.444399	1.166994	-0.000138
 538	5.3431e+01	18.6043	82.099192	0.000294	2.937870	0.995377	-0.000118
 539	5.3531e+01	18.5642	81.974041	0.000314	3.140481	1.064024	-0.000126
 540	5.3630e+01	18.5193	81.865038	0.000274	2.735258	0.926730	-0.000110
 541	5.3730e+01	18.4824	81.723739	0.000355	3.545705	1.201317	-0.000142
 542	5.3830e+01	18.4374	81.578402	0.000365	3.647011	1.235641	-0.000146
 543	5.3929e+01	18.4038	81.457288	0.000304	3.039175	1.029701	-0.000122
 544	5.4029e+01	18.3588	81.275617	0.000456	4.558763	1.544551	-0.000183
 545	5.4128e+01	18.3203	81.198911	0.000192	1.924811	0.652144	-0.000077
 546	5.4227e+01	18.2834	81.049537	0.000375	3.748316	1.269964	-0.000150
 547	5.4327e+01	18.2353	80.892089	0.000395	3.950928	1.338611	-0.000158
 548	5.4426e+01	18.1920	80.775012	0.000294	2.937870	0.995377	-0.000118
 549	5.4526e+01	18.1631	80.649861	0.000314	3.140481	1.064024	-0.000126
 550	5.4626e+01	18.1086	80.512598	0.000344	3.444399	1.166994	-0.000138
 551	5.4725e+01	18.0829	80.355150	0.000395	3.950928	1.338611	-0.000158
 552	5.4825e+01	18.0332	80.246147	0.000274	2.735258	0.926730	-0.000110
 553	5.4924e+01	17.9947	80.108884	0.000344	3.444399	1.166994	-0.000138
 554	5.5023e+01	17.9642	79.983733	0.000314	3.140481	1.064024	-0.000126
 555	5.5123e+01	17.9305	79.866656	0.000294	2.937870	0.995377	-0.000118
 556	5.5222e+01	17.8744	79.721319	0.000365	3.647011	1.235641	-0.000146
 557	5.5322e+01	17.8391	79.580020	0.000355	3.545705	1.201317	-0.000142
 558	5.5422e+01	17.8022	79.414497	0.000415	4.153540	1.407257	-0.000166
 559	5.5521e+01	17.7621	79.305494	0.000274	2.735258	0.926730	-0.000110
 560	5.5620e+01	17.7252	79.188418	0.000294	2.937870	0.995377	-0.000118
 561	5.5720e+01	17.6786	79.087489	0.000253	2.532646	0.858084	-0.000101
 562	5.5819e+01	17.6385	78.913892	0.000436	4.356152	1.475904	-0.000174
 563	5.5919e+01	17.6000	78.768555	0.000365	3.647011	1.235641	-0.000146
 564	5.6019e+01	17.5631	78.635330	0.000334	3.343093	1.132671	-0.000134
 565	5.6118e+01	17.5230	78.502104	0.000334	3.343093	1.132671	-0.000134
 566	5.6218e+01	17.4861	78.421362	0.000203	2.026117	0.686467	-0.000081
 567	5.6317e+01	17.4428	78.247765	0.000436	4.356152	1.475904	-0.000174
 568	5.6416e+01	17.4011	78.118577	0.000324	3.241787	1.098347	-0.000130
 569	5.6516e+01	17.3626	77.969203	0.000375	3.748316	1.269964	-0.000150
 570	5.6615e+01	17.3225	77.831940	0.000344	3.444399	1.166994	-0.000138
 571	5.6715e+01	17.2776	77.702752	0.000324	3.241787	1.098347	-0.000130
 572	5.6815e+01	17.2455	77.573563	0.000324	3.241787	1.098347	-0.000130
 573	5.6914e+01	17.2022	77.452449	0.000304	3.039175	1.029701	-0.000122
 574	5.7014e+01	17.1525	77.319224	0.000334	3.343093	1.132671	-0.000134
 575	5.7113e+01	17.1236	77.190035	0.000324	3.241787	1.098347	-0.000130
 576	5.7212e+01	17.0771	77.040661	0.000375	3.748316	1.269964	-0.000150
 577	5.7312e+01	17.0434	76.919547	0.000304	3.039175	1.029701	-0.000122
 578	5.7411e+01	17.0017	76.778247	0.000355	3.545705	1.201317	-0.000142
 579	5.7511e+01	16.9632	76.653096	0.000314	3.140481	1.064024	-0.000126
 580	5.7611e+01	16.9214	76.523908	0.000324	3.241787	1.098347	-0.000130
 581	5.7710e+01	16.8910	76.362422	0.000405	4.052234	1.372934	-0.000162
 582	5.7809e+01	16.8396	76.237271	0.000314	3.140481	1.064024	-0.000126
 583	5.7909e+01	16.8059	76.083860	0.000385	3.849622	1.304287	-0.000154
 584	5.8008e+01	16.7674	75.978895	0.000263	2.633952	0.892407	-0.000105
 585	5.8108e+01	16.7273	75.821446	0.000395	3.950928	1.338611	-0.000158
 586	5.8208e+01	16.6888	75.700332	0.000304	3.039175	1.029701	-0.000122
 587	5.8307e+01	16.6487	75.571144	0.000324	3.241787	1.098347	-0.000130
 588	5.8407e+01	16.6070	75.417733	0.000385	3.849622	1.304287	-0.000154
 589	5.8506e+01	16.5749	75.312767	0.000263	2.633952	0.892407	-0.000105
 590	5.8605e+01	16.5252	75.175505	0.000344	3.444399	1.166994	-0.000138
 591	5.8705e+01	16.4835	75.034205	0.000355	3.545705	1.201317	-0.000142
 592	5.8804e+01	16.4466	74.892905	0.000355	3.545705	1.201317	-0.000142
 593	5.8904e+01	16.4065	74.739494	0.000385	3.849622	1.304287	-0.000154
 594	5.9004e+01	16.3712	74.606268	0.000334	3.343093	1.132671	-0.000134
 595	5.9103e+01	16.3183	74.428634	0.000446	4.457457	1.510227	-0.000179
 596	5.9203e+01	16.2798	74.347892	0.000203	2.026117	0.686467	-0.000081
 597	5.9302e+01	16.2541	74.198518	0.000375	3.748316	1.269964	-0.000150
 598	5.9401e+01	16.2076	74.053181	0.000365	3.647011	1.235641	-0.000146
 599	5.9501e+01	16.1626	73.932067	0.000304	3.039175	1.029701	-0.000122
 600	5.9600e+01	16.1322	73.750396	0.000456	4.558763	1.544551	-0.000183
 601	5.9700e+01	16.0872	73.601022	0.000375	3.748316	1.269964	-0.000150
 602	5.9800e+01	16.0423	73.483945	0.000294	2.937870	0.995377	-0.000118
 603	5.9899e+01	16.0118	73.342645	0.000355	3.545705	1.201317	-0.000142
 604	5.9998e+01	15.9701	73.193271	0.000375	3.748316	1.269964	-0.000150
 605	6.0098e+01	15.9300	73.039860	0.000385	3.849622	1.304287	-0.000154
 606	6.0197e+01	15.8835	72.930857	0.000274	2.735258	0.926730	-0.000110
 607	6.0297e+01	15.8466	72.765335	0.000415	4.153540	1.407257	-0.000166
 608	6.0397e+01	15.8017	72.640183	0.000314	3.140481	1.064024	-0.000126
 609	6.0496e+01	15.7648	72.531181	0.000274	2.735258	0.926730	-0.000110
 610	6.0596e+01	15.7231	72.365658	0.000415	4.153540	1.407257	-0.000166
 611	6.0695e+01	15.6846	72.204173	0.000405	4.052234	1.372934	-0.000162
 612	6.0794e+01	15.6445	72.054799	0.000375	3.748316	1.269964	-0.000150
 613	6.0894e+01	15.6044	71.929647	0.000314	3.140481	1.064024	-0.000126
 614	6.0993e+01	15.5659	71.784311	0.000365	3.647011	1.235641	-0.000146
 615	6.1093e+01	15.5306	71.679345	0.000263	2.633952	0.892407	-0.000105
 616	6.1193e+01	15.4921	71.525934	0.000385	3.849622	1.304287	-0.000154
 617	6.1292e+01	15.4456	71.380597	0.000365	3.647011	1.235641	-0.000146
 618	6.1392e+01	15.4135	71.231223	0.000375	3.748316	1.269964	-0.000150
 619	6.1491e+01	15.3766	71.093960	0.000344	3.444399	1.166994	-0.000138
 620	6.1590e+01	15.3252	70.928438	0.000415	4.153540	1.407257	-0.000166
 621	6.1690e+01	15.2899	70.770989	0.000395	3.950928	1.338611	-0.000158
 622	6.1789e+01	15.2434	70.670061	0.000253	2.532646	0.858084	-0.000101
 623	6.1889e+01	15.2017	70.508576	0.000405	4.052234	1.372934	-0.000162
 624	6.1989e+01	15.1648	70.339016	0.000425	4.254846	1.441581	-0.000170
 625	6.2088e+01	15.1279	70.197716	0.000355	3.545705	1.201317	-0.000142
 626	6.2188e+01	15.0878	70.056416	0.000355	3.545705	1.201317	-0.000142
 627	6.2287e+01	15.0541	69.935302	0.000304	3.039175	1.029701	-0.000122
 628	6.2386e+01	15.0092	69.781891	0.000385	3.849622	1.304287	-0.000154
 629	6.2486e+01	14.9723	69.640591	0.000355	3.545705	1.201317	-0.000142
 630	6.2586e+01	14.9242	69.523515	0.000294	2.937870	0.995377	-0.000118
 631	6.2685e+01	14.8873	69.341843	0.000456	4.558763	1.544551	-0.000183
 632	6.2785e+01	14.8536	69.228804	0.000284	2.836564	0.961054	-0.000114
 633	6.2884e+01	14.7990	69.071355	0.000395	3.950928	1.338611	-0.000158
 634	6.2983e+01	14.7734	68.926018	0.000365	3.647011	1.235641	-0.000146
 635	6.3083e+01	14.7333	68.752422	0.000436	4.356152	1.475904	-0.000174
 636	6.3182e+01	14.6803	68.607085	0.000365	3.647011	1.235641	-0.000146
 637	6.3282e+01	14.6531	68.473859	0.000334	3.343093	1.132671	-0.000134
 638	6.3382e+01	14.6065	68.332560	0.000355	3.545705	1.201317	-0.000142
 639	6.3481e+01	14.5809	68.191260	0.000355	3.545705	1.201317	-0.000142
 640	6.3581e+01	14.5376	68.082257	0.000274	2.735258	0.926730	-0.000110
 641	6.3680e+01	14.4958	67.876363	0.000517	5.166598	1.750491	-0.000207
 642	6.3779e+01	14.4525	67.759286	0.000294	2.937870	0.995377	-0.000118
 643	6.3879e+01	14.4204	67.617986	0.000355	3.545705	1.201317	-0.000142
 644	6.3978e+01	14.3755	67.452464	0.000415	4.153540	1.407257	-0.000166
 645	6.4078e+01	14.3290	67.335387	0.000294	2.937870	0.995377	-0.000118
 646	6.4177e+01	14.2969	67.137567	0.000496	4.963987	1.681844	-0.000199
 647	6.4277e+01	14.2408	67.000305	0.000344	3.444399	1.166994	-0.000138
 648	6.4376e+01	14.2231	66.846894	0.000385	3.849622	1.304287	-0.000154
 649	6.4476e+01	14.1734	66.737891	0.000274	2.735258	0.926730	-0.000110
 650	6.4576e+01	14.1349	66.576405	0.000405	4.052234	1.372934	-0.000162
 651	6.4675e+01	14.0852	66.418957	0.000395	3.950928	1.338611	-0.000158
 652	6.4775e+01	14.0579	66.253435	0.000415	4.153540	1.407257	-0.000166
 653	6.4874e+01	14.0162	66.132321	0.000304	3.039175	1.029701	-0.000122
 654	6.4974e+01	13.9697	65.962761	0.000425	4.254846	1.441581	-0.000170
 655	6.5073e+01	13.9328	65.817424	0.000365	3.647011	1.235641	-0.000146
 656	6.5172e+01	13.8911	65.680161	0.000344	3.444399	1.166994	-0.000138
 657	6.5272e+01	13.8574	65.506564	0.000436	4.356152	1.475904	-0.000174
 658	6.5371e+01	13.8157	65.373339	0.000334	3.343093	1.132671	-0.000134
 659	6.5471e+01	13.7691	65.183594	0.000476	4.761375	1.613197	-0.000191
 660	6.5570e+01	13.7354	65.050368	0.000334	3.343093	1.132671	-0.000134
 661	6.5670e+01	13.6937	64.941365	0.000274	2.735258	0.926730	-0.000110
 662	6.5769e+01	13.6488	64.715286	0.000567	5.673128	1.922108	-0.000227
 663	6.5869e+01	13.6199	64.594172	0.000304	3.039175	1.029701	-0.000122
 664	6.5969e+01	13.5830	64.428649	0.000415	4.153540	1.407257	-0.000166
 665	6.6068e+01	13.5349	64.271201	0.000395	3.950928	1.338611	-0.000158
 666	6.6168e+01	13.4980	64.069344	0.000507	5.065292	1.716168	-0.000203
 667	6.6267e+01	13.4563	63.988601	0.000203	2.026117	0.686467	-0.000081
 668	6.6367e+01	13.4210	63.790782	0.000496	4.963987	1.681844	-0.000199
 669	6.6466e+01	13.3713	63.645445	0.000365	3.647011	1.235641	-0.000146
 670	6.6566e+01	13.3408	63.516257	0.000324	3.241787	1.098347	-0.000130
 671	6.6665e+01	13.2991	63.306326	0.000527	5.267904	1.784814	-0.000211
 672	6.6764e+01	13.2574	63.193286	0.000284	2.836564	0.961054	-0.000114
 673	6.6864e+01	13.2189	63.011615	0.000456	4.558763	1.544551	-0.000183
 674	6.6963e+01	13.1740	62.842055	0.000425	4.254846	1.441581	-0.000170
 675	6.7063e+01	13.1403	62.724978	0.000294	2.937870	0.995377	-0.000118
 676	6.7162e+01	13.1050	62.555418	0.000425	4.254846	1.441581	-0.000170
 677	6.7262e+01	13.0585	62.406044	0.000375	3.748316	1.269964	-0.000150
 678	6.7362e+01	13.0135	62.248596	0.000395	3.950928	1.338611	-0.000158
 679	6.7461e+01	12.9702	62.119408	0.000324	3.241787	1.098347	-0.000130
 680	6.7561e+01	12.9365	61.921588	0.000496	4.963987	1.681844	-0.000199
 681	6.7660e+01	12.9044	61.768177	0.000385	3.849622	1.304287	-0.000154
 682	6.7760e+01	12.8563	61.618803	0.000375	3.748316	1.269964	-0.000150
 683	6.7859e+01	12.8130	61.461354	0.000395	3.950928	1.338611	-0.000158
 684	6.7959e+01	12.7873	61.336203	0.000314	3.140481	1.064024	-0.000126
 685	6.8058e+01	12.7248	61.178755	0.000395	3.950928	1.338611	-0.000158
 686	6.8157e+01	12.6943	61.009195	0.000425	4.254846	1.441581	-0.000170
 687	6.8257e+01	12.6638	60.859821	0.000375	3.748316	1.269964	-0.000150
 688	6.8356e+01	12.6141	60.678150	0.000456	4.558763	1.544551	-0.000183
 689	6.8456e+01	12.5868	60.512628	0.000415	4.153540	1.407257	-0.000166
 690	6.8555e+01	12.5515	60.363254	0.000375	3.748316	1.269964	-0.000150
 691	6.8655e+01	12.5050	60.234065	0.000324	3.241787	1.098347	-0.000130
 692	6.8754e+01	12.4681	60.064506	0.000425	4.254846	1.441581	-0.000170
 693	6.8854e+01	12.4103	59.898983	0.000415	4.153540	1.407257	-0.000166
 694	6.8954e+01	12.3863	59.725386	0.000436	4.356152	1.475904	-0.000174
 695	6.9053e+01	12.3430	59.628495	0.000243	2.431340	0.823760	-0.000097
 696	6.9153e+01	12.3045	59.414527	0.000537	5.369210	1.819138	-0.000215
 697	6.9252e+01	12.2692	59.269190	0.000365	3.647011	1.235641	-0.000146
 698	6.9352e+01	12.2226	59.115779	0.000385	3.849622	1.304287	-0.000154
 699	6.9451e+01	12.1890	58.917959	0.000496	4.963987	1.681844	-0.000199
 700	6.9550e+01	12.1440	58.796845	0.000304	3.039175	1.029701	-0.000122
 701	6.9650e+01	12.1071	58.631322	0.000415	4.153540	1.407257	-0.000166
 702	6.9749e+01	12.0654	58.457725	0.000436	4.356152	1.475904	-0.000174
 703	6.9849e+01	12.0173	58.304314	0.000385	3.849622	1.304287	-0.000154
 704	6.9948e+01	11.9948	58.142829	0.000405	4.052234	1.372934	-0.000162
 705	7.0048e+01	11.9435	58.021715	0.000304	3.039175	1.029701	-0.000122
 706	7.0147e+01	11.9114	57.840044	0.000456	4.558763	1.544551	-0.000183
 707	7.0247e+01	11.8617	57.654335	0.000466	4.660069	1.578874	-0.000187
 708	7.0347e+01	11.8280	57.553407	0.000253	2.532646	0.858084	-0.000101
 709	7.0446e+01	11.7815	57.351550	0.000507	5.065292	1.716168	-0.000203
 710	7.0546e+01	11.7366	57.181991	0.000425	4.254846	1.441581	-0.000170
 711	7.0645e+01	11.7093	57.064914	0.000294	2.937870	0.995377	-0.000118
 712	7.0745e+01	11.6724	56.867094	0.000496	4.963987	1.681844	-0.000199
 713	7.0844e+01	11.6146	56.705609	0.000405	4.052234	1.372934	-0.000162
 714	7.0944e+01	11.5826	56.499715	0.000517	5.166598	1.750491	-0.000207
 715	7.1043e+01	11.5441	56.370526	0.000324	3.241787	1.098347	-0.000130
 716	7.1142e+01	11.5088	56.237301	0.000334	3.343093	1.132671	-0.000134
 717	7.1242e+01	11.4719	56.067741	0.000425	4.254846	1.441581	-0.000170
 718	7.1341e+01	11.4205	55.873959	0.000486	4.862681	1.647521	-0.000195
 719	7.1441e+01	11.3868	55.736696	0.000344	3.444399	1.166994	-0.000138
 720	7.1540e+01	11.3483	55.559062	0.000446	4.457457	1.510227	-0.000179
 721	7.1640e+01	11.3066	55.393539	0.000415	4.153540	1.407257	-0.000166
 722	7.1740e+01	11.2665	55.232054	0.000405	4.052234	1.372934	-0.000162
 723	7.1839e+01	11.2216	55.066531	0.000415	4.153540	1.407257	-0.000166
 724	7.1939e+01	11.1975	54.933306	0.000334	3.343093	1.132671	-0.000134
 725	7.2038e+01	11.1430	54.731449	0.000507	5.065292	1.716168	-0.000203
 726	7.2138e+01	11.1077	54.594187	0.000344	3.444399	1.166994	-0.000138
 727	7.2237e+01	11.0692	54.416553	0.000446	4.457457	1.510227	-0.000179
 728	7.2337e+01	11.0307	54.238919	0.000446	4.457457	1.510227	-0.000179
 729	7.2436e+01	10.9890	54.113767	0.000314	3.140481	1.064024	-0.000126
 730	7.2535e+01	10.9521	53.879614	0.000588	5.875739	1.990754	-0.000235
 731	7.2635e+01	10.9040	53.758499	0.000304	3.039175	1.029701	-0.000122
 732	7.2734e+01	10.8655	53.576828	0.000456	4.558763	1.544551	-0.000183
 733	7.2834e+01	10.8286	53.399194	0.000446	4.457457	1.510227	-0.000179
 734	7.2933e+01	10.7917	53.274043	0.000314	3.140481	1.064024	-0.000126
 735	7.3033e+01	10.7548	53.100446	0.000436	4.356152	1.475904	-0.000174
 736	7.3132e+01	10.7018	52.902627	0.000496	4.963987	1.681844	-0.000199
 737	7.3232e+01	10.6649	52.753253	0.000375	3.748316	1.269964	-0.000150
 738	7.3332e+01	10.6232	52.567544	0.000466	4.660069	1.578874	-0.000187
 739	7.3431e+01	10.5863	52.442393	0.000314	3.140481	1.064024	-0.000126
 740	7.3531e+01	10.5510	52.260722	0.000456	4.558763	1.544551	-0.000183
 741	7.3630e+01	10.5125	52.103274	0.000395	3.950928	1.338611	-0.000158
 742	7.3730e+01	10.4660	51.961974	0.000355	3.545705	1.201317	-0.000142
 743	7.3829e+01	10.4275	51.752043	0.000527	5.267904	1.784814	-0.000211
 744	7.3928e+01	10.3874	51.590558	0.000405	4.052234	1.372934	-0.000162
 745	7.4028e+01	10.3489	51.453295	0.000344	3.444399	1.166994	-0.000138
 746	7.4127e+01	10.3168	51.303921	0.000375	3.748316	1.269964	-0.000150
 747	7.4227e+01	10.2703	51.106101	0.000496	4.963987	1.681844	-0.000199
 748	7.4326e+01	10.2270	50.976913	0.000324	3.241787	1.098347	-0.000130
 749	7.4426e+01	10.1965	50.754870	0.000557	5.571822	1.887784	-0.000223
 750	7.4525e+01	10.1548	50.666054	0.000223	2.228729	0.755114	-0.000089
 751	7.4625e+01	10.1099	50.448048	0.000547	5.470516	1.853461	-0.000219
 752	7.4725e+01	10.0714	50.278488	0.000425	4.254846	1.441581	-0.000170
 753	7.4824e+01	10.0425	50.133152	0.000365	3.647011	1.235641	-0.000146
 754	7.4924e+01	9.9912	49.979740	0.000385	3.849622	1.304287	-0.000154
 755	7.5023e+01	9.9543	49.810181	0.000425	4.254846	1.441581	-0.000170
 756	7.5123e+01	9.9126	49.628510	0.000456	4.558763	1.544551	-0.000183
 757	7.5222e+01	9.8757	49.487210	0.000355	3.545705	1.201317	-0.000142
 758	7.5322e+01	9.8339	49.285353	0.000507	5.065292	1.716168	-0.000203
 759	7.5421e+01	9.7890	49.131942	0.000385	3.849622	1.304287	-0.000154
 760	7.5520e+01	9.7457	48.986605	0.000365	3.647011	1.235641	-0.000146
 761	7.5620e+01	9.7152	48.796860	0.000476	4.761375	1.613197	-0.000191
 762	7.5719e+01	9.6719	48.619226	0.000446	4.457457	1.510227	-0.000179
 763	7.5819e+01	9.6366	48.453703	0.000415	4.153540	1.407257	-0.000166
 764	7.5918e+01	9.5997	48.292218	0.000405	4.052234	1.372934	-0.000162
 765	7.6018e+01	9.5564	48.158992	0.000334	3.343093	1.132671	-0.000134
 766	7.6118e+01	9.5099	47.916764	0.000608	6.078351	2.059401	-0.000243
 767	7.6217e+01	9.4746	47.807761	0.000274	2.735258	0.926730	-0.000110
 768	7.6317e+01	9.4345	47.593793	0.000537	5.369210	1.819138	-0.000215
 769	7.6416e+01	9.3880	47.456531	0.000344	3.444399	1.166994	-0.000138
 770	7.6516e+01	9.3527	47.250637	0.000517	5.166598	1.750491	-0.000207
 771	7.6615e+01	9.3190	47.081077	0.000425	4.254846	1.441581	-0.000170
 772	7.6715e+01	9.2853	46.919592	0.000405	4.052234	1.372934	-0.000162
 773	7.6814e+01	9.2340	46.741958	0.000446	4.457457	1.510227	-0.000179
 774	7.6913e+01	9.1890	46.600658	0.000355	3.545705	1.201317	-0.000142
 775	7.7013e+01	9.1554	46.414950	0.000466	4.660069	1.578874	-0.000187
 776	7.7112e+01	9.1120	46.245390	0.000425	4.254846	1.441581	-0.000170
 777	7.7212e+01	9.0655	46.087942	0.000395	3.950928	1.338611	-0.000158
 778	7.7311e+01	9.0270	45.882048	0.000517	5.166598	1.750491	-0.000207
 779	7.7411e+01	8.9949	45.680191	0.000507	5.065292	1.716168	-0.000203
 780	7.7510e+01	8.9548	45.526780	0.000385	3.849622	1.304287	-0.000154
 781	7.7610e+01	8.9243	45.397591	0.000324	3.241787	1.098347	-0.000130
 782	7.7710e+01	8.8794	45.203809	0.000486	4.862681	1.647521	-0.000195
 783	7.7809e+01	8.8329	45.034249	0.000425	4.254846	1.441581	-0.000170
 784	7.7909e+01	8.7960	44.868727	0.000415	4.153540	1.407257	-0.000166
 785	7.8008e+01	8.7623	44.699167	0.000425	4.254846	1.441581	-0.000170
 786	7.8108e+01	8.7110	44.501347	0.000496	4.963987	1.681844	-0.000199
 787	7.8207e+01	8.6789	44.319676	0.000456	4.558763	1.544551	-0.000183
 788	7.8306e+01	8.6372	44.138005	0.000456	4.558763	1.544551	-0.000183
 789	7.8406e+01	8.5987	43.992668	0.000365	3.647011	1.235641	-0.000146
 790	7.8505e+01	8.5586	43.810997	0.000456	4.558763	1.544551	-0.000183
 791	7.8605e+01	8.5153	43.657586	0.000385	3.849622	1.304287	-0.000154
 792	7.8704e+01	8.4752	43.471878	0.000466	4.660069	1.578874	-0.000187
 793	7.8804e+01	8.4318	43.286169	0.000466	4.660069	1.578874	-0.000187
 794	7.8903e+01	8.4062	43.116610	0.000425	4.254846	1.441581	-0.000170
 795	7.9003e+01	8.3581	42.947050	0.000425	4.254846	1.441581	-0.000170
 796	7.9103e+01	8.3179	42.737119	0.000527	5.267904	1.784814	-0.000211
 797	7.9202e+01	8.2778	42.607931	0.000324	3.241787	1.098347	-0.000130
 798	7.9302e+01	8.2393	42.430297	0.000446	4.457457	1.510227	-0.000179
 799	7.9401e+01	8.2040	42.216328	0.000537	5.369210	1.819138	-0.000215
 800	7.9501e+01	8.1543	42.038694	0.000446	4.457457	1.510227	-0.000179
 801	7.9600e+01	8.1254	41.885283	0.000385	3.849622	1.304287	-0.000154
 802	7.9700e+01	8.0789	41.727835	0.000395	3.950928	1.338611	-0.000158
 803	7.9799e+01	8.0308	41.530015	0.000496	4.963987	1.681844	-0.000199
 804	7.9898e+01	7.9891	41.352381	0.000446	4.457457	1.510227	-0.000179
 805	7.9998e+01	7.9570	41.162636	0.000476	4.761375	1.613197	-0.000191
 806	8.0097e+01	7.9169	41.001151	0.000405	4.052234	1.372934	-0.000162
 807	8.0197e+01	7.8848	40.855814	0.000365	3.647011	1.235641	-0.000146
 808	8.0296e+01	7.8303	40.666068	0.000476	4.761375	1.613197	-0.000191
 809	8.0396e+01	7.8030	40.508620	0.000395	3.950928	1.338611	-0.000158
 810	8.0496e+01	7.7629	40.326949	0.000456	4.558763	1.544551	-0.000183
 811	8.0595e+01	7.7212	40.108944	0.000547	5.470516	1.853461	-0.000219
 812	8.0695e+01	7.6779	39.919198	0.000476	4.761375	1.613197	-0.000191
 813	8.0794e+01	7.6458	39.753676	0.000415	4.153540	1.407257	-0.000166
 814	8.0894e+01	7.5976	39.592190	0.000405	4.052234	1.372934	-0.000162
 815	8.0993e+01	7.5591	39.406482	0.000466	4.660069	1.578874	-0.000187
 816	8.1093e+01	7.5142	39.236922	0.000425	4.254846	1.441581	-0.000170
 817	8.1192e+01	7.4789	39.039103	0.000496	4.963987	1.681844	-0.000199
 818	8.1291e+01	7.4404	38.873580	0.000415	4.153540	1.407257	-0.000166
 819	8.1391e+01	7.3955	38.663649	0.000527	5.267904	1.784814	-0.000211
 820	8.1490e+01	7.3650	38.506201	0.000395	3.950928	1.338611	-0.000158
 821	8.1590e+01	7.3217	38.296270	0.000527	5.267904	1.784814	-0.000211
 822	8.1689e+01	7.2768	38.102487	0.000486	4.862681	1.647521	-0.000195
 823	8.1789e+01	7.2463	37.957150	0.000365	3.647011	1.235641	-0.000146
 824	8.1888e+01	7.1934	37.735108	0.000557	5.571822	1.887784	-0.000223
 825	8.1988e+01	7.1629	37.605919	0.000324	3.241787	1.098347	-0.000130
 826	8.2088e+01	7.1212	37.408100	0.000496	4.963987	1.681844	-0.000199
 827	8.2187e+01	7.0811	37.198169	0.000527	5.267904	1.784814	-0.000211
 828	8.2287e+01	7.0458	37.020535	0.000446	4.457457	1.510227	-0.000179
 829	8.2386e+01	7.0009	36.818678	0.000507	5.065292	1.716168	-0.000203
 830	8.2486e+01	6.9640	36.657193	0.000405	4.052234	1.372934	-0.000162
 831	8.2585e+01	6.9255	36.439187	0.000547	5.470516	1.853461	-0.000219
 832	8.2684e+01	6.8854	36.273665	0.000415	4.153540	1.407257	-0.000166
 833	8.2784e+01	6.8356	36.083919	0.000476	4.761375	1.613197	-0.000191
 834	8.2883e+01	6.8003	35.914360	0.000425	4.254846	1.441581	-0.000170
 835	8.2983e+01	6.7667	35.736726	0.000446	4.457457	1.510227	-0.000179
 836	8.3082e+01	6.7298	35.522757	0.000537	5.369210	1.819138	-0.000215
 837	8.3182e+01	6.6752	35.328975	0.000486	4.862681	1.647521	-0.000195
 838	8.3281e+01	6.6415	35.151341	0.000446	4.457457	1.510227	-0.000179
 839	8.3381e+01	6.5982	34.957558	0.000486	4.862681	1.647521	-0.000195
 840	8.3481e+01	6.5677	34.755702	0.000507	5.065292	1.716168	-0.000203
 841	8.3580e+01	6.5228	34.574030	0.000456	4.558763	1.544551	-0.000183
 842	8.3680e+01	6.4891	34.440805	0.000334	3.343093	1.132671	-0.000134
 843	8.3779e+01	6.4458	34.226837	0.000537	5.369210	1.819138	-0.000215
 844	8.3879e+01	6.4105	34.045166	0.000456	4.558763	1.544551	-0.000183
 845	8.3978e+01	6.3608	33.855420	0.000476	4.761375	1.613197	-0.000191
 846	8.4078e+01	6.3271	33.677786	0.000446	4.457457	1.510227	-0.000179
 847	8.4177e+01	6.2950	33.516301	0.000405	4.052234	1.372934	-0.000162
 848	8.4276e+01	6.2485	33.290221	0.000567	5.673128	1.922108	-0.000227
 849	8.4376e+01	6.2068	33.104513	0.000466	4.660069	1.578874	-0.000187
 850	8.4475e+01	6.1586	32.910731	0.000486	4.862681	1.647521	-0.000195
 851	8.4575e+01	6.1330	32.749245	0.000405	4.052234	1.372934	-0.000162
 852	8.4674e+01	6.0800	32.531240	0.000547	5.470516	1.853461	-0.000219
 853	8.4774e+01	6.0415	32.369754	0.000405	4.052234	1.372934	-0.000162
 854	8.4874e+01	6.0062	32.167898	0.000507	5.065292	1.716168	-0.000203
 855	8.4973e+01	5.9694	31.990264	0.000446	4.457457	1.510227	-0.000179
 856	8.5073e+01	5.9260	31.788407	0.000507	5.065292	1.716168	-0.000203
 857	8.5172e+01	5.8859	31.634996	0.000385	3.849622	1.304287	-0.000154
 858	8.5272e+01	5.8410	31.437176	0.000496	4.963987	1.681844	-0.000199
 859	8.5371e+01	5.8137	31.203022	0.000588	5.875739	1.990754	-0.000235
 860	8.5471e+01	5.7688	31.033462	0.000425	4.254846	1.441581	-0.000170
 861	8.5570e+01	5.7255	30.815457	0.000547	5.470516	1.853461	-0.000219
 862	8.5669e+01	5.6870	30.674157	0.000355	3.545705	1.201317	-0.000142
 863	8.5769e+01	5.6453	30.484412	0.000476	4.761375	1.613197	-0.000191
 864	8.5868e+01	5.6020	30.286592	0.000496	4.963987	1.681844	-0.000199
 865	8.5968e+01	5.5635	30.157404	0.000324	3.241787	1.098347	-0.000130
 866	8.6067e+01	5.5314	29.927287	0.000577	5.774433	1.956431	-0.000231
 867	8.6167e+01	5.4897	29.705245	0.000557	5.571822	1.887784	-0.000223
 868	8.6266e+01	5.4480	29.527611	0.000446	4.457457	1.510227	-0.000179
 869	8.6366e+01	5.4175	29.358051	0.000425	4.254846	1.441581	-0.000170
 870	8.6466e+01	5.3581	29.168306	0.000476	4.761375	1.613197	-0.000191
 871	8.6565e+01	5.3325	28.934152	0.000588	5.875739	1.990754	-0.000235
 872	8.6665e+01	5.2924	28.768629	0.000415	4.153540	1.407257	-0.000166
 873	8.6764e+01	5.2507	28.582921	0.000466	4.660069	1.578874	-0.000187
 874	8.6864e+01	5.2105	28.417398	0.000415	4.153540	1.407257	-0.000166
 875	8.6963e+01	5.1672	28.191319	0.000567	5.673128	1.922108	-0.000227
 876	8.7063e+01	5.1335	27.997536	0.000486	4.862681	1.647521	-0.000195
 877	8.7162e+01	5.0918	27.815865	0.000456	4.558763	1.544551	-0.000183
 878	8.7261e+01	5.0598	27.614008	0.000507	5.065292	1.716168	-0.000203
 879	8.7361e+01	5.0164	27.408115	0.000517	5.166598	1.750491	-0.000207
 880	8.7460e+01	4.9651	27.262778	0.000365	3.647011	1.235641	-0.000146
 881	8.7560e+01	4.9266	27.024587	0.000598	5.977045	2.025078	-0.000239
 882	8.7659e+01	4.8929	26.883287	0.000355	3.545705	1.201317	-0.000142
 883	8.7759e+01	4.8400	26.645096	0.000598	5.977045	2.025078	-0.000239
 884	8.7859e+01	4.8095	26.439202	0.000517	5.166598	1.750491	-0.000207
 885	8.7958e+01	4.7710	26.245419	0.000486	4.862681	1.647521	-0.000195
 886	8.8058e+01	4.7325	26.059711	0.000466	4.660069	1.578874	-0.000187
 887	8.8157e+01	4.6924	25.910337	0.000375	3.748316	1.269964	-0.000150
 888	8.8257e+01	4.6539	25.680220	0.000577	5.774433	1.956431	-0.000231
 889	8.8356e+01	4.6090	25.494512	0.000466	4.660069	1.578874	-0.000187
 890	8.8456e+01	4.5705	25.320915	0.000436	4.356152	1.475904	-0.000174
 891	8.8555e+01	4.5384	25.127133	0.000486	4.862681	1.647521	-0.000195
 892	8.8654e+01	4.4838	24.941425	0.000466	4.660069	1.578874	-0.000187
 893	8.8754e+01	4.4534	24.719382	0.000557	5.571822	1.887784	-0.000223
 894	8.8853e+01	4.4084	24.529637	0.000476	4.761375	1.613197	-0.000191
 895	8.8953e+01	4.3683	24.315669	0.000537	5.369210	1.819138	-0.000215
 896	8.9052e+01	4.3378	24.158220	0.000395	3.950928	1.338611	-0.000158
 897	8.9152e+01	4.2993	23.920029	0.000598	5.977045	2.025078	-0.000239
 898	8.9251e+01	4.2624	23.746432	0.000436	4.356152	1.475904	-0.000174
 899	8.9351e+01	4.2191	23.536501	0.000527	5.267904	1.784814	-0.000211
 900	8.9451e+01	4.1710	23.334645	0.000507	5.065292	1.716168	-0.000203
 901	8.9550e+01	4.1389	23.161048	0.000436	4.356152	1.475904	-0.000174
 902	8.9650e+01	4.0876	22.971302	0.000476	4.761375	1.613197	-0.000191
 903	8.9749e+01	4.0491	22.765408	0.000517	5.166598	1.750491	-0.000207
 904	8.9849e+01	4.0122	22.559515	0.000517	5.166598	1.750491	-0.000207
 905	8.9948e+01	3.9721	22.418215	0.000355	3.545705	1.201317	-0.000142
 906	9.0047e+01	3.9320	22.192135	0.000567	5.673128	1.922108	-0.000227
 907	9.0147e+01	3.8983	22.018538	0.000436	4.356152	1.475904	-0.000174
 908	9.0246e+01	3.8598	21.836867	0.000456	4.558763	1.544551	-0.000183
 909	9.0346e+01	3.8084	21.651159	0.000466	4.660069	1.578874	-0.000187
 910	9.0445e+01	3.7764	21.449302	0.000507	5.065292	1.716168	-0.000203
 911	9.0545e+01	3.7411	21.251483	0.000496	4.963987	1.681844	-0.000199
 912	9.0644e+01	3.6929	21.009254	0.000608	6.078351	2.059401	-0.000243
 913	9.0744e+01	3.6577	20.892177	0.000294	2.937870	0.995377	-0.000118
 914	9.0844e+01	3.6143	20.637838	0.000638	6.382268	2.162371	-0.000256
 915	9.0943e+01	3.5742	20.472315	0.000415	4.153540	1.407257	-0.000166
 916	9.1043e+01	3.5309	20.282570	0.000476	4.761375	1.613197	-0.000191
 917	9.1142e+01	3.4988	20.080713	0.000507	5.065292	1.716168	-0.000203
 918	9.1242e+01	3.4555	19.886931	0.000486	4.862681	1.647521	-0.000195
 919	9.1341e+01	3.4170	19.656814	0.000577	5.774433	1.956431	-0.000231
 920	9.1441e+01	3.3737	19.495328	0.000405	4.052234	1.372934	-0.000162
 921	9.1540e+01	3.3336	19.273286	0.000557	5.571822	1.887784	-0.000223
 922	9.1639e+01	3.3015	19.127949	0.000365	3.647011	1.235641	-0.000146
 923	9.1739e+01	3.2566	18.934167	0.000486	4.862681	1.647521	-0.000195
 924	9.1838e+01	3.2149	18.768644	0.000415	4.153540	1.407257	-0.000166
 925	9.1938e+01	3.1780	18.542564	0.000567	5.673128	1.922108	-0.000227
 926	9.2037e+01	3.1395	18.336671	0.000517	5.166598	1.750491	-0.000207
 927	9.2137e+01	3.1010	18.130777	0.000517	5.166598	1.750491	-0.000207
 928	9.2237e+01	3.0529	17.965254	0.000415	4.153540	1.407257	-0.000166
 929	9.2336e+01	3.0192	17.771472	0.000486	4.862681	1.647521	-0.000195
 930	9.2436e+01	2.9855	17.537318	0.000588	5.875739	1.990754	-0.000235
 931	9.2535e+01	2.9406	17.347572	0.000476	4.761375	1.613197	-0.000191
 932	9.2635e+01	2.9037	17.182050	0.000415	4.153540	1.407257	-0.000166
 933	9.2734e+01	2.8571	16.972119	0.000527	5.267904	1.784814	-0.000211
 934	9.2834e+01	2.8154	16.786410	0.000466	4.660069	1.578874	-0.000187
 935	9.2933e+01	2.7801	16.560331	0.000567	5.673128	1.922108	-0.000227
 936	9.3032e+01	2.7368	16.394808	0.000415	4.153540	1.407257	-0.000166
 937	9.3132e+01	2.7047	16.172766	0.000557	5.571822	1.887784	-0.000223
 938	9.3231e+01	2.6566	15.999169	0.000436	4.356152	1.475904	-0.000174
 939	9.3331e+01	2.6117	15.769052	0.000577	5.774433	1.956431	-0.000231
 940	9.3430e+01	2.5764	15.595455	0.000436	4.356152	1.475904	-0.000174
 941	9.3530e+01	2.5347	15.381487	0.000537	5.369210	1.819138	-0.000215
 942	9.3629e+01	2.5074	15.175593	0.000517	5.166598	1.750491	-0.000207
 943	9.3729e+01	2.4609	14.985848	0.000476	4.761375	1.613197	-0.000191
 944	9.3829e+01	2.4240	14.779954	0.000517	5.166598	1.750491	-0.000207
 945	9.3928e+01	2.3807	14.586171	0.000486	4.862681	1.647521	-0.000195
 946	9.4028e+01	2.3406	14.372203	0.000537	5.369210	1.819138	-0.000215
 947	9.4127e+01	2.3005	14.158235	0.000537	5.369210	1.819138	-0.000215
 948	9.4227e+01	2.2604	13.992712	0.000415	4.153540	1.407257	-0.000166
 949	9.4326e+01	2.2187	13.815078	0.000446	4.457457	1.510227	-0.000179
 950	9.4425e+01	2.1802	13.568813	0.000618	6.179657	2.093724	-0.000248
 951	9.4525e+01	2.1465	13.370994	0.000496	4.963987	1.681844	-0.000199
 952	9.4624e+01	2.0887	13.169137	0.000507	5.065292	1.716168	-0.000203
 953	9.4724e+01	2.0663	12.983429	0.000466	4.660069	1.578874	-0.000187
 954	9.4823e+01	2.0261	12.801757	0.000456	4.558763	1.544551	-0.000183
 955	9.4923e+01	1.9828	12.591826	0.000527	5.267904	1.784814	-0.000211
 956	9.5022e+01	1.9347	12.369784	0.000557	5.571822	1.887784	-0.000223
 957	9.5122e+01	1.8994	12.192150	0.000446	4.457457	1.510227	-0.000179
 958	9.5222e+01	1.8673	11.974145	0.000547	5.470516	1.853461	-0.000219
 959	9.5321e+01	1.8128	11.792473	0.000456	4.558763	1.544551	-0.000183
 960	9.5421e+01	1.7807	11.586580	0.000517	5.166598	1.750491	-0.000207
 961	9.5520e+01	1.7390	11.384723	0.000507	5.065292	1.716168	-0.000203
 962	9.5620e+01	1.6973	11.186903	0.000496	4.963987	1.681844	-0.000199
 963	9.5719e+01	1.6588	10.997158	0.000476	4.761375	1.613197	-0.000191
 964	9.5819e+01	1.6267	10.726670	0.000679	6.787492	2.299665	-0.000272
 965	9.5918e+01	1.5802	10.585370	0.000355	3.545705	1.201317	-0.000142
 966	9.6017e+01	1.5465	10.351216	0.000588	5.875739	1.990754	-0.000235
 967	9.6117e+01	1.5032	10.201842	0.000375	3.748316	1.269964	-0.000150
 968	9.6216e+01	1.4615	9.963651	0.000598	5.977045	2.025078	-0.000239
 969	9.6316e+01	1.4214	9.786017	0.000446	4.457457	1.510227	-0.000179
 970	9.6415e+01	1.3925	9.559937	0.000567	5.673128	1.922108	-0.000227
 971	9.6515e+01	1.3443	9.398452	0.000405	4.052234	1.372934	-0.000162
 972	9.6615e+01	1.3010	9.164298	0.000588	5.875739	1.990754	-0.000235
 973	9.6714e+01	1.2673	8.978590	0.000466	4.660069	1.578874	-0.000187
 974	9.6814e+01	1.2208	8.752510	0.000567	5.673128	1.922108	-0.000227
 975	9.6913e+01	1.1839	8.554691	0.000496	4.963987	1.681844	-0.000199
 976	9.7013e+01	1.1454	8.409354	0.000365	3.647011	1.235641	-0.000146
 977	9.7112e+01	1.0989	8.155014	0.000638	6.382268	2.162371	-0.000256
 978	9.7212e+01	1.0684	7.957195	0.000496	4.963987	1.681844	-0.000199
 979	9.7311e+01	1.0171	7.706892	0.000628	6.280963	2.128048	-0.000252
 980	9.7410e+01	0.9786	7.549444	0.000395	3.950928	1.338611	-0.000158
 981	9.7510e+01	0.9369	7.319327	0.000577	5.774433	1.956431	-0.000231
 982	9.7609e+01	0.9112	7.129582	0.000476	4.761375	1.613197	-0.000191
 983	9.7709e+01	0.8599	6.972133	0.000395	3.950928	1.338611	-0.000158
 984	9.7808e+01	0.8278	6.725868	0.000618	6.179657	2.093724	-0.000248
 985	9.7908e+01	0.7797	6.532086	0.000486	4.862681	1.647521	-0.000195
 986	9.8007e+01	0.7492	6.322155	0.000527	5.267904	1.784814	-0.000211
 987	9.8107e+01	0.6994	6.088001	0.000588	5.875739	1.990754	-0.000235
 988	9.8207e+01	0.6690	5.922478	0.000415	4.153540	1.407257	-0.000166
 989	9.8306e+01	0.6176	5.692361	0.000577	5.774433	1.956431	-0.000231
 990	9.8406e+01	0.5823	5.478393	0.000537	5.369210	1.819138	-0.000215
 991	9.8505e+01	0.5551	5.304796	0.000436	4.356152	1.475904	-0.000174
 992	9.8605e+01	0.5069	5.098902	0.000517	5.166598	1.750491	-0.000207
 993	9.8704e+01	0.4652	4.848600	0.000628	6.280963	2.128048	-0.000252
 994	9.8803e+01	0.4267	4.666929	0.000456	4.558763	1.544551	-0.000183
 995	9.8903e+01	0.3898	4.477184	0.000476	4.761375	1.613197	-0.000191
 996	9.9002e+01	0.3385	4.238993	0.000598	5.977045	2.025078	-0.000239
 997	9.9102e+01	0.3064	4.073470	0.000415	4.153540	1.407257	-0.000166
 998	9.9201e+01	0.2663	3.819130	0.000638	6.382268	2.162371	-0.000256
 999	9.9301e+01	0.2326	3.597088	0.000557	5.571822	1.887784	-0.000223
1000	9.9400e+01	0.1877	3.411380	0.000466	4.660069	1.578874	-0.000187
1001	9.9500e+01	0.1460	3.213560	0.000496	4.963987	1.681844	-0.000199
1002	9.9600e+01	0.1027	3.003629	0.000527	5.267904	1.784814	-0.000211
1003	9.9699e+01	0.0658	2.753327	0.000628	6.280963	2.128048	-0.000252
1004	9.9799e+01	0.0273	2.571655	0.000456	4.558763	1.544551	-0.000183
1005	9.9898e+01	0.0000	2.422281	0.000375	3.748316	1.269964	-0.000150
1006	9.9998e+01	-0.0369	2.196202	0.000567	5.673128	1.922108	-0.000227
1007	1.0010e+02	-0.0786	1.982234	0.000537	5.369210	1.819138	-0.000215
1008	1.0020e+02	-0.1187	1.740006	0.000608	6.078351	2.059401	-0.000243
1009	1.0030e+02	-0.1636	1.558334	0.000456	4.558763	1.544551	-0.000183
1010	1.0040e+02	-0.2118	1.312069	0.000618	6.179657	2.093724	-0.000248
1011	1.0050e+02	-0.2487	1.158658	0.000385	3.849622	1.304287	-0.000154
1012	1.0059e+02	-0.2791	0.964875	0.000486	4.862681	1.647521	-0.000195
1013	1.0069e+02	-0.3241	0.750907	0.000537	5.369210	1.819138	-0.000215
1014	1.0079e+02	-0.3561	0.508679	0.000608	6.078351	2.059401	-0.000243
1015	1.0089e+02	-0.4011	0.310859	0.000496	4.963987	1.681844	-0.000199
1016	1.0099e+02	-0.4347	0.109003	0.000507	5.065292	1.716168	-0.000203
1017	1.0109e+02	-0.4845	-0.109003	0.000547	5.470516	1.853461	-0.000219
1018	1.0119e+02	-0.5230	-0.286637	0.000446	4.457457	1.510227	-0.000179
1019	1.0129e+02	-0.5535	-0.528865	0.000608	6.078351	2.059401	-0.000243
1020	1.0139e+02	-0.6048	-0.710536	0.000456	4.558763	1.544551	-0.000183
1021	1.0149e+02	-0.6513	-0.912393	0.000507	5.065292	1.716168	-0.000203
1022	1.0159e+02	-0.6802	-1.138472	0.000567	5.673128	1.922108	-0.000227
1023	1.0169e+02	-0.7267	-1.283809	0.000365	3.647011	1.235641	-0.000146
1024	1.0179e+02	-0.7652	-1.542186	0.000648	6.483574	2.196694	-0.000260
1025	1.0189e+02	-0.7989	-1.756154	0.000537	5.369210	1.819138	-0.000215
1026	1.0199e+02	-0.8406	-1.966085	0.000527	5.267904	1.784814	-0.000211
1027	1.0209e+02	-0.8791	-2.147756	0.000456	4.558763	1.544551	-0.000183
1028	1.0219e+02	-0.9128	-2.394021	0.000618	6.179657	2.093724	-0.000248
1029	1.0229e+02	-0.9625	-2.583767	0.000476	4.761375	1.613197	-0.000191
1030	1.0239e+02	-1.0042	-2.825995	0.000608	6.078351	2.059401	-0.000243
1031	1.0248e+02	-1.0379	-3.007666	0.000456	4.558763	1.544551	-0.000183
1032	1.0258e+02	-1.0748	-3.169152	0.000405	4.052234	1.372934	-0.000162
1033	1.0268e+02	-1.1198	-3.439640	0.000679	6.787492	2.299665	-0.000272
1034	1.0278e+02	-1.1695	-3.625348	0.000466	4.660069	1.578874	-0.000187
1035	1.0288e+02	-1.1984	-3.811056	0.000466	4.660069	1.578874	-0.000187
1036	1.0298e+02	-1.2353	-4.012913	0.000507	5.065292	1.716168	-0.000203
1037	1.0308e+02	-1.2882	-4.222844	0.000527	5.267904	1.784814	-0.000211
1038	1.0318e+02	-1.3187	-4.416626	0.000486	4.862681	1.647521	-0.000195
1039	1.0328e+02	-1.3604	-4.630595	0.000537	5.369210	1.819138	-0.000215
1040	1.0338e+02	-1.4230	-4.868786	0.000598	5.977045	2.025078	-0.000239
1041	1.0348e+02	-1.4374	-5.058531	0.000476	4.761375	1.613197	-0.000191
1042	1.0358e+02	-1.4727	-5.224054	0.000415	4.153540	1.407257	-0.000166
1043	1.0368e+02	-1.5224	-5.482430	0.000648	6.483574	2.196694	-0.000260
1044	1.0378e+02	-1.5593	-5.680250	0.000496	4.963987	1.681844	-0.000199
1045	1.0388e+02	-1.5978	-5.865958	0.000466	4.660069	1.578874	-0.000187
1046	1.0398e+02	-1.6427	-6.104149	0.000598	5.977045	2.025078	-0.000239
1047	1.0408e+02	-1.6748	-6.297932	0.000486	4.862681	1.647521	-0.000195
1048	1.0418e+02	-1.7294	-6.491714	0.000486	4.862681	1.647521	-0.000195
1049	1.0428e+02	-1.7614	-6.725868	0.000588	5.875739	1.990754	-0.000235
1050	1.0438e+02	-1.7887	-6.895428	0.000425	4.254846	1.441581	-0.000170
1051	1.0447e+02	-1.8368	-7.117470	0.000557	5.571822	1.887784	-0.000223
1052	1.0457e+02	-1.8753	-7.287030	0.000425	4.254846	1.441581	-0.000170
1053	1.0467e+02	-1.9187	-7.517147	0.000577	5.774433	1.956431	-0.000231
1054	1.0477e+02	-1.9588	-7.727078	0.000527	5.267904	1.784814	-0.000211
1055	1.0487e+02	-2.0005	-7.945083	0.000547	5.470516	1.853461	-0.000219
1056	1.0497e+02	-2.0438	-8.155014	0.000527	5.267904	1.784814	-0.000211
1057	1.0507e+02	-2.0855	-8.348797	0.000486	4.862681	1.647521	-0.000195
1058	1.0517e+02	-2.1160	-8.570839	0.000557	5.571822	1.887784	-0.000223
1059	1.0527e+02	-2.1529	-8.780770	0.000527	5.267904	1.784814	-0.000211
1060	1.0537e+02	-2.1994	-8.958404	0.000446	4.457457	1.510227	-0.000179
1061	1.0547e+02	-2.2395	-9.184484	0.000567	5.673128	1.922108	-0.000227
1062	1.0557e+02	-2.2828	-9.354044	0.000425	4.254846	1.441581	-0.000170
1063	1.0567e+02	-2.3085	-9.584160	0.000577	5.774433	1.956431	-0.000231
1064	1.0577e+02	-2.3518	-9.765831	0.000456	4.558763	1.544551	-0.000183
1065	1.0587e+02	-2.3919	-9.983837	0.000547	5.470516	1.853461	-0.000219
1066	1.0597e+02	-2.4272	-10.197805	0.000537	5.369210	1.819138	-0.000215
1067	1.0607e+02	-2.4785	-10.403699	0.000517	5.166598	1.750491	-0.000207
1068	1.0617e+02	-2.5138	-10.613630	0.000527	5.267904	1.784814	-0.000211
1069	1.0627e+02	-2.5539	-10.763004	0.000375	3.748316	1.269964	-0.000150
1070	1.0637e+02	-2.6021	-10.976972	0.000537	5.369210	1.819138	-0.000215
1071	1.0647e+02	-2.6309	-11.211126	0.000588	5.875739	1.990754	-0.000235
1072	1.0656e+02	-2.6727	-11.396834	0.000466	4.660069	1.578874	-0.000187
1073	1.0666e+02	-2.7095	-11.562357	0.000415	4.153540	1.407257	-0.000166
1074	1.0676e+02	-2.7577	-11.768251	0.000517	5.166598	1.750491	-0.000207
1075	1.0686e+02	-2.7946	-11.982219	0.000537	5.369210	1.819138	-0.000215
1076	1.0696e+02	-2.8347	-12.123519	0.000355	3.545705	1.201317	-0.000142
1077	1.0706e+02	-2.8748	-12.377858	0.000638	6.382268	2.162371	-0.000256
1078	1.0716e+02	-2.9133	-12.571641	0.000486	4.862681	1.647521	-0.000195
1079	1.0726e+02	-2.9598	-12.821943	0.000628	6.280963	2.128048	-0.000252
1080	1.0736e+02	-2.9919	-12.947094	0.000314	3.140481	1.064024	-0.000126
1081	1.0746e+02	-3.0368	-13.185285	0.000598	5.977045	2.025078	-0.000239
1082	1.0756e+02	-3.0721	-13.338696	0.000385	3.849622	1.304287	-0.000154
1083	1.0766e+02	-3.1170	-13.536516	0.000496	4.963987	1.681844	-0.000199
1084	1.0776e+02	-3.1523	-13.750484	0.000537	5.369210	1.819138	-0.000215
1085	1.0786e+02	-3.1972	-13.980601	0.000577	5.774433	1.956431	-0.000231
1086	1.0796e+02	-3.2293	-14.101715	0.000304	3.039175	1.029701	-0.000122
1087	1.0806e+02	-3.2758	-14.343943	0.000608	6.078351	2.059401	-0.000243
1088	1.0816e+02	-3.3192	-14.509466	0.000415	4.153540	1.407257	-0.000166
1089	1.0826e+02	-3.3496	-14.723434	0.000537	5.369210	1.819138	-0.000215
1090	1.0836e+02	-3.3962	-14.897031	0.000436	4.356152	1.475904	-0.000174
1091	1.0845e+02	-3.4266	-15.123110	0.000567	5.673128	1.922108	-0.000227
1092	1.0855e+02	-3.4796	-15.296707	0.000436	4.356152	1.475904	-0.000174
1093	1.0865e+02	-3.5149	-15.486453	0.000476	4.761375	1.613197	-0.000191
1094	1.0875e+02	-3.5502	-15.684272	0.000496	4.963987	1.681844	-0.000199
1095	1.0885e+02	-3.5919	-15.910352	0.000567	5.673128	1.922108	-0.000227
1096	1.0895e+02	-3.6304	-16.120283	0.000527	5.267904	1.784814	-0.000211
1097	1.0905e+02	-3.6769	-16.310028	0.000476	4.761375	1.613197	-0.000191
1098	1.0915e+02	-3.7026	-16.487662	0.000446	4.457457	1.510227	-0.000179
1099	1.0925e+02	-3.7475	-16.697593	0.000527	5.267904	1.784814	-0.000211
1100	1.0935e+02	-3.7892	-16.851005	0.000385	3.849622	1.304287	-0.000154
1101	1.0945e+02	-3.8437	-17.077084	0.000567	5.673128	1.922108	-0.000227
1102	1.0955e+02	-3.8710	-17.266830	0.000476	4.761375	1.613197	-0.000191
1103	1.0965e+02	-3.9015	-17.440426	0.000436	4.356152	1.475904	-0.000174
1104	1.0975e+02	-3.9480	-17.642283	0.000507	5.065292	1.716168	-0.000203
1105	1.0985e+02	-3.9881	-17.832029	0.000476	4.761375	1.613197	-0.000191
1106	1.0995e+02	-4.0379	-18.078294	0.000618	6.179657	2.093724	-0.000248
1107	1.1005e+02	-4.0667	-18.227668	0.000375	3.748316	1.269964	-0.000150
1108	1.1015e+02	-4.1036	-18.429525	0.000507	5.065292	1.716168	-0.000203
1109	1.1025e+02	-4.1453	-18.591010	0.000405	4.052234	1.372934	-0.000162
1110	1.1035e+02	-4.1919	-18.821127	0.000577	5.774433	1.956431	-0.000231
1111	1.1044e+02	-4.2272	-18.986649	0.000415	4.153540	1.407257	-0.000166
1112	1.1054e+02	-4.2753	-19.224840	0.000598	5.977045	2.025078	-0.000239
1113	1.1064e+02	-4.3106	-19.410549	0.000466	4.660069	1.578874	-0.000187
1114	1.1074e+02	-4.3459	-19.588183	0.000446	4.457457	1.510227	-0.000179
1115	1.1084e+02	-4.3908	-19.773891	0.000466	4.660069	1.578874	-0.000187
1116	1.1094e+02	-4.4277	-19.979785	0.000517	5.166598	1.750491	-0.000207
1117	1.1104e+02	-4.4694	-20.169530	0.000476	4.761375	1.613197	-0.000191
1118	1.1114e+02	-4.5015	-20.343127	0.000436	4.356152	1.475904	-0.000174
1119	1.1124e+02	-4.5512	-20.557095	0.000537	5.369210	1.819138	-0.000215
1120	1.1134e+02	-4.5881	-20.746841	0.000476	4.761375	1.613197	-0.000191
1121	1.1144e+02	-4.6250	-20.940623	0.000486	4.862681	1.647521	-0.000195
1122	1.1154e+02	-4.6651	-21.122294	0.000456	4.558763	1.544551	-0.000183
1123	1.1164e+02	-4.7084	-21.303965	0.000456	4.558763	1.544551	-0.000183
1124	1.1174e+02	-4.7469	-21.481599	0.000446	4.457457	1.510227	-0.000179
1125	1.1184e+02	-4.7822	-21.715753	0.000588	5.875739	1.990754	-0.000235
1126	1.1194e+02	-4.8287	-21.881276	0.000415	4.153540	1.407257	-0.000166
1127	1.1204e+02	-4.8576	-22.075058	0.000486	4.862681	1.647521	-0.000195
1128	1.1214e+02	-4.9009	-22.289026	0.000537	5.369210	1.819138	-0.000215
1129	1.1224e+02	-4.9523	-22.462623	0.000436	4.356152	1.475904	-0.000174
1130	1.1234e+02	-4.9892	-22.640257	0.000446	4.457457	1.510227	-0.000179
1131	1.1244e+02	-5.0245	-22.854225	0.000537	5.369210	1.819138	-0.000215
1132	1.1253e+02	-5.0742	-23.039934	0.000466	4.660069	1.578874	-0.000187
1133	1.1263e+02	-5.1031	-23.189308	0.000375	3.748316	1.269964	-0.000150
1134	1.1273e+02	-5.1560	-23.350793	0.000405	4.052234	1.372934	-0.000162
1135	1.1283e+02	-5.1849	-23.580910	0.000577	5.774433	1.956431	-0.000231
1136	1.1293e+02	-5.2250	-23.758544	0.000446	4.457457	1.510227	-0.000179
1137	1.1303e+02	-5.2474	-23.936178	0.000446	4.457457	1.510227	-0.000179
1138	1.1313e+02	-5.3036	-24.133997	0.000496	4.963987	1.681844	-0.000199
1139	1.1323e+02	-5.3501	-24.307594	0.000436	4.356152	1.475904	-0.000174
1140	1.1333e+02	-5.3918	-24.497340	0.000476	4.761375	1.613197	-0.000191
1141	1.1343e+02	-5.4319	-24.691122	0.000486	4.862681	1.647521	-0.000195
1142	1.1353e+02	-5.4672	-24.868756	0.000446	4.457457	1.510227	-0.000179
1143	1.1363e+02	-5.5105	-25.078687	0.000527	5.267904	1.784814	-0.000211
1144	1.1373e+02	-5.5394	-25.232098	0.000385	3.849622	1.304287	-0.000154
1145	1.1383e+02	-5.5795	-25.442029	0.000527	5.267904	1.784814	-0.000211
1146	1.1393e+02	-5.6260	-25.611589	0.000425	4.254846	1.441581	-0.000170
1147	1.1403e+02	-5.6629	-25.829594	0.000547	5.470516	1.853461	-0.000219
1148	1.1413e+02	-5.7047	-26.023377	0.000486	4.862681	1.647521	-0.000195
1149	1.1423e+02	-5.7383	-26.221197	0.000496	4.963987	1.681844	-0.000199
1150	1.1433e+02	-5.7817	-26.390756	0.000425	4.254846	1.441581	-0.000170
1151	1.1442e+02	-5.8169	-26.568390	0.000446	4.457457	1.510227	-0.000179
1152	1.1452e+02	-5.8635	-26.762173	0.000486	4.862681	1.647521	-0.000195
1153	1.1462e+02	-5.9004	-26.943844	0.000456	4.558763	1.544551	-0.000183
1154	1.1472e+02	-5.9373	-27.133589	0.000476	4.761375	1.613197	-0.000191
1155	1.1482e+02	-5.9854	-27.319298	0.000466	4.660069	1.578874	-0.000187
1156	1.1492e+02	-6.0255	-27.505006	0.000466	4.660069	1.578874	-0.000187
1157	1.1502e+02	-6.0592	-27.702825	0.000496	4.963987	1.681844	-0.000199
1158	1.1512e+02	-6.1137	-27.884497	0.000456	4.558763	1.544551	-0.000183
1159	1.1522e+02	-6.1378	-28.058093	0.000436	4.356152	1.475904	-0.000174
1160	1.1532e+02	-6.1843	-28.288210	0.000577	5.774433	1.956431	-0.000231
1161	1.1542e+02	-6.2196	-28.477955	0.000476	4.761375	1.613197	-0.000191
1162	1.1552e+02	-6.2693	-28.675775	0.000496	4.963987	1.681844	-0.000199
1163	1.1562e+02	-6.3078	-28.857446	0.000456	4.558763	1.544551	-0.000183
1164	1.1572e+02	-6.3367	-29.006820	0.000375	3.748316	1.269964	-0.000150
1165	1.1582e+02	-6.3897	-29.204640	0.000496	4.963987	1.681844	-0.000199
1166	1.1592e+02	-6.4233	-29.414571	0.000527	5.267904	1.784814	-0.000211
1167	1.1602e+02	-6.4554	-29.551834	0.000344	3.444399	1.166994	-0.000138
1168	1.1612e+02	-6.4923	-29.721393	0.000425	4.254846	1.441581	-0.000170
1169	1.1622e+02	-6.5372	-29.951510	0.000577	5.774433	1.956431	-0.000231
1170	1.1632e+02	-6.5709	-30.137218	0.000466	4.660069	1.578874	-0.000187
1171	1.1642e+02	-6.6175	-30.298704	0.000405	4.052234	1.372934	-0.000162
1172	1.1651e+02	-6.6608	-30.500561	0.000507	5.065292	1.716168	-0.000203
1173	1.1661e+02	-6.6929	-30.702417	0.000507	5.065292	1.716168	-0.000203
1174	1.1671e+02	-6.7298	-30.880051	0.000446	4.457457	1.510227	-0.000179
1175	1.1681e+02	-6.7779	-31.045574	0.000415	4.153540	1.407257	-0.000166
1176	1.1691e+02	-6.8164	-31.227245	0.000456	4.558763	1.544551	-0.000183
1177	1.1701e+02	-6.8533	-31.421027	0.000486	4.862681	1.647521	-0.000195
1178	1.1711e+02	-6.8950	-31.582513	0.000405	4.052234	1.372934	-0.000162
1179	1.1721e+02	-6.9351	-31.808592	0.000567	5.673128	1.922108	-0.000227
1180	1.1731e+02	-6.9704	-31.986226	0.000446	4.457457	1.510227	-0.000179
1181	1.1741e+02	-7.0185	-32.151749	0.000415	4.153540	1.407257	-0.000166
1182	1.1751e+02	-7.0570	-32.333420	0.000456	4.558763	1.544551	-0.000183
1183	1.1761e+02	-7.0955	-32.551425	0.000547	5.470516	1.853461	-0.000219
1184	1.1771e+02	-7.1340	-32.737134	0.000466	4.660069	1.578874	-0.000187
1185	1.1781e+02	-7.1629	-32.934953	0.000496	4.963987	1.681844	-0.000199
1186	1.1791e+02	-7.2190	-33.088365	0.000385	3.849622	1.304287	-0.000154
1187	1.1801e+02	-7.2543	-33.290221	0.000507	5.065292	1.716168	-0.000203
1188	1.1811e+02	-7.2912	-33.451707	0.000405	4.052234	1.372934	-0.000162
1189	1.1821e+02	-7.3362	-33.665675	0.000537	5.369210	1.819138	-0.000215
1190	1.1831e+02	-7.3650	-33.843309	0.000446	4.457457	1.510227	-0.000179
1191	1.1841e+02	-7.4148	-34.016906	0.000436	4.356152	1.475904	-0.000174
1192	1.1850e+02	-7.4549	-34.154168	0.000344	3.444399	1.166994	-0.000138
1193	1.1860e+02	-7.4982	-34.380248	0.000567	5.673128	1.922108	-0.000227
1194	1.1870e+02	-7.5351	-34.537696	0.000395	3.950928	1.338611	-0.000158
1195	1.1880e+02	-7.5688	-34.715330	0.000446	4.457457	1.510227	-0.000179
1196	1.1890e+02	-7.6137	-34.909113	0.000486	4.862681	1.647521	-0.000195
1197	1.1900e+02	-7.6522	-35.123081	0.000537	5.369210	1.819138	-0.000215
1198	1.1910e+02	-7.7019	-35.264381	0.000355	3.545705	1.201317	-0.000142
1199	1.1920e+02	-7.7244	-35.450089	0.000466	4.660069	1.578874	-0.000187
1200	1.1930e+02	-7.7677	-35.643871	0.000486	4.862681	1.647521	-0.000195
1201	1.1940e+02	-7.8142	-35.821505	0.000446	4.457457	1.510227	-0.000179
1202	1.1950e+02	-7.8479	-35.958768	0.000344	3.444399	1.166994	-0.000138
1203	1.1960e+02	-7.8944	-36.176773	0.000547	5.470516	1.853461	-0.000219
1204	1.1970e+02	-7.9361	-36.354407	0.000446	4.457457	1.510227	-0.000179
1205	1.1980e+02	-7.9730	-36.523967	0.000425	4.254846	1.441581	-0.000170
1206	1.1990e+02	-8.0067	-36.725824	0.000507	5.065292	1.716168	-0.000203
1207	1.2000e+02	-8.0436	-36.919606	0.000486	4.862681	1.647521	-0.000195
1208	1.2010e+02	-8.0934	-37.097240	0.000446	4.457457	1.510227	-0.000179
1209	1.2020e+02	-8.1383	-37.234503	0.000344	3.444399	1.166994	-0.000138
1210	1.2030e+02	-8.1816	-37.400025	0.000415	4.153540	1.407257	-0.000166
1211	1.2039e+02	-8.2201	-37.569585	0.000425	4.254846	1.441581	-0.000170
1212	1.2049e+02	-8.2506	-37.767405	0.000496	4.963987	1.681844	-0.000199
1213	1.2059e+02	-8.2923	-37.961187	0.000486	4.862681	1.647521	-0.000195
1214	1.2069e+02	-8.3212	-38.146896	0.000466	4.660069	1.578874	-0.000187
1215	1.2079e+02	-8.3709	-38.316455	0.000425	4.254846	1.441581	-0.000170
1216	1.2089e+02	-8.4142	-38.514275	0.000496	4.963987	1.681844	-0.000199
1217	1.2099e+02	-8.4543	-38.728243	0.000537	5.369210	1.819138	-0.000215
1218	1.2109e+02	-8.4944	-38.873580	0.000365	3.647011	1.235641	-0.000146
1219	1.2119e+02	-8.5313	-39.059288	0.000466	4.660069	1.578874	-0.000187
1220	1.2129e+02	-8.5666	-39.249034	0.000476	4.761375	1.613197	-0.000191
1221	1.2139e+02	-8.6163	-39.374185	0.000314	3.140481	1.064024	-0.000126
1222	1.2149e+02	-8.6484	-39.596227	0.000557	5.571822	1.887784	-0.000223
1223	1.2159e+02	-8.6885	-39.737527	0.000355	3.545705	1.201317	-0.000142
1224	1.2169e+02	-8.7334	-39.915161	0.000446	4.457457	1.510227	-0.000179
1225	1.2179e+02	-8.7735	-40.096832	0.000456	4.558763	1.544551	-0.000183
1226	1.2189e+02	-8.8121	-40.282540	0.000466	4.660069	1.578874	-0.000187
1227	1.2199e+02	-8.8602	-40.456137	0.000436	4.356152	1.475904	-0.000174
1228	1.2209e+02	-8.8891	-40.666068	0.000527	5.267904	1.784814	-0.000211
1229	1.2219e+02	-8.9340	-40.851777	0.000466	4.660069	1.578874	-0.000187
1230	1.2229e+02	-8.9677	-40.997113	0.000365	3.647011	1.235641	-0.000146
1231	1.2239e+02	-9.0110	-41.178785	0.000456	4.558763	1.544551	-0.000183
1232	1.2248e+02	-9.0463	-41.352381	0.000436	4.356152	1.475904	-0.000174
1233	1.2258e+02	-9.0848	-41.534052	0.000456	4.558763	1.544551	-0.000183
1234	1.2268e+02	-9.1297	-41.703612	0.000425	4.254846	1.441581	-0.000170
1235	1.2278e+02	-9.1698	-41.913543	0.000527	5.267904	1.784814	-0.000211
1236	1.2288e+02	-9.2099	-42.070992	0.000395	3.950928	1.338611	-0.000158
1237	1.2298e+02	-9.2548	-42.220366	0.000375	3.748316	1.269964	-0.000150
1238	1.2308e+02	-9.2901	-42.385888	0.000415	4.153540	1.407257	-0.000166
1239	1.2318e+02	-9.3302	-42.555448	0.000425	4.254846	1.441581	-0.000170
1240	1.2328e+02	-9.3751	-42.749230	0.000486	4.862681	1.647521	-0.000195
1241	1.2338e+02	-9.4120	-42.959161	0.000527	5.267904	1.784814	-0.000211
1242	1.2348e+02	-9.4441	-43.100461	0.000355	3.545705	1.201317	-0.000142
1243	1.2358e+02	-9.4922	-43.298281	0.000496	4.963987	1.681844	-0.000199
1244	1.2368e+02	-9.5275	-43.463803	0.000415	4.153540	1.407257	-0.000166
1245	1.2378e+02	-9.5660	-43.601066	0.000344	3.444399	1.166994	-0.000138
1246	1.2388e+02	-9.6078	-43.794848	0.000486	4.862681	1.647521	-0.000195
1247	1.2398e+02	-9.6479	-43.936148	0.000355	3.545705	1.201317	-0.000142
1248	1.2408e+02	-9.6896	-44.113782	0.000446	4.457457	1.510227	-0.000179
1249	1.2418e+02	-9.7168	-44.279305	0.000415	4.153540	1.407257	-0.000166
1250	1.2428e+02	-9.7714	-44.469050	0.000476	4.761375	1.613197	-0.000191
1251	1.2438e+02	-9.8115	-44.622461	0.000385	3.849622	1.304287	-0.000154
1252	1.2447e+02	-9.8468	-44.787984	0.000415	4.153540	1.407257	-0.000166
1253	1.2457e+02	-9.8917	-44.965618	0.000446	4.457457	1.510227	-0.000179
1254	1.2467e+02	-9.9334	-45.131140	0.000415	4.153540	1.407257	-0.000166
1255	1.2477e+02	-9.9703	-45.341071	0.000527	5.267904	1.784814	-0.000211
1256	1.2487e+02	-9.9944	-45.474297	0.000334	3.343093	1.132671	-0.000134
1257	1.2497e+02	-10.0553	-45.619634	0.000365	3.647011	1.235641	-0.000146
1258	1.2507e+02	-10.0906	-45.817453	0.000496	4.963987	1.681844	-0.000199
1259	1.2517e+02	-10.1163	-45.995087	0.000446	4.457457	1.510227	-0.000179
1260	1.2527e+02	-10.1644	-46.164647	0.000425	4.254846	1.441581	-0.000170
1261	1.2537e+02	-10.2045	-46.305947	0.000355	3.545705	1.201317	-0.000142
1262	1.2547e+02	-10.2527	-46.491655	0.000466	4.660069	1.578874	-0.000187
1263	1.2557e+02	-10.2831	-46.649103	0.000395	3.950928	1.338611	-0.000158
1264	1.2567e+02	-10.3216	-46.818663	0.000425	4.254846	1.441581	-0.000170
1265	1.2577e+02	-10.3649	-46.996297	0.000446	4.457457	1.510227	-0.000179
1266	1.2587e+02	-10.4083	-47.165857	0.000425	4.254846	1.441581	-0.000170
1267	1.2597e+02	-10.4500	-47.347528	0.000456	4.558763	1.544551	-0.000183
1268	1.2607e+02	-10.4869	-47.492865	0.000365	3.647011	1.235641	-0.000146
1269	1.2617e+02	-10.5206	-47.682610	0.000476	4.761375	1.613197	-0.000191
1270	1.2627e+02	-10.5703	-47.860244	0.000446	4.457457	1.510227	-0.000179
1271	1.2636e+02	-10.5992	-48.009618	0.000375	3.748316	1.269964	-0.000150
1272	1.2646e+02	-10.6409	-48.191289	0.000456	4.558763	1.544551	-0.000183
1273	1.2656e+02	-10.6714	-48.360849	0.000425	4.254846	1.441581	-0.000170
1274	1.2666e+02	-10.7163	-48.530409	0.000425	4.254846	1.441581	-0.000170
1275	1.2676e+02	-10.7548	-48.716117	0.000466	4.660069	1.578874	-0.000187
1276	1.2686e+02	-10.8077	-48.873565	0.000395	3.950928	1.338611	-0.000158
1277	1.2696e+02	-10.8366	-49.022939	0.000375	3.748316	1.269964	-0.000150
1278	1.2706e+02	-10.8751	-49.200573	0.000446	4.457457	1.510227	-0.000179
1279	1.2716e+02	-10.9200	-49.382244	0.000456	4.558763	1.544551	-0.000183
1280	1.2726e+02	-10.9553	-49.584101	0.000507	5.065292	1.716168	-0.000203
1281	1.2736e+02	-11.0131	-49.729438	0.000365	3.647011	1.235641	-0.000146
1282	1.2746e+02	-11.0435	-49.878812	0.000375	3.748316	1.269964	-0.000150
1283	1.2756e+02	-11.0836	-50.012038	0.000334	3.343093	1.132671	-0.000134
1284	1.2766e+02	-11.1205	-50.266377	0.000638	6.382268	2.162371	-0.000256
1285	1.2776e+02	-11.1735	-50.367305	0.000253	2.532646	0.858084	-0.000101
1286	1.2786e+02	-11.1991	-50.561088	0.000486	4.862681	1.647521	-0.000195
1287	1.2796e+02	-11.2409	-50.750833	0.000476	4.761375	1.613197	-0.000191
1288	1.2806e+02	-11.2794	-50.896170	0.000365	3.647011	1.235641	-0.000146
1289	1.2816e+02	-11.3291	-51.110138	0.000537	5.369210	1.819138	-0.000215
1290	1.2826e+02	-11.3564	-51.227215	0.000294	2.937870	0.995377	-0.000118
1291	1.2835e+02	-11.3933	-51.388701	0.000405	4.052234	1.372934	-0.000162
1292	1.2845e+02	-11.4398	-51.534038	0.000365	3.647011	1.235641	-0.000146
1293	1.2855e+02	-11.4751	-51.703597	0.000425	4.254846	1.441581	-0.000170
1294	1.2865e+02	-11.5216	-51.917566	0.000537	5.369210	1.819138	-0.000215
1295	1.2875e+02	-11.5553	-52.038680	0.000304	3.039175	1.029701	-0.000122
1296	1.2885e+02	-11.6018	-52.224388	0.000466	4.660069	1.578874	-0.000187
1297	1.2895e+02	-11.6403	-52.389910	0.000415	4.153540	1.407257	-0.000166
1298	1.2905e+02	-11.6788	-52.563507	0.000436	4.356152	1.475904	-0.000174
1299	1.2915e+02	-11.7205	-52.720956	0.000395	3.950928	1.338611	-0.000158
1300	1.2925e+02	-11.7526	-52.886478	0.000415	4.153540	1.407257	-0.000166
1301	1.2935e+02	-11.8023	-53.052001	0.000415	4.153540	1.407257	-0.000166
1302	1.2945e+02	-11.8264	-53.181189	0.000324	3.241787	1.098347	-0.000130
1303	1.2955e+02	-11.8826	-53.391120	0.000527	5.267904	1.784814	-0.000211
1304	1.2965e+02	-11.9162	-53.576828	0.000466	4.660069	1.578874	-0.000187
1305	1.2975e+02	-11.9563	-53.701980	0.000314	3.140481	1.064024	-0.000126
1306	1.2985e+02	-11.9948	-53.899799	0.000496	4.963987	1.681844	-0.000199
1307	1.2995e+02	-12.0398	-54.028988	0.000324	3.241787	1.098347	-0.000130
1308	1.3005e+02	-12.0783	-54.186436	0.000395	3.950928	1.338611	-0.000158
1309	1.3015e+02	-12.1232	-54.355996	0.000425	4.254846	1.441581	-0.000170
1310	1.3025e+02	-12.1440	-54.485184	0.000324	3.241787	1.098347	-0.000130
1311	1.3034e+02	-12.2050	-54.707226	0.000557	5.571822	1.887784	-0.000223
1312	1.3044e+02	-12.2419	-54.852563	0.000365	3.647011	1.235641	-0.000146
1313	1.3054e+02	-12.2756	-55.014049	0.000405	4.052234	1.372934	-0.000162
1314	1.3064e+02	-12.3205	-55.155348	0.000355	3.545705	1.201317	-0.000142
1315	1.3074e+02	-12.3558	-55.341057	0.000466	4.660069	1.578874	-0.000187
1316	1.3084e+02	-12.3943	-55.506579	0.000415	4.153540	1.407257	-0.000166
1317	1.3094e+02	-12.4360	-55.655953	0.000375	3.748316	1.269964	-0.000150
1318	1.3104e+02	-12.4809	-55.877996	0.000557	5.571822	1.887784	-0.000223
1319	1.3114e+02	-12.5210	-55.995073	0.000294	2.937870	0.995377	-0.000118
1320	1.3124e+02	-12.5547	-56.172707	0.000446	4.457457	1.510227	-0.000179
1321	1.3134e+02	-12.5980	-56.350341	0.000446	4.457457	1.510227	-0.000179
1322	1.3144e+02	-12.6349	-56.532012	0.000456	4.558763	1.544551	-0.000183
1323	1.3154e+02	-12.6766	-56.653126	0.000304	3.039175	1.029701	-0.000122
1324	1.3164e+02	-12.7119	-56.834797	0.000456	4.558763	1.544551	-0.000183
1325	1.3174e+02	-12.7649	-56.963985	0.000324	3.241787	1.098347	-0.000130
1326	1.3184e+02	-12.7938	-57.141619	0.000446	4.457457	1.510227	-0.000179
1327	1.3194e+02	-12.8339	-57.295030	0.000385	3.849622	1.304287	-0.000154
1328	1.3204e+02	-12.8676	-57.464590	0.000425	4.254846	1.441581	-0.000170
1329	1.3214e+02	-12.9189	-57.658373	0.000486	4.862681	1.647521	-0.000195
1330	1.3224e+02	-12.9606	-57.803709	0.000365	3.647011	1.235641	-0.000146
1331	1.3234e+02	-12.9879	-57.985381	0.000456	4.558763	1.544551	-0.000183
1332	1.3243e+02	-13.0360	-58.195312	0.000527	5.267904	1.784814	-0.000211
1333	1.3253e+02	-13.0777	-58.304314	0.000274	2.735258	0.926730	-0.000110
1334	1.3263e+02	-13.1114	-58.457725	0.000385	3.849622	1.304287	-0.000154
1335	1.3273e+02	-13.1579	-58.623248	0.000415	4.153540	1.407257	-0.000166
1336	1.3283e+02	-13.1948	-58.817031	0.000486	4.862681	1.647521	-0.000195
1337	1.3293e+02	-13.2301	-58.966405	0.000375	3.748316	1.269964	-0.000150
1338	1.3303e+02	-13.2670	-59.127890	0.000405	4.052234	1.372934	-0.000162
1339	1.3313e+02	-13.3199	-59.325710	0.000496	4.963987	1.681844	-0.000199
1340	1.3323e+02	-13.3568	-59.446824	0.000304	3.039175	1.029701	-0.000122
1341	1.3333e+02	-13.3873	-59.685015	0.000598	5.977045	2.025078	-0.000239
1342	1.3343e+02	-13.4210	-59.826315	0.000355	3.545705	1.201317	-0.000142
1343	1.3353e+02	-13.4707	-59.975689	0.000375	3.748316	1.269964	-0.000150
1344	1.3363e+02	-13.5076	-60.104877	0.000324	3.241787	1.098347	-0.000130
1345	1.3373e+02	-13.5461	-60.298659	0.000486	4.862681	1.647521	-0.000195
1346	1.3383e+02	-13.5895	-60.448033	0.000375	3.748316	1.269964	-0.000150
1347	1.3393e+02	-13.6296	-60.593370	0.000365	3.647011	1.235641	-0.000146
1348	1.3403e+02	-13.6697	-60.779079	0.000466	4.660069	1.578874	-0.000187
1349	1.3413e+02	-13.7162	-60.956713	0.000446	4.457457	1.510227	-0.000179
1350	1.3423e+02	-13.7419	-61.110124	0.000385	3.849622	1.304287	-0.000154
1351	1.3432e+02	-13.7932	-61.267572	0.000395	3.950928	1.338611	-0.000158
1352	1.3442e+02	-13.8333	-61.429057	0.000405	4.052234	1.372934	-0.000162
1353	1.3452e+02	-13.8702	-61.590543	0.000405	4.052234	1.372934	-0.000162
1354	1.3462e+02	-13.9119	-61.772214	0.000456	4.558763	1.544551	-0.000183
1355	1.3472e+02	-13.9584	-61.901402	0.000324	3.241787	1.098347	-0.000130
1356	1.3482e+02	-13.9905	-62.083073	0.000456	4.558763	1.544551	-0.000183
1357	1.3492e+02	-14.0306	-62.252633	0.000425	4.254846	1.441581	-0.000170
1358	1.3502e+02	-14.0659	-62.406044	0.000385	3.849622	1.304287	-0.000154
1359	1.3512e+02	-14.1060	-62.579641	0.000436	4.356152	1.475904	-0.000174
1360	1.3522e+02	-14.1509	-62.737089	0.000395	3.950928	1.338611	-0.000158
1361	1.3532e+02	-14.1959	-62.866278	0.000324	3.241787	1.098347	-0.000130
1362	1.3542e+02	-14.2263	-63.031800	0.000415	4.153540	1.407257	-0.000166
1363	1.3552e+02	-14.2648	-63.185211	0.000385	3.849622	1.304287	-0.000154
1364	1.3562e+02	-14.3065	-63.346697	0.000405	4.052234	1.372934	-0.000162
1365	1.3572e+02	-14.3515	-63.568739	0.000557	5.571822	1.887784	-0.000223
1366	1.3582e+02	-14.3884	-63.693891	0.000314	3.140481	1.064024	-0.000126
1367	1.3592e+02	-14.4253	-63.827116	0.000334	3.343093	1.132671	-0.000134
1368	1.3602e+02	-14.4766	-64.028973	0.000507	5.065292	1.716168	-0.000203
1369	1.3612e+02	-14.5055	-64.190458	0.000405	4.052234	1.372934	-0.000162
1370	1.3622e+02	-14.5456	-64.360018	0.000425	4.254846	1.441581	-0.000170
1371	1.3631e+02	-14.5793	-64.517466	0.000395	3.950928	1.338611	-0.000158
1372	1.3641e+02	-14.6258	-64.646655	0.000324	3.241787	1.098347	-0.000130
1373	1.3651e+02	-14.6563	-64.824289	0.000446	4.457457	1.510227	-0.000179
1374	1.3661e+02	-14.7028	-64.985774	0.000405	4.052234	1.372934	-0.000162
1375	1.3671e+02	-14.7541	-65.118999	0.000334	3.343093	1.132671	-0.000134
1376	1.3681e+02	-14.7926	-65.288559	0.000425	4.254846	1.441581	-0.000170
1377	1.3691e+02	-14.8199	-65.437933	0.000375	3.748316	1.269964	-0.000150
1378	1.3701e+02	-14.8696	-65.627679	0.000476	4.761375	1.613197	-0.000191
1379	1.3711e+02	-14.9049	-65.756867	0.000324	3.241787	1.098347	-0.000130
1380	1.3721e+02	-14.9514	-65.918352	0.000405	4.052234	1.372934	-0.000162
1381	1.3731e+02	-14.9932	-66.083875	0.000415	4.153540	1.407257	-0.000166
1382	1.3741e+02	-15.0252	-66.225175	0.000355	3.545705	1.201317	-0.000142
1383	1.3751e+02	-15.0718	-66.439143	0.000537	5.369210	1.819138	-0.000215
1384	1.3761e+02	-15.0942	-66.584480	0.000365	3.647011	1.235641	-0.000146
1385	1.3771e+02	-15.1520	-66.725779	0.000355	3.545705	1.201317	-0.000142
1386	1.3781e+02	-15.1857	-66.907451	0.000456	4.558763	1.544551	-0.000183
1387	1.3791e+02	-15.2258	-67.028565	0.000304	3.039175	1.029701	-0.000122
1388	1.3801e+02	-15.2659	-67.202161	0.000436	4.356152	1.475904	-0.000174
1389	1.3811e+02	-15.3060	-67.351536	0.000375	3.748316	1.269964	-0.000150
1390	1.3821e+02	-15.3397	-67.529169	0.000446	4.457457	1.510227	-0.000179
1391	1.3831e+02	-15.3846	-67.686618	0.000395	3.950928	1.338611	-0.000158
1392	1.3840e+02	-15.4295	-67.831955	0.000365	3.647011	1.235641	-0.000146
1393	1.3850e+02	-15.4536	-68.025737	0.000486	4.862681	1.647521	-0.000195
1394	1.3860e+02	-15.5065	-68.167037	0.000355	3.545705	1.201317	-0.000142
1395	1.3870e+02	-15.5466	-68.344671	0.000446	4.457457	1.510227	-0.000179
1396	1.3880e+02	-15.5915	-68.473859	0.000324	3.241787	1.098347	-0.000130
1397	1.3890e+02	-15.6268	-68.643419	0.000425	4.254846	1.441581	-0.000170
1398	1.3900e+02	-15.6589	-68.796830	0.000385	3.849622	1.304287	-0.000154
1399	1.3910e+02	-15.6958	-68.946204	0.000375	3.748316	1.269964	-0.000150
1400	1.3920e+02	-15.7471	-69.091541	0.000365	3.647011	1.235641	-0.000146
1401	1.3930e+02	-15.7889	-69.253026	0.000405	4.052234	1.372934	-0.000162
1402	1.3940e+02	-15.8290	-69.394326	0.000355	3.545705	1.201317	-0.000142
1403	1.3950e+02	-15.8594	-69.612332	0.000547	5.470516	1.853461	-0.000219
1404	1.3960e+02	-15.9076	-69.717297	0.000263	2.633952	0.892407	-0.000105
1405	1.3970e+02	-15.9477	-69.903005	0.000466	4.660069	1.578874	-0.000187
1406	1.3980e+02	-15.9830	-70.048342	0.000365	3.647011	1.235641	-0.000146
1407	1.3990e+02	-16.0247	-70.189642	0.000355	3.545705	1.201317	-0.000142
1408	1.4000e+02	-16.0503	-70.351127	0.000405	4.052234	1.372934	-0.000162
1409	1.4010e+02	-16.1001	-70.565096	0.000537	5.369210	1.819138	-0.000215
1410	1.4020e+02	-16.1434	-70.678135	0.000284	2.836564	0.961054	-0.000114
1411	1.4029e+02	-16.1867	-70.819435	0.000355	3.545705	1.201317	-0.000142
1412	1.4039e+02	-16.2236	-70.980921	0.000405	4.052234	1.372934	-0.000162
1413	1.4049e+02	-16.2637	-71.118183	0.000344	3.444399	1.166994	-0.000138
1414	1.4059e+02	-16.2974	-71.263520	0.000365	3.647011	1.235641	-0.000146
1415	1.4069e+02	-16.3359	-71.453265	0.000476	4.761375	1.613197	-0.000191
1416	1.4079e+02	-16.3824	-71.594565	0.000355	3.545705	1.201317	-0.000142
1417	1.4089e+02	-16.4193	-71.723754	0.000324	3.241787	1.098347	-0.000130
1418	1.4099e+02	-16.4658	-71.885239	0.000405	4.052234	1.372934	-0.000162
1419	1.4109e+02	-16.5043	-72.034613	0.000375	3.748316	1.269964	-0.000150
1420	1.4119e+02	-16.5461	-72.200136	0.000415	4.153540	1.407257	-0.000166
1421	1.4129e+02	-16.5814	-72.369695	0.000425	4.254846	1.441581	-0.000170
1422	1.4139e+02	-16.6231	-72.498884	0.000324	3.241787	1.098347	-0.000130
1423	1.4149e+02	-16.6600	-72.672480	0.000436	4.356152	1.475904	-0.000174
1424	1.4159e+02	-16.6920	-72.813780	0.000355	3.545705	1.201317	-0.000142
1425	1.4169e+02	-16.7434	-72.983340	0.000425	4.254846	1.441581	-0.000170
1426	1.4179e+02	-16.7771	-73.120602	0.000344	3.444399	1.166994	-0.000138
1427	1.4189e+02	-16.8124	-73.269977	0.000375	3.748316	1.269964	-0.000150
1428	1.4199e+02	-16.8573	-73.423388	0.000385	3.849622	1.304287	-0.000154
1429	1.4209e+02	-16.8926	-73.629282	0.000517	5.166598	1.750491	-0.000207
1430	1.4219e+02	-16.9359	-73.710024	0.000203	2.026117	0.686467	-0.000081
1431	1.4228e+02	-16.9760	-73.883621	0.000436	4.356152	1.475904	-0.000174
1432	1.4238e+02	-17.0145	-74.037032	0.000385	3.849622	1.304287	-0.000154
1433	1.4248e+02	-17.0642	-74.182369	0.000365	3.647011	1.235641	-0.000146
1434	1.4258e+02	-17.1011	-74.368077	0.000466	4.660069	1.578874	-0.000187
1435	1.4268e+02	-17.1380	-74.513414	0.000365	3.647011	1.235641	-0.000146
1436	1.4278e+02	-17.1797	-74.731420	0.000547	5.470516	1.853461	-0.000219
1437	1.4288e+02	-17.2246	-74.836385	0.000263	2.633952	0.892407	-0.000105
1438	1.4298e+02	-17.2503	-75.009982	0.000436	4.356152	1.475904	-0.000174
1439	1.4308e+02	-17.2984	-75.167430	0.000395	3.950928	1.338611	-0.000158
1440	1.4318e+02	-17.3402	-75.332953	0.000415	4.153540	1.407257	-0.000166
1441	1.4328e+02	-17.3690	-75.425807	0.000233	2.330035	0.789437	-0.000093
1442	1.4338e+02	-17.4204	-75.595367	0.000425	4.254846	1.441581	-0.000170
1443	1.4348e+02	-17.4589	-75.781075	0.000466	4.660069	1.578874	-0.000187
1444	1.4358e+02	-17.4942	-75.930449	0.000375	3.748316	1.269964	-0.000150
1445	1.4368e+02	-17.5391	-76.075786	0.000365	3.647011	1.235641	-0.000146
1446	1.4378e+02	-17.5744	-76.273605	0.000496	4.963987	1.681844	-0.000199
1447	1.4388e+02	-17.6193	-76.382608	0.000274	2.735258	0.926730	-0.000110
1448	1.4398e+02	-17.6514	-76.536019	0.000385	3.849622	1.304287	-0.000154
1449	1.4408e+02	-17.6947	-76.717690	0.000456	4.558763	1.544551	-0.000183
1450	1.4418e+02	-17.7332	-76.895324	0.000446	4.457457	1.510227	-0.000179
1451	1.4428e+02	-17.7781	-77.036624	0.000355	3.545705	1.201317	-0.000142
1452	1.4437e+02	-17.8246	-77.206184	0.000425	4.254846	1.441581	-0.000170
1453	1.4447e+02	-17.8583	-77.327298	0.000304	3.039175	1.029701	-0.000122
1454	1.4457e+02	-17.8904	-77.496858	0.000425	4.254846	1.441581	-0.000170
1455	1.4467e+02	-17.9433	-77.662380	0.000415	4.153540	1.407257	-0.000166
1456	1.4477e+02	-17.9690	-77.840014	0.000446	4.457457	1.510227	-0.000179
1457	1.4487e+02	-18.0187	-77.969203	0.000324	3.241787	1.098347	-0.000130
1458	1.4497e+02	-18.0540	-78.191245	0.000557	5.571822	1.887784	-0.000223
1459	1.4507e+02	-18.0861	-78.308322	0.000294	2.937870	0.995377	-0.000118
1460	1.4517e+02	-18.1326	-78.481919	0.000436	4.356152	1.475904	-0.000174
1461	1.4527e+02	-18.1744	-78.631293	0.000375	3.748316	1.269964	-0.000150
1462	1.4537e+02	-18.2129	-78.780667	0.000375	3.748316	1.269964	-0.000150
1463	1.4547e+02	-18.2546	-78.970412	0.000476	4.761375	1.613197	-0.000191
1464	1.4557e+02	-18.3011	-79.144009	0.000436	4.356152	1.475904	-0.000174
1465	1.4567e+02	-18.3219	-79.301457	0.000395	3.950928	1.338611	-0.000158
1466	1.4577e+02	-18.3669	-79.442757	0.000355	3.545705	1.201317	-0.000142
1467	1.4587e+02	-18.4086	-79.616354	0.000436	4.356152	1.475904	-0.000174
1468	1.4597e+02	-18.4567	-79.777839	0.000405	4.052234	1.372934	-0.000162
1469	1.4607e+02	-18.4968	-79.898953	0.000304	3.039175	1.029701	-0.000122
1470	1.4617e+02	-18.5241	-80.084662	0.000466	4.660069	1.578874	-0.000187
1471	1.4626e+02	-18.5674	-80.258258	0.000436	4.356152	1.475904	-0.000174
1472	1.4636e+02	-18.6171	-80.391484	0.000334	3.343093	1.132671	-0.000134
1473	1.4646e+02	-18.6620	-80.557007	0.000415	4.153540	1.407257	-0.000166
1474	1.4656e+02	-18.6941	-80.706381	0.000375	3.748316	1.269964	-0.000150
1475	1.4666e+02	-18.7326	-80.936497	0.000577	5.774433	1.956431	-0.000231
1476	1.4676e+02	-18.7711	-81.037426	0.000253	2.532646	0.858084	-0.000101
1477	1.4686e+02	-18.8257	-81.194874	0.000395	3.950928	1.338611	-0.000158
1478	1.4696e+02	-18.8545	-81.420954	0.000567	5.673128	1.922108	-0.000227
1479	1.4706e+02	-18.8882	-81.550142	0.000324	3.241787	1.098347	-0.000130
1480	1.4716e+02	-18.9332	-81.703553	0.000385	3.849622	1.304287	-0.000154
1481	1.4726e+02	-18.9684	-81.856964	0.000385	3.849622	1.304287	-0.000154
1482	1.4736e+02	-19.0102	-82.046710	0.000476	4.761375	1.613197	-0.000191
1483	1.4746e+02	-19.0599	-82.204158	0.000395	3.950928	1.338611	-0.000158
1484	1.4756e+02	-19.0920	-82.365643	0.000405	4.052234	1.372934	-0.000162
1485	1.4766e+02	-19.1353	-82.551352	0.000466	4.660069	1.578874	-0.000187
1486	1.4776e+02	-19.1754	-82.696688	0.000365	3.647011	1.235641	-0.000146
1487	1.4786e+02	-19.2139	-82.886434	0.000476	4.761375	1.613197	-0.000191
1488	1.4796e+02	-19.2556	-83.055994	0.000425	4.254846	1.441581	-0.000170
1489	1.4806e+02	-19.2973	-83.233628	0.000446	4.457457	1.510227	-0.000179
1490	1.4816e+02	-19.3326	-83.403187	0.000425	4.254846	1.441581	-0.000170
1491	1.4825e+02	-19.3711	-83.568710	0.000415	4.153540	1.407257	-0.000166
1492	1.4835e+02	-19.4032	-83.742307	0.000436	4.356152	1.475904	-0.000174
1493	1.4845e+02	-19.4497	-83.932052	0.000476	4.761375	1.613197	-0.000191
1494	1.4855e+02	-19.4850	-84.073352	0.000355	3.545705	1.201317	-0.000142
1495	1.4865e+02	-19.5235	-84.226763	0.000385	3.849622	1.304287	-0.000154
1496	1.4875e+02	-19.5668	-84.400360	0.000436	4.356152	1.475904	-0.000174
1497	1.4885e+02	-19.6069	-84.582031	0.000456	4.558763	1.544551	-0.000183
1498	1.4895e+02	-19.6519	-84.791962	0.000527	5.267904	1.784814	-0.000211
1499	1.4905e+02	-19.6839	-84.909039	0.000294	2.937870	0.995377	-0.000118
1500	1.4915e+02	-19.7289	-85.127044	0.000547	5.470516	1.853461	-0.000219
1501	1.4925e+02	-19.7706	-85.312752	0.000466	4.660069	1.578874	-0.000187
1502	1.4935e+02	-19.8043	-85.494424	0.000456	4.558763	1.544551	-0.000183
1503	1.4945e+02	-19.8428	-85.635723	0.000355	3.545705	1.201317	-0.000142
1504	1.4955e+02	-19.8845	-85.817394	0.000456	4.558763	1.544551	-0.000183
1505	1.4965e+02	-19.9230	-85.995028	0.000446	4.457457	1.510227	-0.000179
1506	1.4975e+02	-19.9743	-86.180737	0.000466	4.660069	1.578874	-0.000187
1507	1.4985e+02	-20.0128	-86.326073	0.000365	3.647011	1.235641	-0.000146
1508	1.4995e+02	-19.9551	-86.277628	0.000122	1.215670	0.411880	0.000049
1509	1.5005e+02	-19.9246	-86.204959	0.000182	1.823505	0.617820	0.000073
1510	1.5015e+02	-19.8957	-86.148440	0.000142	1.418282	0.480527	0.000057
1511	1.5025e+02	-19.8395	-86.039437	0.000274	2.735258	0.926730	0.000110
1512	1.5034e+02	-19.8043	-85.966768	0.000182	1.823505	0.617820	0.000073
1513	1.5044e+02	-19.7641	-85.886026	0.000203	2.026117	0.686467	0.000081
1514	1.5054e+02	-19.7289	-85.817394	0.000172	1.722199	0.583497	0.000069
1515	1.5064e+02	-19.6807	-85.700317	0.000294	2.937870	0.995377	0.000118
1516	1.5074e+02	-19.6535	-85.603426	0.000243	2.431340	0.823760	0.000097
1517	1.5084e+02	-19.6085	-85.546906	0.000142	1.418282	0.480527	0.000057
1518	1.5094e+02	-19.5765	-85.466164	0.000203	2.026117	0.686467	0.000081
1519	1.5104e+02	-19.5203	-85.341012	0.000314	3.140481	1.064024	0.000126
1520	1.5114e+02	-19.4930	-85.256233	0.000213	2.127423	0.720790	0.000085
1521	1.5124e+02	-19.4401	-85.135118	0.000304	3.039175	1.029701	0.000122
1522	1.5134e+02	-19.4064	-85.030153	0.000263	2.633952	0.892407	0.000105
1523	1.5144e+02	-19.3711	-84.949410	0.000203	2.026117	0.686467	0.000081
1524	1.5154e+02	-19.3310	-84.816185	0.000334	3.343093	1.132671	0.000134
1525	1.5164e+02	-19.3021	-84.731405	0.000213	2.127423	0.720790	0.000085
1526	1.5174e+02	-19.2588	-84.626439	0.000263	2.633952	0.892407	0.000105
1527	1.5184e+02	-19.2139	-84.497251	0.000324	3.241787	1.098347	0.000130
1528	1.5194e+02	-19.1674	-84.456880	0.000101	1.013058	0.343234	0.000041
1529	1.5204e+02	-19.1337	-84.327691	0.000324	3.241787	1.098347	0.000130
1530	1.5214e+02	-19.1032	-84.255023	0.000182	1.823505	0.617820	0.000073
1531	1.5224e+02	-19.0487	-84.146020	0.000274	2.735258	0.926730	0.000110
1532	1.5233e+02	-19.0150	-83.980498	0.000415	4.153540	1.407257	0.000166
1533	1.5243e+02	-18.9781	-83.907829	0.000182	1.823505	0.617820	0.000073
1534	1.5253e+02	-18.9412	-83.806901	0.000253	2.532646	0.858084	0.000101
1535	1.5263e+02	-18.8882	-83.661564	0.000365	3.647011	1.235641	0.000146
1536	1.5273e+02	-18.8529	-83.613118	0.000122	1.215670	0.411880	0.000049
1537	1.5283e+02	-18.8080	-83.479893	0.000334	3.343093	1.132671	0.000134
1538	1.5293e+02	-18.7679	-83.362816	0.000294	2.937870	0.995377	0.000118
1539	1.5303e+02	-18.7246	-83.261887	0.000253	2.532646	0.858084	0.000101
1540	1.5313e+02	-18.6909	-83.140773	0.000304	3.039175	1.029701	0.000122
1541	1.5323e+02	-18.6556	-83.015622	0.000314	3.140481	1.064024	0.000126
1542	1.5333e+02	-18.6139	-82.926805	0.000223	2.228729	0.755114	0.000089
1543	1.5343e+02	-18.5818	-82.789543	0.000344	3.444399	1.166994	0.000138
1544	1.5353e+02	-18.5321	-82.708800	0.000203	2.026117	0.686467	0.000081
1545	1.5363e+02	-18.4968	-82.555389	0.000385	3.849622	1.304287	0.000154
1546	1.5373e+02	-18.4535	-82.458497	0.000243	2.431340	0.823760	0.000097
1547	1.5383e+02	-18.4118	-82.357569	0.000253	2.532646	0.858084	0.000101
1548	1.5393e+02	-18.3765	-82.220306	0.000344	3.444399	1.166994	0.000138
1549	1.5403e+02	-18.3364	-82.103230	0.000294	2.937870	0.995377	0.000118
1550	1.5413e+02	-18.2947	-81.978078	0.000314	3.140481	1.064024	0.000126
1551	1.5422e+02	-18.2546	-81.897336	0.000203	2.026117	0.686467	0.000081
1552	1.5432e+02	-18.2096	-81.780259	0.000294	2.937870	0.995377	0.000118
1553	1.5442e+02	-18.1808	-81.683367	0.000243	2.431340	0.823760	0.000097
1554	1.5452e+02	-18.1278	-81.529956	0.000385	3.849622	1.304287	0.000154
1555	1.5462e+02	-18.0893	-81.424991	0.000263	2.633952	0.892407	0.000105
1556	1.5472e+02	-18.0556	-81.299839	0.000314	3.140481	1.064024	0.000126
1557	1.5482e+02	-18.0091	-81.206985	0.000233	2.330035	0.789437	0.000093
1558	1.5492e+02	-17.9706	-81.089908	0.000294	2.937870	0.995377	0.000118
1559	1.5502e+02	-17.9337	-80.972831	0.000294	2.937870	0.995377	0.000118
1560	1.5512e+02	-17.8904	-80.847680	0.000314	3.140481	1.064024	0.000126
1561	1.5522e+02	-17.8647	-80.706381	0.000355	3.545705	1.201317	0.000142
1562	1.5532e+02	-17.8118	-80.589304	0.000294	2.937870	0.995377	0.000118
1563	1.5542e+02	-17.7813	-80.496449	0.000233	2.330035	0.789437	0.000093
1564	1.5552e+02	-17.7300	-80.339001	0.000395	3.950928	1.338611	0.000158
1565	1.5562e+02	-17.6995	-80.278444	0.000152	1.519588	0.514850	0.000061
1566	1.5572e+02	-17.6546	-80.125033	0.000385	3.849622	1.304287	0.000154
1567	1.5582e+02	-17.6193	-79.995845	0.000324	3.241787	1.098347	0.000130
1568	1.5592e+02	-17.5792	-79.894916	0.000253	2.532646	0.858084	0.000101
1569	1.5602e+02	-17.5391	-79.749579	0.000365	3.647011	1.235641	0.000146
1570	1.5612e+02	-17.4893	-79.620391	0.000324	3.241787	1.098347	0.000130
1571	1.5622e+02	-17.4589	-79.491203	0.000324	3.241787	1.098347	0.000130
1572	1.5631e+02	-17.4252	-79.394311	0.000243	2.431340	0.823760	0.000097
1573	1.5641e+02	-17.3867	-79.257049	0.000344	3.444399	1.166994	0.000138
1574	1.5651e+02	-17.3353	-79.156120	0.000253	2.532646	0.858084	0.000101
1575	1.5661e+02	-17.3000	-79.043081	0.000284	2.836564	0.961054	0.000114
1576	1.5671e+02	-17.2503	-78.946189	0.000243	2.431340	0.823760	0.000097
1577	1.5681e+02	-17.2246	-78.756444	0.000476	4.761375	1.613197	0.000191
1578	1.5691e+02	-17.1749	-78.659553	0.000243	2.431340	0.823760	0.000097
1579	1.5701e+02	-17.1316	-78.546513	0.000284	2.836564	0.961054	0.000114
1580	1.5711e+02	-17.1011	-78.397139	0.000375	3.748316	1.269964	0.000150
1581	1.5721e+02	-17.0706	-78.263913	0.000334	3.343093	1.132671	0.000134
1582	1.5731e+02	-17.0129	-78.162985	0.000253	2.532646	0.858084	0.000101
1583	1.5741e+02	-16.9744	-77.997462	0.000415	4.153540	1.407257	0.000166
1584	1.5751e+02	-16.9375	-77.888460	0.000274	2.735258	0.926730	0.000110
1585	1.5761e+02	-16.8990	-77.799643	0.000223	2.228729	0.755114	0.000089
1586	1.5771e+02	-16.8509	-77.646232	0.000385	3.849622	1.304287	0.000154
1587	1.5781e+02	-16.8252	-77.529155	0.000294	2.937870	0.995377	0.000118
1588	1.5791e+02	-16.7771	-77.379781	0.000375	3.748316	1.269964	0.000150
1589	1.5801e+02	-16.7321	-77.270778	0.000274	2.735258	0.926730	0.000110
1590	1.5811e+02	-16.6969	-77.129478	0.000355	3.545705	1.201317	0.000142
1591	1.5821e+02	-16.6567	-76.967993	0.000405	4.052234	1.372934	0.000162
1592	1.5830e+02	-16.6199	-76.863027	0.000263	2.633952	0.892407	0.000105
1593	1.5840e+02	-16.5862	-76.745950	0.000294	2.937870	0.995377	0.000118
1594	1.5850e+02	-16.5461	-76.604651	0.000355	3.545705	1.201317	0.000142
1595	1.5860e+02	-16.4963	-76.475462	0.000324	3.241787	1.098347	0.000130
1596	1.5870e+02	-16.4626	-76.350311	0.000314	3.140481	1.064024	0.000126
1597	1.5880e+02	-16.4177	-76.225160	0.000314	3.140481	1.064024	0.000126
1598	1.5890e+02	-16.3808	-76.083860	0.000355	3.545705	1.201317	0.000142
1599	1.5900e+02	-16.3359	-75.910263	0.000436	4.356152	1.475904	0.000174
1600	1.5910e+02	-16.3038	-75.837595	0.000182	1.823505	0.617820	0.000073
1601	1.5920e+02	-16.2589	-75.736666	0.000253	2.532646	0.858084	0.000101
1602	1.5930e+02	-16.2220	-75.567107	0.000425	4.254846	1.441581	0.000170
1603	1.5940e+02	-16.1803	-75.454067	0.000284	2.836564	0.961054	0.000114
1604	1.5950e+02	-16.1482	-75.300656	0.000385	3.849622	1.304287	0.000154
1605	1.5960e+02	-16.1001	-75.215876	0.000213	2.127423	0.720790	0.000085
1606	1.5970e+02	-16.0664	-75.042279	0.000436	4.356152	1.475904	0.000174
1607	1.5980e+02	-16.0135	-74.913091	0.000324	3.241787	1.098347	0.000130
1608	1.5990e+02	-15.9750	-74.800051	0.000284	2.836564	0.961054	0.000114
1609	1.6000e+02	-15.9525	-74.658751	0.000355	3.545705	1.201317	0.000142
1610	1.6010e+02	-15.9108	-74.553786	0.000263	2.633952	0.892407	0.000105
1611	1.6019e+02	-15.8691	-74.460932	0.000233	2.330035	0.789437	0.000093
1612	1.6029e+02	-15.8161	-74.275223	0.000466	4.660069	1.578874	0.000187
1613	1.6039e+02	-15.7824	-74.146035	0.000324	3.241787	1.098347	0.000130
1614	1.6049e+02	-15.7423	-74.049144	0.000243	2.431340	0.823760	0.000097
1615	1.6059e+02	-15.7006	-73.823064	0.000567	5.673128	1.922108	0.000227
1616	1.6069e+02	-15.6637	-73.754433	0.000172	1.722199	0.583497	0.000069
1617	1.6079e+02	-15.6252	-73.605059	0.000375	3.748316	1.269964	0.000150
1618	1.6089e+02	-15.5883	-73.459722	0.000365	3.647011	1.235641	0.000146
1619	1.6099e+02	-15.5482	-73.374942	0.000213	2.127423	0.720790	0.000085
1620	1.6109e+02	-15.5049	-73.261902	0.000284	2.836564	0.961054	0.000114
1621	1.6119e+02	-15.4616	-73.116565	0.000365	3.647011	1.235641	0.000146
1622	1.6129e+02	-15.4279	-72.999488	0.000294	2.937870	0.995377	0.000118
1623	1.6139e+02	-15.3862	-72.821854	0.000446	4.457457	1.510227	0.000179
1624	1.6149e+02	-15.3333	-72.692666	0.000324	3.241787	1.098347	0.000130
1625	1.6159e+02	-15.3044	-72.543292	0.000375	3.748316	1.269964	0.000150
1626	1.6169e+02	-15.2611	-72.454475	0.000223	2.228729	0.755114	0.000089
1627	1.6179e+02	-15.2210	-72.297027	0.000395	3.950928	1.338611	0.000158
1628	1.6189e+02	-15.1873	-72.183987	0.000284	2.836564	0.961054	0.000114
1629	1.6199e+02	-15.1359	-72.018464	0.000415	4.153540	1.407257	0.000166
1630	1.6209e+02	-15.1119	-71.885239	0.000334	3.343093	1.132671	0.000134
1631	1.6219e+02	-15.0766	-71.756051	0.000324	3.241787	1.098347	0.000130
1632	1.6228e+02	-15.0252	-71.610714	0.000365	3.647011	1.235641	0.000146
1633	1.6238e+02	-14.9883	-71.493637	0.000294	2.937870	0.995377	0.000118
1634	1.6248e+02	-14.9450	-71.368486	0.000314	3.140481	1.064024	0.000126
1635	1.6258e+02	-14.9001	-71.231223	0.000344	3.444399	1.166994	0.000138
1636	1.6268e+02	-14.8712	-71.106072	0.000314	3.140481	1.064024	0.000126
1637	1.6278e+02	-14.8215	-70.948623	0.000395	3.950928	1.338611	0.000158
1638	1.6288e+02	-14.7878	-70.827509	0.000304	3.039175	1.029701	0.000122
1639	1.6298e+02	-14.7493	-70.678135	0.000375	3.748316	1.269964	0.000150
1640	1.6308e+02	-14.7092	-70.536836	0.000355	3.545705	1.201317	0.000142
1641	1.6318e+02	-14.6707	-70.387462	0.000375	3.748316	1.269964	0.000150
1642	1.6328e+02	-14.6274	-70.266348	0.000304	3.039175	1.029701	0.000122
1643	1.6338e+02	-14.5937	-70.112936	0.000385	3.849622	1.304287	0.000154
1644	1.6348e+02	-14.5440	-69.987785	0.000314	3.140481	1.064024	0.000126
1645	1.6358e+02	-14.5167	-69.862634	0.000314	3.140481	1.064024	0.000126
1646	1.6368e+02	-14.4718	-69.680963	0.000456	4.558763	1.544551	0.000183
1647	1.6378e+02	-14.4301	-69.575997	0.000263	2.633952	0.892407	0.000105
1648	1.6388e+02	-14.3819	-69.442772	0.000334	3.343093	1.132671	0.000134
1649	1.6398e+02	-14.3499	-69.293398	0.000375	3.748316	1.269964	0.000150
1650	1.6408e+02	-14.3082	-69.168247	0.000314	3.140481	1.064024	0.000126
1651	1.6418e+02	-14.2680	-69.022910	0.000365	3.647011	1.235641	0.000146
1652	1.6427e+02	-14.2247	-68.901796	0.000304	3.039175	1.029701	0.000122
1653	1.6437e+02	-14.1846	-68.728199	0.000436	4.356152	1.475904	0.000174
1654	1.6447e+02	-14.1525	-68.607085	0.000304	3.039175	1.029701	0.000122
1655	1.6457e+02	-14.1108	-68.453674	0.000385	3.849622	1.304287	0.000154
1656	1.6467e+02	-14.0723	-68.344671	0.000274	2.735258	0.926730	0.000110
1657	1.6477e+02	-14.0338	-68.183185	0.000405	4.052234	1.372934	0.000162
1658	1.6487e+02	-13.9953	-68.037849	0.000365	3.647011	1.235641	0.000146
1659	1.6497e+02	-13.9552	-67.969217	0.000172	1.722199	0.583497	0.000069
1660	1.6507e+02	-13.9183	-67.763323	0.000517	5.166598	1.750491	0.000207
1661	1.6517e+02	-13.8718	-67.658358	0.000263	2.633952	0.892407	0.000105
1662	1.6527e+02	-13.8221	-67.533207	0.000314	3.140481	1.064024	0.000126
1663	1.6537e+02	-13.7836	-67.367684	0.000415	4.153540	1.407257	0.000166
1664	1.6547e+02	-13.7531	-67.222347	0.000365	3.647011	1.235641	0.000146
1665	1.6557e+02	-13.7050	-67.125456	0.000243	2.431340	0.823760	0.000097
1666	1.6567e+02	-13.6697	-66.996268	0.000324	3.241787	1.098347	0.000130
1667	1.6577e+02	-13.6247	-66.859005	0.000344	3.444399	1.166994	0.000138
1668	1.6587e+02	-13.5862	-66.717705	0.000355	3.545705	1.201317	0.000142
1669	1.6597e+02	-13.5542	-66.560257	0.000395	3.950928	1.338611	0.000158
1670	1.6607e+02	-13.5108	-66.402809	0.000395	3.950928	1.338611	0.000158
1671	1.6616e+02	-13.4772	-66.277657	0.000314	3.140481	1.064024	0.000126
1672	1.6626e+02	-13.4419	-66.164618	0.000284	2.836564	0.961054	0.000114
1673	1.6636e+02	-13.3857	-66.019281	0.000365	3.647011	1.235641	0.000146
1674	1.6646e+02	-13.3504	-65.865870	0.000385	3.849622	1.304287	0.000154
1675	1.6656e+02	-13.3183	-65.764941	0.000253	2.532646	0.858084	0.000101
1676	1.6666e+02	-13.2750	-65.611530	0.000385	3.849622	1.304287	0.000154
1677	1.6676e+02	-13.2413	-65.466193	0.000365	3.647011	1.235641	0.000146
1678	1.6686e+02	-13.1836	-65.320856	0.000365	3.647011	1.235641	0.000146
1679	1.6696e+02	-13.1531	-65.175519	0.000365	3.647011	1.235641	0.000146
1680	1.6706e+02	-13.1178	-65.050368	0.000314	3.140481	1.064024	0.000126
1681	1.6716e+02	-13.0761	-64.888883	0.000405	4.052234	1.372934	0.000162
1682	1.6726e+02	-13.0312	-64.763732	0.000314	3.140481	1.064024	0.000126
1683	1.6736e+02	-12.9959	-64.646655	0.000294	2.937870	0.995377	0.000118
1684	1.6746e+02	-12.9462	-64.464983	0.000456	4.558763	1.544551	0.000183
1685	1.6756e+02	-12.9157	-64.323684	0.000355	3.545705	1.201317	0.000142
1686	1.6766e+02	-12.8788	-64.182384	0.000355	3.545705	1.201317	0.000142
1687	1.6776e+02	-12.8307	-64.061270	0.000304	3.039175	1.029701	0.000122
1688	1.6786e+02	-12.7986	-63.915933	0.000365	3.647011	1.235641	0.000146
1689	1.6796e+02	-12.7537	-63.782708	0.000334	3.343093	1.132671	0.000134
1690	1.6806e+02	-12.7168	-63.645445	0.000344	3.444399	1.166994	0.000138
1691	1.6816e+02	-12.6622	-63.479922	0.000415	4.153540	1.407257	0.000166
1692	1.6825e+02	-12.6381	-63.354771	0.000314	3.140481	1.064024	0.000126
1693	1.6835e+02	-12.5964	-63.209434	0.000365	3.647011	1.235641	0.000146
1694	1.6845e+02	-12.5611	-63.039875	0.000425	4.254846	1.441581	0.000170
1695	1.6855e+02	-12.5082	-62.918760	0.000304	3.039175	1.029701	0.000122
1696	1.6865e+02	-12.4825	-62.761312	0.000395	3.950928	1.338611	0.000158
1697	1.6875e+02	-12.4408	-62.624050	0.000344	3.444399	1.166994	0.000138
1698	1.6885e+02	-12.3911	-62.494861	0.000324	3.241787	1.098347	0.000130
1699	1.6895e+02	-12.3670	-62.317227	0.000446	4.457457	1.510227	0.000179
1700	1.6905e+02	-12.3189	-62.216299	0.000253	2.532646	0.858084	0.000101
1701	1.6915e+02	-12.2772	-62.066925	0.000375	3.748316	1.269964	0.000150
1702	1.6925e+02	-12.2403	-61.897365	0.000425	4.254846	1.441581	0.000170
1703	1.6935e+02	-12.1986	-61.776251	0.000304	3.039175	1.029701	0.000122
1704	1.6945e+02	-12.1617	-61.622840	0.000385	3.849622	1.304287	0.000154
1705	1.6955e+02	-12.1136	-61.505763	0.000294	2.937870	0.995377	0.000118
1706	1.6965e+02	-12.0863	-61.348315	0.000395	3.950928	1.338611	0.000158
1707	1.6975e+02	-12.0398	-61.174718	0.000436	4.356152	1.475904	0.000174
1708	1.6985e+02	-12.0045	-61.005158	0.000425	4.254846	1.441581	0.000170
1709	1.6995e+02	-11.9612	-60.896155	0.000274	2.735258	0.926730	0.000110
1710	1.7005e+02	-11.9291	-60.750819	0.000365	3.647011	1.235641	0.000146
1711	1.7015e+02	-11.8713	-60.609519	0.000355	3.545705	1.201317	0.000142
1712	1.7024e+02	-11.8376	-60.431885	0.000446	4.457457	1.510227	0.000179
1713	1.7034e+02	-11.8039	-60.306734	0.000314	3.140481	1.064024	0.000126
1714	1.7044e+02	-11.7574	-60.129100	0.000446	4.457457	1.510227	0.000179
1715	1.7054e+02	-11.7221	-60.024134	0.000263	2.633952	0.892407	0.000105
1716	1.7064e+02	-11.6788	-59.854574	0.000425	4.254846	1.441581	0.000170
1717	1.7074e+02	-11.6355	-59.701163	0.000385	3.849622	1.304287	0.000154
1718	1.7084e+02	-11.6018	-59.539678	0.000405	4.052234	1.372934	0.000162
1719	1.7094e+02	-11.5633	-59.442787	0.000243	2.431340	0.823760	0.000097
1720	1.7104e+02	-11.5216	-59.277264	0.000415	4.153540	1.407257	0.000166
1721	1.7114e+02	-11.4799	-59.131927	0.000365	3.647011	1.235641	0.000146
1722	1.7124e+02	-11.4414	-58.974479	0.000395	3.950928	1.338611	0.000158
1723	1.7134e+02	-11.3981	-58.873550	0.000253	2.532646	0.858084	0.000101
1724	1.7144e+02	-11.3548	-58.667657	0.000517	5.166598	1.750491	0.000207
1725	1.7154e+02	-11.3227	-58.586914	0.000203	2.026117	0.686467	0.000081
1726	1.7164e+02	-11.2842	-58.389094	0.000496	4.963987	1.681844	0.000199
1727	1.7174e+02	-11.2425	-58.239720	0.000375	3.748316	1.269964	0.000150
1728	1.7184e+02	-11.2056	-58.098420	0.000355	3.545705	1.201317	0.000142
1729	1.7194e+02	-11.1671	-57.932898	0.000415	4.153540	1.407257	0.000166
1730	1.7204e+02	-11.1254	-57.791598	0.000355	3.545705	1.201317	0.000142
1731	1.7213e+02	-11.0772	-57.650298	0.000355	3.545705	1.201317	0.000142
1732	1.7223e+02	-11.0451	-57.456516	0.000486	4.862681	1.647521	0.000195
1733	1.7233e+02	-10.9970	-57.331365	0.000314	3.140481	1.064024	0.000126
1734	1.7243e+02	-10.9617	-57.181991	0.000375	3.748316	1.269964	0.000150
1735	1.7253e+02	-10.9232	-57.028579	0.000385	3.849622	1.304287	0.000154
1736	1.7263e+02	-10.8735	-56.927651	0.000253	2.532646	0.858084	0.000101
1737	1.7273e+02	-10.8430	-56.705609	0.000557	5.571822	1.887784	0.000223
1738	1.7283e+02	-10.8093	-56.568346	0.000344	3.444399	1.166994	0.000138
1739	1.7293e+02	-10.7548	-56.431083	0.000344	3.444399	1.166994	0.000138
1740	1.7303e+02	-10.7195	-56.289784	0.000355	3.545705	1.201317	0.000142
1741	1.7313e+02	-10.6826	-56.116187	0.000436	4.356152	1.475904	0.000174
1742	1.7323e+02	-10.6409	-55.999110	0.000294	2.937870	0.995377	0.000118
1743	1.7333e+02	-10.6024	-55.841662	0.000395	3.950928	1.338611	0.000158
1744	1.7343e+02	-10.5623	-55.627693	0.000537	5.369210	1.819138	0.000215
1745	1.7353e+02	-10.5270	-55.526765	0.000253	2.532646	0.858084	0.000101
1746	1.7363e+02	-10.4901	-55.381428	0.000365	3.647011	1.235641	0.000146
1747	1.7373e+02	-10.4339	-55.203794	0.000446	4.457457	1.510227	0.000179
1748	1.7383e+02	-10.4034	-55.054420	0.000375	3.748316	1.269964	0.000150
1749	1.7393e+02	-10.3617	-54.868712	0.000466	4.660069	1.578874	0.000187
1750	1.7403e+02	-10.3297	-54.747598	0.000304	3.039175	1.029701	0.000122
1751	1.7413e+02	-10.2799	-54.569964	0.000446	4.457457	1.510227	0.000179
1752	1.7422e+02	-10.2478	-54.412515	0.000395	3.950928	1.338611	0.000158
1753	1.7432e+02	-10.2125	-54.242956	0.000425	4.254846	1.441581	0.000170
1754	1.7442e+02	-10.1692	-54.097619	0.000365	3.647011	1.235641	0.000146
1755	1.7452e+02	-10.1195	-53.960356	0.000344	3.444399	1.166994	0.000138
1756	1.7462e+02	-10.0826	-53.754462	0.000517	5.166598	1.750491	0.000207
1757	1.7472e+02	-10.0441	-53.597014	0.000395	3.950928	1.338611	0.000158
1758	1.7482e+02	-10.0040	-53.479937	0.000294	2.937870	0.995377	0.000118
1759	1.7492e+02	-9.9591	-53.294229	0.000466	4.660069	1.578874	0.000187
1760	1.7502e+02	-9.9254	-53.156966	0.000344	3.444399	1.166994	0.000138
1761	1.7512e+02	-9.8965	-52.995481	0.000405	4.052234	1.372934	0.000162
1762	1.7522e+02	-9.8484	-52.801698	0.000486	4.862681	1.647521	0.000195
1763	1.7532e+02	-9.7987	-52.688659	0.000284	2.836564	0.961054	0.000114
1764	1.7542e+02	-9.7634	-52.543322	0.000365	3.647011	1.235641	0.000146
1765	1.7552e+02	-9.7200	-52.377799	0.000415	4.153540	1.407257	0.000166
1766	1.7562e+02	-9.6799	-52.184017	0.000486	4.862681	1.647521	0.000195
1767	1.7572e+02	-9.6446	-52.046754	0.000344	3.444399	1.166994	0.000138
1768	1.7582e+02	-9.6045	-51.873157	0.000436	4.356152	1.475904	0.000174
1769	1.7592e+02	-9.5692	-51.739932	0.000334	3.343093	1.132671	0.000134
1770	1.7602e+02	-9.5195	-51.574409	0.000415	4.153540	1.407257	0.000166
1771	1.7612e+02	-9.4794	-51.429072	0.000365	3.647011	1.235641	0.000146
1772	1.7621e+02	-9.4425	-51.198955	0.000577	5.774433	1.956431	0.000231
1773	1.7631e+02	-9.4136	-51.098027	0.000253	2.532646	0.858084	0.000101
1774	1.7641e+02	-9.3687	-50.960764	0.000344	3.444399	1.166994	0.000138
1775	1.7651e+02	-9.3270	-50.766982	0.000486	4.862681	1.647521	0.000195
1776	1.7661e+02	-9.2837	-50.641831	0.000314	3.140481	1.064024	0.000126
1777	1.7671e+02	-9.2516	-50.472271	0.000425	4.254846	1.441581	0.000170
1778	1.7681e+02	-9.2051	-50.282526	0.000476	4.761375	1.613197	0.000191
1779	1.7691e+02	-9.1650	-50.129114	0.000385	3.849622	1.304287	0.000154
1780	1.7701e+02	-9.1345	-49.983778	0.000365	3.647011	1.235641	0.000146
1781	1.7711e+02	-9.0976	-49.842478	0.000355	3.545705	1.201317	0.000142
1782	1.7721e+02	-9.0511	-49.640621	0.000507	5.065292	1.716168	0.000203
1783	1.7731e+02	-9.0046	-49.499321	0.000355	3.545705	1.201317	0.000142
1784	1.7741e+02	-8.9677	-49.370133	0.000324	3.241787	1.098347	0.000130
1785	1.7751e+02	-8.9260	-49.148090	0.000557	5.571822	1.887784	0.000223
1786	1.7761e+02	-8.8923	-49.047162	0.000253	2.532646	0.858084	0.000101
1787	1.7771e+02	-8.8473	-48.889714	0.000395	3.950928	1.338611	0.000158
1788	1.7781e+02	-8.8153	-48.712080	0.000446	4.457457	1.510227	0.000179
1789	1.7791e+02	-8.7623	-48.494074	0.000547	5.470516	1.853461	0.000219
1790	1.7801e+02	-8.7222	-48.393146	0.000253	2.532646	0.858084	0.000101
1791	1.7810e+02	-8.6933	-48.179178	0.000537	5.369210	1.819138	0.000215
1792	1.7820e+02	-8.6372	-48.033841	0.000365	3.647011	1.235641	0.000146
1793	1.7830e+02	-8.6195	-47.888504	0.000365	3.647011	1.235641	0.000146
1794	1.7840e+02	-8.5730	-47.718944	0.000425	4.254846	1.441581	0.000170
1795	1.7850e+02	-8.5425	-47.553422	0.000415	4.153540	1.407257	0.000166
1796	1.7860e+02	-8.4896	-47.379825	0.000436	4.356152	1.475904	0.000174
1797	1.7870e+02	-8.4543	-47.238525	0.000355	3.545705	1.201317	0.000142
1798	1.7880e+02	-8.4078	-47.085114	0.000385	3.849622	1.304287	0.000154
1799	1.7890e+02	-8.3741	-46.927666	0.000395	3.950928	1.338611	0.000158
1800	1.7900e+02	-8.3308	-46.754069	0.000436	4.356152	1.475904	0.000174
1801	1.7910e+02	-8.2875	-46.600658	0.000385	3.849622	1.304287	0.000154
1802	1.7920e+02	-8.2554	-46.431098	0.000425	4.254846	1.441581	0.000170
1803	1.7930e+02	-8.2121	-46.249427	0.000456	4.558763	1.544551	0.000183
1804	1.7940e+02	-8.1671	-46.100053	0.000375	3.748316	1.269964	0.000150
1805	1.7950e+02	-8.1238	-45.906270	0.000486	4.862681	1.647521	0.000195
1806	1.7960e+02	-8.0982	-45.744785	0.000405	4.052234	1.372934	0.000162
1807	1.7970e+02	-8.0516	-45.591374	0.000385	3.849622	1.304287	0.000154
1808	1.7980e+02	-8.0083	-45.417777	0.000436	4.356152	1.475904	0.000174
1809	1.7990e+02	-7.9730	-45.280514	0.000344	3.444399	1.166994	0.000138
1810	1.8000e+02	-7.9313	-45.106918	0.000436	4.356152	1.475904	0.000174
1811	1.8009e+02	-7.8880	-44.957544	0.000375	3.748316	1.269964	0.000150
1812	1.8019e+02	-7.8559	-44.743575	0.000537	5.369210	1.819138	0.000215
1813	1.8029e+02	-7.8110	-44.578053	0.000415	4.153540	1.407257	0.000166
1814	1.8039e+02	-7.7741	-44.440790	0.000344	3.444399	1.166994	0.000138
1815	1.8049e+02	-7.7356	-44.271231	0.000425	4.254846	1.441581	0.000170
1816	1.8059e+02	-7.6875	-44.069374	0.000507	5.065292	1.716168	0.000203
1817	1.8069e+02	-7.6554	-43.907888	0.000405	4.052234	1.372934	0.000162
1818	1.8079e+02	-7.6105	-43.726217	0.000456	4.558763	1.544551	0.000183
1819	1.8089e+02	-7.5800	-43.576843	0.000375	3.748316	1.269964	0.000150
1820	1.8099e+02	-7.5431	-43.431506	0.000365	3.647011	1.235641	0.000146
1821	1.8109e+02	-7.4918	-43.282132	0.000375	3.748316	1.269964	0.000150
1822	1.8119e+02	-7.4517	-43.100461	0.000456	4.558763	1.544551	0.000183
1823	1.8129e+02	-7.4100	-42.930901	0.000425	4.254846	1.441581	0.000170
1824	1.8139e+02	-7.3682	-42.733082	0.000496	4.963987	1.681844	0.000199
1825	1.8149e+02	-7.3394	-42.587745	0.000365	3.647011	1.235641	0.000146
1826	1.8159e+02	-7.2961	-42.406074	0.000456	4.558763	1.544551	0.000183
1827	1.8169e+02	-7.2575	-42.280923	0.000314	3.140481	1.064024	0.000126
1828	1.8179e+02	-7.2126	-42.091177	0.000476	4.761375	1.613197	0.000191
1829	1.8189e+02	-7.1757	-41.953915	0.000344	3.444399	1.166994	0.000138
1830	1.8199e+02	-7.1436	-41.784355	0.000425	4.254846	1.441581	0.000170
1831	1.8209e+02	-7.1019	-41.618832	0.000415	4.153540	1.407257	0.000166
1832	1.8218e+02	-7.0554	-41.400827	0.000547	5.470516	1.853461	0.000219
1833	1.8228e+02	-7.0201	-41.275676	0.000314	3.140481	1.064024	0.000126
1834	1.8238e+02	-6.9720	-41.106116	0.000425	4.254846	1.441581	0.000170
1835	1.8248e+02	-6.9351	-40.960779	0.000365	3.647011	1.235641	0.000146
1836	1.8258e+02	-6.8950	-40.795257	0.000415	4.153540	1.407257	0.000166
1837	1.8268e+02	-6.8533	-40.609548	0.000466	4.660069	1.578874	0.000187
1838	1.8278e+02	-6.8180	-40.435952	0.000436	4.356152	1.475904	0.000174
1839	1.8288e+02	-6.7779	-40.282540	0.000385	3.849622	1.304287	0.000154
1840	1.8298e+02	-6.7378	-40.133166	0.000375	3.748316	1.269964	0.000150
1841	1.8308e+02	-6.7041	-39.890938	0.000608	6.078351	2.059401	0.000243
1842	1.8318e+02	-6.6511	-39.806158	0.000213	2.127423	0.720790	0.000085
1843	1.8328e+02	-6.6110	-39.616413	0.000476	4.761375	1.613197	0.000191
1844	1.8338e+02	-6.5725	-39.463002	0.000385	3.849622	1.304287	0.000154
1845	1.8348e+02	-6.5372	-39.301516	0.000405	4.052234	1.372934	0.000162
1846	1.8358e+02	-6.5036	-39.111771	0.000476	4.761375	1.613197	0.000191
1847	1.8368e+02	-6.4635	-38.930100	0.000456	4.558763	1.544551	0.000183
1848	1.8378e+02	-6.4233	-38.784763	0.000365	3.647011	1.235641	0.000146
1849	1.8388e+02	-6.3752	-38.599055	0.000466	4.660069	1.578874	0.000187
1850	1.8398e+02	-6.3447	-38.421421	0.000446	4.457457	1.510227	0.000179
1851	1.8407e+02	-6.2918	-38.276084	0.000365	3.647011	1.235641	0.000146
1852	1.8417e+02	-6.2677	-38.086339	0.000476	4.761375	1.613197	0.000191
1853	1.8427e+02	-6.2276	-37.924853	0.000405	4.052234	1.372934	0.000162
1854	1.8437e+02	-6.1763	-37.751256	0.000436	4.356152	1.475904	0.000174
1855	1.8447e+02	-6.1426	-37.569585	0.000456	4.558763	1.544551	0.000183
1856	1.8457e+02	-6.0993	-37.436360	0.000334	3.343093	1.132671	0.000134
1857	1.8467e+02	-6.0640	-37.222392	0.000537	5.369210	1.819138	0.000215
1858	1.8477e+02	-6.0207	-37.097240	0.000314	3.140481	1.064024	0.000126
1859	1.8487e+02	-5.9934	-36.903458	0.000486	4.862681	1.647521	0.000195
1860	1.8497e+02	-5.9357	-36.750047	0.000385	3.849622	1.304287	0.000154
1861	1.8507e+02	-5.9020	-36.528004	0.000557	5.571822	1.887784	0.000223
1862	1.8517e+02	-5.8699	-36.358444	0.000425	4.254846	1.441581	0.000170
1863	1.8527e+02	-5.8137	-36.192922	0.000415	4.153540	1.407257	0.000166
1864	1.8537e+02	-5.7913	-36.039511	0.000385	3.849622	1.304287	0.000154
1865	1.8547e+02	-5.7560	-35.845728	0.000486	4.862681	1.647521	0.000195
1866	1.8557e+02	-5.6998	-35.688280	0.000395	3.950928	1.338611	0.000158
1867	1.8567e+02	-5.6694	-35.546980	0.000355	3.545705	1.201317	0.000142
1868	1.8577e+02	-5.6132	-35.333012	0.000537	5.369210	1.819138	0.000215
1869	1.8587e+02	-5.5795	-35.191712	0.000355	3.545705	1.201317	0.000142
1870	1.8597e+02	-5.5362	-34.981781	0.000527	5.267904	1.784814	0.000211
1871	1.8606e+02	-5.5121	-34.796073	0.000466	4.660069	1.578874	0.000187
1872	1.8616e+02	-5.4688	-34.638625	0.000395	3.950928	1.338611	0.000158
1873	1.8626e+02	-5.4448	-34.444842	0.000486	4.862681	1.647521	0.000195
1874	1.8636e+02	-5.3950	-34.267208	0.000446	4.457457	1.510227	0.000179
1875	1.8646e+02	-5.3421	-34.101686	0.000415	4.153540	1.407257	0.000166
1876	1.8656e+02	-5.3052	-33.940200	0.000405	4.052234	1.372934	0.000162
1877	1.8666e+02	-5.2699	-33.738343	0.000507	5.065292	1.716168	0.000203
1878	1.8676e+02	-5.2250	-33.597044	0.000355	3.545705	1.201317	0.000142
1879	1.8686e+02	-5.1897	-33.435558	0.000405	4.052234	1.372934	0.000162
1880	1.8696e+02	-5.1480	-33.249850	0.000466	4.660069	1.578874	0.000187
1881	1.8706e+02	-5.1031	-33.039919	0.000527	5.267904	1.784814	0.000211
1882	1.8716e+02	-5.0758	-32.829988	0.000527	5.267904	1.784814	0.000211
1883	1.8726e+02	-5.0196	-32.664465	0.000415	4.153540	1.407257	0.000166
1884	1.8736e+02	-4.9876	-32.498943	0.000415	4.153540	1.407257	0.000166
1885	1.8746e+02	-4.9346	-32.333420	0.000415	4.153540	1.407257	0.000166
1886	1.8756e+02	-4.8993	-32.147712	0.000466	4.660069	1.578874	0.000187
1887	1.8766e+02	-4.8688	-32.006412	0.000355	3.545705	1.201317	0.000142
1888	1.8776e+02	-4.8255	-31.784370	0.000557	5.571822	1.887784	0.000223
1889	1.8786e+02	-4.7806	-31.618847	0.000415	4.153540	1.407257	0.000166
1890	1.8796e+02	-4.7421	-31.457362	0.000405	4.052234	1.372934	0.000162
1891	1.8806e+02	-4.7004	-31.263579	0.000486	4.862681	1.647521	0.000195
1892	1.8815e+02	-4.6651	-31.118242	0.000365	3.647011	1.235641	0.000146
1893	1.8825e+02	-4.6218	-30.888126	0.000577	5.774433	1.956431	0.000231
1894	1.8835e+02	-4.5801	-30.754900	0.000334	3.343093	1.132671	0.000134
1895	1.8845e+02	-4.5560	-30.553043	0.000507	5.065292	1.716168	0.000203
1896	1.8855e+02	-4.5047	-30.347149	0.000517	5.166598	1.750491	0.000207
1897	1.8865e+02	-4.4678	-30.209887	0.000344	3.444399	1.166994	0.000138
1898	1.8875e+02	-4.4309	-30.024178	0.000466	4.660069	1.578874	0.000187
1899	1.8885e+02	-4.3844	-29.830396	0.000486	4.862681	1.647521	0.000195
1900	1.8895e+02	-4.3459	-29.705245	0.000314	3.140481	1.064024	0.000126
1901	1.8905e+02	-4.3170	-29.475128	0.000577	5.774433	1.956431	0.000231
1902	1.8915e+02	-4.2705	-29.281346	0.000486	4.862681	1.647521	0.000195
1903	1.8925e+02	-4.2304	-29.156194	0.000314	3.140481	1.064024	0.000126
1904	1.8935e+02	-4.1887	-28.926078	0.000577	5.774433	1.956431	0.000231
1905	1.8945e+02	-4.1518	-28.768629	0.000395	3.950928	1.338611	0.000158
1906	1.8955e+02	-4.1100	-28.607144	0.000405	4.052234	1.372934	0.000162
1907	1.8965e+02	-4.0715	-28.405287	0.000507	5.065292	1.716168	0.000203
1908	1.8975e+02	-4.0138	-28.195356	0.000527	5.267904	1.784814	0.000211
1909	1.8985e+02	-3.9945	-28.025796	0.000425	4.254846	1.441581	0.000170
1910	1.8995e+02	-3.9464	-27.876422	0.000375	3.748316	1.269964	0.000150
1911	1.9004e+02	-3.9159	-27.674565	0.000507	5.065292	1.716168	0.000203
1912	1.9014e+02	-3.8742	-27.379855	0.000740	7.395327	2.505605	0.000296
1913	1.9024e+02	-3.8341	-27.250666	0.000324	3.241787	1.098347	0.000130
1914	1.9034e+02	-3.7908	-27.105329	0.000365	3.647011	1.235641	0.000146
1915	1.9044e+02	-3.7555	-26.911547	0.000486	4.862681	1.647521	0.000195
1916	1.9054e+02	-3.7042	-26.709690	0.000507	5.065292	1.716168	0.000203
1917	1.9064e+02	-3.6737	-26.495722	0.000537	5.369210	1.819138	0.000215
1918	1.9074e+02	-3.6304	-26.330199	0.000415	4.153540	1.407257	0.000166
1919	1.9084e+02	-3.5951	-26.144491	0.000466	4.660069	1.578874	0.000187
1920	1.9094e+02	-3.5454	-25.950709	0.000486	4.862681	1.647521	0.000195
1921	1.9104e+02	-3.5117	-25.793260	0.000395	3.950928	1.338611	0.000158
1922	1.9114e+02	-3.4635	-25.571218	0.000557	5.571822	1.887784	0.000223
1923	1.9124e+02	-3.4266	-25.357250	0.000537	5.369210	1.819138	0.000215
1924	1.9134e+02	-3.3978	-25.191727	0.000415	4.153540	1.407257	0.000166
1925	1.9144e+02	-3.3496	-25.026204	0.000415	4.153540	1.407257	0.000166
1926	1.9154e+02	-3.3095	-24.816273	0.000527	5.267904	1.784814	0.000211
1927	1.9164e+02	-3.2774	-24.662862	0.000385	3.849622	1.304287	0.000154
1928	1.9174e+02	-3.2277	-24.416597	0.000618	6.179657	2.093724	0.000248
1929	1.9184e+02	-3.1844	-24.267223	0.000375	3.748316	1.269964	0.000150
1930	1.9194e+02	-3.1395	-24.069403	0.000496	4.963987	1.681844	0.000199
1931	1.9203e+02	-3.1138	-23.847361	0.000557	5.571822	1.887784	0.000223
1932	1.9213e+02	-3.0833	-23.693950	0.000385	3.849622	1.304287	0.000154
1933	1.9223e+02	-3.0384	-23.528427	0.000415	4.153540	1.407257	0.000166
1934	1.9233e+02	-2.9935	-23.282162	0.000618	6.179657	2.093724	0.000248
1935	1.9243e+02	-2.9598	-23.140862	0.000355	3.545705	1.201317	0.000142
1936	1.9253e+02	-2.9149	-22.955154	0.000466	4.660069	1.578874	0.000187
1937	1.9263e+02	-2.8780	-22.741186	0.000537	5.369210	1.819138	0.000215
1938	1.9273e+02	-2.8267	-22.547403	0.000486	4.862681	1.647521	0.000195
1939	1.9283e+02	-2.7946	-22.353621	0.000486	4.862681	1.647521	0.000195
1940	1.9293e+02	-2.7673	-22.196172	0.000395	3.950928	1.338611	0.000158
1941	1.9303e+02	-2.7176	-21.966056	0.000577	5.774433	1.956431	0.000231
1942	1.9313e+02	-2.6678	-21.760162	0.000517	5.166598	1.750491	0.000207
1943	1.9323e+02	-2.6245	-21.554268	0.000517	5.166598	1.750491	0.000207
1944	1.9333e+02	-2.5876	-21.376634	0.000446	4.457457	1.510227	0.000179
1945	1.9343e+02	-2.5604	-21.199000	0.000446	4.457457	1.510227	0.000179
1946	1.9353e+02	-2.5138	-21.013292	0.000466	4.660069	1.578874	0.000187
1947	1.9363e+02	-2.4882	-20.791249	0.000557	5.571822	1.887784	0.000223
1948	1.9373e+02	-2.4384	-20.633801	0.000395	3.950928	1.338611	0.000158
1949	1.9383e+02	-2.3999	-20.452130	0.000456	4.558763	1.544551	0.000183
1950	1.9393e+02	-2.3470	-20.213939	0.000598	5.977045	2.025078	0.000239
1951	1.9403e+02	-2.3181	-20.040342	0.000436	4.356152	1.475904	0.000174
1952	1.9412e+02	-2.2796	-19.874819	0.000415	4.153540	1.407257	0.000166
1953	1.9422e+02	-2.2411	-19.681037	0.000486	4.862681	1.647521	0.000195
1954	1.9432e+02	-2.1978	-19.495328	0.000466	4.660069	1.578874	0.000187
1955	1.9442e+02	-2.1577	-19.273286	0.000557	5.571822	1.887784	0.000223
1956	1.9452e+02	-2.1144	-19.071429	0.000507	5.065292	1.716168	0.000203
1957	1.9462e+02	-2.0775	-18.889758	0.000456	4.558763	1.544551	0.000183
1958	1.9472e+02	-2.0422	-18.700013	0.000476	4.761375	1.613197	0.000191
1959	1.9482e+02	-2.0005	-18.465859	0.000588	5.875739	1.990754	0.000235
1960	1.9492e+02	-1.9507	-18.312448	0.000385	3.849622	1.304287	0.000154
1961	1.9502e+02	-1.9251	-18.094442	0.000547	5.470516	1.853461	0.000219
1962	1.9512e+02	-1.8737	-17.908734	0.000466	4.660069	1.578874	0.000187
1963	1.9522e+02	-1.8401	-17.727063	0.000456	4.558763	1.544551	0.000183
1964	1.9532e+02	-1.8032	-17.500983	0.000567	5.673128	1.922108	0.000227
1965	1.9542e+02	-1.7582	-17.347572	0.000385	3.849622	1.304287	0.000154
1966	1.9552e+02	-1.7181	-17.113418	0.000588	5.875739	1.990754	0.000235
1967	1.9562e+02	-1.6780	-16.939822	0.000436	4.356152	1.475904	0.000174
1968	1.9572e+02	-1.6267	-16.729890	0.000527	5.267904	1.784814	0.000211
1969	1.9582e+02	-1.5962	-16.491699	0.000598	5.977045	2.025078	0.000239
1970	1.9592e+02	-1.5577	-16.326177	0.000415	4.153540	1.407257	0.000166
1971	1.9601e+02	-1.5240	-16.164691	0.000405	4.052234	1.372934	0.000162
1972	1.9611e+02	-1.4823	-15.898241	0.000669	6.686186	2.265341	0.000268
1973	1.9621e+02	-1.4310	-15.724644	0.000436	4.356152	1.475904	0.000174
1974	1.9631e+02	-1.4021	-15.538935	0.000466	4.660069	1.578874	0.000187
1975	1.9641e+02	-1.3604	-15.341116	0.000496	4.963987	1.681844	0.000199
1976	1.9651e+02	-1.3123	-15.106962	0.000588	5.875739	1.990754	0.000235
1977	1.9661e+02	-1.2786	-14.897031	0.000527	5.267904	1.784814	0.000211
1978	1.9671e+02	-1.2321	-14.735545	0.000405	4.052234	1.372934	0.000162
1979	1.9681e+02	-1.2080	-14.533689	0.000507	5.065292	1.716168	0.000203
1980	1.9691e+02	-1.1550	-14.319720	0.000537	5.369210	1.819138	0.000215
1981	1.9701e+02	-1.1149	-14.093641	0.000567	5.673128	1.922108	0.000227
1982	1.9711e+02	-1.0813	-13.920044	0.000436	4.356152	1.475904	0.000174
1983	1.9721e+02	-1.0428	-13.722224	0.000496	4.963987	1.681844	0.000199
1984	1.9731e+02	-1.0026	-13.504219	0.000547	5.470516	1.853461	0.000219
1985	1.9741e+02	-0.9641	-13.274102	0.000577	5.774433	1.956431	0.000231
1986	1.9751e+02	-0.9176	-13.084357	0.000476	4.761375	1.613197	0.000191
1987	1.9761e+02	-0.8871	-12.914797	0.000425	4.254846	1.441581	0.000170
1988	1.9771e+02	-0.8406	-12.729089	0.000466	4.660069	1.578874	0.000187
1989	1.9781e+02	-0.7973	-12.527232	0.000507	5.065292	1.716168	0.000203
1990	1.9791e+02	-0.7604	-12.309227	0.000547	5.470516	1.853461	0.000219
1991	1.9800e+02	-0.7139	-12.111407	0.000496	4.963987	1.681844	0.000199
1992	1.9810e+02	-0.6770	-11.897439	0.000537	5.369210	1.819138	0.000215
1993	1.9820e+02	-0.6481	-11.663285	0.000588	5.875739	1.990754	0.000235
1994	1.9830e+02	-0.5936	-11.521985	0.000355	3.545705	1.201317	0.000142
1995	1.9840e+02	-0.5551	-11.295906	0.000567	5.673128	1.922108	0.000227
1996	1.9850e+02	-0.5182	-11.110198	0.000466	4.660069	1.578874	0.000187
1997	1.9860e+02	-0.4797	-10.908341	0.000507	5.065292	1.716168	0.000203
1998	1.9870e+02	-0.4412	-10.710521	0.000496	4.963987	1.681844	0.000199
1999	1.9880e+02	-0.3946	-10.492516	0.000547	5.470516	1.853461	0.000219
2000	1.9890e+02	-0.3690	-10.335067	0.000395	3.950928	1.338611	0.000158
2001	1.9900e+02	-0.3241	-10.129174	0.000517	5.166598	1.750491	0.000207
2002	1.9910e+02	-0.2791	-9.882908	0.000618	6.179657	2.093724	0.000248
2003	1.9920e+02	-0.2406	-9.709311	0.000436	4.356152	1.475904	0.000174
2004	1.9930e+02	-0.2021	-9.511492	0.000496	4.963987	1.681844	0.000199
2005	1.9940e+02	-0.1652	-9.293486	0.000547	5.470516	1.853461	0.000219
2006	1.9950e+02	-0.1235	-9.107778	0.000466	4.660069	1.578874	0.000187
2007	1.9960e+02	-0.0866	-8.889773	0.000547	5.470516	1.853461	0.000219
2008	1.9970e+02	-0.0449	-8.704065	0.000466	4.660069	1.578874	0.000187
2009	1.9980e+02	0.0032	-8.498171	0.000466	4.660069	1.578874	0.000207

Center data before PMax,+/-Pr and +/-Vc Calc.

PMax (uC/cm2):	8.63e+01
Pr (uC/cm2):	2.42e+00
-Pr (uC/cm2):	-8.50e+00
PLoss (uC/cm2):	-4.31e+00
Vc:	9.03e-01
-Vc:	-4.60e-01
C (Max-Eff) (nF):	4.32e-01
K (Eff):	1.46e+03
Vert. (+/-Pr) Shift (uC/cm2):	-3.04e+00
Horiz. Shift (+/-Vc):	2.22e-01
Offset (uC/cm2):	4.16e+00

A (Loop Area - uC/cm2·Volts):	6.77e-02



Hysteresis Version: 5.48.1 - Radiant Technologies, Inc., 1999 - 9/12/24

