»»»»»»»»»»»»»»»»»»»»»»»»»»»»»»»»»»»» Hysteresis ««««««««««««««««««««««««««««««««««««
»»»  Executed Version:	5.48.1
»»»  Vision Version:	5.48.4 (R)
»»»  Vision Compiled:	9/18/24
»»»  Driver Version:	5.47.0
»»»  Windows Version:	Windows 8 or 8.1
»»»  Processor Information:	x86 (AMD or Intel) - 32 Processors
»»»  Tester Name:	PMF21124-494 (100V)
»»»  Tester S/N:	PMF21124-494
»»»  Internal Amp Type:	100V RevK 270k
»»»  Internal Amp S/N:	iAB2-596/K     
»»»  Execution Count:	1
»»»»»»»»»»»»»»»»»»»»»»»»»»»»»»»»»»»»»»»»»»««««««««««««««««««««««««««««««««««««««««««

Stored:	6/4/2025 - 14:37:0
Configured:	06/04/25 01:46:06 PM
Executed:	06/04/25 02:36:21 PM

»»»»»»»»»»»»»»»»»»»»»»»»»»»»»»»»»»» Sample Info ««««««««««««««««««««««««««««««««««««
Sample Name:	
Lot Name:	
Wafer Name:	
Die Row/Column:	0/0
Capacitor Number:	0
Sample Area (cm2):	1.00e-04
Sample Thickness (microns):	3.00e-01

Amplifier:	Internal

»»»»»»»»»»»»»»»»»»»»»»»»»»»»»»»»»»» Tester Info «««««««««««««««««««««««««««««««««««
Tester Name:	PMF21124-494 (100V)
Tester Serial Number:	PMF21124-494
Return Signal Amp. Level:	0.19 [Index: 3]

»»»»»»»»»»»»»»»»»»»»»»»»»»»»»»»» Hysteresis Info ««««««««««««««««««««««««««««««««««
Task Name:	Hyst-37
Volts:	20.00
Field:	666.67 (kV/cm)
DCBias:	0.00
DCField:	0.00 (kV/cm)
Hysteresis Period (ms):	2.00e+02
Preset:	Enabled
Preset Delay (ms):	1.00e+03
Profile:	Standard Bipolar

»»»»»»»»»»»»»»»»»»»»»»»»»»»»»»»»»»»»»» Data «««««««««««««««««««««««««««««««««««««««
Points:	2009

Valid Data

Point	Time (ms)	Drive Voltage	Measured Polarization (uC/cm2)	Capacitance (uF)	Normalized Capacitance (uF/cm2)	Dielectric Constant	Instantaneous Current (mA)
   1	0.0000e+00	-0.0016	-3.940244	0.000385	3.851166	1.304810	0.000154
   2	9.9500e-02	0.0289	-3.786833	0.000385	3.851166	1.304810	0.000154
   3	1.9900e-01	0.0642	-3.601125	0.000466	4.661938	1.579507	0.000187
   4	2.9850e-01	0.1139	-3.423491	0.000446	4.459245	1.510833	0.000179
   5	3.9800e-01	0.1476	-3.193374	0.000578	5.776750	1.957216	0.000231
   6	4.9750e-01	0.1861	-3.019778	0.000436	4.357899	1.476496	0.000174
   7	5.9700e-01	0.2310	-2.805809	0.000537	5.371364	1.819867	0.000215
   8	6.9650e-01	0.2631	-2.587804	0.000547	5.472710	1.854204	0.000219
   9	7.9600e-01	0.3048	-2.389984	0.000497	4.965978	1.682519	0.000199
  10	8.9550e-01	0.3433	-2.204276	0.000466	4.661938	1.579507	0.000187
  11	9.9500e-01	0.3834	-2.026642	0.000446	4.459245	1.510833	0.000179
  12	1.0945e+00	0.4283	-1.812674	0.000537	5.371364	1.819867	0.000215
  13	1.1940e+00	0.4684	-1.614854	0.000497	4.965978	1.682519	0.000199
  14	1.2935e+00	0.5037	-1.364552	0.000628	6.283482	2.128901	0.000252
  15	1.3930e+00	0.5503	-1.215178	0.000375	3.749820	1.270473	0.000150
  16	1.4925e+00	0.5888	-0.976987	0.000598	5.979443	2.025890	0.000239
  17	1.5920e+00	0.6257	-0.831650	0.000365	3.648473	1.236136	0.000146
  18	1.6915e+00	0.6658	-0.609607	0.000557	5.574057	1.888542	0.000223
  19	1.7910e+00	0.7091	-0.359305	0.000628	6.283482	2.128901	0.000252
  20	1.8905e+00	0.7428	-0.181671	0.000446	4.459245	1.510833	0.000179
  21	1.9900e+00	0.7861	0.024223	0.000517	5.168671	1.751193	0.000207
  22	2.0895e+00	0.8310	0.218005	0.000486	4.864631	1.648182	0.000195
  23	2.1890e+00	0.8695	0.440048	0.000557	5.574057	1.888542	0.000223
  24	2.2885e+00	0.9128	0.649979	0.000527	5.270017	1.785530	0.000211
  25	2.3880e+00	0.9497	0.867984	0.000547	5.472710	1.854204	0.000219
  26	2.4875e+00	0.9930	1.041581	0.000436	4.357899	1.476496	0.000174
  27	2.5870e+00	1.0251	1.263623	0.000557	5.574057	1.888542	0.000223
  28	2.6865e+00	1.0620	1.437220	0.000436	4.357899	1.476496	0.000174
  29	2.7860e+00	1.1069	1.647151	0.000527	5.270017	1.785530	0.000211
  30	2.8855e+00	1.1438	1.853045	0.000517	5.168671	1.751193	0.000207
  31	2.9850e+00	1.1807	2.075088	0.000557	5.574057	1.888542	0.000223
  32	3.0845e+00	1.2208	2.276945	0.000507	5.067324	1.716856	0.000203
  33	3.1840e+00	1.2625	2.470727	0.000486	4.864631	1.648182	0.000195
  34	3.2835e+00	1.3074	2.652398	0.000456	4.560592	1.545170	0.000183
  35	3.3830e+00	1.3395	2.866366	0.000537	5.371364	1.819867	0.000215
  36	3.4825e+00	1.3845	3.084372	0.000547	5.472710	1.854204	0.000219
  37	3.5820e+00	1.4294	3.274117	0.000476	4.763285	1.613845	0.000191
  38	3.6815e+00	1.4582	3.455788	0.000456	4.560592	1.545170	0.000183
  39	3.7810e+00	1.5064	3.706091	0.000628	6.283482	2.128901	0.000252
  40	3.8805e+00	1.5433	3.891799	0.000466	4.661938	1.579507	0.000187
  41	3.9800e+00	1.5818	4.097693	0.000517	5.168671	1.751193	0.000207
  42	4.0795e+00	1.6235	4.291475	0.000486	4.864631	1.648182	0.000195
  43	4.1790e+00	1.6668	4.493332	0.000507	5.067324	1.716856	0.000203
  44	4.2785e+00	1.7053	4.691152	0.000497	4.965978	1.682519	0.000199
  45	4.3780e+00	1.7486	4.929343	0.000598	5.979443	2.025890	0.000239
  46	4.4775e+00	1.7887	5.119088	0.000476	4.763285	1.613845	0.000191
  47	4.5770e+00	1.8272	5.345168	0.000568	5.675403	1.922879	0.000227
  48	4.6765e+00	1.8625	5.530876	0.000466	4.661938	1.579507	0.000187
  49	4.7760e+00	1.8962	5.704473	0.000436	4.357899	1.476496	0.000174
  50	4.8755e+00	1.9379	5.906330	0.000507	5.067324	1.716856	0.000203
  51	4.9750e+00	1.9780	6.148558	0.000608	6.080789	2.060227	0.000243
  52	5.0745e+00	2.0229	6.326192	0.000446	4.459245	1.510833	0.000179
  53	5.1740e+00	2.0566	6.572457	0.000618	6.182136	2.094564	0.000248
  54	5.2735e+00	2.1064	6.782388	0.000527	5.270017	1.785530	0.000211
  55	5.3730e+00	2.1465	6.964059	0.000456	4.560592	1.545170	0.000183
  56	5.4725e+00	2.1818	7.169953	0.000517	5.168671	1.751193	0.000207
  57	5.5720e+00	2.2299	7.375847	0.000517	5.168671	1.751193	0.000207
  58	5.6715e+00	2.2604	7.585778	0.000527	5.270017	1.785530	0.000211
  59	5.7710e+00	2.2924	7.783598	0.000497	4.965978	1.682519	0.000199
  60	5.8705e+00	2.3486	8.001603	0.000547	5.472710	1.854204	0.000219
  61	5.9700e+00	2.3839	8.215571	0.000537	5.371364	1.819867	0.000215
  62	6.0695e+00	2.4352	8.441651	0.000568	5.675403	1.922879	0.000227
  63	6.1690e+00	2.4625	8.639470	0.000497	4.965978	1.682519	0.000199
  64	6.2685e+00	2.5042	8.837290	0.000497	4.965978	1.682519	0.000199
  65	6.3680e+00	2.5427	9.035110	0.000497	4.965978	1.682519	0.000199
  66	6.4675e+00	2.5780	9.228892	0.000486	4.864631	1.648182	0.000195
  67	6.5670e+00	2.6245	9.459009	0.000578	5.776750	1.957216	0.000231
  68	6.6665e+00	2.6694	9.705274	0.000618	6.182136	2.094564	0.000248
  69	6.7660e+00	2.6903	9.870797	0.000416	4.155206	1.407822	0.000166
  70	6.8655e+00	2.7384	10.117062	0.000618	6.182136	2.094564	0.000248
  71	6.9650e+00	2.7737	10.278548	0.000405	4.053859	1.373485	0.000162
  72	7.0645e+00	2.8218	10.532887	0.000638	6.384829	2.163238	0.000256
  73	7.1640e+00	2.8636	10.730707	0.000497	4.965978	1.682519	0.000199
  74	7.2635e+00	2.9037	10.912378	0.000456	4.560592	1.545170	0.000183
  75	7.3630e+00	2.9374	11.138458	0.000568	5.675403	1.922879	0.000227
  76	7.4625e+00	2.9839	11.356463	0.000547	5.472710	1.854204	0.000219
  77	7.5620e+00	3.0111	11.546208	0.000476	4.763285	1.613845	0.000191
  78	7.6615e+00	3.0593	11.711731	0.000416	4.155206	1.407822	0.000166
  79	7.7610e+00	3.0994	11.962033	0.000628	6.283482	2.128901	0.000252
  80	7.8605e+00	3.1347	12.196187	0.000588	5.878096	1.991553	0.000235
  81	7.9600e+00	3.1828	12.373821	0.000446	4.459245	1.510833	0.000179
  82	8.0595e+00	3.2229	12.559529	0.000466	4.661938	1.579507	0.000187
  83	8.1590e+00	3.2534	12.813869	0.000638	6.384829	2.163238	0.000256
  84	8.2585e+00	3.2967	12.983429	0.000426	4.256552	1.442159	0.000170
  85	8.3580e+00	3.3384	13.245842	0.000659	6.587521	2.231913	0.000264
  86	8.4575e+00	3.3753	13.447699	0.000507	5.067324	1.716856	0.000203
  87	8.5570e+00	3.4154	13.685890	0.000598	5.979443	2.025890	0.000239
  88	8.6565e+00	3.4603	13.843338	0.000395	3.952513	1.339148	0.000158
  89	8.7560e+00	3.4940	14.053270	0.000527	5.270017	1.785530	0.000211
  90	8.8555e+00	3.5309	14.259163	0.000517	5.168671	1.751193	0.000207
  91	8.9550e+00	3.5710	14.473132	0.000537	5.371364	1.819867	0.000215
  92	9.0545e+00	3.6095	14.630580	0.000395	3.952513	1.339148	0.000158
  93	9.1540e+00	3.6560	14.892994	0.000659	6.587521	2.231913	0.000264
  94	9.2535e+00	3.6929	15.086776	0.000486	4.864631	1.648182	0.000195
  95	9.3530e+00	3.7411	15.316893	0.000578	5.776750	1.957216	0.000231
  96	9.4525e+00	3.7732	15.526824	0.000527	5.270017	1.785530	0.000211
  97	9.5520e+00	3.8101	15.728681	0.000507	5.067324	1.716856	0.000203
  98	9.6515e+00	3.8550	15.922463	0.000486	4.864631	1.648182	0.000195
  99	9.7510e+00	3.8887	16.128357	0.000517	5.168671	1.751193	0.000207
 100	9.8505e+00	3.9304	16.322140	0.000486	4.864631	1.648182	0.000195
 101	9.9500e+00	3.9737	16.560331	0.000598	5.979443	2.025890	0.000239
 102	1.0050e+01	4.0218	16.725853	0.000416	4.155206	1.407822	0.000166
 103	1.0149e+01	4.0475	16.939822	0.000537	5.371364	1.819867	0.000215
 104	1.0248e+01	4.0860	17.178013	0.000598	5.979443	2.025890	0.000239
 105	1.0348e+01	4.1421	17.355647	0.000446	4.459245	1.510833	0.000179
 106	1.0447e+01	4.1838	17.553466	0.000497	4.965978	1.682519	0.000199
 107	1.0547e+01	4.2095	17.799731	0.000618	6.182136	2.094564	0.000248
 108	1.0646e+01	4.2528	17.989477	0.000476	4.763285	1.613845	0.000191
 109	1.0746e+01	4.2945	18.227668	0.000598	5.979443	2.025890	0.000239
 110	1.0845e+01	4.3362	18.425488	0.000497	4.965978	1.682519	0.000199
 111	1.0945e+01	4.3715	18.659641	0.000588	5.878096	1.991553	0.000235
 112	1.1044e+01	4.4148	18.869572	0.000527	5.270017	1.785530	0.000211
 113	1.1144e+01	4.4566	19.043169	0.000436	4.357899	1.476496	0.000174
 114	1.1243e+01	4.4886	19.240989	0.000497	4.965978	1.682519	0.000199
 115	1.1343e+01	4.5304	19.467069	0.000568	5.675403	1.922879	0.000227
 116	1.1443e+01	4.5737	19.668925	0.000507	5.067324	1.716856	0.000203
 117	1.1542e+01	4.6138	19.911153	0.000608	6.080789	2.060227	0.000243
 118	1.1642e+01	4.6507	20.121085	0.000527	5.270017	1.785530	0.000211
 119	1.1741e+01	4.6972	20.310830	0.000476	4.763285	1.613845	0.000191
 120	1.1841e+01	4.7357	20.565169	0.000638	6.384829	2.163238	0.000256
 121	1.1940e+01	4.7646	20.758952	0.000486	4.864631	1.648182	0.000195
 122	1.2040e+01	4.8175	21.017329	0.000649	6.486175	2.197576	0.000260
 123	1.2139e+01	4.8528	21.186888	0.000426	4.256552	1.442159	0.000170
 124	1.2239e+01	4.8977	21.396819	0.000527	5.270017	1.785530	0.000211
 125	1.2338e+01	4.9362	21.578491	0.000456	4.560592	1.545170	0.000183
 126	1.2438e+01	4.9763	21.784384	0.000517	5.168671	1.751193	0.000207
 127	1.2537e+01	5.0020	22.014501	0.000578	5.776750	1.957216	0.000231
 128	1.2636e+01	5.0517	22.248655	0.000588	5.878096	1.991553	0.000235
 129	1.2736e+01	5.0966	22.422252	0.000436	4.357899	1.476496	0.000174
 130	1.2835e+01	5.1287	22.616034	0.000486	4.864631	1.648182	0.000195
 131	1.2935e+01	5.1817	22.862300	0.000618	6.182136	2.094564	0.000248
 132	1.3034e+01	5.2154	23.084342	0.000557	5.574057	1.888542	0.000223
 133	1.3134e+01	5.2635	23.298310	0.000537	5.371364	1.819867	0.000215
 134	1.3233e+01	5.2876	23.479981	0.000456	4.560592	1.545170	0.000183
 135	1.3333e+01	5.3277	23.697987	0.000547	5.472710	1.854204	0.000219
 136	1.3432e+01	5.3710	23.867546	0.000426	4.256552	1.442159	0.000170
 137	1.3532e+01	5.4047	24.142072	0.000689	6.891561	2.334924	0.000276
 138	1.3632e+01	5.4496	24.319706	0.000446	4.459245	1.510833	0.000179
 139	1.3731e+01	5.4849	24.525600	0.000517	5.168671	1.751193	0.000207
 140	1.3831e+01	5.5282	24.751679	0.000568	5.675403	1.922879	0.000227
 141	1.3930e+01	5.5667	24.909128	0.000395	3.952513	1.339148	0.000158
 142	1.4030e+01	5.6084	25.143281	0.000588	5.878096	1.991553	0.000235
 143	1.4129e+01	5.6517	25.361287	0.000547	5.472710	1.854204	0.000219
 144	1.4229e+01	5.6838	25.599478	0.000598	5.979443	2.025890	0.000239
 145	1.4328e+01	5.7255	25.781149	0.000456	4.560592	1.545170	0.000183
 146	1.4428e+01	5.7656	25.978968	0.000497	4.965978	1.682519	0.000199
 147	1.4527e+01	5.8025	26.164677	0.000466	4.661938	1.579507	0.000187
 148	1.4627e+01	5.8474	26.406905	0.000608	6.080789	2.060227	0.000243
 149	1.4726e+01	5.8907	26.584539	0.000446	4.459245	1.510833	0.000179
 150	1.4825e+01	5.9260	26.826767	0.000608	6.080789	2.060227	0.000243
 151	1.4925e+01	5.9613	27.000364	0.000436	4.357899	1.476496	0.000174
 152	1.5024e+01	6.0111	27.222406	0.000557	5.574057	1.888542	0.000223
 153	1.5124e+01	6.0431	27.400040	0.000446	4.459245	1.510833	0.000179
 154	1.5223e+01	6.0913	27.666491	0.000669	6.688868	2.266250	0.000268
 155	1.5323e+01	6.1298	27.860274	0.000486	4.864631	1.648182	0.000195
 156	1.5422e+01	6.1747	28.070205	0.000527	5.270017	1.785530	0.000211
 157	1.5522e+01	6.2068	28.231690	0.000405	4.053859	1.373485	0.000162
 158	1.5621e+01	6.2437	28.461807	0.000578	5.776750	1.957216	0.000231
 159	1.5721e+01	6.2886	28.639441	0.000446	4.459245	1.510833	0.000179
 160	1.5820e+01	6.3303	28.881669	0.000608	6.080789	2.060227	0.000243
 161	1.5920e+01	6.3624	29.067377	0.000466	4.661938	1.579507	0.000187
 162	1.6020e+01	6.4057	29.281346	0.000537	5.371364	1.819867	0.000215
 163	1.6119e+01	6.4426	29.487239	0.000517	5.168671	1.751193	0.000207
 164	1.6218e+01	6.4859	29.668911	0.000456	4.560592	1.545170	0.000183
 165	1.6318e+01	6.5180	29.894990	0.000568	5.675403	1.922879	0.000227
 166	1.6418e+01	6.5661	30.080698	0.000466	4.661938	1.579507	0.000187
 167	1.6517e+01	6.6030	30.302741	0.000557	5.574057	1.888542	0.000223
 168	1.6616e+01	6.6463	30.500561	0.000497	4.965978	1.682519	0.000199
 169	1.6716e+01	6.6961	30.690306	0.000476	4.763285	1.613845	0.000191
 170	1.6816e+01	6.7265	30.896200	0.000517	5.168671	1.751193	0.000207
 171	1.6915e+01	6.7683	31.094019	0.000497	4.965978	1.682519	0.000199
 172	1.7015e+01	6.7987	31.307988	0.000537	5.371364	1.819867	0.000215
 173	1.7114e+01	6.8469	31.538104	0.000578	5.776750	1.957216	0.000231
 174	1.7213e+01	6.8822	31.743998	0.000517	5.168671	1.751193	0.000207
 175	1.7313e+01	6.9223	31.945855	0.000507	5.067324	1.716856	0.000203
 176	1.7413e+01	6.9656	32.143675	0.000497	4.965978	1.682519	0.000199
 177	1.7512e+01	7.0025	32.329383	0.000466	4.661938	1.579507	0.000187
 178	1.7611e+01	7.0410	32.523166	0.000486	4.864631	1.648182	0.000195
 179	1.7711e+01	7.0763	32.745208	0.000557	5.574057	1.888542	0.000223
 180	1.7811e+01	7.1260	33.003585	0.000649	6.486175	2.197576	0.000260
 181	1.7910e+01	7.1645	33.156996	0.000385	3.851166	1.304810	0.000154
 182	1.8009e+01	7.2062	33.358853	0.000507	5.067324	1.716856	0.000203
 183	1.8109e+01	7.2415	33.548598	0.000476	4.763285	1.613845	0.000191
 184	1.8209e+01	7.2832	33.746418	0.000497	4.965978	1.682519	0.000199
 185	1.8308e+01	7.3201	33.948274	0.000507	5.067324	1.716856	0.000203
 186	1.8407e+01	7.3779	34.182428	0.000588	5.878096	1.991553	0.000235
 187	1.8507e+01	7.4051	34.360062	0.000446	4.459245	1.510833	0.000179
 188	1.8607e+01	7.4388	34.578068	0.000547	5.472710	1.854204	0.000219
 189	1.8706e+01	7.4805	34.763776	0.000466	4.661938	1.579507	0.000187
 190	1.8805e+01	7.5271	35.022153	0.000649	6.486175	2.197576	0.000260
 191	1.8905e+01	7.5624	35.179601	0.000395	3.952513	1.339148	0.000158
 192	1.9005e+01	7.5993	35.385495	0.000517	5.168671	1.751193	0.000207
 193	1.9104e+01	7.6426	35.603500	0.000547	5.472710	1.854204	0.000219
 194	1.9203e+01	7.6763	35.777097	0.000436	4.357899	1.476496	0.000174
 195	1.9303e+01	7.7260	35.966842	0.000476	4.763285	1.613845	0.000191
 196	1.9402e+01	7.7549	36.160625	0.000486	4.864631	1.648182	0.000195
 197	1.9502e+01	7.7918	36.382667	0.000557	5.574057	1.888542	0.000223
 198	1.9602e+01	7.8399	36.532041	0.000375	3.749820	1.270473	0.000150
 199	1.9701e+01	7.8864	36.770232	0.000598	5.979443	2.025890	0.000239
 200	1.9800e+01	7.9105	36.947866	0.000446	4.459245	1.510833	0.000179
 201	1.9900e+01	7.9570	37.161834	0.000537	5.371364	1.819867	0.000215
 202	2.0000e+01	7.9987	37.331394	0.000426	4.256552	1.442159	0.000170
 203	2.0099e+01	8.0404	37.549399	0.000547	5.472710	1.854204	0.000219
 204	2.0198e+01	8.0757	37.690699	0.000355	3.547127	1.201799	0.000142
 205	2.0298e+01	8.1142	37.912742	0.000557	5.574057	1.888542	0.000223
 206	2.0398e+01	8.1591	38.106524	0.000486	4.864631	1.648182	0.000195
 207	2.0497e+01	8.1848	38.320492	0.000537	5.371364	1.819867	0.000215
 208	2.0596e+01	8.2345	38.502164	0.000456	4.560592	1.545170	0.000183
 209	2.0696e+01	8.2762	38.647500	0.000365	3.648473	1.236136	0.000146
 210	2.0796e+01	8.3099	38.917989	0.000679	6.790214	2.300587	0.000272
 211	2.0895e+01	8.3468	39.103697	0.000466	4.661938	1.579507	0.000187
 212	2.0994e+01	8.3998	39.285368	0.000456	4.560592	1.545170	0.000183
 213	2.1094e+01	8.4383	39.491262	0.000517	5.168671	1.751193	0.000207
 214	2.1194e+01	8.4832	39.672933	0.000456	4.560592	1.545170	0.000183
 215	2.1293e+01	8.5105	39.846530	0.000436	4.357899	1.476496	0.000174
 216	2.1392e+01	8.5602	40.056461	0.000527	5.270017	1.785530	0.000211
 217	2.1492e+01	8.6019	40.234095	0.000446	4.459245	1.510833	0.000179
 218	2.1591e+01	8.6372	40.431914	0.000497	4.965978	1.682519	0.000199
 219	2.1691e+01	8.6741	40.605511	0.000436	4.357899	1.476496	0.000174
 220	2.1791e+01	8.7190	40.863888	0.000649	6.486175	2.197576	0.000260
 221	2.1890e+01	8.7527	41.077856	0.000537	5.371364	1.819867	0.000215
 222	2.1989e+01	8.7992	41.207044	0.000324	3.243087	1.098788	0.000130
 223	2.2089e+01	8.8265	41.408901	0.000507	5.067324	1.716856	0.000203
 224	2.2189e+01	8.8778	41.582498	0.000436	4.357899	1.476496	0.000174
 225	2.2288e+01	8.9067	41.804541	0.000557	5.574057	1.888542	0.000223
 226	2.2387e+01	8.9612	42.006397	0.000507	5.067324	1.716856	0.000203
 227	2.2487e+01	8.9965	42.171920	0.000416	4.155206	1.407822	0.000166
 228	2.2587e+01	9.0415	42.381851	0.000527	5.270017	1.785530	0.000211
 229	2.2686e+01	9.0784	42.611968	0.000578	5.776750	1.957216	0.000231
 230	2.2785e+01	9.1136	42.773453	0.000405	4.053859	1.373485	0.000162
 231	2.2885e+01	9.1586	42.955124	0.000456	4.560592	1.545170	0.000183
 232	2.2985e+01	9.1906	43.177167	0.000557	5.574057	1.888542	0.000223
 233	2.3084e+01	9.2275	43.350764	0.000436	4.357899	1.476496	0.000174
 234	2.3183e+01	9.2757	43.516286	0.000416	4.155206	1.407822	0.000166
 235	2.3283e+01	9.3206	43.689883	0.000436	4.357899	1.476496	0.000174
 236	2.3383e+01	9.3543	43.895777	0.000517	5.168671	1.751193	0.000207
 237	2.3482e+01	9.3992	44.073411	0.000446	4.459245	1.510833	0.000179
 238	2.3581e+01	9.4457	44.295453	0.000557	5.574057	1.888542	0.000223
 239	2.3681e+01	9.4746	44.465013	0.000426	4.256552	1.442159	0.000170
 240	2.3780e+01	9.5163	44.662833	0.000497	4.965978	1.682519	0.000199
 241	2.3880e+01	9.5612	44.860652	0.000497	4.965978	1.682519	0.000199
 242	2.3980e+01	9.5917	45.038286	0.000446	4.459245	1.510833	0.000179
 243	2.4079e+01	9.6318	45.264366	0.000568	5.675403	1.922879	0.000227
 244	2.4178e+01	9.6687	45.437963	0.000436	4.357899	1.476496	0.000174
 245	2.4278e+01	9.7104	45.599448	0.000405	4.053859	1.373485	0.000162
 246	2.4378e+01	9.7553	45.817453	0.000547	5.472710	1.854204	0.000219
 247	2.4477e+01	9.7970	46.015273	0.000497	4.965978	1.682519	0.000199
 248	2.4576e+01	9.8243	46.225204	0.000527	5.270017	1.785530	0.000211
 249	2.4676e+01	9.8676	46.402838	0.000446	4.459245	1.510833	0.000179
 250	2.4776e+01	9.9061	46.588546	0.000466	4.661938	1.579507	0.000187
 251	2.4875e+01	9.9462	46.766180	0.000446	4.459245	1.510833	0.000179
 252	2.4974e+01	9.9912	46.947851	0.000456	4.560592	1.545170	0.000183
 253	2.5074e+01	10.0281	47.173931	0.000568	5.675403	1.922879	0.000227
 254	2.5174e+01	10.0730	47.331379	0.000395	3.952513	1.339148	0.000158
 255	2.5273e+01	10.1147	47.525162	0.000486	4.864631	1.648182	0.000195
 256	2.5372e+01	10.1516	47.682610	0.000395	3.952513	1.339148	0.000158
 257	2.5472e+01	10.1901	47.908690	0.000568	5.675403	1.922879	0.000227
 258	2.5572e+01	10.2318	48.070175	0.000405	4.053859	1.373485	0.000162
 259	2.5671e+01	10.2719	48.247809	0.000446	4.459245	1.510833	0.000179
 260	2.5770e+01	10.3152	48.457740	0.000527	5.270017	1.785530	0.000211
 261	2.5870e+01	10.3601	48.619226	0.000405	4.053859	1.373485	0.000162
 262	2.5970e+01	10.3986	48.817045	0.000497	4.965978	1.682519	0.000199
 263	2.6069e+01	10.4291	48.978531	0.000405	4.053859	1.373485	0.000162
 264	2.6169e+01	10.4676	49.172313	0.000486	4.864631	1.648182	0.000195
 265	2.6268e+01	10.5125	49.390319	0.000547	5.472710	1.854204	0.000219
 266	2.6367e+01	10.5510	49.555841	0.000416	4.155206	1.407822	0.000166
 267	2.6467e+01	10.5944	49.709252	0.000385	3.851166	1.304810	0.000154
 268	2.6567e+01	10.6313	49.919183	0.000527	5.270017	1.785530	0.000211
 269	2.6666e+01	10.6730	50.100855	0.000456	4.560592	1.545170	0.000183
 270	2.6765e+01	10.7131	50.278488	0.000446	4.459245	1.510833	0.000179
 271	2.6865e+01	10.7500	50.452085	0.000436	4.357899	1.476496	0.000174
 272	2.6965e+01	10.7869	50.625682	0.000436	4.357899	1.476496	0.000174
 273	2.7064e+01	10.8286	50.859836	0.000588	5.878096	1.991553	0.000235
 274	2.7163e+01	10.8591	51.049581	0.000476	4.763285	1.613845	0.000191
 275	2.7263e+01	10.9136	51.215104	0.000416	4.155206	1.407822	0.000166
 276	2.7363e+01	10.9457	51.412924	0.000497	4.965978	1.682519	0.000199
 277	2.7462e+01	10.9938	51.602669	0.000476	4.763285	1.613845	0.000191
 278	2.7561e+01	11.0227	51.752043	0.000375	3.749820	1.270473	0.000150
 279	2.7661e+01	11.0676	51.929677	0.000446	4.459245	1.510833	0.000179
 280	2.7761e+01	11.1093	52.155757	0.000568	5.675403	1.922879	0.000227
 281	2.7860e+01	11.1494	52.337428	0.000456	4.560592	1.545170	0.000183
 282	2.7959e+01	11.1975	52.547359	0.000527	5.270017	1.785530	0.000211
 283	2.8059e+01	11.2200	52.680584	0.000334	3.344434	1.133125	0.000134
 284	2.8159e+01	11.2681	52.890515	0.000527	5.270017	1.785530	0.000211
 285	2.8258e+01	11.3066	53.072186	0.000456	4.560592	1.545170	0.000183
 286	2.8358e+01	11.3516	53.237709	0.000416	4.155206	1.407822	0.000166
 287	2.8457e+01	11.3965	53.435529	0.000497	4.965978	1.682519	0.000199
 288	2.8556e+01	11.4302	53.637385	0.000507	5.067324	1.716856	0.000203
 289	2.8656e+01	11.4590	53.798871	0.000405	4.053859	1.373485	0.000162
 290	2.8756e+01	11.5056	54.008802	0.000527	5.270017	1.785530	0.000211
 291	2.8855e+01	11.5521	54.234882	0.000568	5.675403	1.922879	0.000227
 292	2.8954e+01	11.5826	54.372144	0.000345	3.445780	1.167462	0.000138
 293	2.9054e+01	11.6307	54.606298	0.000588	5.878096	1.991553	0.000235
 294	2.9154e+01	11.6628	54.743561	0.000345	3.445780	1.167462	0.000138
 295	2.9253e+01	11.7077	54.925232	0.000456	4.560592	1.545170	0.000183
 296	2.9352e+01	11.7446	55.131126	0.000517	5.168671	1.751193	0.000207
 297	2.9452e+01	11.7863	55.292611	0.000405	4.053859	1.373485	0.000162
 298	2.9552e+01	11.8232	55.494468	0.000507	5.067324	1.716856	0.000203
 299	2.9651e+01	11.8633	55.676139	0.000456	4.560592	1.545170	0.000183
 300	2.9750e+01	11.9114	55.882033	0.000517	5.168671	1.751193	0.000207
 301	2.9850e+01	11.9419	56.023333	0.000355	3.547127	1.201799	0.000142
 302	2.9950e+01	11.9868	56.221152	0.000497	4.965978	1.682519	0.000199
 303	3.0049e+01	12.0301	56.431083	0.000527	5.270017	1.785530	0.000211
 304	3.0148e+01	12.0606	56.612754	0.000456	4.560592	1.545170	0.000183
 305	3.0248e+01	12.1007	56.754054	0.000355	3.547127	1.201799	0.000142
 306	3.0348e+01	12.1440	56.955911	0.000507	5.067324	1.716856	0.000203
 307	3.0447e+01	12.1938	57.137582	0.000456	4.560592	1.545170	0.000183
 308	3.0547e+01	12.2243	57.319253	0.000456	4.560592	1.545170	0.000183
 309	3.0646e+01	12.2612	57.513036	0.000486	4.864631	1.648182	0.000195
 310	3.0745e+01	12.3077	57.670484	0.000395	3.952513	1.339148	0.000158
 311	3.0845e+01	12.3494	57.868304	0.000497	4.965978	1.682519	0.000199
 312	3.0945e+01	12.3799	58.041901	0.000436	4.357899	1.476496	0.000174
 313	3.1044e+01	12.4232	58.211460	0.000426	4.256552	1.442159	0.000170
 314	3.1143e+01	12.4665	58.401206	0.000476	4.763285	1.613845	0.000191
 315	3.1243e+01	12.5114	58.594988	0.000486	4.864631	1.648182	0.000195
 316	3.1343e+01	12.5451	58.752436	0.000395	3.952513	1.339148	0.000158
 317	3.1442e+01	12.5820	58.954293	0.000507	5.067324	1.716856	0.000203
 318	3.1541e+01	12.6205	59.099630	0.000365	3.648473	1.236136	0.000146
 319	3.1641e+01	12.6734	59.305524	0.000517	5.168671	1.751193	0.000207
 320	3.1741e+01	12.7023	59.479121	0.000436	4.357899	1.476496	0.000174
 321	3.1840e+01	12.7392	59.668866	0.000476	4.763285	1.613845	0.000191
 322	3.1939e+01	12.7905	59.862649	0.000486	4.864631	1.648182	0.000195
 323	3.2039e+01	12.8242	60.028171	0.000416	4.155206	1.407822	0.000166
 324	3.2139e+01	12.8643	60.189657	0.000405	4.053859	1.373485	0.000162
 325	3.2238e+01	12.8900	60.363254	0.000436	4.357899	1.476496	0.000174
 326	3.2337e+01	12.9381	60.524739	0.000405	4.053859	1.373485	0.000162
 327	3.2437e+01	12.9766	60.686224	0.000405	4.053859	1.373485	0.000162
 328	3.2536e+01	13.0167	60.892118	0.000517	5.168671	1.751193	0.000207
 329	3.2636e+01	13.0601	61.073789	0.000456	4.560592	1.545170	0.000183
 330	3.2736e+01	13.1018	61.283721	0.000527	5.270017	1.785530	0.000211
 331	3.2835e+01	13.1371	61.429057	0.000365	3.648473	1.236136	0.000146
 332	3.2934e+01	13.1724	61.578431	0.000375	3.749820	1.270473	0.000150
 333	3.3034e+01	13.2189	61.788362	0.000527	5.270017	1.785530	0.000211
 334	3.3133e+01	13.2558	61.933699	0.000365	3.648473	1.236136	0.000146
 335	3.3233e+01	13.2975	62.167853	0.000588	5.878096	1.991553	0.000235
 336	3.3333e+01	13.3392	62.268782	0.000253	2.533662	0.858428	0.000101
 337	3.3432e+01	13.3793	62.462564	0.000486	4.864631	1.648182	0.000195
 338	3.3532e+01	13.4146	62.680569	0.000547	5.472710	1.854204	0.000219
 339	3.3631e+01	13.4435	62.850129	0.000426	4.256552	1.442159	0.000170
 340	3.3730e+01	13.4964	63.035837	0.000466	4.661938	1.579507	0.000187
 341	3.3830e+01	13.5413	63.225583	0.000476	4.763285	1.613845	0.000191
 342	3.3929e+01	13.5798	63.391105	0.000416	4.155206	1.407822	0.000166
 343	3.4029e+01	13.6119	63.528368	0.000345	3.445780	1.167462	0.000138
 344	3.4129e+01	13.6568	63.770596	0.000608	6.080789	2.060227	0.000243
 345	3.4228e+01	13.7018	63.895747	0.000314	3.141741	1.064451	0.000126
 346	3.4328e+01	13.7386	64.097604	0.000507	5.067324	1.716856	0.000203
 347	3.4427e+01	13.7836	64.238904	0.000355	3.547127	1.201799	0.000142
 348	3.4526e+01	13.8157	64.436724	0.000497	4.965978	1.682519	0.000199
 349	3.4626e+01	13.8493	64.590135	0.000385	3.851166	1.304810	0.000154
 350	3.4725e+01	13.8894	64.751620	0.000405	4.053859	1.373485	0.000162
 351	3.4825e+01	13.9424	64.965588	0.000537	5.371364	1.819867	0.000215
 352	3.4925e+01	13.9793	65.114962	0.000375	3.749820	1.270473	0.000150
 353	3.5024e+01	14.0194	65.349116	0.000588	5.878096	1.991553	0.000235
 354	3.5123e+01	14.0467	65.482342	0.000334	3.344434	1.133125	0.000134
 355	3.5223e+01	14.0980	65.668050	0.000466	4.661938	1.579507	0.000187
 356	3.5322e+01	14.1317	65.821461	0.000385	3.851166	1.304810	0.000154
 357	3.5422e+01	14.1734	65.982947	0.000405	4.053859	1.373485	0.000162
 358	3.5522e+01	14.2183	66.140395	0.000395	3.952513	1.339148	0.000158
 359	3.5621e+01	14.2536	66.350326	0.000527	5.270017	1.785530	0.000211
 360	3.5721e+01	14.2969	66.519886	0.000426	4.256552	1.442159	0.000170
 361	3.5820e+01	14.3322	66.693482	0.000436	4.357899	1.476496	0.000174
 362	3.5919e+01	14.3707	66.863042	0.000426	4.256552	1.442159	0.000170
 363	3.6019e+01	14.4124	67.060862	0.000497	4.965978	1.682519	0.000199
 364	3.6118e+01	14.4493	67.202161	0.000355	3.547127	1.201799	0.000142
 365	3.6218e+01	14.4991	67.359610	0.000395	3.952513	1.339148	0.000158
 366	3.6318e+01	14.5343	67.565504	0.000517	5.168671	1.751193	0.000207
 367	3.6417e+01	14.5729	67.731026	0.000416	4.155206	1.407822	0.000166
 368	3.6517e+01	14.6114	67.900586	0.000426	4.256552	1.442159	0.000170
 369	3.6616e+01	14.6531	68.058034	0.000395	3.952513	1.339148	0.000158
 370	3.6715e+01	14.7060	68.219520	0.000405	4.053859	1.373485	0.000162
 371	3.6815e+01	14.7317	68.389079	0.000426	4.256552	1.442159	0.000170
 372	3.6914e+01	14.7814	68.526342	0.000345	3.445780	1.167462	0.000138
 373	3.7014e+01	14.8167	68.716087	0.000476	4.763285	1.613845	0.000191
 374	3.7114e+01	14.8536	68.881610	0.000416	4.155206	1.407822	0.000166
 375	3.7213e+01	14.8969	69.035021	0.000385	3.851166	1.304810	0.000154
 376	3.7313e+01	14.9242	69.200544	0.000416	4.155206	1.407822	0.000166
 377	3.7412e+01	14.9723	69.390289	0.000476	4.763285	1.613845	0.000191
 378	3.7511e+01	15.0092	69.580034	0.000476	4.763285	1.613845	0.000191
 379	3.7611e+01	15.0525	69.701149	0.000304	3.040395	1.030114	0.000122
 380	3.7711e+01	15.0910	69.911080	0.000527	5.270017	1.785530	0.000211
 381	3.7810e+01	15.1311	70.036231	0.000314	3.141741	1.064451	0.000126
 382	3.7910e+01	15.1760	70.217902	0.000456	4.560592	1.545170	0.000183
 383	3.8009e+01	15.2097	70.375350	0.000395	3.952513	1.339148	0.000158
 384	3.8108e+01	15.2450	70.540873	0.000416	4.155206	1.407822	0.000166
 385	3.8208e+01	15.2883	70.694284	0.000385	3.851166	1.304810	0.000154
 386	3.8307e+01	15.3236	70.867881	0.000436	4.357899	1.476496	0.000174
 387	3.8407e+01	15.3846	71.037440	0.000426	4.256552	1.442159	0.000170
 388	3.8507e+01	15.4103	71.231223	0.000486	4.864631	1.648182	0.000195
 389	3.8606e+01	15.4504	71.384634	0.000385	3.851166	1.304810	0.000154
 390	3.8706e+01	15.4921	71.566305	0.000456	4.560592	1.545170	0.000183
 391	3.8805e+01	15.5322	71.707605	0.000355	3.547127	1.201799	0.000142
 392	3.8904e+01	15.5659	71.893313	0.000466	4.661938	1.579507	0.000187
 393	3.9004e+01	15.6092	72.083059	0.000476	4.763285	1.613845	0.000191
 394	3.9103e+01	15.6493	72.220321	0.000345	3.445780	1.167462	0.000138
 395	3.9203e+01	15.6814	72.401992	0.000456	4.560592	1.545170	0.000183
 396	3.9303e+01	15.7247	72.567515	0.000416	4.155206	1.407822	0.000166
 397	3.9402e+01	15.7680	72.737075	0.000426	4.256552	1.442159	0.000170
 398	3.9502e+01	15.8097	72.894523	0.000395	3.952513	1.339148	0.000158
 399	3.9601e+01	15.8562	73.051971	0.000395	3.952513	1.339148	0.000158
 400	3.9700e+01	15.8883	73.237679	0.000466	4.661938	1.579507	0.000187
 401	3.9800e+01	15.9316	73.415313	0.000446	4.459245	1.510833	0.000179
 402	3.9900e+01	15.9669	73.532390	0.000294	2.939048	0.995776	0.000118
 403	3.9999e+01	15.9990	73.730210	0.000497	4.965978	1.682519	0.000199
 404	4.0099e+01	16.0520	73.879584	0.000375	3.749820	1.270473	0.000150
 405	4.0198e+01	16.0808	74.061255	0.000456	4.560592	1.545170	0.000183
 406	4.0297e+01	16.1257	74.206592	0.000365	3.648473	1.236136	0.000146
 407	4.0397e+01	16.1707	74.380189	0.000436	4.357899	1.476496	0.000174
 408	4.0496e+01	16.2092	74.569934	0.000476	4.763285	1.613845	0.000191
 409	4.0596e+01	16.2461	74.711234	0.000355	3.547127	1.201799	0.000142
 410	4.0696e+01	16.2846	74.884831	0.000436	4.357899	1.476496	0.000174
 411	4.0795e+01	16.3343	75.014019	0.000324	3.243087	1.098788	0.000130
 412	4.0895e+01	16.3664	75.187616	0.000436	4.357899	1.476496	0.000174
 413	4.0994e+01	16.4113	75.353139	0.000416	4.155206	1.407822	0.000166
 414	4.1093e+01	16.4370	75.538847	0.000466	4.661938	1.579507	0.000187
 415	4.1193e+01	16.4739	75.668035	0.000324	3.243087	1.098788	0.000130
 416	4.1292e+01	16.5284	75.869892	0.000507	5.067324	1.716856	0.000203
 417	4.1392e+01	16.5717	76.027340	0.000395	3.952513	1.339148	0.000158
 418	4.1492e+01	16.6038	76.200937	0.000436	4.357899	1.476496	0.000174
 419	4.1591e+01	16.6455	76.334163	0.000334	3.344434	1.133125	0.000134
 420	4.1691e+01	16.6888	76.511797	0.000446	4.459245	1.510833	0.000179
 421	4.1790e+01	16.7273	76.665208	0.000385	3.851166	1.304810	0.000154
 422	4.1889e+01	16.7626	76.871102	0.000517	5.168671	1.751193	0.000207
 423	4.1989e+01	16.8075	76.963956	0.000233	2.330969	0.789754	0.000093
 424	4.2089e+01	16.8509	77.145627	0.000456	4.560592	1.545170	0.000183
 425	4.2188e+01	16.8829	77.311149	0.000416	4.155206	1.407822	0.000166
 426	4.2288e+01	16.9231	77.456486	0.000365	3.648473	1.236136	0.000146
 427	4.2387e+01	16.9648	77.658343	0.000507	5.067324	1.716856	0.000203
 428	4.2486e+01	17.0049	77.787531	0.000324	3.243087	1.098788	0.000130
 429	4.2586e+01	17.0450	77.977277	0.000476	4.763285	1.613845	0.000191
 430	4.2685e+01	17.0819	78.158948	0.000456	4.560592	1.545170	0.000183
 431	4.2785e+01	17.1220	78.300248	0.000355	3.547127	1.201799	0.000142
 432	4.2885e+01	17.1605	78.465770	0.000416	4.155206	1.407822	0.000166
 433	4.2984e+01	17.1974	78.611107	0.000365	3.648473	1.236136	0.000146
 434	4.3084e+01	17.2439	78.764518	0.000385	3.851166	1.304810	0.000154
 435	4.3183e+01	17.2808	78.913892	0.000375	3.749820	1.270473	0.000150
 436	4.3282e+01	17.3209	79.091526	0.000446	4.459245	1.510833	0.000179
 437	4.3382e+01	17.3706	79.232826	0.000355	3.547127	1.201799	0.000142
 438	4.3481e+01	17.4091	79.406423	0.000436	4.357899	1.476496	0.000174
 439	4.3581e+01	17.4492	79.567908	0.000405	4.053859	1.373485	0.000162
 440	4.3681e+01	17.4717	79.721319	0.000385	3.851166	1.304810	0.000154
 441	4.3780e+01	17.5262	79.894916	0.000436	4.357899	1.476496	0.000174
 442	4.3880e+01	17.5680	80.056402	0.000405	4.053859	1.373485	0.000162
 443	4.3979e+01	17.5968	80.189627	0.000334	3.344434	1.133125	0.000134
 444	4.4078e+01	17.6466	80.379373	0.000476	4.763285	1.613845	0.000191
 445	4.4178e+01	17.6770	80.524709	0.000365	3.648473	1.236136	0.000146
 446	4.4278e+01	17.7220	80.678121	0.000385	3.851166	1.304810	0.000154
 447	4.4377e+01	17.7460	80.839606	0.000405	4.053859	1.373485	0.000162
 448	4.4477e+01	17.8038	81.001091	0.000405	4.053859	1.373485	0.000162
 449	4.4576e+01	17.8391	81.182763	0.000456	4.560592	1.545170	0.000183
 450	4.4675e+01	17.8792	81.311951	0.000324	3.243087	1.098788	0.000130
 451	4.4775e+01	17.9193	81.497659	0.000466	4.661938	1.579507	0.000187
 452	4.4874e+01	17.9546	81.667219	0.000426	4.256552	1.442159	0.000170
 453	4.4974e+01	17.9995	81.816593	0.000375	3.749820	1.270473	0.000150
 454	4.5074e+01	18.0428	81.965967	0.000375	3.749820	1.270473	0.000150
 455	4.5173e+01	18.0829	82.175898	0.000527	5.270017	1.785530	0.000211
 456	4.5273e+01	18.1198	82.284901	0.000274	2.736355	0.927102	0.000110
 457	4.5372e+01	18.1615	82.474646	0.000476	4.763285	1.613845	0.000191
 458	4.5471e+01	18.2064	82.652280	0.000446	4.459245	1.510833	0.000179
 459	4.5571e+01	18.2321	82.769357	0.000294	2.939048	0.995776	0.000118
 460	4.5670e+01	18.2722	82.934879	0.000416	4.155206	1.407822	0.000166
 461	4.5770e+01	18.3235	83.108476	0.000436	4.357899	1.476496	0.000174
 462	4.5870e+01	18.3604	83.273999	0.000416	4.155206	1.407822	0.000166
 463	4.5969e+01	18.3941	83.431447	0.000395	3.952513	1.339148	0.000158
 464	4.6069e+01	18.4407	83.601007	0.000426	4.256552	1.442159	0.000170
 465	4.6168e+01	18.4776	83.770567	0.000426	4.256552	1.442159	0.000170
 466	4.6267e+01	18.5177	83.915903	0.000365	3.648473	1.236136	0.000146
 467	4.6367e+01	18.5562	84.089500	0.000436	4.357899	1.476496	0.000174
 468	4.6467e+01	18.5898	84.255023	0.000416	4.155206	1.407822	0.000166
 469	4.6566e+01	18.6316	84.388248	0.000334	3.344434	1.133125	0.000134
 470	4.6666e+01	18.6797	84.565882	0.000446	4.459245	1.510833	0.000179
 471	4.6765e+01	18.7150	84.711219	0.000365	3.648473	1.236136	0.000146
 472	4.6864e+01	18.7567	84.868667	0.000395	3.952513	1.339148	0.000158
 473	4.6964e+01	18.8032	85.030153	0.000405	4.053859	1.373485	0.000162
 474	4.7063e+01	18.8417	85.183564	0.000385	3.851166	1.304810	0.000154
 475	4.7163e+01	18.8722	85.336975	0.000385	3.851166	1.304810	0.000154
 476	4.7263e+01	18.9187	85.486349	0.000375	3.749820	1.270473	0.000150
 477	4.7362e+01	18.9620	85.659946	0.000436	4.357899	1.476496	0.000174
 478	4.7462e+01	19.0005	85.813357	0.000385	3.851166	1.304810	0.000154
 479	4.7561e+01	19.0342	85.995028	0.000456	4.560592	1.545170	0.000183
 480	4.7660e+01	19.0759	86.188811	0.000486	4.864631	1.648182	0.000195
 481	4.7760e+01	19.1289	86.305888	0.000294	2.939048	0.995776	0.000118
 482	4.7859e+01	19.1561	86.491596	0.000466	4.661938	1.579507	0.000187
 483	4.7959e+01	19.1979	86.612710	0.000304	3.040395	1.030114	0.000122
 484	4.8059e+01	19.2380	86.762084	0.000375	3.749820	1.270473	0.000150
 485	4.8158e+01	19.2797	86.903384	0.000355	3.547127	1.201799	0.000142
 486	4.8258e+01	19.3182	87.085055	0.000456	4.560592	1.545170	0.000183
 487	4.8357e+01	19.3583	87.218280	0.000334	3.344434	1.133125	0.000134
 488	4.8456e+01	19.3839	87.367655	0.000375	3.749820	1.270473	0.000150
 489	4.8556e+01	19.4369	87.541251	0.000436	4.357899	1.476496	0.000174
 490	4.8656e+01	19.4690	87.714848	0.000436	4.357899	1.476496	0.000174
 491	4.8755e+01	19.5219	87.852111	0.000345	3.445780	1.167462	0.000138
 492	4.8855e+01	19.5492	87.997448	0.000365	3.648473	1.236136	0.000146
 493	4.8954e+01	19.5893	88.162970	0.000416	4.155206	1.407822	0.000166
 494	4.9053e+01	19.6390	88.312344	0.000375	3.749820	1.270473	0.000150
 495	4.9153e+01	19.6759	88.494015	0.000456	4.560592	1.545170	0.000183
 496	4.9252e+01	19.7112	88.590907	0.000243	2.432316	0.824091	0.000097
 497	4.9352e+01	19.7625	88.780652	0.000476	4.763285	1.613845	0.000191
 498	4.9452e+01	19.7866	88.950212	0.000426	4.256552	1.442159	0.000170
 499	4.9551e+01	19.8315	89.067289	0.000294	2.939048	0.995776	0.000118
 500	4.9651e+01	19.8684	89.228774	0.000405	4.053859	1.373485	0.000162
 501	4.9750e+01	19.9069	89.382185	0.000385	3.851166	1.304810	0.000154
 502	4.9849e+01	19.9583	89.575968	0.000486	4.864631	1.648182	0.000195
 503	4.9949e+01	19.9919	89.713230	0.000345	3.445780	1.167462	0.000138
 504	5.0048e+01	19.9567	89.620376	0.000233	2.330969	0.789754	-0.000093
 505	5.0148e+01	19.9117	89.462928	0.000395	3.952513	1.339148	-0.000158
 506	5.0248e+01	19.8700	89.357962	0.000264	2.635009	0.892765	-0.000105
 507	5.0347e+01	19.8267	89.220700	0.000345	3.445780	1.167462	-0.000138
 508	5.0447e+01	19.7882	89.156106	0.000162	1.621544	0.549394	-0.000065
 509	5.0546e+01	19.7545	89.026917	0.000324	3.243087	1.098788	-0.000130
 510	5.0645e+01	19.7096	88.889655	0.000345	3.445780	1.167462	-0.000138
 511	5.0745e+01	19.6727	88.808912	0.000203	2.026930	0.686742	-0.000081
 512	5.0844e+01	19.6230	88.667612	0.000355	3.547127	1.201799	-0.000142
 513	5.0944e+01	19.6037	88.538424	0.000324	3.243087	1.098788	-0.000130
 514	5.1044e+01	19.5476	88.445570	0.000233	2.330969	0.789754	-0.000093
 515	5.1143e+01	19.5107	88.312344	0.000334	3.344434	1.133125	-0.000134
 516	5.1242e+01	19.4722	88.175082	0.000345	3.445780	1.167462	-0.000138
 517	5.1342e+01	19.4321	88.070116	0.000264	2.635009	0.892765	-0.000105
 518	5.1441e+01	19.3952	87.961113	0.000274	2.736355	0.927102	-0.000110
 519	5.1541e+01	19.3535	87.827888	0.000334	3.344434	1.133125	-0.000134
 520	5.1641e+01	19.3214	87.714848	0.000284	2.837702	0.961439	-0.000114
 521	5.1740e+01	19.2829	87.553363	0.000405	4.053859	1.373485	-0.000162
 522	5.1840e+01	19.2380	87.472620	0.000203	2.026930	0.686742	-0.000081
 523	5.1939e+01	19.1882	87.319209	0.000385	3.851166	1.304810	-0.000154
 524	5.2038e+01	19.1513	87.242503	0.000193	1.925583	0.652405	-0.000077
 525	5.2138e+01	19.1144	87.044684	0.000497	4.965978	1.682519	-0.000199
 526	5.2237e+01	19.0791	86.883198	0.000405	4.053859	1.373485	-0.000162
 527	5.2337e+01	19.0422	86.846864	0.000091	0.912118	0.309034	-0.000037
 528	5.2437e+01	18.9989	86.673267	0.000436	4.357899	1.476496	-0.000174
 529	5.2536e+01	18.9556	86.544079	0.000324	3.243087	1.098788	-0.000130
 530	5.2636e+01	18.9299	86.394705	0.000375	3.749820	1.270473	-0.000150
 531	5.2735e+01	18.8866	86.309925	0.000213	2.128276	0.721079	-0.000085
 532	5.2834e+01	18.8433	86.188811	0.000304	3.040395	1.030114	-0.000122
 533	5.2934e+01	18.7984	86.027325	0.000405	4.053859	1.373485	-0.000162
 534	5.3033e+01	18.7567	85.918323	0.000274	2.736355	0.927102	-0.000110
 535	5.3133e+01	18.7166	85.756837	0.000405	4.053859	1.373485	-0.000162
 536	5.3233e+01	18.6781	85.631686	0.000314	3.141741	1.064451	-0.000126
 537	5.3332e+01	18.6444	85.482312	0.000375	3.749820	1.270473	-0.000150
 538	5.3431e+01	18.5995	85.349087	0.000334	3.344434	1.133125	-0.000134
 539	5.3531e+01	18.5497	85.256233	0.000233	2.330969	0.789754	-0.000093
 540	5.3630e+01	18.5225	85.098784	0.000395	3.952513	1.339148	-0.000158
 541	5.3730e+01	18.4743	84.969596	0.000324	3.243087	1.098788	-0.000130
 542	5.3830e+01	18.4391	84.808110	0.000405	4.053859	1.373485	-0.000162
 543	5.3929e+01	18.4038	84.695071	0.000284	2.837702	0.961439	-0.000114
 544	5.4029e+01	18.3556	84.529548	0.000416	4.155206	1.407822	-0.000166
 545	5.4128e+01	18.3203	84.416508	0.000284	2.837702	0.961439	-0.000114
 546	5.4227e+01	18.2818	84.307506	0.000274	2.736355	0.927102	-0.000110
 547	5.4327e+01	18.2353	84.137946	0.000426	4.256552	1.442159	-0.000170
 548	5.4426e+01	18.2000	84.000683	0.000345	3.445780	1.167462	-0.000138
 549	5.4526e+01	18.1535	83.867458	0.000334	3.344434	1.133125	-0.000134
 550	5.4626e+01	18.1182	83.742307	0.000314	3.141741	1.064451	-0.000126
 551	5.4725e+01	18.0765	83.580821	0.000405	4.053859	1.373485	-0.000162
 552	5.4825e+01	18.0380	83.455670	0.000314	3.141741	1.064451	-0.000126
 553	5.4924e+01	18.0027	83.322444	0.000334	3.344434	1.133125	-0.000134
 554	5.5023e+01	17.9626	83.164996	0.000395	3.952513	1.339148	-0.000158
 555	5.5123e+01	17.9273	83.043882	0.000304	3.040395	1.030114	-0.000122
 556	5.5222e+01	17.8824	82.934879	0.000274	2.736355	0.927102	-0.000110
 557	5.5322e+01	17.8439	82.749171	0.000466	4.661938	1.579507	-0.000187
 558	5.5422e+01	17.7990	82.595760	0.000385	3.851166	1.304810	-0.000154
 559	5.5521e+01	17.7669	82.474646	0.000304	3.040395	1.030114	-0.000122
 560	5.5620e+01	17.7252	82.345458	0.000324	3.243087	1.098788	-0.000130
 561	5.5720e+01	17.6770	82.155712	0.000476	4.763285	1.613845	-0.000191
 562	5.5819e+01	17.6466	82.070932	0.000213	2.128276	0.721079	-0.000085
 563	5.5919e+01	17.5984	81.925596	0.000365	3.648473	1.236136	-0.000146
 564	5.6019e+01	17.5631	81.784296	0.000355	3.547127	1.201799	-0.000142
 565	5.6118e+01	17.5182	81.663182	0.000304	3.040395	1.030114	-0.000122
 566	5.6218e+01	17.4797	81.493622	0.000426	4.256552	1.442159	-0.000170
 567	5.6317e+01	17.4476	81.368471	0.000314	3.141741	1.064451	-0.000126
 568	5.6416e+01	17.4011	81.223134	0.000365	3.648473	1.236136	-0.000146
 569	5.6516e+01	17.3610	81.065686	0.000395	3.952513	1.339148	-0.000158
 570	5.6615e+01	17.3305	80.928423	0.000345	3.445780	1.167462	-0.000138
 571	5.6715e+01	17.2808	80.823457	0.000264	2.635009	0.892765	-0.000105
 572	5.6815e+01	17.2471	80.645824	0.000446	4.459245	1.510833	-0.000179
 573	5.6914e+01	17.2006	80.532784	0.000284	2.837702	0.961439	-0.000114
 574	5.7014e+01	17.1669	80.403595	0.000324	3.243087	1.098788	-0.000130
 575	5.7113e+01	17.1220	80.213850	0.000476	4.763285	1.613845	-0.000191
 576	5.7212e+01	17.0883	80.129070	0.000213	2.128276	0.721079	-0.000085
 577	5.7312e+01	17.0498	79.959510	0.000426	4.256552	1.442159	-0.000170
 578	5.7411e+01	17.0081	79.822248	0.000345	3.445780	1.167462	-0.000138
 579	5.7511e+01	16.9616	79.689022	0.000334	3.344434	1.133125	-0.000134
 580	5.7611e+01	16.9214	79.531574	0.000395	3.952513	1.339148	-0.000158
 581	5.7710e+01	16.8797	79.382200	0.000375	3.749820	1.270473	-0.000150
 582	5.7809e+01	16.8493	79.248975	0.000334	3.344434	1.133125	-0.000134
 583	5.7909e+01	16.8043	79.119786	0.000324	3.243087	1.098788	-0.000130
 584	5.8008e+01	16.7610	78.982524	0.000345	3.445780	1.167462	-0.000138
 585	5.8108e+01	16.7273	78.804890	0.000446	4.459245	1.510833	-0.000179
 586	5.8208e+01	16.6856	78.675701	0.000324	3.243087	1.098788	-0.000130
 587	5.8307e+01	16.6471	78.562661	0.000284	2.837702	0.961439	-0.000114
 588	5.8407e+01	16.6022	78.376953	0.000466	4.661938	1.579507	-0.000187
 589	5.8506e+01	16.5557	78.308322	0.000172	1.722890	0.583731	-0.000069
 590	5.8605e+01	16.5236	78.106465	0.000507	5.067324	1.716856	-0.000203
 591	5.8705e+01	16.4787	77.965165	0.000355	3.547127	1.201799	-0.000142
 592	5.8804e+01	16.4530	77.799643	0.000416	4.155206	1.407822	-0.000166
 593	5.8904e+01	16.3953	77.658343	0.000355	3.547127	1.201799	-0.000142
 594	5.9004e+01	16.3712	77.508969	0.000375	3.749820	1.270473	-0.000150
 595	5.9103e+01	16.3183	77.391892	0.000294	2.939048	0.995776	-0.000118
 596	5.9203e+01	16.2814	77.274815	0.000294	2.939048	0.995776	-0.000118
 597	5.9302e+01	16.2413	77.109293	0.000416	4.155206	1.407822	-0.000166
 598	5.9401e+01	16.2060	76.959919	0.000375	3.749820	1.270473	-0.000150
 599	5.9501e+01	16.1642	76.822656	0.000345	3.445780	1.167462	-0.000138
 600	5.9600e+01	16.1257	76.665208	0.000395	3.952513	1.339148	-0.000158
 601	5.9700e+01	16.0792	76.499685	0.000416	4.155206	1.407822	-0.000166
 602	5.9800e+01	16.0471	76.330125	0.000426	4.256552	1.442159	-0.000170
 603	5.9899e+01	16.0118	76.221123	0.000274	2.736355	0.927102	-0.000110
 604	5.9998e+01	15.9621	76.031377	0.000476	4.763285	1.613845	-0.000191
 605	6.0098e+01	15.9332	75.926412	0.000264	2.635009	0.892765	-0.000105
 606	6.0197e+01	15.8835	75.789149	0.000345	3.445780	1.167462	-0.000138
 607	6.0297e+01	15.8498	75.607478	0.000456	4.560592	1.545170	-0.000183
 608	6.0397e+01	15.8081	75.458104	0.000375	3.749820	1.270473	-0.000150
 609	6.0496e+01	15.7728	75.365250	0.000233	2.330969	0.789754	-0.000093
 610	6.0596e+01	15.7343	75.195690	0.000426	4.256552	1.442159	-0.000170
 611	6.0695e+01	15.6926	75.026131	0.000426	4.256552	1.442159	-0.000170
 612	6.0794e+01	15.6557	74.913091	0.000284	2.837702	0.961439	-0.000114
 613	6.0894e+01	15.6076	74.715271	0.000497	4.965978	1.682519	-0.000199
 614	6.0993e+01	15.5787	74.573971	0.000355	3.547127	1.201799	-0.000142
 615	6.1093e+01	15.5386	74.436709	0.000345	3.445780	1.167462	-0.000138
 616	6.1193e+01	15.4889	74.299446	0.000345	3.445780	1.167462	-0.000138
 617	6.1292e+01	15.4456	74.170258	0.000324	3.243087	1.098788	-0.000130
 618	6.1392e+01	15.4119	73.976475	0.000486	4.864631	1.648182	-0.000195
 619	6.1491e+01	15.3718	73.867473	0.000274	2.736355	0.927102	-0.000110
 620	6.1590e+01	15.3365	73.710024	0.000395	3.952513	1.339148	-0.000158
 621	6.1690e+01	15.2867	73.564687	0.000365	3.648473	1.236136	-0.000146
 622	6.1789e+01	15.2450	73.427425	0.000345	3.445780	1.167462	-0.000138
 623	6.1889e+01	15.2081	73.310348	0.000294	2.939048	0.995776	-0.000118
 624	6.1989e+01	15.1712	73.136751	0.000436	4.357899	1.476496	-0.000174
 625	6.2088e+01	15.1279	72.995451	0.000355	3.547127	1.201799	-0.000142
 626	6.2188e+01	15.0878	72.801669	0.000486	4.864631	1.648182	-0.000195
 627	6.2287e+01	15.0557	72.676518	0.000314	3.141741	1.064451	-0.000126
 628	6.2386e+01	15.0076	72.543292	0.000334	3.344434	1.133125	-0.000134
 629	6.2486e+01	14.9643	72.414104	0.000324	3.243087	1.098788	-0.000130
 630	6.2586e+01	14.9274	72.248581	0.000416	4.155206	1.407822	-0.000166
 631	6.2685e+01	14.8889	72.099207	0.000375	3.749820	1.270473	-0.000150
 632	6.2785e+01	14.8440	71.974056	0.000314	3.141741	1.064451	-0.000126
 633	6.2884e+01	14.8103	71.792385	0.000456	4.560592	1.545170	-0.000183
 634	6.2983e+01	14.7670	71.638974	0.000385	3.851166	1.304810	-0.000154
 635	6.3083e+01	14.7333	71.509785	0.000324	3.243087	1.098788	-0.000130
 636	6.3182e+01	14.6996	71.380597	0.000324	3.243087	1.098788	-0.000130
 637	6.3282e+01	14.6418	71.219112	0.000405	4.053859	1.373485	-0.000162
 638	6.3382e+01	14.6097	71.089923	0.000324	3.243087	1.098788	-0.000130
 639	6.3481e+01	14.5729	70.920364	0.000426	4.256552	1.442159	-0.000170
 640	6.3581e+01	14.5311	70.791175	0.000324	3.243087	1.098788	-0.000130
 641	6.3680e+01	14.4894	70.633727	0.000395	3.952513	1.339148	-0.000158
 642	6.3779e+01	14.4573	70.443981	0.000476	4.763285	1.613845	-0.000191
 643	6.3879e+01	14.4124	70.302682	0.000355	3.547127	1.201799	-0.000142
 644	6.3978e+01	14.3707	70.149271	0.000385	3.851166	1.304810	-0.000154
 645	6.4078e+01	14.3258	70.007971	0.000355	3.547127	1.201799	-0.000142
 646	6.4177e+01	14.3049	69.878782	0.000324	3.243087	1.098788	-0.000130
 647	6.4277e+01	14.2552	69.693074	0.000466	4.661938	1.579507	-0.000187
 648	6.4376e+01	14.2055	69.531589	0.000405	4.053859	1.373485	-0.000162
 649	6.4476e+01	14.1638	69.382215	0.000375	3.749820	1.270473	-0.000150
 650	6.4576e+01	14.1317	69.212655	0.000426	4.256552	1.442159	-0.000170
 651	6.4675e+01	14.0948	69.087504	0.000314	3.141741	1.064451	-0.000126
 652	6.4775e+01	14.0451	68.934093	0.000385	3.851166	1.304810	-0.000154
 653	6.4874e+01	14.0178	68.756459	0.000446	4.459245	1.510833	-0.000179
 654	6.4974e+01	13.9729	68.631308	0.000314	3.141741	1.064451	-0.000126
 655	6.5073e+01	13.9328	68.477896	0.000385	3.851166	1.304810	-0.000154
 656	6.5172e+01	13.9055	68.336597	0.000355	3.547127	1.201799	-0.000142
 657	6.5272e+01	13.8542	68.175111	0.000405	4.053859	1.373485	-0.000162
 658	6.5371e+01	13.8157	68.013626	0.000405	4.053859	1.373485	-0.000162
 659	6.5471e+01	13.7739	67.892512	0.000304	3.040395	1.030114	-0.000122
 660	6.5570e+01	13.7386	67.706803	0.000466	4.661938	1.579507	-0.000187
 661	6.5670e+01	13.6921	67.537244	0.000426	4.256552	1.442159	-0.000170
 662	6.5769e+01	13.6568	67.408055	0.000324	3.243087	1.098788	-0.000130
 663	6.5869e+01	13.6135	67.242533	0.000416	4.155206	1.407822	-0.000166
 664	6.5969e+01	13.5734	67.109307	0.000334	3.344434	1.133125	-0.000134
 665	6.6068e+01	13.5333	66.947822	0.000405	4.053859	1.373485	-0.000162
 666	6.6168e+01	13.4900	66.745965	0.000507	5.067324	1.716856	-0.000203
 667	6.6267e+01	13.4579	66.624851	0.000304	3.040395	1.030114	-0.000122
 668	6.6367e+01	13.4098	66.447217	0.000446	4.459245	1.510833	-0.000179
 669	6.6466e+01	13.3793	66.301880	0.000365	3.648473	1.236136	-0.000146
 670	6.6566e+01	13.3376	66.128283	0.000436	4.357899	1.476496	-0.000174
 671	6.6665e+01	13.3023	65.970835	0.000395	3.952513	1.339148	-0.000158
 672	6.6764e+01	13.2526	65.837610	0.000334	3.344434	1.133125	-0.000134
 673	6.6864e+01	13.2189	65.684198	0.000385	3.851166	1.304810	-0.000154
 674	6.6963e+01	13.1820	65.538862	0.000365	3.648473	1.236136	-0.000146
 675	6.7063e+01	13.1419	65.365265	0.000436	4.357899	1.476496	-0.000174
 676	6.7162e+01	13.1034	65.223965	0.000355	3.547127	1.201799	-0.000142
 677	6.7262e+01	13.0536	65.094777	0.000324	3.243087	1.098788	-0.000130
 678	6.7362e+01	13.0264	64.892920	0.000507	5.067324	1.716856	-0.000203
 679	6.7461e+01	12.9798	64.743546	0.000375	3.749820	1.270473	-0.000150
 680	6.7561e+01	12.9381	64.590135	0.000385	3.851166	1.304810	-0.000154
 681	6.7660e+01	12.8980	64.412501	0.000446	4.459245	1.510833	-0.000179
 682	6.7760e+01	12.8595	64.307535	0.000264	2.635009	0.892765	-0.000105
 683	6.7859e+01	12.8194	64.137975	0.000426	4.256552	1.442159	-0.000170
 684	6.7959e+01	12.7905	63.980527	0.000395	3.952513	1.339148	-0.000158
 685	6.8058e+01	12.7392	63.794819	0.000466	4.661938	1.579507	-0.000187
 686	6.8157e+01	12.7055	63.641408	0.000385	3.851166	1.304810	-0.000154
 687	6.8257e+01	12.6510	63.467811	0.000436	4.357899	1.476496	-0.000174
 688	6.8356e+01	12.6253	63.294214	0.000436	4.357899	1.476496	-0.000174
 689	6.8456e+01	12.5788	63.185211	0.000274	2.736355	0.927102	-0.000110
 690	6.8555e+01	12.5419	63.027763	0.000395	3.952513	1.339148	-0.000158
 691	6.8655e+01	12.5114	62.838018	0.000476	4.763285	1.613845	-0.000191
 692	6.8754e+01	12.4713	62.704792	0.000334	3.344434	1.133125	-0.000134
 693	6.8854e+01	12.4216	62.502935	0.000507	5.067324	1.716856	-0.000203
 694	6.8954e+01	12.3831	62.337413	0.000416	4.155206	1.407822	-0.000166
 695	6.9053e+01	12.3414	62.212262	0.000314	3.141741	1.064451	-0.000126
 696	6.9153e+01	12.2964	62.050776	0.000405	4.053859	1.373485	-0.000162
 697	6.9252e+01	12.2692	61.885254	0.000416	4.155206	1.407822	-0.000166
 698	6.9352e+01	12.2210	61.687434	0.000497	4.965978	1.682519	-0.000199
 699	6.9451e+01	12.1858	61.534023	0.000385	3.851166	1.304810	-0.000154
 700	6.9550e+01	12.1424	61.384649	0.000375	3.749820	1.270473	-0.000150
 701	6.9650e+01	12.1023	61.198941	0.000466	4.661938	1.579507	-0.000187
 702	6.9749e+01	12.0686	61.098012	0.000253	2.533662	0.858428	-0.000101
 703	6.9849e+01	12.0269	60.912304	0.000466	4.661938	1.579507	-0.000187
 704	6.9948e+01	11.9884	60.734670	0.000446	4.459245	1.510833	-0.000179
 705	7.0048e+01	11.9419	60.573185	0.000405	4.053859	1.373485	-0.000162
 706	7.0147e+01	11.9114	60.395551	0.000446	4.459245	1.510833	-0.000179
 707	7.0247e+01	11.8617	60.217917	0.000446	4.459245	1.510833	-0.000179
 708	7.0347e+01	11.8216	60.044320	0.000436	4.357899	1.476496	-0.000174
 709	7.0446e+01	11.7767	59.907057	0.000345	3.445780	1.167462	-0.000138
 710	7.0546e+01	11.7526	59.705200	0.000507	5.067324	1.716856	-0.000203
 711	7.0645e+01	11.6997	59.543715	0.000405	4.053859	1.373485	-0.000162
 712	7.0745e+01	11.6660	59.382230	0.000405	4.053859	1.373485	-0.000162
 713	7.0844e+01	11.6323	59.232856	0.000375	3.749820	1.270473	-0.000150
 714	7.0944e+01	11.5842	59.039073	0.000486	4.864631	1.648182	-0.000195
 715	7.1043e+01	11.5457	58.909885	0.000324	3.243087	1.098788	-0.000130
 716	7.1142e+01	11.5056	58.663619	0.000618	6.182136	2.094564	-0.000248
 717	7.1242e+01	11.4655	58.566728	0.000243	2.432316	0.824091	-0.000097
 718	7.1341e+01	11.4253	58.381020	0.000466	4.661938	1.579507	-0.000187
 719	7.1441e+01	11.3836	58.207423	0.000436	4.357899	1.476496	-0.000174
 720	7.1540e+01	11.3483	58.049975	0.000395	3.952513	1.339148	-0.000158
 721	7.1640e+01	11.3098	57.888489	0.000405	4.053859	1.373485	-0.000162
 722	7.1740e+01	11.2713	57.694707	0.000486	4.864631	1.648182	-0.000195
 723	7.1839e+01	11.2152	57.541296	0.000385	3.851166	1.304810	-0.000154
 724	7.1939e+01	11.1895	57.351550	0.000476	4.763285	1.613845	-0.000191
 725	7.2038e+01	11.1446	57.198139	0.000385	3.851166	1.304810	-0.000154
 726	7.2138e+01	11.1045	57.024542	0.000436	4.357899	1.476496	-0.000174
 727	7.2237e+01	11.0692	56.842871	0.000456	4.560592	1.545170	-0.000183
 728	7.2337e+01	11.0243	56.693497	0.000375	3.749820	1.270473	-0.000150
 729	7.2436e+01	10.9842	56.523937	0.000426	4.256552	1.442159	-0.000170
 730	7.2535e+01	10.9553	56.386675	0.000345	3.445780	1.167462	-0.000138
 731	7.2635e+01	10.9120	56.180781	0.000517	5.168671	1.751193	-0.000207
 732	7.2734e+01	10.8687	56.015258	0.000416	4.155206	1.407822	-0.000166
 733	7.2834e+01	10.8270	55.829550	0.000466	4.661938	1.579507	-0.000187
 734	7.2933e+01	10.7917	55.696325	0.000334	3.344434	1.133125	-0.000134
 735	7.3033e+01	10.7516	55.490431	0.000517	5.168671	1.751193	-0.000207
 736	7.3132e+01	10.7083	55.316834	0.000436	4.357899	1.476496	-0.000174
 737	7.3232e+01	10.6778	55.139200	0.000446	4.459245	1.510833	-0.000179
 738	7.3332e+01	10.6329	54.977714	0.000405	4.053859	1.373485	-0.000162
 739	7.3431e+01	10.5879	54.828340	0.000375	3.749820	1.270473	-0.000150
 740	7.3531e+01	10.5591	54.642632	0.000466	4.661938	1.579507	-0.000187
 741	7.3630e+01	10.5109	54.493258	0.000375	3.749820	1.270473	-0.000150
 742	7.3730e+01	10.4724	54.287364	0.000517	5.168671	1.751193	-0.000207
 743	7.3829e+01	10.4291	54.158176	0.000324	3.243087	1.098788	-0.000130
 744	7.3928e+01	10.3922	53.976505	0.000456	4.560592	1.545170	-0.000183
 745	7.4028e+01	10.3457	53.782722	0.000486	4.864631	1.648182	-0.000195
 746	7.4127e+01	10.3152	53.597014	0.000466	4.661938	1.579507	-0.000187
 747	7.4227e+01	10.2735	53.459751	0.000345	3.445780	1.167462	-0.000138
 748	7.4326e+01	10.2350	53.294229	0.000416	4.155206	1.407822	-0.000166
 749	7.4426e+01	10.1917	53.096409	0.000497	4.965978	1.682519	-0.000199
 750	7.4525e+01	10.1452	52.914738	0.000456	4.560592	1.545170	-0.000183
 751	7.4625e+01	10.1163	52.741141	0.000436	4.357899	1.476496	-0.000174
 752	7.4725e+01	10.0666	52.587730	0.000385	3.851166	1.304810	-0.000154
 753	7.4824e+01	10.0297	52.397985	0.000476	4.763285	1.613845	-0.000191
 754	7.4924e+01	9.9992	52.228425	0.000426	4.256552	1.442159	-0.000170
 755	7.5023e+01	9.9511	52.026568	0.000507	5.067324	1.716856	-0.000203
 756	7.5123e+01	9.9110	51.889306	0.000345	3.445780	1.167462	-0.000138
 757	7.5222e+01	9.8724	51.735894	0.000385	3.851166	1.304810	-0.000154
 758	7.5322e+01	9.8356	51.538075	0.000497	4.965978	1.682519	-0.000199
 759	7.5421e+01	9.7874	51.324107	0.000537	5.371364	1.819867	-0.000215
 760	7.5520e+01	9.7521	51.202993	0.000304	3.040395	1.030114	-0.000122
 761	7.5620e+01	9.7184	51.017284	0.000466	4.661938	1.579507	-0.000187
 762	7.5719e+01	9.6767	50.807353	0.000527	5.270017	1.785530	-0.000211
 763	7.5819e+01	9.6334	50.653942	0.000385	3.851166	1.304810	-0.000154
 764	7.5918e+01	9.5901	50.480345	0.000436	4.357899	1.476496	-0.000174
 765	7.6018e+01	9.5596	50.270414	0.000527	5.270017	1.785530	-0.000211
 766	7.6118e+01	9.5083	50.092780	0.000446	4.459245	1.510833	-0.000179
 767	7.6217e+01	9.4762	49.927258	0.000416	4.155206	1.407822	-0.000166
 768	7.6317e+01	9.4409	49.749624	0.000446	4.459245	1.510833	-0.000179
 769	7.6416e+01	9.3880	49.580064	0.000426	4.256552	1.442159	-0.000170
 770	7.6516e+01	9.3623	49.394356	0.000466	4.661938	1.579507	-0.000187
 771	7.6615e+01	9.3126	49.212685	0.000456	4.560592	1.545170	-0.000183
 772	7.6715e+01	9.2757	49.071385	0.000355	3.547127	1.201799	-0.000142
 773	7.6814e+01	9.2372	48.889714	0.000456	4.560592	1.545170	-0.000183
 774	7.6913e+01	9.2003	48.691894	0.000497	4.965978	1.682519	-0.000199
 775	7.7013e+01	9.1473	48.506186	0.000466	4.661938	1.579507	-0.000187
 776	7.7112e+01	9.1185	48.316441	0.000476	4.763285	1.613845	-0.000191
 777	7.7212e+01	9.0767	48.163029	0.000385	3.851166	1.304810	-0.000154
 778	7.7311e+01	9.0382	48.001544	0.000405	4.053859	1.373485	-0.000162
 779	7.7411e+01	8.9917	47.823910	0.000446	4.459245	1.510833	-0.000179
 780	7.7510e+01	8.9532	47.585719	0.000598	5.979443	2.025890	-0.000239
 781	7.7610e+01	8.9099	47.448456	0.000345	3.445780	1.167462	-0.000138
 782	7.7710e+01	8.8746	47.295045	0.000385	3.851166	1.304810	-0.000154
 783	7.7809e+01	8.8361	47.101263	0.000486	4.864631	1.648182	-0.000195
 784	7.7909e+01	8.7944	46.927666	0.000436	4.357899	1.476496	-0.000174
 785	7.8008e+01	8.7591	46.737920	0.000476	4.763285	1.613845	-0.000191
 786	7.8108e+01	8.7270	46.503767	0.000588	5.878096	1.991553	-0.000235
 787	7.8207e+01	8.6773	46.362467	0.000355	3.547127	1.201799	-0.000142
 788	7.8306e+01	8.6324	46.172721	0.000476	4.763285	1.613845	-0.000191
 789	7.8406e+01	8.5907	46.035459	0.000345	3.445780	1.167462	-0.000138
 790	7.8505e+01	8.5586	45.853788	0.000456	4.560592	1.545170	-0.000183
 791	7.8605e+01	8.5169	45.647894	0.000517	5.168671	1.751193	-0.000207
 792	7.8704e+01	8.4752	45.494483	0.000385	3.851166	1.304810	-0.000154
 793	7.8804e+01	8.4286	45.292626	0.000507	5.067324	1.716856	-0.000203
 794	7.8903e+01	8.4094	45.131140	0.000405	4.053859	1.373485	-0.000162
 795	7.9003e+01	8.3597	44.937358	0.000486	4.864631	1.648182	-0.000195
 796	7.9103e+01	8.3131	44.796058	0.000355	3.547127	1.201799	-0.000142
 797	7.9202e+01	8.2746	44.590164	0.000517	5.168671	1.751193	-0.000207
 798	7.9302e+01	8.2409	44.412530	0.000446	4.459245	1.510833	-0.000179
 799	7.9401e+01	8.1960	44.230859	0.000456	4.560592	1.545170	-0.000183
 800	7.9501e+01	8.1623	44.029002	0.000507	5.067324	1.716856	-0.000203
 801	7.9600e+01	8.1126	43.839257	0.000476	4.763285	1.613845	-0.000191
 802	7.9700e+01	8.0837	43.706031	0.000334	3.344434	1.133125	-0.000134
 803	7.9799e+01	8.0452	43.516286	0.000476	4.763285	1.613845	-0.000191
 804	7.9898e+01	7.9875	43.338652	0.000446	4.459245	1.510833	-0.000179
 805	7.9998e+01	7.9586	43.144870	0.000486	4.864631	1.648182	-0.000195
 806	8.0097e+01	7.9281	42.983384	0.000405	4.053859	1.373485	-0.000162
 807	8.0197e+01	7.8864	42.821899	0.000405	4.053859	1.373485	-0.000162
 808	8.0296e+01	7.8447	42.567559	0.000638	6.384829	2.163238	-0.000256
 809	8.0396e+01	7.7998	42.422222	0.000365	3.648473	1.236136	-0.000146
 810	8.0496e+01	7.7613	42.244588	0.000446	4.459245	1.510833	-0.000179
 811	8.0595e+01	7.7180	42.018509	0.000568	5.675403	1.922879	-0.000227
 812	8.0695e+01	7.6811	41.844912	0.000436	4.357899	1.476496	-0.000174
 813	8.0794e+01	7.6329	41.695538	0.000375	3.749820	1.270473	-0.000150
 814	8.0894e+01	7.6073	41.497718	0.000497	4.965978	1.682519	-0.000199
 815	8.0993e+01	7.5607	41.291824	0.000517	5.168671	1.751193	-0.000207
 816	8.1093e+01	7.5174	41.122265	0.000426	4.256552	1.442159	-0.000170
 817	8.1192e+01	7.4821	40.920408	0.000507	5.067324	1.716856	-0.000203
 818	8.1291e+01	7.4468	40.742774	0.000446	4.459245	1.510833	-0.000179
 819	8.1391e+01	7.4051	40.573214	0.000426	4.256552	1.442159	-0.000170
 820	8.1490e+01	7.3634	40.371357	0.000507	5.067324	1.716856	-0.000203
 821	8.1590e+01	7.3105	40.189686	0.000456	4.560592	1.545170	-0.000183
 822	8.1689e+01	7.2848	40.020127	0.000426	4.256552	1.442159	-0.000170
 823	8.1789e+01	7.2447	39.822307	0.000497	4.965978	1.682519	-0.000199
 824	8.1888e+01	7.2014	39.668896	0.000385	3.851166	1.304810	-0.000154
 825	8.1988e+01	7.1645	39.442816	0.000568	5.675403	1.922879	-0.000227
 826	8.2088e+01	7.1260	39.277294	0.000416	4.155206	1.407822	-0.000166
 827	8.2187e+01	7.0779	39.067363	0.000527	5.270017	1.785530	-0.000211
 828	8.2287e+01	7.0394	38.865506	0.000507	5.067324	1.716856	-0.000203
 829	8.2386e+01	7.0089	38.720169	0.000365	3.648473	1.236136	-0.000146
 830	8.2486e+01	6.9656	38.498126	0.000557	5.574057	1.888542	-0.000223
 831	8.2585e+01	6.9175	38.304344	0.000486	4.864631	1.648182	-0.000195
 832	8.2684e+01	6.8886	38.110561	0.000486	4.864631	1.648182	-0.000195
 833	8.2784e+01	6.8453	37.973299	0.000345	3.445780	1.167462	-0.000138
 834	8.2883e+01	6.8052	37.694736	0.000699	6.992907	2.369261	-0.000280
 835	8.2983e+01	6.7554	37.581697	0.000284	2.837702	0.961439	-0.000114
 836	8.3082e+01	6.7201	37.375803	0.000517	5.168671	1.751193	-0.000207
 837	8.3182e+01	6.6913	37.161834	0.000537	5.371364	1.819867	-0.000215
 838	8.3281e+01	6.6528	37.008423	0.000385	3.851166	1.304810	-0.000154
 839	8.3381e+01	6.6126	36.810604	0.000497	4.965978	1.682519	-0.000199
 840	8.3481e+01	6.5741	36.608747	0.000507	5.067324	1.716856	-0.000203
 841	8.3580e+01	6.5244	36.423039	0.000466	4.661938	1.579507	-0.000187
 842	8.3680e+01	6.4875	36.217145	0.000517	5.168671	1.751193	-0.000207
 843	8.3779e+01	6.4490	36.047585	0.000426	4.256552	1.442159	-0.000170
 844	8.3879e+01	6.4089	35.857840	0.000476	4.763285	1.613845	-0.000191
 845	8.3978e+01	6.3688	35.668094	0.000476	4.763285	1.613845	-0.000191
 846	8.4078e+01	6.3303	35.506609	0.000405	4.053859	1.373485	-0.000162
 847	8.4177e+01	6.2918	35.292641	0.000537	5.371364	1.819867	-0.000215
 848	8.4276e+01	6.2501	35.066561	0.000568	5.675403	1.922879	-0.000227
 849	8.4376e+01	6.2100	34.905076	0.000405	4.053859	1.373485	-0.000162
 850	8.4475e+01	6.1683	34.727442	0.000446	4.459245	1.510833	-0.000179
 851	8.4575e+01	6.1298	34.541733	0.000466	4.661938	1.579507	-0.000187
 852	8.4674e+01	6.0881	34.343914	0.000497	4.965978	1.682519	-0.000199
 853	8.4774e+01	6.0528	34.142057	0.000507	5.067324	1.716856	-0.000203
 854	8.4874e+01	6.0095	33.944237	0.000497	4.965978	1.682519	-0.000199
 855	8.4973e+01	5.9613	33.754492	0.000476	4.763285	1.613845	-0.000191
 856	8.5073e+01	5.9292	33.564747	0.000476	4.763285	1.613845	-0.000191
 857	8.5172e+01	5.8827	33.403261	0.000405	4.053859	1.373485	-0.000162
 858	8.5272e+01	5.8490	33.156996	0.000618	6.182136	2.094564	-0.000248
 859	8.5371e+01	5.7993	32.999548	0.000395	3.952513	1.339148	-0.000158
 860	8.5471e+01	5.7656	32.769431	0.000578	5.776750	1.957216	-0.000231
 861	8.5570e+01	5.7271	32.607945	0.000405	4.053859	1.373485	-0.000162
 862	8.5669e+01	5.6854	32.406089	0.000507	5.067324	1.716856	-0.000203
 863	8.5769e+01	5.6549	32.212306	0.000486	4.864631	1.648182	-0.000195
 864	8.5868e+01	5.6068	32.026598	0.000466	4.661938	1.579507	-0.000187
 865	8.5968e+01	5.5699	31.824741	0.000507	5.067324	1.716856	-0.000203
 866	8.6067e+01	5.5218	31.606736	0.000547	5.472710	1.854204	-0.000219
 867	8.6167e+01	5.4897	31.372582	0.000588	5.878096	1.991553	-0.000235
 868	8.6266e+01	5.4448	31.235319	0.000345	3.445780	1.167462	-0.000138
 869	8.6366e+01	5.4015	31.033462	0.000507	5.067324	1.716856	-0.000203
 870	8.6466e+01	5.3742	30.847754	0.000466	4.661938	1.579507	-0.000187
 871	8.6565e+01	5.3325	30.609563	0.000598	5.979443	2.025890	-0.000239
 872	8.6665e+01	5.2892	30.440003	0.000426	4.256552	1.442159	-0.000170
 873	8.6764e+01	5.2523	30.242184	0.000497	4.965978	1.682519	-0.000199
 874	8.6864e+01	5.2089	29.979770	0.000659	6.587521	2.231913	-0.000264
 875	8.6963e+01	5.1640	29.822322	0.000395	3.952513	1.339148	-0.000158
 876	8.7063e+01	5.1351	29.624502	0.000497	4.965978	1.682519	-0.000199
 877	8.7162e+01	5.1079	29.410534	0.000537	5.371364	1.819867	-0.000215
 878	8.7261e+01	5.0517	29.208677	0.000507	5.067324	1.716856	-0.000203
 879	8.7361e+01	5.0164	28.994709	0.000537	5.371364	1.819867	-0.000215
 880	8.7460e+01	4.9667	28.837261	0.000395	3.952513	1.339148	-0.000158
 881	8.7560e+01	4.9298	28.586958	0.000628	6.283482	2.128901	-0.000252
 882	8.7659e+01	4.8897	28.393176	0.000486	4.864631	1.648182	-0.000195
 883	8.7759e+01	4.8496	28.227653	0.000416	4.155206	1.407822	-0.000166
 884	8.7859e+01	4.8079	27.993499	0.000588	5.878096	1.991553	-0.000235
 885	8.7958e+01	4.7678	27.799717	0.000486	4.864631	1.648182	-0.000195
 886	8.8058e+01	4.7357	27.605934	0.000486	4.864631	1.648182	-0.000195
 887	8.8157e+01	4.6940	27.416189	0.000476	4.763285	1.613845	-0.000191
 888	8.8257e+01	4.6491	27.226443	0.000476	4.763285	1.613845	-0.000191
 889	8.8356e+01	4.6138	26.988252	0.000598	5.979443	2.025890	-0.000239
 890	8.8456e+01	4.5673	26.806581	0.000456	4.560592	1.545170	-0.000183
 891	8.8555e+01	4.5368	26.580502	0.000568	5.675403	1.922879	-0.000227
 892	8.8654e+01	4.4983	26.419016	0.000405	4.053859	1.373485	-0.000162
 893	8.8754e+01	4.4517	26.196974	0.000557	5.574057	1.888542	-0.000223
 894	8.8853e+01	4.4132	25.995117	0.000507	5.067324	1.716856	-0.000203
 895	8.8953e+01	4.3683	25.769037	0.000568	5.675403	1.922879	-0.000227
 896	8.9052e+01	4.3411	25.571218	0.000497	4.965978	1.682519	-0.000199
 897	8.9152e+01	4.2865	25.365324	0.000517	5.168671	1.751193	-0.000207
 898	8.9251e+01	4.2528	25.159430	0.000517	5.168671	1.751193	-0.000207
 899	8.9351e+01	4.2079	24.941425	0.000547	5.472710	1.854204	-0.000219
 900	8.9451e+01	4.1774	24.731494	0.000527	5.270017	1.785530	-0.000211
 901	8.9550e+01	4.1357	24.529637	0.000507	5.067324	1.716856	-0.000203
 902	8.9650e+01	4.0988	24.364114	0.000416	4.155206	1.407822	-0.000166
 903	8.9749e+01	4.0539	24.142072	0.000557	5.574057	1.888542	-0.000223
 904	8.9849e+01	4.0170	23.907918	0.000588	5.878096	1.991553	-0.000235
 905	8.9948e+01	3.9753	23.766618	0.000355	3.547127	1.201799	-0.000142
 906	9.0047e+01	3.9352	23.520353	0.000618	6.182136	2.094564	-0.000248
 907	9.0147e+01	3.8999	23.366942	0.000385	3.851166	1.304810	-0.000154
 908	9.0246e+01	3.8518	23.140862	0.000568	5.675403	1.922879	-0.000227
 909	9.0346e+01	3.8181	22.947080	0.000486	4.864631	1.648182	-0.000195
 910	9.0445e+01	3.7732	22.745223	0.000507	5.067324	1.716856	-0.000203
 911	9.0545e+01	3.7314	22.543366	0.000507	5.067324	1.716856	-0.000203
 912	9.0644e+01	3.6913	22.297101	0.000618	6.182136	2.094564	-0.000248
 913	9.0744e+01	3.6544	22.135615	0.000405	4.053859	1.373485	-0.000162
 914	9.0844e+01	3.6079	21.913573	0.000557	5.574057	1.888542	-0.000223
 915	9.0943e+01	3.5790	21.695567	0.000547	5.472710	1.854204	-0.000219
 916	9.1043e+01	3.5357	21.469488	0.000568	5.675403	1.922879	-0.000227
 917	9.1142e+01	3.4908	21.303965	0.000416	4.155206	1.407822	-0.000166
 918	9.1242e+01	3.4539	21.069811	0.000588	5.878096	1.991553	-0.000235
 919	9.1341e+01	3.4154	20.884103	0.000466	4.661938	1.579507	-0.000187
 920	9.1441e+01	3.3737	20.662061	0.000557	5.574057	1.888542	-0.000223
 921	9.1540e+01	3.3304	20.476352	0.000466	4.661938	1.579507	-0.000187
 922	9.1639e+01	3.2983	20.254310	0.000557	5.574057	1.888542	-0.000223
 923	9.1739e+01	3.2566	20.048416	0.000517	5.168671	1.751193	-0.000207
 924	9.1838e+01	3.2149	19.858671	0.000476	4.763285	1.613845	-0.000191
 925	9.1938e+01	3.1764	19.632591	0.000568	5.675403	1.922879	-0.000227
 926	9.2037e+01	3.1411	19.418623	0.000537	5.371364	1.819867	-0.000215
 927	9.2137e+01	3.1042	19.216766	0.000507	5.067324	1.716856	-0.000203
 928	9.2237e+01	3.0609	19.010872	0.000517	5.168671	1.751193	-0.000207
 929	9.2336e+01	3.0127	18.833238	0.000446	4.459245	1.510833	-0.000179
 930	9.2436e+01	2.9710	18.566787	0.000669	6.688868	2.266250	-0.000268
 931	9.2535e+01	2.9390	18.364930	0.000507	5.067324	1.716856	-0.000203
 932	9.2635e+01	2.9037	18.146925	0.000547	5.472710	1.854204	-0.000219
 933	9.2734e+01	2.8523	17.949105	0.000497	4.965978	1.682519	-0.000199
 934	9.2834e+01	2.8234	17.747249	0.000507	5.067324	1.716856	-0.000203
 935	9.2933e+01	2.7849	17.521169	0.000568	5.675403	1.922879	-0.000227
 936	9.3032e+01	2.7368	17.299127	0.000557	5.574057	1.888542	-0.000223
 937	9.3132e+01	2.6999	17.085158	0.000537	5.371364	1.819867	-0.000215
 938	9.3231e+01	2.6534	16.895413	0.000476	4.763285	1.613845	-0.000191
 939	9.3331e+01	2.6229	16.689519	0.000517	5.168671	1.751193	-0.000207
 940	9.3430e+01	2.5844	16.499774	0.000476	4.763285	1.613845	-0.000191
 941	9.3530e+01	2.5443	16.241397	0.000649	6.486175	2.197576	-0.000260
 942	9.3629e+01	2.5010	16.027429	0.000537	5.371364	1.819867	-0.000215
 943	9.3729e+01	2.4593	15.882092	0.000365	3.648473	1.236136	-0.000146
 944	9.3829e+01	2.4160	15.639864	0.000608	6.080789	2.060227	-0.000243
 945	9.3928e+01	2.3807	15.405710	0.000588	5.878096	1.991553	-0.000235
 946	9.4028e+01	2.3374	15.199816	0.000517	5.168671	1.751193	-0.000207
 947	9.4127e+01	2.2973	15.001996	0.000497	4.965978	1.682519	-0.000199
 948	9.4227e+01	2.2652	14.751694	0.000628	6.283482	2.128901	-0.000252
 949	9.4326e+01	2.2235	14.570023	0.000456	4.560592	1.545170	-0.000183
 950	9.4425e+01	2.1802	14.372203	0.000497	4.965978	1.682519	-0.000199
 951	9.4525e+01	2.1433	14.154198	0.000547	5.472710	1.854204	-0.000219
 952	9.4624e+01	2.1128	13.944267	0.000527	5.270017	1.785530	-0.000211
 953	9.4724e+01	2.0534	13.722224	0.000557	5.574057	1.888542	-0.000223
 954	9.4823e+01	2.0245	13.544590	0.000446	4.459245	1.510833	-0.000179
 955	9.4923e+01	1.9780	13.330622	0.000537	5.371364	1.819867	-0.000215
 956	9.5022e+01	1.9507	13.120691	0.000527	5.270017	1.785530	-0.000211
 957	9.5122e+01	1.8962	12.906723	0.000537	5.371364	1.819867	-0.000215
 958	9.5222e+01	1.8705	12.656421	0.000628	6.283482	2.128901	-0.000252
 959	9.5321e+01	1.8224	12.474749	0.000456	4.560592	1.545170	-0.000183
 960	9.5421e+01	1.7775	12.285004	0.000476	4.763285	1.613845	-0.000191
 961	9.5520e+01	1.7406	12.071036	0.000537	5.371364	1.819867	-0.000215
 962	9.5620e+01	1.7101	11.917625	0.000385	3.851166	1.304810	-0.000154
 963	9.5719e+01	1.6540	11.618877	0.000750	7.499640	2.540947	-0.000300
 964	9.5819e+01	1.6219	11.425094	0.000486	4.864631	1.648182	-0.000195
 965	9.5918e+01	1.5850	11.223237	0.000507	5.067324	1.716856	-0.000203
 966	9.6017e+01	1.5465	11.033492	0.000476	4.763285	1.613845	-0.000191
 967	9.6117e+01	1.5176	10.767041	0.000669	6.688868	2.266250	-0.000268
 968	9.6216e+01	1.4615	10.577296	0.000476	4.763285	1.613845	-0.000191
 969	9.6316e+01	1.4246	10.387550	0.000476	4.763285	1.613845	-0.000191
 970	9.6415e+01	1.3732	10.189731	0.000497	4.965978	1.682519	-0.000199
 971	9.6515e+01	1.3411	9.931354	0.000649	6.486175	2.197576	-0.000260
 972	9.6615e+01	1.3042	9.745646	0.000466	4.661938	1.579507	-0.000187
 973	9.6714e+01	1.2738	9.555900	0.000476	4.763285	1.613845	-0.000191
 974	9.6814e+01	1.2288	9.297524	0.000649	6.486175	2.197576	-0.000260
 975	9.6913e+01	1.1791	9.123927	0.000436	4.357899	1.476496	-0.000174
 976	9.7013e+01	1.1422	8.918033	0.000517	5.168671	1.751193	-0.000207
 977	9.7112e+01	1.1053	8.663693	0.000638	6.384829	2.163238	-0.000256
 978	9.7212e+01	1.0668	8.457799	0.000517	5.168671	1.751193	-0.000207
 979	9.7311e+01	1.0267	8.231720	0.000568	5.675403	1.922879	-0.000227
 980	9.7410e+01	0.9770	7.993529	0.000598	5.979443	2.025890	-0.000239
 981	9.7510e+01	0.9481	7.811858	0.000456	4.560592	1.545170	-0.000183
 982	9.7609e+01	0.9144	7.589815	0.000557	5.574057	1.888542	-0.000223
 983	9.7709e+01	0.8663	7.416218	0.000436	4.357899	1.476496	-0.000174
 984	9.7808e+01	0.8230	7.186102	0.000578	5.776750	1.957216	-0.000231
 985	9.7908e+01	0.7829	6.955985	0.000578	5.776750	1.957216	-0.000231
 986	9.8007e+01	0.7540	6.742017	0.000537	5.371364	1.819867	-0.000215
 987	9.8107e+01	0.7027	6.475566	0.000669	6.688868	2.266250	-0.000268
 988	9.8207e+01	0.6642	6.330229	0.000365	3.648473	1.236136	-0.000146
 989	9.8306e+01	0.6160	6.083964	0.000618	6.182136	2.094564	-0.000248
 990	9.8406e+01	0.5904	5.874032	0.000527	5.270017	1.785530	-0.000211
 991	9.8505e+01	0.5374	5.660064	0.000537	5.371364	1.819867	-0.000215
 992	9.8605e+01	0.5085	5.474356	0.000466	4.661938	1.579507	-0.000187
 993	9.8704e+01	0.4749	5.232128	0.000608	6.080789	2.060227	-0.000243
 994	9.8803e+01	0.4299	4.989900	0.000608	6.080789	2.060227	-0.000243
 995	9.8903e+01	0.3770	4.788043	0.000507	5.067324	1.716856	-0.000203
 996	9.9002e+01	0.3545	4.537741	0.000628	6.283482	2.128901	-0.000252
 997	9.9102e+01	0.3064	4.311661	0.000568	5.675403	1.922879	-0.000227
 998	9.9201e+01	0.2711	4.166324	0.000365	3.648473	1.236136	-0.000146
 999	9.9301e+01	0.2214	3.895836	0.000679	6.790214	2.300587	-0.000272
1000	9.9400e+01	0.1941	3.681868	0.000537	5.371364	1.819867	-0.000215
1001	9.9500e+01	0.1476	3.467900	0.000537	5.371364	1.819867	-0.000215
1002	9.9600e+01	0.1123	3.282191	0.000466	4.661938	1.579507	-0.000187
1003	9.9699e+01	0.0786	3.031889	0.000628	6.283482	2.128901	-0.000252
1004	9.9799e+01	0.0289	2.846181	0.000466	4.661938	1.579507	-0.000187
1005	9.9898e+01	-0.0064	2.680658	0.000416	4.155206	1.407822	-0.000166
1006	9.9998e+01	-0.0449	2.438430	0.000608	6.080789	2.060227	-0.000243
1007	1.0010e+02	-0.0770	2.236573	0.000507	5.067324	1.716856	-0.000203
1008	1.0020e+02	-0.1219	2.034716	0.000507	5.067324	1.716856	-0.000203
1009	1.0030e+02	-0.1684	1.780377	0.000638	6.384829	2.163238	-0.000256
1010	1.0040e+02	-0.1989	1.582557	0.000497	4.965978	1.682519	-0.000199
1011	1.0050e+02	-0.2438	1.388775	0.000486	4.864631	1.648182	-0.000195
1012	1.0059e+02	-0.2759	1.122324	0.000669	6.688868	2.266250	-0.000268
1013	1.0069e+02	-0.3241	0.932578	0.000476	4.763285	1.613845	-0.000191
1014	1.0079e+02	-0.3593	0.706499	0.000568	5.675403	1.922879	-0.000227
1015	1.0089e+02	-0.3995	0.512716	0.000486	4.864631	1.648182	-0.000195
1016	1.0099e+02	-0.4331	0.238191	0.000689	6.891561	2.334924	-0.000276
1017	1.0109e+02	-0.4781	0.052483	0.000466	4.661938	1.579507	-0.000187
1018	1.0119e+02	-0.5342	-0.149374	0.000507	5.067324	1.716856	-0.000203
1019	1.0129e+02	-0.5679	-0.383528	0.000588	5.878096	1.991553	-0.000235
1020	1.0139e+02	-0.6048	-0.593459	0.000527	5.270017	1.785530	-0.000211
1021	1.0149e+02	-0.6401	-0.795316	0.000507	5.067324	1.716856	-0.000203
1022	1.0159e+02	-0.6946	-1.053692	0.000649	6.486175	2.197576	-0.000260
1023	1.0169e+02	-0.7107	-1.239401	0.000466	4.661938	1.579507	-0.000187
1024	1.0179e+02	-0.7604	-1.441257	0.000507	5.067324	1.716856	-0.000203
1025	1.0189e+02	-0.7989	-1.691560	0.000628	6.283482	2.128901	-0.000252
1026	1.0199e+02	-0.8406	-1.881305	0.000476	4.763285	1.613845	-0.000191
1027	1.0209e+02	-0.8839	-2.099311	0.000547	5.472710	1.854204	-0.000219
1028	1.0219e+02	-0.9160	-2.317316	0.000547	5.472710	1.854204	-0.000219
1029	1.0229e+02	-0.9625	-2.555507	0.000598	5.979443	2.025890	-0.000239
1030	1.0239e+02	-1.0042	-2.761401	0.000517	5.168671	1.751193	-0.000207
1031	1.0248e+02	-1.0428	-3.003629	0.000608	6.080789	2.060227	-0.000243
1032	1.0258e+02	-1.0893	-3.177226	0.000436	4.357899	1.476496	-0.000174
1033	1.0268e+02	-1.1262	-3.427528	0.000628	6.283482	2.128901	-0.000252
1034	1.0278e+02	-1.1615	-3.633422	0.000517	5.168671	1.751193	-0.000207
1035	1.0288e+02	-1.1968	-3.863539	0.000578	5.776750	1.957216	-0.000231
1036	1.0298e+02	-1.2337	-4.085581	0.000557	5.574057	1.888542	-0.000223
1037	1.0308e+02	-1.2818	-4.323772	0.000598	5.979443	2.025890	-0.000239
1038	1.0318e+02	-1.3187	-4.537741	0.000537	5.371364	1.819867	-0.000215
1039	1.0328e+02	-1.3556	-4.711337	0.000436	4.357899	1.476496	-0.000174
1040	1.0338e+02	-1.3989	-4.997974	0.000720	7.195600	2.437935	-0.000288
1041	1.0348e+02	-1.4454	-5.175608	0.000446	4.459245	1.510833	-0.000179
1042	1.0358e+02	-1.4759	-5.397650	0.000557	5.574057	1.888542	-0.000223
1043	1.0368e+02	-1.5176	-5.603544	0.000517	5.168671	1.751193	-0.000207
1044	1.0378e+02	-1.5577	-5.821550	0.000547	5.472710	1.854204	-0.000219
1045	1.0388e+02	-1.5978	-6.047629	0.000568	5.675403	1.922879	-0.000227
1046	1.0398e+02	-1.6379	-6.277746	0.000578	5.776750	1.957216	-0.000231
1047	1.0408e+02	-1.6812	-6.475566	0.000497	4.965978	1.682519	-0.000199
1048	1.0418e+02	-1.7133	-6.709720	0.000588	5.878096	1.991553	-0.000235
1049	1.0428e+02	-1.7598	-6.935799	0.000568	5.675403	1.922879	-0.000227
1050	1.0438e+02	-1.7983	-7.153805	0.000547	5.472710	1.854204	-0.000219
1051	1.0447e+02	-1.8368	-7.379884	0.000568	5.675403	1.922879	-0.000227
1052	1.0457e+02	-1.8770	-7.610001	0.000578	5.776750	1.957216	-0.000231
1053	1.0467e+02	-1.9219	-7.803783	0.000486	4.864631	1.648182	-0.000195
1054	1.0477e+02	-1.9604	-8.033900	0.000578	5.776750	1.957216	-0.000231
1055	1.0487e+02	-2.0053	-8.235757	0.000507	5.067324	1.716856	-0.000203
1056	1.0497e+02	-2.0422	-8.445688	0.000527	5.270017	1.785530	-0.000211
1057	1.0507e+02	-2.0791	-8.663693	0.000547	5.472710	1.854204	-0.000219
1058	1.0517e+02	-2.1176	-8.897847	0.000588	5.878096	1.991553	-0.000235
1059	1.0527e+02	-2.1625	-9.115852	0.000547	5.472710	1.854204	-0.000219
1060	1.0537e+02	-2.2042	-9.333858	0.000547	5.472710	1.854204	-0.000219
1061	1.0547e+02	-2.2267	-9.543789	0.000527	5.270017	1.785530	-0.000211
1062	1.0557e+02	-2.2748	-9.765831	0.000557	5.574057	1.888542	-0.000223
1063	1.0567e+02	-2.3165	-9.967688	0.000507	5.067324	1.716856	-0.000203
1064	1.0577e+02	-2.3534	-10.133211	0.000416	4.155206	1.407822	-0.000166
1065	1.0587e+02	-2.3983	-10.407736	0.000689	6.891561	2.334924	-0.000276
1066	1.0597e+02	-2.4336	-10.629778	0.000557	5.574057	1.888542	-0.000223
1067	1.0607e+02	-2.4737	-10.823561	0.000486	4.864631	1.648182	-0.000195
1068	1.0617e+02	-2.5042	-11.045603	0.000557	5.574057	1.888542	-0.000223
1069	1.0627e+02	-2.5507	-11.247460	0.000507	5.067324	1.716856	-0.000203
1070	1.0637e+02	-2.5924	-11.477577	0.000578	5.776750	1.957216	-0.000231
1071	1.0647e+02	-2.6374	-11.667322	0.000476	4.763285	1.613845	-0.000191
1072	1.0656e+02	-2.6678	-11.893402	0.000568	5.675403	1.922879	-0.000227
1073	1.0666e+02	-2.7112	-12.103333	0.000527	5.270017	1.785530	-0.000211
1074	1.0676e+02	-2.7481	-12.329413	0.000568	5.675403	1.922879	-0.000227
1075	1.0686e+02	-2.7946	-12.531269	0.000507	5.067324	1.716856	-0.000203
1076	1.0696e+02	-2.8315	-12.741200	0.000527	5.270017	1.785530	-0.000211
1077	1.0706e+02	-2.8732	-12.951131	0.000527	5.270017	1.785530	-0.000211
1078	1.0716e+02	-2.9005	-13.148951	0.000497	4.965978	1.682519	-0.000199
1079	1.0726e+02	-2.9486	-13.379068	0.000578	5.776750	1.957216	-0.000231
1080	1.0736e+02	-2.9935	-13.584962	0.000517	5.168671	1.751193	-0.000207
1081	1.0746e+02	-3.0336	-13.815078	0.000578	5.776750	1.957216	-0.000231
1082	1.0756e+02	-3.0721	-13.984638	0.000426	4.256552	1.442159	-0.000170
1083	1.0766e+02	-3.1170	-14.267238	0.000709	7.094254	2.403598	-0.000284
1084	1.0776e+02	-3.1491	-14.444872	0.000446	4.459245	1.510833	-0.000179
1085	1.0786e+02	-3.1860	-14.658840	0.000537	5.371364	1.819867	-0.000215
1086	1.0796e+02	-3.2357	-14.860697	0.000507	5.067324	1.716856	-0.000203
1087	1.0806e+02	-3.2694	-15.074665	0.000537	5.371364	1.819867	-0.000215
1088	1.0816e+02	-3.3143	-15.268447	0.000486	4.864631	1.648182	-0.000195
1089	1.0826e+02	-3.3545	-15.442044	0.000436	4.357899	1.476496	-0.000174
1090	1.0836e+02	-3.3913	-15.708495	0.000669	6.688868	2.266250	-0.000268
1091	1.0845e+02	-3.4411	-15.849795	0.000355	3.547127	1.201799	-0.000142
1092	1.0855e+02	-3.4716	-16.120283	0.000679	6.790214	2.300587	-0.000272
1093	1.0865e+02	-3.5117	-16.301954	0.000456	4.560592	1.545170	-0.000183
1094	1.0875e+02	-3.5470	-16.507848	0.000517	5.168671	1.751193	-0.000207
1095	1.0885e+02	-3.6015	-16.742002	0.000588	5.878096	1.991553	-0.000235
1096	1.0895e+02	-3.6256	-16.976156	0.000588	5.878096	1.991553	-0.000235
1097	1.0905e+02	-3.6769	-17.173975	0.000497	4.965978	1.682519	-0.000199
1098	1.0915e+02	-3.7122	-17.363721	0.000476	4.763285	1.613845	-0.000191
1099	1.0925e+02	-3.7475	-17.557503	0.000486	4.864631	1.648182	-0.000195
1100	1.0935e+02	-3.7860	-17.739174	0.000456	4.560592	1.545170	-0.000183
1101	1.0945e+02	-3.8261	-17.961217	0.000557	5.574057	1.888542	-0.000223
1102	1.0955e+02	-3.8694	-18.187296	0.000568	5.675403	1.922879	-0.000227
1103	1.0965e+02	-3.9095	-18.417413	0.000578	5.776750	1.957216	-0.000231
1104	1.0975e+02	-3.9512	-18.603121	0.000466	4.661938	1.579507	-0.000187
1105	1.0985e+02	-3.9913	-18.796904	0.000486	4.864631	1.648182	-0.000195
1106	1.0995e+02	-4.0346	-19.022984	0.000568	5.675403	1.922879	-0.000227
1107	1.1005e+02	-4.0635	-19.257137	0.000588	5.878096	1.991553	-0.000235
1108	1.1015e+02	-4.1084	-19.426697	0.000426	4.256552	1.442159	-0.000170
1109	1.1025e+02	-4.1453	-19.632591	0.000517	5.168671	1.751193	-0.000207
1110	1.1035e+02	-4.1951	-19.838485	0.000517	5.168671	1.751193	-0.000207
1111	1.1044e+02	-4.2223	-20.032268	0.000486	4.864631	1.648182	-0.000195
1112	1.1054e+02	-4.2657	-20.242199	0.000527	5.270017	1.785530	-0.000211
1113	1.1064e+02	-4.3170	-20.440018	0.000497	4.965978	1.682519	-0.000199
1114	1.1074e+02	-4.3523	-20.641875	0.000507	5.067324	1.716856	-0.000203
1115	1.1084e+02	-4.3876	-20.827583	0.000466	4.661938	1.579507	-0.000187
1116	1.1094e+02	-4.4261	-21.041551	0.000537	5.371364	1.819867	-0.000215
1117	1.1104e+02	-4.4662	-21.283780	0.000608	6.080789	2.060227	-0.000243
1118	1.1114e+02	-4.5063	-21.473525	0.000476	4.763285	1.613845	-0.000191
1119	1.1124e+02	-4.5448	-21.643085	0.000426	4.256552	1.442159	-0.000170
1120	1.1134e+02	-4.5881	-21.840904	0.000497	4.965978	1.682519	-0.000199
1121	1.1144e+02	-4.6362	-22.042761	0.000507	5.067324	1.716856	-0.000203
1122	1.1154e+02	-4.6683	-22.260766	0.000547	5.472710	1.854204	-0.000219
1123	1.1164e+02	-4.7100	-22.450512	0.000476	4.763285	1.613845	-0.000191
1124	1.1174e+02	-4.7373	-22.636220	0.000466	4.661938	1.579507	-0.000187
1125	1.1184e+02	-4.7790	-22.838077	0.000507	5.067324	1.716856	-0.000203
1126	1.1194e+02	-4.8175	-23.052045	0.000537	5.371364	1.819867	-0.000215
1127	1.1204e+02	-4.8640	-23.245828	0.000486	4.864631	1.648182	-0.000195
1128	1.1214e+02	-4.9009	-23.419424	0.000436	4.357899	1.476496	-0.000174
1129	1.1224e+02	-4.9555	-23.621281	0.000507	5.067324	1.716856	-0.000203
1130	1.1234e+02	-4.9956	-23.859472	0.000598	5.979443	2.025890	-0.000239
1131	1.1244e+02	-5.0341	-24.029032	0.000426	4.256552	1.442159	-0.000170
1132	1.1253e+02	-5.0614	-24.210703	0.000456	4.560592	1.545170	-0.000183
1133	1.1263e+02	-5.0966	-24.432745	0.000557	5.574057	1.888542	-0.000223
1134	1.1273e+02	-5.1432	-24.602305	0.000426	4.256552	1.442159	-0.000170
1135	1.1283e+02	-5.1817	-24.812236	0.000527	5.270017	1.785530	-0.000211
1136	1.1293e+02	-5.2314	-25.006019	0.000486	4.864631	1.648182	-0.000195
1137	1.1303e+02	-5.2667	-25.236135	0.000578	5.776750	1.957216	-0.000231
1138	1.1313e+02	-5.3036	-25.377435	0.000355	3.547127	1.201799	-0.000142
1139	1.1323e+02	-5.3453	-25.595441	0.000547	5.472710	1.854204	-0.000219
1140	1.1333e+02	-5.3854	-25.765000	0.000426	4.256552	1.442159	-0.000170
1141	1.1343e+02	-5.4223	-25.970894	0.000517	5.168671	1.751193	-0.000207
1142	1.1353e+02	-5.4592	-26.184862	0.000537	5.371364	1.819867	-0.000215
1143	1.1363e+02	-5.5041	-26.362496	0.000446	4.459245	1.510833	-0.000179
1144	1.1373e+02	-5.5378	-26.536093	0.000436	4.357899	1.476496	-0.000174
1145	1.1383e+02	-5.5843	-26.754099	0.000547	5.472710	1.854204	-0.000219
1146	1.1393e+02	-5.6293	-26.939807	0.000466	4.661938	1.579507	-0.000187
1147	1.1403e+02	-5.6662	-27.149738	0.000527	5.270017	1.785530	-0.000211
1148	1.1413e+02	-5.7047	-27.327372	0.000446	4.459245	1.510833	-0.000179
1149	1.1423e+02	-5.7480	-27.565563	0.000598	5.979443	2.025890	-0.000239
1150	1.1433e+02	-5.7833	-27.763382	0.000497	4.965978	1.682519	-0.000199
1151	1.1442e+02	-5.8282	-27.936979	0.000436	4.357899	1.476496	-0.000174
1152	1.1452e+02	-5.8667	-28.138836	0.000507	5.067324	1.716856	-0.000203
1153	1.1462e+02	-5.8940	-28.328581	0.000476	4.763285	1.613845	-0.000191
1154	1.1472e+02	-5.9469	-28.534475	0.000517	5.168671	1.751193	-0.000207
1155	1.1482e+02	-5.9822	-28.716147	0.000456	4.560592	1.545170	-0.000183
1156	1.1492e+02	-6.0175	-28.901855	0.000466	4.661938	1.579507	-0.000187
1157	1.1502e+02	-6.0672	-29.087563	0.000466	4.661938	1.579507	-0.000187
1158	1.1512e+02	-6.1073	-29.265197	0.000446	4.459245	1.510833	-0.000179
1159	1.1522e+02	-6.1410	-29.503388	0.000598	5.979443	2.025890	-0.000239
1160	1.1532e+02	-6.1907	-29.668911	0.000416	4.155206	1.407822	-0.000166
1161	1.1542e+02	-6.2196	-29.866730	0.000497	4.965978	1.682519	-0.000199
1162	1.1552e+02	-6.2629	-30.068587	0.000507	5.067324	1.716856	-0.000203
1163	1.1562e+02	-6.3014	-30.238147	0.000426	4.256552	1.442159	-0.000170
1164	1.1572e+02	-6.3383	-30.448078	0.000527	5.270017	1.785530	-0.000211
1165	1.1582e+02	-6.3800	-30.633786	0.000466	4.661938	1.579507	-0.000187
1166	1.1592e+02	-6.4233	-30.867940	0.000588	5.878096	1.991553	-0.000235
1167	1.1602e+02	-6.4522	-31.009240	0.000355	3.547127	1.201799	-0.000142
1168	1.1612e+02	-6.4923	-31.211096	0.000507	5.067324	1.716856	-0.000203
1169	1.1622e+02	-6.5308	-31.376619	0.000416	4.155206	1.407822	-0.000166
1170	1.1632e+02	-6.5758	-31.566364	0.000476	4.763285	1.613845	-0.000191
1171	1.1642e+02	-6.6191	-31.776295	0.000527	5.270017	1.785530	-0.000211
1172	1.1651e+02	-6.6511	-31.978152	0.000507	5.067324	1.716856	-0.000203
1173	1.1661e+02	-6.7041	-32.127526	0.000375	3.749820	1.270473	-0.000150
1174	1.1671e+02	-6.7378	-32.365717	0.000598	5.979443	2.025890	-0.000239
1175	1.1681e+02	-6.7779	-32.478757	0.000284	2.837702	0.961439	-0.000114
1176	1.1691e+02	-6.8196	-32.729059	0.000628	6.283482	2.128901	-0.000252
1177	1.1701e+02	-6.8437	-32.890545	0.000405	4.053859	1.373485	-0.000162
1178	1.1711e+02	-6.8918	-33.080290	0.000476	4.763285	1.613845	-0.000191
1179	1.1721e+02	-6.9367	-33.265998	0.000466	4.661938	1.579507	-0.000187
1180	1.1731e+02	-6.9736	-33.467855	0.000507	5.067324	1.716856	-0.000203
1181	1.1741e+02	-7.0073	-33.661638	0.000486	4.864631	1.648182	-0.000195
1182	1.1751e+02	-7.0554	-33.851383	0.000476	4.763285	1.613845	-0.000191
1183	1.1761e+02	-7.0987	-34.041129	0.000476	4.763285	1.613845	-0.000191
1184	1.1771e+02	-7.1308	-34.226837	0.000466	4.661938	1.579507	-0.000187
1185	1.1781e+02	-7.1725	-34.469065	0.000608	6.080789	2.060227	-0.000243
1186	1.1791e+02	-7.2094	-34.610365	0.000355	3.547127	1.201799	-0.000142
1187	1.1801e+02	-7.2527	-34.771850	0.000405	4.053859	1.373485	-0.000162
1188	1.1811e+02	-7.2977	-34.961595	0.000476	4.763285	1.613845	-0.000191
1189	1.1821e+02	-7.3426	-35.155378	0.000486	4.864631	1.648182	-0.000195
1190	1.1831e+02	-7.3698	-35.345123	0.000476	4.763285	1.613845	-0.000191
1191	1.1841e+02	-7.4132	-35.538906	0.000486	4.864631	1.648182	-0.000195
1192	1.1850e+02	-7.4420	-35.716540	0.000446	4.459245	1.510833	-0.000179
1193	1.1860e+02	-7.4886	-35.914360	0.000497	4.965978	1.682519	-0.000199
1194	1.1870e+02	-7.5399	-36.063734	0.000375	3.749820	1.270473	-0.000150
1195	1.1880e+02	-7.5800	-36.305962	0.000608	6.080789	2.060227	-0.000243
1196	1.1890e+02	-7.6137	-36.447261	0.000355	3.547127	1.201799	-0.000142
1197	1.1900e+02	-7.6634	-36.653155	0.000517	5.168671	1.751193	-0.000207
1198	1.1910e+02	-7.6971	-36.830789	0.000446	4.459245	1.510833	-0.000179
1199	1.1920e+02	-7.7340	-37.044758	0.000537	5.371364	1.819867	-0.000215
1200	1.1930e+02	-7.7661	-37.206243	0.000405	4.053859	1.373485	-0.000162
1201	1.1940e+02	-7.8222	-37.371766	0.000416	4.155206	1.407822	-0.000166
1202	1.1950e+02	-7.8559	-37.597845	0.000568	5.675403	1.922879	-0.000227
1203	1.1960e+02	-7.8880	-37.751256	0.000385	3.851166	1.304810	-0.000154
1204	1.1970e+02	-7.9361	-37.977336	0.000568	5.675403	1.922879	-0.000227
1205	1.1980e+02	-7.9698	-38.159007	0.000456	4.560592	1.545170	-0.000183
1206	1.1990e+02	-8.0067	-38.332604	0.000436	4.357899	1.476496	-0.000174
1207	1.2000e+02	-8.0565	-38.534461	0.000507	5.067324	1.716856	-0.000203
1208	1.2010e+02	-8.0934	-38.732280	0.000497	4.965978	1.682519	-0.000199
1209	1.2020e+02	-8.1286	-38.926063	0.000486	4.864631	1.648182	-0.000195
1210	1.2030e+02	-8.1655	-39.067363	0.000355	3.547127	1.201799	-0.000142
1211	1.2039e+02	-8.2121	-39.269219	0.000507	5.067324	1.716856	-0.000203
1212	1.2049e+02	-8.2490	-39.430705	0.000405	4.053859	1.373485	-0.000162
1213	1.2059e+02	-8.2923	-39.660821	0.000578	5.776750	1.957216	-0.000231
1214	1.2069e+02	-8.3308	-39.866715	0.000517	5.168671	1.751193	-0.000207
1215	1.2079e+02	-8.3629	-40.036275	0.000426	4.256552	1.442159	-0.000170
1216	1.2089e+02	-8.4094	-40.197761	0.000405	4.053859	1.373485	-0.000162
1217	1.2099e+02	-8.4463	-40.387506	0.000476	4.763285	1.613845	-0.000191
1218	1.2109e+02	-8.4912	-40.593400	0.000517	5.168671	1.751193	-0.000207
1219	1.2119e+02	-8.5361	-40.795257	0.000507	5.067324	1.716856	-0.000203
1220	1.2129e+02	-8.5746	-40.976928	0.000456	4.560592	1.545170	-0.000183
1221	1.2139e+02	-8.6099	-41.122265	0.000365	3.648473	1.236136	-0.000146
1222	1.2149e+02	-8.6484	-41.356419	0.000588	5.878096	1.991553	-0.000235
1223	1.2159e+02	-8.6933	-41.542127	0.000466	4.661938	1.579507	-0.000187
1224	1.2169e+02	-8.7206	-41.691501	0.000375	3.749820	1.270473	-0.000150
1225	1.2179e+02	-8.7703	-41.881246	0.000476	4.763285	1.613845	-0.000191
1226	1.2189e+02	-8.7960	-42.066954	0.000466	4.661938	1.579507	-0.000187
1227	1.2199e+02	-8.8538	-42.248625	0.000456	4.560592	1.545170	-0.000183
1228	1.2209e+02	-8.8955	-42.418185	0.000426	4.256552	1.442159	-0.000170
1229	1.2219e+02	-8.9356	-42.656376	0.000598	5.979443	2.025890	-0.000239
1230	1.2229e+02	-8.9693	-42.793639	0.000345	3.445780	1.167462	-0.000138
1231	1.2239e+02	-9.0094	-43.031830	0.000598	5.979443	2.025890	-0.000239
1232	1.2248e+02	-9.0479	-43.177167	0.000365	3.648473	1.236136	-0.000146
1233	1.2258e+02	-9.0944	-43.350764	0.000436	4.357899	1.476496	-0.000174
1234	1.2268e+02	-9.1297	-43.568769	0.000547	5.472710	1.854204	-0.000219
1235	1.2278e+02	-9.1682	-43.701994	0.000334	3.344434	1.133125	-0.000134
1236	1.2288e+02	-9.2099	-43.887703	0.000466	4.661938	1.579507	-0.000187
1237	1.2298e+02	-9.2516	-44.089559	0.000507	5.067324	1.716856	-0.000203
1238	1.2308e+02	-9.2837	-44.315639	0.000568	5.675403	1.922879	-0.000227
1239	1.2318e+02	-9.3302	-44.412530	0.000243	2.432316	0.824091	-0.000097
1240	1.2328e+02	-9.3623	-44.634573	0.000557	5.574057	1.888542	-0.000223
1241	1.2338e+02	-9.4056	-44.804132	0.000426	4.256552	1.442159	-0.000170
1242	1.2348e+02	-9.4441	-44.985804	0.000456	4.560592	1.545170	-0.000183
1243	1.2358e+02	-9.4842	-45.147289	0.000405	4.053859	1.373485	-0.000162
1244	1.2368e+02	-9.5211	-45.369331	0.000557	5.574057	1.888542	-0.000223
1245	1.2378e+02	-9.5644	-45.546965	0.000446	4.459245	1.510833	-0.000179
1246	1.2388e+02	-9.6029	-45.728637	0.000456	4.560592	1.545170	-0.000183
1247	1.2398e+02	-9.6446	-45.890122	0.000405	4.053859	1.373485	-0.000162
1248	1.2408e+02	-9.6896	-46.047570	0.000395	3.952513	1.339148	-0.000158
1249	1.2418e+02	-9.7233	-46.269613	0.000557	5.574057	1.888542	-0.000223
1250	1.2428e+02	-9.7618	-46.455321	0.000466	4.661938	1.579507	-0.000187
1251	1.2438e+02	-9.8115	-46.584509	0.000324	3.243087	1.098788	-0.000130
1252	1.2447e+02	-9.8404	-46.774255	0.000476	4.763285	1.613845	-0.000191
1253	1.2457e+02	-9.8741	-46.988223	0.000537	5.371364	1.819867	-0.000215
1254	1.2467e+02	-9.9270	-47.129523	0.000355	3.547127	1.201799	-0.000142
1255	1.2477e+02	-9.9591	-47.319268	0.000476	4.763285	1.613845	-0.000191
1256	1.2487e+02	-10.0072	-47.537273	0.000547	5.472710	1.854204	-0.000219
1257	1.2497e+02	-10.0489	-47.694722	0.000395	3.952513	1.339148	-0.000158
1258	1.2507e+02	-10.0906	-47.840058	0.000365	3.648473	1.236136	-0.000146
1259	1.2517e+02	-10.1259	-48.029804	0.000476	4.763285	1.613845	-0.000191
1260	1.2527e+02	-10.1724	-48.231661	0.000507	5.067324	1.716856	-0.000203
1261	1.2537e+02	-10.2125	-48.465815	0.000588	5.878096	1.991553	-0.000235
1262	1.2547e+02	-10.2398	-48.574817	0.000274	2.736355	0.927102	-0.000110
1263	1.2557e+02	-10.2815	-48.756488	0.000456	4.560592	1.545170	-0.000183
1264	1.2567e+02	-10.3264	-48.954308	0.000497	4.965978	1.682519	-0.000199
1265	1.2577e+02	-10.3553	-49.111756	0.000395	3.952513	1.339148	-0.000158
1266	1.2587e+02	-10.4002	-49.277279	0.000416	4.155206	1.407822	-0.000166
1267	1.2597e+02	-10.4532	-49.438764	0.000405	4.053859	1.373485	-0.000162
1268	1.2607e+02	-10.4853	-49.644658	0.000517	5.168671	1.751193	-0.000207
1269	1.2617e+02	-10.5190	-49.854589	0.000527	5.270017	1.785530	-0.000211
1270	1.2627e+02	-10.5703	-50.028186	0.000436	4.357899	1.476496	-0.000174
1271	1.2636e+02	-10.6008	-50.246191	0.000547	5.472710	1.854204	-0.000219
1272	1.2646e+02	-10.6361	-50.379417	0.000334	3.344434	1.133125	-0.000134
1273	1.2656e+02	-10.6762	-50.561088	0.000456	4.560592	1.545170	-0.000183
1274	1.2666e+02	-10.7115	-50.726611	0.000416	4.155206	1.407822	-0.000166
1275	1.2676e+02	-10.7612	-50.904245	0.000446	4.459245	1.510833	-0.000179
1276	1.2686e+02	-10.8077	-51.069767	0.000416	4.155206	1.407822	-0.000166
1277	1.2696e+02	-10.8446	-51.215104	0.000365	3.648473	1.236136	-0.000146
1278	1.2706e+02	-10.8783	-51.404849	0.000476	4.763285	1.613845	-0.000191
1279	1.2716e+02	-10.9200	-51.590558	0.000466	4.661938	1.579507	-0.000187
1280	1.2726e+02	-10.9697	-51.756080	0.000416	4.155206	1.407822	-0.000166
1281	1.2736e+02	-10.9970	-51.937751	0.000456	4.560592	1.545170	-0.000183
1282	1.2746e+02	-11.0371	-52.179979	0.000608	6.080789	2.060227	-0.000243
1283	1.2756e+02	-11.0756	-52.276871	0.000243	2.432316	0.824091	-0.000097
1284	1.2766e+02	-11.1238	-52.482765	0.000517	5.168671	1.751193	-0.000207
1285	1.2776e+02	-11.1687	-52.652324	0.000426	4.256552	1.442159	-0.000170
1286	1.2786e+02	-11.1959	-52.817847	0.000416	4.155206	1.407822	-0.000166
1287	1.2796e+02	-11.2409	-53.015667	0.000497	4.965978	1.682519	-0.000199
1288	1.2806e+02	-11.2858	-53.173115	0.000395	3.952513	1.339148	-0.000158
1289	1.2816e+02	-11.3195	-53.358823	0.000466	4.661938	1.579507	-0.000187
1290	1.2826e+02	-11.3628	-53.471863	0.000284	2.837702	0.961439	-0.000114
1291	1.2835e+02	-11.3997	-53.653534	0.000456	4.560592	1.545170	-0.000183
1292	1.2845e+02	-11.4414	-53.875576	0.000557	5.574057	1.888542	-0.000223
1293	1.2855e+02	-11.4831	-54.000728	0.000314	3.141741	1.064451	-0.000126
1294	1.2865e+02	-11.5120	-54.162213	0.000405	4.053859	1.373485	-0.000162
1295	1.2875e+02	-11.5601	-54.323698	0.000405	4.053859	1.373485	-0.000162
1296	1.2885e+02	-11.6002	-54.501332	0.000446	4.459245	1.510833	-0.000179
1297	1.2895e+02	-11.6387	-54.687041	0.000466	4.661938	1.579507	-0.000187
1298	1.2905e+02	-11.6756	-54.901009	0.000537	5.371364	1.819867	-0.000215
1299	1.2915e+02	-11.7189	-55.030197	0.000324	3.243087	1.098788	-0.000130
1300	1.2925e+02	-11.7542	-55.171497	0.000355	3.547127	1.201799	-0.000142
1301	1.2935e+02	-11.8023	-55.332982	0.000405	4.053859	1.373485	-0.000162
1302	1.2945e+02	-11.8489	-55.530802	0.000497	4.965978	1.682519	-0.000199
1303	1.2955e+02	-11.8729	-55.712473	0.000456	4.560592	1.545170	-0.000183
1304	1.2965e+02	-11.9275	-55.861847	0.000375	3.749820	1.270473	-0.000150
1305	1.2975e+02	-11.9563	-56.047555	0.000466	4.661938	1.579507	-0.000187
1306	1.2985e+02	-11.9900	-56.237301	0.000476	4.763285	1.613845	-0.000191
1307	1.2995e+02	-12.0334	-56.390712	0.000385	3.851166	1.304810	-0.000154
1308	1.3005e+02	-12.0735	-56.596606	0.000517	5.168671	1.751193	-0.000207
1309	1.3015e+02	-12.1232	-56.657163	0.000152	1.520197	0.515057	-0.000061
1310	1.3025e+02	-12.1537	-56.863057	0.000517	5.168671	1.751193	-0.000207
1311	1.3034e+02	-12.1986	-57.093174	0.000578	5.776750	1.957216	-0.000231
1312	1.3044e+02	-12.2355	-57.226399	0.000334	3.344434	1.133125	-0.000134
1313	1.3054e+02	-12.2868	-57.408070	0.000456	4.560592	1.545170	-0.000183
1314	1.3064e+02	-12.3077	-57.549370	0.000355	3.547127	1.201799	-0.000142
1315	1.3074e+02	-12.3606	-57.771412	0.000557	5.574057	1.888542	-0.000223
1316	1.3084e+02	-12.3879	-57.904638	0.000334	3.344434	1.133125	-0.000134
1317	1.3094e+02	-12.4328	-58.066123	0.000405	4.053859	1.373485	-0.000162
1318	1.3104e+02	-12.4809	-58.227609	0.000405	4.053859	1.373485	-0.000162
1319	1.3114e+02	-12.5114	-58.389094	0.000405	4.053859	1.373485	-0.000162
1320	1.3124e+02	-12.5531	-58.566728	0.000446	4.459245	1.510833	-0.000179
1321	1.3134e+02	-12.5932	-58.740325	0.000436	4.357899	1.476496	-0.000174
1322	1.3144e+02	-12.6285	-58.913922	0.000436	4.357899	1.476496	-0.000174
1323	1.3154e+02	-12.6702	-59.087519	0.000436	4.357899	1.476496	-0.000174
1324	1.3164e+02	-12.7184	-59.249004	0.000405	4.053859	1.373485	-0.000162
1325	1.3174e+02	-12.7520	-59.402415	0.000385	3.851166	1.304810	-0.000154
1326	1.3184e+02	-12.8066	-59.628495	0.000568	5.675403	1.922879	-0.000227
1327	1.3194e+02	-12.8451	-59.757683	0.000324	3.243087	1.098788	-0.000130
1328	1.3204e+02	-12.8724	-59.919169	0.000405	4.053859	1.373485	-0.000162
1329	1.3214e+02	-12.9157	-60.088728	0.000426	4.256552	1.442159	-0.000170
1330	1.3224e+02	-12.9430	-60.242139	0.000385	3.851166	1.304810	-0.000154
1331	1.3234e+02	-12.9863	-60.419773	0.000446	4.459245	1.510833	-0.000179
1332	1.3243e+02	-13.0296	-60.593370	0.000436	4.357899	1.476496	-0.000174
1333	1.3253e+02	-13.0633	-60.738707	0.000365	3.648473	1.236136	-0.000146
1334	1.3263e+02	-13.1162	-60.896155	0.000395	3.952513	1.339148	-0.000158
1335	1.3273e+02	-13.1499	-61.098012	0.000507	5.067324	1.716856	-0.000203
1336	1.3283e+02	-13.1948	-61.263535	0.000416	4.155206	1.407822	-0.000166
1337	1.3293e+02	-13.2349	-61.416946	0.000385	3.851166	1.304810	-0.000154
1338	1.3303e+02	-13.2718	-61.610728	0.000486	4.864631	1.648182	-0.000195
1339	1.3313e+02	-13.3135	-61.764140	0.000385	3.851166	1.304810	-0.000154
1340	1.3323e+02	-13.3440	-61.905439	0.000355	3.547127	1.201799	-0.000142
1341	1.3333e+02	-13.3953	-62.066925	0.000405	4.053859	1.373485	-0.000162
1342	1.3343e+02	-13.4322	-62.240522	0.000436	4.357899	1.476496	-0.000174
1343	1.3353e+02	-13.4756	-62.438341	0.000497	4.965978	1.682519	-0.000199
1344	1.3363e+02	-13.5108	-62.563493	0.000314	3.141741	1.064451	-0.000126
1345	1.3373e+02	-13.5477	-62.753238	0.000476	4.763285	1.613845	-0.000191
1346	1.3383e+02	-13.5895	-62.947020	0.000486	4.864631	1.648182	-0.000195
1347	1.3393e+02	-13.6360	-63.120617	0.000436	4.357899	1.476496	-0.000174
1348	1.3403e+02	-13.6697	-63.201360	0.000203	2.026930	0.686742	-0.000081
1349	1.3413e+02	-13.7098	-63.370920	0.000426	4.256552	1.442159	-0.000170
1350	1.3423e+02	-13.7515	-63.548554	0.000446	4.459245	1.510833	-0.000179
1351	1.3432e+02	-13.7932	-63.734262	0.000466	4.661938	1.579507	-0.000187
1352	1.3442e+02	-13.8253	-63.895747	0.000405	4.053859	1.373485	-0.000162
1353	1.3452e+02	-13.8702	-64.049158	0.000385	3.851166	1.304810	-0.000154
1354	1.3462e+02	-13.9039	-64.210644	0.000405	4.053859	1.373485	-0.000162
1355	1.3472e+02	-13.9504	-64.392315	0.000456	4.560592	1.545170	-0.000183
1356	1.3482e+02	-13.9825	-64.545726	0.000385	3.851166	1.304810	-0.000154
1357	1.3492e+02	-14.0290	-64.727397	0.000456	4.560592	1.545170	-0.000183
1358	1.3502e+02	-14.0643	-64.892920	0.000416	4.155206	1.407822	-0.000166
1359	1.3512e+02	-14.1092	-64.981737	0.000223	2.229623	0.755417	-0.000089
1360	1.3522e+02	-14.1493	-65.215891	0.000588	5.878096	1.991553	-0.000235
1361	1.3532e+02	-14.1991	-65.357190	0.000355	3.547127	1.201799	-0.000142
1362	1.3542e+02	-14.2279	-65.526750	0.000426	4.256552	1.442159	-0.000170
1363	1.3552e+02	-14.2680	-65.688236	0.000405	4.053859	1.373485	-0.000162
1364	1.3562e+02	-14.3065	-65.886055	0.000497	4.965978	1.682519	-0.000199
1365	1.3572e+02	-14.3515	-66.035429	0.000375	3.749820	1.270473	-0.000150
1366	1.3582e+02	-14.3819	-66.204989	0.000426	4.256552	1.442159	-0.000170
1367	1.3592e+02	-14.4253	-66.378586	0.000436	4.357899	1.476496	-0.000174
1368	1.3602e+02	-14.4509	-66.527960	0.000375	3.749820	1.270473	-0.000150
1369	1.3612e+02	-14.5135	-66.669260	0.000355	3.547127	1.201799	-0.000142
1370	1.3622e+02	-14.5392	-66.850931	0.000456	4.560592	1.545170	-0.000183
1371	1.3631e+02	-14.5841	-67.008379	0.000395	3.952513	1.339148	-0.000158
1372	1.3641e+02	-14.6258	-67.173902	0.000416	4.155206	1.407822	-0.000166
1373	1.3651e+02	-14.6579	-67.355573	0.000456	4.560592	1.545170	-0.000183
1374	1.3661e+02	-14.7060	-67.504947	0.000375	3.749820	1.270473	-0.000150
1375	1.3671e+02	-14.7477	-67.666432	0.000405	4.053859	1.373485	-0.000162
1376	1.3681e+02	-14.7878	-67.876363	0.000527	5.270017	1.785530	-0.000211
1377	1.3691e+02	-14.8151	-68.001514	0.000314	3.141741	1.064451	-0.000126
1378	1.3701e+02	-14.8728	-68.179148	0.000446	4.459245	1.510833	-0.000179
1379	1.3711e+02	-14.9049	-68.344671	0.000416	4.155206	1.407822	-0.000166
1380	1.3721e+02	-14.9434	-68.534416	0.000476	4.763285	1.613845	-0.000191
1381	1.3731e+02	-14.9771	-68.631308	0.000243	2.432316	0.824091	-0.000097
1382	1.3741e+02	-15.0317	-68.853350	0.000557	5.574057	1.888542	-0.000223
1383	1.3751e+02	-15.0670	-68.986575	0.000334	3.344434	1.133125	-0.000134
1384	1.3761e+02	-15.1022	-69.152098	0.000416	4.155206	1.407822	-0.000166
1385	1.3771e+02	-15.1440	-69.345881	0.000486	4.864631	1.648182	-0.000195
1386	1.3781e+02	-15.1889	-69.483143	0.000345	3.445780	1.167462	-0.000138
1387	1.3791e+02	-15.2226	-69.668851	0.000466	4.661938	1.579507	-0.000187
1388	1.3801e+02	-15.2579	-69.802077	0.000334	3.344434	1.133125	-0.000134
1389	1.3811e+02	-15.3044	-69.987785	0.000466	4.661938	1.579507	-0.000187
1390	1.3821e+02	-15.3429	-70.137159	0.000375	3.749820	1.270473	-0.000150
1391	1.3831e+02	-15.3814	-70.326905	0.000476	4.763285	1.613845	-0.000191
1392	1.3840e+02	-15.4231	-70.488390	0.000405	4.053859	1.373485	-0.000162
1393	1.3850e+02	-15.4648	-70.629690	0.000355	3.547127	1.201799	-0.000142
1394	1.3860e+02	-15.5017	-70.835584	0.000517	5.168671	1.751193	-0.000207
1395	1.3870e+02	-15.5434	-71.013218	0.000446	4.459245	1.510833	-0.000179
1396	1.3880e+02	-15.5835	-71.130295	0.000294	2.939048	0.995776	-0.000118
1397	1.3890e+02	-15.6204	-71.311966	0.000456	4.560592	1.545170	-0.000183
1398	1.3900e+02	-15.6605	-71.461340	0.000375	3.749820	1.270473	-0.000150
1399	1.3910e+02	-15.7070	-71.626862	0.000416	4.155206	1.407822	-0.000166
1400	1.3920e+02	-15.7359	-71.800459	0.000436	4.357899	1.476496	-0.000174
1401	1.3930e+02	-15.7857	-71.929647	0.000324	3.243087	1.098788	-0.000130
1402	1.3940e+02	-15.8209	-72.095170	0.000416	4.155206	1.407822	-0.000166
1403	1.3950e+02	-15.8643	-72.284915	0.000476	4.763285	1.613845	-0.000191
1404	1.3960e+02	-15.8996	-72.454475	0.000426	4.256552	1.442159	-0.000170
1405	1.3970e+02	-15.9397	-72.648258	0.000486	4.864631	1.648182	-0.000195
1406	1.3980e+02	-15.9830	-72.749186	0.000253	2.533662	0.858428	-0.000101
1407	1.3990e+02	-16.0215	-72.942969	0.000486	4.864631	1.648182	-0.000195
1408	1.4000e+02	-16.0600	-73.056008	0.000284	2.837702	0.961439	-0.000114
1409	1.4010e+02	-16.1081	-73.269977	0.000537	5.371364	1.819867	-0.000215
1410	1.4020e+02	-16.1450	-73.415313	0.000365	3.648473	1.236136	-0.000146
1411	1.4029e+02	-16.1723	-73.576799	0.000405	4.053859	1.373485	-0.000162
1412	1.4039e+02	-16.2220	-73.762507	0.000466	4.661938	1.579507	-0.000187
1413	1.4049e+02	-16.2557	-73.907844	0.000365	3.648473	1.236136	-0.000146
1414	1.4059e+02	-16.3006	-74.085478	0.000446	4.459245	1.510833	-0.000179
1415	1.4069e+02	-16.3439	-74.222741	0.000345	3.445780	1.167462	-0.000138
1416	1.4079e+02	-16.3824	-74.408449	0.000466	4.661938	1.579507	-0.000187
1417	1.4089e+02	-16.4241	-74.525526	0.000294	2.939048	0.995776	-0.000118
1418	1.4099e+02	-16.4562	-74.691048	0.000416	4.155206	1.407822	-0.000166
1419	1.4109e+02	-16.4995	-74.884831	0.000486	4.864631	1.648182	-0.000195
1420	1.4119e+02	-16.5396	-75.046316	0.000405	4.053859	1.373485	-0.000162
1421	1.4129e+02	-16.5765	-75.203765	0.000395	3.952513	1.339148	-0.000158
1422	1.4139e+02	-16.6215	-75.365250	0.000405	4.053859	1.373485	-0.000162
1423	1.4149e+02	-16.6616	-75.550958	0.000466	4.661938	1.579507	-0.000187
1424	1.4159e+02	-16.6904	-75.700332	0.000375	3.749820	1.270473	-0.000150
1425	1.4169e+02	-16.7402	-75.833558	0.000334	3.344434	1.133125	-0.000134
1426	1.4179e+02	-16.7739	-76.043489	0.000527	5.270017	1.785530	-0.000211
1427	1.4189e+02	-16.8236	-76.180751	0.000345	3.445780	1.167462	-0.000138
1428	1.4199e+02	-16.8653	-76.374534	0.000486	4.864631	1.648182	-0.000195
1429	1.4209e+02	-16.8942	-76.511797	0.000345	3.445780	1.167462	-0.000138
1430	1.4219e+02	-16.9311	-76.689430	0.000446	4.459245	1.510833	-0.000179
1431	1.4228e+02	-16.9760	-76.854953	0.000416	4.155206	1.407822	-0.000166
1432	1.4238e+02	-17.0177	-77.004327	0.000375	3.749820	1.270473	-0.000150
1433	1.4248e+02	-17.0530	-77.161775	0.000395	3.952513	1.339148	-0.000158
1434	1.4258e+02	-17.0979	-77.311149	0.000375	3.749820	1.270473	-0.000150
1435	1.4268e+02	-17.1316	-77.500895	0.000476	4.763285	1.613845	-0.000191
1436	1.4278e+02	-17.1733	-77.690640	0.000476	4.763285	1.613845	-0.000191
1437	1.4288e+02	-17.2198	-77.848088	0.000395	3.952513	1.339148	-0.000158
1438	1.4298e+02	-17.2599	-77.989388	0.000355	3.547127	1.201799	-0.000142
1439	1.4308e+02	-17.3049	-78.187208	0.000497	4.965978	1.682519	-0.000199
1440	1.4318e+02	-17.3305	-78.300248	0.000284	2.837702	0.961439	-0.000114
1441	1.4328e+02	-17.3754	-78.506142	0.000517	5.168671	1.751193	-0.000207
1442	1.4338e+02	-17.4204	-78.667627	0.000405	4.053859	1.373485	-0.000162
1443	1.4348e+02	-17.4541	-78.845261	0.000446	4.459245	1.510833	-0.000179
1444	1.4358e+02	-17.4910	-78.982524	0.000345	3.445780	1.167462	-0.000138
1445	1.4368e+02	-17.5375	-79.168232	0.000466	4.661938	1.579507	-0.000187
1446	1.4378e+02	-17.5792	-79.345866	0.000446	4.459245	1.510833	-0.000179
1447	1.4388e+02	-17.6161	-79.503314	0.000395	3.952513	1.339148	-0.000158
1448	1.4398e+02	-17.6594	-79.676911	0.000436	4.357899	1.476496	-0.000174
1449	1.4408e+02	-17.6995	-79.818211	0.000355	3.547127	1.201799	-0.000142
1450	1.4418e+02	-17.7300	-79.963548	0.000365	3.648473	1.236136	-0.000146
1451	1.4428e+02	-17.7685	-80.161367	0.000497	4.965978	1.682519	-0.000199
1452	1.4437e+02	-17.8086	-80.355150	0.000486	4.864631	1.648182	-0.000195
1453	1.4447e+02	-17.8551	-80.492412	0.000345	3.445780	1.167462	-0.000138
1454	1.4457e+02	-17.8952	-80.637749	0.000365	3.648473	1.236136	-0.000146
1455	1.4467e+02	-17.9321	-80.819420	0.000456	4.560592	1.545170	-0.000183
1456	1.4477e+02	-17.9786	-80.952646	0.000334	3.344434	1.133125	-0.000134
1457	1.4487e+02	-18.0171	-81.150465	0.000497	4.965978	1.682519	-0.000199
1458	1.4497e+02	-18.0508	-81.307914	0.000395	3.952513	1.339148	-0.000158
1459	1.4507e+02	-18.0974	-81.469399	0.000405	4.053859	1.373485	-0.000162
1460	1.4517e+02	-18.1246	-81.642996	0.000436	4.357899	1.476496	-0.000174
1461	1.4527e+02	-18.1776	-81.792370	0.000375	3.749820	1.270473	-0.000150
1462	1.4537e+02	-18.2113	-81.929633	0.000345	3.445780	1.167462	-0.000138
1463	1.4547e+02	-18.2562	-82.103230	0.000436	4.357899	1.476496	-0.000174
1464	1.4557e+02	-18.3011	-82.292975	0.000476	4.763285	1.613845	-0.000191
1465	1.4567e+02	-18.3348	-82.446386	0.000385	3.851166	1.304810	-0.000154
1466	1.4577e+02	-18.3637	-82.652280	0.000517	5.168671	1.751193	-0.000207
1467	1.4587e+02	-18.4182	-82.749171	0.000243	2.432316	0.824091	-0.000097
1468	1.4597e+02	-18.4471	-82.938917	0.000476	4.763285	1.613845	-0.000191
1469	1.4607e+02	-18.4888	-83.140773	0.000507	5.067324	1.716856	-0.000203
1470	1.4617e+02	-18.5273	-83.298222	0.000395	3.952513	1.339148	-0.000158
1471	1.4626e+02	-18.5770	-83.463744	0.000416	4.155206	1.407822	-0.000166
1472	1.4636e+02	-18.5995	-83.629267	0.000416	4.155206	1.407822	-0.000166
1473	1.4646e+02	-18.6540	-83.790752	0.000405	4.053859	1.373485	-0.000162
1474	1.4656e+02	-18.6925	-83.952238	0.000405	4.053859	1.373485	-0.000162
1475	1.4666e+02	-18.7326	-84.146020	0.000486	4.864631	1.648182	-0.000195
1476	1.4676e+02	-18.7727	-84.331728	0.000466	4.661938	1.579507	-0.000187
1477	1.4686e+02	-18.8128	-84.464954	0.000334	3.344434	1.133125	-0.000134
1478	1.4696e+02	-18.8497	-84.638551	0.000436	4.357899	1.476496	-0.000174
1479	1.4706e+02	-18.8866	-84.779850	0.000355	3.547127	1.201799	-0.000142
1480	1.4716e+02	-18.9219	-85.022079	0.000608	6.080789	2.060227	-0.000243
1481	1.4726e+02	-18.9701	-85.175490	0.000385	3.851166	1.304810	-0.000154
1482	1.4736e+02	-19.0118	-85.284492	0.000274	2.736355	0.927102	-0.000110
1483	1.4746e+02	-19.0551	-85.518646	0.000588	5.878096	1.991553	-0.000235
1484	1.4756e+02	-19.0920	-85.684169	0.000416	4.155206	1.407822	-0.000166
1485	1.4766e+02	-19.1337	-85.825469	0.000355	3.547127	1.201799	-0.000142
1486	1.4776e+02	-19.1658	-85.986954	0.000405	4.053859	1.373485	-0.000162
1487	1.4786e+02	-19.1995	-86.180737	0.000486	4.864631	1.648182	-0.000195
1488	1.4796e+02	-19.2524	-86.350296	0.000426	4.256552	1.442159	-0.000170
1489	1.4806e+02	-19.2845	-86.507745	0.000395	3.952513	1.339148	-0.000158
1490	1.4816e+02	-19.3326	-86.701527	0.000486	4.864631	1.648182	-0.000195
1491	1.4825e+02	-19.3615	-86.895310	0.000486	4.864631	1.648182	-0.000195
1492	1.4835e+02	-19.4064	-87.048721	0.000385	3.851166	1.304810	-0.000154
1493	1.4845e+02	-19.4481	-87.246540	0.000497	4.965978	1.682519	-0.000199
1494	1.4855e+02	-19.4802	-87.371692	0.000314	3.141741	1.064451	-0.000126
1495	1.4865e+02	-19.5299	-87.581623	0.000527	5.270017	1.785530	-0.000211
1496	1.4875e+02	-19.5652	-87.751182	0.000426	4.256552	1.442159	-0.000170
1497	1.4885e+02	-19.6101	-87.904594	0.000385	3.851166	1.304810	-0.000154
1498	1.4895e+02	-19.6438	-88.094339	0.000476	4.763285	1.613845	-0.000191
1499	1.4905e+02	-19.6904	-88.276010	0.000456	4.560592	1.545170	-0.000183
1500	1.4915e+02	-19.7256	-88.506127	0.000578	5.776750	1.957216	-0.000231
1501	1.4925e+02	-19.7706	-88.655501	0.000375	3.749820	1.270473	-0.000150
1502	1.4935e+02	-19.8059	-88.833135	0.000446	4.459245	1.510833	-0.000179
1503	1.4945e+02	-19.8460	-88.982509	0.000375	3.749820	1.270473	-0.000150
1504	1.4955e+02	-19.8797	-89.168217	0.000466	4.661938	1.579507	-0.000187
1505	1.4965e+02	-19.9326	-89.325665	0.000395	3.952513	1.339148	-0.000158
1506	1.4975e+02	-19.9615	-89.523485	0.000497	4.965978	1.682519	-0.000199
1507	1.4985e+02	-20.0080	-89.713230	0.000476	4.763285	1.613845	-0.000191
1508	1.4995e+02	-19.9647	-89.632488	0.000203	2.026930	0.686742	0.000081
1509	1.5005e+02	-19.9262	-89.543671	0.000223	2.229623	0.755417	0.000089
1510	1.5015e+02	-19.8829	-89.483114	0.000152	1.520197	0.515057	0.000061
1511	1.5025e+02	-19.8524	-89.390260	0.000233	2.330969	0.789754	0.000093
1512	1.5034e+02	-19.8043	-89.313554	0.000193	1.925583	0.652405	0.000077
1513	1.5044e+02	-19.7690	-89.236848	0.000193	1.925583	0.652405	0.000077
1514	1.5054e+02	-19.7224	-89.095549	0.000355	3.547127	1.201799	0.000142
1515	1.5064e+02	-19.6855	-89.006732	0.000223	2.229623	0.755417	0.000089
1516	1.5074e+02	-19.6406	-88.942137	0.000162	1.621544	0.549394	0.000065
1517	1.5084e+02	-19.6085	-88.857358	0.000213	2.128276	0.721079	0.000085
1518	1.5094e+02	-19.5668	-88.744318	0.000284	2.837702	0.961439	0.000114
1519	1.5104e+02	-19.5219	-88.679724	0.000162	1.621544	0.549394	0.000065
1520	1.5114e+02	-19.4834	-88.518238	0.000405	4.053859	1.373485	0.000162
1521	1.5124e+02	-19.4449	-88.409236	0.000274	2.736355	0.927102	0.000110
1522	1.5134e+02	-19.3984	-88.332530	0.000193	1.925583	0.652405	0.000077
1523	1.5144e+02	-19.3711	-88.243713	0.000223	2.229623	0.755417	0.000089
1524	1.5154e+02	-19.3294	-88.138747	0.000264	2.635009	0.892765	0.000105
1525	1.5164e+02	-19.2845	-88.013596	0.000314	3.141741	1.064451	0.000126
1526	1.5174e+02	-19.2492	-87.888445	0.000314	3.141741	1.064451	0.000126
1527	1.5184e+02	-19.2123	-87.823851	0.000162	1.621544	0.549394	0.000065
1528	1.5194e+02	-19.1706	-87.694663	0.000324	3.243087	1.098788	0.000130
1529	1.5204e+02	-19.1305	-87.617957	0.000193	1.925583	0.652405	0.000077
1530	1.5214e+02	-19.0920	-87.476657	0.000355	3.547127	1.201799	0.000142
1531	1.5224e+02	-19.0535	-87.351506	0.000314	3.141741	1.064451	0.000126
1532	1.5233e+02	-19.0150	-87.246540	0.000264	2.635009	0.892765	0.000105
1533	1.5243e+02	-18.9765	-87.105241	0.000355	3.547127	1.201799	0.000142
1534	1.5253e+02	-18.9235	-87.040647	0.000162	1.621544	0.549394	0.000065
1535	1.5263e+02	-18.8898	-86.923570	0.000294	2.939048	0.995776	0.000118
1536	1.5273e+02	-18.8529	-86.774196	0.000375	3.749820	1.270473	0.000150
1537	1.5283e+02	-18.8080	-86.717676	0.000142	1.418851	0.480720	0.000057
1538	1.5293e+02	-18.7743	-86.560227	0.000395	3.952513	1.339148	0.000158
1539	1.5303e+02	-18.7310	-86.467373	0.000233	2.330969	0.789754	0.000093
1540	1.5313e+02	-18.6925	-86.366445	0.000253	2.533662	0.858428	0.000101
1541	1.5323e+02	-18.6604	-86.257442	0.000274	2.736355	0.927102	0.000110
1542	1.5333e+02	-18.6123	-86.140365	0.000294	2.939048	0.995776	0.000118
1543	1.5343e+02	-18.5722	-86.007140	0.000334	3.344434	1.133125	0.000134
1544	1.5353e+02	-18.5337	-85.938508	0.000172	1.722890	0.583731	0.000069
1545	1.5363e+02	-18.4856	-85.760874	0.000446	4.459245	1.510833	0.000179
1546	1.5373e+02	-18.4407	-85.708392	0.000132	1.317504	0.446383	0.000053
1547	1.5383e+02	-18.4022	-85.567092	0.000355	3.547127	1.201799	0.000142
1548	1.5393e+02	-18.3717	-85.437904	0.000324	3.243087	1.098788	0.000130
1549	1.5403e+02	-18.3412	-85.308715	0.000324	3.243087	1.098788	0.000130
1550	1.5413e+02	-18.2866	-85.223935	0.000213	2.128276	0.721079	0.000085
1551	1.5422e+02	-18.2498	-85.106858	0.000294	2.939048	0.995776	0.000118
1552	1.5432e+02	-18.2209	-84.969596	0.000345	3.445780	1.167462	0.000138
1553	1.5442e+02	-18.1631	-84.856556	0.000284	2.837702	0.961439	0.000114
1554	1.5452e+02	-18.1294	-84.759665	0.000243	2.432316	0.824091	0.000097
1555	1.5462e+02	-18.0941	-84.614328	0.000365	3.648473	1.236136	0.000146
1556	1.5472e+02	-18.0540	-84.525511	0.000223	2.229623	0.755417	0.000089
1557	1.5482e+02	-18.0059	-84.412471	0.000284	2.837702	0.961439	0.000114
1558	1.5492e+02	-17.9706	-84.246949	0.000416	4.155206	1.407822	0.000166
1559	1.5502e+02	-17.9369	-84.133909	0.000284	2.837702	0.961439	0.000114
1560	1.5512e+02	-17.9016	-84.024906	0.000274	2.736355	0.927102	0.000110
1561	1.5522e+02	-17.8583	-83.891681	0.000334	3.344434	1.133125	0.000134
1562	1.5532e+02	-17.8198	-83.766529	0.000314	3.141741	1.064451	0.000126
1563	1.5542e+02	-17.7749	-83.657527	0.000274	2.736355	0.927102	0.000110
1564	1.5552e+02	-17.7268	-83.520264	0.000345	3.445780	1.167462	0.000138
1565	1.5562e+02	-17.6979	-83.411261	0.000274	2.736355	0.927102	0.000110
1566	1.5572e+02	-17.6546	-83.306296	0.000264	2.635009	0.892765	0.000105
1567	1.5582e+02	-17.6081	-83.169033	0.000345	3.445780	1.167462	0.000138
1568	1.5592e+02	-17.5728	-83.035808	0.000334	3.344434	1.133125	0.000134
1569	1.5602e+02	-17.5391	-82.926805	0.000274	2.736355	0.927102	0.000110
1570	1.5612e+02	-17.4958	-82.809728	0.000294	2.939048	0.995776	0.000118
1571	1.5622e+02	-17.4605	-82.700726	0.000274	2.736355	0.927102	0.000110
1572	1.5631e+02	-17.4172	-82.551352	0.000375	3.749820	1.270473	0.000150
1573	1.5641e+02	-17.3803	-82.410052	0.000355	3.547127	1.201799	0.000142
1574	1.5651e+02	-17.3369	-82.305086	0.000264	2.635009	0.892765	0.000105
1575	1.5661e+02	-17.3113	-82.175898	0.000324	3.243087	1.098788	0.000130
1576	1.5671e+02	-17.2599	-82.070932	0.000264	2.635009	0.892765	0.000105
1577	1.5681e+02	-17.2134	-81.917521	0.000385	3.851166	1.304810	0.000154
1578	1.5691e+02	-17.1765	-81.800444	0.000294	2.939048	0.995776	0.000118
1579	1.5701e+02	-17.1412	-81.622810	0.000446	4.459245	1.510833	0.000179
1580	1.5711e+02	-17.1027	-81.509771	0.000284	2.837702	0.961439	0.000114
1581	1.5721e+02	-17.0562	-81.453251	0.000142	1.418851	0.480720	0.000057
1582	1.5731e+02	-17.0225	-81.291765	0.000405	4.053859	1.373485	0.000162
1583	1.5741e+02	-16.9712	-81.146428	0.000365	3.648473	1.236136	0.000146
1584	1.5751e+02	-16.9407	-81.025314	0.000304	3.040395	1.030114	0.000122
1585	1.5761e+02	-16.8942	-80.896126	0.000324	3.243087	1.098788	0.000130
1586	1.5771e+02	-16.8589	-80.754826	0.000355	3.547127	1.201799	0.000142
1587	1.5781e+02	-16.8268	-80.645824	0.000274	2.736355	0.927102	0.000110
1588	1.5791e+02	-16.7706	-80.524709	0.000304	3.040395	1.030114	0.000122
1589	1.5801e+02	-16.7289	-80.375335	0.000375	3.749820	1.270473	0.000150
1590	1.5811e+02	-16.7017	-80.278444	0.000243	2.432316	0.824091	0.000097
1591	1.5821e+02	-16.6584	-80.068513	0.000527	5.270017	1.785530	0.000211
1592	1.5830e+02	-16.6134	-79.987770	0.000203	2.026930	0.686742	0.000081
1593	1.5840e+02	-16.5749	-79.882805	0.000264	2.635009	0.892765	0.000105
1594	1.5850e+02	-16.5380	-79.761691	0.000304	3.040395	1.030114	0.000122
1595	1.5860e+02	-16.4899	-79.584057	0.000446	4.459245	1.510833	0.000179
1596	1.5870e+02	-16.4578	-79.462943	0.000304	3.040395	1.030114	0.000122
1597	1.5880e+02	-16.4225	-79.349903	0.000284	2.837702	0.961439	0.000114
1598	1.5890e+02	-16.3872	-79.244937	0.000264	2.635009	0.892765	0.000105
1599	1.5900e+02	-16.3407	-79.083452	0.000405	4.053859	1.373485	0.000162
1600	1.5910e+02	-16.3006	-78.954264	0.000324	3.243087	1.098788	0.000130
1601	1.5920e+02	-16.2653	-78.837187	0.000294	2.939048	0.995776	0.000118
1602	1.5930e+02	-16.2220	-78.695887	0.000355	3.547127	1.201799	0.000142
1603	1.5940e+02	-16.1787	-78.562661	0.000334	3.344434	1.133125	0.000134
1604	1.5950e+02	-16.1306	-78.461733	0.000253	2.533662	0.858428	0.000101
1605	1.5960e+02	-16.1081	-78.304285	0.000395	3.952513	1.339148	0.000158
1606	1.5970e+02	-16.0600	-78.183171	0.000304	3.040395	1.030114	0.000122
1607	1.5980e+02	-16.0199	-78.049945	0.000334	3.344434	1.133125	0.000134
1608	1.5990e+02	-15.9733	-77.936905	0.000284	2.837702	0.961439	0.000114
1609	1.6000e+02	-15.9493	-77.815791	0.000304	3.040395	1.030114	0.000122
1610	1.6010e+02	-15.9124	-77.686603	0.000324	3.243087	1.098788	0.000130
1611	1.6019e+02	-15.8643	-77.508969	0.000446	4.459245	1.510833	0.000179
1612	1.6029e+02	-15.8097	-77.399966	0.000274	2.736355	0.927102	0.000110
1613	1.6039e+02	-15.7824	-77.270778	0.000324	3.243087	1.098788	0.000130
1614	1.6049e+02	-15.7488	-77.113330	0.000395	3.952513	1.339148	0.000158
1615	1.6059e+02	-15.7086	-76.992216	0.000304	3.040395	1.030114	0.000122
1616	1.6069e+02	-15.6605	-76.818619	0.000436	4.357899	1.476496	0.000174
1617	1.6079e+02	-15.6284	-76.681356	0.000345	3.445780	1.167462	0.000138
1618	1.6089e+02	-15.5899	-76.588502	0.000233	2.330969	0.789754	0.000093
1619	1.6099e+02	-15.5514	-76.398757	0.000476	4.763285	1.613845	0.000191
1620	1.6109e+02	-15.5049	-76.330125	0.000172	1.722890	0.583731	0.000069
1621	1.6119e+02	-15.4664	-76.160566	0.000426	4.256552	1.442159	0.000170
1622	1.6129e+02	-15.4263	-76.063674	0.000243	2.432316	0.824091	0.000097
1623	1.6139e+02	-15.3814	-75.886040	0.000446	4.459245	1.510833	0.000179
1624	1.6149e+02	-15.3493	-75.708406	0.000446	4.459245	1.510833	0.000179
1625	1.6159e+02	-15.2996	-75.595367	0.000284	2.837702	0.961439	0.000114
1626	1.6169e+02	-15.2643	-75.478290	0.000294	2.939048	0.995776	0.000118
1627	1.6179e+02	-15.2242	-75.296619	0.000456	4.560592	1.545170	0.000183
1628	1.6189e+02	-15.1873	-75.199727	0.000243	2.432316	0.824091	0.000097
1629	1.6199e+02	-15.1456	-75.050353	0.000375	3.749820	1.270473	0.000150
1630	1.6209e+02	-15.1022	-74.892905	0.000395	3.952513	1.339148	0.000158
1631	1.6219e+02	-15.0605	-74.796014	0.000243	2.432316	0.824091	0.000097
1632	1.6228e+02	-15.0172	-74.638566	0.000395	3.952513	1.339148	0.000158
1633	1.6238e+02	-14.9851	-74.448820	0.000476	4.763285	1.613845	0.000191
1634	1.6248e+02	-14.9563	-74.339817	0.000274	2.736355	0.927102	0.000110
1635	1.6258e+02	-14.9113	-74.186406	0.000385	3.851166	1.304810	0.000154
1636	1.6268e+02	-14.8696	-74.041069	0.000365	3.648473	1.236136	0.000146
1637	1.6278e+02	-14.8327	-73.923992	0.000294	2.939048	0.995776	0.000118
1638	1.6288e+02	-14.7894	-73.758470	0.000416	4.155206	1.407822	0.000166
1639	1.6298e+02	-14.7301	-73.625244	0.000334	3.344434	1.133125	0.000134
1640	1.6308e+02	-14.7124	-73.475870	0.000375	3.749820	1.270473	0.000150
1641	1.6318e+02	-14.6675	-73.346682	0.000324	3.243087	1.098788	0.000130
1642	1.6328e+02	-14.6210	-73.209419	0.000345	3.445780	1.167462	0.000138
1643	1.6338e+02	-14.5793	-73.084268	0.000314	3.141741	1.064451	0.000126
1644	1.6348e+02	-14.5488	-72.938931	0.000365	3.648473	1.236136	0.000146
1645	1.6358e+02	-14.5071	-72.777446	0.000405	4.053859	1.373485	0.000162
1646	1.6368e+02	-14.4622	-72.619998	0.000395	3.952513	1.339148	0.000158
1647	1.6378e+02	-14.4253	-72.466586	0.000385	3.851166	1.304810	0.000154
1648	1.6388e+02	-14.3900	-72.345472	0.000304	3.040395	1.030114	0.000122
1649	1.6398e+02	-14.3563	-72.208210	0.000345	3.445780	1.167462	0.000138
1650	1.6408e+02	-14.3114	-72.046724	0.000405	4.053859	1.373485	0.000162
1651	1.6418e+02	-14.2648	-71.901387	0.000365	3.648473	1.236136	0.000146
1652	1.6427e+02	-14.2376	-71.760088	0.000355	3.547127	1.201799	0.000142
1653	1.6437e+02	-14.1910	-71.610714	0.000375	3.749820	1.270473	0.000150
1654	1.6447e+02	-14.1413	-71.489600	0.000304	3.040395	1.030114	0.000122
1655	1.6457e+02	-14.1012	-71.356374	0.000334	3.344434	1.133125	0.000134
1656	1.6467e+02	-14.0643	-71.182777	0.000436	4.357899	1.476496	0.000174
1657	1.6477e+02	-14.0274	-71.081849	0.000253	2.533662	0.858428	0.000101
1658	1.6487e+02	-13.9889	-70.928438	0.000385	3.851166	1.304810	0.000154
1659	1.6497e+02	-13.9552	-70.803287	0.000314	3.141741	1.064451	0.000126
1660	1.6507e+02	-13.9119	-70.597393	0.000517	5.168671	1.751193	0.000207
1661	1.6517e+02	-13.8734	-70.464167	0.000334	3.344434	1.133125	0.000134
1662	1.6527e+02	-13.8237	-70.347090	0.000294	2.939048	0.995776	0.000118
1663	1.6537e+02	-13.7852	-70.209828	0.000345	3.445780	1.167462	0.000138
1664	1.6547e+02	-13.7467	-70.040268	0.000426	4.256552	1.442159	0.000170
1665	1.6557e+02	-13.7082	-69.915117	0.000314	3.141741	1.064451	0.000126
1666	1.6567e+02	-13.6713	-69.757668	0.000395	3.952513	1.339148	0.000158
1667	1.6577e+02	-13.6280	-69.608294	0.000375	3.749820	1.270473	0.000150
1668	1.6587e+02	-13.5927	-69.491217	0.000294	2.939048	0.995776	0.000118
1669	1.6597e+02	-13.5510	-69.325695	0.000416	4.155206	1.407822	0.000166
1670	1.6607e+02	-13.5157	-69.144024	0.000456	4.560592	1.545170	0.000183
1671	1.6616e+02	-13.4723	-69.047133	0.000243	2.432316	0.824091	0.000097
1672	1.6626e+02	-13.4242	-68.865461	0.000456	4.560592	1.545170	0.000183
1673	1.6636e+02	-13.3937	-68.708013	0.000395	3.952513	1.339148	0.000158
1674	1.6646e+02	-13.3392	-68.599010	0.000274	2.736355	0.927102	0.000110
1675	1.6656e+02	-13.3167	-68.469822	0.000324	3.243087	1.098788	0.000130
1676	1.6666e+02	-13.2686	-68.312374	0.000395	3.952513	1.339148	0.000158
1677	1.6676e+02	-13.2301	-68.171074	0.000355	3.547127	1.201799	0.000142
1678	1.6686e+02	-13.1868	-68.005552	0.000416	4.155206	1.407822	0.000166
1679	1.6696e+02	-13.1467	-67.831955	0.000436	4.357899	1.476496	0.000174
1680	1.6706e+02	-13.1114	-67.686618	0.000365	3.648473	1.236136	0.000146
1681	1.6716e+02	-13.0681	-67.549355	0.000345	3.445780	1.167462	0.000138
1682	1.6726e+02	-13.0376	-67.391907	0.000395	3.952513	1.339148	0.000158
1683	1.6736e+02	-12.9991	-67.218310	0.000436	4.357899	1.476496	0.000174
1684	1.6746e+02	-12.9526	-67.109307	0.000274	2.736355	0.927102	0.000110
1685	1.6756e+02	-12.9157	-66.947822	0.000405	4.053859	1.373485	0.000162
1686	1.6766e+02	-12.8740	-66.810559	0.000345	3.445780	1.167462	0.000138
1687	1.6776e+02	-12.8355	-66.649074	0.000405	4.053859	1.373485	0.000162
1688	1.6786e+02	-12.7986	-66.463366	0.000466	4.661938	1.579507	0.000187
1689	1.6796e+02	-12.7537	-66.350326	0.000284	2.837702	0.961439	0.000114
1690	1.6806e+02	-12.7087	-66.188840	0.000405	4.053859	1.373485	0.000162
1691	1.6816e+02	-12.6783	-66.007169	0.000456	4.560592	1.545170	0.000183
1692	1.6825e+02	-12.6381	-65.890092	0.000294	2.939048	0.995776	0.000118
1693	1.6835e+02	-12.5964	-65.756867	0.000334	3.344434	1.133125	0.000134
1694	1.6845e+02	-12.5515	-65.595381	0.000405	4.053859	1.373485	0.000162
1695	1.6855e+02	-12.5130	-65.494453	0.000253	2.533662	0.858428	0.000101
1696	1.6865e+02	-12.4793	-65.300671	0.000486	4.864631	1.648182	0.000195
1697	1.6875e+02	-12.4360	-65.106888	0.000486	4.864631	1.648182	0.000195
1698	1.6885e+02	-12.4055	-64.977700	0.000324	3.243087	1.098788	0.000130
1699	1.6895e+02	-12.3526	-64.832363	0.000365	3.648473	1.236136	0.000146
1700	1.6905e+02	-12.3221	-64.666840	0.000416	4.155206	1.407822	0.000166
1701	1.6915e+02	-12.2660	-64.557838	0.000274	2.736355	0.927102	0.000110
1702	1.6925e+02	-12.2371	-64.376166	0.000456	4.560592	1.545170	0.000183
1703	1.6935e+02	-12.1954	-64.226792	0.000375	3.749820	1.270473	0.000150
1704	1.6945e+02	-12.1601	-64.085493	0.000355	3.547127	1.201799	0.000142
1705	1.6955e+02	-12.1039	-63.952267	0.000334	3.344434	1.133125	0.000134
1706	1.6965e+02	-12.0863	-63.810967	0.000355	3.547127	1.201799	0.000142
1707	1.6975e+02	-12.0350	-63.617185	0.000486	4.864631	1.648182	0.000195
1708	1.6985e+02	-11.9981	-63.475885	0.000355	3.547127	1.201799	0.000142
1709	1.6995e+02	-11.9612	-63.346697	0.000324	3.243087	1.098788	0.000130
1710	1.7005e+02	-11.9211	-63.217509	0.000324	3.243087	1.098788	0.000130
1711	1.7015e+02	-11.8793	-63.080246	0.000345	3.445780	1.167462	0.000138
1712	1.7024e+02	-11.8264	-62.838018	0.000608	6.080789	2.060227	0.000243
1713	1.7034e+02	-11.7975	-62.737089	0.000253	2.533662	0.858428	0.000101
1714	1.7044e+02	-11.7462	-62.587715	0.000375	3.749820	1.270473	0.000150
1715	1.7054e+02	-11.7141	-62.442378	0.000365	3.648473	1.236136	0.000146
1716	1.7064e+02	-11.6804	-62.288967	0.000385	3.851166	1.304810	0.000154
1717	1.7074e+02	-11.6419	-62.103259	0.000466	4.661938	1.579507	0.000187
1718	1.7084e+02	-11.5986	-61.945811	0.000395	3.952513	1.339148	0.000158
1719	1.7094e+02	-11.5601	-61.832771	0.000284	2.837702	0.961439	0.000114
1720	1.7104e+02	-11.5152	-61.659174	0.000436	4.357899	1.476496	0.000174
1721	1.7114e+02	-11.4767	-61.542097	0.000294	2.939048	0.995776	0.000118
1722	1.7124e+02	-11.4510	-61.352352	0.000476	4.763285	1.613845	0.000191
1723	1.7134e+02	-11.4045	-61.231238	0.000304	3.040395	1.030114	0.000122
1724	1.7144e+02	-11.3628	-61.061678	0.000426	4.256552	1.442159	0.000170
1725	1.7154e+02	-11.3195	-60.900193	0.000405	4.053859	1.373485	0.000162
1726	1.7164e+02	-11.2778	-60.799264	0.000253	2.533662	0.858428	0.000101
1727	1.7174e+02	-11.2312	-60.641816	0.000395	3.952513	1.339148	0.000158
1728	1.7184e+02	-11.2088	-60.472256	0.000426	4.256552	1.442159	0.000170
1729	1.7194e+02	-11.1574	-60.339031	0.000334	3.344434	1.133125	0.000134
1730	1.7204e+02	-11.1141	-60.149285	0.000476	4.763285	1.613845	0.000191
1731	1.7213e+02	-11.0820	-59.975689	0.000436	4.357899	1.476496	0.000174
1732	1.7223e+02	-11.0435	-59.798055	0.000446	4.459245	1.510833	0.000179
1733	1.7233e+02	-11.0034	-59.664829	0.000334	3.344434	1.133125	0.000134
1734	1.7243e+02	-10.9665	-59.551789	0.000284	2.837702	0.961439	0.000114
1735	1.7253e+02	-10.9152	-59.378192	0.000436	4.357899	1.476496	0.000174
1736	1.7263e+02	-10.8815	-59.180373	0.000497	4.965978	1.682519	0.000199
1737	1.7273e+02	-10.8382	-59.059259	0.000304	3.040395	1.030114	0.000122
1738	1.7283e+02	-10.8061	-58.901810	0.000395	3.952513	1.339148	0.000158
1739	1.7293e+02	-10.7628	-58.756474	0.000365	3.648473	1.236136	0.000146
1740	1.7303e+02	-10.7243	-58.594988	0.000405	4.053859	1.373485	0.000162
1741	1.7313e+02	-10.6858	-58.425428	0.000426	4.256552	1.442159	0.000170
1742	1.7323e+02	-10.6409	-58.288166	0.000345	3.445780	1.167462	0.000138
1743	1.7333e+02	-10.6024	-58.094383	0.000486	4.864631	1.648182	0.000195
1744	1.7343e+02	-10.5510	-57.977306	0.000294	2.939048	0.995776	0.000118
1745	1.7353e+02	-10.5254	-57.743152	0.000588	5.878096	1.991553	0.000235
1746	1.7363e+02	-10.4869	-57.666447	0.000193	1.925583	0.652405	0.000077
1747	1.7373e+02	-10.4355	-57.513036	0.000385	3.851166	1.304810	0.000154
1748	1.7383e+02	-10.4051	-57.351550	0.000405	4.053859	1.373485	0.000162
1749	1.7393e+02	-10.3601	-57.133545	0.000547	5.472710	1.854204	0.000219
1750	1.7403e+02	-10.3313	-56.992245	0.000355	3.547127	1.201799	0.000142
1751	1.7413e+02	-10.2847	-56.834797	0.000395	3.952513	1.339148	0.000158
1752	1.7422e+02	-10.2478	-56.677349	0.000395	3.952513	1.339148	0.000158
1753	1.7432e+02	-10.2029	-56.544123	0.000334	3.344434	1.133125	0.000134
1754	1.7442e+02	-10.1692	-56.342266	0.000507	5.067324	1.716856	0.000203
1755	1.7452e+02	-10.1195	-56.180781	0.000405	4.053859	1.373485	0.000162
1756	1.7462e+02	-10.0826	-55.991036	0.000476	4.763285	1.613845	0.000191
1757	1.7472e+02	-10.0601	-55.922404	0.000172	1.722890	0.583731	0.000069
1758	1.7482e+02	-10.0040	-55.696325	0.000568	5.675403	1.922879	0.000227
1759	1.7492e+02	-9.9639	-55.542913	0.000385	3.851166	1.304810	0.000154
1760	1.7502e+02	-9.9254	-55.369317	0.000436	4.357899	1.476496	0.000174
1761	1.7512e+02	-9.8901	-55.244165	0.000314	3.141741	1.064451	0.000126
1762	1.7522e+02	-9.8388	-55.094791	0.000375	3.749820	1.270473	0.000150
1763	1.7532e+02	-9.8083	-54.925232	0.000426	4.256552	1.442159	0.000170
1764	1.7542e+02	-9.7602	-54.767783	0.000395	3.952513	1.339148	0.000158
1765	1.7552e+02	-9.7217	-54.565927	0.000507	5.067324	1.716856	0.000203
1766	1.7562e+02	-9.6767	-54.428664	0.000345	3.445780	1.167462	0.000138
1767	1.7572e+02	-9.6382	-54.299476	0.000324	3.243087	1.098788	0.000130
1768	1.7582e+02	-9.6126	-54.133953	0.000416	4.155206	1.407822	0.000166
1769	1.7592e+02	-9.5644	-53.952282	0.000456	4.560592	1.545170	0.000183
1770	1.7602e+02	-9.5372	-53.806945	0.000365	3.648473	1.236136	0.000146
1771	1.7612e+02	-9.4890	-53.633348	0.000436	4.357899	1.476496	0.000174
1772	1.7621e+02	-9.4489	-53.479937	0.000385	3.851166	1.304810	0.000154
1773	1.7631e+02	-9.4104	-53.370934	0.000274	2.736355	0.927102	0.000110
1774	1.7641e+02	-9.3687	-53.136781	0.000588	5.878096	1.991553	0.000235
1775	1.7651e+02	-9.3302	-53.003555	0.000334	3.344434	1.133125	0.000134
1776	1.7661e+02	-9.2981	-52.797661	0.000517	5.168671	1.751193	0.000207
1777	1.7671e+02	-9.2452	-52.676547	0.000304	3.040395	1.030114	0.000122
1778	1.7681e+02	-9.2099	-52.494876	0.000456	4.560592	1.545170	0.000183
1779	1.7691e+02	-9.1666	-52.345502	0.000375	3.749820	1.270473	0.000150
1780	1.7701e+02	-9.1249	-52.184017	0.000405	4.053859	1.373485	0.000162
1781	1.7711e+02	-9.0832	-51.986197	0.000497	4.965978	1.682519	0.000199
1782	1.7721e+02	-9.0463	-51.836823	0.000375	3.749820	1.270473	0.000150
1783	1.7731e+02	-9.0094	-51.695523	0.000355	3.547127	1.201799	0.000142
1784	1.7741e+02	-8.9645	-51.517889	0.000446	4.459245	1.510833	0.000179
1785	1.7751e+02	-8.9292	-51.340255	0.000446	4.459245	1.510833	0.000179
1786	1.7761e+02	-8.8826	-51.158584	0.000456	4.560592	1.545170	0.000183
1787	1.7771e+02	-8.8506	-50.948653	0.000527	5.270017	1.785530	0.000211
1788	1.7781e+02	-8.8169	-50.839650	0.000274	2.736355	0.927102	0.000110
1789	1.7791e+02	-8.7800	-50.597422	0.000608	6.080789	2.060227	0.000243
1790	1.7801e+02	-8.7350	-50.460160	0.000345	3.445780	1.167462	0.000138
1791	1.7810e+02	-8.6917	-50.314823	0.000365	3.648473	1.236136	0.000146
1792	1.7820e+02	-8.6548	-50.137189	0.000446	4.459245	1.510833	0.000179
1793	1.7830e+02	-8.6131	-49.979740	0.000395	3.952513	1.339148	0.000158
1794	1.7840e+02	-8.5634	-49.802106	0.000446	4.459245	1.510833	0.000179
1795	1.7850e+02	-8.5297	-49.632547	0.000426	4.256552	1.442159	0.000170
1796	1.7860e+02	-8.4752	-49.446839	0.000466	4.661938	1.579507	0.000187
1797	1.7870e+02	-8.4575	-49.281316	0.000416	4.155206	1.407822	0.000166
1798	1.7880e+02	-8.4174	-49.107719	0.000436	4.357899	1.476496	0.000174
1799	1.7890e+02	-8.3645	-48.934122	0.000436	4.357899	1.476496	0.000174
1800	1.7900e+02	-8.3260	-48.756488	0.000446	4.459245	1.510833	0.000179
1801	1.7910e+02	-8.2923	-48.599040	0.000395	3.952513	1.339148	0.000158
1802	1.7920e+02	-8.2506	-48.437555	0.000405	4.053859	1.373485	0.000162
1803	1.7930e+02	-8.2024	-48.251846	0.000466	4.661938	1.579507	0.000187
1804	1.7940e+02	-8.1720	-48.074212	0.000446	4.459245	1.510833	0.000179
1805	1.7950e+02	-8.1335	-47.900616	0.000436	4.357899	1.476496	0.000174
1806	1.7960e+02	-8.0885	-47.759316	0.000355	3.547127	1.201799	0.000142
1807	1.7970e+02	-8.0532	-47.533236	0.000568	5.675403	1.922879	0.000227
1808	1.7980e+02	-8.0180	-47.375788	0.000395	3.952513	1.339148	0.000158
1809	1.7990e+02	-7.9811	-47.222377	0.000385	3.851166	1.304810	0.000154
1810	1.8000e+02	-7.9393	-46.996297	0.000568	5.675403	1.922879	0.000227
1811	1.8009e+02	-7.8960	-46.842886	0.000385	3.851166	1.304810	0.000154
1812	1.8019e+02	-7.8511	-46.665252	0.000446	4.459245	1.510833	0.000179
1813	1.8029e+02	-7.8062	-46.519915	0.000365	3.648473	1.236136	0.000146
1814	1.8039e+02	-7.7741	-46.322095	0.000497	4.965978	1.682519	0.000199
1815	1.8049e+02	-7.7372	-46.148499	0.000436	4.357899	1.476496	0.000174
1816	1.8059e+02	-7.6939	-45.966828	0.000456	4.560592	1.545170	0.000183
1817	1.8069e+02	-7.6554	-45.813416	0.000385	3.851166	1.304810	0.000154
1818	1.8079e+02	-7.6137	-45.651931	0.000405	4.053859	1.373485	0.000162
1819	1.8089e+02	-7.5800	-45.462186	0.000476	4.763285	1.613845	0.000191
1820	1.8099e+02	-7.5255	-45.296663	0.000416	4.155206	1.407822	0.000166
1821	1.8109e+02	-7.4902	-45.171512	0.000314	3.141741	1.064451	0.000126
1822	1.8119e+02	-7.4468	-44.957544	0.000537	5.371364	1.819867	0.000215
1823	1.8129e+02	-7.4116	-44.727427	0.000578	5.776750	1.957216	0.000231
1824	1.8139e+02	-7.3763	-44.586127	0.000355	3.547127	1.201799	0.000142
1825	1.8149e+02	-7.3378	-44.408493	0.000446	4.459245	1.510833	0.000179
1826	1.8159e+02	-7.2977	-44.247008	0.000405	4.053859	1.373485	0.000162
1827	1.8169e+02	-7.2543	-44.037077	0.000527	5.270017	1.785530	0.000211
1828	1.8179e+02	-7.2142	-43.887703	0.000375	3.749820	1.270473	0.000150
1829	1.8189e+02	-7.1757	-43.742366	0.000365	3.648473	1.236136	0.000146
1830	1.8199e+02	-7.1292	-43.536472	0.000517	5.168671	1.751193	0.000207
1831	1.8209e+02	-7.1003	-43.342689	0.000486	4.864631	1.648182	0.000195
1832	1.8218e+02	-7.0458	-43.193315	0.000375	3.749820	1.270473	0.000150
1833	1.8228e+02	-7.0089	-42.995496	0.000497	4.965978	1.682519	0.000199
1834	1.8238e+02	-6.9832	-42.825936	0.000426	4.256552	1.442159	0.000170
1835	1.8248e+02	-6.9383	-42.628116	0.000497	4.965978	1.682519	0.000199
1836	1.8258e+02	-6.8950	-42.478742	0.000375	3.749820	1.270473	0.000150
1837	1.8268e+02	-6.8485	-42.288997	0.000476	4.763285	1.613845	0.000191
1838	1.8278e+02	-6.8132	-42.131549	0.000395	3.952513	1.339148	0.000158
1839	1.8288e+02	-6.7795	-41.901432	0.000578	5.776750	1.957216	0.000231
1840	1.8298e+02	-6.7378	-41.788392	0.000284	2.837702	0.961439	0.000114
1841	1.8308e+02	-6.6929	-41.582498	0.000517	5.168671	1.751193	0.000207
1842	1.8318e+02	-6.6511	-41.384678	0.000497	4.965978	1.682519	0.000199
1843	1.8328e+02	-6.6159	-41.203007	0.000456	4.560592	1.545170	0.000183
1844	1.8338e+02	-6.5693	-41.009225	0.000486	4.864631	1.648182	0.000195
1845	1.8348e+02	-6.5389	-40.884074	0.000314	3.141741	1.064451	0.000126
1846	1.8358e+02	-6.4939	-40.674143	0.000527	5.270017	1.785530	0.000211
1847	1.8368e+02	-6.4586	-40.500546	0.000436	4.357899	1.476496	0.000174
1848	1.8378e+02	-6.4169	-40.326949	0.000436	4.357899	1.476496	0.000174
1849	1.8388e+02	-6.3865	-40.133166	0.000486	4.864631	1.648182	0.000195
1850	1.8398e+02	-6.3383	-39.947458	0.000466	4.661938	1.579507	0.000187
1851	1.8407e+02	-6.3014	-39.769824	0.000446	4.459245	1.510833	0.000179
1852	1.8417e+02	-6.2677	-39.592190	0.000446	4.459245	1.510833	0.000179
1853	1.8427e+02	-6.2212	-39.406482	0.000466	4.661938	1.579507	0.000187
1854	1.8437e+02	-6.1795	-39.228848	0.000446	4.459245	1.510833	0.000179
1855	1.8447e+02	-6.1490	-39.071400	0.000395	3.952513	1.339148	0.000158
1856	1.8457e+02	-6.0929	-38.881654	0.000476	4.763285	1.613845	0.000191
1857	1.8467e+02	-6.0640	-38.691909	0.000476	4.763285	1.613845	0.000191
1858	1.8477e+02	-6.0271	-38.490052	0.000507	5.067324	1.716856	0.000203
1859	1.8487e+02	-5.9950	-38.332604	0.000395	3.952513	1.339148	0.000158
1860	1.8497e+02	-5.9437	-38.138821	0.000486	4.864631	1.648182	0.000195
1861	1.8507e+02	-5.8972	-37.920816	0.000547	5.472710	1.854204	0.000219
1862	1.8517e+02	-5.8571	-37.747219	0.000436	4.357899	1.476496	0.000174
1863	1.8527e+02	-5.8202	-37.597845	0.000375	3.749820	1.270473	0.000150
1864	1.8537e+02	-5.7833	-37.404063	0.000486	4.864631	1.648182	0.000195
1865	1.8547e+02	-5.7415	-37.238540	0.000416	4.155206	1.407822	0.000166
1866	1.8557e+02	-5.7079	-37.040720	0.000497	4.965978	1.682519	0.000199
1867	1.8567e+02	-5.6613	-36.879235	0.000405	4.053859	1.373485	0.000162
1868	1.8577e+02	-5.6148	-36.657193	0.000557	5.574057	1.888542	0.000223
1869	1.8587e+02	-5.5843	-36.459373	0.000497	4.965978	1.682519	0.000199
1870	1.8597e+02	-5.5426	-36.326147	0.000334	3.344434	1.133125	0.000134
1871	1.8606e+02	-5.5009	-36.091993	0.000588	5.878096	1.991553	0.000235
1872	1.8616e+02	-5.4720	-35.914360	0.000446	4.459245	1.510833	0.000179
1873	1.8626e+02	-5.4239	-35.760948	0.000385	3.851166	1.304810	0.000154
1874	1.8636e+02	-5.3838	-35.522757	0.000598	5.979443	2.025890	0.000239
1875	1.8646e+02	-5.3405	-35.397606	0.000314	3.141741	1.064451	0.000126
1876	1.8656e+02	-5.3004	-35.215935	0.000456	4.560592	1.545170	0.000183
1877	1.8666e+02	-5.2699	-34.997930	0.000547	5.472710	1.854204	0.000219
1878	1.8676e+02	-5.2138	-34.804147	0.000486	4.864631	1.648182	0.000195
1879	1.8686e+02	-5.1897	-34.683033	0.000304	3.040395	1.030114	0.000122
1880	1.8696e+02	-5.1416	-34.465028	0.000547	5.472710	1.854204	0.000219
1881	1.8706e+02	-5.1111	-34.275282	0.000476	4.763285	1.613845	0.000191
1882	1.8716e+02	-5.0662	-34.089574	0.000466	4.661938	1.579507	0.000187
1883	1.8726e+02	-5.0212	-33.899829	0.000476	4.763285	1.613845	0.000191
1884	1.8736e+02	-4.9844	-33.746418	0.000385	3.851166	1.304810	0.000154
1885	1.8746e+02	-4.9442	-33.496115	0.000628	6.283482	2.128901	0.000252
1886	1.8756e+02	-4.9025	-33.383075	0.000284	2.837702	0.961439	0.000114
1887	1.8766e+02	-4.8608	-33.197367	0.000466	4.661938	1.579507	0.000187
1888	1.8776e+02	-4.8303	-32.991473	0.000517	5.168671	1.751193	0.000207
1889	1.8786e+02	-4.7854	-32.789616	0.000507	5.067324	1.716856	0.000203
1890	1.8796e+02	-4.7373	-32.611982	0.000446	4.459245	1.510833	0.000179
1891	1.8806e+02	-4.7004	-32.462608	0.000375	3.749820	1.270473	0.000150
1892	1.8815e+02	-4.6699	-32.224417	0.000598	5.979443	2.025890	0.000239
1893	1.8825e+02	-4.6218	-32.083118	0.000355	3.547127	1.201799	0.000142
1894	1.8835e+02	-4.5881	-31.897409	0.000466	4.661938	1.579507	0.000187
1895	1.8845e+02	-4.5512	-31.683441	0.000537	5.371364	1.819867	0.000215
1896	1.8855e+02	-4.5095	-31.477547	0.000517	5.168671	1.751193	0.000207
1897	1.8865e+02	-4.4710	-31.295876	0.000456	4.560592	1.545170	0.000183
1898	1.8875e+02	-4.4357	-31.130354	0.000416	4.155206	1.407822	0.000166
1899	1.8885e+02	-4.3844	-30.904274	0.000568	5.675403	1.922879	0.000227
1900	1.8895e+02	-4.3346	-30.742789	0.000405	4.053859	1.373485	0.000162
1901	1.8905e+02	-4.3026	-30.544969	0.000497	4.965978	1.682519	0.000199
1902	1.8915e+02	-4.2657	-30.391558	0.000385	3.851166	1.304810	0.000154
1903	1.8925e+02	-4.2304	-30.181627	0.000527	5.270017	1.785530	0.000211
1904	1.8935e+02	-4.1806	-29.995919	0.000466	4.661938	1.579507	0.000187
1905	1.8945e+02	-4.1518	-29.838470	0.000395	3.952513	1.339148	0.000158
1906	1.8955e+02	-4.1052	-29.608354	0.000578	5.776750	1.957216	0.000231
1907	1.8965e+02	-4.0715	-29.349977	0.000649	6.486175	2.197576	0.000260
1908	1.8975e+02	-4.0330	-29.220788	0.000324	3.243087	1.098788	0.000130
1909	1.8985e+02	-3.9865	-29.002783	0.000547	5.472710	1.854204	0.000219
1910	1.8995e+02	-3.9592	-28.869558	0.000334	3.344434	1.133125	0.000134
1911	1.9004e+02	-3.9127	-28.631367	0.000598	5.979443	2.025890	0.000239
1912	1.9014e+02	-3.8678	-28.429510	0.000507	5.067324	1.716856	0.000203
1913	1.9024e+02	-3.8309	-28.223616	0.000517	5.168671	1.751193	0.000207
1914	1.9034e+02	-3.7876	-28.050019	0.000436	4.357899	1.476496	0.000174
1915	1.9044e+02	-3.7475	-27.860274	0.000476	4.763285	1.613845	0.000191
1916	1.9054e+02	-3.7170	-27.678603	0.000456	4.560592	1.545170	0.000183
1917	1.9064e+02	-3.6641	-27.440412	0.000598	5.979443	2.025890	0.000239
1918	1.9074e+02	-3.6191	-27.295075	0.000365	3.648473	1.236136	0.000146
1919	1.9084e+02	-3.5951	-27.068995	0.000568	5.675403	1.922879	0.000227
1920	1.9094e+02	-3.5566	-26.859064	0.000527	5.270017	1.785530	0.000211
1921	1.9104e+02	-3.5101	-26.709690	0.000375	3.749820	1.270473	0.000150
1922	1.9114e+02	-3.4635	-26.519945	0.000476	4.763285	1.613845	0.000191
1923	1.9124e+02	-3.4363	-26.310014	0.000527	5.270017	1.785530	0.000211
1924	1.9134e+02	-3.3913	-26.079897	0.000578	5.776750	1.957216	0.000231
1925	1.9144e+02	-3.3545	-25.910337	0.000426	4.256552	1.442159	0.000170
1926	1.9154e+02	-3.3095	-25.728666	0.000456	4.560592	1.545170	0.000183
1927	1.9164e+02	-3.2742	-25.478364	0.000628	6.283482	2.128901	0.000252
1928	1.9174e+02	-3.2245	-25.357250	0.000304	3.040395	1.030114	0.000122
1929	1.9184e+02	-3.1876	-25.127133	0.000578	5.776750	1.957216	0.000231
1930	1.9194e+02	-3.1523	-24.917202	0.000527	5.270017	1.785530	0.000211
1931	1.9203e+02	-3.1090	-24.731494	0.000466	4.661938	1.579507	0.000187
1932	1.9213e+02	-3.0753	-24.521562	0.000527	5.270017	1.785530	0.000211
1933	1.9223e+02	-3.0368	-24.347966	0.000436	4.357899	1.476496	0.000174
1934	1.9233e+02	-2.9919	-24.129960	0.000547	5.472710	1.854204	0.000219
1935	1.9243e+02	-2.9518	-23.940215	0.000476	4.763285	1.613845	0.000191
1936	1.9253e+02	-2.9149	-23.738358	0.000507	5.067324	1.716856	0.000203
1937	1.9263e+02	-2.8716	-23.552650	0.000466	4.661938	1.579507	0.000187
1938	1.9273e+02	-2.8363	-23.330607	0.000557	5.574057	1.888542	0.000223
1939	1.9283e+02	-2.7882	-23.132788	0.000497	4.965978	1.682519	0.000199
1940	1.9293e+02	-2.7577	-22.951117	0.000456	4.560592	1.545170	0.000183
1941	1.9303e+02	-2.7128	-22.761371	0.000476	4.763285	1.613845	0.000191
1942	1.9313e+02	-2.6694	-22.559515	0.000507	5.067324	1.716856	0.000203
1943	1.9323e+02	-2.6342	-22.313249	0.000618	6.182136	2.094564	0.000248
1944	1.9333e+02	-2.5940	-22.171949	0.000355	3.547127	1.201799	0.000142
1945	1.9343e+02	-2.5555	-21.994316	0.000446	4.459245	1.510833	0.000179
1946	1.9353e+02	-2.5154	-21.756124	0.000598	5.979443	2.025890	0.000239
1947	1.9363e+02	-2.4737	-21.550231	0.000517	5.168671	1.751193	0.000207
1948	1.9373e+02	-2.4368	-21.360485	0.000476	4.763285	1.613845	0.000191
1949	1.9383e+02	-2.4031	-21.142480	0.000547	5.472710	1.854204	0.000219
1950	1.9393e+02	-2.3566	-20.940623	0.000507	5.067324	1.716856	0.000203
1951	1.9403e+02	-2.3117	-20.746841	0.000486	4.864631	1.648182	0.000195
1952	1.9412e+02	-2.2780	-20.528835	0.000547	5.472710	1.854204	0.000219
1953	1.9422e+02	-2.2347	-20.335053	0.000486	4.864631	1.648182	0.000195
1954	1.9432e+02	-2.2010	-20.129159	0.000517	5.168671	1.751193	0.000207
1955	1.9442e+02	-2.1593	-19.895005	0.000588	5.878096	1.991553	0.000235
1956	1.9452e+02	-2.1176	-19.713334	0.000456	4.560592	1.545170	0.000183
1957	1.9462e+02	-2.0823	-19.458994	0.000638	6.384829	2.163238	0.000256
1958	1.9472e+02	-2.0342	-19.261175	0.000497	4.965978	1.682519	0.000199
1959	1.9482e+02	-1.9892	-19.067392	0.000486	4.864631	1.648182	0.000195
1960	1.9492e+02	-1.9588	-18.881684	0.000466	4.661938	1.579507	0.000187
1961	1.9502e+02	-1.9122	-18.683864	0.000497	4.965978	1.682519	0.000199
1962	1.9512e+02	-1.8705	-18.449710	0.000588	5.878096	1.991553	0.000235
1963	1.9522e+02	-1.8401	-18.247854	0.000507	5.067324	1.716856	0.000203
1964	1.9532e+02	-1.7967	-17.993514	0.000638	6.384829	2.163238	0.000256
1965	1.9542e+02	-1.7598	-17.811843	0.000456	4.560592	1.545170	0.000183
1966	1.9552e+02	-1.7085	-17.593838	0.000547	5.472710	1.854204	0.000219
1967	1.9562e+02	-1.6748	-17.387944	0.000517	5.168671	1.751193	0.000207
1968	1.9572e+02	-1.6475	-17.178013	0.000527	5.270017	1.785530	0.000211
1969	1.9582e+02	-1.6010	-16.960007	0.000547	5.472710	1.854204	0.000219
1970	1.9592e+02	-1.5657	-16.778336	0.000456	4.560592	1.545170	0.000183
1971	1.9601e+02	-1.5224	-16.536108	0.000608	6.080789	2.060227	0.000243
1972	1.9611e+02	-1.4775	-16.318103	0.000547	5.472710	1.854204	0.000219
1973	1.9621e+02	-1.4390	-16.132394	0.000466	4.661938	1.579507	0.000187
1974	1.9631e+02	-1.4021	-15.918426	0.000537	5.371364	1.819867	0.000215
1975	1.9641e+02	-1.3556	-15.684272	0.000588	5.878096	1.991553	0.000235
1976	1.9651e+02	-1.3139	-15.490490	0.000486	4.864631	1.648182	0.000195
1977	1.9661e+02	-1.2850	-15.300744	0.000476	4.763285	1.613845	0.000191
1978	1.9671e+02	-1.2385	-15.006034	0.000740	7.398293	2.506610	0.000296
1979	1.9681e+02	-1.2096	-14.783991	0.000557	5.574057	1.888542	0.000223
1980	1.9691e+02	-1.1599	-14.646728	0.000345	3.445780	1.167462	0.000138
1981	1.9701e+02	-1.1198	-14.408537	0.000598	5.979443	2.025890	0.000239
1982	1.9711e+02	-1.0764	-14.182458	0.000568	5.675403	1.922879	0.000227
1983	1.9721e+02	-1.0395	-13.968490	0.000537	5.371364	1.819867	0.000215
1984	1.9731e+02	-1.0059	-13.766633	0.000507	5.067324	1.716856	0.000203
1985	1.9741e+02	-0.9625	-13.576887	0.000476	4.763285	1.613845	0.000191
1986	1.9751e+02	-0.9192	-13.338696	0.000598	5.979443	2.025890	0.000239
1987	1.9761e+02	-0.8759	-13.132803	0.000517	5.168671	1.751193	0.000207
1988	1.9771e+02	-0.8470	-12.914797	0.000547	5.472710	1.854204	0.000219
1989	1.9781e+02	-0.8037	-12.704866	0.000527	5.270017	1.785530	0.000211
1990	1.9791e+02	-0.7588	-12.474749	0.000578	5.776750	1.957216	0.000231
1991	1.9800e+02	-0.7267	-12.256744	0.000547	5.472710	1.854204	0.000219
1992	1.9810e+02	-0.6770	-12.042776	0.000537	5.371364	1.819867	0.000215
1993	1.9820e+02	-0.6401	-11.836882	0.000517	5.168671	1.751193	0.000207
1994	1.9830e+02	-0.6000	-11.598691	0.000598	5.979443	2.025890	0.000239
1995	1.9840e+02	-0.5679	-11.408946	0.000476	4.763285	1.613845	0.000191
1996	1.9850e+02	-0.5262	-11.170755	0.000598	5.979443	2.025890	0.000239
1997	1.9860e+02	-0.4813	-10.997158	0.000436	4.357899	1.476496	0.000174
1998	1.9870e+02	-0.4444	-10.722633	0.000689	6.891561	2.334924	0.000276
1999	1.9880e+02	-0.4011	-10.549036	0.000436	4.357899	1.476496	0.000174
2000	1.9890e+02	-0.3658	-10.310845	0.000598	5.979443	2.025890	0.000239
2001	1.9900e+02	-0.3273	-10.100914	0.000527	5.270017	1.785530	0.000211
2002	1.9910e+02	-0.2759	-9.878871	0.000557	5.574057	1.888542	0.000223
2003	1.9920e+02	-0.2422	-9.668940	0.000527	5.270017	1.785530	0.000211
2004	1.9930e+02	-0.1925	-9.483232	0.000466	4.661938	1.579507	0.000187
2005	1.9940e+02	-0.1700	-9.265227	0.000547	5.472710	1.854204	0.000219
2006	1.9950e+02	-0.1219	-9.043184	0.000557	5.574057	1.888542	0.000223
2007	1.9960e+02	-0.0818	-8.800956	0.000608	6.080789	2.060227	0.000243
2008	1.9970e+02	-0.0465	-8.574876	0.000568	5.675403	1.922879	0.000227
2009	1.9980e+02	-0.0128	-8.328611	0.000568	5.675403	1.922879	0.000248

Center data before PMax,+/-Pr and +/-Vc Calc.

PMax (uC/cm2):	8.97e+01
Pr (uC/cm2):	2.71e+00
-Pr (uC/cm2):	-8.33e+00
PLoss (uC/cm2):	-4.39e+00
Vc:	7.81e-01
-Vc:	-4.93e-01
C (Max-Eff) (nF):	4.49e-01
K (Eff):	1.52e+03
Vert. (+/-Pr) Shift (uC/cm2):	-2.81e+00
Horiz. Shift (+/-Vc):	1.44e-01
Offset (uC/cm2):	3.94e+00

A (Loop Area - uC/cm2·Volts):	-1.60e-02



Hysteresis Version: 5.48.1 - Radiant Technologies, Inc., 1999 - 9/12/24

