»»»»»»»»»»»»»»»»»»»»»»»»»»»»»»»»»»»» Hysteresis ««««««««««««««««««««««««««««««««««««
»»»  Executed Version:	5.48.1
»»»  Vision Version:	5.48.4 (R)
»»»  Vision Compiled:	9/18/24
»»»  Driver Version:	5.47.0
»»»  Windows Version:	Windows 8 or 8.1
»»»  Processor Information:	x86 (AMD or Intel) - 32 Processors
»»»  Tester Name:	PMF21124-494 (100V)
»»»  Tester S/N:	PMF21124-494
»»»  Internal Amp Type:	100V RevK 270k
»»»  Internal Amp S/N:	iAB2-596/K     
»»»  Execution Count:	1
»»»»»»»»»»»»»»»»»»»»»»»»»»»»»»»»»»»»»»»»»»««««««««««««««««««««««««««««««««««««««««««

Stored:	6/16/2025 - 11:20:14
Configured:	06/16/25 10:13:01 AM
Executed:	06/16/25 11:19:37 AM

»»»»»»»»»»»»»»»»»»»»»»»»»»»»»»»»»»» Sample Info ««««««««««««««««««««««««««««««««««««
Sample Name:	
Lot Name:	
Wafer Name:	
Die Row/Column:	0/0
Capacitor Number:	0
Sample Area (cm2):	1.00e-04
Sample Thickness (microns):	3.00e-01

Amplifier:	Internal

»»»»»»»»»»»»»»»»»»»»»»»»»»»»»»»»»»» Tester Info «««««««««««««««««««««««««««««««««««
Tester Name:	PMF21124-494 (100V)
Tester Serial Number:	PMF21124-494
Return Signal Amp. Level:	0.19 [Index: 3]

»»»»»»»»»»»»»»»»»»»»»»»»»»»»»»»» Hysteresis Info ««««««««««««««««««««««««««««««««««
Task Name:	Hyst-2190
Volts:	20.00
Field:	666.67 (kV/cm)
DCBias:	0.00
DCField:	0.00 (kV/cm)
Hysteresis Period (ms):	2.00e+02
Preset:	Enabled
Preset Delay (ms):	1.00e+03
Profile:	Standard Bipolar

»»»»»»»»»»»»»»»»»»»»»»»»»»»»»»»»»»»»»» Data «««««««««««««««««««««««««««««««««««««««
Points:	2009

Valid Data

Point	Time (ms)	Drive Voltage	Measured Polarization (uC/cm2)	Capacitance (uF)	Normalized Capacitance (uF/cm2)	Dielectric Constant	Instantaneous Current (mA)
   1	0.0000e+00	0.0000	-2.828014	0.000233	2.330408	0.789564	0.000093
   2	9.9500e-02	0.0369	-2.735159	0.000233	2.330408	0.789564	0.000093
   3	1.9900e-01	0.0802	-2.585785	0.000375	3.748918	1.270168	0.000150
   4	2.9850e-01	0.1155	-2.424300	0.000405	4.052884	1.373154	0.000162
   5	3.9800e-01	0.1492	-2.242629	0.000456	4.559494	1.544799	0.000183
   6	4.9750e-01	0.1989	-2.016549	0.000567	5.674038	1.922416	0.000227
   7	5.9700e-01	0.2246	-1.879287	0.000344	3.444951	1.167181	0.000138
   8	6.9650e-01	0.2647	-1.709727	0.000426	4.255528	1.441812	0.000170
   9	7.9600e-01	0.3160	-1.515944	0.000486	4.863461	1.647785	0.000195
  10	8.9550e-01	0.3545	-1.306013	0.000527	5.268749	1.785101	0.000211
  11	9.9500e-01	0.3882	-1.140491	0.000415	4.154206	1.407483	0.000166
  12	1.0945e+00	0.4219	-0.886151	0.000638	6.383292	2.162718	0.000256
  13	1.1940e+00	0.4732	-0.720629	0.000415	4.154206	1.407483	0.000166
  14	1.2935e+00	0.5069	-0.522809	0.000496	4.964783	1.682114	0.000199
  15	1.3930e+00	0.5486	-0.365361	0.000395	3.951562	1.338825	0.000158
  16	1.4925e+00	0.5968	-0.155430	0.000527	5.268749	1.785101	0.000211
  17	1.5920e+00	0.6353	0.046427	0.000507	5.066105	1.716443	0.000203
  18	1.6915e+00	0.6674	0.183690	0.000344	3.444951	1.167181	0.000138
  19	1.7910e+00	0.7043	0.381509	0.000496	4.964783	1.682114	0.000199
  20	1.8905e+00	0.7508	0.563180	0.000456	4.559494	1.544799	0.000183
  21	1.9900e+00	0.7877	0.744852	0.000456	4.559494	1.544799	0.000183
  22	2.0895e+00	0.8310	0.906337	0.000405	4.052884	1.373154	0.000162
  23	2.1890e+00	0.8727	1.075897	0.000426	4.255528	1.441812	0.000170
  24	2.2885e+00	0.9128	1.241419	0.000415	4.154206	1.407483	0.000166
  25	2.3880e+00	0.9465	1.415016	0.000436	4.356850	1.476141	0.000174
  26	2.4875e+00	0.9866	1.637059	0.000557	5.572715	1.888087	0.000223
  27	2.5870e+00	1.0347	1.802581	0.000415	4.154206	1.407483	0.000166
  28	2.6865e+00	1.0668	1.992326	0.000476	4.762139	1.613456	0.000191
  29	2.7860e+00	1.1037	2.214369	0.000557	5.572715	1.888087	0.000223
  30	2.8855e+00	1.1454	2.383929	0.000426	4.255528	1.441812	0.000170
  31	2.9850e+00	1.1935	2.593860	0.000527	5.268749	1.785101	0.000211
  32	3.0845e+00	1.2288	2.763419	0.000426	4.255528	1.441812	0.000170
  33	3.1840e+00	1.2673	2.985462	0.000557	5.572715	1.888087	0.000223
  34	3.2835e+00	1.3026	3.126762	0.000355	3.546273	1.201510	0.000142
  35	3.3830e+00	1.3492	3.360916	0.000588	5.876682	1.991074	0.000235
  36	3.4825e+00	1.3909	3.510290	0.000375	3.748918	1.270168	0.000150
  37	3.5820e+00	1.4165	3.687923	0.000446	4.458172	1.510470	0.000179
  38	3.6815e+00	1.4550	3.918040	0.000578	5.775360	1.956745	0.000231
  39	3.7810e+00	1.4984	4.067414	0.000375	3.748918	1.270168	0.000150
  40	3.8805e+00	1.5465	4.232937	0.000415	4.154206	1.407483	0.000166
  41	3.9800e+00	1.5834	4.362125	0.000324	3.242307	1.098523	0.000130
  42	4.0795e+00	1.6315	4.588205	0.000567	5.674038	1.922416	0.000227
  43	4.1790e+00	1.6684	4.741616	0.000385	3.850240	1.304497	0.000154
  44	4.2785e+00	1.7069	4.951547	0.000527	5.268749	1.785101	0.000211
  45	4.3780e+00	1.7518	5.161478	0.000527	5.268749	1.785101	0.000211
  46	4.4775e+00	1.7855	5.339112	0.000446	4.458172	1.510470	0.000179
  47	4.5770e+00	1.8352	5.553080	0.000537	5.370071	1.819429	0.000215
  48	4.6765e+00	1.8673	5.738788	0.000466	4.660817	1.579127	0.000187
  49	4.7760e+00	1.9026	5.936608	0.000496	4.964783	1.682114	0.000199
  50	4.8755e+00	1.9443	6.134428	0.000496	4.964783	1.682114	0.000199
  51	4.9750e+00	1.9812	6.332247	0.000496	4.964783	1.682114	0.000199
  52	5.0745e+00	2.0197	6.501807	0.000426	4.255528	1.441812	0.000170
  53	5.1740e+00	2.0598	6.687515	0.000466	4.660817	1.579127	0.000187
  54	5.2735e+00	2.0999	6.861112	0.000436	4.356850	1.476141	0.000174
  55	5.3730e+00	2.1352	7.042783	0.000456	4.559494	1.544799	0.000183
  56	5.4725e+00	2.1850	7.184083	0.000355	3.546273	1.201510	0.000142
  57	5.5720e+00	2.2267	7.381903	0.000496	4.964783	1.682114	0.000199
  58	5.6715e+00	2.2636	7.563574	0.000456	4.559494	1.544799	0.000183
  59	5.7710e+00	2.3117	7.737171	0.000436	4.356850	1.476141	0.000174
  60	5.8705e+00	2.3486	7.890582	0.000385	3.850240	1.304497	0.000154
  61	5.9700e+00	2.3887	8.100513	0.000527	5.268749	1.785101	0.000211
  62	6.0695e+00	2.4288	8.314481	0.000537	5.370071	1.819429	0.000215
  63	6.1690e+00	2.4593	8.475966	0.000405	4.052884	1.373154	0.000162
  64	6.2685e+00	2.4962	8.693972	0.000547	5.471393	1.853758	0.000219
  65	6.3680e+00	2.5555	8.899866	0.000517	5.167427	1.750772	0.000207
  66	6.4675e+00	2.5828	9.081537	0.000456	4.559494	1.544799	0.000183
  67	6.5670e+00	2.6197	9.267245	0.000466	4.660817	1.579127	0.000187
  68	6.6665e+00	2.6614	9.436805	0.000426	4.255528	1.441812	0.000170
  69	6.7660e+00	2.6951	9.654810	0.000547	5.471393	1.853758	0.000219
  70	6.8655e+00	2.7432	9.836481	0.000456	4.559494	1.544799	0.000183
  71	6.9650e+00	2.7866	10.014115	0.000446	4.458172	1.510470	0.000179
  72	7.0645e+00	2.8218	10.191749	0.000446	4.458172	1.510470	0.000179
  73	7.1640e+00	2.8603	10.316900	0.000314	3.140985	1.064195	0.000126
  74	7.2635e+00	2.9085	10.510683	0.000486	4.863461	1.647785	0.000195
  75	7.3630e+00	2.9438	10.684280	0.000436	4.356850	1.476141	0.000174
  76	7.4625e+00	2.9855	10.894211	0.000527	5.268749	1.785101	0.000211
  77	7.5620e+00	3.0192	11.051659	0.000395	3.951562	1.338825	0.000158
  78	7.6615e+00	3.0625	11.253516	0.000507	5.066105	1.716443	0.000203
  79	7.7610e+00	3.0978	11.431150	0.000446	4.458172	1.510470	0.000179
  80	7.8605e+00	3.1475	11.612821	0.000456	4.559494	1.544799	0.000183
  81	7.9600e+00	3.1748	11.794492	0.000456	4.559494	1.544799	0.000183
  82	8.0595e+00	3.2229	12.040757	0.000618	6.180648	2.094060	0.000248
  83	8.1590e+00	3.2534	12.230503	0.000476	4.762139	1.613456	0.000191
  84	8.2585e+00	3.3015	12.396025	0.000415	4.154206	1.407483	0.000166
  85	8.3580e+00	3.3368	12.585771	0.000476	4.762139	1.613456	0.000191
  86	8.4575e+00	3.3753	12.811850	0.000567	5.674038	1.922416	0.000227
  87	8.5570e+00	3.4347	12.985447	0.000436	4.356850	1.476141	0.000174
  88	8.6565e+00	3.4635	13.142895	0.000395	3.951562	1.338825	0.000158
  89	8.7560e+00	3.5020	13.316492	0.000436	4.356850	1.476141	0.000174
  90	8.8555e+00	3.5389	13.465866	0.000375	3.748918	1.270168	0.000150
  91	8.9550e+00	3.5823	13.643500	0.000446	4.458172	1.510470	0.000179
  92	9.0545e+00	3.6191	13.813060	0.000426	4.255528	1.441812	0.000170
  93	9.1540e+00	3.6512	13.998768	0.000466	4.660817	1.579127	0.000187
  94	9.2535e+00	3.7026	14.184476	0.000466	4.660817	1.579127	0.000187
  95	9.3530e+00	3.7363	14.402482	0.000547	5.471393	1.853758	0.000219
  96	9.4525e+00	3.7764	14.584153	0.000456	4.559494	1.544799	0.000183
  97	9.5520e+00	3.8165	14.773898	0.000476	4.762139	1.613456	0.000191
  98	9.6515e+00	3.8566	14.963644	0.000476	4.762139	1.613456	0.000191
  99	9.7510e+00	3.8903	15.185686	0.000557	5.572715	1.888087	0.000223
 100	9.8505e+00	3.9400	15.391580	0.000517	5.167427	1.750772	0.000207
 101	9.9500e+00	3.9689	15.557103	0.000415	4.154206	1.407483	0.000166
 102	1.0050e+01	4.0218	15.734737	0.000446	4.458172	1.510470	0.000179
 103	1.0149e+01	4.0619	15.904296	0.000426	4.255528	1.441812	0.000170
 104	1.0248e+01	4.1020	16.110190	0.000517	5.167427	1.750772	0.000207
 105	1.0348e+01	4.1389	16.299936	0.000476	4.762139	1.613456	0.000191
 106	1.0447e+01	4.1694	16.449310	0.000375	3.748918	1.270168	0.000150
 107	1.0547e+01	4.2223	16.626944	0.000446	4.458172	1.510470	0.000179
 108	1.0646e+01	4.2624	16.796503	0.000426	4.255528	1.441812	0.000170
 109	1.0746e+01	4.2929	16.966063	0.000426	4.255528	1.441812	0.000170
 110	1.0845e+01	4.3411	17.151771	0.000466	4.660817	1.579127	0.000187
 111	1.0945e+01	4.3763	17.345554	0.000486	4.863461	1.647785	0.000195
 112	1.1044e+01	4.4036	17.507039	0.000405	4.052884	1.373154	0.000162
 113	1.1144e+01	4.4534	17.729082	0.000557	5.572715	1.888087	0.000223
 114	1.1243e+01	4.4999	17.894604	0.000415	4.154206	1.407483	0.000166
 115	1.1343e+01	4.5432	18.039941	0.000365	3.647596	1.235839	0.000146
 116	1.1443e+01	4.5801	18.253909	0.000537	5.370071	1.819429	0.000215
 117	1.1542e+01	4.6234	18.484026	0.000578	5.775360	1.956745	0.000231
 118	1.1642e+01	4.6635	18.641474	0.000395	3.951562	1.338825	0.000158
 119	1.1741e+01	4.6956	18.806997	0.000415	4.154206	1.407483	0.000166
 120	1.1841e+01	4.7309	19.012891	0.000517	5.167427	1.750772	0.000207
 121	1.1940e+01	4.7726	19.162265	0.000375	3.748918	1.270168	0.000150
 122	1.2040e+01	4.8207	19.384307	0.000557	5.572715	1.888087	0.000223
 123	1.2139e+01	4.8576	19.574053	0.000476	4.762139	1.613456	0.000191
 124	1.2239e+01	4.9025	19.723427	0.000375	3.748918	1.270168	0.000150
 125	1.2338e+01	4.9426	19.856652	0.000334	3.343629	1.132852	0.000134
 126	1.2438e+01	4.9779	20.034286	0.000446	4.458172	1.510470	0.000179
 127	1.2537e+01	5.0132	20.211920	0.000446	4.458172	1.510470	0.000179
 128	1.2636e+01	5.0501	20.421851	0.000527	5.268749	1.785101	0.000211
 129	1.2736e+01	5.0934	20.563151	0.000355	3.546273	1.201510	0.000142
 130	1.2835e+01	5.1303	20.708488	0.000365	3.647596	1.235839	0.000146
 131	1.2935e+01	5.1688	20.918419	0.000527	5.268749	1.785101	0.000211
 132	1.3034e+01	5.2138	21.116238	0.000496	4.964783	1.682114	0.000199
 133	1.3134e+01	5.2474	21.322132	0.000517	5.167427	1.750772	0.000207
 134	1.3233e+01	5.2876	21.499766	0.000446	4.458172	1.510470	0.000179
 135	1.3333e+01	5.3261	21.645103	0.000365	3.647596	1.235839	0.000146
 136	1.3432e+01	5.3774	21.871183	0.000567	5.674038	1.922416	0.000227
 137	1.3532e+01	5.4143	22.044780	0.000436	4.356850	1.476141	0.000174
 138	1.3632e+01	5.4432	22.250674	0.000517	5.167427	1.750772	0.000207
 139	1.3731e+01	5.4881	22.424270	0.000436	4.356850	1.476141	0.000174
 140	1.3831e+01	5.5314	22.565570	0.000355	3.546273	1.201510	0.000142
 141	1.3930e+01	5.5779	22.767427	0.000507	5.066105	1.716443	0.000203
 142	1.4030e+01	5.6084	22.920838	0.000385	3.850240	1.304497	0.000154
 143	1.4129e+01	5.6613	23.054064	0.000334	3.343629	1.132852	0.000134
 144	1.4229e+01	5.6870	23.251883	0.000496	4.964783	1.682114	0.000199
 145	1.4328e+01	5.7287	23.441629	0.000476	4.762139	1.613456	0.000191
 146	1.4428e+01	5.7640	23.595040	0.000385	3.850240	1.304497	0.000154
 147	1.4527e+01	5.8137	23.796897	0.000507	5.066105	1.716443	0.000203
 148	1.4627e+01	5.8522	23.958382	0.000405	4.052884	1.373154	0.000162
 149	1.4726e+01	5.8907	24.168313	0.000527	5.268749	1.785101	0.000211
 150	1.4825e+01	5.9292	24.378244	0.000527	5.268749	1.785101	0.000211
 151	1.4925e+01	5.9742	24.572027	0.000486	4.863461	1.647785	0.000195
 152	1.5024e+01	6.0127	24.729475	0.000395	3.951562	1.338825	0.000158
 153	1.5124e+01	6.0512	24.899035	0.000426	4.255528	1.441812	0.000170
 154	1.5223e+01	6.0849	25.084743	0.000466	4.660817	1.579127	0.000187
 155	1.5323e+01	6.1266	25.270451	0.000466	4.660817	1.579127	0.000187
 156	1.5422e+01	6.1667	25.440011	0.000426	4.255528	1.441812	0.000170
 157	1.5522e+01	6.2164	25.573236	0.000334	3.343629	1.132852	0.000134
 158	1.5621e+01	6.2453	25.730685	0.000395	3.951562	1.338825	0.000158
 159	1.5721e+01	6.2918	25.916393	0.000466	4.660817	1.579127	0.000187
 160	1.5820e+01	6.3287	26.065767	0.000375	3.748918	1.270168	0.000150
 161	1.5920e+01	6.3752	26.279735	0.000537	5.370071	1.819429	0.000215
 162	1.6020e+01	6.4185	26.416998	0.000344	3.444951	1.167181	0.000138
 163	1.6119e+01	6.4490	26.574446	0.000395	3.951562	1.338825	0.000158
 164	1.6218e+01	6.4827	26.760154	0.000466	4.660817	1.579127	0.000187
 165	1.6318e+01	6.5308	26.974122	0.000537	5.370071	1.819429	0.000215
 166	1.6418e+01	6.5677	27.155794	0.000456	4.559494	1.544799	0.000183
 167	1.6517e+01	6.6046	27.309205	0.000385	3.850240	1.304497	0.000154
 168	1.6616e+01	6.6495	27.502987	0.000486	4.863461	1.647785	0.000195
 169	1.6716e+01	6.6832	27.692733	0.000476	4.762139	1.613456	0.000191
 170	1.6816e+01	6.7249	27.842107	0.000375	3.748918	1.270168	0.000150
 171	1.6915e+01	6.7618	27.995518	0.000385	3.850240	1.304497	0.000154
 172	1.7015e+01	6.8100	28.225635	0.000578	5.775360	1.956745	0.000231
 173	1.7114e+01	6.8533	28.326563	0.000253	2.533052	0.858221	0.000101
 174	1.7213e+01	6.8790	28.479974	0.000385	3.850240	1.304497	0.000154
 175	1.7313e+01	6.9335	28.637422	0.000395	3.951562	1.338825	0.000158
 176	1.7413e+01	6.9640	28.802945	0.000415	4.154206	1.407483	0.000166
 177	1.7512e+01	7.0057	29.012876	0.000527	5.268749	1.785101	0.000211
 178	1.7611e+01	7.0506	29.109767	0.000243	2.431730	0.823893	0.000097
 179	1.7711e+01	7.0827	29.311624	0.000507	5.066105	1.716443	0.000203
 180	1.7811e+01	7.1244	29.509444	0.000496	4.964783	1.682114	0.000199
 181	1.7910e+01	7.1629	29.691115	0.000456	4.559494	1.544799	0.000183
 182	1.8009e+01	7.2046	29.852600	0.000405	4.052884	1.373154	0.000162
 183	1.8109e+01	7.2447	30.046383	0.000486	4.863461	1.647785	0.000195
 184	1.8209e+01	7.2864	30.264388	0.000547	5.471393	1.853758	0.000219
 185	1.8308e+01	7.3201	30.389539	0.000314	3.140985	1.064195	0.000126
 186	1.8407e+01	7.3522	30.583322	0.000486	4.863461	1.647785	0.000195
 187	1.8507e+01	7.4116	30.748844	0.000415	4.154206	1.407483	0.000166
 188	1.8607e+01	7.4388	30.930515	0.000456	4.559494	1.544799	0.000183
 189	1.8706e+01	7.4789	31.067778	0.000344	3.444951	1.167181	0.000138
 190	1.8805e+01	7.5287	31.249449	0.000456	4.559494	1.544799	0.000183
 191	1.8905e+01	7.5607	31.390749	0.000355	3.546273	1.201510	0.000142
 192	1.9005e+01	7.6073	31.523974	0.000334	3.343629	1.132852	0.000134
 193	1.9104e+01	7.6345	31.705646	0.000456	4.559494	1.544799	0.000183
 194	1.9203e+01	7.6859	31.863094	0.000395	3.951562	1.338825	0.000158
 195	1.9303e+01	7.7228	32.060913	0.000496	4.964783	1.682114	0.000199
 196	1.9402e+01	7.7629	32.218362	0.000395	3.951562	1.338825	0.000158
 197	1.9502e+01	7.8014	32.383884	0.000415	4.154206	1.407483	0.000166
 198	1.9602e+01	7.8447	32.529221	0.000365	3.647596	1.235839	0.000146
 199	1.9701e+01	7.8752	32.747227	0.000547	5.471393	1.853758	0.000219
 200	1.9800e+01	7.9169	32.900638	0.000385	3.850240	1.304497	0.000154
 201	1.9900e+01	7.9714	33.094420	0.000486	4.863461	1.647785	0.000195
 202	2.0000e+01	7.9971	33.300314	0.000517	5.167427	1.750772	0.000207
 203	2.0099e+01	8.0356	33.469874	0.000426	4.255528	1.441812	0.000170
 204	2.0198e+01	8.0725	33.623285	0.000385	3.850240	1.304497	0.000154
 205	2.0298e+01	8.1190	33.804956	0.000456	4.559494	1.544799	0.000183
 206	2.0398e+01	8.1591	33.942219	0.000344	3.444951	1.167181	0.000138
 207	2.0497e+01	8.2040	34.140038	0.000496	4.964783	1.682114	0.000199
 208	2.0596e+01	8.2409	34.293450	0.000385	3.850240	1.304497	0.000154
 209	2.0696e+01	8.2843	34.422638	0.000324	3.242307	1.098523	0.000130
 210	2.0796e+01	8.3228	34.539715	0.000294	2.938341	0.995537	0.000118
 211	2.0895e+01	8.3532	34.737534	0.000496	4.964783	1.682114	0.000199
 212	2.0994e+01	8.3933	34.878834	0.000355	3.546273	1.201510	0.000142
 213	2.1094e+01	8.4527	35.068580	0.000476	4.762139	1.613456	0.000191
 214	2.1194e+01	8.4832	35.270436	0.000507	5.066105	1.716443	0.000203
 215	2.1293e+01	8.5169	35.383476	0.000284	2.837019	0.961208	0.000114
 216	2.1392e+01	8.5714	35.601482	0.000547	5.471393	1.853758	0.000219
 217	2.1492e+01	8.5971	35.730670	0.000324	3.242307	1.098523	0.000130
 218	2.1591e+01	8.6404	35.932527	0.000507	5.066105	1.716443	0.000203
 219	2.1691e+01	8.6757	36.081901	0.000375	3.748918	1.270168	0.000150
 220	2.1791e+01	8.7110	36.320092	0.000598	5.978004	2.025403	0.000239
 221	2.1890e+01	8.7511	36.473503	0.000385	3.850240	1.304497	0.000154
 222	2.1989e+01	8.7944	36.663248	0.000476	4.762139	1.613456	0.000191
 223	2.2089e+01	8.8297	36.808585	0.000365	3.647596	1.235839	0.000146
 224	2.2189e+01	8.8842	36.982182	0.000436	4.356850	1.476141	0.000174
 225	2.2288e+01	8.9243	37.151742	0.000426	4.255528	1.441812	0.000170
 226	2.2387e+01	8.9645	37.297079	0.000365	3.647596	1.235839	0.000146
 227	2.2487e+01	8.9997	37.442415	0.000365	3.647596	1.235839	0.000146
 228	2.2587e+01	9.0382	37.599864	0.000395	3.951562	1.338825	0.000158
 229	2.2686e+01	9.0784	37.757312	0.000395	3.951562	1.338825	0.000158
 230	2.2785e+01	9.1153	37.870352	0.000284	2.837019	0.961208	0.000114
 231	2.2885e+01	9.1473	38.035874	0.000415	4.154206	1.407483	0.000166
 232	2.2985e+01	9.2051	38.213508	0.000446	4.458172	1.510470	0.000179
 233	2.3084e+01	9.2340	38.387105	0.000436	4.356850	1.476141	0.000174
 234	2.3183e+01	9.2741	38.580888	0.000486	4.863461	1.647785	0.000195
 235	2.3283e+01	9.3174	38.738336	0.000395	3.951562	1.338825	0.000158
 236	2.3383e+01	9.3527	38.891747	0.000385	3.850240	1.304497	0.000154
 237	2.3482e+01	9.3896	39.093604	0.000507	5.066105	1.716443	0.000203
 238	2.3581e+01	9.4345	39.263164	0.000426	4.255528	1.441812	0.000170
 239	2.3681e+01	9.4826	39.396389	0.000334	3.343629	1.132852	0.000134
 240	2.3780e+01	9.5195	39.602283	0.000517	5.167427	1.750772	0.000207
 241	2.3880e+01	9.5452	39.755694	0.000385	3.850240	1.304497	0.000154
 242	2.3980e+01	9.5885	39.945440	0.000476	4.762139	1.613456	0.000191
 243	2.4079e+01	9.6430	40.070591	0.000314	3.140985	1.064195	0.000126
 244	2.4178e+01	9.6783	40.232076	0.000405	4.052884	1.373154	0.000162
 245	2.4278e+01	9.7184	40.341079	0.000274	2.735697	0.926879	0.000110
 246	2.4378e+01	9.7537	40.571196	0.000578	5.775360	1.956745	0.000231
 247	2.4477e+01	9.7987	40.696347	0.000314	3.140985	1.064195	0.000126
 248	2.4576e+01	9.8323	40.841684	0.000365	3.647596	1.235839	0.000146
 249	2.4676e+01	9.8708	40.991058	0.000375	3.748918	1.270168	0.000150
 250	2.4776e+01	9.9110	41.172729	0.000456	4.559494	1.544799	0.000183
 251	2.4875e+01	9.9527	41.334214	0.000405	4.052884	1.373154	0.000162
 252	2.4974e+01	9.9847	41.527997	0.000486	4.863461	1.647785	0.000195
 253	2.5074e+01	10.0377	41.705631	0.000446	4.458172	1.510470	0.000179
 254	2.5174e+01	10.0714	41.855005	0.000375	3.748918	1.270168	0.000150
 255	2.5273e+01	10.1211	42.016490	0.000405	4.052884	1.373154	0.000162
 256	2.5372e+01	10.1516	42.242570	0.000567	5.674038	1.922416	0.000227
 257	2.5472e+01	10.1949	42.408092	0.000415	4.154206	1.407483	0.000166
 258	2.5572e+01	10.2270	42.549392	0.000355	3.546273	1.201510	0.000142
 259	2.5671e+01	10.2799	42.739137	0.000476	4.762139	1.613456	0.000191
 260	2.5770e+01	10.3104	42.920809	0.000456	4.559494	1.544799	0.000183
 261	2.5870e+01	10.3505	43.058071	0.000344	3.444951	1.167181	0.000138
 262	2.5970e+01	10.4018	43.207445	0.000375	3.748918	1.270168	0.000150
 263	2.6069e+01	10.4307	43.340671	0.000334	3.343629	1.132852	0.000134
 264	2.6169e+01	10.4788	43.486008	0.000365	3.647596	1.235839	0.000146
 265	2.6268e+01	10.5141	43.679790	0.000486	4.863461	1.647785	0.000195
 266	2.6367e+01	10.5559	43.804941	0.000314	3.140985	1.064195	0.000126
 267	2.6467e+01	10.5927	43.974501	0.000426	4.255528	1.441812	0.000170
 268	2.6567e+01	10.6280	44.131949	0.000395	3.951562	1.338825	0.000158
 269	2.6666e+01	10.6762	44.289398	0.000395	3.951562	1.338825	0.000158
 270	2.6765e+01	10.7099	44.462994	0.000436	4.356850	1.476141	0.000174
 271	2.6865e+01	10.7419	44.624480	0.000405	4.052884	1.373154	0.000162
 272	2.6965e+01	10.7885	44.830374	0.000517	5.167427	1.750772	0.000207
 273	2.7064e+01	10.8350	45.008008	0.000446	4.458172	1.510470	0.000179
 274	2.7163e+01	10.8783	45.157382	0.000375	3.748918	1.270168	0.000150
 275	2.7263e+01	10.9088	45.294644	0.000344	3.444951	1.167181	0.000138
 276	2.7363e+01	10.9585	45.484390	0.000476	4.762139	1.613456	0.000191
 277	2.7462e+01	10.9858	45.641838	0.000395	3.951562	1.338825	0.000158
 278	2.7561e+01	11.0243	45.799286	0.000395	3.951562	1.338825	0.000158
 279	2.7661e+01	11.0772	45.952698	0.000385	3.850240	1.304497	0.000154
 280	2.7761e+01	11.1205	46.093997	0.000355	3.546273	1.201510	0.000142
 281	2.7860e+01	11.1446	46.235297	0.000355	3.546273	1.201510	0.000142
 282	2.7959e+01	11.1847	46.348337	0.000284	2.837019	0.961208	0.000114
 283	2.8059e+01	11.2328	46.509822	0.000405	4.052884	1.373154	0.000162
 284	2.8159e+01	11.2649	46.683419	0.000436	4.356850	1.476141	0.000174
 285	2.8258e+01	11.2986	46.857016	0.000436	4.356850	1.476141	0.000174
 286	2.8358e+01	11.3532	47.010427	0.000385	3.850240	1.304497	0.000154
 287	2.8457e+01	11.3884	47.179987	0.000426	4.255528	1.441812	0.000170
 288	2.8556e+01	11.4334	47.329361	0.000375	3.748918	1.270168	0.000150
 289	2.8656e+01	11.4687	47.523143	0.000486	4.863461	1.647785	0.000195
 290	2.8756e+01	11.5088	47.720963	0.000496	4.964783	1.682114	0.000199
 291	2.8855e+01	11.5505	47.858226	0.000344	3.444951	1.167181	0.000138
 292	2.8954e+01	11.5842	48.035860	0.000446	4.458172	1.510470	0.000179
 293	2.9054e+01	11.6291	48.221568	0.000466	4.660817	1.579127	0.000187
 294	2.9154e+01	11.6564	48.350756	0.000324	3.242307	1.098523	0.000130
 295	2.9253e+01	11.7109	48.492056	0.000355	3.546273	1.201510	0.000142
 296	2.9352e+01	11.7526	48.665653	0.000436	4.356850	1.476141	0.000174
 297	2.9452e+01	11.7943	48.770618	0.000263	2.634375	0.892550	0.000105
 298	2.9552e+01	11.8264	48.932104	0.000405	4.052884	1.373154	0.000162
 299	2.9651e+01	11.8681	49.097626	0.000415	4.154206	1.407483	0.000166
 300	2.9750e+01	11.9066	49.206629	0.000274	2.735697	0.926879	0.000110
 301	2.9850e+01	11.9467	49.372152	0.000415	4.154206	1.407483	0.000166
 302	2.9950e+01	11.9788	49.545748	0.000436	4.356850	1.476141	0.000174
 303	3.0049e+01	12.0317	49.670900	0.000314	3.140985	1.064195	0.000126
 304	3.0148e+01	12.0654	49.832385	0.000405	4.052884	1.373154	0.000162
 305	3.0248e+01	12.1055	50.046353	0.000537	5.370071	1.819429	0.000215
 306	3.0348e+01	12.1456	50.223987	0.000446	4.458172	1.510470	0.000179
 307	3.0447e+01	12.1858	50.405658	0.000456	4.559494	1.544799	0.000183
 308	3.0547e+01	12.2291	50.534847	0.000324	3.242307	1.098523	0.000130
 309	3.0646e+01	12.2724	50.704406	0.000426	4.255528	1.441812	0.000170
 310	3.0745e+01	12.3077	50.886077	0.000456	4.559494	1.544799	0.000183
 311	3.0845e+01	12.3494	51.023340	0.000344	3.444951	1.167181	0.000138
 312	3.0945e+01	12.3911	51.184825	0.000405	4.052884	1.373154	0.000162
 313	3.1044e+01	12.4280	51.314014	0.000324	3.242307	1.098523	0.000130
 314	3.1143e+01	12.4713	51.495685	0.000456	4.559494	1.544799	0.000183
 315	3.1243e+01	12.5162	51.657170	0.000405	4.052884	1.373154	0.000162
 316	3.1343e+01	12.5499	51.762136	0.000263	2.634375	0.892550	0.000105
 317	3.1442e+01	12.5836	51.903436	0.000355	3.546273	1.201510	0.000142
 318	3.1541e+01	12.6237	52.052810	0.000375	3.748918	1.270168	0.000150
 319	3.1641e+01	12.6622	52.266778	0.000537	5.370071	1.819429	0.000215
 320	3.1741e+01	12.7023	52.387892	0.000304	3.039663	1.029866	0.000122
 321	3.1840e+01	12.7488	52.517080	0.000324	3.242307	1.098523	0.000130
 322	3.1939e+01	12.7922	52.722974	0.000517	5.167427	1.750772	0.000207
 323	3.2039e+01	12.8258	52.836014	0.000284	2.837019	0.961208	0.000114
 324	3.2139e+01	12.8611	53.045945	0.000527	5.268749	1.785101	0.000211
 325	3.2238e+01	12.9109	53.203393	0.000395	3.951562	1.338825	0.000158
 326	3.2337e+01	12.9430	53.364879	0.000405	4.052884	1.373154	0.000162
 327	3.2437e+01	12.9847	53.477919	0.000284	2.837019	0.961208	0.000114
 328	3.2536e+01	13.0216	53.655553	0.000446	4.458172	1.510470	0.000179
 329	3.2636e+01	13.0585	53.813001	0.000395	3.951562	1.338825	0.000158
 330	3.2736e+01	13.0954	53.958338	0.000365	3.647596	1.235839	0.000146
 331	3.2835e+01	13.1355	54.103675	0.000365	3.647596	1.235839	0.000146
 332	3.2934e+01	13.1820	54.285346	0.000456	4.559494	1.544799	0.000183
 333	3.3034e+01	13.2221	54.414534	0.000324	3.242307	1.098523	0.000130
 334	3.3133e+01	13.2638	54.523537	0.000274	2.735697	0.926879	0.000110
 335	3.3233e+01	13.2959	54.680985	0.000395	3.951562	1.338825	0.000158
 336	3.3333e+01	13.3392	54.830359	0.000375	3.748918	1.270168	0.000150
 337	3.3432e+01	13.3825	55.003956	0.000436	4.356850	1.476141	0.000174
 338	3.3532e+01	13.4194	55.145256	0.000355	3.546273	1.201510	0.000142
 339	3.3631e+01	13.4499	55.310778	0.000415	4.154206	1.407483	0.000166
 340	3.3730e+01	13.4916	55.468226	0.000395	3.951562	1.338825	0.000158
 341	3.3830e+01	13.5413	55.633749	0.000415	4.154206	1.407483	0.000166
 342	3.3929e+01	13.5782	55.758900	0.000314	3.140985	1.064195	0.000126
 343	3.4029e+01	13.6231	55.924423	0.000415	4.154206	1.407483	0.000166
 344	3.4129e+01	13.6616	56.089945	0.000415	4.154206	1.407483	0.000166
 345	3.4228e+01	13.6969	56.227208	0.000344	3.444951	1.167181	0.000138
 346	3.4328e+01	13.7370	56.396768	0.000426	4.255528	1.441812	0.000170
 347	3.4427e+01	13.7707	56.554216	0.000395	3.951562	1.338825	0.000158
 348	3.4526e+01	13.8205	56.659182	0.000263	2.634375	0.892550	0.000105
 349	3.4626e+01	13.8686	56.836815	0.000446	4.458172	1.510470	0.000179
 350	3.4725e+01	13.8991	56.982152	0.000365	3.647596	1.235839	0.000146
 351	3.4825e+01	13.9440	57.107304	0.000314	3.140985	1.064195	0.000126
 352	3.4925e+01	13.9825	57.256678	0.000375	3.748918	1.270168	0.000150
 353	3.5024e+01	14.0146	57.369717	0.000284	2.837019	0.961208	0.000114
 354	3.5123e+01	14.0579	57.535240	0.000415	4.154206	1.407483	0.000166
 355	3.5223e+01	14.0964	57.708837	0.000436	4.356850	1.476141	0.000174
 356	3.5322e+01	14.1413	57.866285	0.000395	3.951562	1.338825	0.000158
 357	3.5422e+01	14.1798	58.007585	0.000355	3.546273	1.201510	0.000142
 358	3.5522e+01	14.2151	58.189256	0.000456	4.559494	1.544799	0.000183
 359	3.5621e+01	14.2520	58.358816	0.000426	4.255528	1.441812	0.000170
 360	3.5721e+01	14.3082	58.500115	0.000355	3.546273	1.201510	0.000142
 361	3.5820e+01	14.3338	58.661601	0.000405	4.052884	1.373154	0.000162
 362	3.5919e+01	14.3723	58.831161	0.000426	4.255528	1.441812	0.000170
 363	3.6019e+01	14.4124	58.940163	0.000274	2.735697	0.926879	0.000110
 364	3.6118e+01	14.4573	59.097612	0.000395	3.951562	1.338825	0.000158
 365	3.6218e+01	14.4910	59.275245	0.000446	4.458172	1.510470	0.000179
 366	3.6318e+01	14.5376	59.424619	0.000375	3.748918	1.270168	0.000150
 367	3.6417e+01	14.5761	59.582068	0.000395	3.951562	1.338825	0.000158
 368	3.6517e+01	14.6178	59.711256	0.000324	3.242307	1.098523	0.000130
 369	3.6616e+01	14.6563	59.800073	0.000223	2.229086	0.755235	0.000089
 370	3.6715e+01	14.6819	59.977707	0.000446	4.458172	1.510470	0.000179
 371	3.6815e+01	14.7381	60.119007	0.000355	3.546273	1.201510	0.000142
 372	3.6914e+01	14.7702	60.268381	0.000375	3.748918	1.270168	0.000150
 373	3.7014e+01	14.8103	60.437941	0.000426	4.255528	1.441812	0.000170
 374	3.7114e+01	14.8584	60.627686	0.000476	4.762139	1.613456	0.000191
 375	3.7213e+01	14.8921	60.760911	0.000334	3.343629	1.132852	0.000134
 376	3.7313e+01	14.9274	60.962768	0.000507	5.066105	1.716443	0.000203
 377	3.7412e+01	14.9771	61.079845	0.000294	2.938341	0.995537	0.000118
 378	3.7511e+01	15.0060	61.241331	0.000405	4.052884	1.373154	0.000162
 379	3.7611e+01	15.0493	61.362445	0.000304	3.039663	1.029866	0.000122
 380	3.7711e+01	15.0958	61.552190	0.000476	4.762139	1.613456	0.000191
 381	3.7810e+01	15.1327	61.681378	0.000324	3.242307	1.098523	0.000130
 382	3.7910e+01	15.1760	61.838827	0.000395	3.951562	1.338825	0.000158
 383	3.8009e+01	15.2097	62.016461	0.000446	4.458172	1.510470	0.000179
 384	3.8108e+01	15.2450	62.165835	0.000375	3.748918	1.270168	0.000150
 385	3.8208e+01	15.2932	62.311172	0.000365	3.647596	1.235839	0.000146
 386	3.8307e+01	15.3381	62.452471	0.000355	3.546273	1.201510	0.000142
 387	3.8407e+01	15.3702	62.553400	0.000253	2.533052	0.858221	0.000101
 388	3.8507e+01	15.4183	62.702774	0.000375	3.748918	1.270168	0.000150
 389	3.8606e+01	15.4488	62.852148	0.000375	3.748918	1.270168	0.000150
 390	3.8706e+01	15.4921	63.025745	0.000436	4.356850	1.476141	0.000174
 391	3.8805e+01	15.5338	63.223564	0.000496	4.964783	1.682114	0.000199
 392	3.8904e+01	15.5643	63.352753	0.000324	3.242307	1.098523	0.000130
 393	3.9004e+01	15.6092	63.498089	0.000365	3.647596	1.235839	0.000146
 394	3.9103e+01	15.6621	63.687835	0.000476	4.762139	1.613456	0.000191
 395	3.9203e+01	15.6990	63.829135	0.000355	3.546273	1.201510	0.000142
 396	3.9303e+01	15.7295	63.978509	0.000375	3.748918	1.270168	0.000150
 397	3.9402e+01	15.7712	64.148068	0.000426	4.255528	1.441812	0.000170
 398	3.9502e+01	15.8113	64.293405	0.000365	3.647596	1.235839	0.000146
 399	3.9601e+01	15.8546	64.434705	0.000355	3.546273	1.201510	0.000142
 400	3.9700e+01	15.8915	64.576005	0.000355	3.546273	1.201510	0.000142
 401	3.9800e+01	15.9316	64.765750	0.000476	4.762139	1.613456	0.000191
 402	3.9900e+01	15.9701	64.915124	0.000375	3.748918	1.270168	0.000150
 403	3.9999e+01	16.0102	65.044312	0.000324	3.242307	1.098523	0.000130
 404	4.0099e+01	16.0520	65.189649	0.000365	3.647596	1.235839	0.000146
 405	4.0198e+01	16.0856	65.326912	0.000344	3.444951	1.167181	0.000138
 406	4.0297e+01	16.1241	65.448026	0.000304	3.039663	1.029866	0.000122
 407	4.0397e+01	16.1626	65.605474	0.000395	3.951562	1.338825	0.000158
 408	4.0496e+01	16.2028	65.807331	0.000507	5.066105	1.716443	0.000203
 409	4.0596e+01	16.2396	65.968817	0.000405	4.052884	1.373154	0.000162
 410	4.0696e+01	16.2814	66.126265	0.000395	3.951562	1.338825	0.000158
 411	4.0795e+01	16.3295	66.283713	0.000395	3.951562	1.338825	0.000158
 412	4.0895e+01	16.3535	66.449236	0.000415	4.154206	1.407483	0.000166
 413	4.0994e+01	16.4209	66.659167	0.000527	5.268749	1.785101	0.000211
 414	4.1093e+01	16.4546	66.747984	0.000223	2.229086	0.755235	0.000089
 415	4.1193e+01	16.4835	66.901395	0.000385	3.850240	1.304497	0.000154
 416	4.1292e+01	16.5236	67.099215	0.000496	4.964783	1.682114	0.000199
 417	4.1392e+01	16.5605	67.232440	0.000334	3.343629	1.132852	0.000134
 418	4.1492e+01	16.6118	67.381814	0.000375	3.748918	1.270168	0.000150
 419	4.1591e+01	16.6423	67.555411	0.000436	4.356850	1.476141	0.000174
 420	4.1691e+01	16.6808	67.704785	0.000375	3.748918	1.270168	0.000150
 421	4.1790e+01	16.7257	67.890493	0.000466	4.660817	1.579127	0.000187
 422	4.1889e+01	16.7755	67.999496	0.000274	2.735697	0.926879	0.000110
 423	4.1989e+01	16.8124	68.177130	0.000446	4.458172	1.510470	0.000179
 424	4.2089e+01	16.8428	68.358801	0.000456	4.559494	1.544799	0.000183
 425	4.2188e+01	16.8829	68.508175	0.000375	3.748918	1.270168	0.000150
 426	4.2288e+01	16.9279	68.705995	0.000496	4.964783	1.682114	0.000199
 427	4.2387e+01	16.9696	68.847294	0.000355	3.546273	1.201510	0.000142
 428	4.2486e+01	17.0081	69.000705	0.000385	3.850240	1.304497	0.000154
 429	4.2586e+01	17.0482	69.166228	0.000415	4.154206	1.407483	0.000166
 430	4.2685e+01	17.0835	69.360011	0.000486	4.863461	1.647785	0.000195
 431	4.2785e+01	17.1252	69.525533	0.000415	4.154206	1.407483	0.000166
 432	4.2885e+01	17.1637	69.715278	0.000476	4.762139	1.613456	0.000191
 433	4.2984e+01	17.2118	69.848504	0.000334	3.343629	1.132852	0.000134
 434	4.3084e+01	17.2423	69.997878	0.000375	3.748918	1.270168	0.000150
 435	4.3183e+01	17.2984	70.199735	0.000507	5.066105	1.716443	0.000203
 436	4.3282e+01	17.3209	70.308737	0.000274	2.735697	0.926879	0.000110
 437	4.3382e+01	17.3658	70.498483	0.000476	4.762139	1.613456	0.000191
 438	4.3481e+01	17.4027	70.651894	0.000385	3.850240	1.304497	0.000154
 439	4.3581e+01	17.4557	70.797231	0.000365	3.647596	1.235839	0.000146
 440	4.3681e+01	17.4797	70.926419	0.000324	3.242307	1.098523	0.000130
 441	4.3780e+01	17.5230	71.148462	0.000557	5.572715	1.888087	0.000223
 442	4.3880e+01	17.5696	71.281687	0.000334	3.343629	1.132852	0.000134
 443	4.3979e+01	17.6032	71.455284	0.000436	4.356850	1.476141	0.000174
 444	4.4078e+01	17.6417	71.632918	0.000446	4.458172	1.510470	0.000179
 445	4.4178e+01	17.6835	71.810552	0.000446	4.458172	1.510470	0.000179
 446	4.4278e+01	17.7139	71.963963	0.000385	3.850240	1.304497	0.000154
 447	4.4377e+01	17.7685	72.137560	0.000436	4.356850	1.476141	0.000174
 448	4.4477e+01	17.8070	72.299045	0.000405	4.052884	1.373154	0.000162
 449	4.4576e+01	17.8391	72.496865	0.000496	4.964783	1.682114	0.000199
 450	4.4675e+01	17.8840	72.642202	0.000365	3.647596	1.235839	0.000146
 451	4.4775e+01	17.9225	72.815799	0.000436	4.356850	1.476141	0.000174
 452	4.4874e+01	17.9562	72.997470	0.000456	4.559494	1.544799	0.000183
 453	4.4974e+01	18.0075	73.150881	0.000385	3.850240	1.304497	0.000154
 454	4.5074e+01	18.0492	73.300255	0.000375	3.748918	1.270168	0.000150
 455	4.5173e+01	18.0813	73.498075	0.000496	4.964783	1.682114	0.000199
 456	4.5273e+01	18.1342	73.647449	0.000375	3.748918	1.270168	0.000150
 457	4.5372e+01	18.1631	73.792786	0.000365	3.647596	1.235839	0.000146
 458	4.5471e+01	18.2016	73.966382	0.000436	4.356850	1.476141	0.000174
 459	4.5571e+01	18.2385	74.164202	0.000496	4.964783	1.682114	0.000199
 460	4.5670e+01	18.2786	74.370096	0.000517	5.167427	1.750772	0.000207
 461	4.5770e+01	18.3171	74.551767	0.000456	4.559494	1.544799	0.000183
 462	4.5870e+01	18.3637	74.701141	0.000375	3.748918	1.270168	0.000150
 463	4.5969e+01	18.4006	74.878775	0.000446	4.458172	1.510470	0.000179
 464	4.6069e+01	18.4407	75.032186	0.000385	3.850240	1.304497	0.000154
 465	4.6168e+01	18.4808	75.230006	0.000496	4.964783	1.682114	0.000199
 466	4.6267e+01	18.5257	75.371306	0.000355	3.546273	1.201510	0.000142
 467	4.6367e+01	18.5578	75.552977	0.000456	4.559494	1.544799	0.000183
 468	4.6467e+01	18.5979	75.758871	0.000517	5.167427	1.750772	0.000207
 469	4.6566e+01	18.6316	75.952653	0.000486	4.863461	1.647785	0.000195
 470	4.6666e+01	18.6781	76.126250	0.000436	4.356850	1.476141	0.000174
 471	4.6765e+01	18.7278	76.311958	0.000466	4.660817	1.579127	0.000187
 472	4.6864e+01	18.7503	76.433072	0.000304	3.039663	1.029866	0.000122
 473	4.6964e+01	18.7968	76.622818	0.000476	4.762139	1.613456	0.000191
 474	4.7063e+01	18.8449	76.836786	0.000537	5.370071	1.819429	0.000215
 475	4.7163e+01	18.8786	77.038643	0.000507	5.066105	1.716443	0.000203
 476	4.7263e+01	18.9091	77.155720	0.000294	2.938341	0.995537	0.000118
 477	4.7362e+01	18.9524	77.329316	0.000436	4.356850	1.476141	0.000174
 478	4.7462e+01	18.9941	77.543285	0.000537	5.370071	1.819429	0.000215
 479	4.7561e+01	19.0342	77.684584	0.000355	3.546273	1.201510	0.000142
 480	4.7660e+01	19.0775	77.882404	0.000496	4.964783	1.682114	0.000199
 481	4.7760e+01	19.1241	78.056001	0.000436	4.356850	1.476141	0.000174
 482	4.7859e+01	19.1706	78.282081	0.000567	5.674038	1.922416	0.000227
 483	4.7959e+01	19.1962	78.467789	0.000466	4.660817	1.579127	0.000187
 484	4.8059e+01	19.2348	78.665608	0.000496	4.964783	1.682114	0.000199
 485	4.8158e+01	19.2765	78.851317	0.000466	4.660817	1.579127	0.000187
 486	4.8258e+01	19.3166	79.000691	0.000375	3.748918	1.270168	0.000150
 487	4.8357e+01	19.3519	79.230807	0.000578	5.775360	1.956745	0.000231
 488	4.8456e+01	19.3920	79.388256	0.000395	3.951562	1.338825	0.000158
 489	4.8556e+01	19.4337	79.561853	0.000436	4.356850	1.476141	0.000174
 490	4.8656e+01	19.4706	79.759672	0.000496	4.964783	1.682114	0.000199
 491	4.8755e+01	19.5107	80.026123	0.000669	6.687259	2.265705	0.000268
 492	4.8855e+01	19.5588	80.215869	0.000476	4.762139	1.613456	0.000191
 493	4.8954e+01	19.6005	80.397540	0.000456	4.559494	1.544799	0.000183
 494	4.9053e+01	19.6406	80.522691	0.000314	3.140985	1.064195	0.000126
 495	4.9153e+01	19.6727	80.720511	0.000496	4.964783	1.682114	0.000199
 496	4.9252e+01	19.7128	80.890070	0.000426	4.255528	1.441812	0.000170
 497	4.9352e+01	19.7529	81.071741	0.000456	4.559494	1.544799	0.000183
 498	4.9452e+01	19.8043	81.297821	0.000567	5.674038	1.922416	0.000227
 499	4.9551e+01	19.8315	81.463343	0.000415	4.154206	1.407483	0.000166
 500	4.9651e+01	19.8652	81.645015	0.000456	4.559494	1.544799	0.000183
 501	4.9750e+01	19.9166	81.858983	0.000537	5.370071	1.819429	0.000215
 502	4.9849e+01	19.9518	82.056802	0.000496	4.964783	1.682114	0.000199
 503	4.9949e+01	19.9968	82.254622	0.000496	4.964783	1.682114	0.000199
 504	5.0048e+01	19.9486	82.198102	0.000142	1.418509	0.480604	-0.000057
 505	5.0148e+01	19.9133	82.153694	0.000111	1.114543	0.377617	-0.000045
 506	5.0248e+01	19.8748	82.125434	0.000071	0.709255	0.240302	-0.000028
 507	5.0347e+01	19.8315	82.072951	0.000132	1.317187	0.446275	-0.000053
 508	5.0447e+01	19.7994	82.008357	0.000162	1.621154	0.549262	-0.000065
 509	5.0546e+01	19.7465	81.972023	0.000091	0.911899	0.308960	-0.000037
 510	5.0645e+01	19.7240	81.883206	0.000223	2.229086	0.755235	-0.000089
 511	5.0745e+01	19.6775	81.794389	0.000223	2.229086	0.755235	-0.000089
 512	5.0844e+01	19.6342	81.665200	0.000324	3.242307	1.098523	-0.000130
 513	5.0944e+01	19.5909	81.580420	0.000213	2.127764	0.720906	-0.000085
 514	5.1044e+01	19.5604	81.499678	0.000203	2.026442	0.686577	-0.000081
 515	5.1143e+01	19.5107	81.427009	0.000182	1.823798	0.617919	-0.000073
 516	5.1242e+01	19.4722	81.313969	0.000284	2.837019	0.961208	-0.000114
 517	5.1342e+01	19.4417	81.225152	0.000223	2.229086	0.755235	-0.000089
 518	5.1441e+01	19.3920	81.136335	0.000223	2.229086	0.755235	-0.000089
 519	5.1541e+01	19.3615	81.047519	0.000223	2.229086	0.755235	-0.000089
 520	5.1641e+01	19.3230	80.966776	0.000203	2.026442	0.686577	-0.000081
 521	5.1740e+01	19.2829	80.886033	0.000203	2.026442	0.686577	-0.000081
 522	5.1840e+01	19.2396	80.789142	0.000243	2.431730	0.823893	-0.000097
 523	5.1939e+01	19.1898	80.760882	0.000071	0.709255	0.240302	-0.000028
 524	5.2038e+01	19.1610	80.627656	0.000334	3.343629	1.132852	-0.000134
 525	5.2138e+01	19.1144	80.550951	0.000193	1.925120	0.652248	-0.000077
 526	5.2237e+01	19.0807	80.478282	0.000182	1.823798	0.617919	-0.000073
 527	5.2337e+01	19.0326	80.328908	0.000375	3.748918	1.270168	-0.000150
 528	5.2437e+01	18.9941	80.260277	0.000172	1.722476	0.583591	-0.000069
 529	5.2536e+01	18.9540	80.131089	0.000324	3.242307	1.098523	-0.000130
 530	5.2636e+01	18.9187	80.066495	0.000162	1.621154	0.549262	-0.000065
 531	5.2735e+01	18.8850	79.965566	0.000253	2.533052	0.858221	-0.000101
 532	5.2834e+01	18.8481	79.800044	0.000415	4.154206	1.407483	-0.000166
 533	5.2934e+01	18.7968	79.666818	0.000334	3.343629	1.132852	-0.000134
 534	5.3033e+01	18.7599	79.553778	0.000284	2.837019	0.961208	-0.000114
 535	5.3133e+01	18.7150	79.440738	0.000284	2.837019	0.961208	-0.000114
 536	5.3233e+01	18.6733	79.351921	0.000223	2.229086	0.755235	-0.000089
 537	5.3332e+01	18.6412	79.238882	0.000284	2.837019	0.961208	-0.000114
 538	5.3431e+01	18.6043	79.125842	0.000284	2.837019	0.961208	-0.000114
 539	5.3531e+01	18.5513	79.049136	0.000193	1.925120	0.652248	-0.000077
 540	5.3630e+01	18.5273	78.940134	0.000274	2.735697	0.926879	-0.000110
 541	5.3730e+01	18.4792	78.851317	0.000223	2.229086	0.755235	-0.000089
 542	5.3830e+01	18.4407	78.794797	0.000142	1.418509	0.480604	-0.000057
 543	5.3929e+01	18.4038	78.629274	0.000415	4.154206	1.407483	-0.000166
 544	5.4029e+01	18.3620	78.508160	0.000304	3.039663	1.029866	-0.000122
 545	5.4128e+01	18.3203	78.439529	0.000172	1.722476	0.583591	-0.000069
 546	5.4227e+01	18.2834	78.282081	0.000395	3.951562	1.338825	-0.000158
 547	5.4327e+01	18.2417	78.221523	0.000152	1.519831	0.514933	-0.000061
 548	5.4426e+01	18.1984	78.060038	0.000405	4.052884	1.373154	-0.000162
 549	5.4526e+01	18.1551	77.951035	0.000274	2.735697	0.926879	-0.000110
 550	5.4626e+01	18.1278	77.842033	0.000274	2.735697	0.926879	-0.000110
 551	5.4725e+01	18.0845	77.684584	0.000395	3.951562	1.338825	-0.000158
 552	5.4825e+01	18.0428	77.547322	0.000344	3.444951	1.167181	-0.000138
 553	5.4924e+01	18.0123	77.466579	0.000203	2.026442	0.686577	-0.000081
 554	5.5023e+01	17.9642	77.353539	0.000284	2.837019	0.961208	-0.000114
 555	5.5123e+01	17.9161	77.188017	0.000415	4.154206	1.407483	-0.000166
 556	5.5222e+01	17.8776	77.131497	0.000142	1.418509	0.480604	-0.000057
 557	5.5322e+01	17.8487	77.062866	0.000172	1.722476	0.583591	-0.000069
 558	5.5422e+01	17.8038	76.913492	0.000375	3.748918	1.270168	-0.000150
 559	5.5521e+01	17.7589	76.796415	0.000294	2.938341	0.995537	-0.000118
 560	5.5620e+01	17.7204	76.671263	0.000314	3.140985	1.064195	-0.000126
 561	5.5720e+01	17.6802	76.586484	0.000213	2.127764	0.720906	-0.000085
 562	5.5819e+01	17.6466	76.481518	0.000263	2.634375	0.892550	-0.000105
 563	5.5919e+01	17.6000	76.340218	0.000355	3.546273	1.201510	-0.000142
 564	5.6019e+01	17.5680	76.227178	0.000284	2.837019	0.961208	-0.000114
 565	5.6118e+01	17.5262	76.138361	0.000223	2.229086	0.755235	-0.000089
 566	5.6218e+01	17.4861	75.960727	0.000446	4.458172	1.510470	-0.000179
 567	5.6317e+01	17.4508	75.879985	0.000203	2.026442	0.686577	-0.000081
 568	5.6416e+01	17.4027	75.714462	0.000415	4.154206	1.407483	-0.000166
 569	5.6516e+01	17.3754	75.577200	0.000344	3.444951	1.167181	-0.000138
 570	5.6615e+01	17.3321	75.439937	0.000344	3.444951	1.167181	-0.000138
 571	5.6715e+01	17.2872	75.310749	0.000324	3.242307	1.098523	-0.000130
 572	5.6815e+01	17.2423	75.209820	0.000253	2.533052	0.858221	-0.000101
 573	5.6914e+01	17.2006	75.121003	0.000223	2.229086	0.755235	-0.000089
 574	5.7014e+01	17.1717	75.040261	0.000203	2.026442	0.686577	-0.000081
 575	5.7113e+01	17.1220	74.890887	0.000375	3.748918	1.270168	-0.000150
 576	5.7212e+01	17.0851	74.733438	0.000395	3.951562	1.338825	-0.000158
 577	5.7312e+01	17.0418	74.632510	0.000253	2.533052	0.858221	-0.000101
 578	5.7411e+01	17.0065	74.551767	0.000203	2.026442	0.686577	-0.000081
 579	5.7511e+01	16.9632	74.418542	0.000334	3.343629	1.132852	-0.000134
 580	5.7611e+01	16.9247	74.301465	0.000294	2.938341	0.995537	-0.000118
 581	5.7710e+01	16.8942	74.144016	0.000395	3.951562	1.338825	-0.000158
 582	5.7809e+01	16.8396	74.079422	0.000162	1.621154	0.549262	-0.000065
 583	5.7909e+01	16.8043	73.942160	0.000344	3.444951	1.167181	-0.000138
 584	5.8008e+01	16.7739	73.825083	0.000294	2.938341	0.995537	-0.000118
 585	5.8108e+01	16.7305	73.671672	0.000385	3.850240	1.304497	-0.000154
 586	5.8208e+01	16.6872	73.570743	0.000253	2.533052	0.858221	-0.000101
 587	5.8307e+01	16.6519	73.469815	0.000253	2.533052	0.858221	-0.000101
 588	5.8407e+01	16.6070	73.292181	0.000446	4.458172	1.510470	-0.000179
 589	5.8506e+01	16.5685	73.179141	0.000284	2.837019	0.961208	-0.000114
 590	5.8605e+01	16.5252	73.066101	0.000284	2.837019	0.961208	-0.000114
 591	5.8705e+01	16.4819	72.989396	0.000193	1.925120	0.652248	-0.000077
 592	5.8804e+01	16.4466	72.892504	0.000243	2.431730	0.823893	-0.000097
 593	5.8904e+01	16.4081	72.694685	0.000496	4.964783	1.682114	-0.000199
 594	5.9004e+01	16.3712	72.601831	0.000233	2.330408	0.789564	-0.000093
 595	5.9103e+01	16.3231	72.464568	0.000344	3.444951	1.167181	-0.000138
 596	5.9203e+01	16.2942	72.355565	0.000274	2.735697	0.926879	-0.000110
 597	5.9302e+01	16.2541	72.258674	0.000243	2.431730	0.823893	-0.000097
 598	5.9401e+01	16.2092	72.145634	0.000284	2.837019	0.961208	-0.000114
 599	5.9501e+01	16.1562	71.972037	0.000436	4.356850	1.476141	-0.000174
 600	5.9600e+01	16.1274	71.895332	0.000193	1.925120	0.652248	-0.000077
 601	5.9700e+01	16.0872	71.754032	0.000355	3.546273	1.201510	-0.000142
 602	5.9800e+01	16.0471	71.608695	0.000365	3.647596	1.235839	-0.000146
 603	5.9899e+01	16.0070	71.527952	0.000203	2.026442	0.686577	-0.000081
 604	5.9998e+01	15.9685	71.390690	0.000344	3.444951	1.167181	-0.000138
 605	6.0098e+01	15.9316	71.241316	0.000375	3.748918	1.270168	-0.000150
 606	6.0197e+01	15.8883	71.067719	0.000436	4.356850	1.476141	-0.000174
 607	6.0297e+01	15.8466	70.958716	0.000274	2.735697	0.926879	-0.000110
 608	6.0397e+01	15.8033	70.853751	0.000263	2.634375	0.892550	-0.000105
 609	6.0496e+01	15.7712	70.752822	0.000253	2.533052	0.858221	-0.000101
 610	6.0596e+01	15.7215	70.615560	0.000344	3.444951	1.167181	-0.000138
 611	6.0695e+01	15.6878	70.486371	0.000324	3.242307	1.098523	-0.000130
 612	6.0794e+01	15.6525	70.381406	0.000263	2.634375	0.892550	-0.000105
 613	6.0894e+01	15.6076	70.232032	0.000375	3.748918	1.270168	-0.000150
 614	6.0993e+01	15.5675	70.082658	0.000375	3.748918	1.270168	-0.000150
 615	6.1093e+01	15.5290	69.993841	0.000223	2.229086	0.755235	-0.000089
 616	6.1193e+01	15.4857	69.880801	0.000284	2.837019	0.961208	-0.000114
 617	6.1292e+01	15.4568	69.735464	0.000365	3.647596	1.235839	-0.000146
 618	6.1392e+01	15.4087	69.634536	0.000253	2.533052	0.858221	-0.000101
 619	6.1491e+01	15.3798	69.473050	0.000405	4.052884	1.373154	-0.000162
 620	6.1590e+01	15.3349	69.355973	0.000294	2.938341	0.995537	-0.000118
 621	6.1690e+01	15.2948	69.210637	0.000365	3.647596	1.235839	-0.000146
 622	6.1789e+01	15.2579	69.093560	0.000294	2.938341	0.995537	-0.000118
 623	6.1889e+01	15.2113	68.919963	0.000436	4.356850	1.476141	-0.000174
 624	6.1989e+01	15.1696	68.810960	0.000274	2.735697	0.926879	-0.000110
 625	6.2088e+01	15.1391	68.714069	0.000243	2.431730	0.823893	-0.000097
 626	6.2188e+01	15.0974	68.576806	0.000344	3.444951	1.167181	-0.000138
 627	6.2287e+01	15.0509	68.459729	0.000294	2.938341	0.995537	-0.000118
 628	6.2386e+01	15.0301	68.326504	0.000334	3.343629	1.132852	-0.000134
 629	6.2486e+01	14.9691	68.185204	0.000355	3.546273	1.201510	-0.000142
 630	6.2586e+01	14.9402	68.088313	0.000243	2.431730	0.823893	-0.000097
 631	6.2685e+01	14.8857	67.951050	0.000344	3.444951	1.167181	-0.000138
 632	6.2785e+01	14.8520	67.797639	0.000385	3.850240	1.304497	-0.000154
 633	6.2884e+01	14.8167	67.648265	0.000375	3.748918	1.270168	-0.000150
 634	6.2983e+01	14.7750	67.539262	0.000274	2.735697	0.926879	-0.000110
 635	6.3083e+01	14.7365	67.430260	0.000274	2.735697	0.926879	-0.000110
 636	6.3182e+01	14.6900	67.309146	0.000304	3.039663	1.029866	-0.000122
 637	6.3282e+01	14.6579	67.147660	0.000405	4.052884	1.373154	-0.000162
 638	6.3382e+01	14.6130	67.030583	0.000294	2.938341	0.995537	-0.000118
 639	6.3481e+01	14.5680	66.885246	0.000365	3.647596	1.235839	-0.000146
 640	6.3581e+01	14.5440	66.747984	0.000344	3.444951	1.167181	-0.000138
 641	6.3680e+01	14.5007	66.590535	0.000395	3.951562	1.338825	-0.000158
 642	6.3779e+01	14.4590	66.517867	0.000182	1.823798	0.617919	-0.000073
 643	6.3879e+01	14.4124	66.360419	0.000395	3.951562	1.338825	-0.000158
 644	6.3978e+01	14.3739	66.219119	0.000355	3.546273	1.201510	-0.000142
 645	6.4078e+01	14.3386	66.093968	0.000314	3.140985	1.064195	-0.000126
 646	6.4177e+01	14.2985	65.952668	0.000355	3.546273	1.201510	-0.000142
 647	6.4277e+01	14.2552	65.819443	0.000334	3.343629	1.132852	-0.000134
 648	6.4376e+01	14.2151	65.690254	0.000324	3.242307	1.098523	-0.000130
 649	6.4476e+01	14.1702	65.573177	0.000294	2.938341	0.995537	-0.000118
 650	6.4576e+01	14.1349	65.476286	0.000243	2.431730	0.823893	-0.000097
 651	6.4675e+01	14.0932	65.334986	0.000355	3.546273	1.201510	-0.000142
 652	6.4775e+01	14.0611	65.165427	0.000426	4.255528	1.441812	-0.000170
 653	6.4874e+01	14.0178	65.064498	0.000253	2.533052	0.858221	-0.000101
 654	6.4974e+01	13.9729	64.931273	0.000334	3.343629	1.132852	-0.000134
 655	6.5073e+01	13.9360	64.818233	0.000284	2.837019	0.961208	-0.000114
 656	6.5172e+01	13.9007	64.624450	0.000486	4.863461	1.647785	-0.000195
 657	6.5272e+01	13.8622	64.523522	0.000253	2.533052	0.858221	-0.000101
 658	6.5371e+01	13.8269	64.390296	0.000334	3.343629	1.132852	-0.000134
 659	6.5471e+01	13.7868	64.228811	0.000405	4.052884	1.373154	-0.000162
 660	6.5570e+01	13.7338	64.111734	0.000294	2.938341	0.995537	-0.000118
 661	6.5670e+01	13.6937	63.958323	0.000385	3.850240	1.304497	-0.000154
 662	6.5769e+01	13.6568	63.825097	0.000334	3.343629	1.132852	-0.000134
 663	6.5869e+01	13.6231	63.687835	0.000344	3.444951	1.167181	-0.000138
 664	6.5969e+01	13.5718	63.542498	0.000365	3.647596	1.235839	-0.000146
 665	6.6068e+01	13.5365	63.417347	0.000314	3.140985	1.064195	-0.000126
 666	6.6168e+01	13.4996	63.300270	0.000294	2.938341	0.995537	-0.000118
 667	6.6267e+01	13.4547	63.167044	0.000334	3.343629	1.132852	-0.000134
 668	6.6367e+01	13.4082	63.005559	0.000405	4.052884	1.373154	-0.000162
 669	6.6466e+01	13.3825	62.904631	0.000253	2.533052	0.858221	-0.000101
 670	6.6566e+01	13.3408	62.718922	0.000466	4.660817	1.579127	-0.000187
 671	6.6665e+01	13.2847	62.601845	0.000294	2.938341	0.995537	-0.000118
 672	6.6764e+01	13.2638	62.480731	0.000304	3.039663	1.029866	-0.000122
 673	6.6864e+01	13.2109	62.311172	0.000426	4.255528	1.441812	-0.000170
 674	6.6963e+01	13.1820	62.161798	0.000375	3.748918	1.270168	-0.000150
 675	6.7063e+01	13.1403	62.020498	0.000355	3.546273	1.201510	-0.000142
 676	6.7162e+01	13.1018	61.887272	0.000334	3.343629	1.132852	-0.000134
 677	6.7262e+01	13.0649	61.790381	0.000243	2.431730	0.823893	-0.000097
 678	6.7362e+01	13.0216	61.604673	0.000466	4.660817	1.579127	-0.000187
 679	6.7461e+01	12.9734	61.507782	0.000243	2.431730	0.823893	-0.000097
 680	6.7561e+01	12.9301	61.346296	0.000405	4.052884	1.373154	-0.000162
 681	6.7660e+01	12.8996	61.204996	0.000355	3.546273	1.201510	-0.000142
 682	6.7760e+01	12.8627	61.071771	0.000334	3.343629	1.132852	-0.000134
 683	6.7859e+01	12.8210	60.922397	0.000375	3.748918	1.270168	-0.000150
 684	6.7959e+01	12.7761	60.777060	0.000365	3.647596	1.235839	-0.000146
 685	6.8058e+01	12.7488	60.659983	0.000294	2.938341	0.995537	-0.000118
 686	6.8157e+01	12.7119	60.510609	0.000375	3.748918	1.270168	-0.000150
 687	6.8257e+01	12.6654	60.357198	0.000385	3.850240	1.304497	-0.000154
 688	6.8356e+01	12.6285	60.232047	0.000314	3.140985	1.064195	-0.000126
 689	6.8456e+01	12.5772	60.098821	0.000334	3.343629	1.132852	-0.000134
 690	6.8555e+01	12.5515	59.933299	0.000415	4.154206	1.407483	-0.000166
 691	6.8655e+01	12.5082	59.791999	0.000355	3.546273	1.201510	-0.000142
 692	6.8754e+01	12.4649	59.662811	0.000324	3.242307	1.098523	-0.000130
 693	6.8854e+01	12.4312	59.565919	0.000243	2.431730	0.823893	-0.000097
 694	6.8954e+01	12.3863	59.396360	0.000426	4.255528	1.441812	-0.000170
 695	6.9053e+01	12.3446	59.206614	0.000476	4.762139	1.613456	-0.000191
 696	6.9153e+01	12.3061	59.065314	0.000355	3.546273	1.201510	-0.000142
 697	6.9252e+01	12.2724	58.960349	0.000263	2.634375	0.892550	-0.000105
 698	6.9352e+01	12.2226	58.810975	0.000375	3.748918	1.270168	-0.000150
 699	6.9451e+01	12.1825	58.657564	0.000385	3.850240	1.304497	-0.000154
 700	6.9550e+01	12.1328	58.516264	0.000355	3.546273	1.201510	-0.000142
 701	6.9650e+01	12.1055	58.362853	0.000385	3.850240	1.304497	-0.000154
 702	6.9749e+01	12.0670	58.233664	0.000324	3.242307	1.098523	-0.000130
 703	6.9849e+01	12.0205	58.104476	0.000324	3.242307	1.098523	-0.000130
 704	6.9948e+01	11.9740	57.926842	0.000446	4.458172	1.510470	-0.000179
 705	7.0048e+01	11.9483	57.809765	0.000294	2.938341	0.995537	-0.000118
 706	7.0147e+01	11.9034	57.640205	0.000426	4.255528	1.441812	-0.000170
 707	7.0247e+01	11.8729	57.515054	0.000314	3.140985	1.064195	-0.000126
 708	7.0347e+01	11.8296	57.389903	0.000314	3.140985	1.064195	-0.000126
 709	7.0446e+01	11.7847	57.232455	0.000395	3.951562	1.338825	-0.000158
 710	7.0546e+01	11.7446	57.111341	0.000304	3.039663	1.029866	-0.000122
 711	7.0645e+01	11.7045	56.949855	0.000405	4.052884	1.373154	-0.000162
 712	7.0745e+01	11.6708	56.816630	0.000334	3.343629	1.132852	-0.000134
 713	7.0844e+01	11.6275	56.634959	0.000456	4.559494	1.544799	-0.000183
 714	7.0944e+01	11.5826	56.505770	0.000324	3.242307	1.098523	-0.000130
 715	7.1043e+01	11.5505	56.340248	0.000415	4.154206	1.407483	-0.000166
 716	7.1142e+01	11.5152	56.235282	0.000263	2.634375	0.892550	-0.000105
 717	7.1242e+01	11.4703	56.069760	0.000415	4.154206	1.407483	-0.000166
 718	7.1341e+01	11.4286	55.904237	0.000415	4.154206	1.407483	-0.000166
 719	7.1441e+01	11.3852	55.795234	0.000274	2.735697	0.926879	-0.000110
 720	7.1540e+01	11.3548	55.657972	0.000344	3.444951	1.167181	-0.000138
 721	7.1640e+01	11.2986	55.492449	0.000415	4.154206	1.407483	-0.000166
 722	7.1740e+01	11.2697	55.343075	0.000375	3.748918	1.270168	-0.000150
 723	7.1839e+01	11.2184	55.177553	0.000415	4.154206	1.407483	-0.000166
 724	7.1939e+01	11.1847	55.052401	0.000314	3.140985	1.064195	-0.000126
 725	7.2038e+01	11.1558	54.898990	0.000385	3.850240	1.304497	-0.000154
 726	7.2138e+01	11.1093	54.765765	0.000334	3.343629	1.132852	-0.000134
 727	7.2237e+01	11.0724	54.672911	0.000233	2.330408	0.789564	-0.000093
 728	7.2337e+01	11.0227	54.547760	0.000314	3.140985	1.064195	-0.000126
 729	7.2436e+01	10.9906	54.333791	0.000537	5.370071	1.819429	-0.000215
 730	7.2535e+01	10.9505	54.164232	0.000426	4.255528	1.441812	-0.000170
 731	7.2635e+01	10.9168	54.002746	0.000405	4.052884	1.373154	-0.000162
 732	7.2734e+01	10.8735	53.901818	0.000253	2.533052	0.858221	-0.000101
 733	7.2834e+01	10.8318	53.728221	0.000436	4.356850	1.476141	-0.000174
 734	7.2933e+01	10.7933	53.582884	0.000365	3.647596	1.235839	-0.000146
 735	7.3033e+01	10.7484	53.449659	0.000334	3.343629	1.132852	-0.000134
 736	7.3132e+01	10.7115	53.243765	0.000517	5.167427	1.750772	-0.000207
 737	7.3232e+01	10.6730	53.150911	0.000233	2.330408	0.789564	-0.000093
 738	7.3332e+01	10.6361	52.965202	0.000466	4.660817	1.579127	-0.000187
 739	7.3431e+01	10.5815	52.811791	0.000385	3.850240	1.304497	-0.000154
 740	7.3531e+01	10.5526	52.686640	0.000314	3.140985	1.064195	-0.000126
 741	7.3630e+01	10.5174	52.537266	0.000375	3.748918	1.270168	-0.000150
 742	7.3730e+01	10.4708	52.404040	0.000334	3.343629	1.132852	-0.000134
 743	7.3829e+01	10.4371	52.266778	0.000344	3.444951	1.167181	-0.000138
 744	7.3928e+01	10.3970	52.093181	0.000436	4.356850	1.476141	-0.000174
 745	7.4028e+01	10.3521	51.992253	0.000253	2.533052	0.858221	-0.000101
 746	7.4127e+01	10.3136	51.818656	0.000436	4.356850	1.476141	-0.000174
 747	7.4227e+01	10.2783	51.649096	0.000426	4.255528	1.441812	-0.000170
 748	7.4326e+01	10.2350	51.511833	0.000344	3.444951	1.167181	-0.000138
 749	7.4426e+01	10.1981	51.354385	0.000395	3.951562	1.338825	-0.000158
 750	7.4525e+01	10.1516	51.205011	0.000375	3.748918	1.270168	-0.000150
 751	7.4625e+01	10.1067	51.047563	0.000395	3.951562	1.338825	-0.000158
 752	7.4725e+01	10.0746	50.886077	0.000405	4.052884	1.373154	-0.000162
 753	7.4824e+01	10.0361	50.760926	0.000314	3.140985	1.064195	-0.000126
 754	7.4924e+01	9.9976	50.603478	0.000395	3.951562	1.338825	-0.000158
 755	7.5023e+01	9.9559	50.478327	0.000314	3.140985	1.064195	-0.000126
 756	7.5123e+01	9.9126	50.304730	0.000436	4.356850	1.476141	-0.000174
 757	7.5222e+01	9.8708	50.159393	0.000365	3.647596	1.235839	-0.000146
 758	7.5322e+01	9.8404	49.989833	0.000426	4.255528	1.441812	-0.000170
 759	7.5421e+01	9.8019	49.860645	0.000324	3.242307	1.098523	-0.000130
 760	7.5520e+01	9.7569	49.731457	0.000324	3.242307	1.098523	-0.000130
 761	7.5620e+01	9.7072	49.561897	0.000426	4.255528	1.441812	-0.000170
 762	7.5719e+01	9.6767	49.444820	0.000294	2.938341	0.995537	-0.000118
 763	7.5819e+01	9.6318	49.319669	0.000314	3.140985	1.064195	-0.000126
 764	7.5918e+01	9.5965	49.158183	0.000405	4.052884	1.373154	-0.000162
 765	7.6018e+01	9.5548	48.976512	0.000456	4.559494	1.544799	-0.000183
 766	7.6118e+01	9.5115	48.810990	0.000415	4.154206	1.407483	-0.000166
 767	7.6217e+01	9.4778	48.653541	0.000395	3.951562	1.338825	-0.000158
 768	7.6317e+01	9.4377	48.524353	0.000324	3.242307	1.098523	-0.000130
 769	7.6416e+01	9.3944	48.342682	0.000456	4.559494	1.544799	-0.000183
 770	7.6516e+01	9.3559	48.189271	0.000385	3.850240	1.304497	-0.000154
 771	7.6615e+01	9.3190	48.027785	0.000405	4.052884	1.373154	-0.000162
 772	7.6715e+01	9.2805	47.926857	0.000253	2.533052	0.858221	-0.000101
 773	7.6814e+01	9.2500	47.761334	0.000415	4.154206	1.407483	-0.000166
 774	7.6913e+01	9.2051	47.583700	0.000446	4.458172	1.510470	-0.000179
 775	7.7013e+01	9.1489	47.462586	0.000304	3.039663	1.029866	-0.000122
 776	7.7112e+01	9.1153	47.317249	0.000365	3.647596	1.235839	-0.000146
 777	7.7212e+01	9.0816	47.135578	0.000456	4.559494	1.544799	-0.000183
 778	7.7311e+01	9.0382	46.961981	0.000436	4.356850	1.476141	-0.000174
 779	7.7411e+01	8.9997	46.848942	0.000284	2.837019	0.961208	-0.000114
 780	7.7510e+01	8.9628	46.671308	0.000446	4.458172	1.510470	-0.000179
 781	7.7610e+01	8.9227	46.550194	0.000304	3.039663	1.029866	-0.000122
 782	7.7710e+01	8.8842	46.344300	0.000517	5.167427	1.750772	-0.000207
 783	7.7809e+01	8.8361	46.207037	0.000344	3.444951	1.167181	-0.000138
 784	7.7909e+01	8.7976	46.053626	0.000385	3.850240	1.304497	-0.000154
 785	7.8008e+01	8.7655	45.932512	0.000304	3.039663	1.029866	-0.000122
 786	7.8108e+01	8.7206	45.775064	0.000395	3.951562	1.338825	-0.000158
 787	7.8207e+01	8.6885	45.593392	0.000456	4.559494	1.544799	-0.000183
 788	7.8306e+01	8.6388	45.427870	0.000415	4.154206	1.407483	-0.000166
 789	7.8406e+01	8.6003	45.270422	0.000395	3.951562	1.338825	-0.000158
 790	7.8505e+01	8.5554	45.173530	0.000243	2.431730	0.823893	-0.000097
 791	7.8605e+01	8.5265	44.999934	0.000436	4.356850	1.476141	-0.000174
 792	7.8704e+01	8.4848	44.834411	0.000415	4.154206	1.407483	-0.000166
 793	7.8804e+01	8.4335	44.668888	0.000415	4.154206	1.407483	-0.000166
 794	7.8903e+01	8.3998	44.483180	0.000466	4.660817	1.579127	-0.000187
 795	7.9003e+01	8.3564	44.345918	0.000344	3.444951	1.167181	-0.000138
 796	7.9103e+01	8.3260	44.172321	0.000436	4.356850	1.476141	-0.000174
 797	7.9202e+01	8.2810	44.047169	0.000314	3.140985	1.064195	-0.000126
 798	7.9302e+01	8.2458	43.877610	0.000426	4.255528	1.441812	-0.000170
 799	7.9401e+01	8.2024	43.687864	0.000476	4.762139	1.613456	-0.000191
 800	7.9501e+01	8.1543	43.562713	0.000314	3.140985	1.064195	-0.000126
 801	7.9600e+01	8.1174	43.381042	0.000456	4.559494	1.544799	-0.000183
 802	7.9700e+01	8.0757	43.215520	0.000415	4.154206	1.407483	-0.000166
 803	7.9799e+01	8.0484	43.082294	0.000334	3.343629	1.132852	-0.000134
 804	7.9898e+01	7.9987	42.920809	0.000405	4.052884	1.373154	-0.000162
 805	7.9998e+01	7.9570	42.739137	0.000456	4.559494	1.544799	-0.000183
 806	8.0097e+01	7.9185	42.597838	0.000355	3.546273	1.201510	-0.000142
 807	8.0197e+01	7.8832	42.464612	0.000334	3.343629	1.132852	-0.000134
 808	8.0296e+01	7.8431	42.299090	0.000415	4.154206	1.407483	-0.000166
 809	8.0396e+01	7.7998	42.141641	0.000395	3.951562	1.338825	-0.000158
 810	8.0496e+01	7.7533	41.984193	0.000395	3.951562	1.338825	-0.000158
 811	8.0595e+01	7.7260	41.826745	0.000395	3.951562	1.338825	-0.000158
 812	8.0695e+01	7.6763	41.661222	0.000415	4.154206	1.407483	-0.000166
 813	8.0794e+01	7.6442	41.471477	0.000476	4.762139	1.613456	-0.000191
 814	8.0894e+01	7.6073	41.309991	0.000405	4.052884	1.373154	-0.000162
 815	8.0993e+01	7.5656	41.168692	0.000355	3.546273	1.201510	-0.000142
 816	8.1093e+01	7.5239	40.966835	0.000507	5.066105	1.716443	-0.000203
 817	8.1192e+01	7.4870	40.849758	0.000294	2.938341	0.995537	-0.000118
 818	8.1291e+01	7.4597	40.684235	0.000415	4.154206	1.407483	-0.000166
 819	8.1391e+01	7.4003	40.534861	0.000375	3.748918	1.270168	-0.000150
 820	8.1490e+01	7.3714	40.365302	0.000426	4.255528	1.441812	-0.000170
 821	8.1590e+01	7.3297	40.224002	0.000355	3.546273	1.201510	-0.000142
 822	8.1689e+01	7.2816	40.022145	0.000507	5.066105	1.716443	-0.000203
 823	8.1789e+01	7.2479	39.848548	0.000436	4.356850	1.476141	-0.000174
 824	8.1888e+01	7.2110	39.715323	0.000334	3.343629	1.132852	-0.000134
 825	8.1988e+01	7.1597	39.517503	0.000496	4.964783	1.682114	-0.000199
 826	8.2088e+01	7.1244	39.404463	0.000284	2.837019	0.961208	-0.000114
 827	8.2187e+01	7.0811	39.230867	0.000436	4.356850	1.476141	-0.000174
 828	8.2287e+01	7.0506	39.089567	0.000355	3.546273	1.201510	-0.000142
 829	8.2386e+01	6.9993	38.932118	0.000395	3.951562	1.338825	-0.000158
 830	8.2486e+01	6.9640	38.714113	0.000547	5.471393	1.853758	-0.000219
 831	8.2585e+01	6.9255	38.560702	0.000385	3.850240	1.304497	-0.000154
 832	8.2684e+01	6.8886	38.411328	0.000375	3.748918	1.270168	-0.000150
 833	8.2784e+01	6.8549	38.237731	0.000436	4.356850	1.476141	-0.000174
 834	8.2883e+01	6.8068	38.076246	0.000405	4.052884	1.373154	-0.000162
 835	8.2983e+01	6.7650	37.882463	0.000486	4.863461	1.647785	-0.000195
 836	8.3082e+01	6.7314	37.716941	0.000415	4.154206	1.407483	-0.000166
 837	8.3182e+01	6.6832	37.543344	0.000436	4.356850	1.476141	-0.000174
 838	8.3281e+01	6.6511	37.406081	0.000344	3.444951	1.167181	-0.000138
 839	8.3381e+01	6.6046	37.220373	0.000466	4.660817	1.579127	-0.000187
 840	8.3481e+01	6.5677	37.066962	0.000385	3.850240	1.304497	-0.000154
 841	8.3580e+01	6.5180	36.929699	0.000344	3.444951	1.167181	-0.000138
 842	8.3680e+01	6.4875	36.715731	0.000537	5.370071	1.819429	-0.000215
 843	8.3779e+01	6.4410	36.558283	0.000395	3.951562	1.338825	-0.000158
 844	8.3879e+01	6.4105	36.404872	0.000385	3.850240	1.304497	-0.000154
 845	8.3978e+01	6.3672	36.239349	0.000415	4.154206	1.407483	-0.000166
 846	8.4078e+01	6.3319	36.045566	0.000486	4.863461	1.647785	-0.000195
 847	8.4177e+01	6.2886	35.884081	0.000405	4.052884	1.373154	-0.000162
 848	8.4276e+01	6.2373	35.718558	0.000415	4.154206	1.407483	-0.000166
 849	8.4376e+01	6.2068	35.557073	0.000405	4.052884	1.373154	-0.000162
 850	8.4475e+01	6.1667	35.379439	0.000446	4.458172	1.510470	-0.000179
 851	8.4575e+01	6.1410	35.201805	0.000446	4.458172	1.510470	-0.000179
 852	8.4674e+01	6.0865	35.028208	0.000436	4.356850	1.476141	-0.000174
 853	8.4774e+01	6.0512	34.870760	0.000395	3.951562	1.338825	-0.000158
 854	8.4874e+01	6.0111	34.701200	0.000426	4.255528	1.441812	-0.000170
 855	8.4973e+01	5.9694	34.511455	0.000476	4.762139	1.613456	-0.000191
 856	8.5073e+01	5.9325	34.354007	0.000395	3.951562	1.338825	-0.000158
 857	8.5172e+01	5.8859	34.196558	0.000395	3.951562	1.338825	-0.000158
 858	8.5272e+01	5.8587	34.039110	0.000395	3.951562	1.338825	-0.000158
 859	8.5371e+01	5.8169	33.865513	0.000436	4.356850	1.476141	-0.000174
 860	8.5471e+01	5.7656	33.708065	0.000395	3.951562	1.338825	-0.000158
 861	8.5570e+01	5.7287	33.494097	0.000537	5.370071	1.819429	-0.000215
 862	8.5669e+01	5.6902	33.328574	0.000415	4.154206	1.407483	-0.000166
 863	8.5769e+01	5.6533	33.171126	0.000395	3.951562	1.338825	-0.000158
 864	8.5868e+01	5.6132	32.969269	0.000507	5.066105	1.716443	-0.000203
 865	8.5968e+01	5.5715	32.832006	0.000344	3.444951	1.167181	-0.000138
 866	8.6067e+01	5.5266	32.642261	0.000476	4.762139	1.613456	-0.000191
 867	8.6167e+01	5.4961	32.492887	0.000375	3.748918	1.270168	-0.000150
 868	8.6266e+01	5.4496	32.270845	0.000557	5.572715	1.888087	-0.000223
 869	8.6366e+01	5.3982	32.109359	0.000405	4.052884	1.373154	-0.000162
 870	8.6466e+01	5.3742	31.947874	0.000405	4.052884	1.373154	-0.000162
 871	8.6565e+01	5.3405	31.802537	0.000365	3.647596	1.235839	-0.000146
 872	8.6665e+01	5.2876	31.588569	0.000537	5.370071	1.819429	-0.000215
 873	8.6764e+01	5.2635	31.423046	0.000415	4.154206	1.407483	-0.000166
 874	8.6864e+01	5.2122	31.265598	0.000395	3.951562	1.338825	-0.000158
 875	8.6963e+01	5.1817	31.055667	0.000527	5.268749	1.785101	-0.000211
 876	8.7063e+01	5.1416	30.878033	0.000446	4.458172	1.510470	-0.000179
 877	8.7162e+01	5.0870	30.752881	0.000314	3.140985	1.064195	-0.000126
 878	8.7261e+01	5.0549	30.538913	0.000537	5.370071	1.819429	-0.000215
 879	8.7361e+01	5.0116	30.385502	0.000385	3.850240	1.304497	-0.000154
 880	8.7460e+01	4.9731	30.228054	0.000395	3.951562	1.338825	-0.000158
 881	8.7560e+01	4.9234	30.038308	0.000476	4.762139	1.613456	-0.000191
 882	8.7659e+01	4.8945	29.852600	0.000466	4.660817	1.579127	-0.000187
 883	8.7759e+01	4.8496	29.731486	0.000304	3.039663	1.029866	-0.000122
 884	8.7859e+01	4.8239	29.545778	0.000466	4.660817	1.579127	-0.000187
 885	8.7958e+01	4.7790	29.351995	0.000486	4.863461	1.647785	-0.000195
 886	8.8058e+01	4.7405	29.158213	0.000486	4.863461	1.647785	-0.000195
 887	8.8157e+01	4.6972	28.996727	0.000405	4.052884	1.373154	-0.000162
 888	8.8257e+01	4.6539	28.839279	0.000395	3.951562	1.338825	-0.000158
 889	8.8356e+01	4.6154	28.609162	0.000578	5.775360	1.956745	-0.000231
 890	8.8456e+01	4.5817	28.439603	0.000426	4.255528	1.441812	-0.000170
 891	8.8555e+01	4.5304	28.270043	0.000426	4.255528	1.441812	-0.000170
 892	8.8654e+01	4.4967	28.060112	0.000527	5.268749	1.785101	-0.000211
 893	8.8754e+01	4.4469	27.902664	0.000395	3.951562	1.338825	-0.000158
 894	8.8853e+01	4.4148	27.749252	0.000385	3.850240	1.304497	-0.000154
 895	8.8953e+01	4.3747	27.583730	0.000415	4.154206	1.407483	-0.000166
 896	8.9052e+01	4.3362	27.393985	0.000476	4.762139	1.613456	-0.000191
 897	8.9152e+01	4.2897	27.204239	0.000476	4.762139	1.613456	-0.000191
 898	8.9251e+01	4.2624	27.006420	0.000496	4.964783	1.682114	-0.000199
 899	8.9351e+01	4.2191	26.804563	0.000507	5.066105	1.716443	-0.000203
 900	8.9451e+01	4.1726	26.655189	0.000375	3.748918	1.270168	-0.000150
 901	8.9550e+01	4.1277	26.501778	0.000385	3.850240	1.304497	-0.000154
 902	8.9650e+01	4.1100	26.332218	0.000426	4.255528	1.441812	-0.000170
 903	8.9749e+01	4.0571	26.138435	0.000486	4.863461	1.647785	-0.000195
 904	8.9849e+01	4.0186	25.948690	0.000476	4.762139	1.613456	-0.000191
 905	8.9948e+01	3.9833	25.742796	0.000517	5.167427	1.750772	-0.000207
 906	9.0047e+01	3.9320	25.589385	0.000385	3.850240	1.304497	-0.000154
 907	9.0147e+01	3.8967	25.403677	0.000466	4.660817	1.579127	-0.000187
 908	9.0246e+01	3.8550	25.181634	0.000557	5.572715	1.888087	-0.000223
 909	9.0346e+01	3.8229	25.024186	0.000395	3.951562	1.338825	-0.000158
 910	9.0445e+01	3.7716	24.854626	0.000426	4.255528	1.441812	-0.000170
 911	9.0545e+01	3.7330	24.668918	0.000466	4.660817	1.579127	-0.000187
 912	9.0644e+01	3.7010	24.491284	0.000446	4.458172	1.510470	-0.000179
 913	9.0744e+01	3.6577	24.325761	0.000415	4.154206	1.407483	-0.000166
 914	9.0844e+01	3.6240	24.136016	0.000476	4.762139	1.613456	-0.000191
 915	9.0943e+01	3.5726	23.990679	0.000365	3.647596	1.235839	-0.000146
 916	9.1043e+01	3.5325	23.776711	0.000537	5.370071	1.819429	-0.000215
 917	9.1142e+01	3.5052	23.627337	0.000375	3.748918	1.270168	-0.000150
 918	9.1242e+01	3.4603	23.433554	0.000486	4.863461	1.647785	-0.000195
 919	9.1341e+01	3.4266	23.272069	0.000405	4.052884	1.373154	-0.000162
 920	9.1441e+01	3.3689	23.078286	0.000486	4.863461	1.647785	-0.000195
 921	9.1540e+01	3.3352	22.856244	0.000557	5.572715	1.888087	-0.000223
 922	9.1639e+01	3.3015	22.690721	0.000415	4.154206	1.407483	-0.000166
 923	9.1739e+01	3.2678	22.533273	0.000395	3.951562	1.338825	-0.000158
 924	9.1838e+01	3.2213	22.343528	0.000476	4.762139	1.613456	-0.000191
 925	9.1938e+01	3.1860	22.125522	0.000547	5.471393	1.853758	-0.000219
 926	9.2037e+01	3.1475	21.947888	0.000446	4.458172	1.510470	-0.000179
 927	9.2137e+01	3.1074	21.770254	0.000446	4.458172	1.510470	-0.000179
 928	9.2237e+01	3.0609	21.568398	0.000507	5.066105	1.716443	-0.000203
 929	9.2336e+01	3.0208	21.427098	0.000355	3.546273	1.201510	-0.000142
 930	9.2436e+01	2.9839	21.213130	0.000537	5.370071	1.819429	-0.000215
 931	9.2535e+01	2.9390	21.059719	0.000385	3.850240	1.304497	-0.000154
 932	9.2635e+01	2.8956	20.878047	0.000456	4.559494	1.544799	-0.000183
 933	9.2734e+01	2.8587	20.656005	0.000557	5.572715	1.888087	-0.000223
 934	9.2834e+01	2.8202	20.502594	0.000385	3.850240	1.304497	-0.000154
 935	9.2933e+01	2.7882	20.361294	0.000355	3.546273	1.201510	-0.000142
 936	9.3032e+01	2.7384	20.143289	0.000547	5.471393	1.853758	-0.000219
 937	9.3132e+01	2.7047	19.953543	0.000476	4.762139	1.613456	-0.000191
 938	9.3231e+01	2.6630	19.755724	0.000496	4.964783	1.682114	-0.000199
 939	9.3331e+01	2.6245	19.578090	0.000446	4.458172	1.510470	-0.000179
 940	9.3430e+01	2.5876	19.396419	0.000456	4.559494	1.544799	-0.000183
 941	9.3530e+01	2.5395	19.186488	0.000527	5.268749	1.785101	-0.000211
 942	9.3629e+01	2.5042	19.012891	0.000436	4.356850	1.476141	-0.000174
 943	9.3729e+01	2.4689	18.831220	0.000456	4.559494	1.544799	-0.000183
 944	9.3829e+01	2.4192	18.633400	0.000496	4.964783	1.682114	-0.000199
 945	9.3928e+01	2.3775	18.435580	0.000496	4.964783	1.682114	-0.000199
 946	9.4028e+01	2.3502	18.274095	0.000405	4.052884	1.373154	-0.000162
 947	9.4127e+01	2.3037	18.068201	0.000517	5.167427	1.750772	-0.000207
 948	9.4227e+01	2.2668	17.886530	0.000456	4.559494	1.544799	-0.000183
 949	9.4326e+01	2.2219	17.704859	0.000456	4.559494	1.544799	-0.000183
 950	9.4425e+01	2.1866	17.503002	0.000507	5.066105	1.716443	-0.000203
 951	9.4525e+01	2.1449	17.349591	0.000385	3.850240	1.304497	-0.000154
 952	9.4624e+01	2.1080	17.139660	0.000527	5.268749	1.785101	-0.000211
 953	9.4724e+01	2.0614	16.949914	0.000476	4.762139	1.613456	-0.000191
 954	9.4823e+01	2.0278	16.756132	0.000486	4.863461	1.647785	-0.000195
 955	9.4923e+01	1.9860	16.566387	0.000476	4.762139	1.613456	-0.000191
 956	9.5022e+01	1.9475	16.380678	0.000466	4.660817	1.579127	-0.000187
 957	9.5122e+01	1.9010	16.166710	0.000537	5.370071	1.819429	-0.000215
 958	9.5222e+01	1.8657	15.989076	0.000446	4.458172	1.510470	-0.000179
 959	9.5321e+01	1.8272	15.783182	0.000517	5.167427	1.750772	-0.000207
 960	9.5421e+01	1.7839	15.633808	0.000375	3.748918	1.270168	-0.000150
 961	9.5520e+01	1.7422	15.419840	0.000537	5.370071	1.819429	-0.000215
 962	9.5620e+01	1.7117	15.217983	0.000507	5.066105	1.716443	-0.000203
 963	9.5719e+01	1.6620	15.036312	0.000456	4.559494	1.544799	-0.000183
 964	9.5819e+01	1.6187	14.830418	0.000517	5.167427	1.750772	-0.000207
 965	9.5918e+01	1.5914	14.640673	0.000476	4.762139	1.613456	-0.000191
 966	9.6017e+01	1.5465	14.467076	0.000436	4.356850	1.476141	-0.000174
 967	9.6117e+01	1.5032	14.269256	0.000496	4.964783	1.682114	-0.000199
 968	9.6216e+01	1.4743	14.071437	0.000496	4.964783	1.682114	-0.000199
 969	9.6316e+01	1.4310	13.853431	0.000547	5.471393	1.853758	-0.000219
 970	9.6415e+01	1.3861	13.708094	0.000365	3.647596	1.235839	-0.000146
 971	9.6515e+01	1.3476	13.465866	0.000608	6.079326	2.059731	-0.000243
 972	9.6615e+01	1.3139	13.272084	0.000486	4.863461	1.647785	-0.000195
 973	9.6714e+01	1.2722	13.106561	0.000415	4.154206	1.407483	-0.000166
 974	9.6814e+01	1.2192	12.872407	0.000588	5.876682	1.991074	-0.000235
 975	9.6913e+01	1.1952	12.706885	0.000415	4.154206	1.407483	-0.000166
 976	9.7013e+01	1.1534	12.521176	0.000466	4.660817	1.579127	-0.000187
 977	9.7112e+01	1.1133	12.335468	0.000466	4.660817	1.579127	-0.000187
 978	9.7212e+01	1.0716	12.117463	0.000547	5.471393	1.853758	-0.000219
 979	9.7311e+01	1.0219	11.911569	0.000517	5.167427	1.750772	-0.000207
 980	9.7410e+01	0.9818	11.697601	0.000537	5.370071	1.819429	-0.000215
 981	9.7510e+01	0.9417	11.524004	0.000436	4.356850	1.476141	-0.000174
 982	9.7609e+01	0.9176	11.297924	0.000567	5.674038	1.922416	-0.000227
 983	9.7709e+01	0.8647	11.156625	0.000355	3.546273	1.201510	-0.000142
 984	9.7808e+01	0.8294	10.950731	0.000517	5.167427	1.750772	-0.000207
 985	9.7908e+01	0.7893	10.696391	0.000638	6.383292	2.162718	-0.000256
 986	9.8007e+01	0.7444	10.571240	0.000314	3.140985	1.064195	-0.000126
 987	9.8107e+01	0.7043	10.312863	0.000648	6.484614	2.197047	-0.000260
 988	9.8207e+01	0.6738	10.159452	0.000385	3.850240	1.304497	-0.000154
 989	9.8306e+01	0.6321	9.961632	0.000496	4.964783	1.682114	-0.000199
 990	9.8406e+01	0.5936	9.783998	0.000446	4.458172	1.510470	-0.000179
 991	9.8505e+01	0.5470	9.553882	0.000578	5.775360	1.956745	-0.000231
 992	9.8605e+01	0.5118	9.339914	0.000537	5.370071	1.819429	-0.000215
 993	9.8704e+01	0.4620	9.142094	0.000496	4.964783	1.682114	-0.000199
 994	9.8803e+01	0.4396	8.916014	0.000567	5.674038	1.922416	-0.000227
 995	9.8903e+01	0.3834	8.738380	0.000446	4.458172	1.510470	-0.000179
 996	9.9002e+01	0.3513	8.516338	0.000557	5.572715	1.888087	-0.000223
 997	9.9102e+01	0.3208	8.383112	0.000334	3.343629	1.132852	-0.000134
 998	9.9201e+01	0.2711	8.181256	0.000507	5.066105	1.716443	-0.000203
 999	9.9301e+01	0.2246	7.951139	0.000578	5.775360	1.956745	-0.000231
1000	9.9400e+01	0.1877	7.769468	0.000456	4.559494	1.544799	-0.000183
1001	9.9500e+01	0.1428	7.571648	0.000496	4.964783	1.682114	-0.000199
1002	9.9600e+01	0.1027	7.297123	0.000689	6.889903	2.334362	-0.000276
1003	9.9699e+01	0.0738	7.131600	0.000415	4.154206	1.407483	-0.000166
1004	9.9799e+01	0.0369	6.849001	0.000709	7.092547	2.403020	-0.000284
1005	9.9898e+01	0.0080	6.748072	0.000253	2.533052	0.858221	-0.000101
1006	9.9998e+01	-0.0433	6.550253	0.000496	4.964783	1.682114	-0.000199
1007	1.0010e+02	-0.0802	6.417027	0.000334	3.343629	1.132852	-0.000134
1008	1.0020e+02	-0.1332	6.118279	0.000750	7.497835	2.540335	-0.000300
1009	1.0030e+02	-0.1636	5.944682	0.000436	4.356850	1.476141	-0.000174
1010	1.0040e+02	-0.1925	5.738788	0.000517	5.167427	1.750772	-0.000207
1011	1.0050e+02	-0.2374	5.573266	0.000415	4.154206	1.407483	-0.000166
1012	1.0059e+02	-0.2872	5.331038	0.000608	6.079326	2.059731	-0.000243
1013	1.0069e+02	-0.3208	5.129181	0.000507	5.066105	1.716443	-0.000203
1014	1.0079e+02	-0.3610	4.959621	0.000426	4.255528	1.441812	-0.000170
1015	1.0089e+02	-0.4027	4.701245	0.000648	6.484614	2.197047	-0.000260
1016	1.0099e+02	-0.4412	4.531685	0.000426	4.255528	1.441812	-0.000170
1017	1.0109e+02	-0.4716	4.321754	0.000527	5.268749	1.785101	-0.000211
1018	1.0119e+02	-0.5182	4.095674	0.000567	5.674038	1.922416	-0.000227
1019	1.0129e+02	-0.5583	3.877669	0.000547	5.471393	1.853758	-0.000219
1020	1.0139e+02	-0.5968	3.655626	0.000557	5.572715	1.888087	-0.000223
1021	1.0149e+02	-0.6353	3.449732	0.000517	5.167427	1.750772	-0.000207
1022	1.0159e+02	-0.6802	3.227690	0.000557	5.572715	1.888087	-0.000223
1023	1.0169e+02	-0.7187	3.041982	0.000466	4.660817	1.579127	-0.000187
1024	1.0179e+02	-0.7604	2.848199	0.000486	4.863461	1.647785	-0.000195
1025	1.0189e+02	-0.8021	2.646342	0.000507	5.066105	1.716443	-0.000203
1026	1.0199e+02	-0.8310	2.440449	0.000517	5.167427	1.750772	-0.000207
1027	1.0209e+02	-0.8791	2.234555	0.000517	5.167427	1.750772	-0.000207
1028	1.0219e+02	-0.9272	2.016549	0.000547	5.471393	1.853758	-0.000219
1029	1.0229e+02	-0.9593	1.867175	0.000375	3.748918	1.270168	-0.000150
1030	1.0239e+02	-0.9930	1.612836	0.000638	6.383292	2.162718	-0.000256
1031	1.0248e+02	-1.0444	1.467499	0.000365	3.647596	1.235839	-0.000146
1032	1.0258e+02	-1.0893	1.221234	0.000618	6.180648	2.094060	-0.000248
1033	1.0268e+02	-1.1133	0.987080	0.000588	5.876682	1.991074	-0.000235
1034	1.0278e+02	-1.1583	0.821557	0.000415	4.154206	1.407483	-0.000166
1035	1.0288e+02	-1.2032	0.611626	0.000527	5.268749	1.785101	-0.000211
1036	1.0298e+02	-1.2353	0.421881	0.000476	4.762139	1.613456	-0.000191
1037	1.0308e+02	-1.2786	0.171578	0.000628	6.281970	2.128389	-0.000252
1038	1.0318e+02	-1.3155	-0.010093	0.000456	4.559494	1.544799	-0.000183
1039	1.0328e+02	-1.3540	-0.195801	0.000466	4.660817	1.579127	-0.000187
1040	1.0338e+02	-1.3909	-0.429955	0.000588	5.876682	1.991074	-0.000235
1041	1.0348e+02	-1.4310	-0.688332	0.000648	6.484614	2.197047	-0.000260
1042	1.0358e+02	-1.4743	-0.853854	0.000415	4.154206	1.407483	-0.000166
1043	1.0368e+02	-1.5208	-1.039562	0.000466	4.660817	1.579127	-0.000187
1044	1.0378e+02	-1.5641	-1.269679	0.000578	5.775360	1.956745	-0.000231
1045	1.0388e+02	-1.5978	-1.467499	0.000496	4.964783	1.682114	-0.000199
1046	1.0398e+02	-1.6379	-1.661281	0.000486	4.863461	1.647785	-0.000195
1047	1.0408e+02	-1.6764	-1.903510	0.000608	6.079326	2.059731	-0.000243
1048	1.0418e+02	-1.7085	-2.064995	0.000405	4.052884	1.373154	-0.000162
1049	1.0428e+02	-1.7454	-2.274926	0.000527	5.268749	1.785101	-0.000211
1050	1.0438e+02	-1.7935	-2.501006	0.000567	5.674038	1.922416	-0.000227
1051	1.0447e+02	-1.8336	-2.706900	0.000517	5.167427	1.750772	-0.000207
1052	1.0457e+02	-1.8705	-2.912793	0.000517	5.167427	1.750772	-0.000207
1053	1.0467e+02	-1.9155	-3.142910	0.000578	5.775360	1.956745	-0.000231
1054	1.0477e+02	-1.9524	-3.316507	0.000436	4.356850	1.476141	-0.000174
1055	1.0487e+02	-1.9973	-3.490104	0.000436	4.356850	1.476141	-0.000174
1056	1.0497e+02	-2.0294	-3.720221	0.000578	5.775360	1.956745	-0.000231
1057	1.0507e+02	-2.0727	-3.970523	0.000628	6.281970	2.128389	-0.000252
1058	1.0517e+02	-2.1048	-4.144120	0.000436	4.356850	1.476141	-0.000174
1059	1.0527e+02	-2.1561	-4.350014	0.000517	5.167427	1.750772	-0.000207
1060	1.0537e+02	-2.1866	-4.576093	0.000567	5.674038	1.922416	-0.000227
1061	1.0547e+02	-2.2283	-4.753727	0.000446	4.458172	1.510470	-0.000179
1062	1.0557e+02	-2.2748	-4.983844	0.000578	5.775360	1.956745	-0.000231
1063	1.0567e+02	-2.3101	-5.161478	0.000446	4.458172	1.510470	-0.000179
1064	1.0577e+02	-2.3502	-5.375446	0.000537	5.370071	1.819429	-0.000215
1065	1.0587e+02	-2.3919	-5.569229	0.000486	4.863461	1.647785	-0.000195
1066	1.0597e+02	-2.4368	-5.799345	0.000578	5.775360	1.956745	-0.000231
1067	1.0607e+02	-2.4721	-6.013314	0.000537	5.370071	1.819429	-0.000215
1068	1.0617e+02	-2.5138	-6.211133	0.000496	4.964783	1.682114	-0.000199
1069	1.0627e+02	-2.5475	-6.400879	0.000476	4.762139	1.613456	-0.000191
1070	1.0637e+02	-2.5940	-6.630995	0.000578	5.775360	1.956745	-0.000231
1071	1.0647e+02	-2.6293	-6.808629	0.000446	4.458172	1.510470	-0.000179
1072	1.0656e+02	-2.6807	-7.006449	0.000496	4.964783	1.682114	-0.000199
1073	1.0666e+02	-2.7015	-7.220417	0.000537	5.370071	1.819429	-0.000215
1074	1.0676e+02	-2.7497	-7.446497	0.000567	5.674038	1.922416	-0.000227
1075	1.0686e+02	-2.7914	-7.616057	0.000426	4.255528	1.441812	-0.000170
1076	1.0696e+02	-2.8347	-7.846173	0.000578	5.775360	1.956745	-0.000231
1077	1.0706e+02	-2.8716	-8.035919	0.000476	4.762139	1.613456	-0.000191
1078	1.0716e+02	-2.9117	-8.270073	0.000588	5.876682	1.991074	-0.000235
1079	1.0726e+02	-2.9598	-8.467892	0.000496	4.964783	1.682114	-0.000199
1080	1.0736e+02	-2.9807	-8.661675	0.000486	4.863461	1.647785	-0.000195
1081	1.0746e+02	-3.0288	-8.855457	0.000486	4.863461	1.647785	-0.000195
1082	1.0756e+02	-3.0737	-9.085574	0.000578	5.775360	1.956745	-0.000231
1083	1.0766e+02	-3.1122	-9.279356	0.000486	4.863461	1.647785	-0.000195
1084	1.0776e+02	-3.1491	-9.473139	0.000486	4.863461	1.647785	-0.000195
1085	1.0786e+02	-3.1844	-9.699219	0.000567	5.674038	1.922416	-0.000227
1086	1.0796e+02	-3.2309	-9.893001	0.000486	4.863461	1.647785	-0.000195
1087	1.0806e+02	-3.2710	-10.094858	0.000507	5.066105	1.716443	-0.000203
1088	1.0816e+02	-3.3127	-10.260380	0.000415	4.154206	1.407483	-0.000166
1089	1.0826e+02	-3.3416	-10.478386	0.000547	5.471393	1.853758	-0.000219
1090	1.0836e+02	-3.3849	-10.660057	0.000456	4.559494	1.544799	-0.000183
1091	1.0845e+02	-3.4298	-10.825579	0.000415	4.154206	1.407483	-0.000166
1092	1.0855e+02	-3.4619	-11.035511	0.000527	5.268749	1.785101	-0.000211
1093	1.0865e+02	-3.5004	-11.225256	0.000476	4.762139	1.613456	-0.000191
1094	1.0875e+02	-3.5373	-11.435187	0.000527	5.268749	1.785101	-0.000211
1095	1.0885e+02	-3.5903	-11.685489	0.000628	6.281970	2.128389	-0.000252
1096	1.0895e+02	-3.6288	-11.879272	0.000486	4.863461	1.647785	-0.000195
1097	1.0905e+02	-3.6673	-12.109389	0.000578	5.775360	1.956745	-0.000231
1098	1.0915e+02	-3.7042	-12.250688	0.000355	3.546273	1.201510	-0.000142
1099	1.0925e+02	-3.7475	-12.468694	0.000547	5.471393	1.853758	-0.000219
1100	1.0935e+02	-3.7940	-12.678625	0.000527	5.268749	1.785101	-0.000211
1101	1.0945e+02	-3.8325	-12.872407	0.000486	4.863461	1.647785	-0.000195
1102	1.0955e+02	-3.8662	-13.017744	0.000365	3.647596	1.235839	-0.000146
1103	1.0965e+02	-3.9111	-13.259972	0.000608	6.079326	2.059731	-0.000243
1104	1.0975e+02	-3.9416	-13.437606	0.000446	4.458172	1.510470	-0.000179
1105	1.0985e+02	-3.9849	-13.663686	0.000567	5.674038	1.922416	-0.000227
1106	1.0995e+02	-4.0250	-13.869580	0.000517	5.167427	1.750772	-0.000207
1107	1.1005e+02	-4.0699	-14.051251	0.000456	4.559494	1.544799	-0.000183
1108	1.1015e+02	-4.0988	-14.249071	0.000496	4.964783	1.682114	-0.000199
1109	1.1025e+02	-4.1469	-14.406519	0.000395	3.951562	1.338825	-0.000158
1110	1.1035e+02	-4.1758	-14.656821	0.000628	6.281970	2.128389	-0.000252
1111	1.1044e+02	-4.2304	-14.878864	0.000557	5.572715	1.888087	-0.000223
1112	1.1054e+02	-4.2657	-15.052461	0.000436	4.356850	1.476141	-0.000174
1113	1.1064e+02	-4.3090	-15.270466	0.000547	5.471393	1.853758	-0.000219
1114	1.1074e+02	-4.3394	-15.476360	0.000517	5.167427	1.750772	-0.000207
1115	1.1084e+02	-4.3780	-15.682254	0.000517	5.167427	1.750772	-0.000207
1116	1.1094e+02	-4.4293	-15.819516	0.000344	3.444951	1.167181	-0.000138
1117	1.1104e+02	-4.4694	-16.065782	0.000618	6.180648	2.094060	-0.000248
1118	1.1114e+02	-4.4999	-16.247453	0.000456	4.559494	1.544799	-0.000183
1119	1.1124e+02	-4.5336	-16.441235	0.000486	4.863461	1.647785	-0.000195
1120	1.1134e+02	-4.5865	-16.626944	0.000466	4.660817	1.579127	-0.000187
1121	1.1144e+02	-4.6170	-16.848986	0.000557	5.572715	1.888087	-0.000223
1122	1.1154e+02	-4.6683	-17.046806	0.000496	4.964783	1.682114	-0.000199
1123	1.1164e+02	-4.7068	-17.208291	0.000405	4.052884	1.373154	-0.000162
1124	1.1174e+02	-4.7373	-17.422259	0.000537	5.370071	1.819429	-0.000215
1125	1.1184e+02	-4.7886	-17.616042	0.000486	4.863461	1.647785	-0.000195
1126	1.1194e+02	-4.8255	-17.809824	0.000486	4.863461	1.647785	-0.000195
1127	1.1204e+02	-4.8576	-17.979384	0.000426	4.255528	1.441812	-0.000170
1128	1.1214e+02	-4.8977	-18.177204	0.000496	4.964783	1.682114	-0.000199
1129	1.1224e+02	-4.9442	-18.407320	0.000578	5.775360	1.956745	-0.000231
1130	1.1234e+02	-4.9795	-18.625326	0.000547	5.471393	1.853758	-0.000219
1131	1.1244e+02	-5.0212	-18.811034	0.000466	4.660817	1.579127	-0.000187
1132	1.1253e+02	-5.0662	-19.049225	0.000598	5.978004	2.025403	-0.000239
1133	1.1263e+02	-5.0950	-19.238970	0.000476	4.762139	1.613456	-0.000191
1134	1.1273e+02	-5.1384	-19.416604	0.000446	4.458172	1.510470	-0.000179
1135	1.1283e+02	-5.1785	-19.574053	0.000395	3.951562	1.338825	-0.000158
1136	1.1293e+02	-5.2138	-19.767835	0.000486	4.863461	1.647785	-0.000195
1137	1.1303e+02	-5.2523	-19.945469	0.000446	4.458172	1.510470	-0.000179
1138	1.1313e+02	-5.3020	-20.187697	0.000608	6.079326	2.059731	-0.000243
1139	1.1323e+02	-5.3469	-20.397628	0.000527	5.268749	1.785101	-0.000211
1140	1.1333e+02	-5.3822	-20.547002	0.000375	3.748918	1.270168	-0.000150
1141	1.1343e+02	-5.4239	-20.773082	0.000567	5.674038	1.922416	-0.000227
1142	1.1353e+02	-5.4624	-20.950716	0.000446	4.458172	1.510470	-0.000179
1143	1.1363e+02	-5.4961	-21.176796	0.000567	5.674038	1.922416	-0.000227
1144	1.1373e+02	-5.5394	-21.285798	0.000274	2.735697	0.926879	-0.000110
1145	1.1383e+02	-5.5827	-21.503804	0.000547	5.471393	1.853758	-0.000219
1146	1.1393e+02	-5.6196	-21.657215	0.000385	3.850240	1.304497	-0.000154
1147	1.1403e+02	-5.6501	-21.939814	0.000709	7.092547	2.403020	-0.000284
1148	1.1413e+02	-5.6950	-22.145708	0.000517	5.167427	1.750772	-0.000207
1149	1.1423e+02	-5.7415	-22.270859	0.000314	3.140985	1.064195	-0.000126
1150	1.1433e+02	-5.7752	-22.484827	0.000537	5.370071	1.819429	-0.000215
1151	1.1442e+02	-5.8105	-22.666499	0.000456	4.559494	1.544799	-0.000183
1152	1.1452e+02	-5.8587	-22.904690	0.000598	5.978004	2.025403	-0.000239
1153	1.1462e+02	-5.9052	-23.086361	0.000456	4.559494	1.544799	-0.000183
1154	1.1472e+02	-5.9389	-23.243809	0.000395	3.951562	1.338825	-0.000158
1155	1.1482e+02	-5.9758	-23.441629	0.000496	4.964783	1.682114	-0.000199
1156	1.1492e+02	-6.0223	-23.631374	0.000476	4.762139	1.613456	-0.000191
1157	1.1502e+02	-6.0528	-23.881676	0.000628	6.281970	2.128389	-0.000252
1158	1.1512e+02	-6.1057	-24.031050	0.000375	3.748918	1.270168	-0.000150
1159	1.1522e+02	-6.1362	-24.156202	0.000314	3.140985	1.064195	-0.000126
1160	1.1532e+02	-6.1811	-24.374207	0.000547	5.471393	1.853758	-0.000219
1161	1.1542e+02	-6.2212	-24.592212	0.000547	5.471393	1.853758	-0.000219
1162	1.1552e+02	-6.2533	-24.773883	0.000456	4.559494	1.544799	-0.000183
1163	1.1562e+02	-6.3111	-24.983815	0.000527	5.268749	1.785101	-0.000211
1164	1.1572e+02	-6.3415	-25.161448	0.000446	4.458172	1.510470	-0.000179
1165	1.1582e+02	-6.3672	-25.351194	0.000476	4.762139	1.613456	-0.000191
1166	1.1592e+02	-6.4153	-25.577273	0.000567	5.674038	1.922416	-0.000227
1167	1.1602e+02	-6.4554	-25.750870	0.000436	4.356850	1.476141	-0.000174
1168	1.1612e+02	-6.4955	-25.932541	0.000456	4.559494	1.544799	-0.000183
1169	1.1622e+02	-6.5324	-26.106138	0.000436	4.356850	1.476141	-0.000174
1170	1.1632e+02	-6.5725	-26.336255	0.000578	5.775360	1.956745	-0.000231
1171	1.1642e+02	-6.6078	-26.530038	0.000486	4.863461	1.647785	-0.000195
1172	1.1651e+02	-6.6431	-26.731894	0.000507	5.066105	1.716443	-0.000203
1173	1.1661e+02	-6.6864	-26.893380	0.000405	4.052884	1.373154	-0.000162
1174	1.1671e+02	-6.7362	-27.095237	0.000507	5.066105	1.716443	-0.000203
1175	1.1681e+02	-6.7683	-27.252685	0.000395	3.951562	1.338825	-0.000158
1176	1.1691e+02	-6.8180	-27.426282	0.000436	4.356850	1.476141	-0.000174
1177	1.1701e+02	-6.8453	-27.636213	0.000527	5.268749	1.785101	-0.000211
1178	1.1711e+02	-6.8934	-27.765401	0.000324	3.242307	1.098523	-0.000130
1179	1.1721e+02	-6.9383	-27.971295	0.000517	5.167427	1.750772	-0.000207
1180	1.1731e+02	-6.9736	-28.213523	0.000608	6.079326	2.059731	-0.000243
1181	1.1741e+02	-7.0089	-28.395194	0.000456	4.559494	1.544799	-0.000183
1182	1.1751e+02	-7.0554	-28.597051	0.000507	5.066105	1.716443	-0.000203
1183	1.1761e+02	-7.0843	-28.790834	0.000486	4.863461	1.647785	-0.000195
1184	1.1771e+02	-7.1228	-28.992690	0.000507	5.066105	1.716443	-0.000203
1185	1.1781e+02	-7.1693	-29.162250	0.000426	4.255528	1.441812	-0.000170
1186	1.1791e+02	-7.2142	-29.384292	0.000557	5.572715	1.888087	-0.000223
1187	1.1801e+02	-7.2592	-29.582112	0.000496	4.964783	1.682114	-0.000199
1188	1.1811e+02	-7.2896	-29.703226	0.000304	3.039663	1.029866	-0.000122
1189	1.1821e+02	-7.3362	-29.953529	0.000628	6.281970	2.128389	-0.000252
1190	1.1831e+02	-7.3682	-30.119051	0.000415	4.154206	1.407483	-0.000166
1191	1.1841e+02	-7.4164	-30.341094	0.000557	5.572715	1.888087	-0.000223
1192	1.1850e+02	-7.4501	-30.526802	0.000466	4.660817	1.579127	-0.000187
1193	1.1860e+02	-7.4918	-30.655990	0.000324	3.242307	1.098523	-0.000130
1194	1.1870e+02	-7.5271	-30.833624	0.000446	4.458172	1.510470	-0.000179
1195	1.1880e+02	-7.5688	-31.043555	0.000527	5.268749	1.785101	-0.000211
1196	1.1890e+02	-7.6105	-31.213115	0.000426	4.255528	1.441812	-0.000170
1197	1.1900e+02	-7.6474	-31.398823	0.000466	4.660817	1.579127	-0.000187
1198	1.1910e+02	-7.6827	-31.568383	0.000426	4.255528	1.441812	-0.000170
1199	1.1920e+02	-7.7308	-31.806574	0.000598	5.978004	2.025403	-0.000239
1200	1.1930e+02	-7.7581	-31.992282	0.000466	4.660817	1.579127	-0.000187
1201	1.1940e+02	-7.8094	-32.210287	0.000547	5.471393	1.853758	-0.000219
1202	1.1950e+02	-7.8335	-32.387921	0.000446	4.458172	1.510470	-0.000179
1203	1.1960e+02	-7.8800	-32.577667	0.000476	4.762139	1.613456	-0.000191
1204	1.1970e+02	-7.9265	-32.743189	0.000415	4.154206	1.407483	-0.000166
1205	1.1980e+02	-7.9666	-32.924861	0.000456	4.559494	1.544799	-0.000183
1206	1.1990e+02	-8.0099	-33.098457	0.000436	4.356850	1.476141	-0.000174
1207	1.2000e+02	-8.0581	-33.344723	0.000618	6.180648	2.094060	-0.000248
1208	1.2010e+02	-8.0773	-33.502171	0.000395	3.951562	1.338825	-0.000158
1209	1.2020e+02	-8.1222	-33.720176	0.000547	5.471393	1.853758	-0.000219
1210	1.2030e+02	-8.1704	-33.873587	0.000385	3.850240	1.304497	-0.000154
1211	1.2039e+02	-8.2073	-33.998739	0.000314	3.140985	1.064195	-0.000126
1212	1.2049e+02	-8.2458	-34.172335	0.000436	4.356850	1.476141	-0.000174
1213	1.2059e+02	-8.2987	-34.345932	0.000436	4.356850	1.476141	-0.000174
1214	1.2069e+02	-8.3324	-34.539715	0.000486	4.863461	1.647785	-0.000195
1215	1.2079e+02	-8.3613	-34.737534	0.000496	4.964783	1.682114	-0.000199
1216	1.2089e+02	-8.4046	-34.894983	0.000395	3.951562	1.338825	-0.000158
1217	1.2099e+02	-8.4431	-35.112988	0.000547	5.471393	1.853758	-0.000219
1218	1.2109e+02	-8.4864	-35.286585	0.000436	4.356850	1.476141	-0.000174
1219	1.2119e+02	-8.5265	-35.516702	0.000578	5.775360	1.956745	-0.000231
1220	1.2129e+02	-8.5538	-35.694336	0.000446	4.458172	1.510470	-0.000179
1221	1.2139e+02	-8.6115	-35.888118	0.000486	4.863461	1.647785	-0.000195
1222	1.2149e+02	-8.6468	-36.065752	0.000446	4.458172	1.510470	-0.000179
1223	1.2159e+02	-8.6789	-36.223200	0.000395	3.951562	1.338825	-0.000158
1224	1.2169e+02	-8.7254	-36.421020	0.000496	4.964783	1.682114	-0.000199
1225	1.2179e+02	-8.7703	-36.574431	0.000385	3.850240	1.304497	-0.000154
1226	1.2189e+02	-8.8056	-36.748028	0.000436	4.356850	1.476141	-0.000174
1227	1.2199e+02	-8.8506	-36.897402	0.000375	3.748918	1.270168	-0.000150
1228	1.2209e+02	-8.8923	-37.103296	0.000517	5.167427	1.750772	-0.000207
1229	1.2219e+02	-8.9292	-37.264781	0.000405	4.052884	1.373154	-0.000162
1230	1.2229e+02	-8.9677	-37.462601	0.000496	4.964783	1.682114	-0.000199
1231	1.2239e+02	-9.0062	-37.652346	0.000476	4.762139	1.613456	-0.000191
1232	1.2248e+02	-9.0447	-37.829980	0.000446	4.458172	1.510470	-0.000179
1233	1.2258e+02	-9.0784	-37.995503	0.000415	4.154206	1.407483	-0.000166
1234	1.2268e+02	-9.1281	-38.217545	0.000557	5.572715	1.888087	-0.000223
1235	1.2278e+02	-9.1682	-38.431514	0.000537	5.370071	1.819429	-0.000215
1236	1.2288e+02	-9.2083	-38.576851	0.000365	3.647596	1.235839	-0.000146
1237	1.2298e+02	-9.2436	-38.754485	0.000446	4.458172	1.510470	-0.000179
1238	1.2308e+02	-9.2869	-38.940193	0.000466	4.660817	1.579127	-0.000187
1239	1.2318e+02	-9.3174	-39.117827	0.000446	4.458172	1.510470	-0.000179
1240	1.2328e+02	-9.3575	-39.339869	0.000557	5.572715	1.888087	-0.000223
1241	1.2338e+02	-9.4040	-39.513466	0.000436	4.356850	1.476141	-0.000174
1242	1.2348e+02	-9.4409	-39.678989	0.000415	4.154206	1.407483	-0.000166
1243	1.2358e+02	-9.4778	-39.848548	0.000426	4.255528	1.441812	-0.000170
1244	1.2368e+02	-9.5211	-39.973700	0.000314	3.140985	1.064195	-0.000126
1245	1.2378e+02	-9.5580	-40.131148	0.000395	3.951562	1.338825	-0.000158
1246	1.2388e+02	-9.6029	-40.365302	0.000588	5.876682	1.991074	-0.000235
1247	1.2398e+02	-9.6398	-40.490453	0.000314	3.140985	1.064195	-0.000126
1248	1.2408e+02	-9.6719	-40.680198	0.000476	4.762139	1.613456	-0.000191
1249	1.2418e+02	-9.7297	-40.845721	0.000415	4.154206	1.407483	-0.000166
1250	1.2428e+02	-9.7682	-41.015281	0.000426	4.255528	1.441812	-0.000170
1251	1.2438e+02	-9.8019	-41.200989	0.000466	4.660817	1.579127	-0.000187
1252	1.2447e+02	-9.8356	-41.410920	0.000527	5.268749	1.785101	-0.000211
1253	1.2457e+02	-9.8821	-41.620851	0.000527	5.268749	1.785101	-0.000211
1254	1.2467e+02	-9.9238	-41.810596	0.000476	4.762139	1.613456	-0.000191
1255	1.2477e+02	-9.9639	-41.923636	0.000284	2.837019	0.961208	-0.000114
1256	1.2487e+02	-9.9960	-42.169901	0.000618	6.180648	2.094060	-0.000248
1257	1.2497e+02	-10.0377	-42.319275	0.000375	3.748918	1.270168	-0.000150
1258	1.2507e+02	-10.0666	-42.488835	0.000426	4.255528	1.441812	-0.000170
1259	1.2517e+02	-10.1243	-42.674543	0.000466	4.660817	1.579127	-0.000187
1260	1.2527e+02	-10.1644	-42.831992	0.000395	3.951562	1.338825	-0.000158
1261	1.2537e+02	-10.2061	-42.969254	0.000344	3.444951	1.167181	-0.000138
1262	1.2547e+02	-10.2350	-43.142851	0.000436	4.356850	1.476141	-0.000174
1263	1.2557e+02	-10.2783	-43.308374	0.000415	4.154206	1.407483	-0.000166
1264	1.2567e+02	-10.3200	-43.433525	0.000314	3.140985	1.064195	-0.000126
1265	1.2577e+02	-10.3633	-43.647493	0.000537	5.370071	1.819429	-0.000215
1266	1.2587e+02	-10.3970	-43.817053	0.000426	4.255528	1.441812	-0.000170
1267	1.2597e+02	-10.4403	-44.002761	0.000466	4.660817	1.579127	-0.000187
1268	1.2607e+02	-10.4805	-44.152135	0.000375	3.748918	1.270168	-0.000150
1269	1.2617e+02	-10.5254	-44.325732	0.000436	4.356850	1.476141	-0.000174
1270	1.2627e+02	-10.5494	-44.527589	0.000507	5.066105	1.716443	-0.000203
1271	1.2636e+02	-10.5976	-44.713297	0.000466	4.660817	1.579127	-0.000187
1272	1.2646e+02	-10.6393	-44.866708	0.000385	3.850240	1.304497	-0.000154
1273	1.2656e+02	-10.6778	-45.076639	0.000527	5.268749	1.785101	-0.000211
1274	1.2666e+02	-10.7195	-45.258310	0.000456	4.559494	1.544799	-0.000183
1275	1.2676e+02	-10.7580	-45.375387	0.000294	2.938341	0.995537	-0.000118
1276	1.2686e+02	-10.7981	-45.540910	0.000415	4.154206	1.407483	-0.000166
1277	1.2696e+02	-10.8398	-45.722581	0.000456	4.559494	1.544799	-0.000183
1278	1.2706e+02	-10.8751	-45.851769	0.000324	3.242307	1.098523	-0.000130
1279	1.2716e+02	-10.9248	-46.037477	0.000466	4.660817	1.579127	-0.000187
1280	1.2726e+02	-10.9521	-46.198963	0.000405	4.052884	1.373154	-0.000162
1281	1.2736e+02	-10.9954	-46.372560	0.000436	4.356850	1.476141	-0.000174
1282	1.2746e+02	-11.0451	-46.546156	0.000436	4.356850	1.476141	-0.000174
1283	1.2756e+02	-11.0756	-46.739939	0.000486	4.863461	1.647785	-0.000195
1284	1.2766e+02	-11.1109	-46.877202	0.000344	3.444951	1.167181	-0.000138
1285	1.2776e+02	-11.1558	-47.054836	0.000446	4.458172	1.510470	-0.000179
1286	1.2786e+02	-11.2040	-47.224395	0.000426	4.255528	1.441812	-0.000170
1287	1.2796e+02	-11.2312	-47.434326	0.000527	5.268749	1.785101	-0.000211
1288	1.2806e+02	-11.2633	-47.615997	0.000456	4.559494	1.544799	-0.000183
1289	1.2816e+02	-11.3179	-47.749223	0.000334	3.343629	1.132852	-0.000134
1290	1.2826e+02	-11.3499	-47.938968	0.000476	4.762139	1.613456	-0.000191
1291	1.2835e+02	-11.4013	-48.104491	0.000415	4.154206	1.407483	-0.000166
1292	1.2845e+02	-11.4430	-48.278088	0.000436	4.356850	1.476141	-0.000174
1293	1.2855e+02	-11.4687	-48.447647	0.000426	4.255528	1.441812	-0.000170
1294	1.2865e+02	-11.5072	-48.605096	0.000395	3.951562	1.338825	-0.000158
1295	1.2875e+02	-11.5473	-48.762544	0.000395	3.951562	1.338825	-0.000158
1296	1.2885e+02	-11.5906	-48.932104	0.000426	4.255528	1.441812	-0.000170
1297	1.2895e+02	-11.6483	-49.089552	0.000395	3.951562	1.338825	-0.000158
1298	1.2905e+02	-11.6788	-49.259112	0.000426	4.255528	1.441812	-0.000170
1299	1.2915e+02	-11.7093	-49.424634	0.000415	4.154206	1.407483	-0.000166
1300	1.2925e+02	-11.7494	-49.561897	0.000344	3.444951	1.167181	-0.000138
1301	1.2935e+02	-11.7975	-49.779902	0.000547	5.471393	1.853758	-0.000219
1302	1.2945e+02	-11.8296	-49.933313	0.000385	3.850240	1.304497	-0.000154
1303	1.2955e+02	-11.8649	-50.114984	0.000456	4.559494	1.544799	-0.000183
1304	1.2965e+02	-11.9098	-50.300693	0.000466	4.660817	1.579127	-0.000187
1305	1.2975e+02	-11.9596	-50.433918	0.000334	3.343629	1.132852	-0.000134
1306	1.2985e+02	-11.9820	-50.672109	0.000598	5.978004	2.025403	-0.000239
1307	1.2995e+02	-12.0301	-50.837632	0.000415	4.154206	1.407483	-0.000166
1308	1.3005e+02	-12.0686	-50.966820	0.000324	3.242307	1.098523	-0.000130
1309	1.3015e+02	-12.1136	-51.144454	0.000446	4.458172	1.510470	-0.000179
1310	1.3025e+02	-12.1553	-51.281717	0.000344	3.444951	1.167181	-0.000138
1311	1.3034e+02	-12.1858	-51.463388	0.000456	4.559494	1.544799	-0.000183
1312	1.3044e+02	-12.2419	-51.636985	0.000436	4.356850	1.476141	-0.000174
1313	1.3054e+02	-12.2692	-51.745987	0.000274	2.735697	0.926879	-0.000110
1314	1.3064e+02	-12.3077	-51.927658	0.000456	4.559494	1.544799	-0.000183
1315	1.3074e+02	-12.3574	-52.081070	0.000385	3.850240	1.304497	-0.000154
1316	1.3084e+02	-12.3975	-52.250629	0.000426	4.255528	1.441812	-0.000170
1317	1.3094e+02	-12.4360	-52.432300	0.000456	4.559494	1.544799	-0.000183
1318	1.3104e+02	-12.4729	-52.581674	0.000375	3.748918	1.270168	-0.000150
1319	1.3114e+02	-12.5082	-52.751234	0.000426	4.255528	1.441812	-0.000170
1320	1.3124e+02	-12.5483	-52.936942	0.000466	4.660817	1.579127	-0.000187
1321	1.3134e+02	-12.5884	-53.150911	0.000537	5.370071	1.819429	-0.000215
1322	1.3144e+02	-12.6285	-53.251839	0.000253	2.533052	0.858221	-0.000101
1323	1.3154e+02	-12.6686	-53.441584	0.000476	4.762139	1.613456	-0.000191
1324	1.3164e+02	-12.7103	-53.639404	0.000496	4.964783	1.682114	-0.000199
1325	1.3174e+02	-12.7472	-53.760518	0.000304	3.039663	1.029866	-0.000122
1326	1.3184e+02	-12.7922	-53.962375	0.000507	5.066105	1.716443	-0.000203
1327	1.3194e+02	-12.8290	-54.119823	0.000395	3.951562	1.338825	-0.000158
1328	1.3204e+02	-12.8692	-54.281309	0.000405	4.052884	1.373154	-0.000162
1329	1.3214e+02	-12.9044	-54.402423	0.000304	3.039663	1.029866	-0.000122
1330	1.3224e+02	-12.9574	-54.584094	0.000456	4.559494	1.544799	-0.000183
1331	1.3234e+02	-12.9895	-54.721356	0.000344	3.444951	1.167181	-0.000138
1332	1.3243e+02	-13.0280	-54.903027	0.000456	4.559494	1.544799	-0.000183
1333	1.3253e+02	-13.0713	-55.028179	0.000314	3.140985	1.064195	-0.000126
1334	1.3263e+02	-13.1114	-55.213887	0.000466	4.660817	1.579127	-0.000187
1335	1.3273e+02	-13.1419	-55.383447	0.000426	4.255528	1.441812	-0.000170
1336	1.3283e+02	-13.1868	-55.553006	0.000426	4.255528	1.441812	-0.000170
1337	1.3293e+02	-13.2333	-55.730640	0.000446	4.458172	1.510470	-0.000179
1338	1.3303e+02	-13.2638	-55.912311	0.000456	4.559494	1.544799	-0.000183
1339	1.3313e+02	-13.3103	-56.081871	0.000426	4.255528	1.441812	-0.000170
1340	1.3323e+02	-13.3472	-56.255468	0.000436	4.356850	1.476141	-0.000174
1341	1.3333e+02	-13.3921	-56.376582	0.000304	3.039663	1.029866	-0.000122
1342	1.3343e+02	-13.4194	-56.630922	0.000638	6.383292	2.162718	-0.000256
1343	1.3353e+02	-13.4675	-56.764147	0.000334	3.343629	1.132852	-0.000134
1344	1.3363e+02	-13.5092	-56.945818	0.000456	4.559494	1.544799	-0.000183
1345	1.3373e+02	-13.5510	-57.070969	0.000314	3.140985	1.064195	-0.000126
1346	1.3383e+02	-13.5846	-57.244566	0.000436	4.356850	1.476141	-0.000174
1347	1.3393e+02	-13.6296	-57.373755	0.000324	3.242307	1.098523	-0.000130
1348	1.3403e+02	-13.6600	-57.523129	0.000375	3.748918	1.270168	-0.000150
1349	1.3413e+02	-13.7082	-57.696725	0.000436	4.356850	1.476141	-0.000174
1350	1.3423e+02	-13.7435	-57.813802	0.000294	2.938341	0.995537	-0.000118
1351	1.3432e+02	-13.7868	-57.983362	0.000426	4.255528	1.441812	-0.000170
1352	1.3442e+02	-13.8237	-58.165033	0.000456	4.559494	1.544799	-0.000183
1353	1.3452e+02	-13.8590	-58.374964	0.000527	5.268749	1.785101	-0.000211
1354	1.3462e+02	-13.9039	-58.548561	0.000436	4.356850	1.476141	-0.000174
1355	1.3472e+02	-13.9456	-58.738306	0.000476	4.762139	1.613456	-0.000191
1356	1.3482e+02	-13.9873	-58.867495	0.000324	3.242307	1.098523	-0.000130
1357	1.3492e+02	-14.0178	-59.049166	0.000456	4.559494	1.544799	-0.000183
1358	1.3502e+02	-14.0531	-59.206614	0.000395	3.951562	1.338825	-0.000158
1359	1.3512e+02	-14.1060	-59.343877	0.000344	3.444951	1.167181	-0.000138
1360	1.3522e+02	-14.1429	-59.505362	0.000405	4.052884	1.373154	-0.000162
1361	1.3532e+02	-14.1894	-59.699145	0.000486	4.863461	1.647785	-0.000195
1362	1.3542e+02	-14.2183	-59.824296	0.000314	3.140985	1.064195	-0.000126
1363	1.3552e+02	-14.2584	-60.005967	0.000456	4.559494	1.544799	-0.000183
1364	1.3562e+02	-14.3017	-60.163415	0.000395	3.951562	1.338825	-0.000158
1365	1.3572e+02	-14.3450	-60.288567	0.000314	3.140985	1.064195	-0.000126
1366	1.3582e+02	-14.3819	-60.470238	0.000456	4.559494	1.544799	-0.000183
1367	1.3592e+02	-14.4237	-60.619612	0.000375	3.748918	1.270168	-0.000150
1368	1.3602e+02	-14.4590	-60.781097	0.000405	4.052884	1.373154	-0.000162
1369	1.3612e+02	-14.5039	-60.934508	0.000385	3.850240	1.304497	-0.000154
1370	1.3622e+02	-14.5376	-61.067734	0.000334	3.343629	1.132852	-0.000134
1371	1.3631e+02	-14.5745	-61.301888	0.000588	5.876682	1.991074	-0.000235
1372	1.3641e+02	-14.6097	-61.435113	0.000334	3.343629	1.132852	-0.000134
1373	1.3651e+02	-14.6627	-61.628896	0.000486	4.863461	1.647785	-0.000195
1374	1.3661e+02	-14.7044	-61.741935	0.000284	2.837019	0.961208	-0.000114
1375	1.3671e+02	-14.7413	-61.919569	0.000446	4.458172	1.510470	-0.000179
1376	1.3681e+02	-14.7830	-62.072981	0.000385	3.850240	1.304497	-0.000154
1377	1.3691e+02	-14.8199	-62.266763	0.000486	4.863461	1.647785	-0.000195
1378	1.3701e+02	-14.8568	-62.424211	0.000395	3.951562	1.338825	-0.000158
1379	1.3711e+02	-14.9033	-62.549363	0.000314	3.140985	1.064195	-0.000126
1380	1.3721e+02	-14.9514	-62.702774	0.000385	3.850240	1.304497	-0.000154
1381	1.3731e+02	-14.9867	-62.876371	0.000436	4.356850	1.476141	-0.000174
1382	1.3741e+02	-15.0172	-63.009596	0.000334	3.343629	1.132852	-0.000134
1383	1.3751e+02	-15.0718	-63.158970	0.000375	3.748918	1.270168	-0.000150
1384	1.3761e+02	-15.1006	-63.284121	0.000314	3.140985	1.064195	-0.000126
1385	1.3771e+02	-15.1440	-63.469830	0.000466	4.660817	1.579127	-0.000187
1386	1.3781e+02	-15.1793	-63.671686	0.000507	5.066105	1.716443	-0.000203
1387	1.3791e+02	-15.2210	-63.837209	0.000415	4.154206	1.407483	-0.000166
1388	1.3801e+02	-15.2643	-63.990620	0.000385	3.850240	1.304497	-0.000154
1389	1.3811e+02	-15.3028	-64.123845	0.000334	3.343629	1.132852	-0.000134
1390	1.3821e+02	-15.3381	-64.309554	0.000466	4.660817	1.579127	-0.000187
1391	1.3831e+02	-15.3830	-64.454891	0.000365	3.647596	1.235839	-0.000146
1392	1.3840e+02	-15.4247	-64.600228	0.000365	3.647596	1.235839	-0.000146
1393	1.3850e+02	-15.4648	-64.729416	0.000324	3.242307	1.098523	-0.000130
1394	1.3860e+02	-15.5033	-64.923198	0.000486	4.863461	1.647785	-0.000195
1395	1.3870e+02	-15.5434	-65.084684	0.000405	4.052884	1.373154	-0.000162
1396	1.3880e+02	-15.5835	-65.258281	0.000436	4.356850	1.476141	-0.000174
1397	1.3890e+02	-15.6172	-65.399580	0.000355	3.546273	1.201510	-0.000142
1398	1.3900e+02	-15.6557	-65.565103	0.000415	4.154206	1.407483	-0.000166
1399	1.3910e+02	-15.7022	-65.714477	0.000375	3.748918	1.270168	-0.000150
1400	1.3920e+02	-15.7455	-65.799257	0.000213	2.127764	0.720906	-0.000085
1401	1.3930e+02	-15.7760	-66.017262	0.000547	5.471393	1.853758	-0.000219
1402	1.3940e+02	-15.8049	-66.198933	0.000456	4.559494	1.544799	-0.000183
1403	1.3950e+02	-15.8594	-66.324084	0.000314	3.140985	1.064195	-0.000126
1404	1.3960e+02	-15.8963	-66.489607	0.000415	4.154206	1.407483	-0.000166
1405	1.3970e+02	-15.9348	-66.675315	0.000466	4.660817	1.579127	-0.000187
1406	1.3980e+02	-15.9653	-66.820652	0.000365	3.647596	1.235839	-0.000146
1407	1.3990e+02	-16.0118	-66.974063	0.000385	3.850240	1.304497	-0.000154
1408	1.4000e+02	-16.0616	-67.163809	0.000476	4.762139	1.613456	-0.000191
1409	1.4010e+02	-16.0985	-67.309146	0.000365	3.647596	1.235839	-0.000146
1410	1.4020e+02	-16.1386	-67.442371	0.000334	3.343629	1.132852	-0.000134
1411	1.4029e+02	-16.1659	-67.636154	0.000486	4.863461	1.647785	-0.000195
1412	1.4039e+02	-16.2204	-67.757268	0.000304	3.039663	1.029866	-0.000122
1413	1.4049e+02	-16.2589	-67.910679	0.000385	3.850240	1.304497	-0.000154
1414	1.4059e+02	-16.2926	-68.096387	0.000466	4.660817	1.579127	-0.000187
1415	1.4069e+02	-16.3391	-68.233650	0.000344	3.444951	1.167181	-0.000138
1416	1.4079e+02	-16.3776	-68.366875	0.000334	3.343629	1.132852	-0.000134
1417	1.4089e+02	-16.4113	-68.455692	0.000223	2.229086	0.755235	-0.000089
1418	1.4099e+02	-16.4482	-68.673697	0.000547	5.471393	1.853758	-0.000219
1419	1.4109e+02	-16.4963	-68.835183	0.000405	4.052884	1.373154	-0.000162
1420	1.4119e+02	-16.5364	-68.980520	0.000365	3.647596	1.235839	-0.000146
1421	1.4129e+02	-16.5765	-69.133931	0.000385	3.850240	1.304497	-0.000154
1422	1.4139e+02	-16.6134	-69.307528	0.000436	4.356850	1.476141	-0.000174
1423	1.4149e+02	-16.6503	-69.456902	0.000375	3.748918	1.270168	-0.000150
1424	1.4159e+02	-16.6904	-69.553793	0.000243	2.431730	0.823893	-0.000097
1425	1.4169e+02	-16.7321	-69.759687	0.000517	5.167427	1.750772	-0.000207
1426	1.4179e+02	-16.7819	-69.913098	0.000385	3.850240	1.304497	-0.000154
1427	1.4189e+02	-16.8204	-70.066509	0.000385	3.850240	1.304497	-0.000154
1428	1.4199e+02	-16.8477	-70.179549	0.000284	2.837019	0.961208	-0.000114
1429	1.4209e+02	-16.8990	-70.369294	0.000476	4.762139	1.613456	-0.000191
1430	1.4219e+02	-16.9295	-70.522706	0.000385	3.850240	1.304497	-0.000154
1431	1.4228e+02	-16.9792	-70.672080	0.000375	3.748918	1.270168	-0.000150
1432	1.4238e+02	-17.0081	-70.817417	0.000365	3.647596	1.235839	-0.000146
1433	1.4248e+02	-17.0626	-70.954679	0.000344	3.444951	1.167181	-0.000138
1434	1.4258e+02	-17.0915	-71.100016	0.000365	3.647596	1.235839	-0.000146
1435	1.4268e+02	-17.1396	-71.225167	0.000314	3.140985	1.064195	-0.000126
1436	1.4278e+02	-17.1637	-71.386653	0.000405	4.052884	1.373154	-0.000162
1437	1.4288e+02	-17.2086	-71.576398	0.000476	4.762139	1.613456	-0.000191
1438	1.4298e+02	-17.2503	-71.713661	0.000344	3.444951	1.167181	-0.000138
1439	1.4308e+02	-17.2968	-71.879183	0.000415	4.154206	1.407483	-0.000166
1440	1.4318e+02	-17.3177	-72.028557	0.000375	3.748918	1.270168	-0.000150
1441	1.4328e+02	-17.3642	-72.206191	0.000446	4.458172	1.510470	-0.000179
1442	1.4338e+02	-17.4156	-72.355565	0.000375	3.748918	1.270168	-0.000150
1443	1.4348e+02	-17.4524	-72.480716	0.000314	3.140985	1.064195	-0.000126
1444	1.4358e+02	-17.4942	-72.686610	0.000517	5.167427	1.750772	-0.000207
1445	1.4368e+02	-17.5246	-72.811762	0.000314	3.140985	1.064195	-0.000126
1446	1.4378e+02	-17.5663	-72.953061	0.000355	3.546273	1.201510	-0.000142
1447	1.4388e+02	-17.6113	-73.082250	0.000324	3.242307	1.098523	-0.000130
1448	1.4398e+02	-17.6514	-73.263921	0.000456	4.559494	1.544799	-0.000183
1449	1.4408e+02	-17.7011	-73.409258	0.000365	3.647596	1.235839	-0.000146
1450	1.4418e+02	-17.7364	-73.550557	0.000355	3.546273	1.201510	-0.000142
1451	1.4428e+02	-17.7749	-73.655523	0.000263	2.634375	0.892550	-0.000105
1452	1.4437e+02	-17.8150	-73.821046	0.000415	4.154206	1.407483	-0.000166
1453	1.4447e+02	-17.8535	-74.026939	0.000517	5.167427	1.750772	-0.000207
1454	1.4457e+02	-17.8872	-74.200536	0.000436	4.356850	1.476141	-0.000174
1455	1.4467e+02	-17.9225	-74.325688	0.000314	3.140985	1.064195	-0.000126
1456	1.4477e+02	-17.9674	-74.438727	0.000284	2.837019	0.961208	-0.000114
1457	1.4487e+02	-18.0139	-74.640584	0.000507	5.066105	1.716443	-0.000203
1458	1.4497e+02	-18.0460	-74.769772	0.000324	3.242307	1.098523	-0.000130
1459	1.4507e+02	-18.0877	-74.983741	0.000537	5.370071	1.819429	-0.000215
1460	1.4517e+02	-18.1326	-75.084669	0.000253	2.533052	0.858221	-0.000101
1461	1.4527e+02	-18.1695	-75.238080	0.000385	3.850240	1.304497	-0.000154
1462	1.4537e+02	-18.2145	-75.383417	0.000365	3.647596	1.235839	-0.000146
1463	1.4547e+02	-18.2578	-75.532791	0.000375	3.748918	1.270168	-0.000150
1464	1.4557e+02	-18.2899	-75.690239	0.000395	3.951562	1.338825	-0.000158
1465	1.4567e+02	-18.3316	-75.851725	0.000405	4.052884	1.373154	-0.000162
1466	1.4577e+02	-18.3717	-76.025322	0.000436	4.356850	1.476141	-0.000174
1467	1.4587e+02	-18.4038	-76.093953	0.000172	1.722476	0.583591	-0.000069
1468	1.4597e+02	-18.4535	-76.243327	0.000375	3.748918	1.270168	-0.000150
1469	1.4607e+02	-18.4808	-76.416924	0.000436	4.356850	1.476141	-0.000174
1470	1.4617e+02	-18.5273	-76.550149	0.000334	3.343629	1.132852	-0.000134
1471	1.4626e+02	-18.5642	-76.743932	0.000486	4.863461	1.647785	-0.000195
1472	1.4636e+02	-18.6043	-76.897343	0.000385	3.850240	1.304497	-0.000154
1473	1.4646e+02	-18.6460	-77.074977	0.000446	4.458172	1.510470	-0.000179
1474	1.4656e+02	-18.6909	-77.232425	0.000395	3.951562	1.338825	-0.000158
1475	1.4666e+02	-18.7310	-77.337391	0.000263	2.634375	0.892550	-0.000105
1476	1.4676e+02	-18.7727	-77.567508	0.000578	5.775360	1.956745	-0.000231
1477	1.4686e+02	-18.8096	-77.692659	0.000314	3.140985	1.064195	-0.000126
1478	1.4696e+02	-18.8433	-77.837996	0.000365	3.647596	1.235839	-0.000146
1479	1.4706e+02	-18.8914	-77.999481	0.000405	4.052884	1.373154	-0.000162
1480	1.4716e+02	-18.9203	-78.152892	0.000385	3.850240	1.304497	-0.000154
1481	1.4726e+02	-18.9620	-78.278043	0.000314	3.140985	1.064195	-0.000126
1482	1.4736e+02	-19.0150	-78.399157	0.000304	3.039663	1.029866	-0.000122
1483	1.4746e+02	-19.0487	-78.568717	0.000426	4.255528	1.441812	-0.000170
1484	1.4756e+02	-19.0791	-78.730203	0.000405	4.052884	1.373154	-0.000162
1485	1.4766e+02	-19.1241	-78.806908	0.000193	1.925120	0.652248	-0.000077
1486	1.4776e+02	-19.1658	-79.000691	0.000486	4.863461	1.647785	-0.000195
1487	1.4786e+02	-19.2075	-79.154102	0.000385	3.850240	1.304497	-0.000154
1488	1.4796e+02	-19.2428	-79.331736	0.000446	4.458172	1.510470	-0.000179
1489	1.4806e+02	-19.2877	-79.497258	0.000415	4.154206	1.407483	-0.000166
1490	1.4816e+02	-19.3294	-79.666818	0.000426	4.255528	1.441812	-0.000170
1491	1.4825e+02	-19.3615	-79.812155	0.000365	3.647596	1.235839	-0.000146
1492	1.4835e+02	-19.4048	-79.965566	0.000385	3.850240	1.304497	-0.000154
1493	1.4845e+02	-19.4417	-80.151274	0.000466	4.660817	1.579127	-0.000187
1494	1.4855e+02	-19.4802	-80.223943	0.000182	1.823798	0.617919	-0.000073
1495	1.4865e+02	-19.5267	-80.437911	0.000537	5.370071	1.819429	-0.000215
1496	1.4875e+02	-19.5652	-80.571136	0.000334	3.343629	1.132852	-0.000134
1497	1.4885e+02	-19.6005	-80.724548	0.000385	3.850240	1.304497	-0.000154
1498	1.4895e+02	-19.6470	-80.845662	0.000304	3.039663	1.029866	-0.000122
1499	1.4905e+02	-19.6775	-81.039444	0.000486	4.863461	1.647785	-0.000195
1500	1.4915e+02	-19.7192	-81.184781	0.000365	3.647596	1.235839	-0.000146
1501	1.4925e+02	-19.7593	-81.358378	0.000436	4.356850	1.476141	-0.000174
1502	1.4935e+02	-19.8010	-81.479492	0.000304	3.039663	1.029866	-0.000122
1503	1.4945e+02	-19.8444	-81.628866	0.000375	3.748918	1.270168	-0.000150
1504	1.4955e+02	-19.8764	-81.794389	0.000415	4.154206	1.407483	-0.000166
1505	1.4965e+02	-19.9278	-81.939726	0.000365	3.647596	1.235839	-0.000146
1506	1.4975e+02	-19.9615	-82.117359	0.000446	4.458172	1.510470	-0.000179
1507	1.4985e+02	-20.0064	-82.254622	0.000344	3.444951	1.167181	-0.000138
1508	1.4995e+02	-19.9551	-82.181954	0.000182	1.823798	0.617919	0.000073
1509	1.5005e+02	-19.9230	-82.097174	0.000213	2.127764	0.720906	0.000085
1510	1.5015e+02	-19.8780	-82.008357	0.000223	2.229086	0.755235	0.000089
1511	1.5025e+02	-19.8556	-81.943763	0.000162	1.621154	0.549262	0.000065
1512	1.5034e+02	-19.8010	-81.786314	0.000395	3.951562	1.338825	0.000158
1513	1.5044e+02	-19.7658	-81.741906	0.000111	1.114543	0.377617	0.000045
1514	1.5054e+02	-19.7176	-81.628866	0.000284	2.837019	0.961208	0.000114
1515	1.5064e+02	-19.6855	-81.515826	0.000284	2.837019	0.961208	0.000114
1516	1.5074e+02	-19.6454	-81.479492	0.000091	0.911899	0.308960	0.000037
1517	1.5084e+02	-19.5989	-81.394712	0.000213	2.127764	0.720906	0.000085
1518	1.5094e+02	-19.5636	-81.301858	0.000233	2.330408	0.789564	0.000093
1519	1.5104e+02	-19.5187	-81.156521	0.000365	3.647596	1.235839	0.000146
1520	1.5114e+02	-19.4914	-81.063667	0.000233	2.330408	0.789564	0.000093
1521	1.5124e+02	-19.4481	-80.930442	0.000334	3.343629	1.132852	0.000134
1522	1.5134e+02	-19.4112	-80.829513	0.000253	2.533052	0.858221	0.000101
1523	1.5144e+02	-19.3711	-80.768956	0.000152	1.519831	0.514933	0.000061
1524	1.5154e+02	-19.3182	-80.663991	0.000263	2.634375	0.892550	0.000105
1525	1.5164e+02	-19.2845	-80.550951	0.000284	2.837019	0.961208	0.000114
1526	1.5174e+02	-19.2412	-80.417725	0.000334	3.343629	1.132852	0.000134
1527	1.5184e+02	-19.2043	-80.357168	0.000152	1.519831	0.514933	0.000061
1528	1.5194e+02	-19.1626	-80.232017	0.000314	3.140985	1.064195	0.000126
1529	1.5204e+02	-19.1241	-80.118977	0.000284	2.837019	0.961208	0.000114
1530	1.5214e+02	-19.0984	-80.026123	0.000233	2.330408	0.789564	0.000093
1531	1.5224e+02	-19.0503	-79.905009	0.000304	3.039663	1.029866	0.000122
1532	1.5233e+02	-19.0037	-79.836378	0.000172	1.722476	0.583591	0.000069
1533	1.5243e+02	-18.9604	-79.735449	0.000253	2.533052	0.858221	0.000101
1534	1.5253e+02	-18.9203	-79.610298	0.000314	3.140985	1.064195	0.000126
1535	1.5263e+02	-18.8818	-79.525518	0.000213	2.127764	0.720906	0.000085
1536	1.5273e+02	-18.8449	-79.416516	0.000274	2.735697	0.926879	0.000110
1537	1.5283e+02	-18.8000	-79.234845	0.000456	4.559494	1.544799	0.000183
1538	1.5293e+02	-18.7679	-79.121805	0.000284	2.837019	0.961208	0.000114
1539	1.5303e+02	-18.7342	-79.053173	0.000172	1.722476	0.583591	0.000069
1540	1.5313e+02	-18.6813	-78.936097	0.000294	2.938341	0.995537	0.000118
1541	1.5323e+02	-18.6476	-78.802871	0.000334	3.343629	1.132852	0.000134
1542	1.5333e+02	-18.6011	-78.714054	0.000223	2.229086	0.755235	0.000089
1543	1.5343e+02	-18.5706	-78.613126	0.000253	2.533052	0.858221	0.000101
1544	1.5353e+02	-18.5337	-78.492012	0.000304	3.039663	1.029866	0.000122
1545	1.5363e+02	-18.4888	-78.378972	0.000284	2.837019	0.961208	0.000114
1546	1.5373e+02	-18.4471	-78.306303	0.000182	1.823798	0.617919	0.000073
1547	1.5383e+02	-18.4086	-78.193264	0.000284	2.837019	0.961208	0.000114
1548	1.5393e+02	-18.3701	-78.047927	0.000365	3.647596	1.235839	0.000146
1549	1.5403e+02	-18.3332	-77.951035	0.000243	2.431730	0.823893	0.000097
1550	1.5413e+02	-18.2834	-77.821847	0.000324	3.242307	1.098523	0.000130
1551	1.5422e+02	-18.2514	-77.728993	0.000233	2.330408	0.789564	0.000093
1552	1.5432e+02	-18.2032	-77.660362	0.000172	1.722476	0.583591	0.000069
1553	1.5442e+02	-18.1695	-77.486765	0.000436	4.356850	1.476141	0.000174
1554	1.5452e+02	-18.1294	-77.385836	0.000253	2.533052	0.858221	0.000101
1555	1.5462e+02	-18.0829	-77.256648	0.000324	3.242307	1.098523	0.000130
1556	1.5472e+02	-18.0572	-77.119385	0.000344	3.444951	1.167181	0.000138
1557	1.5482e+02	-18.0171	-77.038643	0.000203	2.026442	0.686577	0.000081
1558	1.5492e+02	-17.9770	-76.877157	0.000405	4.052884	1.373154	0.000162
1559	1.5502e+02	-17.9241	-76.792377	0.000213	2.127764	0.720906	0.000085
1560	1.5512e+02	-17.8824	-76.655115	0.000344	3.444951	1.167181	0.000138
1561	1.5522e+02	-17.8519	-76.570335	0.000213	2.127764	0.720906	0.000085
1562	1.5532e+02	-17.8070	-76.465369	0.000263	2.634375	0.892550	0.000105
1563	1.5542e+02	-17.7701	-76.299847	0.000415	4.154206	1.407483	0.000166
1564	1.5552e+02	-17.7252	-76.243327	0.000142	1.418509	0.480604	0.000057
1565	1.5562e+02	-17.6851	-76.126250	0.000294	2.938341	0.995537	0.000118
1566	1.5572e+02	-17.6530	-76.001099	0.000314	3.140985	1.064195	0.000126
1567	1.5582e+02	-17.6113	-75.920356	0.000203	2.026442	0.686577	0.000081
1568	1.5592e+02	-17.5712	-75.823465	0.000243	2.431730	0.823893	0.000097
1569	1.5602e+02	-17.5262	-75.714462	0.000274	2.735697	0.926879	0.000110
1570	1.5612e+02	-17.4974	-75.613534	0.000253	2.533052	0.858221	0.000101
1571	1.5622e+02	-17.4508	-75.411677	0.000507	5.066105	1.716443	0.000203
1572	1.5631e+02	-17.4107	-75.318823	0.000233	2.330408	0.789564	0.000093
1573	1.5641e+02	-17.3722	-75.149263	0.000426	4.255528	1.441812	0.000170
1574	1.5651e+02	-17.3225	-75.024112	0.000314	3.140985	1.064195	0.000126
1575	1.5661e+02	-17.3017	-74.919146	0.000263	2.634375	0.892550	0.000105
1576	1.5671e+02	-17.2551	-74.814181	0.000263	2.634375	0.892550	0.000105
1577	1.5681e+02	-17.2086	-74.709215	0.000263	2.634375	0.892550	0.000105
1578	1.5691e+02	-17.1813	-74.588101	0.000304	3.039663	1.029866	0.000122
1579	1.5701e+02	-17.1284	-74.446802	0.000355	3.546273	1.201510	0.000142
1580	1.5711e+02	-17.0979	-74.349910	0.000243	2.431730	0.823893	0.000097
1581	1.5721e+02	-17.0594	-74.257056	0.000233	2.330408	0.789564	0.000093
1582	1.5731e+02	-17.0049	-74.131905	0.000314	3.140985	1.064195	0.000126
1583	1.5741e+02	-16.9760	-74.010791	0.000304	3.039663	1.029866	0.000122
1584	1.5751e+02	-16.9295	-73.877565	0.000334	3.343629	1.132852	0.000134
1585	1.5761e+02	-16.8862	-73.752414	0.000314	3.140985	1.064195	0.000126
1586	1.5771e+02	-16.8525	-73.647449	0.000263	2.634375	0.892550	0.000105
1587	1.5781e+02	-16.8124	-73.506149	0.000355	3.546273	1.201510	0.000142
1588	1.5791e+02	-16.7771	-73.389072	0.000294	2.938341	0.995537	0.000118
1589	1.5801e+02	-16.7321	-73.251809	0.000344	3.444951	1.167181	0.000138
1590	1.5811e+02	-16.6888	-73.102435	0.000375	3.748918	1.270168	0.000150
1591	1.5821e+02	-16.6535	-72.981321	0.000304	3.039663	1.029866	0.000122
1592	1.5830e+02	-16.6166	-72.864244	0.000294	2.938341	0.995537	0.000118
1593	1.5840e+02	-16.5733	-72.706796	0.000395	3.951562	1.338825	0.000158
1594	1.5850e+02	-16.5316	-72.593756	0.000284	2.837019	0.961208	0.000114
1595	1.5860e+02	-16.4979	-72.464568	0.000324	3.242307	1.098523	0.000130
1596	1.5870e+02	-16.4642	-72.387862	0.000193	1.925120	0.652248	0.000077
1597	1.5880e+02	-16.4113	-72.218303	0.000426	4.255528	1.441812	0.000170
1598	1.5890e+02	-16.3776	-72.153708	0.000162	1.621154	0.549262	0.000065
1599	1.5900e+02	-16.3327	-71.988186	0.000415	4.154206	1.407483	0.000166
1600	1.5910e+02	-16.2942	-71.887258	0.000253	2.533052	0.858221	0.000101
1601	1.5920e+02	-16.2477	-71.790366	0.000243	2.431730	0.823893	0.000097
1602	1.5930e+02	-16.2188	-71.645029	0.000365	3.647596	1.235839	0.000146
1603	1.5940e+02	-16.1739	-71.491618	0.000385	3.850240	1.304497	0.000154
1604	1.5950e+02	-16.1354	-71.362430	0.000324	3.242307	1.098523	0.000130
1605	1.5960e+02	-16.0953	-71.265539	0.000243	2.431730	0.823893	0.000097
1606	1.5970e+02	-16.0632	-71.079830	0.000466	4.660817	1.579127	0.000187
1607	1.5980e+02	-16.0231	-70.898159	0.000456	4.559494	1.544799	0.000183
1608	1.5990e+02	-15.9750	-70.817417	0.000203	2.026442	0.686577	0.000081
1609	1.6000e+02	-15.9429	-70.676117	0.000355	3.546273	1.201510	0.000142
1610	1.6010e+02	-15.9076	-70.546928	0.000324	3.242307	1.098523	0.000130
1611	1.6019e+02	-15.8546	-70.417740	0.000324	3.242307	1.098523	0.000130
1612	1.6029e+02	-15.8225	-70.357183	0.000152	1.519831	0.514933	0.000061
1613	1.6039e+02	-15.7824	-70.175512	0.000456	4.559494	1.544799	0.000183
1614	1.6049e+02	-15.7311	-70.074584	0.000253	2.533052	0.858221	0.000101
1615	1.6059e+02	-15.6910	-69.953470	0.000304	3.039663	1.029866	0.000122
1616	1.6069e+02	-15.6541	-69.856578	0.000243	2.431730	0.823893	0.000097
1617	1.6079e+02	-15.6300	-69.747576	0.000274	2.735697	0.926879	0.000110
1618	1.6089e+02	-15.5819	-69.573979	0.000436	4.356850	1.476141	0.000174
1619	1.6099e+02	-15.5434	-69.481125	0.000233	2.330408	0.789564	0.000093
1620	1.6109e+02	-15.5017	-69.355973	0.000314	3.140985	1.064195	0.000126
1621	1.6119e+02	-15.4504	-69.242934	0.000284	2.837019	0.961208	0.000114
1622	1.6129e+02	-15.4199	-69.105671	0.000344	3.444951	1.167181	0.000138
1623	1.6139e+02	-15.3766	-68.956297	0.000375	3.748918	1.270168	0.000150
1624	1.6149e+02	-15.3413	-68.794812	0.000405	4.052884	1.373154	0.000162
1625	1.6159e+02	-15.3044	-68.661586	0.000334	3.343629	1.132852	0.000134
1626	1.6169e+02	-15.2659	-68.512212	0.000375	3.748918	1.270168	0.000150
1627	1.6179e+02	-15.2161	-68.407247	0.000263	2.634375	0.892550	0.000105
1628	1.6189e+02	-15.1696	-68.241724	0.000415	4.154206	1.407483	0.000166
1629	1.6199e+02	-15.1407	-68.116573	0.000314	3.140985	1.064195	0.000126
1630	1.6209e+02	-15.0894	-67.975273	0.000355	3.546273	1.201510	0.000142
1631	1.6219e+02	-15.0637	-67.886456	0.000223	2.229086	0.755235	0.000089
1632	1.6228e+02	-15.0236	-67.737082	0.000375	3.748918	1.270168	0.000150
1633	1.6238e+02	-14.9803	-67.599819	0.000344	3.444951	1.167181	0.000138
1634	1.6248e+02	-14.9386	-67.531188	0.000172	1.722476	0.583591	0.000069
1635	1.6258e+02	-14.9017	-67.369703	0.000405	4.052884	1.373154	0.000162
1636	1.6268e+02	-14.8600	-67.260700	0.000274	2.735697	0.926879	0.000110
1637	1.6278e+02	-14.8231	-67.119400	0.000355	3.546273	1.201510	0.000142
1638	1.6288e+02	-14.7750	-66.953878	0.000415	4.154206	1.407483	0.000166
1639	1.6298e+02	-14.7397	-66.832764	0.000304	3.039663	1.029866	0.000122
1640	1.6308e+02	-14.7108	-66.671278	0.000405	4.052884	1.373154	0.000162
1641	1.6318e+02	-14.6643	-66.534016	0.000344	3.444951	1.167181	0.000138
1642	1.6328e+02	-14.6258	-66.384642	0.000375	3.748918	1.270168	0.000150
1643	1.6338e+02	-14.5793	-66.263527	0.000304	3.039663	1.029866	0.000122
1644	1.6348e+02	-14.5392	-66.098005	0.000415	4.154206	1.407483	0.000166
1645	1.6358e+02	-14.5071	-66.037448	0.000152	1.519831	0.514933	0.000061
1646	1.6368e+02	-14.4541	-65.855777	0.000456	4.559494	1.544799	0.000183
1647	1.6378e+02	-14.4285	-65.734663	0.000304	3.039663	1.029866	0.000122
1648	1.6388e+02	-14.3787	-65.621623	0.000284	2.837019	0.961208	0.000114
1649	1.6398e+02	-14.3434	-65.520694	0.000253	2.533052	0.858221	0.000101
1650	1.6408e+02	-14.3049	-65.351135	0.000426	4.255528	1.441812	0.000170
1651	1.6418e+02	-14.2632	-65.246169	0.000263	2.634375	0.892550	0.000105
1652	1.6427e+02	-14.2279	-65.116981	0.000324	3.242307	1.098523	0.000130
1653	1.6437e+02	-14.1830	-64.923198	0.000486	4.863461	1.647785	0.000195
1654	1.6447e+02	-14.1509	-64.810159	0.000284	2.837019	0.961208	0.000114
1655	1.6457e+02	-14.1028	-64.632525	0.000446	4.458172	1.510470	0.000179
1656	1.6467e+02	-14.0707	-64.511411	0.000304	3.039663	1.029866	0.000122
1657	1.6477e+02	-14.0290	-64.353962	0.000395	3.951562	1.338825	0.000158
1658	1.6487e+02	-13.9809	-64.196514	0.000395	3.951562	1.338825	0.000158
1659	1.6497e+02	-13.9408	-64.047140	0.000375	3.748918	1.270168	0.000150
1660	1.6507e+02	-13.9071	-63.978509	0.000172	1.722476	0.583591	0.000069
1661	1.6517e+02	-13.8670	-63.800875	0.000446	4.458172	1.510470	0.000179
1662	1.6527e+02	-13.8221	-63.611129	0.000476	4.762139	1.613456	0.000191
1663	1.6537e+02	-13.7852	-63.578832	0.000081	0.810577	0.274631	0.000032
1664	1.6547e+02	-13.7386	-63.376975	0.000507	5.066105	1.716443	0.000203
1665	1.6557e+02	-13.7001	-63.272010	0.000263	2.634375	0.892550	0.000105
1666	1.6567e+02	-13.6616	-63.167044	0.000263	2.634375	0.892550	0.000105
1667	1.6577e+02	-13.6280	-63.013633	0.000385	3.850240	1.304497	0.000154
1668	1.6587e+02	-13.5782	-62.884445	0.000324	3.242307	1.098523	0.000130
1669	1.6597e+02	-13.5397	-62.767368	0.000294	2.938341	0.995537	0.000118
1670	1.6607e+02	-13.4948	-62.638180	0.000324	3.242307	1.098523	0.000130
1671	1.6616e+02	-13.4643	-62.468620	0.000426	4.255528	1.441812	0.000170
1672	1.6626e+02	-13.4354	-62.327320	0.000355	3.546273	1.201510	0.000142
1673	1.6636e+02	-13.3889	-62.210243	0.000294	2.938341	0.995537	0.000118
1674	1.6646e+02	-13.3472	-62.048758	0.000405	4.052884	1.373154	0.000162
1675	1.6656e+02	-13.3087	-61.875161	0.000436	4.356850	1.476141	0.000174
1676	1.6666e+02	-13.2702	-61.766158	0.000274	2.735697	0.926879	0.000110
1677	1.6676e+02	-13.2285	-61.576413	0.000476	4.762139	1.613456	0.000191
1678	1.6686e+02	-13.1964	-61.459336	0.000294	2.938341	0.995537	0.000118
1679	1.6696e+02	-13.1531	-61.289776	0.000426	4.255528	1.441812	0.000170
1680	1.6706e+02	-13.1018	-61.152514	0.000344	3.444951	1.167181	0.000138
1681	1.6716e+02	-13.0633	-61.027362	0.000314	3.140985	1.064195	0.000126
1682	1.6726e+02	-13.0248	-60.946620	0.000203	2.026442	0.686577	0.000081
1683	1.6736e+02	-12.9895	-60.805320	0.000355	3.546273	1.201510	0.000142
1684	1.6746e+02	-12.9413	-60.664020	0.000355	3.546273	1.201510	0.000142
1685	1.6756e+02	-12.9141	-60.522720	0.000355	3.546273	1.201510	0.000142
1686	1.6766e+02	-12.8659	-60.409681	0.000284	2.837019	0.961208	0.000114
1687	1.6776e+02	-12.8242	-60.228010	0.000456	4.559494	1.544799	0.000183
1688	1.6786e+02	-12.7905	-60.135155	0.000233	2.330408	0.789564	0.000093
1689	1.6796e+02	-12.7504	-59.961559	0.000436	4.356850	1.476141	0.000174
1690	1.6806e+02	-12.7071	-59.820259	0.000355	3.546273	1.201510	0.000142
1691	1.6816e+02	-12.6702	-59.695108	0.000314	3.140985	1.064195	0.000126
1692	1.6825e+02	-12.6333	-59.509399	0.000466	4.660817	1.579127	0.000187
1693	1.6835e+02	-12.5836	-59.384248	0.000314	3.140985	1.064195	0.000126
1694	1.6845e+02	-12.5483	-59.194503	0.000476	4.762139	1.613456	0.000191
1695	1.6855e+02	-12.5082	-59.041092	0.000385	3.850240	1.304497	0.000154
1696	1.6865e+02	-12.4713	-58.936126	0.000263	2.634375	0.892550	0.000105
1697	1.6875e+02	-12.4264	-58.782715	0.000385	3.850240	1.304497	0.000154
1698	1.6885e+02	-12.3879	-58.669675	0.000284	2.837019	0.961208	0.000114
1699	1.6895e+02	-12.3510	-58.524338	0.000365	3.647596	1.235839	0.000146
1700	1.6905e+02	-12.3157	-58.391113	0.000334	3.343629	1.132852	0.000134
1701	1.6915e+02	-12.2756	-58.253850	0.000344	3.444951	1.167181	0.000138
1702	1.6925e+02	-12.2387	-58.108513	0.000365	3.647596	1.235839	0.000146
1703	1.6935e+02	-12.1858	-57.922805	0.000466	4.660817	1.579127	0.000187
1704	1.6945e+02	-12.1424	-57.797654	0.000314	3.140985	1.064195	0.000126
1705	1.6955e+02	-12.1104	-57.716911	0.000203	2.026442	0.686577	0.000081
1706	1.6965e+02	-12.0767	-57.502943	0.000537	5.370071	1.819429	0.000215
1707	1.6975e+02	-12.0317	-57.381829	0.000304	3.039663	1.029866	0.000122
1708	1.6985e+02	-11.9948	-57.248603	0.000334	3.343629	1.132852	0.000134
1709	1.6995e+02	-11.9628	-57.066932	0.000456	4.559494	1.544799	0.000183
1710	1.7005e+02	-11.9146	-56.921595	0.000365	3.647596	1.235839	0.000146
1711	1.7015e+02	-11.8761	-56.764147	0.000395	3.951562	1.338825	0.000158
1712	1.7024e+02	-11.8376	-56.574402	0.000476	4.762139	1.613456	0.000191
1713	1.7034e+02	-11.7943	-56.477510	0.000243	2.431730	0.823893	0.000097
1714	1.7044e+02	-11.7558	-56.291802	0.000466	4.660817	1.579127	0.000187
1715	1.7054e+02	-11.7125	-56.166651	0.000314	3.140985	1.064195	0.000126
1716	1.7064e+02	-11.6740	-56.037463	0.000324	3.242307	1.098523	0.000130
1717	1.7074e+02	-11.6291	-55.871940	0.000415	4.154206	1.407483	0.000166
1718	1.7084e+02	-11.5874	-55.726603	0.000365	3.647596	1.235839	0.000146
1719	1.7094e+02	-11.5601	-55.589341	0.000344	3.444951	1.167181	0.000138
1720	1.7104e+02	-11.5152	-55.448041	0.000355	3.546273	1.201510	0.000142
1721	1.7114e+02	-11.4703	-55.274444	0.000436	4.356850	1.476141	0.000174
1722	1.7124e+02	-11.4318	-55.121033	0.000385	3.850240	1.304497	0.000154
1723	1.7134e+02	-11.3981	-55.003956	0.000294	2.938341	0.995537	0.000118
1724	1.7144e+02	-11.3499	-54.858619	0.000365	3.647596	1.235839	0.000146
1725	1.7154e+02	-11.3211	-54.680985	0.000446	4.458172	1.510470	0.000179
1726	1.7164e+02	-11.2794	-54.551797	0.000324	3.242307	1.098523	0.000130
1727	1.7174e+02	-11.2377	-54.386274	0.000415	4.154206	1.407483	0.000166
1728	1.7184e+02	-11.1927	-54.244974	0.000355	3.546273	1.201510	0.000142
1729	1.7194e+02	-11.1558	-54.079452	0.000415	4.154206	1.407483	0.000166
1730	1.7204e+02	-11.1077	-53.958338	0.000304	3.039663	1.029866	0.000122
1731	1.7213e+02	-11.0692	-53.772629	0.000466	4.660817	1.579127	0.000187
1732	1.7223e+02	-11.0259	-53.651515	0.000304	3.039663	1.029866	0.000122
1733	1.7233e+02	-10.9938	-53.441584	0.000527	5.268749	1.785101	0.000211
1734	1.7243e+02	-10.9489	-53.356804	0.000213	2.127764	0.720906	0.000085
1735	1.7253e+02	-10.9168	-53.195319	0.000405	4.052884	1.373154	0.000162
1736	1.7263e+02	-10.8783	-53.005574	0.000476	4.762139	1.613456	0.000191
1737	1.7273e+02	-10.8334	-52.868311	0.000344	3.444951	1.167181	0.000138
1738	1.7283e+02	-10.7949	-52.763346	0.000263	2.634375	0.892550	0.000105
1739	1.7293e+02	-10.7564	-52.597823	0.000415	4.154206	1.407483	0.000166
1740	1.7303e+02	-10.7227	-52.420189	0.000446	4.458172	1.510470	0.000179
1741	1.7313e+02	-10.6778	-52.278889	0.000355	3.546273	1.201510	0.000142
1742	1.7323e+02	-10.6377	-52.117404	0.000405	4.052884	1.373154	0.000162
1743	1.7333e+02	-10.5992	-51.976104	0.000355	3.546273	1.201510	0.000142
1744	1.7343e+02	-10.5575	-51.818656	0.000395	3.951562	1.338825	0.000158
1745	1.7353e+02	-10.5238	-51.641022	0.000446	4.458172	1.510470	0.000179
1746	1.7363e+02	-10.4853	-51.471462	0.000426	4.255528	1.441812	0.000170
1747	1.7373e+02	-10.4339	-51.322088	0.000375	3.748918	1.270168	0.000150
1748	1.7383e+02	-10.4067	-51.196937	0.000314	3.140985	1.064195	0.000126
1749	1.7393e+02	-10.3521	-51.027377	0.000426	4.255528	1.441812	0.000170
1750	1.7403e+02	-10.3232	-50.833595	0.000486	4.863461	1.647785	0.000195
1751	1.7413e+02	-10.2735	-50.716518	0.000294	2.938341	0.995537	0.000118
1752	1.7422e+02	-10.2478	-50.583292	0.000334	3.343629	1.132852	0.000134
1753	1.7432e+02	-10.2045	-50.401621	0.000456	4.559494	1.544799	0.000183
1754	1.7442e+02	-10.1660	-50.256284	0.000365	3.647596	1.235839	0.000146
1755	1.7452e+02	-10.1163	-50.094799	0.000405	4.052884	1.373154	0.000162
1756	1.7462e+02	-10.0954	-49.884868	0.000527	5.268749	1.785101	0.000211
1757	1.7472e+02	-10.0361	-49.763754	0.000304	3.039663	1.029866	0.000122
1758	1.7482e+02	-10.0056	-49.598231	0.000415	4.154206	1.407483	0.000166
1759	1.7492e+02	-9.9591	-49.485191	0.000284	2.837019	0.961208	0.000114
1760	1.7502e+02	-9.9190	-49.295446	0.000476	4.762139	1.613456	0.000191
1761	1.7512e+02	-9.8837	-49.129923	0.000415	4.154206	1.407483	0.000166
1762	1.7522e+02	-9.8323	-48.952289	0.000446	4.458172	1.510470	0.000179
1763	1.7532e+02	-9.7987	-48.786767	0.000415	4.154206	1.407483	0.000166
1764	1.7542e+02	-9.7553	-48.641430	0.000365	3.647596	1.235839	0.000146
1765	1.7552e+02	-9.7168	-48.451685	0.000476	4.762139	1.613456	0.000191
1766	1.7562e+02	-9.6767	-48.322496	0.000324	3.242307	1.098523	0.000130
1767	1.7572e+02	-9.6463	-48.161011	0.000405	4.052884	1.373154	0.000162
1768	1.7582e+02	-9.5965	-48.064120	0.000243	2.431730	0.823893	0.000097
1769	1.7592e+02	-9.5676	-47.874374	0.000476	4.762139	1.613456	0.000191
1770	1.7602e+02	-9.5131	-47.672517	0.000507	5.066105	1.716443	0.000203
1771	1.7612e+02	-9.4762	-47.482772	0.000476	4.762139	1.613456	0.000191
1772	1.7621e+02	-9.4361	-47.353584	0.000324	3.242307	1.098523	0.000130
1773	1.7631e+02	-9.4088	-47.220358	0.000334	3.343629	1.132852	0.000134
1774	1.7641e+02	-9.3687	-47.030613	0.000476	4.762139	1.613456	0.000191
1775	1.7651e+02	-9.3190	-46.881239	0.000375	3.748918	1.270168	0.000150
1776	1.7661e+02	-9.2821	-46.687456	0.000486	4.863461	1.647785	0.000195
1777	1.7671e+02	-9.2468	-46.562305	0.000314	3.140985	1.064195	0.000126
1778	1.7681e+02	-9.1971	-46.364485	0.000496	4.964783	1.682114	0.000199
1779	1.7691e+02	-9.1698	-46.190889	0.000436	4.356850	1.476141	0.000174
1780	1.7701e+02	-9.1201	-46.085923	0.000263	2.634375	0.892550	0.000105
1781	1.7711e+02	-9.0800	-45.875992	0.000527	5.268749	1.785101	0.000211
1782	1.7721e+02	-9.0415	-45.746804	0.000324	3.242307	1.098523	0.000130
1783	1.7731e+02	-8.9981	-45.557058	0.000476	4.762139	1.613456	0.000191
1784	1.7741e+02	-8.9645	-45.383461	0.000436	4.356850	1.476141	0.000174
1785	1.7751e+02	-8.9276	-45.217939	0.000415	4.154206	1.407483	0.000166
1786	1.7761e+02	-8.8858	-45.064528	0.000385	3.850240	1.304497	0.000154
1787	1.7771e+02	-8.8425	-44.903042	0.000405	4.052884	1.373154	0.000162
1788	1.7781e+02	-8.8072	-44.757705	0.000365	3.647596	1.235839	0.000146
1789	1.7791e+02	-8.7591	-44.559886	0.000496	4.964783	1.682114	0.000199
1790	1.7801e+02	-8.7238	-44.378215	0.000456	4.559494	1.544799	0.000183
1791	1.7810e+02	-8.6821	-44.249026	0.000324	3.242307	1.098523	0.000130
1792	1.7820e+02	-8.6468	-44.095615	0.000385	3.850240	1.304497	0.000154
1793	1.7830e+02	-8.6131	-43.930093	0.000415	4.154206	1.407483	0.000166
1794	1.7840e+02	-8.5666	-43.744384	0.000466	4.660817	1.579127	0.000187
1795	1.7850e+02	-8.5361	-43.623270	0.000304	3.039663	1.029866	0.000122
1796	1.7860e+02	-8.4720	-43.445636	0.000446	4.458172	1.510470	0.000179
1797	1.7870e+02	-8.4447	-43.276077	0.000426	4.255528	1.441812	0.000170
1798	1.7880e+02	-8.4046	-43.122665	0.000385	3.850240	1.304497	0.000154
1799	1.7890e+02	-8.3645	-42.965217	0.000395	3.951562	1.338825	0.000158
1800	1.7900e+02	-8.3228	-42.735100	0.000578	5.775360	1.956745	0.000231
1801	1.7910e+02	-8.2859	-42.589763	0.000365	3.647596	1.235839	0.000146
1802	1.7920e+02	-8.2442	-42.379832	0.000527	5.268749	1.785101	0.000211
1803	1.7930e+02	-8.2057	-42.254681	0.000314	3.140985	1.064195	0.000126
1804	1.7940e+02	-8.1688	-42.073010	0.000456	4.559494	1.544799	0.000183
1805	1.7950e+02	-8.1335	-41.907488	0.000415	4.154206	1.407483	0.000166
1806	1.7960e+02	-8.0901	-41.717742	0.000476	4.762139	1.613456	0.000191
1807	1.7970e+02	-8.0516	-41.560294	0.000395	3.951562	1.338825	0.000158
1808	1.7980e+02	-8.0099	-41.398808	0.000405	4.052884	1.373154	0.000162
1809	1.7990e+02	-7.9682	-41.241360	0.000395	3.951562	1.338825	0.000158
1810	1.8000e+02	-7.9265	-41.100060	0.000355	3.546273	1.201510	0.000142
1811	1.8009e+02	-7.8944	-40.914352	0.000466	4.660817	1.579127	0.000187
1812	1.8019e+02	-7.8431	-40.708458	0.000517	5.167427	1.750772	0.000207
1813	1.8029e+02	-7.8078	-40.555047	0.000385	3.850240	1.304497	0.000154
1814	1.8039e+02	-7.7629	-40.393562	0.000405	4.052884	1.373154	0.000162
1815	1.8049e+02	-7.7308	-40.228039	0.000415	4.154206	1.407483	0.000166
1816	1.8059e+02	-7.6907	-40.074628	0.000385	3.850240	1.304497	0.000154
1817	1.8069e+02	-7.6506	-39.909105	0.000415	4.154206	1.407483	0.000166
1818	1.8079e+02	-7.6057	-39.719360	0.000476	4.762139	1.613456	0.000191
1819	1.8089e+02	-7.5688	-39.525577	0.000486	4.863461	1.647785	0.000195
1820	1.8099e+02	-7.5335	-39.339869	0.000466	4.660817	1.579127	0.000187
1821	1.8109e+02	-7.4950	-39.178384	0.000405	4.052884	1.373154	0.000162
1822	1.8119e+02	-7.4517	-38.988638	0.000476	4.762139	1.613456	0.000191
1823	1.8129e+02	-7.4148	-38.831190	0.000395	3.951562	1.338825	0.000158
1824	1.8139e+02	-7.3731	-38.677779	0.000385	3.850240	1.304497	0.000154
1825	1.8149e+02	-7.3362	-38.496108	0.000456	4.559494	1.544799	0.000183
1826	1.8159e+02	-7.2912	-38.314437	0.000456	4.559494	1.544799	0.000183
1827	1.8169e+02	-7.2527	-38.152951	0.000405	4.052884	1.373154	0.000162
1828	1.8179e+02	-7.2190	-37.955132	0.000496	4.964783	1.682114	0.000199
1829	1.8189e+02	-7.1822	-37.797683	0.000395	3.951562	1.338825	0.000158
1830	1.8199e+02	-7.1340	-37.620049	0.000446	4.458172	1.510470	0.000179
1831	1.8209e+02	-7.0843	-37.446453	0.000436	4.356850	1.476141	0.000174
1832	1.8218e+02	-7.0506	-37.260744	0.000466	4.660817	1.579127	0.000187
1833	1.8228e+02	-7.0137	-37.175964	0.000213	2.127764	0.720906	0.000085
1834	1.8238e+02	-6.9672	-36.994293	0.000456	4.559494	1.544799	0.000183
1835	1.8248e+02	-6.9271	-36.739954	0.000638	6.383292	2.162718	0.000256
1836	1.8258e+02	-6.8886	-36.590580	0.000375	3.748918	1.270168	0.000150
1837	1.8268e+02	-6.8517	-36.368537	0.000557	5.572715	1.888087	0.000223
1838	1.8278e+02	-6.8164	-36.223200	0.000365	3.647596	1.235839	0.000146
1839	1.8288e+02	-6.7667	-36.053641	0.000426	4.255528	1.441812	0.000170
1840	1.8298e+02	-6.7314	-35.884081	0.000426	4.255528	1.441812	0.000170
1841	1.8308e+02	-6.6993	-35.694336	0.000476	4.762139	1.613456	0.000191
1842	1.8318e+02	-6.6495	-35.548999	0.000365	3.647596	1.235839	0.000146
1843	1.8328e+02	-6.6110	-35.347142	0.000507	5.066105	1.716443	0.000203
1844	1.8338e+02	-6.5758	-35.201805	0.000365	3.647596	1.235839	0.000146
1845	1.8348e+02	-6.5292	-35.016097	0.000466	4.660817	1.579127	0.000187
1846	1.8358e+02	-6.4955	-34.850574	0.000415	4.154206	1.407483	0.000166
1847	1.8368e+02	-6.4586	-34.693126	0.000395	3.951562	1.338825	0.000158
1848	1.8378e+02	-6.4121	-34.527603	0.000415	4.154206	1.407483	0.000166
1849	1.8388e+02	-6.3752	-34.358044	0.000426	4.255528	1.441812	0.000170
1850	1.8398e+02	-6.3287	-34.200595	0.000395	3.951562	1.338825	0.000158
1851	1.8407e+02	-6.2966	-34.043147	0.000395	3.951562	1.338825	0.000158
1852	1.8417e+02	-6.2613	-33.857439	0.000466	4.660817	1.579127	0.000187
1853	1.8427e+02	-6.2132	-33.671731	0.000466	4.660817	1.579127	0.000187
1854	1.8437e+02	-6.1827	-33.481985	0.000476	4.762139	1.613456	0.000191
1855	1.8447e+02	-6.1378	-33.272054	0.000527	5.268749	1.785101	0.000211
1856	1.8457e+02	-6.1137	-33.106532	0.000415	4.154206	1.407483	0.000166
1857	1.8467e+02	-6.0592	-32.949083	0.000395	3.951562	1.338825	0.000158
1858	1.8477e+02	-6.0223	-32.743189	0.000517	5.167427	1.750772	0.000207
1859	1.8487e+02	-5.9822	-32.573630	0.000426	4.255528	1.441812	0.000170
1860	1.8497e+02	-5.9389	-32.395996	0.000446	4.458172	1.510470	0.000179
1861	1.8507e+02	-5.9004	-32.222399	0.000436	4.356850	1.476141	0.000174
1862	1.8517e+02	-5.8490	-32.040728	0.000456	4.559494	1.544799	0.000183
1863	1.8527e+02	-5.8137	-31.842908	0.000496	4.964783	1.682114	0.000199
1864	1.8537e+02	-5.7849	-31.697571	0.000365	3.647596	1.235839	0.000146
1865	1.8547e+02	-5.7383	-31.536086	0.000405	4.052884	1.373154	0.000162
1866	1.8557e+02	-5.6982	-31.350378	0.000466	4.660817	1.579127	0.000187
1867	1.8567e+02	-5.6581	-31.196966	0.000385	3.850240	1.304497	0.000154
1868	1.8577e+02	-5.6100	-31.039518	0.000395	3.951562	1.338825	0.000158
1869	1.8587e+02	-5.5795	-30.849773	0.000476	4.762139	1.613456	0.000191
1870	1.8597e+02	-5.5522	-30.664064	0.000466	4.660817	1.579127	0.000187
1871	1.8606e+02	-5.4993	-30.437985	0.000567	5.674038	1.922416	0.000227
1872	1.8616e+02	-5.4480	-30.232091	0.000517	5.167427	1.750772	0.000207
1873	1.8626e+02	-5.4303	-30.082717	0.000375	3.748918	1.270168	0.000150
1874	1.8636e+02	-5.3806	-29.897009	0.000466	4.660817	1.579127	0.000187
1875	1.8646e+02	-5.3437	-29.715338	0.000456	4.559494	1.544799	0.000183
1876	1.8656e+02	-5.3052	-29.497332	0.000547	5.471393	1.853758	0.000219
1877	1.8666e+02	-5.2699	-29.311624	0.000466	4.660817	1.579127	0.000187
1878	1.8676e+02	-5.2218	-29.182436	0.000324	3.242307	1.098523	0.000130
1879	1.8686e+02	-5.1785	-28.964430	0.000547	5.471393	1.853758	0.000219
1880	1.8696e+02	-5.1335	-28.806982	0.000395	3.951562	1.338825	0.000158
1881	1.8706e+02	-5.1015	-28.633385	0.000436	4.356850	1.476141	0.000174
1882	1.8716e+02	-5.0517	-28.447677	0.000466	4.660817	1.579127	0.000187
1883	1.8726e+02	-5.0277	-28.290229	0.000395	3.951562	1.338825	0.000158
1884	1.8736e+02	-4.9747	-28.096446	0.000486	4.863461	1.647785	0.000195
1885	1.8746e+02	-4.9458	-27.870367	0.000567	5.674038	1.922416	0.000227
1886	1.8756e+02	-4.8913	-27.720993	0.000375	3.748918	1.270168	0.000150
1887	1.8766e+02	-4.8624	-27.559507	0.000405	4.052884	1.373154	0.000162
1888	1.8776e+02	-4.8175	-27.337465	0.000557	5.572715	1.888087	0.000223
1889	1.8786e+02	-4.7902	-27.135608	0.000507	5.066105	1.716443	0.000203
1890	1.8796e+02	-4.7453	-26.925677	0.000527	5.268749	1.785101	0.000211
1891	1.8806e+02	-4.6940	-26.804563	0.000304	3.039663	1.029866	0.000122
1892	1.8815e+02	-4.6571	-26.566372	0.000598	5.978004	2.025403	0.000239
1893	1.8825e+02	-4.6218	-26.388738	0.000446	4.458172	1.510470	0.000179
1894	1.8835e+02	-4.5801	-26.207067	0.000456	4.559494	1.544799	0.000183
1895	1.8845e+02	-4.5432	-26.025396	0.000456	4.559494	1.544799	0.000183
1896	1.8855e+02	-4.5079	-25.904281	0.000304	3.039663	1.029866	0.000122
1897	1.8865e+02	-4.4630	-25.629756	0.000689	6.889903	2.334362	0.000276
1898	1.8875e+02	-4.4277	-25.476345	0.000385	3.850240	1.304497	0.000154
1899	1.8885e+02	-4.3763	-25.302748	0.000436	4.356850	1.476141	0.000174
1900	1.8895e+02	-4.3394	-25.153374	0.000375	3.748918	1.270168	0.000150
1901	1.8905e+02	-4.2993	-24.975740	0.000446	4.458172	1.510470	0.000179
1902	1.8915e+02	-4.2576	-24.810218	0.000415	4.154206	1.407483	0.000166
1903	1.8925e+02	-4.2223	-24.596249	0.000537	5.370071	1.819429	0.000215
1904	1.8935e+02	-4.1999	-24.414578	0.000456	4.559494	1.544799	0.000183
1905	1.8945e+02	-4.1453	-24.200610	0.000537	5.370071	1.819429	0.000215
1906	1.8955e+02	-4.0988	-24.014902	0.000466	4.660817	1.579127	0.000187
1907	1.8965e+02	-4.0571	-23.792859	0.000557	5.572715	1.888087	0.000223
1908	1.8975e+02	-4.0234	-23.631374	0.000405	4.052884	1.373154	0.000162
1909	1.8985e+02	-3.9929	-23.445666	0.000466	4.660817	1.579127	0.000187
1910	1.8995e+02	-3.9400	-23.284180	0.000405	4.052884	1.373154	0.000162
1911	1.9004e+02	-3.8951	-23.050026	0.000588	5.876682	1.991074	0.000235
1912	1.9014e+02	-3.8694	-22.880467	0.000426	4.255528	1.441812	0.000170
1913	1.9024e+02	-3.8373	-22.686684	0.000486	4.863461	1.647785	0.000195
1914	1.9034e+02	-3.7764	-22.513087	0.000436	4.356850	1.476141	0.000174
1915	1.9044e+02	-3.7491	-22.282971	0.000578	5.775360	1.956745	0.000231
1916	1.9054e+02	-3.7010	-22.129560	0.000385	3.850240	1.304497	0.000154
1917	1.9064e+02	-3.6705	-21.968074	0.000405	4.052884	1.373154	0.000162
1918	1.9074e+02	-3.6256	-21.802552	0.000415	4.154206	1.407483	0.000166
1919	1.9084e+02	-3.5903	-21.584546	0.000547	5.471393	1.853758	0.000219
1920	1.9094e+02	-3.5470	-21.402875	0.000456	4.559494	1.544799	0.000183
1921	1.9104e+02	-3.5133	-21.209093	0.000486	4.863461	1.647785	0.000195
1922	1.9114e+02	-3.4539	-20.983013	0.000567	5.674038	1.922416	0.000227
1923	1.9124e+02	-3.4347	-20.785193	0.000496	4.964783	1.682114	0.000199
1924	1.9134e+02	-3.3849	-20.559114	0.000567	5.674038	1.922416	0.000227
1925	1.9144e+02	-3.3480	-20.417814	0.000355	3.546273	1.201510	0.000142
1926	1.9154e+02	-3.3047	-20.199809	0.000547	5.471393	1.853758	0.000219
1927	1.9164e+02	-3.2758	-19.997952	0.000507	5.066105	1.716443	0.000203
1928	1.9174e+02	-3.2309	-19.804169	0.000486	4.863461	1.647785	0.000195
1929	1.9184e+02	-3.1956	-19.586164	0.000547	5.471393	1.853758	0.000219
1930	1.9194e+02	-3.1523	-19.420641	0.000415	4.154206	1.407483	0.000166
1931	1.9203e+02	-3.1138	-19.238970	0.000456	4.559494	1.544799	0.000183
1932	1.9213e+02	-3.0721	-19.045188	0.000486	4.863461	1.647785	0.000195
1933	1.9223e+02	-3.0336	-18.907925	0.000344	3.444951	1.167181	0.000138
1934	1.9233e+02	-2.9855	-18.685883	0.000557	5.572715	1.888087	0.000223
1935	1.9243e+02	-2.9566	-18.504212	0.000456	4.559494	1.544799	0.000183
1936	1.9253e+02	-2.9053	-18.274095	0.000578	5.775360	1.956745	0.000231
1937	1.9263e+02	-2.8700	-18.076275	0.000496	4.964783	1.682114	0.000199
1938	1.9273e+02	-2.8234	-17.842121	0.000588	5.876682	1.991074	0.000235
1939	1.9283e+02	-2.7930	-17.684673	0.000395	3.951562	1.338825	0.000158
1940	1.9293e+02	-2.7481	-17.470705	0.000537	5.370071	1.819429	0.000215
1941	1.9303e+02	-2.7095	-17.268848	0.000507	5.066105	1.716443	0.000203
1942	1.9313e+02	-2.6694	-17.062954	0.000517	5.167427	1.750772	0.000207
1943	1.9323e+02	-2.6229	-16.897432	0.000415	4.154206	1.407483	0.000166
1944	1.9333e+02	-2.5844	-16.695575	0.000507	5.066105	1.716443	0.000203
1945	1.9343e+02	-2.5604	-16.485644	0.000527	5.268749	1.785101	0.000211
1946	1.9353e+02	-2.5090	-16.324158	0.000405	4.052884	1.373154	0.000162
1947	1.9363e+02	-2.4689	-16.085967	0.000598	5.978004	2.025403	0.000239
1948	1.9373e+02	-2.4352	-15.896222	0.000476	4.762139	1.613456	0.000191
1949	1.9383e+02	-2.3775	-15.771071	0.000314	3.140985	1.064195	0.000126
1950	1.9393e+02	-2.3454	-15.528843	0.000608	6.079326	2.059731	0.000243
1951	1.9403e+02	-2.3133	-15.359283	0.000426	4.255528	1.441812	0.000170
1952	1.9412e+02	-2.2700	-15.209909	0.000375	3.748918	1.270168	0.000150
1953	1.9422e+02	-2.2299	-15.020164	0.000476	4.762139	1.613456	0.000191
1954	1.9432e+02	-2.1946	-14.769861	0.000628	6.281970	2.128389	0.000252
1955	1.9442e+02	-2.1545	-14.547819	0.000557	5.572715	1.888087	0.000223
1956	1.9452e+02	-2.1192	-14.333850	0.000537	5.370071	1.819429	0.000215
1957	1.9462e+02	-2.0775	-14.136031	0.000496	4.964783	1.682114	0.000199
1958	1.9472e+02	-2.0326	-13.946285	0.000476	4.762139	1.613456	0.000191
1959	1.9482e+02	-2.0037	-13.752503	0.000486	4.863461	1.647785	0.000195
1960	1.9492e+02	-1.9475	-13.506238	0.000618	6.180648	2.094060	0.000248
1961	1.9502e+02	-1.9203	-13.389161	0.000294	2.938341	0.995537	0.000118
1962	1.9512e+02	-1.8705	-13.122710	0.000669	6.687259	2.265705	0.000268
1963	1.9522e+02	-1.8336	-12.973336	0.000375	3.748918	1.270168	0.000150
1964	1.9532e+02	-1.7855	-12.779553	0.000486	4.863461	1.647785	0.000195
1965	1.9542e+02	-1.7550	-12.605956	0.000436	4.356850	1.476141	0.000174
1966	1.9552e+02	-1.7133	-12.412174	0.000486	4.863461	1.647785	0.000195
1967	1.9562e+02	-1.6700	-12.230503	0.000456	4.559494	1.544799	0.000183
1968	1.9572e+02	-1.6331	-12.036720	0.000486	4.863461	1.647785	0.000195
1969	1.9582e+02	-1.5946	-11.826789	0.000527	5.268749	1.785101	0.000211
1970	1.9592e+02	-1.5545	-11.596672	0.000578	5.775360	1.956745	0.000231
1971	1.9601e+02	-1.5112	-11.398853	0.000496	4.964783	1.682114	0.000199
1972	1.9611e+02	-1.4775	-11.213145	0.000466	4.660817	1.579127	0.000187
1973	1.9621e+02	-1.4342	-11.015325	0.000496	4.964783	1.682114	0.000199
1974	1.9631e+02	-1.4005	-10.740800	0.000689	6.889903	2.334362	0.000276
1975	1.9641e+02	-1.3588	-10.571240	0.000426	4.255528	1.441812	0.000170
1976	1.9651e+02	-1.3091	-10.413792	0.000395	3.951562	1.338825	0.000158
1977	1.9661e+02	-1.2706	-10.171563	0.000608	6.079326	2.059731	0.000243
1978	1.9671e+02	-1.2401	-9.945484	0.000567	5.674038	1.922416	0.000227
1979	1.9681e+02	-1.1935	-9.779961	0.000415	4.154206	1.407483	0.000166
1980	1.9691e+02	-1.1615	-9.578105	0.000507	5.066105	1.716443	0.000203
1981	1.9701e+02	-1.1133	-9.368173	0.000527	5.268749	1.785101	0.000211
1982	1.9711e+02	-1.0780	-9.190540	0.000446	4.458172	1.510470	0.000179
1983	1.9721e+02	-1.0347	-9.020980	0.000426	4.255528	1.441812	0.000170
1984	1.9731e+02	-1.0026	-8.843346	0.000446	4.458172	1.510470	0.000179
1985	1.9741e+02	-0.9609	-8.629378	0.000537	5.370071	1.819429	0.000215
1986	1.9751e+02	-0.9144	-8.399261	0.000578	5.775360	1.956745	0.000231
1987	1.9761e+02	-0.8775	-8.209516	0.000476	4.762139	1.613456	0.000191
1988	1.9771e+02	-0.8374	-8.007659	0.000507	5.066105	1.716443	0.000203
1989	1.9781e+02	-0.8021	-7.769468	0.000598	5.978004	2.025403	0.000239
1990	1.9791e+02	-0.7524	-7.547425	0.000557	5.572715	1.888087	0.000223
1991	1.9800e+02	-0.7251	-7.325383	0.000557	5.572715	1.888087	0.000223
1992	1.9810e+02	-0.6898	-7.155823	0.000426	4.255528	1.441812	0.000170
1993	1.9820e+02	-0.6353	-6.925706	0.000578	5.775360	1.956745	0.000231
1994	1.9830e+02	-0.5984	-6.735961	0.000476	4.762139	1.613456	0.000191
1995	1.9840e+02	-0.5631	-6.570438	0.000415	4.154206	1.407483	0.000166
1996	1.9850e+02	-0.5198	-6.348396	0.000557	5.572715	1.888087	0.000223
1997	1.9860e+02	-0.4813	-6.162688	0.000466	4.660817	1.579127	0.000187
1998	1.9870e+02	-0.4380	-5.976979	0.000466	4.660817	1.579127	0.000187
1999	1.9880e+02	-0.3978	-5.742826	0.000588	5.876682	1.991074	0.000235
2000	1.9890e+02	-0.3674	-5.532895	0.000527	5.268749	1.785101	0.000211
2001	1.9900e+02	-0.3144	-5.359298	0.000436	4.356850	1.476141	0.000174
2002	1.9910e+02	-0.2743	-5.209924	0.000375	3.748918	1.270168	0.000150
2003	1.9920e+02	-0.2406	-4.995955	0.000537	5.370071	1.819429	0.000215
2004	1.9930e+02	-0.1925	-4.794099	0.000507	5.066105	1.716443	0.000203
2005	1.9940e+02	-0.1636	-4.592242	0.000507	5.066105	1.716443	0.000203
2006	1.9950e+02	-0.1315	-4.366162	0.000567	5.674038	1.922416	0.000227
2007	1.9960e+02	-0.0834	-4.160268	0.000517	5.167427	1.750772	0.000207
2008	1.9970e+02	-0.0465	-3.922077	0.000598	5.978004	2.025403	0.000239
2009	1.9980e+02	0.0016	-3.744443	0.000598	5.978004	2.025403	0.000179

Center data before PMax,+/-Pr and +/-Vc Calc.

PMax (uC/cm2):	8.23e+01
Pr (uC/cm2):	6.72e+00
-Pr (uC/cm2):	-3.74e+00
PLoss (uC/cm2):	-9.16e-01
Vc:	6.26e-01
-Vc:	-1.31e+00
C (Max-Eff) (nF):	4.11e-01
K (Eff):	1.39e+03
Vert. (+/-Pr) Shift (uC/cm2):	1.49e+00
Horiz. Shift (+/-Vc):	-3.44e-01
Offset (uC/cm2):	2.85e+00

A (Loop Area - uC/cm2·Volts):	-7.18e-03



Hysteresis Version: 5.48.1 - Radiant Technologies, Inc., 1999 - 9/12/24

