»»»»»»»»»»»»»»»»»»»»»»»»»»»»»»»»»»»» Hysteresis ««««««««««««««««««««««««««««««««««««
»»»  Executed Version:	5.48.1
»»»  Vision Version:	5.48.4 (R)
»»»  Vision Compiled:	9/18/24
»»»  Driver Version:	5.47.0
»»»  Windows Version:	Windows 8 or 8.1
»»»  Processor Information:	x86 (AMD or Intel) - 32 Processors
»»»  Tester Name:	PMF21124-494 (100V)
»»»  Tester S/N:	PMF21124-494
»»»  Internal Amp Type:	100V RevK 270k
»»»  Internal Amp S/N:	iAB2-596/K     
»»»  Execution Count:	1
»»»»»»»»»»»»»»»»»»»»»»»»»»»»»»»»»»»»»»»»»»««««««««««««««««««««««««««««««««««««««««««

Stored:	6/4/2025 - 14:58:37
Configured:	06/04/25 01:46:06 PM
Executed:	06/04/25 02:57:55 PM

»»»»»»»»»»»»»»»»»»»»»»»»»»»»»»»»»»» Sample Info ««««««««««««««««««««««««««««««««««««
Sample Name:	
Lot Name:	
Wafer Name:	
Die Row/Column:	0/0
Capacitor Number:	0
Sample Area (cm2):	1.00e-04
Sample Thickness (microns):	3.00e-01

Amplifier:	Internal

»»»»»»»»»»»»»»»»»»»»»»»»»»»»»»»»»»» Tester Info «««««««««««««««««««««««««««««««««««
Tester Name:	PMF21124-494 (100V)
Tester Serial Number:	PMF21124-494
Return Signal Amp. Level:	0.19 [Index: 3]

»»»»»»»»»»»»»»»»»»»»»»»»»»»»»»»» Hysteresis Info ««««««««««««««««««««««««««««««««««
Task Name:	Hyst-37
Volts:	20.00
Field:	666.67 (kV/cm)
DCBias:	0.00
DCField:	0.00 (kV/cm)
Hysteresis Period (ms):	2.00e+02
Preset:	Enabled
Preset Delay (ms):	1.00e+03
Profile:	Standard Bipolar

»»»»»»»»»»»»»»»»»»»»»»»»»»»»»»»»»»»»»» Data «««««««««««««««««««««««««««««««««««««««
Points:	2009

Valid Data

Point	Time (ms)	Drive Voltage	Measured Polarization (uC/cm2)	Capacitance (uF)	Normalized Capacitance (uF/cm2)	Dielectric Constant	Instantaneous Current (mA)
   1	0.0000e+00	-0.0016	-84.751591	0.000345	3.446195	1.167603	0.000138
   2	9.9500e-02	0.0193	-84.614328	0.000345	3.446195	1.167603	0.000138
   3	1.9900e-01	0.0578	-84.408434	0.000517	5.169293	1.751404	0.000207
   4	2.9850e-01	0.1091	-84.263097	0.000365	3.648913	1.236285	0.000146
   5	3.9800e-01	0.1460	-84.008758	0.000639	6.385597	2.163499	0.000256
   6	4.9750e-01	0.1845	-83.843235	0.000416	4.155706	1.407991	0.000166
   7	5.9700e-01	0.2166	-83.673675	0.000426	4.257065	1.442333	0.000170
   8	6.9650e-01	0.2663	-83.447596	0.000568	5.676086	1.923110	0.000227
   9	7.9600e-01	0.3144	-83.221516	0.000568	5.676086	1.923110	0.000227
  10	8.9550e-01	0.3513	-83.043882	0.000446	4.459782	1.511015	0.000179
  11	9.9500e-01	0.3818	-82.874322	0.000426	4.257065	1.442333	0.000170
  12	1.0945e+00	0.4203	-82.688614	0.000466	4.662499	1.579698	0.000187
  13	1.1940e+00	0.4684	-82.474646	0.000537	5.372010	1.820086	0.000215
  14	1.2935e+00	0.4925	-82.284901	0.000476	4.763858	1.614039	0.000191
  15	1.3930e+00	0.5374	-82.095155	0.000476	4.763858	1.614039	0.000191
  16	1.4925e+00	0.5775	-81.889261	0.000517	5.169293	1.751404	0.000207
  17	1.5920e+00	0.6240	-81.723739	0.000416	4.155706	1.407991	0.000166
  18	1.6915e+00	0.6642	-81.489585	0.000588	5.878804	1.991793	0.000235
  19	1.7910e+00	0.7091	-81.336174	0.000385	3.851630	1.304968	0.000154
  20	1.8905e+00	0.7476	-81.065686	0.000679	6.791032	2.300864	0.000272
  21	1.9900e+00	0.7845	-80.940534	0.000314	3.142119	1.064579	0.000126
  22	2.0895e+00	0.8182	-80.730603	0.000527	5.270651	1.785745	0.000211
  23	2.1890e+00	0.8631	-80.512598	0.000547	5.473369	1.854428	0.000219
  24	2.2885e+00	0.9048	-80.294593	0.000547	5.473369	1.854428	0.000219
  25	2.3880e+00	0.9401	-80.153293	0.000355	3.547554	1.201944	0.000142
  26	2.4875e+00	0.9834	-79.935288	0.000547	5.473369	1.854428	0.000219
  27	2.5870e+00	1.0219	-79.729394	0.000517	5.169293	1.751404	0.000207
  28	2.6865e+00	1.0588	-79.543685	0.000466	4.662499	1.579698	0.000187
  29	2.7860e+00	1.1053	-79.370089	0.000436	4.358423	1.476674	0.000174
  30	2.8855e+00	1.1486	-79.144009	0.000568	5.676086	1.923110	0.000227
  31	2.9850e+00	1.1759	-78.954264	0.000476	4.763858	1.614039	0.000191
  32	3.0845e+00	1.2112	-78.760481	0.000487	4.865217	1.648380	0.000195
  33	3.1840e+00	1.2641	-78.554587	0.000517	5.169293	1.751404	0.000207
  34	3.2835e+00	1.2994	-78.380990	0.000436	4.358423	1.476674	0.000174
  35	3.3830e+00	1.3460	-78.187208	0.000487	4.865217	1.648380	0.000195
  36	3.4825e+00	1.3828	-77.953054	0.000588	5.878804	1.991793	0.000235
  37	3.5820e+00	1.4278	-77.815791	0.000345	3.446195	1.167603	0.000138
  38	3.6815e+00	1.4566	-77.565489	0.000628	6.284238	2.129158	0.000252
  39	3.7810e+00	1.5000	-77.379781	0.000466	4.662499	1.579698	0.000187
  40	3.8805e+00	1.5336	-77.198110	0.000456	4.561141	1.545356	0.000183
  41	3.9800e+00	1.5786	-76.976067	0.000557	5.574727	1.888769	0.000223
  42	4.0795e+00	1.6187	-76.766136	0.000527	5.270651	1.785745	0.000211
  43	4.1790e+00	1.6556	-76.628873	0.000345	3.446195	1.167603	0.000138
  44	4.2785e+00	1.7037	-76.382608	0.000618	6.182880	2.094816	0.000248
  45	4.3780e+00	1.7502	-76.172677	0.000527	5.270651	1.785745	0.000211
  46	4.4775e+00	1.7791	-75.995043	0.000446	4.459782	1.511015	0.000179
  47	4.5770e+00	1.8208	-75.785112	0.000527	5.270651	1.785745	0.000211
  48	4.6765e+00	1.8577	-75.607478	0.000446	4.459782	1.511015	0.000179
  49	4.7760e+00	1.9074	-75.389473	0.000547	5.473369	1.854428	0.000219
  50	4.8755e+00	1.9411	-75.159356	0.000578	5.777445	1.957451	0.000231
  51	4.9750e+00	1.9876	-74.969611	0.000476	4.763858	1.614039	0.000191
  52	5.0745e+00	2.0133	-74.804088	0.000416	4.155706	1.407991	0.000166
  53	5.1740e+00	2.0566	-74.561860	0.000608	6.081521	2.060475	0.000243
  54	5.2735e+00	2.0839	-74.392300	0.000426	4.257065	1.442333	0.000170
  55	5.3730e+00	2.1336	-74.186406	0.000517	5.169293	1.751404	0.000207
  56	5.4725e+00	2.1850	-73.992624	0.000487	4.865217	1.648380	0.000195
  57	5.5720e+00	2.2219	-73.766544	0.000568	5.676086	1.923110	0.000227
  58	5.6715e+00	2.2572	-73.540465	0.000568	5.676086	1.923110	0.000227
  59	5.7710e+00	2.3005	-73.378979	0.000405	4.054347	1.373650	0.000162
  60	5.8705e+00	2.3486	-73.132714	0.000618	6.182880	2.094816	0.000248
  61	5.9700e+00	2.3743	-72.938931	0.000487	4.865217	1.648380	0.000195
  62	6.0695e+00	2.4208	-72.733037	0.000517	5.169293	1.751404	0.000207
  63	6.1690e+00	2.4577	-72.575589	0.000395	3.952989	1.339309	0.000158
  64	6.2685e+00	2.4978	-72.333361	0.000608	6.081521	2.060475	0.000243
  65	6.3680e+00	2.5347	-72.123430	0.000527	5.270651	1.785745	0.000211
  66	6.4675e+00	2.5764	-71.941759	0.000456	4.561141	1.545356	0.000183
  67	6.5670e+00	2.6261	-71.735865	0.000517	5.169293	1.751404	0.000207
  68	6.6665e+00	2.6566	-71.554194	0.000456	4.561141	1.545356	0.000183
  69	6.7660e+00	2.6951	-71.344263	0.000527	5.270651	1.785745	0.000211
  70	6.8655e+00	2.7432	-71.146443	0.000497	4.966575	1.682721	0.000199
  71	6.9650e+00	2.7753	-70.920364	0.000568	5.676086	1.923110	0.000227
  72	7.0645e+00	2.8138	-70.750804	0.000426	4.257065	1.442333	0.000170
  73	7.1640e+00	2.8603	-70.557021	0.000487	4.865217	1.648380	0.000195
  74	7.2635e+00	2.8988	-70.330942	0.000568	5.676086	1.923110	0.000227
  75	7.3630e+00	2.9309	-70.108899	0.000557	5.574727	1.888769	0.000223
  76	7.4625e+00	2.9775	-69.923191	0.000466	4.662499	1.579698	0.000187
  77	7.5620e+00	3.0192	-69.717297	0.000517	5.169293	1.751404	0.000207
  78	7.6615e+00	3.0513	-69.531589	0.000466	4.662499	1.579698	0.000187
  79	7.7610e+00	3.0865	-69.313583	0.000547	5.473369	1.854428	0.000219
  80	7.8605e+00	3.1363	-69.095578	0.000547	5.473369	1.854428	0.000219
  81	7.9600e+00	3.1716	-68.901796	0.000487	4.865217	1.648380	0.000195
  82	8.0595e+00	3.2133	-68.675716	0.000568	5.676086	1.923110	0.000227
  83	8.1590e+00	3.2534	-68.477896	0.000497	4.966575	1.682721	0.000199
  84	8.2585e+00	3.2919	-68.292188	0.000466	4.662499	1.579698	0.000187
  85	8.3580e+00	3.3384	-68.049960	0.000608	6.081521	2.060475	0.000243
  86	8.4575e+00	3.3721	-67.852140	0.000497	4.966575	1.682721	0.000199
  87	8.5570e+00	3.4186	-67.646246	0.000517	5.169293	1.751404	0.000207
  88	8.6565e+00	3.4523	-67.416130	0.000578	5.777445	1.957451	0.000231
  89	8.7560e+00	3.5036	-67.218310	0.000497	4.966575	1.682721	0.000199
  90	8.8555e+00	3.5309	-67.032602	0.000466	4.662499	1.579698	0.000187
  91	8.9550e+00	3.5790	-66.842856	0.000476	4.763858	1.614039	0.000191
  92	9.0545e+00	3.6191	-66.596591	0.000618	6.182880	2.094816	0.000248
  93	9.1540e+00	3.6625	-66.406846	0.000476	4.763858	1.614039	0.000191
  94	9.2535e+00	3.6897	-66.188840	0.000547	5.473369	1.854428	0.000219
  95	9.3530e+00	3.7266	-65.970835	0.000547	5.473369	1.854428	0.000219
  96	9.4525e+00	3.7667	-65.768978	0.000507	5.067934	1.717063	0.000203
  97	9.5520e+00	3.8052	-65.567122	0.000507	5.067934	1.717063	0.000203
  98	9.6515e+00	3.8470	-65.385450	0.000456	4.561141	1.545356	0.000183
  99	9.7510e+00	3.8903	-65.147259	0.000598	5.980162	2.026134	0.000239
 100	9.8505e+00	3.9384	-64.937328	0.000527	5.270651	1.785745	0.000211
 101	9.9500e+00	3.9705	-64.727397	0.000527	5.270651	1.785745	0.000211
 102	1.0050e+01	4.0122	-64.485169	0.000608	6.081521	2.060475	0.000243
 103	1.0149e+01	4.0539	-64.303498	0.000456	4.561141	1.545356	0.000183
 104	1.0248e+01	4.0876	-64.089530	0.000537	5.372010	1.820086	0.000215
 105	1.0348e+01	4.1261	-63.903822	0.000466	4.662499	1.579698	0.000187
 106	1.0447e+01	4.1678	-63.665631	0.000598	5.980162	2.026134	0.000239
 107	1.0547e+01	4.2031	-63.475885	0.000476	4.763858	1.614039	0.000191
 108	1.0646e+01	4.2544	-63.245768	0.000578	5.777445	1.957451	0.000231
 109	1.0746e+01	4.2881	-63.031800	0.000537	5.372010	1.820086	0.000215
 110	1.0845e+01	4.3378	-62.838018	0.000487	4.865217	1.648380	0.000195
 111	1.0945e+01	4.3731	-62.583678	0.000639	6.385597	2.163499	0.000256
 112	1.1044e+01	4.4148	-62.389896	0.000487	4.865217	1.648380	0.000195
 113	1.1144e+01	4.4437	-62.200150	0.000476	4.763858	1.614039	0.000191
 114	1.1243e+01	4.4838	-62.010405	0.000476	4.763858	1.614039	0.000191
 115	1.1343e+01	4.5448	-61.760103	0.000628	6.284238	2.129158	0.000252
 116	1.1443e+01	4.5705	-61.538060	0.000557	5.574727	1.888769	0.000223
 117	1.1542e+01	4.6058	-61.332166	0.000517	5.169293	1.751404	0.000207
 118	1.1642e+01	4.6443	-61.126272	0.000517	5.169293	1.751404	0.000207
 119	1.1741e+01	4.6892	-60.936527	0.000476	4.763858	1.614039	0.000191
 120	1.1841e+01	4.7261	-60.682187	0.000639	6.385597	2.163499	0.000256
 121	1.1940e+01	4.7710	-60.484368	0.000497	4.966575	1.682721	0.000199
 122	1.2040e+01	4.8063	-60.278474	0.000517	5.169293	1.751404	0.000207
 123	1.2139e+01	4.8592	-60.040283	0.000598	5.980162	2.026134	0.000239
 124	1.2239e+01	4.8865	-59.846500	0.000487	4.865217	1.648380	0.000195
 125	1.2338e+01	4.9298	-59.624458	0.000557	5.574727	1.888769	0.000223
 126	1.2438e+01	4.9747	-59.426638	0.000497	4.966575	1.682721	0.000199
 127	1.2537e+01	5.0052	-59.220744	0.000517	5.169293	1.751404	0.000207
 128	1.2636e+01	5.0437	-58.958330	0.000659	6.588314	2.232181	0.000264
 129	1.2736e+01	5.0870	-58.728214	0.000578	5.777445	1.957451	0.000231
 130	1.2835e+01	5.1287	-58.550580	0.000446	4.459782	1.511015	0.000179
 131	1.2935e+01	5.1688	-58.340649	0.000527	5.270651	1.785745	0.000211
 132	1.3034e+01	5.2089	-58.171089	0.000426	4.257065	1.442333	0.000170
 133	1.3134e+01	5.2442	-57.940972	0.000578	5.777445	1.957451	0.000231
 134	1.3233e+01	5.2859	-57.698744	0.000608	6.081521	2.060475	0.000243
 135	1.3333e+01	5.3293	-57.492850	0.000517	5.169293	1.751404	0.000207
 136	1.3432e+01	5.3646	-57.242548	0.000628	6.284238	2.129158	0.000252
 137	1.3532e+01	5.4127	-57.048765	0.000487	4.865217	1.648380	0.000195
 138	1.3632e+01	5.4416	-56.867094	0.000456	4.561141	1.545356	0.000183
 139	1.3731e+01	5.4801	-56.604680	0.000659	6.588314	2.232181	0.000264
 140	1.3831e+01	5.5266	-56.406861	0.000497	4.966575	1.682721	0.000199
 141	1.3930e+01	5.5619	-56.225189	0.000456	4.561141	1.545356	0.000183
 142	1.4030e+01	5.6004	-55.995073	0.000578	5.777445	1.957451	0.000231
 143	1.4129e+01	5.6485	-55.748807	0.000618	6.182880	2.094816	0.000248
 144	1.4229e+01	5.6886	-55.534839	0.000537	5.372010	1.820086	0.000215
 145	1.4328e+01	5.7351	-55.284537	0.000628	6.284238	2.129158	0.000252
 146	1.4428e+01	5.7688	-55.114977	0.000426	4.257065	1.442333	0.000170
 147	1.4527e+01	5.7993	-54.901009	0.000537	5.372010	1.820086	0.000215
 148	1.4627e+01	5.8410	-54.666855	0.000588	5.878804	1.991793	0.000235
 149	1.4726e+01	5.8843	-54.440775	0.000568	5.676086	1.923110	0.000227
 150	1.4825e+01	5.9212	-54.234882	0.000517	5.169293	1.751404	0.000207
 151	1.4925e+01	5.9677	-54.020913	0.000537	5.372010	1.820086	0.000215
 152	1.5024e+01	6.0046	-53.806945	0.000537	5.372010	1.820086	0.000215
 153	1.5124e+01	6.0512	-53.564717	0.000608	6.081521	2.060475	0.000243
 154	1.5223e+01	6.0833	-53.314415	0.000628	6.284238	2.129158	0.000252
 155	1.5323e+01	6.1266	-53.104483	0.000527	5.270651	1.785745	0.000211
 156	1.5422e+01	6.1715	-52.930887	0.000436	4.358423	1.476674	0.000174
 157	1.5522e+01	6.1972	-52.680584	0.000628	6.284238	2.129158	0.000252
 158	1.5621e+01	6.2453	-52.414133	0.000669	6.689673	2.266523	0.000268
 159	1.5721e+01	6.2838	-52.260722	0.000385	3.851630	1.304968	0.000154
 160	1.5820e+01	6.3191	-51.998308	0.000659	6.588314	2.232181	0.000264
 161	1.5920e+01	6.3512	-51.808563	0.000476	4.763858	1.614039	0.000191
 162	1.6020e+01	6.3993	-51.582483	0.000568	5.676086	1.923110	0.000227
 163	1.6119e+01	6.4426	-51.352367	0.000578	5.777445	1.957451	0.000231
 164	1.6218e+01	6.4795	-51.170695	0.000456	4.561141	1.545356	0.000183
 165	1.6318e+01	6.5180	-50.932504	0.000598	5.980162	2.026134	0.000239
 166	1.6418e+01	6.5613	-50.682202	0.000628	6.284238	2.129158	0.000252
 167	1.6517e+01	6.6014	-50.488420	0.000487	4.865217	1.648380	0.000195
 168	1.6616e+01	6.6463	-50.230043	0.000649	6.486956	2.197840	0.000260
 169	1.6716e+01	6.6816	-50.048372	0.000456	4.561141	1.545356	0.000183
 170	1.6816e+01	6.7314	-49.785958	0.000659	6.588314	2.232181	0.000264
 171	1.6915e+01	6.7715	-49.571990	0.000537	5.372010	1.820086	0.000215
 172	1.7015e+01	6.8036	-49.341873	0.000578	5.777445	1.957451	0.000231
 173	1.7114e+01	6.8421	-49.131942	0.000527	5.270651	1.785745	0.000211
 174	1.7213e+01	6.8854	-48.926048	0.000517	5.169293	1.751404	0.000207
 175	1.7313e+01	6.9239	-48.716117	0.000527	5.270651	1.785745	0.000211
 176	1.7413e+01	6.9592	-48.465815	0.000628	6.284238	2.129158	0.000252
 177	1.7512e+01	6.9993	-48.235698	0.000578	5.777445	1.957451	0.000231
 178	1.7611e+01	7.0426	-48.029804	0.000517	5.169293	1.751404	0.000207
 179	1.7711e+01	7.0779	-47.799687	0.000578	5.777445	1.957451	0.000231
 180	1.7811e+01	7.1212	-47.537273	0.000659	6.588314	2.232181	0.000264
 181	1.7910e+01	7.1597	-47.339454	0.000497	4.966575	1.682721	0.000199
 182	1.8009e+01	7.2046	-47.125485	0.000537	5.372010	1.820086	0.000215
 183	1.8109e+01	7.2399	-46.879220	0.000618	6.182880	2.094816	0.000248
 184	1.8209e+01	7.2800	-46.653141	0.000568	5.676086	1.923110	0.000227
 185	1.8308e+01	7.3185	-46.382652	0.000679	6.791032	2.300864	0.000272
 186	1.8407e+01	7.3554	-46.172721	0.000527	5.270651	1.785745	0.000211
 187	1.8507e+01	7.4003	-45.938568	0.000588	5.878804	1.991793	0.000235
 188	1.8607e+01	7.4308	-45.744785	0.000487	4.865217	1.648380	0.000195
 189	1.8706e+01	7.4725	-45.506594	0.000598	5.980162	2.026134	0.000239
 190	1.8805e+01	7.5206	-45.312812	0.000487	4.865217	1.648380	0.000195
 191	1.8905e+01	7.5543	-45.005989	0.000770	7.703260	2.609935	0.000308
 192	1.9005e+01	7.5944	-44.800095	0.000517	5.169293	1.751404	0.000207
 193	1.9104e+01	7.6426	-44.594201	0.000517	5.169293	1.751404	0.000207
 194	1.9203e+01	7.6746	-44.331788	0.000659	6.588314	2.232181	0.000264
 195	1.9303e+01	7.7099	-44.101671	0.000578	5.777445	1.957451	0.000231
 196	1.9402e+01	7.7565	-43.891740	0.000527	5.270651	1.785745	0.000211
 197	1.9502e+01	7.8014	-43.657586	0.000588	5.878804	1.991793	0.000235
 198	1.9602e+01	7.8399	-43.447655	0.000527	5.270651	1.785745	0.000211
 199	1.9701e+01	7.8768	-43.209464	0.000598	5.980162	2.026134	0.000239
 200	1.9800e+01	7.9185	-42.955124	0.000639	6.385597	2.163499	0.000256
 201	1.9900e+01	7.9618	-42.700785	0.000639	6.385597	2.163499	0.000256
 202	2.0000e+01	7.9971	-42.515076	0.000466	4.662499	1.579698	0.000187
 203	2.0099e+01	8.0404	-42.272848	0.000608	6.081521	2.060475	0.000243
 204	2.0198e+01	8.0773	-42.010434	0.000659	6.588314	2.232181	0.000264
 205	2.0298e+01	8.1094	-41.804541	0.000517	5.169293	1.751404	0.000207
 206	2.0398e+01	8.1543	-41.578461	0.000568	5.676086	1.923110	0.000227
 207	2.0497e+01	8.1976	-41.324121	0.000639	6.385597	2.163499	0.000256
 208	2.0596e+01	8.2297	-41.029411	0.000740	7.399184	2.506911	0.000296
 209	2.0696e+01	8.2762	-40.827554	0.000507	5.067934	1.717063	0.000203
 210	2.0796e+01	8.3147	-40.585326	0.000608	6.081521	2.060475	0.000243
 211	2.0895e+01	8.3564	-40.383469	0.000507	5.067934	1.717063	0.000203
 212	2.0994e+01	8.3917	-40.137204	0.000618	6.182880	2.094816	0.000248
 213	2.1094e+01	8.4351	-39.903050	0.000588	5.878804	1.991793	0.000235
 214	2.1194e+01	8.4736	-39.636599	0.000669	6.689673	2.266523	0.000268
 215	2.1293e+01	8.5137	-39.414556	0.000557	5.574727	1.888769	0.000223
 216	2.1392e+01	8.5490	-39.180402	0.000588	5.878804	1.991793	0.000235
 217	2.1492e+01	8.5923	-38.917989	0.000659	6.588314	2.232181	0.000264
 218	2.1591e+01	8.6356	-38.659612	0.000649	6.486956	2.197840	0.000260
 219	2.1691e+01	8.6773	-38.457755	0.000507	5.067934	1.717063	0.000203
 220	2.1791e+01	8.7110	-38.134784	0.000811	8.108694	2.747300	0.000325
 221	2.1890e+01	8.7575	-37.953113	0.000456	4.561141	1.545356	0.000183
 222	2.1989e+01	8.7848	-37.698774	0.000639	6.385597	2.163499	0.000256
 223	2.2089e+01	8.8345	-37.432323	0.000669	6.689673	2.266523	0.000268
 224	2.2189e+01	8.8794	-37.186057	0.000618	6.182880	2.094816	0.000248
 225	2.2288e+01	8.9163	-36.951903	0.000588	5.878804	1.991793	0.000235
 226	2.2387e+01	8.9564	-36.737935	0.000537	5.372010	1.820086	0.000215
 227	2.2487e+01	8.9901	-36.447261	0.000730	7.297825	2.472570	0.000292
 228	2.2587e+01	9.0270	-36.184848	0.000659	6.588314	2.232181	0.000264
 229	2.2686e+01	9.0655	-35.995102	0.000476	4.763858	1.614039	0.000191
 230	2.2785e+01	9.1201	-35.760948	0.000588	5.878804	1.991793	0.000235
 231	2.2885e+01	9.1538	-35.510646	0.000628	6.284238	2.129158	0.000252
 232	2.2985e+01	9.1987	-35.191712	0.000801	8.007336	2.712959	0.000321
 233	2.3084e+01	9.2324	-34.973707	0.000547	5.473369	1.854428	0.000219
 234	2.3183e+01	9.2757	-34.731479	0.000608	6.081521	2.060475	0.000243
 235	2.3283e+01	9.3174	-34.452916	0.000699	6.993749	2.369546	0.000280
 236	2.3383e+01	9.3559	-34.174354	0.000699	6.993749	2.369546	0.000280
 237	2.3482e+01	9.3976	-33.936163	0.000598	5.980162	2.026134	0.000239
 238	2.3581e+01	9.4393	-33.689898	0.000618	6.182880	2.094816	0.000248
 239	2.3681e+01	9.4698	-33.423447	0.000669	6.689673	2.266523	0.000268
 240	2.3780e+01	9.5067	-33.177181	0.000618	6.182880	2.094816	0.000248
 241	2.3880e+01	9.5532	-32.926879	0.000628	6.284238	2.129158	0.000252
 242	2.3980e+01	9.5933	-32.672540	0.000639	6.385597	2.163499	0.000256
 243	2.4079e+01	9.6318	-32.434349	0.000598	5.980162	2.026134	0.000239
 244	2.4178e+01	9.6767	-32.155786	0.000699	6.993749	2.369546	0.000280
 245	2.4278e+01	9.7088	-31.901447	0.000639	6.385597	2.163499	0.000256
 246	2.4378e+01	9.7393	-31.614810	0.000720	7.196466	2.438229	0.000288
 247	2.4477e+01	9.7890	-31.368545	0.000618	6.182880	2.094816	0.000248
 248	2.4576e+01	9.8307	-31.154576	0.000537	5.372010	1.820086	0.000215
 249	2.4676e+01	9.8692	-30.859866	0.000740	7.399184	2.506911	0.000296
 250	2.4776e+01	9.9093	-30.549006	0.000780	7.804618	2.644276	0.000312
 251	2.4875e+01	9.9462	-30.343112	0.000517	5.169293	1.751404	0.000207
 252	2.4974e+01	9.9863	-30.068587	0.000689	6.892390	2.335205	0.000276
 253	2.5074e+01	10.0249	-29.773876	0.000740	7.399184	2.506911	0.000296
 254	2.5174e+01	10.0634	-29.531648	0.000608	6.081521	2.060475	0.000243
 255	2.5273e+01	10.1083	-29.236937	0.000740	7.399184	2.506911	0.000296
 256	2.5372e+01	10.1388	-28.958375	0.000699	6.993749	2.369546	0.000280
 257	2.5472e+01	10.1933	-28.699998	0.000649	6.486956	2.197840	0.000260
 258	2.5572e+01	10.2238	-28.461807	0.000598	5.980162	2.026134	0.000239
 259	2.5671e+01	10.2687	-28.146910	0.000791	7.905977	2.678618	0.000316
 260	2.5770e+01	10.3104	-27.900645	0.000618	6.182880	2.094816	0.000248
 261	2.5870e+01	10.3569	-27.642268	0.000649	6.486956	2.197840	0.000260
 262	2.5970e+01	10.3810	-27.363706	0.000699	6.993749	2.369546	0.000280
 263	2.6069e+01	10.4195	-27.089181	0.000689	6.892390	2.335205	0.000276
 264	2.6169e+01	10.4676	-26.834841	0.000639	6.385597	2.163499	0.000256
 265	2.6268e+01	10.5045	-26.540130	0.000740	7.399184	2.506911	0.000296
 266	2.6367e+01	10.5462	-26.273679	0.000669	6.689673	2.266523	0.000268
 267	2.6467e+01	10.5815	-25.991080	0.000710	7.095108	2.403888	0.000284
 268	2.6567e+01	10.6248	-25.732703	0.000649	6.486956	2.197840	0.000260
 269	2.6666e+01	10.6553	-25.429918	0.000760	7.601901	2.575594	0.000304
 270	2.6765e+01	10.7050	-25.175578	0.000639	6.385597	2.163499	0.000256
 271	2.6865e+01	10.7419	-24.897016	0.000699	6.993749	2.369546	0.000280
 272	2.6965e+01	10.7901	-24.598268	0.000750	7.500542	2.541253	0.000300
 273	2.7064e+01	10.8222	-24.303557	0.000740	7.399184	2.506911	0.000296
 274	2.7163e+01	10.8639	-24.029032	0.000689	6.892390	2.335205	0.000276
 275	2.7263e+01	10.9088	-23.754507	0.000689	6.892390	2.335205	0.000276
 276	2.7363e+01	10.9473	-23.479981	0.000689	6.892390	2.335205	0.000276
 277	2.7462e+01	10.9842	-23.189308	0.000730	7.297825	2.472570	0.000292
 278	2.7561e+01	11.0211	-22.926894	0.000659	6.588314	2.232181	0.000264
 279	2.7661e+01	11.0660	-22.620072	0.000770	7.703260	2.609935	0.000308
 280	2.7761e+01	11.1077	-22.325361	0.000740	7.399184	2.506911	0.000296
 281	2.7860e+01	11.1382	-22.046798	0.000699	6.993749	2.369546	0.000280
 282	2.7959e+01	11.1847	-21.731902	0.000791	7.905977	2.678618	0.000316
 283	2.8059e+01	11.2216	-21.445265	0.000720	7.196466	2.438229	0.000288
 284	2.8159e+01	11.2649	-21.122294	0.000811	8.108694	2.747300	0.000325
 285	2.8258e+01	11.3066	-20.892177	0.000578	5.777445	1.957451	0.000231
 286	2.8358e+01	11.3387	-20.557095	0.000841	8.412771	2.850324	0.000337
 287	2.8457e+01	11.3949	-20.246236	0.000780	7.804618	2.644276	0.000312
 288	2.8556e+01	11.4221	-20.024193	0.000557	5.574727	1.888769	0.000223
 289	2.8656e+01	11.4655	-19.697185	0.000821	8.210053	2.781641	0.000329
 290	2.8756e+01	11.4991	-19.398437	0.000750	7.500542	2.541253	0.000300
 291	2.8855e+01	11.5441	-19.119875	0.000699	6.993749	2.369546	0.000280
 292	2.8954e+01	11.5761	-18.813053	0.000770	7.703260	2.609935	0.000308
 293	2.9054e+01	11.6259	-18.514304	0.000750	7.500542	2.541253	0.000300
 294	2.9154e+01	11.6692	-18.227668	0.000720	7.196466	2.438229	0.000288
 295	2.9253e+01	11.7061	-17.945068	0.000710	7.095108	2.403888	0.000284
 296	2.9352e+01	11.7414	-17.614023	0.000831	8.311412	2.815983	0.000333
 297	2.9452e+01	11.7831	-17.311238	0.000760	7.601901	2.575594	0.000304
 298	2.9552e+01	11.8136	-17.020564	0.000730	7.297825	2.472570	0.000292
 299	2.9651e+01	11.8697	-16.697593	0.000811	8.108694	2.747300	0.000325
 300	2.9750e+01	11.9002	-16.443254	0.000639	6.385597	2.163499	0.000256
 301	2.9850e+01	11.9451	-16.108172	0.000841	8.412771	2.850324	0.000337
 302	2.9950e+01	11.9724	-15.789238	0.000801	8.007336	2.712959	0.000321
 303	3.0049e+01	12.0205	-15.506638	0.000710	7.095108	2.403888	0.000284
 304	3.0148e+01	12.0622	-15.236150	0.000679	6.791032	2.300864	0.000272
 305	3.0248e+01	12.1007	-14.929328	0.000770	7.703260	2.609935	0.000308
 306	3.0348e+01	12.1456	-14.602320	0.000821	8.210053	2.781641	0.000329
 307	3.0447e+01	12.1825	-14.271275	0.000831	8.311412	2.815983	0.000333
 308	3.0547e+01	12.2210	-13.976564	0.000740	7.399184	2.506911	0.000296
 309	3.0646e+01	12.2628	-13.681853	0.000740	7.399184	2.506911	0.000296
 310	3.0745e+01	12.3029	-13.362919	0.000801	8.007336	2.712959	0.000321
 311	3.0845e+01	12.3317	-13.043986	0.000801	8.007336	2.712959	0.000321
 312	3.0945e+01	12.3847	-12.704866	0.000851	8.514129	2.884665	0.000341
 313	3.1044e+01	12.4168	-12.357672	0.000872	8.716847	2.953348	0.000349
 314	3.1143e+01	12.4601	-12.087184	0.000679	6.791032	2.300864	0.000272
 315	3.1243e+01	12.4986	-11.784399	0.000760	7.601901	2.575594	0.000304
 316	3.1343e+01	12.5467	-11.473540	0.000780	7.804618	2.644276	0.000312
 317	3.1442e+01	12.5772	-11.134420	0.000851	8.514129	2.884665	0.000341
 318	3.1541e+01	12.6221	-10.835672	0.000750	7.500542	2.541253	0.000300
 319	3.1641e+01	12.6558	-10.512701	0.000811	8.108694	2.747300	0.000325
 320	3.1741e+01	12.7055	-10.197805	0.000791	7.905977	2.678618	0.000316
 321	3.1840e+01	12.7376	-9.870797	0.000821	8.210053	2.781641	0.000329
 322	3.1939e+01	12.7809	-9.531677	0.000851	8.514129	2.884665	0.000341
 323	3.2039e+01	12.8210	-9.228892	0.000760	7.601901	2.575594	0.000304
 324	3.2139e+01	12.8676	-8.901884	0.000821	8.210053	2.781641	0.000329
 325	3.2238e+01	12.8948	-8.591025	0.000780	7.804618	2.644276	0.000312
 326	3.2337e+01	12.9365	-8.268054	0.000811	8.108694	2.747300	0.000325
 327	3.2437e+01	12.9734	-7.957195	0.000780	7.804618	2.644276	0.000312
 328	3.2536e+01	13.0248	-7.642298	0.000791	7.905977	2.678618	0.000316
 329	3.2636e+01	13.0504	-7.327401	0.000791	7.905977	2.678618	0.000316
 330	3.2736e+01	13.1050	-6.980208	0.000872	8.716847	2.953348	0.000349
 331	3.2835e+01	13.1339	-6.685497	0.000740	7.399184	2.506911	0.000296
 332	3.2934e+01	13.1691	-6.366563	0.000801	8.007336	2.712959	0.000321
 333	3.3034e+01	13.2189	-6.031481	0.000841	8.412771	2.850324	0.000337
 334	3.3133e+01	13.2574	-5.724658	0.000770	7.703260	2.609935	0.000308
 335	3.3233e+01	13.2959	-5.413799	0.000780	7.804618	2.644276	0.000312
 336	3.3333e+01	13.3360	-5.066605	0.000872	8.716847	2.953348	0.000349
 337	3.3432e+01	13.3729	-4.743634	0.000811	8.108694	2.747300	0.000325
 338	3.3532e+01	13.4162	-4.440849	0.000760	7.601901	2.575594	0.000304
 339	3.3631e+01	13.4515	-4.093656	0.000872	8.716847	2.953348	0.000349
 340	3.3730e+01	13.4884	-3.782796	0.000780	7.804618	2.644276	0.000312
 341	3.3830e+01	13.5333	-3.407343	0.000943	9.426357	3.193736	0.000377
 342	3.3929e+01	13.5670	-3.128780	0.000699	6.993749	2.369546	0.000280
 343	3.4029e+01	13.6135	-2.793698	0.000841	8.412771	2.850324	0.000337
 344	3.4129e+01	13.6520	-2.430356	0.000912	9.122281	3.090713	0.000365
 345	3.4228e+01	13.6857	-2.107385	0.000811	8.108694	2.747300	0.000325
 346	3.4328e+01	13.7274	-1.772303	0.000841	8.412771	2.850324	0.000337
 347	3.4427e+01	13.7820	-1.449332	0.000811	8.108694	2.747300	0.000325
 348	3.4526e+01	13.8221	-1.122324	0.000821	8.210053	2.781641	0.000329
 349	3.4626e+01	13.8542	-0.783204	0.000851	8.514129	2.884665	0.000341
 350	3.4725e+01	13.8878	-0.468308	0.000791	7.905977	2.678618	0.000316
 351	3.4825e+01	13.9376	-0.121114	0.000872	8.716847	2.953348	0.000349
 352	3.4925e+01	13.9697	0.298748	0.001054	10.541303	3.571490	0.000422
 353	3.5024e+01	14.0082	0.565199	0.000669	6.689673	2.266523	0.000268
 354	3.5123e+01	14.0451	0.924504	0.000902	9.020923	3.056371	0.000361
 355	3.5223e+01	14.0916	1.255549	0.000831	8.311412	2.815983	0.000333
 356	3.5322e+01	14.1301	1.590631	0.000841	8.412771	2.850324	0.000337
 357	3.5422e+01	14.1718	1.953974	0.000912	9.122281	3.090713	0.000365
 358	3.5522e+01	14.2119	2.256759	0.000760	7.601901	2.575594	0.000304
 359	3.5621e+01	14.2424	2.628175	0.000932	9.324999	3.159395	0.000373
 360	3.5721e+01	14.2889	2.939035	0.000780	7.804618	2.644276	0.000312
 361	3.5820e+01	14.3290	3.274117	0.000841	8.412771	2.850324	0.000337
 362	3.5919e+01	14.3771	3.645534	0.000932	9.324999	3.159395	0.000373
 363	3.6019e+01	14.4172	3.972542	0.000821	8.210053	2.781641	0.000329
 364	3.6118e+01	14.4525	4.347995	0.000943	9.426357	3.193736	0.000377
 365	3.6218e+01	14.4878	4.662892	0.000791	7.905977	2.678618	0.000316
 366	3.6318e+01	14.5263	5.026234	0.000912	9.122281	3.090713	0.000365
 367	3.6417e+01	14.5745	5.353242	0.000821	8.210053	2.781641	0.000329
 368	3.6517e+01	14.6114	5.692361	0.000851	8.514129	2.884665	0.000341
 369	3.6616e+01	14.6402	6.035518	0.000862	8.615488	2.919006	0.000345
 370	3.6715e+01	14.6948	6.366563	0.000831	8.311412	2.815983	0.000333
 371	3.6815e+01	14.7333	6.746054	0.000953	9.527716	3.228078	0.000381
 372	3.6914e+01	14.7734	7.073062	0.000821	8.210053	2.781641	0.000329
 373	3.7014e+01	14.8071	7.456590	0.000963	9.629075	3.262419	0.000385
 374	3.7114e+01	14.8456	7.763412	0.000770	7.703260	2.609935	0.000308
 375	3.7213e+01	14.8873	8.130791	0.000922	9.223640	3.125054	0.000369
 376	3.7313e+01	14.9226	8.494134	0.000912	9.122281	3.090713	0.000365
 377	3.7412e+01	14.9723	8.861513	0.000922	9.223640	3.125054	0.000369
 378	3.7511e+01	15.0108	9.228892	0.000922	9.223640	3.125054	0.000369
 379	3.7611e+01	15.0381	9.543789	0.000791	7.905977	2.678618	0.000316
 380	3.7711e+01	15.0862	9.915205	0.000932	9.324999	3.159395	0.000373
 381	3.7810e+01	15.1279	10.262399	0.000872	8.716847	2.953348	0.000349
 382	3.7910e+01	15.1760	10.654001	0.000983	9.831792	3.331101	0.000394
 383	3.8009e+01	15.2113	10.997158	0.000862	8.615488	2.919006	0.000345
 384	3.8108e+01	15.2482	11.352426	0.000892	8.919564	3.022030	0.000357
 385	3.8208e+01	15.2803	11.683471	0.000831	8.311412	2.815983	0.000333
 386	3.8307e+01	15.3252	12.062962	0.000953	9.527716	3.228078	0.000381
 387	3.8407e+01	15.3702	12.466675	0.001014	10.135868	3.434125	0.000406
 388	3.8507e+01	15.4022	12.813869	0.000872	8.716847	2.953348	0.000349
 389	3.8606e+01	15.4423	13.177211	0.000912	9.122281	3.090713	0.000365
 390	3.8706e+01	15.4841	13.536516	0.000902	9.020923	3.056371	0.000361
 391	3.8805e+01	15.5322	13.916007	0.000953	9.527716	3.228078	0.000381
 392	3.8904e+01	15.5675	14.291461	0.000943	9.426357	3.193736	0.000377
 393	3.9004e+01	15.6124	14.666914	0.000943	9.426357	3.193736	0.000377
 394	3.9103e+01	15.6493	15.001996	0.000841	8.412771	2.850324	0.000337
 395	3.9203e+01	15.6750	15.377450	0.000943	9.426357	3.193736	0.000377
 396	3.9303e+01	15.7263	15.732718	0.000892	8.919564	3.022030	0.000357
 397	3.9402e+01	15.7680	16.160654	0.001074	10.744020	3.640173	0.000430
 398	3.9502e+01	15.8049	16.483625	0.000811	8.108694	2.747300	0.000325
 399	3.9601e+01	15.8466	16.859079	0.000943	9.426357	3.193736	0.000377
 400	3.9700e+01	15.8915	17.234532	0.000943	9.426357	3.193736	0.000377
 401	3.9800e+01	15.9284	17.634209	0.001003	10.034509	3.399784	0.000402
 402	3.9900e+01	15.9685	18.029848	0.000993	9.933151	3.365443	0.000398
 403	3.9999e+01	16.0167	18.360893	0.000831	8.311412	2.815983	0.000333
 404	4.0099e+01	16.0375	18.784793	0.001064	10.642662	3.605831	0.000426
 405	4.0198e+01	16.0905	19.148135	0.000912	9.122281	3.090713	0.000365
 406	4.0297e+01	16.1209	19.527626	0.000953	9.527716	3.228078	0.000381
 407	4.0397e+01	16.1578	19.923265	0.000993	9.933151	3.365443	0.000398
 408	4.0496e+01	16.1979	20.302756	0.000953	9.527716	3.228078	0.000381
 409	4.0596e+01	16.2413	20.694358	0.000983	9.831792	3.331101	0.000394
 410	4.0696e+01	16.2830	21.049626	0.000892	8.919564	3.022030	0.000357
 411	4.0795e+01	16.3327	21.461414	0.001034	10.338585	3.502808	0.000414
 412	4.0895e+01	16.3600	21.840904	0.000953	9.527716	3.228078	0.000381
 413	4.0994e+01	16.4017	22.272878	0.001085	10.845379	3.674514	0.000434
 414	4.1093e+01	16.4450	22.636220	0.000912	9.122281	3.090713	0.000365
 415	4.1193e+01	16.4787	23.007637	0.000932	9.324999	3.159395	0.000373
 416	4.1292e+01	16.5188	23.431536	0.001064	10.642662	3.605831	0.000426
 417	4.1392e+01	16.5621	23.855435	0.001064	10.642662	3.605831	0.000426
 418	4.1492e+01	16.6054	24.243000	0.000973	9.730433	3.296760	0.000390
 419	4.1591e+01	16.6407	24.646714	0.001014	10.135868	3.434125	0.000406
 420	4.1691e+01	16.6728	25.066576	0.001054	10.541303	3.571490	0.000422
 421	4.1790e+01	16.7225	25.425881	0.000902	9.020923	3.056371	0.000361
 422	4.1889e+01	16.7723	25.861892	0.001095	10.946738	3.708855	0.000438
 423	4.1989e+01	16.7915	26.241382	0.000953	9.527716	3.228078	0.000381
 424	4.2089e+01	16.8428	26.685467	0.001115	11.149455	3.777538	0.000446
 425	4.2188e+01	16.8813	27.077069	0.000983	9.831792	3.331101	0.000394
 426	4.2288e+01	16.9182	27.505006	0.001074	10.744020	3.640173	0.000430
 427	4.2387e+01	16.9551	27.904682	0.001003	10.034509	3.399784	0.000402
 428	4.2486e+01	16.9968	28.284173	0.000953	9.527716	3.228078	0.000381
 429	4.2586e+01	17.0337	28.683849	0.001003	10.034509	3.399784	0.000402
 430	4.2685e+01	17.0931	29.107749	0.001064	10.642662	3.605831	0.000426
 431	4.2785e+01	17.1172	29.563945	0.001145	11.453531	3.880561	0.000458
 432	4.2885e+01	17.1589	29.951510	0.000973	9.730433	3.296760	0.000390
 433	4.2984e+01	17.1942	30.351186	0.001003	10.034509	3.399784	0.000402
 434	4.3084e+01	17.2359	30.779123	0.001074	10.744020	3.640173	0.000430
 435	4.3183e+01	17.2776	31.134391	0.000892	8.919564	3.022030	0.000357
 436	4.3282e+01	17.3225	31.590587	0.001145	11.453531	3.880561	0.000458
 437	4.3382e+01	17.3610	32.014486	0.001064	10.642662	3.605831	0.000426
 438	4.3481e+01	17.4011	32.410126	0.000993	9.933151	3.365443	0.000398
 439	4.3581e+01	17.4316	32.797691	0.000973	9.730433	3.296760	0.000390
 440	4.3681e+01	17.4749	33.253887	0.001145	11.453531	3.880561	0.000458
 441	4.3780e+01	17.5230	33.685861	0.001085	10.845379	3.674514	0.000434
 442	4.3880e+01	17.5599	34.073426	0.000973	9.730433	3.296760	0.000390
 443	4.3979e+01	17.5984	34.541733	0.001176	11.757607	3.983585	0.000471
 444	4.4078e+01	17.6385	34.913150	0.000932	9.324999	3.159395	0.000373
 445	4.4178e+01	17.6786	35.365309	0.001135	11.352172	3.846220	0.000454
 446	4.4278e+01	17.7236	35.773060	0.001024	10.237227	3.468466	0.000410
 447	4.4377e+01	17.7556	36.229256	0.001145	11.453531	3.880561	0.000458
 448	4.4477e+01	17.7877	36.665267	0.001095	10.946738	3.708855	0.000438
 449	4.4576e+01	17.8246	37.081092	0.001044	10.439944	3.537149	0.000418
 450	4.4675e+01	17.8824	37.529214	0.001125	11.250814	3.811879	0.000450
 451	4.4775e+01	17.9145	37.957150	0.001074	10.744020	3.640173	0.000430
 452	4.4874e+01	17.9546	38.413347	0.001145	11.453531	3.880561	0.000458
 453	4.4974e+01	17.9931	38.841283	0.001074	10.744020	3.640173	0.000430
 454	4.5074e+01	18.0412	39.277294	0.001095	10.946738	3.708855	0.000438
 455	4.5173e+01	18.0685	39.725416	0.001125	11.250814	3.811879	0.000450
 456	4.5273e+01	18.1182	40.157389	0.001085	10.845379	3.674514	0.000434
 457	4.5372e+01	18.1487	40.653957	0.001247	12.467118	4.223974	0.000499
 458	4.5471e+01	18.1984	41.061708	0.001024	10.237227	3.468466	0.000410
 459	4.5571e+01	18.2305	41.525978	0.001166	11.656248	3.949244	0.000467
 460	4.5670e+01	18.2754	41.978137	0.001135	11.352172	3.846220	0.000454
 461	4.5770e+01	18.3091	42.434334	0.001145	11.453531	3.880561	0.000458
 462	4.5870e+01	18.3588	42.854196	0.001054	10.541303	3.571490	0.000422
 463	4.5969e+01	18.3893	43.310392	0.001145	11.453531	3.880561	0.000458
 464	4.6069e+01	18.4342	43.758514	0.001125	11.250814	3.811879	0.000450
 465	4.6168e+01	18.4888	44.202599	0.001115	11.149455	3.777538	0.000446
 466	4.6267e+01	18.5193	44.646684	0.001115	11.149455	3.777538	0.000446
 467	4.6367e+01	18.5481	45.139215	0.001237	12.365759	4.189633	0.000495
 468	4.6467e+01	18.5979	45.571188	0.001085	10.845379	3.674514	0.000434
 469	4.6566e+01	18.6348	46.011236	0.001105	11.048096	3.743196	0.000442
 470	4.6666e+01	18.6781	46.487618	0.001196	11.960324	4.052268	0.000479
 471	4.6765e+01	18.7134	46.943814	0.001145	11.453531	3.880561	0.000458
 472	4.6864e+01	18.7615	47.428271	0.001216	12.163042	4.120950	0.000487
 473	4.6964e+01	18.7968	47.864281	0.001095	10.946738	3.708855	0.000438
 474	4.7063e+01	18.8273	48.340663	0.001196	11.960324	4.052268	0.000479
 475	4.7163e+01	18.8738	48.865491	0.001318	13.176629	4.464363	0.000527
 476	4.7263e+01	18.9155	49.273242	0.001024	10.237227	3.468466	0.000410
 477	4.7362e+01	18.9540	49.753661	0.001206	12.061683	4.086609	0.000483
 478	4.7462e+01	18.9957	50.242154	0.001226	12.264400	4.155291	0.000491
 479	4.7561e+01	19.0310	50.742759	0.001257	12.568476	4.258315	0.000503
 480	4.7660e+01	19.0759	51.174733	0.001085	10.845379	3.674514	0.000434
 481	4.7760e+01	19.1144	51.679375	0.001267	12.669835	4.292656	0.000507
 482	4.7859e+01	19.1642	52.167868	0.001226	12.264400	4.155291	0.000491
 483	4.7959e+01	19.1930	52.632139	0.001166	11.656248	3.949244	0.000467
 484	4.8059e+01	19.2444	53.108521	0.001196	11.960324	4.052268	0.000479
 485	4.8158e+01	19.2716	53.617200	0.001277	12.771194	4.326998	0.000511
 486	4.8258e+01	19.3166	54.077433	0.001155	11.554890	3.914903	0.000463
 487	4.8357e+01	19.3503	54.565927	0.001226	12.264400	4.155291	0.000491
 488	4.8456e+01	19.3888	55.046346	0.001206	12.061683	4.086609	0.000483
 489	4.8556e+01	19.4369	55.571173	0.001318	13.176629	4.464363	0.000527
 490	4.8656e+01	19.4722	56.059667	0.001226	12.264400	4.155291	0.000491
 491	4.8755e+01	19.5123	56.544123	0.001216	12.163042	4.120950	0.000487
 492	4.8855e+01	19.5508	57.028579	0.001216	12.163042	4.120950	0.000487
 493	4.8954e+01	19.5925	57.529184	0.001257	12.568476	4.258315	0.000503
 494	4.9053e+01	19.6326	58.078235	0.001378	13.784781	4.670410	0.000552
 495	4.9153e+01	19.6631	58.582877	0.001267	12.669835	4.292656	0.000507
 496	4.9252e+01	19.7160	59.059259	0.001196	11.960324	4.052268	0.000479
 497	4.9352e+01	19.7513	59.576012	0.001297	12.973911	4.395680	0.000519
 498	4.9452e+01	19.8059	60.076617	0.001257	12.568476	4.258315	0.000503
 499	4.9551e+01	19.8347	60.601445	0.001318	13.176629	4.464363	0.000527
 500	4.9651e+01	19.8732	61.065715	0.001166	11.656248	3.949244	0.000467
 501	4.9750e+01	19.9101	61.638988	0.001439	14.392933	4.876458	0.000576
 502	4.9849e+01	19.9599	62.127482	0.001226	12.264400	4.155291	0.000491
 503	4.9949e+01	19.9855	62.684607	0.001399	13.987498	4.739093	0.000560
 504	5.0048e+01	19.9454	62.934909	-0.000628	-6.284238	-2.129158	0.000252
 505	5.0148e+01	19.9149	63.225583	-0.000730	-7.297825	-2.472570	0.000292
 506	5.0248e+01	19.8700	63.496071	-0.000679	-6.791032	-2.300864	0.000272
 507	5.0347e+01	19.8315	63.718113	-0.000557	-5.574727	-1.888769	0.000223
 508	5.0447e+01	19.7882	64.000713	-0.000710	-7.095108	-2.403888	0.000284
 509	5.0546e+01	19.7465	64.267164	-0.000669	-6.689673	-2.266523	0.000268
 510	5.0645e+01	19.7064	64.493243	-0.000568	-5.676086	-1.923110	0.000227
 511	5.0745e+01	19.6599	64.723360	-0.000578	-5.777445	-1.957451	0.000231
 512	5.0844e+01	19.6342	65.001923	-0.000699	-6.993749	-2.369546	0.000280
 513	5.0944e+01	19.5941	65.272411	-0.000679	-6.791032	-2.300864	0.000272
 514	5.1044e+01	19.5412	65.494453	-0.000557	-5.574727	-1.888769	0.000223
 515	5.1143e+01	19.5027	65.760904	-0.000669	-6.689673	-2.266523	0.000268
 516	5.1242e+01	19.4690	65.982947	-0.000557	-5.574727	-1.888769	0.000223
 517	5.1342e+01	19.4305	66.241323	-0.000649	-6.486956	-2.197840	0.000260
 518	5.1441e+01	19.3872	66.467403	-0.000568	-5.676086	-1.923110	0.000227
 519	5.1541e+01	19.3567	66.657148	-0.000476	-4.763858	-1.614039	0.000191
 520	5.1641e+01	19.3085	66.923599	-0.000669	-6.689673	-2.266523	0.000268
 521	5.1740e+01	19.2716	67.165827	-0.000608	-6.081521	-2.060475	0.000243
 522	5.1840e+01	19.2412	67.420167	-0.000639	-6.385597	-2.163499	0.000256
 523	5.1939e+01	19.1979	67.670469	-0.000628	-6.284238	-2.129158	0.000252
 524	5.2038e+01	19.1577	67.904623	-0.000588	-5.878804	-1.991793	0.000235
 525	5.2138e+01	19.1128	68.110517	-0.000517	-5.169293	-1.751404	0.000207
 526	5.2237e+01	19.0791	68.328522	-0.000547	-5.473369	-1.854428	0.000219
 527	5.2337e+01	19.0326	68.578825	-0.000628	-6.284238	-2.129158	0.000252
 528	5.2437e+01	18.9909	68.804904	-0.000568	-5.676086	-1.923110	0.000227
 529	5.2536e+01	18.9524	69.018873	-0.000537	-5.372010	-1.820086	0.000215
 530	5.2636e+01	18.9187	69.224767	-0.000517	-5.169293	-1.751404	0.000207
 531	5.2735e+01	18.8754	69.438735	-0.000537	-5.372010	-1.820086	0.000215
 532	5.2834e+01	18.8369	69.656740	-0.000547	-5.473369	-1.854428	0.000219
 533	5.2934e+01	18.7920	69.834374	-0.000446	-4.459782	-1.511015	0.000179
 534	5.3033e+01	18.7567	70.076602	-0.000608	-6.081521	-2.060475	0.000243
 535	5.3133e+01	18.7166	70.290570	-0.000537	-5.372010	-1.820086	0.000215
 536	5.3233e+01	18.6717	70.472241	-0.000456	-4.561141	-1.545356	0.000183
 537	5.3332e+01	18.6348	70.670061	-0.000497	-4.966575	-1.682721	0.000199
 538	5.3431e+01	18.5947	70.835584	-0.000416	-4.155706	-1.407991	0.000166
 539	5.3531e+01	18.5530	71.085886	-0.000628	-6.284238	-2.129158	0.000252
 540	5.3630e+01	18.5145	71.255446	-0.000426	-4.257065	-1.442333	0.000170
 541	5.3730e+01	18.4711	71.477488	-0.000557	-5.574727	-1.888769	0.000223
 542	5.3830e+01	18.4358	71.663196	-0.000466	-4.662499	-1.579698	0.000187
 543	5.3929e+01	18.4022	71.885239	-0.000557	-5.574727	-1.888769	0.000223
 544	5.4029e+01	18.3572	72.018464	-0.000334	-3.344836	-1.133261	0.000134
 545	5.4128e+01	18.3171	72.248581	-0.000578	-5.777445	-1.957451	0.000231
 546	5.4227e+01	18.2770	72.486772	-0.000598	-5.980162	-2.026134	0.000239
 547	5.4327e+01	18.2369	72.636146	-0.000375	-3.750271	-1.270626	0.000150
 548	5.4426e+01	18.2016	72.801669	-0.000416	-4.155706	-1.407991	0.000166
 549	5.4526e+01	18.1583	73.011600	-0.000527	-5.270651	-1.785745	0.000211
 550	5.4626e+01	18.1198	73.181160	-0.000426	-4.257065	-1.442333	0.000170
 551	5.4725e+01	18.0701	73.370905	-0.000476	-4.763858	-1.614039	0.000191
 552	5.4825e+01	18.0460	73.540465	-0.000426	-4.257065	-1.442333	0.000170
 553	5.4924e+01	17.9915	73.726173	-0.000466	-4.662499	-1.579698	0.000187
 554	5.5023e+01	17.9610	73.907844	-0.000456	-4.561141	-1.545356	0.000183
 555	5.5123e+01	17.9177	74.093552	-0.000466	-4.662499	-1.579698	0.000187
 556	5.5222e+01	17.8776	74.255038	-0.000405	-4.054347	-1.373650	0.000162
 557	5.5322e+01	17.8343	74.464969	-0.000527	-5.270651	-1.785745	0.000211
 558	5.5422e+01	17.8006	74.578008	-0.000284	-2.838043	-0.961555	0.000114
 559	5.5521e+01	17.7637	74.791977	-0.000537	-5.372010	-1.820086	0.000215
 560	5.5620e+01	17.7155	74.941351	-0.000375	-3.750271	-1.270626	0.000150
 561	5.5720e+01	17.6819	75.123022	-0.000456	-4.561141	-1.545356	0.000183
 562	5.5819e+01	17.6305	75.272396	-0.000375	-3.750271	-1.270626	0.000150
 563	5.5919e+01	17.6016	75.381399	-0.000274	-2.736684	-0.927214	0.000110
 564	5.6019e+01	17.5519	75.579218	-0.000497	-4.966575	-1.682721	0.000199
 565	5.6118e+01	17.5150	75.736666	-0.000395	-3.952989	-1.339309	0.000158
 566	5.6218e+01	17.4861	75.930449	-0.000487	-4.865217	-1.648380	0.000195
 567	5.6317e+01	17.4412	76.071749	-0.000355	-3.547554	-1.201944	0.000142
 568	5.6416e+01	17.4011	76.221123	-0.000375	-3.750271	-1.270626	0.000150
 569	5.6516e+01	17.3530	76.374534	-0.000385	-3.851630	-1.304968	0.000154
 570	5.6615e+01	17.3081	76.531982	-0.000395	-3.952989	-1.339309	0.000158
 571	5.6715e+01	17.2776	76.640985	-0.000274	-2.736684	-0.927214	0.000110
 572	5.6815e+01	17.2311	76.826693	-0.000466	-4.662499	-1.579698	0.000187
 573	5.6914e+01	17.1910	76.963956	-0.000345	-3.446195	-1.167603	0.000138
 574	5.7014e+01	17.1573	77.109293	-0.000365	-3.648913	-1.236285	0.000146
 575	5.7113e+01	17.1172	77.250592	-0.000355	-3.547554	-1.201944	0.000142
 576	5.7212e+01	17.0706	77.391892	-0.000355	-3.547554	-1.201944	0.000142
 577	5.7312e+01	17.0370	77.581637	-0.000476	-4.763858	-1.614039	0.000191
 578	5.7411e+01	17.0049	77.678529	-0.000243	-2.432608	-0.824190	0.000097
 579	5.7511e+01	16.9551	77.827903	-0.000375	-3.750271	-1.270626	0.000150
 580	5.7611e+01	16.9231	77.977277	-0.000375	-3.750271	-1.270626	0.000150
 581	5.7710e+01	16.8797	78.118577	-0.000355	-3.547554	-1.201944	0.000142
 582	5.7809e+01	16.8380	78.247765	-0.000324	-3.243478	-1.098920	0.000130
 583	5.7909e+01	16.8043	78.372916	-0.000314	-3.142119	-1.064579	0.000126
 584	5.8008e+01	16.7578	78.498067	-0.000314	-3.142119	-1.064579	0.000126
 585	5.8108e+01	16.7113	78.594959	-0.000243	-2.432608	-0.824190	0.000097
 586	5.8208e+01	16.6792	78.687813	-0.000233	-2.331250	-0.789849	0.000093
 587	5.8307e+01	16.6359	78.849298	-0.000405	-4.054347	-1.373650	0.000162
 588	5.8407e+01	16.6070	78.962338	-0.000284	-2.838043	-0.961555	0.000114
 589	5.8506e+01	16.5573	79.103638	-0.000355	-3.547554	-1.201944	0.000142
 590	5.8605e+01	16.5268	79.200529	-0.000243	-2.432608	-0.824190	0.000097
 591	5.8705e+01	16.4787	79.370089	-0.000426	-4.257065	-1.442333	0.000170
 592	5.8804e+01	16.4450	79.438720	-0.000172	-1.723098	-0.583801	0.000069
 593	5.8904e+01	16.4033	79.539648	-0.000253	-2.533967	-0.858531	0.000101
 594	5.9004e+01	16.3664	79.620391	-0.000203	-2.027174	-0.686825	0.000081
 595	5.9103e+01	16.3279	79.745542	-0.000314	-3.142119	-1.064579	0.000126
 596	5.9203e+01	16.2765	79.862619	-0.000294	-2.939402	-0.995896	0.000118
 597	5.9302e+01	16.2396	79.959510	-0.000243	-2.432608	-0.824190	0.000097
 598	5.9401e+01	16.1979	80.084662	-0.000314	-3.142119	-1.064579	0.000126
 599	5.9501e+01	16.1642	80.181553	-0.000243	-2.432608	-0.824190	0.000097
 600	5.9600e+01	16.1241	80.347075	-0.000416	-4.155706	-1.407991	0.000166
 601	5.9700e+01	16.0905	80.443967	-0.000243	-2.432608	-0.824190	0.000097
 602	5.9800e+01	16.0455	80.577192	-0.000334	-3.344836	-1.133261	0.000134
 603	5.9899e+01	15.9990	80.637749	-0.000152	-1.520380	-0.515119	0.000061
 604	5.9998e+01	15.9573	80.754826	-0.000294	-2.939402	-0.995896	0.000118
 605	6.0098e+01	15.9284	80.875940	-0.000304	-3.040760	-1.030238	0.000122
 606	6.0197e+01	15.8819	80.968794	-0.000233	-2.331250	-0.789849	0.000093
 607	6.0297e+01	15.8482	81.097983	-0.000324	-3.243478	-1.098920	0.000130
 608	6.0397e+01	15.8033	81.162577	-0.000162	-1.621739	-0.549460	0.000065
 609	6.0496e+01	15.7648	81.315988	-0.000385	-3.851630	-1.304968	0.000154
 610	6.0596e+01	15.7295	81.392694	-0.000193	-1.925815	-0.652484	0.000077
 611	6.0695e+01	15.6958	81.465362	-0.000182	-1.824456	-0.618143	0.000073
 612	6.0794e+01	15.6445	81.606662	-0.000355	-3.547554	-1.201944	0.000142
 613	6.0894e+01	15.5996	81.695479	-0.000223	-2.229891	-0.755508	0.000089
 614	6.0993e+01	15.5659	81.743924	-0.000122	-1.216304	-0.412095	0.000049
 615	6.1093e+01	15.5290	81.848890	-0.000264	-2.635326	-0.892873	0.000105
 616	6.1193e+01	15.4808	81.965967	-0.000294	-2.939402	-0.995896	0.000118
 617	6.1292e+01	15.4472	82.070932	-0.000264	-2.635326	-0.892873	0.000105
 618	6.1392e+01	15.4087	82.151675	-0.000203	-2.027174	-0.686825	0.000081
 619	6.1491e+01	15.3669	82.232418	-0.000203	-2.027174	-0.686825	0.000081
 620	6.1590e+01	15.3220	82.325272	-0.000233	-2.331250	-0.789849	0.000093
 621	6.1690e+01	15.2739	82.377755	-0.000132	-1.317663	-0.446436	0.000053
 622	6.1789e+01	15.2466	82.482720	-0.000264	-2.635326	-0.892873	0.000105
 623	6.1889e+01	15.2081	82.531166	-0.000122	-1.216304	-0.412095	0.000049
 624	6.1989e+01	15.1600	82.624020	-0.000233	-2.331250	-0.789849	0.000093
 625	6.2088e+01	15.1311	82.672466	-0.000122	-1.216304	-0.412095	0.000049
 626	6.2188e+01	15.0830	82.773394	-0.000253	-2.533967	-0.858531	0.000101
 627	6.2287e+01	15.0461	82.858174	-0.000213	-2.128532	-0.721166	0.000085
 628	6.2386e+01	15.0188	82.946991	-0.000223	-2.229891	-0.755508	0.000089
 629	6.2486e+01	14.9579	82.955065	-0.000020	-0.202717	-0.068683	0.000008
 630	6.2586e+01	14.9258	83.047919	-0.000233	-2.331250	-0.789849	0.000093
 631	6.2685e+01	14.8921	83.092328	-0.000111	-1.114945	-0.377754	0.000045
 632	6.2785e+01	14.8440	83.169033	-0.000193	-1.925815	-0.652484	0.000077
 633	6.2884e+01	14.8103	83.245739	-0.000193	-1.925815	-0.652484	0.000077
 634	6.2983e+01	14.7622	83.306296	-0.000152	-1.520380	-0.515119	0.000061
 635	6.3083e+01	14.7301	83.334556	-0.000071	-0.709511	-0.240389	0.000028
 636	6.3182e+01	14.6835	83.419336	-0.000213	-2.128532	-0.721166	0.000085
 637	6.3282e+01	14.6515	83.475856	-0.000142	-1.419022	-0.480778	0.000057
 638	6.3382e+01	14.6114	83.508153	-0.000081	-0.810869	-0.274730	0.000032
 639	6.3481e+01	14.5680	83.580821	-0.000182	-1.824456	-0.618143	0.000073
 640	6.3581e+01	14.5279	83.621193	-0.000101	-1.013587	-0.343413	0.000041
 641	6.3680e+01	14.4942	83.685787	-0.000162	-1.621739	-0.549460	0.000065
 642	6.3779e+01	14.4509	83.714047	-0.000071	-0.709511	-0.240389	0.000028
 643	6.3879e+01	14.4188	83.766529	-0.000132	-1.317663	-0.446436	0.000053
 644	6.3978e+01	14.3707	83.794789	-0.000071	-0.709511	-0.240389	0.000028
 645	6.4078e+01	14.3354	83.879569	-0.000213	-2.128532	-0.721166	0.000085
 646	6.4177e+01	14.2857	83.915903	-0.000091	-0.912228	-0.309071	0.000037
 647	6.4277e+01	14.2552	83.960312	-0.000111	-1.114945	-0.377754	0.000045
 648	6.4376e+01	14.2087	83.996646	-0.000091	-0.912228	-0.309071	0.000037
 649	6.4476e+01	14.1734	84.037018	-0.000101	-1.013587	-0.343413	0.000041
 650	6.4576e+01	14.1253	84.085463	-0.000122	-1.216304	-0.412095	0.000049
 651	6.4675e+01	14.0884	84.113723	-0.000071	-0.709511	-0.240389	0.000028
 652	6.4775e+01	14.0451	84.150057	-0.000091	-0.912228	-0.309071	0.000037
 653	6.4874e+01	14.0146	84.182354	-0.000081	-0.810869	-0.274730	0.000032
 654	6.4974e+01	13.9648	84.210614	-0.000071	-0.709511	-0.240389	0.000028
 655	6.5073e+01	13.9360	84.259060	-0.000122	-1.216304	-0.412095	0.000049
 656	6.5172e+01	13.8911	84.319617	-0.000152	-1.520380	-0.515119	0.000061
 657	6.5272e+01	13.8526	84.319617	-0.000000	-0.000000	-0.000000	0.000000
 658	6.5371e+01	13.8092	84.368063	-0.000122	-1.216304	-0.412095	0.000049
 659	6.5471e+01	13.7691	84.396323	-0.000071	-0.709511	-0.240389	0.000028
 660	6.5570e+01	13.7322	84.404397	-0.000020	-0.202717	-0.068683	0.000008
 661	6.5670e+01	13.6953	84.432657	-0.000071	-0.709511	-0.240389	0.000028
 662	6.5769e+01	13.6456	84.481102	-0.000122	-1.216304	-0.412095	0.000049
 663	6.5869e+01	13.6183	84.481102	-0.000000	-0.000000	-0.000000	0.000000
 664	6.5969e+01	13.5686	84.521474	-0.000101	-1.013587	-0.343413	0.000041
 665	6.6068e+01	13.5253	84.533585	-0.000030	-0.304076	-0.103024	0.000012
 666	6.6168e+01	13.4916	84.582031	-0.000122	-1.216304	-0.412095	0.000049
 667	6.6267e+01	13.4515	84.590105	-0.000020	-0.202717	-0.068683	0.000008
 668	6.6367e+01	13.4098	84.618365	-0.000071	-0.709511	-0.240389	0.000028
 669	6.6466e+01	13.3681	84.602217	0.000041	0.405435	0.137365	-0.000016
 670	6.6566e+01	13.3376	84.622402	-0.000051	-0.506793	-0.171706	0.000020
 671	6.6665e+01	13.2895	84.691034	-0.000172	-1.723098	-0.583801	0.000069
 672	6.6764e+01	13.2558	84.674885	0.000041	0.405435	0.137365	-0.000016
 673	6.6864e+01	13.2125	84.695071	-0.000051	-0.506793	-0.171706	0.000020
 674	6.6963e+01	13.1772	84.674885	0.000051	0.506793	0.171706	-0.000020
 675	6.7063e+01	13.1355	84.703145	-0.000071	-0.709511	-0.240389	0.000028
 676	6.7162e+01	13.0954	84.715256	-0.000030	-0.304076	-0.103024	0.000012
 677	6.7262e+01	13.0585	84.707182	0.000020	0.202717	0.068683	-0.000008
 678	6.7362e+01	13.0119	84.743516	-0.000091	-0.912228	-0.309071	0.000037
 679	6.7461e+01	12.9766	84.711219	0.000081	0.810869	0.274730	-0.000032
 680	6.7561e+01	12.9381	84.751591	-0.000101	-1.013587	-0.343413	0.000041
 681	6.7660e+01	12.8932	84.747553	0.000010	0.101359	0.034341	-0.000004
 682	6.7760e+01	12.8579	84.751591	-0.000010	-0.101359	-0.034341	0.000004
 683	6.7859e+01	12.8162	84.711219	0.000101	1.013587	0.343413	-0.000041
 684	6.7959e+01	12.7793	84.739479	-0.000071	-0.709511	-0.240389	0.000028
 685	6.8058e+01	12.7376	84.739479	-0.000000	-0.000000	-0.000000	0.000000
 686	6.8157e+01	12.6943	84.707182	0.000081	0.810869	0.274730	-0.000032
 687	6.8257e+01	12.6622	84.747553	-0.000101	-1.013587	-0.343413	0.000041
 688	6.8356e+01	12.6109	84.711219	0.000091	0.912228	0.309071	-0.000037
 689	6.8456e+01	12.5852	84.715256	-0.000010	-0.101359	-0.034341	0.000004
 690	6.8555e+01	12.5339	84.715256	-0.000000	-0.000000	-0.000000	0.000000
 691	6.8655e+01	12.4954	84.703145	0.000030	0.304076	0.103024	-0.000012
 692	6.8754e+01	12.4601	84.711219	-0.000020	-0.202717	-0.068683	0.000008
 693	6.8854e+01	12.4168	84.707182	0.000010	0.101359	0.034341	-0.000004
 694	6.8954e+01	12.3815	84.658736	0.000122	1.216304	0.412095	-0.000049
 695	6.9053e+01	12.3446	84.666811	-0.000020	-0.202717	-0.068683	0.000008
 696	6.9153e+01	12.2980	84.622402	0.000111	1.114945	0.377754	-0.000045
 697	6.9252e+01	12.2531	84.626439	-0.000010	-0.101359	-0.034341	0.000004
 698	6.9352e+01	12.2226	84.590105	0.000091	0.912228	0.309071	-0.000037
 699	6.9451e+01	12.1777	84.594142	-0.000010	-0.101359	-0.034341	0.000004
 700	6.9550e+01	12.1344	84.565882	0.000071	0.709511	0.240389	-0.000028
 701	6.9650e+01	12.0959	84.549734	0.000041	0.405435	0.137365	-0.000016
 702	6.9749e+01	12.0558	84.509362	0.000101	1.013587	0.343413	-0.000041
 703	6.9849e+01	12.0285	84.521474	-0.000030	-0.304076	-0.103024	0.000012
 704	6.9948e+01	11.9820	84.497251	0.000061	0.608152	0.206048	-0.000024
 705	7.0048e+01	11.9451	84.440731	0.000142	1.419022	0.480778	-0.000057
 706	7.0147e+01	11.9002	84.408434	0.000081	0.810869	0.274730	-0.000032
 707	7.0247e+01	11.8649	84.420545	-0.000030	-0.304076	-0.103024	0.000012
 708	7.0347e+01	11.8280	84.359988	0.000152	1.520380	0.515119	-0.000061
 709	7.0446e+01	11.7799	84.368063	-0.000020	-0.202717	-0.068683	0.000008
 710	7.0546e+01	11.7414	84.327691	0.000101	1.013587	0.343413	-0.000041
 711	7.0645e+01	11.7045	84.303468	0.000061	0.608152	0.206048	-0.000024
 712	7.0745e+01	11.6564	84.279246	0.000061	0.608152	0.206048	-0.000024
 713	7.0844e+01	11.6162	84.271171	0.000020	0.202717	0.068683	-0.000008
 714	7.0944e+01	11.5842	84.234837	0.000091	0.912228	0.309071	-0.000037
 715	7.1043e+01	11.5425	84.214651	0.000051	0.506793	0.171706	-0.000020
 716	7.1142e+01	11.4911	84.166206	0.000122	1.216304	0.412095	-0.000049
 717	7.1242e+01	11.4671	84.125835	0.000101	1.013587	0.343413	-0.000041
 718	7.1341e+01	11.4318	84.085463	0.000101	1.013587	0.343413	-0.000041
 719	7.1441e+01	11.3852	84.053166	0.000081	0.810869	0.274730	-0.000032
 720	7.1540e+01	11.3548	84.020869	0.000081	0.810869	0.274730	-0.000032
 721	7.1640e+01	11.2970	83.976460	0.000111	1.114945	0.377754	-0.000045
 722	7.1740e+01	11.2665	83.907829	0.000172	1.723098	0.583801	-0.000069
 723	7.1839e+01	11.2168	83.899755	0.000020	0.202717	0.068683	-0.000008
 724	7.1939e+01	11.1831	83.827086	0.000182	1.824456	0.618143	-0.000073
 725	7.2038e+01	11.1478	83.814975	0.000030	0.304076	0.103024	-0.000012
 726	7.2138e+01	11.1013	83.766529	0.000122	1.216304	0.412095	-0.000049
 727	7.2237e+01	11.0660	83.750381	0.000041	0.405435	0.137365	-0.000016
 728	7.2337e+01	11.0227	83.710010	0.000101	1.013587	0.343413	-0.000041
 729	7.2436e+01	10.9858	83.665601	0.000111	1.114945	0.377754	-0.000045
 730	7.2535e+01	10.9441	83.592933	0.000182	1.824456	0.618143	-0.000073
 731	7.2635e+01	10.8992	83.520264	0.000182	1.824456	0.618143	-0.000073
 732	7.2734e+01	10.8623	83.475856	0.000111	1.114945	0.377754	-0.000045
 733	7.2834e+01	10.8318	83.435484	0.000101	1.013587	0.343413	-0.000041
 734	7.2933e+01	10.7869	83.399150	0.000091	0.912228	0.309071	-0.000037
 735	7.3033e+01	10.7452	83.334556	0.000162	1.621739	0.549460	-0.000065
 736	7.3132e+01	10.7050	83.290147	0.000111	1.114945	0.377754	-0.000045
 737	7.3232e+01	10.6665	83.245739	0.000111	1.114945	0.377754	-0.000045
 738	7.3332e+01	10.6264	83.132699	0.000284	2.838043	0.961555	-0.000114
 739	7.3431e+01	10.5831	83.120588	0.000030	0.304076	0.103024	-0.000012
 740	7.3531e+01	10.5446	83.051956	0.000172	1.723098	0.583801	-0.000069
 741	7.3630e+01	10.5061	82.987362	0.000162	1.621739	0.549460	-0.000065
 742	7.3730e+01	10.4644	82.934879	0.000132	1.317663	0.446436	-0.000053
 743	7.3829e+01	10.4243	82.846062	0.000223	2.229891	0.755508	-0.000089
 744	7.3928e+01	10.3890	82.837988	0.000020	0.202717	0.068683	-0.000008
 745	7.4028e+01	10.3505	82.737060	0.000253	2.533967	0.858531	-0.000101
 746	7.4127e+01	10.3120	82.656317	0.000203	2.027174	0.686825	-0.000081
 747	7.4227e+01	10.2719	82.656317	-0.000000	-0.000000	-0.000000	0.000000
 748	7.4326e+01	10.2254	82.547314	0.000274	2.736684	0.927214	-0.000110
 749	7.4426e+01	10.1821	82.482720	0.000162	1.621739	0.549460	-0.000065
 750	7.4525e+01	10.1452	82.410052	0.000182	1.824456	0.618143	-0.000073
 751	7.4625e+01	10.1115	82.349495	0.000152	1.520380	0.515119	-0.000061
 752	7.4725e+01	10.0666	82.256641	0.000233	2.331250	0.789849	-0.000093
 753	7.4824e+01	10.0393	82.212232	0.000111	1.114945	0.377754	-0.000045
 754	7.4924e+01	9.9912	82.135527	0.000193	1.925815	0.652484	-0.000077
 755	7.5023e+01	9.9462	82.054784	0.000203	2.027174	0.686825	-0.000081
 756	7.5123e+01	9.9077	81.994227	0.000152	1.520380	0.515119	-0.000061
 757	7.5222e+01	9.8612	81.929633	0.000162	1.621739	0.549460	-0.000065
 758	7.5322e+01	9.8275	81.836779	0.000233	2.331250	0.789849	-0.000093
 759	7.5421e+01	9.7922	81.731813	0.000264	2.635326	0.892873	-0.000105
 760	7.5520e+01	9.7473	81.715664	0.000041	0.405435	0.137365	-0.000016
 761	7.5620e+01	9.7088	81.594550	0.000304	3.040760	1.030238	-0.000122
 762	7.5719e+01	9.6671	81.546105	0.000122	1.216304	0.412095	-0.000049
 763	7.5819e+01	9.6270	81.465362	0.000203	2.027174	0.686825	-0.000081
 764	7.5918e+01	9.5885	81.404805	0.000152	1.520380	0.515119	-0.000061
 765	7.6018e+01	9.5548	81.336174	0.000172	1.723098	0.583801	-0.000069
 766	7.6118e+01	9.5003	81.227171	0.000274	2.736684	0.927214	-0.000110
 767	7.6217e+01	9.4730	81.158540	0.000172	1.723098	0.583801	-0.000069
 768	7.6317e+01	9.4313	81.081834	0.000193	1.925815	0.652484	-0.000077
 769	7.6416e+01	9.3848	80.960720	0.000304	3.040760	1.030238	-0.000122
 770	7.6516e+01	9.3559	80.888052	0.000182	1.824456	0.618143	-0.000073
 771	7.6615e+01	9.3094	80.811346	0.000193	1.925815	0.652484	-0.000077
 772	7.6715e+01	9.2725	80.710418	0.000253	2.533967	0.858531	-0.000101
 773	7.6814e+01	9.2340	80.625638	0.000213	2.128532	0.721166	-0.000085
 774	7.6913e+01	9.1890	80.544895	0.000203	2.027174	0.686825	-0.000081
 775	7.7013e+01	9.1586	80.468190	0.000193	1.925815	0.652484	-0.000077
 776	7.7112e+01	9.1136	80.367261	0.000253	2.533967	0.858531	-0.000101
 777	7.7212e+01	9.0735	80.294593	0.000182	1.824456	0.618143	-0.000073
 778	7.7311e+01	9.0302	80.205776	0.000223	2.229891	0.755508	-0.000089
 779	7.7411e+01	8.9949	80.104847	0.000253	2.533967	0.858531	-0.000101
 780	7.7510e+01	8.9452	79.987770	0.000294	2.939402	0.995896	-0.000118
 781	7.7610e+01	8.9115	79.919139	0.000172	1.723098	0.583801	-0.000069
 782	7.7710e+01	8.8746	79.822248	0.000243	2.432608	0.824190	-0.000097
 783	7.7809e+01	8.8297	79.705171	0.000294	2.939402	0.995896	-0.000118
 784	7.7909e+01	8.7960	79.632502	0.000182	1.824456	0.618143	-0.000073
 785	7.8008e+01	8.7607	79.543685	0.000223	2.229891	0.755508	-0.000089
 786	7.8108e+01	8.7190	79.462943	0.000203	2.027174	0.686825	-0.000081
 787	7.8207e+01	8.6805	79.333754	0.000324	3.243478	1.098920	-0.000130
 788	7.8306e+01	8.6308	79.257049	0.000193	1.925815	0.652484	-0.000077
 789	7.8406e+01	8.5971	79.127860	0.000324	3.243478	1.098920	-0.000130
 790	7.8505e+01	8.5586	79.047118	0.000203	2.027174	0.686825	-0.000081
 791	7.8605e+01	8.5056	78.909855	0.000345	3.446195	1.167603	-0.000138
 792	7.8704e+01	8.4736	78.804890	0.000264	2.635326	0.892873	-0.000105
 793	7.8804e+01	8.4351	78.703961	0.000253	2.533967	0.858531	-0.000101
 794	7.8903e+01	8.3950	78.615144	0.000223	2.229891	0.755508	-0.000089
 795	7.9003e+01	8.3564	78.502104	0.000284	2.838043	0.961555	-0.000114
 796	7.9103e+01	8.3163	78.385027	0.000294	2.939402	0.995896	-0.000118
 797	7.9202e+01	8.2778	78.292173	0.000233	2.331250	0.789849	-0.000093
 798	7.9302e+01	8.2217	78.199319	0.000233	2.331250	0.789849	-0.000093
 799	7.9401e+01	8.1976	78.066094	0.000334	3.344836	1.133261	-0.000134
 800	7.9501e+01	8.1559	77.949017	0.000294	2.939402	0.995896	-0.000118
 801	7.9600e+01	8.1158	77.868274	0.000203	2.027174	0.686825	-0.000081
 802	7.9700e+01	8.0741	77.702752	0.000416	4.155706	1.407991	-0.000166
 803	7.9799e+01	8.0372	77.622009	0.000203	2.027174	0.686825	-0.000081
 804	7.9898e+01	8.0083	77.500895	0.000304	3.040760	1.030238	-0.000122
 805	7.9998e+01	7.9634	77.387855	0.000284	2.838043	0.961555	-0.000114
 806	8.0097e+01	7.9105	77.238481	0.000375	3.750271	1.270626	-0.000150
 807	8.0197e+01	7.8623	77.145627	0.000233	2.331250	0.789849	-0.000093
 808	8.0296e+01	7.8303	76.988179	0.000395	3.952989	1.339309	-0.000158
 809	8.0396e+01	7.7998	76.887250	0.000253	2.533967	0.858531	-0.000101
 810	8.0496e+01	7.7468	76.774210	0.000284	2.838043	0.961555	-0.000114
 811	8.0595e+01	7.7260	76.640985	0.000334	3.344836	1.133261	-0.000134
 812	8.0695e+01	7.6763	76.556205	0.000213	2.128532	0.721166	-0.000085
 813	8.0794e+01	7.6474	76.394720	0.000405	4.054347	1.373650	-0.000162
 814	8.0894e+01	7.5960	76.305903	0.000223	2.229891	0.755508	-0.000089
 815	8.0993e+01	7.5640	76.132306	0.000436	4.358423	1.476674	-0.000174
 816	8.1093e+01	7.5190	76.035414	0.000243	2.432608	0.824190	-0.000097
 817	8.1192e+01	7.4789	75.958709	0.000193	1.925815	0.652484	-0.000077
 818	8.1291e+01	7.4388	75.809335	0.000375	3.750271	1.270626	-0.000150
 819	8.1391e+01	7.3923	75.659961	0.000375	3.750271	1.270626	-0.000150
 820	8.1490e+01	7.3634	75.550958	0.000274	2.736684	0.927214	-0.000110
 821	8.1590e+01	7.3153	75.417733	0.000334	3.344836	1.133261	-0.000134
 822	8.1689e+01	7.2816	75.236062	0.000456	4.561141	1.545356	-0.000183
 823	8.1789e+01	7.2351	75.163393	0.000182	1.824456	0.618143	-0.000073
 824	8.1888e+01	7.1998	75.005945	0.000395	3.952989	1.339309	-0.000158
 825	8.1988e+01	7.1597	74.909054	0.000243	2.432608	0.824190	-0.000097
 826	8.2088e+01	7.1132	74.767754	0.000355	3.547554	1.201944	-0.000142
 827	8.2187e+01	7.0715	74.626454	0.000355	3.547554	1.201944	-0.000142
 828	8.2287e+01	7.0426	74.481117	0.000365	3.648913	1.236285	-0.000146
 829	8.2386e+01	6.9929	74.372115	0.000274	2.736684	0.927214	-0.000110
 830	8.2486e+01	6.9592	74.230815	0.000355	3.547554	1.201944	-0.000142
 831	8.2585e+01	6.9287	74.069329	0.000405	4.054347	1.373650	-0.000162
 832	8.2684e+01	6.8773	73.915918	0.000385	3.851630	1.304968	-0.000154
 833	8.2784e+01	6.8356	73.790767	0.000314	3.142119	1.064579	-0.000126
 834	8.2883e+01	6.8019	73.693876	0.000243	2.432608	0.824190	-0.000097
 835	8.2983e+01	6.7586	73.524316	0.000426	4.257065	1.442333	-0.000170
 836	8.3082e+01	6.7217	73.366868	0.000395	3.952989	1.339309	-0.000158
 837	8.3182e+01	6.6784	73.209419	0.000395	3.952989	1.339309	-0.000158
 838	8.3281e+01	6.6463	73.080231	0.000324	3.243478	1.098920	-0.000130
 839	8.3381e+01	6.6030	72.914709	0.000416	4.155706	1.407991	-0.000166
 840	8.3481e+01	6.5597	72.773409	0.000355	3.547554	1.201944	-0.000142
 841	8.3580e+01	6.5196	72.676518	0.000243	2.432608	0.824190	-0.000097
 842	8.3680e+01	6.4859	72.470624	0.000517	5.169293	1.751404	-0.000207
 843	8.3779e+01	6.4394	72.361621	0.000274	2.736684	0.927214	-0.000110
 844	8.3879e+01	6.3993	72.252618	0.000274	2.736684	0.927214	-0.000110
 845	8.3978e+01	6.3704	72.062873	0.000476	4.763858	1.614039	-0.000191
 846	8.4078e+01	6.3223	71.893313	0.000426	4.257065	1.442333	-0.000170
 847	8.4177e+01	6.2838	71.723754	0.000426	4.257065	1.442333	-0.000170
 848	8.4276e+01	6.2485	71.610714	0.000284	2.838043	0.961555	-0.000114
 849	8.4376e+01	6.2004	71.449228	0.000405	4.054347	1.373650	-0.000162
 850	8.4475e+01	6.1635	71.279669	0.000426	4.257065	1.442333	-0.000170
 851	8.4575e+01	6.1282	71.130295	0.000375	3.750271	1.270626	-0.000150
 852	8.4674e+01	6.0816	71.001106	0.000324	3.243478	1.098920	-0.000130
 853	8.4774e+01	6.0447	70.839621	0.000405	4.054347	1.373650	-0.000162
 854	8.4874e+01	6.0062	70.694284	0.000365	3.648913	1.236285	-0.000146
 855	8.4973e+01	5.9629	70.500501	0.000487	4.865217	1.648380	-0.000195
 856	8.5073e+01	5.9260	70.375350	0.000314	3.142119	1.064579	-0.000126
 857	8.5172e+01	5.8859	70.221939	0.000385	3.851630	1.304968	-0.000154
 858	8.5272e+01	5.8346	70.060454	0.000405	4.054347	1.373650	-0.000162
 859	8.5371e+01	5.8025	69.894931	0.000416	4.155706	1.407991	-0.000166
 860	8.5471e+01	5.7688	69.733446	0.000405	4.054347	1.373650	-0.000162
 861	8.5570e+01	5.7287	69.580034	0.000385	3.851630	1.304968	-0.000154
 862	8.5669e+01	5.6822	69.394326	0.000466	4.662499	1.579698	-0.000187
 863	8.5769e+01	5.6389	69.228804	0.000416	4.155706	1.407991	-0.000166
 864	8.5868e+01	5.6052	69.059244	0.000426	4.257065	1.442333	-0.000170
 865	8.5968e+01	5.5619	68.901796	0.000395	3.952989	1.339309	-0.000158
 866	8.6067e+01	5.5266	68.736273	0.000416	4.155706	1.407991	-0.000166
 867	8.6167e+01	5.4849	68.570751	0.000416	4.155706	1.407991	-0.000166
 868	8.6266e+01	5.4432	68.413302	0.000395	3.952989	1.339309	-0.000158
 869	8.6366e+01	5.4159	68.231631	0.000456	4.561141	1.545356	-0.000183
 870	8.6466e+01	5.3630	68.074183	0.000395	3.952989	1.339309	-0.000158
 871	8.6565e+01	5.3261	67.928846	0.000365	3.648913	1.236285	-0.000146
 872	8.6665e+01	5.2795	67.718915	0.000527	5.270651	1.785745	-0.000211
 873	8.6764e+01	5.2555	67.565504	0.000385	3.851630	1.304968	-0.000154
 874	8.6864e+01	5.2073	67.387870	0.000446	4.459782	1.511015	-0.000179
 875	8.6963e+01	5.1688	67.214273	0.000436	4.358423	1.476674	-0.000174
 876	8.7063e+01	5.1303	67.036639	0.000446	4.459782	1.511015	-0.000179
 877	8.7162e+01	5.0806	66.850931	0.000466	4.662499	1.579698	-0.000187
 878	8.7261e+01	5.0565	66.693482	0.000395	3.952989	1.339309	-0.000158
 879	8.7361e+01	5.0084	66.527960	0.000416	4.155706	1.407991	-0.000166
 880	8.7460e+01	4.9651	66.334177	0.000487	4.865217	1.648380	-0.000195
 881	8.7560e+01	4.9282	66.160580	0.000436	4.358423	1.476674	-0.000174
 882	8.7659e+01	4.8945	66.043504	0.000294	2.939402	0.995896	-0.000118
 883	8.7759e+01	4.8576	65.833572	0.000527	5.270651	1.785745	-0.000211
 884	8.7859e+01	4.8127	65.664013	0.000426	4.257065	1.442333	-0.000170
 885	8.7958e+01	4.7726	65.441970	0.000557	5.574727	1.888769	-0.000223
 886	8.8058e+01	4.7261	65.324893	0.000294	2.939402	0.995896	-0.000118
 887	8.8157e+01	4.6956	65.127074	0.000497	4.966575	1.682721	-0.000199
 888	8.8257e+01	4.6507	64.961551	0.000416	4.155706	1.407991	-0.000166
 889	8.8356e+01	4.6154	64.771806	0.000476	4.763858	1.614039	-0.000191
 890	8.8456e+01	4.5753	64.586098	0.000466	4.662499	1.579698	-0.000187
 891	8.8555e+01	4.5255	64.432686	0.000385	3.851630	1.304968	-0.000154
 892	8.8654e+01	4.4983	64.259090	0.000436	4.358423	1.476674	-0.000174
 893	8.8754e+01	4.4534	64.045121	0.000537	5.372010	1.820086	-0.000215
 894	8.8853e+01	4.4036	63.903822	0.000355	3.547554	1.201944	-0.000142
 895	8.8953e+01	4.3635	63.710039	0.000487	4.865217	1.648380	-0.000195
 896	8.9052e+01	4.3282	63.544517	0.000416	4.155706	1.407991	-0.000166
 897	8.9152e+01	4.2977	63.350734	0.000487	4.865217	1.648380	-0.000195
 898	8.9251e+01	4.2528	63.160989	0.000476	4.763858	1.614039	-0.000191
 899	8.9351e+01	4.2079	62.995466	0.000416	4.155706	1.407991	-0.000166
 900	8.9451e+01	4.1726	62.797646	0.000497	4.966575	1.682721	-0.000199
 901	8.9550e+01	4.1373	62.603864	0.000487	4.865217	1.648380	-0.000195
 902	8.9650e+01	4.0940	62.426230	0.000446	4.459782	1.511015	-0.000179
 903	8.9749e+01	4.0427	62.232447	0.000487	4.865217	1.648380	-0.000195
 904	8.9849e+01	4.0170	62.042702	0.000476	4.763858	1.614039	-0.000191
 905	8.9948e+01	3.9769	61.893328	0.000375	3.750271	1.270626	-0.000150
 906	9.0047e+01	3.9304	61.675323	0.000547	5.473369	1.854428	-0.000219
 907	9.0147e+01	3.8935	61.497689	0.000446	4.459782	1.511015	-0.000179
 908	9.0246e+01	3.8566	61.316018	0.000456	4.561141	1.545356	-0.000183
 909	9.0346e+01	3.8036	61.126272	0.000476	4.763858	1.614039	-0.000191
 910	9.0445e+01	3.7764	60.912304	0.000537	5.372010	1.820086	-0.000215
 911	9.0545e+01	3.7330	60.730633	0.000456	4.561141	1.545356	-0.000183
 912	9.0644e+01	3.6881	60.528776	0.000507	5.067934	1.717063	-0.000203
 913	9.0744e+01	3.6400	60.371328	0.000395	3.952989	1.339309	-0.000158
 914	9.0844e+01	3.6191	60.177545	0.000487	4.865217	1.648380	-0.000195
 915	9.0943e+01	3.5742	59.967614	0.000527	5.270651	1.785745	-0.000211
 916	9.1043e+01	3.5309	59.814203	0.000385	3.851630	1.304968	-0.000154
 917	9.1142e+01	3.4972	59.636569	0.000446	4.459782	1.511015	-0.000179
 918	9.1242e+01	3.4619	59.442787	0.000487	4.865217	1.648380	-0.000195
 919	9.1341e+01	3.4138	59.224781	0.000547	5.473369	1.854428	-0.000219
 920	9.1441e+01	3.3801	59.043110	0.000456	4.561141	1.545356	-0.000183
 921	9.1540e+01	3.3320	58.865476	0.000446	4.459782	1.511015	-0.000179
 922	9.1639e+01	3.3015	58.687842	0.000446	4.459782	1.511015	-0.000179
 923	9.1739e+01	3.2550	58.485985	0.000507	5.067934	1.717063	-0.000203
 924	9.1838e+01	3.2053	58.272017	0.000537	5.372010	1.820086	-0.000215
 925	9.1938e+01	3.1668	58.114569	0.000395	3.952989	1.339309	-0.000158
 926	9.2037e+01	3.1427	57.953084	0.000405	4.054347	1.373650	-0.000162
 927	9.2137e+01	3.0914	57.694707	0.000649	6.486956	2.197840	-0.000260
 928	9.2237e+01	3.0721	57.517073	0.000446	4.459782	1.511015	-0.000179
 929	9.2336e+01	3.0063	57.303105	0.000537	5.372010	1.820086	-0.000215
 930	9.2436e+01	2.9823	57.129508	0.000436	4.358423	1.476674	-0.000174
 931	9.2535e+01	2.9406	56.923614	0.000517	5.169293	1.751404	-0.000207
 932	9.2635e+01	2.8956	56.754054	0.000426	4.257065	1.442333	-0.000170
 933	9.2734e+01	2.8684	56.564309	0.000476	4.763858	1.614039	-0.000191
 934	9.2834e+01	2.8186	56.366489	0.000497	4.966575	1.682721	-0.000199
 935	9.2933e+01	2.7705	56.180781	0.000466	4.662499	1.579698	-0.000187
 936	9.3032e+01	2.7416	55.995073	0.000466	4.662499	1.579698	-0.000187
 937	9.3132e+01	2.7063	55.777067	0.000547	5.473369	1.854428	-0.000219
 938	9.3231e+01	2.6534	55.546951	0.000578	5.777445	1.957451	-0.000231
 939	9.3331e+01	2.6101	55.385465	0.000405	4.054347	1.373650	-0.000162
 940	9.3430e+01	2.5748	55.183608	0.000507	5.067934	1.717063	-0.000203
 941	9.3530e+01	2.5363	54.977714	0.000517	5.169293	1.751404	-0.000207
 942	9.3629e+01	2.5026	54.787969	0.000476	4.763858	1.614039	-0.000191
 943	9.3729e+01	2.4529	54.618409	0.000426	4.257065	1.442333	-0.000170
 944	9.3829e+01	2.4256	54.420590	0.000497	4.966575	1.682721	-0.000199
 945	9.3928e+01	2.3823	54.234882	0.000466	4.662499	1.579698	-0.000187
 946	9.4028e+01	2.3374	54.033025	0.000507	5.067934	1.717063	-0.000203
 947	9.4127e+01	2.2957	53.815019	0.000547	5.473369	1.854428	-0.000219
 948	9.4227e+01	2.2716	53.617200	0.000497	4.966575	1.682721	-0.000199
 949	9.4326e+01	2.2187	53.431491	0.000466	4.662499	1.579698	-0.000187
 950	9.4425e+01	2.1818	53.213486	0.000547	5.473369	1.854428	-0.000219
 951	9.4525e+01	2.1352	53.056038	0.000395	3.952989	1.339309	-0.000158
 952	9.4624e+01	2.0983	52.846107	0.000527	5.270651	1.785745	-0.000211
 953	9.4724e+01	2.0486	52.660399	0.000466	4.662499	1.579698	-0.000187
 954	9.4823e+01	2.0213	52.446430	0.000537	5.372010	1.820086	-0.000215
 955	9.4923e+01	1.9716	52.232462	0.000537	5.372010	1.820086	-0.000215
 956	9.5022e+01	1.9459	52.018494	0.000537	5.372010	1.820086	-0.000215
 957	9.5122e+01	1.9026	51.844897	0.000436	4.358423	1.476674	-0.000174
 958	9.5222e+01	1.8513	51.643040	0.000507	5.067934	1.717063	-0.000203
 959	9.5321e+01	1.8128	51.473481	0.000426	4.257065	1.442333	-0.000170
 960	9.5421e+01	1.7727	51.271624	0.000507	5.067934	1.717063	-0.000203
 961	9.5520e+01	1.7422	51.053619	0.000547	5.473369	1.854428	-0.000219
 962	9.5620e+01	1.7037	50.863873	0.000476	4.763858	1.614039	-0.000191
 963	9.5719e+01	1.6572	50.649905	0.000537	5.372010	1.820086	-0.000215
 964	9.5819e+01	1.6171	50.419788	0.000578	5.777445	1.957451	-0.000231
 965	9.5918e+01	1.5754	50.242154	0.000446	4.459782	1.511015	-0.000179
 966	9.6017e+01	1.5256	50.012038	0.000578	5.777445	1.957451	-0.000231
 967	9.6117e+01	1.4984	49.834404	0.000446	4.459782	1.511015	-0.000179
 968	9.6216e+01	1.4663	49.620435	0.000537	5.372010	1.820086	-0.000215
 969	9.6316e+01	1.4214	49.422616	0.000497	4.966575	1.682721	-0.000199
 970	9.6415e+01	1.3796	49.244982	0.000446	4.459782	1.511015	-0.000179
 971	9.6515e+01	1.3443	49.043125	0.000507	5.067934	1.717063	-0.000203
 972	9.6615e+01	1.2914	48.780711	0.000659	6.588314	2.232181	-0.000264
 973	9.6714e+01	1.2513	48.623263	0.000395	3.952989	1.339309	-0.000158
 974	9.6814e+01	1.2208	48.389109	0.000588	5.878804	1.991793	-0.000235
 975	9.6913e+01	1.1791	48.227624	0.000405	4.054347	1.373650	-0.000162
 976	9.7013e+01	1.1470	47.993470	0.000588	5.878804	1.991793	-0.000235
 977	9.7112e+01	1.1053	47.759316	0.000588	5.878804	1.991793	-0.000235
 978	9.7212e+01	1.0572	47.613979	0.000365	3.648913	1.236285	-0.000146
 979	9.7311e+01	1.0235	47.416159	0.000497	4.966575	1.682721	-0.000199
 980	9.7410e+01	0.9866	47.206228	0.000527	5.270651	1.785745	-0.000211
 981	9.7510e+01	0.9272	46.992260	0.000537	5.372010	1.820086	-0.000215
 982	9.7609e+01	0.8968	46.778292	0.000537	5.372010	1.820086	-0.000215
 983	9.7709e+01	0.8583	46.576435	0.000507	5.067934	1.717063	-0.000203
 984	9.7808e+01	0.8278	46.358430	0.000547	5.473369	1.854428	-0.000219
 985	9.7908e+01	0.7893	46.164647	0.000487	4.865217	1.648380	-0.000195
 986	9.8007e+01	0.7363	45.962790	0.000507	5.067934	1.717063	-0.000203
 987	9.8107e+01	0.7027	45.744785	0.000547	5.473369	1.854428	-0.000219
 988	9.8207e+01	0.6609	45.518705	0.000568	5.676086	1.923110	-0.000227
 989	9.8306e+01	0.6289	45.337034	0.000456	4.561141	1.545356	-0.000183
 990	9.8406e+01	0.5888	45.139215	0.000497	4.966575	1.682721	-0.000199
 991	9.8505e+01	0.5422	44.880838	0.000649	6.486956	2.197840	-0.000260
 992	9.8605e+01	0.5037	44.715315	0.000416	4.155706	1.407991	-0.000166
 993	9.8704e+01	0.4668	44.509422	0.000517	5.169293	1.751404	-0.000207
 994	9.8803e+01	0.4267	44.291416	0.000547	5.473369	1.854428	-0.000219
 995	9.8903e+01	0.3834	44.073411	0.000547	5.473369	1.854428	-0.000219
 996	9.9002e+01	0.3385	43.871554	0.000507	5.067934	1.717063	-0.000203
 997	9.9102e+01	0.3080	43.693920	0.000446	4.459782	1.511015	-0.000179
 998	9.9201e+01	0.2615	43.439581	0.000639	6.385597	2.163499	-0.000256
 999	9.9301e+01	0.2310	43.245798	0.000487	4.865217	1.648380	-0.000195
1000	9.9400e+01	0.1925	43.056053	0.000476	4.763858	1.614039	-0.000191
1001	9.9500e+01	0.1348	42.834010	0.000557	5.574727	1.888769	-0.000223
1002	9.9600e+01	0.1059	42.587745	0.000618	6.182880	2.094816	-0.000248
1003	9.9699e+01	0.0642	42.365702	0.000557	5.574727	1.888769	-0.000223
1004	9.9799e+01	0.0225	42.204217	0.000405	4.054347	1.373650	-0.000162
1005	9.9898e+01	-0.0096	42.030620	0.000436	4.358423	1.476674	-0.000174
1006	9.9998e+01	-0.0497	41.788392	0.000608	6.081521	2.060475	-0.000243
1007	1.0010e+02	-0.0866	41.570387	0.000547	5.473369	1.854428	-0.000219
1008	1.0020e+02	-0.1219	41.360456	0.000527	5.270651	1.785745	-0.000211
1009	1.0030e+02	-0.1620	41.170710	0.000476	4.763858	1.614039	-0.000191
1010	1.0040e+02	-0.2037	40.956742	0.000537	5.372010	1.820086	-0.000215
1011	1.0050e+02	-0.2503	40.754885	0.000507	5.067934	1.717063	-0.000203
1012	1.0059e+02	-0.2872	40.500546	0.000639	6.385597	2.163499	-0.000256
1013	1.0069e+02	-0.3289	40.314837	0.000466	4.662499	1.579698	-0.000187
1014	1.0079e+02	-0.3545	40.112981	0.000507	5.067934	1.717063	-0.000203
1015	1.0089e+02	-0.4091	39.894975	0.000547	5.473369	1.854428	-0.000219
1016	1.0099e+02	-0.4380	39.652747	0.000608	6.081521	2.060475	-0.000243
1017	1.0109e+02	-0.4829	39.430705	0.000557	5.574727	1.888769	-0.000223
1018	1.0119e+02	-0.5182	39.240959	0.000476	4.763858	1.614039	-0.000191
1019	1.0129e+02	-0.5631	39.043140	0.000497	4.966575	1.682721	-0.000199
1020	1.0139e+02	-0.6032	38.813023	0.000578	5.777445	1.957451	-0.000231
1021	1.0149e+02	-0.6449	38.631352	0.000456	4.561141	1.545356	-0.000183
1022	1.0159e+02	-0.6930	38.393161	0.000598	5.980162	2.026134	-0.000239
1023	1.0169e+02	-0.7219	38.187267	0.000517	5.169293	1.751404	-0.000207
1024	1.0179e+02	-0.7636	37.969262	0.000547	5.473369	1.854428	-0.000219
1025	1.0189e+02	-0.8037	37.763368	0.000517	5.169293	1.751404	-0.000207
1026	1.0199e+02	-0.8374	37.569585	0.000487	4.865217	1.648380	-0.000195
1027	1.0209e+02	-0.8839	37.331394	0.000598	5.980162	2.026134	-0.000239
1028	1.0219e+02	-0.9080	37.060906	0.000679	6.791032	2.300864	-0.000272
1029	1.0229e+02	-0.9609	36.911532	0.000375	3.750271	1.270626	-0.000150
1030	1.0239e+02	-1.0123	36.661230	0.000628	6.284238	2.129158	-0.000252
1031	1.0248e+02	-1.0428	36.455336	0.000517	5.169293	1.751404	-0.000207
1032	1.0258e+02	-1.0893	36.196959	0.000649	6.486956	2.197840	-0.000260
1033	1.0268e+02	-1.1262	36.035474	0.000405	4.054347	1.373650	-0.000162
1034	1.0278e+02	-1.1615	35.801320	0.000588	5.878804	1.991793	-0.000235
1035	1.0288e+02	-1.2064	35.595426	0.000517	5.169293	1.751404	-0.000207
1036	1.0298e+02	-1.2417	35.421829	0.000436	4.358423	1.476674	-0.000174
1037	1.0308e+02	-1.2866	35.135192	0.000720	7.196466	2.438229	-0.000288
1038	1.0318e+02	-1.3171	34.941410	0.000487	4.865217	1.648380	-0.000195
1039	1.0328e+02	-1.3604	34.719367	0.000557	5.574727	1.888769	-0.000223
1040	1.0338e+02	-1.4037	34.497325	0.000557	5.574727	1.888769	-0.000223
1041	1.0348e+02	-1.4470	34.287394	0.000527	5.270651	1.785745	-0.000211
1042	1.0358e+02	-1.4823	34.097648	0.000476	4.763858	1.614039	-0.000191
1043	1.0368e+02	-1.5176	33.843309	0.000639	6.385597	2.163499	-0.000256
1044	1.0378e+02	-1.5593	33.629341	0.000537	5.372010	1.820086	-0.000215
1045	1.0388e+02	-1.6090	33.443632	0.000466	4.662499	1.579698	-0.000187
1046	1.0398e+02	-1.6395	33.217553	0.000568	5.676086	1.923110	-0.000227
1047	1.0408e+02	-1.6732	33.015696	0.000507	5.067934	1.717063	-0.000203
1048	1.0418e+02	-1.7165	32.813839	0.000507	5.067934	1.717063	-0.000203
1049	1.0428e+02	-1.7663	32.579685	0.000588	5.878804	1.991793	-0.000235
1050	1.0438e+02	-1.8016	32.393977	0.000466	4.662499	1.579698	-0.000187
1051	1.0447e+02	-1.8401	32.139638	0.000639	6.385597	2.163499	-0.000256
1052	1.0457e+02	-1.8882	31.986226	0.000385	3.851630	1.304968	-0.000154
1053	1.0467e+02	-1.9203	31.727850	0.000649	6.486956	2.197840	-0.000260
1054	1.0477e+02	-1.9588	31.525993	0.000507	5.067934	1.717063	-0.000203
1055	1.0487e+02	-1.9973	31.287802	0.000598	5.980162	2.026134	-0.000239
1056	1.0497e+02	-2.0470	31.073834	0.000537	5.372010	1.820086	-0.000215
1057	1.0507e+02	-2.0743	30.920423	0.000385	3.851630	1.304968	-0.000154
1058	1.0517e+02	-2.1176	30.690306	0.000578	5.777445	1.957451	-0.000231
1059	1.0527e+02	-2.1561	30.492486	0.000497	4.966575	1.682721	-0.000199
1060	1.0537e+02	-2.2010	30.266407	0.000568	5.676086	1.923110	-0.000227
1061	1.0547e+02	-2.2427	30.048401	0.000547	5.473369	1.854428	-0.000219
1062	1.0557e+02	-2.2812	29.854619	0.000487	4.865217	1.648380	-0.000195
1063	1.0567e+02	-2.3165	29.644688	0.000527	5.270651	1.785745	-0.000211
1064	1.0577e+02	-2.3695	29.418608	0.000568	5.676086	1.923110	-0.000227
1065	1.0587e+02	-2.4047	29.228863	0.000476	4.763858	1.614039	-0.000191
1066	1.0597e+02	-2.4432	28.970486	0.000649	6.486956	2.197840	-0.000260
1067	1.0607e+02	-2.4705	28.796889	0.000436	4.358423	1.476674	-0.000174
1068	1.0617e+02	-2.5090	28.570810	0.000568	5.676086	1.923110	-0.000227
1069	1.0627e+02	-2.5555	28.372990	0.000497	4.966575	1.682721	-0.000199
1070	1.0637e+02	-2.5989	28.175170	0.000497	4.966575	1.682721	-0.000199
1071	1.0647e+02	-2.6309	27.961202	0.000537	5.372010	1.820086	-0.000215
1072	1.0656e+02	-2.6791	27.735123	0.000568	5.676086	1.923110	-0.000227
1073	1.0666e+02	-2.7144	27.573637	0.000405	4.054347	1.373650	-0.000162
1074	1.0676e+02	-2.7561	27.278926	0.000740	7.399184	2.506911	-0.000296
1075	1.0686e+02	-2.7898	27.137626	0.000355	3.547554	1.201944	-0.000142
1076	1.0696e+02	-2.8411	26.923658	0.000537	5.372010	1.820086	-0.000215
1077	1.0706e+02	-2.8780	26.701616	0.000557	5.574727	1.888769	-0.000223
1078	1.0716e+02	-2.9245	26.471499	0.000578	5.777445	1.957451	-0.000231
1079	1.0726e+02	-2.9518	26.310014	0.000405	4.054347	1.373650	-0.000162
1080	1.0736e+02	-2.9935	26.071823	0.000598	5.980162	2.026134	-0.000239
1081	1.0746e+02	-3.0384	25.869966	0.000507	5.067934	1.717063	-0.000203
1082	1.0756e+02	-3.0689	25.684258	0.000466	4.662499	1.579698	-0.000187
1083	1.0766e+02	-3.1074	25.442029	0.000608	6.081521	2.060475	-0.000243
1084	1.0776e+02	-3.1539	25.272470	0.000426	4.257065	1.442333	-0.000170
1085	1.0786e+02	-3.1940	25.062539	0.000527	5.270651	1.785745	-0.000211
1086	1.0796e+02	-3.2293	24.876830	0.000466	4.662499	1.579698	-0.000187
1087	1.0806e+02	-3.2774	24.683048	0.000487	4.865217	1.648380	-0.000195
1088	1.0816e+02	-3.3143	24.456968	0.000568	5.676086	1.923110	-0.000227
1089	1.0826e+02	-3.3512	24.267223	0.000476	4.763858	1.614039	-0.000191
1090	1.0836e+02	-3.3946	24.081515	0.000466	4.662499	1.579698	-0.000187
1091	1.0845e+02	-3.4395	23.867546	0.000537	5.372010	1.820086	-0.000215
1092	1.0855e+02	-3.4732	23.649541	0.000547	5.473369	1.854428	-0.000219
1093	1.0865e+02	-3.5085	23.463833	0.000466	4.662499	1.579698	-0.000187
1094	1.0875e+02	-3.5438	23.249865	0.000537	5.372010	1.820086	-0.000215
1095	1.0885e+02	-3.5935	23.052045	0.000497	4.966575	1.682721	-0.000199
1096	1.0895e+02	-3.6320	22.858263	0.000487	4.865217	1.648380	-0.000195
1097	1.0905e+02	-3.6753	22.648331	0.000527	5.270651	1.785745	-0.000211
1098	1.0915e+02	-3.7074	22.466660	0.000456	4.561141	1.545356	-0.000183
1099	1.0925e+02	-3.7475	22.256729	0.000527	5.270651	1.785745	-0.000211
1100	1.0935e+02	-3.7972	22.083132	0.000436	4.358423	1.476674	-0.000174
1101	1.0945e+02	-3.8325	21.865127	0.000547	5.473369	1.854428	-0.000219
1102	1.0955e+02	-3.8726	21.687493	0.000446	4.459782	1.511015	-0.000179
1103	1.0965e+02	-3.9159	21.457376	0.000578	5.777445	1.957451	-0.000231
1104	1.0975e+02	-3.9609	21.287817	0.000426	4.257065	1.442333	-0.000170
1105	1.0985e+02	-3.9913	21.085960	0.000507	5.067934	1.717063	-0.000203
1106	1.0995e+02	-4.0282	20.888140	0.000497	4.966575	1.682721	-0.000199
1107	1.1005e+02	-4.0667	20.682246	0.000517	5.169293	1.751404	-0.000207
1108	1.1015e+02	-4.1165	20.500575	0.000456	4.561141	1.545356	-0.000183
1109	1.1025e+02	-4.1566	20.278533	0.000557	5.574727	1.888769	-0.000223
1110	1.1035e+02	-4.1935	20.096862	0.000456	4.561141	1.545356	-0.000183
1111	1.1044e+02	-4.2336	19.911153	0.000466	4.662499	1.579698	-0.000187
1112	1.1054e+02	-4.2705	19.697185	0.000537	5.372010	1.820086	-0.000215
1113	1.1064e+02	-4.3058	19.515514	0.000456	4.561141	1.545356	-0.000183
1114	1.1074e+02	-4.3459	19.329806	0.000466	4.662499	1.579698	-0.000187
1115	1.1084e+02	-4.3876	19.140061	0.000476	4.763858	1.614039	-0.000191
1116	1.1094e+02	-4.4309	18.966464	0.000436	4.358423	1.476674	-0.000174
1117	1.1104e+02	-4.4678	18.748458	0.000547	5.473369	1.854428	-0.000219
1118	1.1114e+02	-4.5175	18.586973	0.000405	4.054347	1.373650	-0.000162
1119	1.1124e+02	-4.5576	18.373005	0.000537	5.372010	1.820086	-0.000215
1120	1.1134e+02	-4.5961	18.183259	0.000476	4.763858	1.614039	-0.000191
1121	1.1144e+02	-4.6282	18.013700	0.000426	4.257065	1.442333	-0.000170
1122	1.1154e+02	-4.6763	17.779546	0.000588	5.878804	1.991793	-0.000235
1123	1.1164e+02	-4.7084	17.589800	0.000476	4.763858	1.614039	-0.000191
1124	1.1174e+02	-4.7421	17.452538	0.000345	3.446195	1.167603	-0.000138
1125	1.1184e+02	-4.7806	17.262792	0.000476	4.763858	1.614039	-0.000191
1126	1.1194e+02	-4.8319	17.044787	0.000547	5.473369	1.854428	-0.000219
1127	1.1204e+02	-4.8721	16.846967	0.000497	4.966575	1.682721	-0.000199
1128	1.1214e+02	-4.9073	16.665296	0.000456	4.561141	1.545356	-0.000183
1129	1.1224e+02	-4.9491	16.475551	0.000476	4.763858	1.614039	-0.000191
1130	1.1234e+02	-4.9924	16.293880	0.000456	4.561141	1.545356	-0.000183
1131	1.1244e+02	-5.0325	16.092023	0.000507	5.067934	1.717063	-0.000203
1132	1.1253e+02	-5.0662	15.906315	0.000466	4.662499	1.579698	-0.000187
1133	1.1263e+02	-5.1047	15.720607	0.000466	4.662499	1.579698	-0.000187
1134	1.1273e+02	-5.1480	15.510676	0.000527	5.270651	1.785745	-0.000211
1135	1.1283e+02	-5.1833	15.316893	0.000487	4.865217	1.648380	-0.000195
1136	1.1293e+02	-5.2314	15.151370	0.000416	4.155706	1.407991	-0.000166
1137	1.1303e+02	-5.2539	14.953551	0.000497	4.966575	1.682721	-0.000199
1138	1.1313e+02	-5.3052	14.792065	0.000405	4.054347	1.373650	-0.000162
1139	1.1323e+02	-5.3469	14.565986	0.000568	5.676086	1.923110	-0.000227
1140	1.1333e+02	-5.3934	14.368166	0.000497	4.966575	1.682721	-0.000199
1141	1.1343e+02	-5.4255	14.182458	0.000466	4.662499	1.579698	-0.000187
1142	1.1353e+02	-5.4608	13.996750	0.000466	4.662499	1.579698	-0.000187
1143	1.1363e+02	-5.5121	13.859487	0.000345	3.446195	1.167603	-0.000138
1144	1.1373e+02	-5.5410	13.637445	0.000557	5.574727	1.888769	-0.000223
1145	1.1383e+02	-5.5843	13.439625	0.000497	4.966575	1.682721	-0.000199
1146	1.1393e+02	-5.6244	13.253917	0.000466	4.662499	1.579698	-0.000187
1147	1.1403e+02	-5.6694	13.100505	0.000385	3.851630	1.304968	-0.000154
1148	1.1413e+02	-5.6998	12.902686	0.000497	4.966575	1.682721	-0.000199
1149	1.1423e+02	-5.7448	12.684680	0.000547	5.473369	1.854428	-0.000219
1150	1.1433e+02	-5.7929	12.511084	0.000436	4.358423	1.476674	-0.000174
1151	1.1442e+02	-5.8202	12.325375	0.000466	4.662499	1.579698	-0.000187
1152	1.1452e+02	-5.8683	12.163890	0.000405	4.054347	1.373650	-0.000162
1153	1.1462e+02	-5.9020	11.962033	0.000507	5.067934	1.717063	-0.000203
1154	1.1472e+02	-5.9485	11.764214	0.000497	4.966575	1.682721	-0.000199
1155	1.1482e+02	-5.9758	11.598691	0.000416	4.155706	1.407991	-0.000166
1156	1.1492e+02	-6.0159	11.441243	0.000395	3.952989	1.339309	-0.000158
1157	1.1502e+02	-6.0688	11.199015	0.000608	6.081521	2.060475	-0.000243
1158	1.1512e+02	-6.1041	11.021381	0.000446	4.459782	1.511015	-0.000179
1159	1.1522e+02	-6.1426	10.888155	0.000334	3.344836	1.133261	-0.000134
1160	1.1532e+02	-6.1843	10.666113	0.000557	5.574727	1.888769	-0.000223
1161	1.1542e+02	-6.2276	10.496553	0.000426	4.257065	1.442333	-0.000170
1162	1.1552e+02	-6.2709	10.318919	0.000446	4.459782	1.511015	-0.000179
1163	1.1562e+02	-6.3111	10.104951	0.000537	5.372010	1.820086	-0.000215
1164	1.1572e+02	-6.3463	9.951540	0.000385	3.851630	1.304968	-0.000154
1165	1.1582e+02	-6.3832	9.749683	0.000507	5.067934	1.717063	-0.000203
1166	1.1592e+02	-6.4201	9.563975	0.000466	4.662499	1.579698	-0.000187
1167	1.1602e+02	-6.4651	9.386341	0.000446	4.459782	1.511015	-0.000179
1168	1.1612e+02	-6.5004	9.180447	0.000517	5.169293	1.751404	-0.000207
1169	1.1622e+02	-6.5340	9.022998	0.000395	3.952989	1.339309	-0.000158
1170	1.1632e+02	-6.5774	8.853439	0.000426	4.257065	1.442333	-0.000170
1171	1.1642e+02	-6.6207	8.651582	0.000507	5.067934	1.717063	-0.000203
1172	1.1651e+02	-6.6511	8.477985	0.000436	4.358423	1.476674	-0.000174
1173	1.1661e+02	-6.6897	8.288240	0.000476	4.763858	1.614039	-0.000191
1174	1.1671e+02	-6.7362	8.094457	0.000487	4.865217	1.648380	-0.000195
1175	1.1681e+02	-6.7763	7.916823	0.000446	4.459782	1.511015	-0.000179
1176	1.1691e+02	-6.8148	7.747263	0.000426	4.257065	1.442333	-0.000170
1177	1.1701e+02	-6.8645	7.569630	0.000446	4.459782	1.511015	-0.000179
1178	1.1711e+02	-6.9030	7.359698	0.000527	5.270651	1.785745	-0.000211
1179	1.1721e+02	-6.9415	7.186102	0.000436	4.358423	1.476674	-0.000174
1180	1.1731e+02	-6.9736	7.000393	0.000466	4.662499	1.579698	-0.000187
1181	1.1741e+02	-7.0265	6.855056	0.000365	3.648913	1.236285	-0.000146
1182	1.1751e+02	-7.0650	6.645125	0.000527	5.270651	1.785745	-0.000211
1183	1.1761e+02	-7.1035	6.455380	0.000476	4.763858	1.614039	-0.000191
1184	1.1771e+02	-7.1356	6.249486	0.000517	5.169293	1.751404	-0.000207
1185	1.1781e+02	-7.1741	6.083964	0.000416	4.155706	1.407991	-0.000166
1186	1.1791e+02	-7.2223	5.918441	0.000416	4.155706	1.407991	-0.000166
1187	1.1801e+02	-7.2575	5.712547	0.000517	5.169293	1.751404	-0.000207
1188	1.1811e+02	-7.2896	5.571247	0.000355	3.547554	1.201944	-0.000142
1189	1.1821e+02	-7.3442	5.349205	0.000557	5.574727	1.888769	-0.000223
1190	1.1831e+02	-7.3650	5.163497	0.000466	4.662499	1.579698	-0.000187
1191	1.1841e+02	-7.4260	4.997974	0.000416	4.155706	1.407991	-0.000166
1192	1.1850e+02	-7.4565	4.804192	0.000487	4.865217	1.648380	-0.000195
1193	1.1860e+02	-7.5014	4.630595	0.000436	4.358423	1.476674	-0.000174
1194	1.1870e+02	-7.5351	4.428738	0.000507	5.067934	1.717063	-0.000203
1195	1.1880e+02	-7.5704	4.234955	0.000487	4.865217	1.648380	-0.000195
1196	1.1890e+02	-7.6153	4.057321	0.000446	4.459782	1.511015	-0.000179
1197	1.1900e+02	-7.6490	3.879687	0.000446	4.459782	1.511015	-0.000179
1198	1.1910e+02	-7.6955	3.673794	0.000517	5.169293	1.751404	-0.000207
1199	1.1920e+02	-7.7292	3.528457	0.000365	3.648913	1.236285	-0.000146
1200	1.1930e+02	-7.7757	3.338711	0.000476	4.763858	1.614039	-0.000191
1201	1.1940e+02	-7.8158	3.148966	0.000476	4.763858	1.614039	-0.000191
1202	1.1950e+02	-7.8559	2.939035	0.000527	5.270651	1.785745	-0.000211
1203	1.1960e+02	-7.9041	2.765438	0.000436	4.358423	1.476674	-0.000174
1204	1.1970e+02	-7.9361	2.616064	0.000375	3.750271	1.270626	-0.000150
1205	1.1980e+02	-7.9811	2.418244	0.000497	4.966575	1.682721	-0.000199
1206	1.1990e+02	-8.0035	2.256759	0.000405	4.054347	1.373650	-0.000162
1207	1.2000e+02	-8.0565	2.071051	0.000466	4.662499	1.579698	-0.000187
1208	1.2010e+02	-8.0934	1.849008	0.000557	5.574727	1.888769	-0.000223
1209	1.2020e+02	-8.1351	1.679448	0.000426	4.257065	1.442333	-0.000170
1210	1.2030e+02	-8.1688	1.509889	0.000426	4.257065	1.442333	-0.000170
1211	1.2039e+02	-8.2249	1.303995	0.000517	5.169293	1.751404	-0.000207
1212	1.2049e+02	-8.2474	1.138472	0.000416	4.155706	1.407991	-0.000166
1213	1.2059e+02	-8.2907	0.968913	0.000426	4.257065	1.442333	-0.000170
1214	1.2069e+02	-8.3324	0.791279	0.000446	4.459782	1.511015	-0.000179
1215	1.2079e+02	-8.3757	0.609607	0.000456	4.561141	1.545356	-0.000183
1216	1.2089e+02	-8.4158	0.431974	0.000446	4.459782	1.511015	-0.000179
1217	1.2099e+02	-8.4479	0.258377	0.000436	4.358423	1.476674	-0.000174
1218	1.2109e+02	-8.4912	0.072668	0.000466	4.662499	1.579698	-0.000187
1219	1.2119e+02	-8.5313	-0.104966	0.000446	4.459782	1.511015	-0.000179
1220	1.2129e+02	-8.5746	-0.286637	0.000456	4.561141	1.545356	-0.000183
1221	1.2139e+02	-8.6035	-0.472345	0.000466	4.662499	1.579698	-0.000187
1222	1.2149e+02	-8.6580	-0.617682	0.000365	3.648913	1.236285	-0.000146
1223	1.2159e+02	-8.6998	-0.807427	0.000476	4.763858	1.614039	-0.000191
1224	1.2169e+02	-8.7318	-1.013321	0.000517	5.169293	1.751404	-0.000207
1225	1.2179e+02	-8.7687	-1.207104	0.000487	4.865217	1.648380	-0.000195
1226	1.2189e+02	-8.8024	-1.396849	0.000476	4.763858	1.614039	-0.000191
1227	1.2199e+02	-8.8489	-1.534112	0.000345	3.446195	1.167603	-0.000138
1228	1.2209e+02	-8.8810	-1.715783	0.000456	4.561141	1.545356	-0.000183
1229	1.2219e+02	-8.9324	-1.893417	0.000446	4.459782	1.511015	-0.000179
1230	1.2229e+02	-8.9677	-2.022605	0.000324	3.243478	1.098920	-0.000130
1231	1.2239e+02	-9.0014	-2.216388	0.000487	4.865217	1.648380	-0.000195
1232	1.2248e+02	-9.0511	-2.434393	0.000547	5.473369	1.854428	-0.000219
1233	1.2258e+02	-9.0912	-2.591841	0.000395	3.952989	1.339309	-0.000158
1234	1.2268e+02	-9.1249	-2.801772	0.000527	5.270651	1.785745	-0.000211
1235	1.2278e+02	-9.1778	-2.983443	0.000456	4.561141	1.545356	-0.000183
1236	1.2288e+02	-9.2099	-3.140892	0.000395	3.952989	1.339309	-0.000158
1237	1.2298e+02	-9.2564	-3.346786	0.000517	5.169293	1.751404	-0.000207
1238	1.2308e+02	-9.3078	-3.504234	0.000395	3.952989	1.339309	-0.000158
1239	1.2318e+02	-9.3286	-3.661682	0.000395	3.952989	1.339309	-0.000158
1240	1.2328e+02	-9.3655	-3.839316	0.000446	4.459782	1.511015	-0.000179
1241	1.2338e+02	-9.4008	-4.053284	0.000537	5.372010	1.820086	-0.000215
1242	1.2348e+02	-9.4457	-4.210733	0.000395	3.952989	1.339309	-0.000158
1243	1.2358e+02	-9.4810	-4.412589	0.000507	5.067934	1.717063	-0.000203
1244	1.2368e+02	-9.5275	-4.533703	0.000304	3.040760	1.030238	-0.000122
1245	1.2378e+02	-9.5741	-4.715375	0.000456	4.561141	1.545356	-0.000183
1246	1.2388e+02	-9.6094	-4.897046	0.000456	4.561141	1.545356	-0.000183
1247	1.2398e+02	-9.6479	-5.098902	0.000507	5.067934	1.717063	-0.000203
1248	1.2408e+02	-9.6944	-5.256351	0.000395	3.952989	1.339309	-0.000158
1249	1.2418e+02	-9.7200	-5.433985	0.000446	4.459782	1.511015	-0.000179
1250	1.2428e+02	-9.7650	-5.619693	0.000466	4.662499	1.579698	-0.000187
1251	1.2438e+02	-9.8051	-5.724658	0.000264	2.635326	0.892873	-0.000105
1252	1.2447e+02	-9.8436	-5.954775	0.000578	5.777445	1.957451	-0.000231
1253	1.2457e+02	-9.8949	-6.140483	0.000466	4.662499	1.579698	-0.000187
1254	1.2467e+02	-9.9222	-6.289857	0.000375	3.750271	1.270626	-0.000150
1255	1.2477e+02	-9.9623	-6.479603	0.000476	4.763858	1.614039	-0.000191
1256	1.2487e+02	-10.0040	-6.624940	0.000365	3.648913	1.236285	-0.000146
1257	1.2497e+02	-10.0505	-6.802574	0.000446	4.459782	1.511015	-0.000179
1258	1.2507e+02	-10.1002	-6.980208	0.000446	4.459782	1.511015	-0.000179
1259	1.2517e+02	-10.1259	-7.153805	0.000436	4.358423	1.476674	-0.000174
1260	1.2527e+02	-10.1773	-7.311253	0.000395	3.952989	1.339309	-0.000158
1261	1.2537e+02	-10.2045	-7.484850	0.000436	4.358423	1.476674	-0.000174
1262	1.2547e+02	-10.2398	-7.646335	0.000405	4.054347	1.373650	-0.000162
1263	1.2557e+02	-10.2831	-7.811858	0.000416	4.155706	1.407991	-0.000166
1264	1.2567e+02	-10.3297	-7.993529	0.000456	4.561141	1.545356	-0.000183
1265	1.2577e+02	-10.3649	-8.159051	0.000416	4.155706	1.407991	-0.000166
1266	1.2587e+02	-10.4115	-8.373020	0.000537	5.372010	1.820086	-0.000215
1267	1.2597e+02	-10.4403	-8.490096	0.000294	2.939402	0.995896	-0.000118
1268	1.2607e+02	-10.4917	-8.683879	0.000487	4.865217	1.648380	-0.000195
1269	1.2617e+02	-10.5270	-8.869587	0.000466	4.662499	1.579698	-0.000187
1270	1.2627e+02	-10.5655	-9.010887	0.000355	3.547554	1.201944	-0.000142
1271	1.2636e+02	-10.6040	-9.208707	0.000497	4.966575	1.682721	-0.000199
1272	1.2646e+02	-10.6473	-9.374229	0.000416	4.155706	1.407991	-0.000166
1273	1.2656e+02	-10.6762	-9.539752	0.000416	4.155706	1.407991	-0.000166
1274	1.2666e+02	-10.7291	-9.729497	0.000476	4.763858	1.614039	-0.000191
1275	1.2676e+02	-10.7692	-9.846574	0.000294	2.939402	0.995896	-0.000118
1276	1.2686e+02	-10.8109	-10.036319	0.000476	4.763858	1.614039	-0.000191
1277	1.2696e+02	-10.8398	-10.242213	0.000517	5.169293	1.751404	-0.000207
1278	1.2706e+02	-10.8911	-10.383513	0.000355	3.547554	1.201944	-0.000142
1279	1.2716e+02	-10.9232	-10.540961	0.000395	3.952989	1.339309	-0.000158
1280	1.2726e+02	-10.9617	-10.702447	0.000405	4.054347	1.373650	-0.000162
1281	1.2736e+02	-10.9986	-10.892192	0.000476	4.763858	1.614039	-0.000191
1282	1.2746e+02	-11.0403	-11.053678	0.000405	4.054347	1.373650	-0.000162
1283	1.2756e+02	-11.0869	-11.231312	0.000446	4.459782	1.511015	-0.000179
1284	1.2766e+02	-11.1254	-11.400871	0.000426	4.257065	1.442333	-0.000170
1285	1.2776e+02	-11.1606	-11.517948	0.000294	2.939402	0.995896	-0.000118
1286	1.2786e+02	-11.2056	-11.711731	0.000487	4.865217	1.648380	-0.000195
1287	1.2796e+02	-11.2377	-11.873216	0.000405	4.054347	1.373650	-0.000162
1288	1.2806e+02	-11.2890	-12.038739	0.000416	4.155706	1.407991	-0.000166
1289	1.2816e+02	-11.3291	-12.200224	0.000405	4.054347	1.373650	-0.000162
1290	1.2826e+02	-11.3580	-12.345561	0.000365	3.648913	1.236285	-0.000146
1291	1.2835e+02	-11.4061	-12.527232	0.000456	4.561141	1.545356	-0.000183
1292	1.2845e+02	-11.4446	-12.672569	0.000365	3.648913	1.236285	-0.000146
1293	1.2855e+02	-11.4895	-12.825980	0.000385	3.851630	1.304968	-0.000154
1294	1.2865e+02	-11.5120	-12.987466	0.000405	4.054347	1.373650	-0.000162
1295	1.2875e+02	-11.5585	-13.193360	0.000517	5.169293	1.751404	-0.000207
1296	1.2885e+02	-11.6002	-13.362919	0.000426	4.257065	1.442333	-0.000170
1297	1.2895e+02	-11.6499	-13.484033	0.000304	3.040760	1.030238	-0.000122
1298	1.2905e+02	-11.6724	-13.653593	0.000426	4.257065	1.442333	-0.000170
1299	1.2915e+02	-11.7125	-13.827190	0.000436	4.358423	1.476674	-0.000174
1300	1.2925e+02	-11.7558	-14.004824	0.000446	4.459782	1.511015	-0.000179
1301	1.2935e+02	-11.7975	-14.150161	0.000365	3.648913	1.236285	-0.000146
1302	1.2945e+02	-11.8457	-14.311646	0.000405	4.054347	1.373650	-0.000162
1303	1.2955e+02	-11.8809	-14.489280	0.000446	4.459782	1.511015	-0.000179
1304	1.2965e+02	-11.9243	-14.674988	0.000466	4.662499	1.579698	-0.000187
1305	1.2975e+02	-11.9644	-14.840511	0.000416	4.155706	1.407991	-0.000166
1306	1.2985e+02	-11.9981	-14.997959	0.000395	3.952989	1.339309	-0.000158
1307	1.2995e+02	-12.0398	-15.199816	0.000507	5.067934	1.717063	-0.000203
1308	1.3005e+02	-12.0783	-15.296707	0.000243	2.432608	0.824190	-0.000097
1309	1.3015e+02	-12.1232	-15.474341	0.000446	4.459782	1.511015	-0.000179
1310	1.3025e+02	-12.1569	-15.660050	0.000466	4.662499	1.579698	-0.000187
1311	1.3034e+02	-12.2002	-15.833646	0.000436	4.358423	1.476674	-0.000174
1312	1.3044e+02	-12.2467	-15.962835	0.000324	3.243478	1.098920	-0.000130
1313	1.3054e+02	-12.2756	-16.148543	0.000466	4.662499	1.579698	-0.000187
1314	1.3064e+02	-12.3157	-16.318103	0.000426	4.257065	1.442333	-0.000170
1315	1.3074e+02	-12.3558	-16.495737	0.000446	4.459782	1.511015	-0.000179
1316	1.3084e+02	-12.4039	-16.649148	0.000385	3.851630	1.304968	-0.000154
1317	1.3094e+02	-12.4392	-16.818707	0.000426	4.257065	1.442333	-0.000170
1318	1.3104e+02	-12.4729	-16.980193	0.000405	4.054347	1.373650	-0.000162
1319	1.3114e+02	-12.5162	-17.093233	0.000284	2.838043	0.961555	-0.000114
1320	1.3124e+02	-12.5515	-17.282978	0.000476	4.763858	1.614039	-0.000191
1321	1.3134e+02	-12.6061	-17.452538	0.000426	4.257065	1.442333	-0.000170
1322	1.3144e+02	-12.6381	-17.609986	0.000395	3.952989	1.339309	-0.000158
1323	1.3154e+02	-12.6815	-17.771472	0.000405	4.054347	1.373650	-0.000162
1324	1.3164e+02	-12.7071	-17.920846	0.000375	3.750271	1.270626	-0.000150
1325	1.3174e+02	-12.7569	-18.114628	0.000487	4.865217	1.648380	-0.000195
1326	1.3184e+02	-12.7986	-18.288225	0.000436	4.358423	1.476674	-0.000174
1327	1.3194e+02	-12.8387	-18.397228	0.000274	2.736684	0.927214	-0.000110
1328	1.3204e+02	-12.8708	-18.586973	0.000476	4.763858	1.614039	-0.000191
1329	1.3214e+02	-12.9109	-18.716161	0.000324	3.243478	1.098920	-0.000130
1330	1.3224e+02	-12.9606	-18.905907	0.000476	4.763858	1.614039	-0.000191
1331	1.3234e+02	-12.9911	-19.047206	0.000355	3.547554	1.201944	-0.000142
1332	1.3243e+02	-13.0248	-19.236952	0.000476	4.763858	1.614039	-0.000191
1333	1.3253e+02	-13.0681	-19.402474	0.000416	4.155706	1.407991	-0.000166
1334	1.3263e+02	-13.1242	-19.535700	0.000334	3.344836	1.133261	-0.000134
1335	1.3273e+02	-13.1515	-19.697185	0.000405	4.054347	1.373650	-0.000162
1336	1.3283e+02	-13.1964	-19.878856	0.000456	4.561141	1.545356	-0.000183
1337	1.3293e+02	-13.2333	-20.040342	0.000405	4.054347	1.373650	-0.000162
1338	1.3303e+02	-13.2670	-20.213939	0.000436	4.358423	1.476674	-0.000174
1339	1.3313e+02	-13.3039	-20.363313	0.000375	3.750271	1.270626	-0.000150
1340	1.3323e+02	-13.3520	-20.540947	0.000446	4.459782	1.511015	-0.000179
1341	1.3333e+02	-13.3889	-20.722618	0.000456	4.561141	1.545356	-0.000183
1342	1.3343e+02	-13.4338	-20.863917	0.000355	3.547554	1.201944	-0.000142
1343	1.3353e+02	-13.4756	-21.025403	0.000405	4.054347	1.373650	-0.000162
1344	1.3363e+02	-13.5157	-21.178814	0.000385	3.851630	1.304968	-0.000154
1345	1.3373e+02	-13.5526	-21.364522	0.000466	4.662499	1.579698	-0.000187
1346	1.3383e+02	-13.5959	-21.538119	0.000436	4.358423	1.476674	-0.000174
1347	1.3393e+02	-13.6360	-21.679419	0.000355	3.547554	1.201944	-0.000142
1348	1.3403e+02	-13.6713	-21.857053	0.000446	4.459782	1.511015	-0.000179
1349	1.3413e+02	-13.7114	-22.030650	0.000436	4.358423	1.476674	-0.000174
1350	1.3423e+02	-13.7563	-22.155801	0.000314	3.142119	1.064579	-0.000126
1351	1.3432e+02	-13.8012	-22.369769	0.000537	5.372010	1.820086	-0.000215
1352	1.3442e+02	-13.8269	-22.502995	0.000334	3.344836	1.133261	-0.000134
1353	1.3452e+02	-13.8766	-22.648331	0.000365	3.648913	1.236285	-0.000146
1354	1.3462e+02	-13.9151	-22.801743	0.000385	3.851630	1.304968	-0.000154
1355	1.3472e+02	-13.9488	-22.975339	0.000436	4.358423	1.476674	-0.000174
1356	1.3482e+02	-13.9969	-23.144899	0.000426	4.257065	1.442333	-0.000170
1357	1.3492e+02	-14.0210	-23.302347	0.000395	3.952989	1.339309	-0.000158
1358	1.3502e+02	-14.0627	-23.492093	0.000476	4.763858	1.614039	-0.000191
1359	1.3512e+02	-14.1012	-23.629355	0.000345	3.446195	1.167603	-0.000138
1360	1.3522e+02	-14.1477	-23.778729	0.000375	3.750271	1.270626	-0.000150
1361	1.3532e+02	-14.1878	-23.944252	0.000416	4.155706	1.407991	-0.000166
1362	1.3542e+02	-14.2279	-24.154183	0.000527	5.270651	1.785745	-0.000211
1363	1.3552e+02	-14.2680	-24.291446	0.000345	3.446195	1.167603	-0.000138
1364	1.3562e+02	-14.3049	-24.412560	0.000304	3.040760	1.030238	-0.000122
1365	1.3572e+02	-14.3531	-24.622491	0.000527	5.270651	1.785745	-0.000211
1366	1.3582e+02	-14.3884	-24.763791	0.000355	3.547554	1.201944	-0.000142
1367	1.3592e+02	-14.4301	-24.913165	0.000375	3.750271	1.270626	-0.000150
1368	1.3602e+02	-14.4686	-25.090799	0.000446	4.459782	1.511015	-0.000179
1369	1.3612e+02	-14.5087	-25.308804	0.000547	5.473369	1.854428	-0.000219
1370	1.3622e+02	-14.5456	-25.437992	0.000324	3.243478	1.098920	-0.000130
1371	1.3631e+02	-14.5745	-25.631775	0.000487	4.865217	1.648380	-0.000195
1372	1.3641e+02	-14.6402	-25.756926	0.000314	3.142119	1.064579	-0.000126
1373	1.3651e+02	-14.6755	-25.938597	0.000456	4.561141	1.545356	-0.000183
1374	1.3661e+02	-14.7220	-26.100083	0.000405	4.054347	1.373650	-0.000162
1375	1.3671e+02	-14.7638	-26.225234	0.000314	3.142119	1.064579	-0.000126
1376	1.3681e+02	-14.7798	-26.402868	0.000446	4.459782	1.511015	-0.000179
1377	1.3691e+02	-14.8279	-26.596650	0.000487	4.865217	1.648380	-0.000195
1378	1.3701e+02	-14.8680	-26.741987	0.000365	3.648913	1.236285	-0.000146
1379	1.3711e+02	-14.8985	-26.895398	0.000385	3.851630	1.304968	-0.000154
1380	1.3721e+02	-14.9482	-27.073032	0.000446	4.459782	1.511015	-0.000179
1381	1.3731e+02	-14.9803	-27.242592	0.000426	4.257065	1.442333	-0.000170
1382	1.3741e+02	-15.0333	-27.400040	0.000395	3.952989	1.339309	-0.000158
1383	1.3751e+02	-15.0573	-27.533266	0.000334	3.344836	1.133261	-0.000134
1384	1.3761e+02	-15.0974	-27.694751	0.000405	4.054347	1.373650	-0.000162
1385	1.3771e+02	-15.1504	-27.908719	0.000537	5.372010	1.820086	-0.000215
1386	1.3781e+02	-15.1905	-28.041945	0.000334	3.344836	1.133261	-0.000134
1387	1.3791e+02	-15.2306	-28.171133	0.000324	3.243478	1.098920	-0.000130
1388	1.3801e+02	-15.2659	-28.360879	0.000476	4.763858	1.614039	-0.000191
1389	1.3811e+02	-15.3012	-28.510253	0.000375	3.750271	1.270626	-0.000150
1390	1.3821e+02	-15.3477	-28.704035	0.000487	4.865217	1.648380	-0.000195
1391	1.3831e+02	-15.3830	-28.861483	0.000395	3.952989	1.339309	-0.000158
1392	1.3840e+02	-15.4215	-29.022969	0.000405	4.054347	1.373650	-0.000162
1393	1.3850e+02	-15.4616	-29.131971	0.000274	2.736684	0.927214	-0.000110
1394	1.3860e+02	-15.4937	-29.333828	0.000507	5.067934	1.717063	-0.000203
1395	1.3870e+02	-15.5450	-29.491277	0.000395	3.952989	1.339309	-0.000158
1396	1.3880e+02	-15.5835	-29.656799	0.000416	4.155706	1.407991	-0.000166
1397	1.3890e+02	-15.6268	-29.806173	0.000375	3.750271	1.270626	-0.000150
1398	1.3900e+02	-15.6637	-29.971696	0.000416	4.155706	1.407991	-0.000166
1399	1.3910e+02	-15.7054	-30.161441	0.000476	4.763858	1.614039	-0.000191
1400	1.3920e+02	-15.7407	-30.290629	0.000324	3.243478	1.098920	-0.000130
1401	1.3930e+02	-15.7857	-30.480375	0.000476	4.763858	1.614039	-0.000191
1402	1.3940e+02	-15.8242	-30.617637	0.000345	3.446195	1.167603	-0.000138
1403	1.3950e+02	-15.8610	-30.783160	0.000416	4.155706	1.407991	-0.000166
1404	1.3960e+02	-15.9044	-30.936571	0.000385	3.851630	1.304968	-0.000154
1405	1.3970e+02	-15.9429	-31.065760	0.000324	3.243478	1.098920	-0.000130
1406	1.3980e+02	-15.9862	-31.247431	0.000456	4.561141	1.545356	-0.000183
1407	1.3990e+02	-16.0263	-31.437176	0.000476	4.763858	1.614039	-0.000191
1408	1.4000e+02	-16.0680	-31.546179	0.000274	2.736684	0.927214	-0.000110
1409	1.4010e+02	-16.1081	-31.752073	0.000517	5.169293	1.751404	-0.000207
1410	1.4020e+02	-16.1418	-31.921632	0.000426	4.257065	1.442333	-0.000170
1411	1.4029e+02	-16.1771	-32.054858	0.000334	3.344836	1.133261	-0.000134
1412	1.4039e+02	-16.2172	-32.232492	0.000446	4.459782	1.511015	-0.000179
1413	1.4049e+02	-16.2669	-32.402051	0.000426	4.257065	1.442333	-0.000170
1414	1.4059e+02	-16.2990	-32.567574	0.000416	4.155706	1.407991	-0.000166
1415	1.4069e+02	-16.3439	-32.700799	0.000334	3.344836	1.133261	-0.000134
1416	1.4079e+02	-16.3856	-32.850174	0.000375	3.750271	1.270626	-0.000150
1417	1.4089e+02	-16.4257	-33.031845	0.000456	4.561141	1.545356	-0.000183
1418	1.4099e+02	-16.4562	-33.169107	0.000345	3.446195	1.167603	-0.000138
1419	1.4109e+02	-16.5156	-33.318481	0.000375	3.750271	1.270626	-0.000150
1420	1.4119e+02	-16.5493	-33.496115	0.000446	4.459782	1.511015	-0.000179
1421	1.4129e+02	-16.5830	-33.641452	0.000365	3.648913	1.236285	-0.000146
1422	1.4139e+02	-16.6150	-33.823123	0.000456	4.561141	1.545356	-0.000183
1423	1.4149e+02	-16.6567	-33.960386	0.000345	3.446195	1.167603	-0.000138
1424	1.4159e+02	-16.7017	-34.138020	0.000446	4.459782	1.511015	-0.000179
1425	1.4169e+02	-16.7450	-34.271245	0.000334	3.344836	1.133261	-0.000134
1426	1.4179e+02	-16.7867	-34.416582	0.000365	3.648913	1.236285	-0.000146
1427	1.4189e+02	-16.8172	-34.586142	0.000426	4.257065	1.442333	-0.000170
1428	1.4199e+02	-16.8573	-34.755702	0.000426	4.257065	1.442333	-0.000170
1429	1.4209e+02	-16.9022	-34.921224	0.000416	4.155706	1.407991	-0.000166
1430	1.4219e+02	-16.9295	-35.058487	0.000345	3.446195	1.167603	-0.000138
1431	1.4228e+02	-16.9824	-35.207861	0.000375	3.750271	1.270626	-0.000150
1432	1.4238e+02	-17.0193	-35.393569	0.000466	4.662499	1.579698	-0.000187
1433	1.4248e+02	-17.0626	-35.522757	0.000324	3.243478	1.098920	-0.000130
1434	1.4258e+02	-17.0979	-35.692317	0.000426	4.257065	1.442333	-0.000170
1435	1.4268e+02	-17.1380	-35.845728	0.000385	3.851630	1.304968	-0.000154
1436	1.4278e+02	-17.1733	-36.007214	0.000405	4.054347	1.373650	-0.000162
1437	1.4288e+02	-17.2246	-36.136402	0.000324	3.243478	1.098920	-0.000130
1438	1.4298e+02	-17.2631	-36.330185	0.000487	4.865217	1.648380	-0.000195
1439	1.4308e+02	-17.3000	-36.483596	0.000385	3.851630	1.304968	-0.000154
1440	1.4318e+02	-17.3385	-36.616821	0.000334	3.344836	1.133261	-0.000134
1441	1.4328e+02	-17.3819	-36.798492	0.000456	4.561141	1.545356	-0.000183
1442	1.4338e+02	-17.4220	-36.951903	0.000385	3.851630	1.304968	-0.000154
1443	1.4348e+02	-17.4605	-37.113389	0.000405	4.054347	1.373650	-0.000162
1444	1.4358e+02	-17.5006	-37.238540	0.000314	3.142119	1.064579	-0.000126
1445	1.4368e+02	-17.5343	-37.371766	0.000334	3.344836	1.133261	-0.000134
1446	1.4378e+02	-17.5744	-37.545362	0.000436	4.358423	1.476674	-0.000174
1447	1.4388e+02	-17.6113	-37.722996	0.000446	4.459782	1.511015	-0.000179
1448	1.4398e+02	-17.6594	-37.864296	0.000355	3.547554	1.201944	-0.000142
1449	1.4408e+02	-17.7011	-38.050004	0.000466	4.662499	1.579698	-0.000187
1450	1.4418e+02	-17.7348	-38.163044	0.000284	2.838043	0.961555	-0.000114
1451	1.4428e+02	-17.7829	-38.340678	0.000446	4.459782	1.511015	-0.000179
1452	1.4437e+02	-17.8198	-38.457755	0.000294	2.939402	0.995896	-0.000118
1453	1.4447e+02	-17.8567	-38.663649	0.000517	5.169293	1.751404	-0.000207
1454	1.4457e+02	-17.8920	-38.813023	0.000375	3.750271	1.270626	-0.000150
1455	1.4467e+02	-17.9337	-38.942211	0.000324	3.243478	1.098920	-0.000130
1456	1.4477e+02	-17.9674	-39.115808	0.000436	4.358423	1.476674	-0.000174
1457	1.4487e+02	-18.0203	-39.269219	0.000385	3.851630	1.304968	-0.000154
1458	1.4497e+02	-18.0524	-39.426668	0.000395	3.952989	1.339309	-0.000158
1459	1.4507e+02	-18.0974	-39.588153	0.000405	4.054347	1.373650	-0.000162
1460	1.4517e+02	-18.1294	-39.745601	0.000395	3.952989	1.339309	-0.000158
1461	1.4527e+02	-18.1727	-39.923235	0.000446	4.459782	1.511015	-0.000179
1462	1.4537e+02	-18.2064	-40.052424	0.000324	3.243478	1.098920	-0.000130
1463	1.4547e+02	-18.2546	-40.205835	0.000385	3.851630	1.304968	-0.000154
1464	1.4557e+02	-18.2963	-40.375395	0.000426	4.257065	1.442333	-0.000170
1465	1.4567e+02	-18.3332	-40.508620	0.000334	3.344836	1.133261	-0.000134
1466	1.4577e+02	-18.3717	-40.670105	0.000405	4.054347	1.373650	-0.000162
1467	1.4587e+02	-18.4118	-40.843702	0.000436	4.358423	1.476674	-0.000174
1468	1.4597e+02	-18.4583	-40.993076	0.000375	3.750271	1.270626	-0.000150
1469	1.4607e+02	-18.4952	-41.126302	0.000334	3.344836	1.133261	-0.000134
1470	1.4617e+02	-18.5305	-41.328159	0.000507	5.067934	1.717063	-0.000203
1471	1.4626e+02	-18.5658	-41.481570	0.000385	3.851630	1.304968	-0.000154
1472	1.4636e+02	-18.6075	-41.630944	0.000375	3.750271	1.270626	-0.000150
1473	1.4646e+02	-18.6476	-41.804541	0.000436	4.358423	1.476674	-0.000174
1474	1.4656e+02	-18.6925	-41.982175	0.000446	4.459782	1.511015	-0.000179
1475	1.4666e+02	-18.7262	-42.131549	0.000375	3.750271	1.270626	-0.000150
1476	1.4676e+02	-18.7743	-42.268811	0.000345	3.446195	1.167603	-0.000138
1477	1.4686e+02	-18.8112	-42.450482	0.000456	4.561141	1.545356	-0.000183
1478	1.4696e+02	-18.8481	-42.644265	0.000487	4.865217	1.648380	-0.000195
1479	1.4706e+02	-18.8947	-42.757305	0.000284	2.838043	0.961555	-0.000114
1480	1.4716e+02	-18.9316	-42.943013	0.000466	4.662499	1.579698	-0.000187
1481	1.4726e+02	-18.9749	-43.076238	0.000334	3.344836	1.133261	-0.000134
1482	1.4736e+02	-19.0134	-43.237724	0.000405	4.054347	1.373650	-0.000162
1483	1.4746e+02	-19.0583	-43.423432	0.000466	4.662499	1.579698	-0.000187
1484	1.4756e+02	-19.1000	-43.609140	0.000466	4.662499	1.579698	-0.000187
1485	1.4766e+02	-19.1369	-43.714106	0.000264	2.635326	0.892873	-0.000105
1486	1.4776e+02	-19.1754	-43.920000	0.000517	5.169293	1.751404	-0.000207
1487	1.4786e+02	-19.2203	-44.073411	0.000385	3.851630	1.304968	-0.000154
1488	1.4796e+02	-19.2364	-44.190488	0.000294	2.939402	0.995896	-0.000118
1489	1.4806e+02	-19.2925	-44.404456	0.000537	5.372010	1.820086	-0.000215
1490	1.4816e+02	-19.3262	-44.529607	0.000314	3.142119	1.064579	-0.000126
1491	1.4825e+02	-19.3743	-44.739538	0.000527	5.270651	1.785745	-0.000211
1492	1.4835e+02	-19.4096	-44.832392	0.000233	2.331250	0.789849	-0.000093
1493	1.4845e+02	-19.4513	-45.014063	0.000456	4.561141	1.545356	-0.000183
1494	1.4855e+02	-19.4914	-45.207846	0.000487	4.865217	1.648380	-0.000195
1495	1.4865e+02	-19.5283	-45.365294	0.000395	3.952989	1.339309	-0.000158
1496	1.4875e+02	-19.5700	-45.502557	0.000345	3.446195	1.167603	-0.000138
1497	1.4885e+02	-19.6037	-45.676154	0.000436	4.358423	1.476674	-0.000174
1498	1.4895e+02	-19.6502	-45.841676	0.000416	4.155706	1.407991	-0.000166
1499	1.4905e+02	-19.6904	-46.003162	0.000405	4.054347	1.373650	-0.000162
1500	1.4915e+02	-19.7256	-46.160610	0.000395	3.952989	1.339309	-0.000158
1501	1.4925e+02	-19.7754	-46.330170	0.000426	4.257065	1.442333	-0.000170
1502	1.4935e+02	-19.8075	-46.544138	0.000537	5.372010	1.820086	-0.000215
1503	1.4945e+02	-19.8508	-46.689475	0.000365	3.648913	1.236285	-0.000146
1504	1.4955e+02	-19.8909	-46.850960	0.000405	4.054347	1.373650	-0.000162
1505	1.4965e+02	-19.9294	-47.032631	0.000456	4.561141	1.545356	-0.000183
1506	1.4975e+02	-19.9695	-47.190080	0.000395	3.952989	1.339309	-0.000158
1507	1.4985e+02	-20.0064	-47.347528	0.000395	3.952989	1.339309	-0.000158
1508	1.4995e+02	-19.9599	-47.311194	0.000091	0.912228	0.309071	0.000037
1509	1.5005e+02	-19.9294	-47.226414	0.000213	2.128532	0.721166	0.000085
1510	1.5015e+02	-19.8909	-47.177968	0.000122	1.216304	0.412095	0.000049
1511	1.5025e+02	-19.8428	-47.064928	0.000284	2.838043	0.961555	0.000114
1512	1.5034e+02	-19.8123	-47.024557	0.000101	1.013587	0.343413	0.000041
1513	1.5044e+02	-19.7674	-46.935740	0.000223	2.229891	0.755508	0.000089
1514	1.5054e+02	-19.7289	-46.826737	0.000274	2.736684	0.927214	0.000110
1515	1.5064e+02	-19.6920	-46.806552	0.000051	0.506793	0.171706	0.000020
1516	1.5074e+02	-19.6486	-46.669289	0.000345	3.446195	1.167603	0.000138
1517	1.5084e+02	-19.6117	-46.628918	0.000101	1.013587	0.343413	0.000041
1518	1.5094e+02	-19.5748	-46.540101	0.000223	2.229891	0.755508	0.000089
1519	1.5104e+02	-19.5363	-46.455321	0.000213	2.128532	0.721166	0.000085
1520	1.5114e+02	-19.4898	-46.358430	0.000243	2.432608	0.824190	0.000097
1521	1.5124e+02	-19.4433	-46.285761	0.000182	1.824456	0.618143	0.000073
1522	1.5134e+02	-19.4112	-46.180796	0.000264	2.635326	0.892873	0.000105
1523	1.5144e+02	-19.3679	-46.100053	0.000203	2.027174	0.686825	0.000081
1524	1.5154e+02	-19.3374	-45.958753	0.000355	3.547554	1.201944	0.000142
1525	1.5164e+02	-19.2877	-45.890122	0.000172	1.723098	0.583801	0.000069
1526	1.5174e+02	-19.2620	-45.853788	0.000091	0.912228	0.309071	0.000037
1527	1.5184e+02	-19.2123	-45.736711	0.000294	2.939402	0.995896	0.000118
1528	1.5194e+02	-19.1754	-45.619634	0.000294	2.939402	0.995896	0.000118
1529	1.5204e+02	-19.1321	-45.534854	0.000213	2.128532	0.721166	0.000085
1530	1.5214e+02	-19.0904	-45.437963	0.000243	2.432608	0.824190	0.000097
1531	1.5224e+02	-19.0471	-45.337034	0.000253	2.533967	0.858531	0.000101
1532	1.5233e+02	-19.0118	-45.244180	0.000233	2.331250	0.789849	0.000093
1533	1.5243e+02	-18.9717	-45.147289	0.000243	2.432608	0.824190	0.000097
1534	1.5253e+02	-18.9380	-45.058472	0.000223	2.229891	0.755508	0.000089
1535	1.5263e+02	-18.8930	-44.965618	0.000233	2.331250	0.789849	0.000093
1536	1.5273e+02	-18.8481	-44.892949	0.000182	1.824456	0.618143	0.000073
1537	1.5283e+02	-18.8177	-44.767798	0.000314	3.142119	1.064579	0.000126
1538	1.5293e+02	-18.7904	-44.670907	0.000243	2.432608	0.824190	0.000097
1539	1.5303e+02	-18.7310	-44.541719	0.000324	3.243478	1.098920	0.000130
1540	1.5313e+02	-18.7021	-44.505384	0.000091	0.912228	0.309071	0.000037
1541	1.5323e+02	-18.6636	-44.351973	0.000385	3.851630	1.304968	0.000154
1542	1.5333e+02	-18.6123	-44.303528	0.000122	1.216304	0.412095	0.000049
1543	1.5343e+02	-18.5738	-44.162228	0.000355	3.547554	1.201944	0.000142
1544	1.5353e+02	-18.5337	-44.077448	0.000213	2.128532	0.721166	0.000085
1545	1.5363e+02	-18.4872	-43.984594	0.000233	2.331250	0.789849	0.000093
1546	1.5373e+02	-18.4551	-43.851368	0.000334	3.344836	1.133261	0.000134
1547	1.5383e+02	-18.4198	-43.746403	0.000264	2.635326	0.892873	0.000105
1548	1.5393e+02	-18.3733	-43.665660	0.000203	2.027174	0.686825	0.000081
1549	1.5403e+02	-18.3348	-43.548583	0.000294	2.939402	0.995896	0.000118
1550	1.5413e+02	-18.2915	-43.463803	0.000213	2.128532	0.721166	0.000085
1551	1.5422e+02	-18.2546	-43.358838	0.000264	2.635326	0.892873	0.000105
1552	1.5432e+02	-18.2193	-43.237724	0.000304	3.040760	1.030238	0.000122
1553	1.5442e+02	-18.1679	-43.112573	0.000314	3.142119	1.064579	0.000126
1554	1.5452e+02	-18.1375	-43.007607	0.000264	2.635326	0.892873	0.000105
1555	1.5462e+02	-18.0990	-42.906679	0.000253	2.533967	0.858531	0.000101
1556	1.5472e+02	-18.0572	-42.793639	0.000284	2.838043	0.961555	0.000114
1557	1.5482e+02	-18.0220	-42.684636	0.000274	2.736684	0.927214	0.000110
1558	1.5492e+02	-17.9754	-42.607931	0.000193	1.925815	0.652484	0.000077
1559	1.5502e+02	-17.9417	-42.486817	0.000304	3.040760	1.030238	0.000122
1560	1.5512e+02	-17.8968	-42.361665	0.000314	3.142119	1.064579	0.000126
1561	1.5522e+02	-17.8455	-42.236514	0.000314	3.142119	1.064579	0.000126
1562	1.5532e+02	-17.8134	-42.151734	0.000213	2.128532	0.721166	0.000085
1563	1.5542e+02	-17.7797	-42.034657	0.000294	2.939402	0.995896	0.000118
1564	1.5552e+02	-17.7380	-41.925655	0.000274	2.736684	0.927214	0.000110
1565	1.5562e+02	-17.7027	-41.804541	0.000304	3.040760	1.030238	0.000122
1566	1.5572e+02	-17.6498	-41.735909	0.000172	1.723098	0.583801	0.000069
1567	1.5582e+02	-17.6113	-41.586535	0.000375	3.750271	1.270626	0.000150
1568	1.5592e+02	-17.5824	-41.481570	0.000264	2.635326	0.892873	0.000105
1569	1.5602e+02	-17.5455	-41.388716	0.000233	2.331250	0.789849	0.000093
1570	1.5612e+02	-17.5022	-41.275676	0.000284	2.838043	0.961555	0.000114
1571	1.5622e+02	-17.4541	-41.174747	0.000253	2.533967	0.858531	0.000101
1572	1.5631e+02	-17.4123	-41.049596	0.000314	3.142119	1.064579	0.000126
1573	1.5641e+02	-17.3883	-40.944631	0.000264	2.635326	0.892873	0.000105
1574	1.5651e+02	-17.3337	-40.787182	0.000395	3.952989	1.339309	0.000158
1575	1.5661e+02	-17.3081	-40.702403	0.000213	2.128532	0.721166	0.000085
1576	1.5671e+02	-17.2615	-40.605511	0.000243	2.432608	0.824190	0.000097
1577	1.5681e+02	-17.2214	-40.468249	0.000345	3.446195	1.167603	0.000138
1578	1.5691e+02	-17.1765	-40.387506	0.000203	2.027174	0.686825	0.000081
1579	1.5701e+02	-17.1396	-40.246206	0.000355	3.547554	1.201944	0.000142
1580	1.5711e+02	-17.0947	-40.149315	0.000243	2.432608	0.824190	0.000097
1581	1.5721e+02	-17.0594	-40.044349	0.000264	2.635326	0.892873	0.000105
1582	1.5731e+02	-17.0225	-39.915161	0.000324	3.243478	1.098920	0.000130
1583	1.5741e+02	-16.9824	-39.785973	0.000324	3.243478	1.098920	0.000130
1584	1.5751e+02	-16.9391	-39.624487	0.000405	4.054347	1.373650	0.000162
1585	1.5761e+02	-16.9022	-39.527596	0.000243	2.432608	0.824190	0.000097
1586	1.5771e+02	-16.8589	-39.418593	0.000274	2.736684	0.927214	0.000110
1587	1.5781e+02	-16.8204	-39.325739	0.000233	2.331250	0.789849	0.000093
1588	1.5791e+02	-16.7819	-39.184439	0.000355	3.547554	1.201944	0.000142
1589	1.5801e+02	-16.7354	-39.067363	0.000294	2.939402	0.995896	0.000118
1590	1.5811e+02	-16.7017	-38.954323	0.000284	2.838043	0.961555	0.000114
1591	1.5821e+02	-16.6616	-38.849357	0.000264	2.635326	0.892873	0.000105
1592	1.5830e+02	-16.6134	-38.708057	0.000355	3.547554	1.201944	0.000142
1593	1.5840e+02	-16.5830	-38.562721	0.000365	3.648913	1.236285	0.000146
1594	1.5850e+02	-16.5412	-38.437569	0.000314	3.142119	1.064579	0.000126
1595	1.5860e+02	-16.4995	-38.348752	0.000223	2.229891	0.755508	0.000089
1596	1.5870e+02	-16.4642	-38.235713	0.000284	2.838043	0.961555	0.000114
1597	1.5880e+02	-16.4193	-38.118636	0.000294	2.939402	0.995896	0.000118
1598	1.5890e+02	-16.3776	-38.013670	0.000264	2.635326	0.892873	0.000105
1599	1.5900e+02	-16.3359	-37.868333	0.000365	3.648913	1.236285	0.000146
1600	1.5910e+02	-16.3134	-37.771442	0.000243	2.432608	0.824190	0.000097
1601	1.5920e+02	-16.2573	-37.638216	0.000334	3.344836	1.133261	0.000134
1602	1.5930e+02	-16.2236	-37.504991	0.000334	3.344836	1.133261	0.000134
1603	1.5940e+02	-16.1899	-37.351580	0.000385	3.851630	1.304968	0.000154
1604	1.5950e+02	-16.1386	-37.246614	0.000264	2.635326	0.892873	0.000105
1605	1.5960e+02	-16.1049	-37.141649	0.000264	2.635326	0.892873	0.000105
1606	1.5970e+02	-16.0664	-37.004386	0.000345	3.446195	1.167603	0.000138
1607	1.5980e+02	-16.0231	-36.879235	0.000314	3.142119	1.064579	0.000126
1608	1.5990e+02	-15.9733	-36.770232	0.000274	2.736684	0.927214	0.000110
1609	1.6000e+02	-15.9525	-36.653155	0.000294	2.939402	0.995896	0.000118
1610	1.6010e+02	-15.9124	-36.536078	0.000294	2.939402	0.995896	0.000118
1611	1.6019e+02	-15.8530	-36.370556	0.000416	4.155706	1.407991	0.000166
1612	1.6029e+02	-15.8145	-36.281739	0.000223	2.229891	0.755508	0.000089
1613	1.6039e+02	-15.7873	-36.172736	0.000274	2.736684	0.927214	0.000110
1614	1.6049e+02	-15.7455	-35.999139	0.000436	4.358423	1.476674	0.000174
1615	1.6059e+02	-15.7038	-35.882062	0.000294	2.939402	0.995896	0.000118
1616	1.6069e+02	-15.6621	-35.732688	0.000375	3.750271	1.270626	0.000150
1617	1.6079e+02	-15.6156	-35.607537	0.000314	3.142119	1.064579	0.000126
1618	1.6089e+02	-15.5739	-35.522757	0.000213	2.128532	0.721166	0.000085
1619	1.6099e+02	-15.5562	-35.373383	0.000375	3.750271	1.270626	0.000150
1620	1.6109e+02	-15.5033	-35.248232	0.000314	3.142119	1.064579	0.000126
1621	1.6119e+02	-15.4680	-35.123081	0.000314	3.142119	1.064579	0.000126
1622	1.6129e+02	-15.4263	-34.949484	0.000436	4.358423	1.476674	0.000174
1623	1.6139e+02	-15.3926	-34.848556	0.000253	2.533967	0.858531	0.000101
1624	1.6149e+02	-15.3429	-34.723404	0.000314	3.142119	1.064579	0.000126
1625	1.6159e+02	-15.3044	-34.606328	0.000294	2.939402	0.995896	0.000118
1626	1.6169e+02	-15.2643	-34.460991	0.000365	3.648913	1.236285	0.000146
1627	1.6179e+02	-15.2322	-34.303542	0.000395	3.952989	1.339309	0.000158
1628	1.6189e+02	-15.1841	-34.210688	0.000233	2.331250	0.789849	0.000093
1629	1.6199e+02	-15.1472	-34.045166	0.000416	4.155706	1.407991	0.000166
1630	1.6209e+02	-15.1135	-33.911940	0.000334	3.344836	1.133261	0.000134
1631	1.6219e+02	-15.0686	-33.802938	0.000274	2.736684	0.927214	0.000110
1632	1.6228e+02	-15.0317	-33.661638	0.000355	3.547554	1.201944	0.000142
1633	1.6238e+02	-14.9867	-33.536487	0.000314	3.142119	1.064579	0.000126
1634	1.6248e+02	-14.9498	-33.383075	0.000385	3.851630	1.304968	0.000154
1635	1.6258e+02	-14.9097	-33.290221	0.000233	2.331250	0.789849	0.000093
1636	1.6268e+02	-14.8632	-33.181219	0.000274	2.736684	0.927214	0.000110
1637	1.6278e+02	-14.8247	-33.027807	0.000385	3.851630	1.304968	0.000154
1638	1.6288e+02	-14.7926	-32.902656	0.000314	3.142119	1.064579	0.000126
1639	1.6298e+02	-14.7333	-32.777505	0.000314	3.142119	1.064579	0.000126
1640	1.6308e+02	-14.7092	-32.636205	0.000355	3.547554	1.201944	0.000142
1641	1.6318e+02	-14.6675	-32.490868	0.000365	3.648913	1.236285	0.000146
1642	1.6328e+02	-14.6226	-32.369754	0.000304	3.040760	1.030238	0.000122
1643	1.6338e+02	-14.5873	-32.252677	0.000294	2.939402	0.995896	0.000118
1644	1.6348e+02	-14.5472	-32.111378	0.000355	3.547554	1.201944	0.000142
1645	1.6358e+02	-14.5135	-31.994301	0.000294	2.939402	0.995896	0.000118
1646	1.6368e+02	-14.4766	-31.848964	0.000365	3.648913	1.236285	0.000146
1647	1.6378e+02	-14.4253	-31.731887	0.000294	2.939402	0.995896	0.000118
1648	1.6388e+02	-14.3868	-31.582513	0.000375	3.750271	1.270626	0.000150
1649	1.6398e+02	-14.3531	-31.485622	0.000243	2.432608	0.824190	0.000097
1650	1.6408e+02	-14.3017	-31.348359	0.000345	3.446195	1.167603	0.000138
1651	1.6418e+02	-14.2793	-31.186874	0.000405	4.054347	1.373650	0.000162
1652	1.6427e+02	-14.2247	-31.069797	0.000294	2.939402	0.995896	0.000118
1653	1.6437e+02	-14.1910	-30.940608	0.000324	3.243478	1.098920	0.000130
1654	1.6447e+02	-14.1541	-30.783160	0.000395	3.952989	1.339309	0.000158
1655	1.6457e+02	-14.1140	-30.653972	0.000324	3.243478	1.098920	0.000130
1656	1.6467e+02	-14.0627	-30.508635	0.000365	3.648913	1.236285	0.000146
1657	1.6477e+02	-14.0274	-30.359261	0.000375	3.750271	1.270626	0.000150
1658	1.6487e+02	-13.9905	-30.234110	0.000314	3.142119	1.064579	0.000126
1659	1.6497e+02	-13.9488	-30.112995	0.000304	3.040760	1.030238	0.000122
1660	1.6507e+02	-13.9135	-29.987844	0.000314	3.142119	1.064579	0.000126
1661	1.6517e+02	-13.8766	-29.846545	0.000355	3.547554	1.201944	0.000142
1662	1.6527e+02	-13.8301	-29.685059	0.000405	4.054347	1.373650	0.000162
1663	1.6537e+02	-13.7868	-29.559908	0.000314	3.142119	1.064579	0.000126
1664	1.6547e+02	-13.7451	-29.402460	0.000395	3.952989	1.339309	0.000158
1665	1.6557e+02	-13.7162	-29.289420	0.000284	2.838043	0.961555	0.000114
1666	1.6567e+02	-13.6649	-29.103712	0.000466	4.662499	1.579698	0.000187
1667	1.6577e+02	-13.6328	-29.018932	0.000213	2.128532	0.721166	0.000085
1668	1.6587e+02	-13.5879	-28.865521	0.000385	3.851630	1.304968	0.000154
1669	1.6597e+02	-13.5590	-28.740369	0.000314	3.142119	1.064579	0.000126
1670	1.6607e+02	-13.4980	-28.599070	0.000355	3.547554	1.201944	0.000142
1671	1.6616e+02	-13.4788	-28.481993	0.000294	2.939402	0.995896	0.000118
1672	1.6626e+02	-13.4306	-28.320507	0.000405	4.054347	1.373650	0.000162
1673	1.6636e+02	-13.3953	-28.179207	0.000355	3.547554	1.201944	0.000142
1674	1.6646e+02	-13.3568	-28.037908	0.000355	3.547554	1.201944	0.000142
1675	1.6656e+02	-13.3151	-27.936979	0.000253	2.533967	0.858531	0.000101
1676	1.6666e+02	-13.2798	-27.767420	0.000426	4.257065	1.442333	0.000170
1677	1.6676e+02	-13.2253	-27.646306	0.000304	3.040760	1.030238	0.000122
1678	1.6686e+02	-13.1852	-27.509043	0.000345	3.446195	1.167603	0.000138
1679	1.6696e+02	-13.1499	-27.396003	0.000284	2.838043	0.961555	0.000114
1680	1.6706e+02	-13.1114	-27.242592	0.000385	3.851630	1.304968	0.000154
1681	1.6716e+02	-13.0713	-27.121478	0.000304	3.040760	1.030238	0.000122
1682	1.6726e+02	-13.0360	-26.947881	0.000436	4.358423	1.476674	0.000174
1683	1.6736e+02	-12.9895	-26.826767	0.000304	3.040760	1.030238	0.000122
1684	1.6746e+02	-12.9510	-26.693541	0.000334	3.344836	1.133261	0.000134
1685	1.6756e+02	-12.9141	-26.572427	0.000304	3.040760	1.030238	0.000122
1686	1.6766e+02	-12.8788	-26.431128	0.000355	3.547554	1.201944	0.000142
1687	1.6776e+02	-12.8371	-26.253494	0.000446	4.459782	1.511015	0.000179
1688	1.6786e+02	-12.7841	-26.176788	0.000193	1.925815	0.652484	0.000077
1689	1.6796e+02	-12.7633	-26.035488	0.000355	3.547554	1.201944	0.000142
1690	1.6806e+02	-12.7151	-25.837669	0.000497	4.966575	1.682721	0.000199
1691	1.6816e+02	-12.6686	-25.716555	0.000304	3.040760	1.030238	0.000122
1692	1.6825e+02	-12.6349	-25.579292	0.000345	3.446195	1.167603	0.000138
1693	1.6835e+02	-12.5916	-25.450104	0.000324	3.243478	1.098920	0.000130
1694	1.6845e+02	-12.5531	-25.353212	0.000243	2.432608	0.824190	0.000097
1695	1.6855e+02	-12.5130	-25.171541	0.000456	4.561141	1.545356	0.000183
1696	1.6865e+02	-12.4681	-25.070613	0.000253	2.533967	0.858531	0.000101
1697	1.6875e+02	-12.4392	-24.905090	0.000416	4.155706	1.407991	0.000166
1698	1.6885e+02	-12.3991	-24.763791	0.000355	3.547554	1.201944	0.000142
1699	1.6895e+02	-12.3638	-24.626528	0.000345	3.446195	1.167603	0.000138
1700	1.6905e+02	-12.3189	-24.477154	0.000375	3.750271	1.270626	0.000150
1701	1.6915e+02	-12.2708	-24.347966	0.000324	3.243478	1.098920	0.000130
1702	1.6925e+02	-12.2339	-24.226852	0.000304	3.040760	1.030238	0.000122
1703	1.6935e+02	-12.1954	-24.061329	0.000416	4.155706	1.407991	0.000166
1704	1.6945e+02	-12.1601	-23.972512	0.000223	2.229891	0.755508	0.000089
1705	1.6955e+02	-12.1184	-23.794878	0.000446	4.459782	1.511015	0.000179
1706	1.6965e+02	-12.0783	-23.710098	0.000213	2.128532	0.721166	0.000085
1707	1.6975e+02	-12.0350	-23.520353	0.000476	4.763858	1.614039	0.000191
1708	1.6985e+02	-11.9965	-23.379053	0.000355	3.547554	1.201944	0.000142
1709	1.6995e+02	-11.9563	-23.278125	0.000253	2.533967	0.858531	0.000101
1710	1.7005e+02	-11.9178	-23.128751	0.000375	3.750271	1.270626	0.000150
1711	1.7015e+02	-11.8874	-22.955154	0.000436	4.358423	1.476674	0.000174
1712	1.7024e+02	-11.8441	-22.838077	0.000294	2.939402	0.995896	0.000118
1713	1.7034e+02	-11.8055	-22.684666	0.000385	3.851630	1.304968	0.000154
1714	1.7044e+02	-11.7542	-22.563552	0.000304	3.040760	1.030238	0.000122
1715	1.7054e+02	-11.7205	-22.410140	0.000385	3.851630	1.304968	0.000154
1716	1.7064e+02	-11.6772	-22.280952	0.000324	3.243478	1.098920	0.000130
1717	1.7074e+02	-11.6387	-22.147727	0.000334	3.344836	1.133261	0.000134
1718	1.7084e+02	-11.6050	-21.970093	0.000446	4.459782	1.511015	0.000179
1719	1.7094e+02	-11.5569	-21.816682	0.000385	3.851630	1.304968	0.000154
1720	1.7104e+02	-11.5216	-21.691530	0.000314	3.142119	1.064579	0.000126
1721	1.7114e+02	-11.4863	-21.546193	0.000365	3.648913	1.236285	0.000146
1722	1.7124e+02	-11.4414	-21.404894	0.000355	3.547554	1.201944	0.000142
1723	1.7134e+02	-11.3901	-21.259557	0.000365	3.648913	1.236285	0.000146
1724	1.7144e+02	-11.3660	-21.118257	0.000355	3.547554	1.201944	0.000142
1725	1.7154e+02	-11.3195	-20.968883	0.000375	3.750271	1.270626	0.000150
1726	1.7164e+02	-11.2842	-20.799323	0.000426	4.257065	1.442333	0.000170
1727	1.7174e+02	-11.2409	-20.678209	0.000304	3.040760	1.030238	0.000122
1728	1.7184e+02	-11.2088	-20.549021	0.000324	3.243478	1.098920	0.000130
1729	1.7194e+02	-11.1655	-20.419833	0.000324	3.243478	1.098920	0.000130
1730	1.7204e+02	-11.1173	-20.217976	0.000507	5.067934	1.717063	0.000203
1731	1.7213e+02	-11.0804	-20.129159	0.000223	2.229891	0.755508	0.000089
1732	1.7223e+02	-11.0419	-19.943451	0.000466	4.662499	1.579698	0.000187
1733	1.7233e+02	-11.0066	-19.822336	0.000304	3.040760	1.030238	0.000122
1734	1.7243e+02	-10.9649	-19.656814	0.000416	4.155706	1.407991	0.000166
1735	1.7253e+02	-10.9232	-19.543774	0.000284	2.838043	0.961555	0.000114
1736	1.7263e+02	-10.8799	-19.414586	0.000324	3.243478	1.098920	0.000130
1737	1.7273e+02	-10.8494	-19.249063	0.000416	4.155706	1.407991	0.000166
1738	1.7283e+02	-10.8077	-19.127949	0.000304	3.040760	1.030238	0.000122
1739	1.7293e+02	-10.7612	-18.926092	0.000507	5.067934	1.717063	0.000203
1740	1.7303e+02	-10.7243	-18.804978	0.000304	3.040760	1.030238	0.000122
1741	1.7313e+02	-10.6874	-18.635419	0.000426	4.257065	1.442333	0.000170
1742	1.7323e+02	-10.6457	-18.473933	0.000405	4.054347	1.373650	0.000162
1743	1.7333e+02	-10.6072	-18.352819	0.000304	3.040760	1.030238	0.000122
1744	1.7343e+02	-10.5719	-18.203445	0.000375	3.750271	1.270626	0.000150
1745	1.7353e+02	-10.5318	-18.070220	0.000334	3.344836	1.133261	0.000134
1746	1.7363e+02	-10.4949	-17.941031	0.000324	3.243478	1.098920	0.000130
1747	1.7373e+02	-10.4452	-17.779546	0.000405	4.054347	1.373650	0.000162
1748	1.7383e+02	-10.4051	-17.618060	0.000405	4.054347	1.373650	0.000162
1749	1.7393e+02	-10.3601	-17.440426	0.000446	4.459782	1.511015	0.000179
1750	1.7403e+02	-10.3313	-17.303164	0.000345	3.446195	1.167603	0.000138
1751	1.7413e+02	-10.2831	-17.206273	0.000243	2.432608	0.824190	0.000097
1752	1.7422e+02	-10.2430	-17.048824	0.000395	3.952989	1.339309	0.000158
1753	1.7432e+02	-10.2045	-16.863116	0.000466	4.662499	1.579698	0.000187
1754	1.7442e+02	-10.1660	-16.713742	0.000375	3.750271	1.270626	0.000150
1755	1.7452e+02	-10.1179	-16.572442	0.000355	3.547554	1.201944	0.000142
1756	1.7462e+02	-10.0890	-16.394808	0.000446	4.459782	1.511015	0.000179
1757	1.7472e+02	-10.0569	-16.261583	0.000334	3.344836	1.133261	0.000134
1758	1.7482e+02	-10.0088	-16.104134	0.000395	3.952989	1.339309	0.000158
1759	1.7492e+02	-9.9735	-15.962835	0.000355	3.547554	1.201944	0.000142
1760	1.7502e+02	-9.9270	-15.829609	0.000334	3.344836	1.133261	0.000134
1761	1.7512e+02	-9.8901	-15.647938	0.000456	4.561141	1.545356	0.000183
1762	1.7522e+02	-9.8356	-15.498564	0.000375	3.750271	1.270626	0.000150
1763	1.7532e+02	-9.8163	-15.333042	0.000416	4.155706	1.407991	0.000166
1764	1.7542e+02	-9.7650	-15.191742	0.000355	3.547554	1.201944	0.000142
1765	1.7552e+02	-9.7345	-15.030256	0.000405	4.054347	1.373650	0.000162
1766	1.7562e+02	-9.6799	-14.868771	0.000405	4.054347	1.373650	0.000162
1767	1.7572e+02	-9.6479	-14.707285	0.000405	4.054347	1.373650	0.000162
1768	1.7582e+02	-9.6174	-14.557911	0.000375	3.750271	1.270626	0.000150
1769	1.7592e+02	-9.5692	-14.440835	0.000294	2.939402	0.995896	0.000118
1770	1.7602e+02	-9.5324	-14.295498	0.000365	3.648913	1.236285	0.000146
1771	1.7612e+02	-9.4922	-14.109789	0.000466	4.662499	1.579698	0.000187
1772	1.7621e+02	-9.4521	-13.976564	0.000334	3.344836	1.133261	0.000134
1773	1.7631e+02	-9.4152	-13.778744	0.000497	4.966575	1.682721	0.000199
1774	1.7641e+02	-9.3751	-13.633407	0.000365	3.648913	1.236285	0.000146
1775	1.7651e+02	-9.3222	-13.455773	0.000446	4.459782	1.511015	0.000179
1776	1.7661e+02	-9.2917	-13.346771	0.000274	2.736684	0.927214	0.000110
1777	1.7671e+02	-9.2500	-13.177211	0.000426	4.257065	1.442333	0.000170
1778	1.7681e+02	-9.2067	-12.995540	0.000456	4.561141	1.545356	0.000183
1779	1.7691e+02	-9.1730	-12.834055	0.000405	4.054347	1.373650	0.000162
1780	1.7701e+02	-9.1265	-12.684680	0.000375	3.750271	1.270626	0.000150
1781	1.7711e+02	-9.0960	-12.559529	0.000314	3.142119	1.064579	0.000126
1782	1.7721e+02	-9.0543	-12.353635	0.000517	5.169293	1.751404	0.000207
1783	1.7731e+02	-9.0094	-12.184076	0.000426	4.257065	1.442333	0.000170
1784	1.7741e+02	-8.9693	-12.058924	0.000314	3.142119	1.064579	0.000126
1785	1.7751e+02	-8.9308	-11.909550	0.000375	3.750271	1.270626	0.000150
1786	1.7761e+02	-8.8907	-11.707694	0.000507	5.067934	1.717063	0.000203
1787	1.7771e+02	-8.8489	-11.570431	0.000345	3.446195	1.167603	0.000138
1788	1.7781e+02	-8.8056	-11.412983	0.000395	3.952989	1.339309	0.000158
1789	1.7791e+02	-8.7719	-11.259572	0.000385	3.851630	1.304968	0.000154
1790	1.7801e+02	-8.7318	-11.094049	0.000416	4.155706	1.407991	0.000166
1791	1.7810e+02	-8.6901	-10.936601	0.000395	3.952989	1.339309	0.000158
1792	1.7820e+02	-8.6516	-10.738781	0.000497	4.966575	1.682721	0.000199
1793	1.7830e+02	-8.6067	-10.613630	0.000314	3.142119	1.064579	0.000126
1794	1.7840e+02	-8.5778	-10.423884	0.000476	4.763858	1.614039	0.000191
1795	1.7850e+02	-8.5281	-10.254325	0.000426	4.257065	1.442333	0.000170
1796	1.7860e+02	-8.4912	-10.088802	0.000416	4.155706	1.407991	0.000166
1797	1.7870e+02	-8.4479	-9.951540	0.000345	3.446195	1.167603	0.000138
1798	1.7880e+02	-8.4078	-9.781980	0.000426	4.257065	1.442333	0.000170
1799	1.7890e+02	-8.3757	-9.596272	0.000466	4.662499	1.579698	0.000187
1800	1.7900e+02	-8.3420	-9.463046	0.000334	3.344836	1.133261	0.000134
1801	1.7910e+02	-8.2923	-9.293486	0.000426	4.257065	1.442333	0.000170
1802	1.7920e+02	-8.2554	-9.115852	0.000446	4.459782	1.511015	0.000179
1803	1.7930e+02	-8.2121	-8.966478	0.000375	3.750271	1.270626	0.000150
1804	1.7940e+02	-8.1752	-8.800956	0.000416	4.155706	1.407991	0.000166
1805	1.7950e+02	-8.1351	-8.663693	0.000345	3.446195	1.167603	0.000138
1806	1.7960e+02	-8.0934	-8.477985	0.000466	4.662499	1.579698	0.000187
1807	1.7970e+02	-8.0597	-8.348797	0.000324	3.243478	1.098920	0.000130
1808	1.7980e+02	-8.0099	-8.130791	0.000547	5.473369	1.854428	0.000219
1809	1.7990e+02	-7.9730	-8.021789	0.000274	2.736684	0.927214	0.000110
1810	1.8000e+02	-7.9361	-7.832043	0.000476	4.763858	1.614039	0.000191
1811	1.8009e+02	-7.8960	-7.666521	0.000416	4.155706	1.407991	0.000166
1812	1.8019e+02	-7.8527	-7.505035	0.000405	4.054347	1.373650	0.000162
1813	1.8029e+02	-7.8174	-7.363736	0.000355	3.547554	1.201944	0.000142
1814	1.8039e+02	-7.7661	-7.186102	0.000446	4.459782	1.511015	0.000179
1815	1.8049e+02	-7.7292	-7.004431	0.000456	4.561141	1.545356	0.000183
1816	1.8059e+02	-7.6907	-6.826797	0.000446	4.459782	1.511015	0.000179
1817	1.8069e+02	-7.6586	-6.681460	0.000365	3.648913	1.236285	0.000146
1818	1.8079e+02	-7.6137	-6.519974	0.000405	4.054347	1.373650	0.000162
1819	1.8089e+02	-7.5704	-6.342340	0.000446	4.459782	1.511015	0.000179
1820	1.8099e+02	-7.5319	-6.180855	0.000405	4.054347	1.373650	0.000162
1821	1.8109e+02	-7.4950	-5.999184	0.000456	4.561141	1.545356	0.000183
1822	1.8119e+02	-7.4549	-5.841735	0.000395	3.952989	1.339309	0.000158
1823	1.8129e+02	-7.4132	-5.684287	0.000395	3.952989	1.339309	0.000158
1824	1.8139e+02	-7.3779	-5.502616	0.000456	4.561141	1.545356	0.000183
1825	1.8149e+02	-7.3362	-5.345168	0.000395	3.952989	1.339309	0.000158
1826	1.8159e+02	-7.2784	-5.179645	0.000416	4.155706	1.407991	0.000166
1827	1.8169e+02	-7.2575	-4.981826	0.000497	4.966575	1.682721	0.000199
1828	1.8179e+02	-7.2190	-4.828414	0.000385	3.851630	1.304968	0.000154
1829	1.8189e+02	-7.1709	-4.679040	0.000375	3.750271	1.270626	0.000150
1830	1.8199e+02	-7.1340	-4.513518	0.000416	4.155706	1.407991	0.000166
1831	1.8209e+02	-7.1051	-4.327810	0.000466	4.662499	1.579698	0.000187
1832	1.8218e+02	-7.0522	-4.170361	0.000395	3.952989	1.339309	0.000158
1833	1.8228e+02	-7.0201	-4.016950	0.000385	3.851630	1.304968	0.000154
1834	1.8238e+02	-6.9800	-3.859502	0.000395	3.952989	1.339309	0.000158
1835	1.8248e+02	-6.9399	-3.641496	0.000547	5.473369	1.854428	0.000219
1836	1.8258e+02	-6.9078	-3.508271	0.000334	3.344836	1.133261	0.000134
1837	1.8268e+02	-6.8597	-3.318526	0.000476	4.763858	1.614039	0.000191
1838	1.8278e+02	-6.8164	-3.144929	0.000436	4.358423	1.476674	0.000174
1839	1.8288e+02	-6.7811	-2.983443	0.000405	4.054347	1.373650	0.000162
1840	1.8298e+02	-6.7330	-2.825995	0.000395	3.952989	1.339309	0.000158
1841	1.8308e+02	-6.6961	-2.644324	0.000456	4.561141	1.545356	0.000183
1842	1.8318e+02	-6.6528	-2.494950	0.000375	3.750271	1.270626	0.000150
1843	1.8328e+02	-6.6143	-2.321353	0.000436	4.358423	1.476674	0.000174
1844	1.8338e+02	-6.5870	-2.139682	0.000456	4.561141	1.545356	0.000183
1845	1.8348e+02	-6.5405	-1.974159	0.000416	4.155706	1.407991	0.000166
1846	1.8358e+02	-6.4955	-1.788451	0.000466	4.662499	1.579698	0.000187
1847	1.8368e+02	-6.4667	-1.590631	0.000497	4.966575	1.682721	0.000199
1848	1.8378e+02	-6.4153	-1.509889	0.000203	2.027174	0.686825	0.000081
1849	1.8388e+02	-6.3720	-1.299958	0.000527	5.270651	1.785745	0.000211
1850	1.8398e+02	-6.3447	-1.114249	0.000466	4.662499	1.579698	0.000187
1851	1.8407e+02	-6.3062	-0.972950	0.000355	3.547554	1.201944	0.000142
1852	1.8417e+02	-6.2645	-0.799353	0.000436	4.358423	1.476674	0.000174
1853	1.8427e+02	-6.2244	-0.629793	0.000426	4.257065	1.442333	0.000170
1854	1.8437e+02	-6.1827	-0.468308	0.000405	4.054347	1.373650	0.000162
1855	1.8447e+02	-6.1410	-0.262414	0.000517	5.169293	1.751404	0.000207
1856	1.8457e+02	-6.1089	-0.121114	0.000355	3.547554	1.201944	0.000142
1857	1.8467e+02	-6.0640	0.076706	0.000497	4.966575	1.682721	0.000199
1858	1.8477e+02	-6.0271	0.242228	0.000416	4.155706	1.407991	0.000166
1859	1.8487e+02	-5.9870	0.379491	0.000345	3.446195	1.167603	0.000138
1860	1.8497e+02	-5.9357	0.565199	0.000466	4.662499	1.579698	0.000187
1861	1.8507e+02	-5.9100	0.742833	0.000446	4.459782	1.511015	0.000179
1862	1.8517e+02	-5.8635	0.880096	0.000345	3.446195	1.167603	0.000138
1863	1.8527e+02	-5.8266	1.081952	0.000507	5.067934	1.717063	0.000203
1864	1.8537e+02	-5.7768	1.283809	0.000507	5.067934	1.717063	0.000203
1865	1.8547e+02	-5.7528	1.429146	0.000365	3.648913	1.236285	0.000146
1866	1.8557e+02	-5.7014	1.602743	0.000436	4.358423	1.476674	0.000174
1867	1.8567e+02	-5.6662	1.784414	0.000456	4.561141	1.545356	0.000183
1868	1.8577e+02	-5.6293	1.933788	0.000375	3.750271	1.270626	0.000150
1869	1.8587e+02	-5.5763	2.103348	0.000426	4.257065	1.442333	0.000170
1870	1.8597e+02	-5.5490	2.321353	0.000547	5.473369	1.854428	0.000219
1871	1.8606e+02	-5.5025	2.466690	0.000365	3.648913	1.236285	0.000146
1872	1.8616e+02	-5.4720	2.612027	0.000365	3.648913	1.236285	0.000146
1873	1.8626e+02	-5.4255	2.809846	0.000497	4.966575	1.682721	0.000199
1874	1.8636e+02	-5.3870	2.987480	0.000446	4.459782	1.511015	0.000179
1875	1.8646e+02	-5.3437	3.140892	0.000385	3.851630	1.304968	0.000154
1876	1.8656e+02	-5.3036	3.342748	0.000507	5.067934	1.717063	0.000203
1877	1.8666e+02	-5.2715	3.512308	0.000426	4.257065	1.442333	0.000170
1878	1.8676e+02	-5.2298	3.677831	0.000416	4.155706	1.407991	0.000166
1879	1.8686e+02	-5.1865	3.847390	0.000426	4.257065	1.442333	0.000170
1880	1.8696e+02	-5.1544	4.016950	0.000426	4.257065	1.442333	0.000170
1881	1.8706e+02	-5.1159	4.186510	0.000426	4.257065	1.442333	0.000170
1882	1.8716e+02	-5.0694	4.356069	0.000426	4.257065	1.442333	0.000170
1883	1.8726e+02	-5.0405	4.537741	0.000456	4.561141	1.545356	0.000183
1884	1.8736e+02	-4.9860	4.699226	0.000405	4.054347	1.373650	0.000162
1885	1.8746e+02	-4.9442	4.913194	0.000537	5.372010	1.820086	0.000215
1886	1.8756e+02	-4.9090	5.078717	0.000416	4.155706	1.407991	0.000166
1887	1.8766e+02	-4.8656	5.276536	0.000497	4.966575	1.682721	0.000199
1888	1.8776e+02	-4.8319	5.429948	0.000385	3.851630	1.304968	0.000154
1889	1.8786e+02	-4.7902	5.611619	0.000456	4.561141	1.545356	0.000183
1890	1.8796e+02	-4.7405	5.789253	0.000446	4.459782	1.511015	0.000179
1891	1.8806e+02	-4.7116	5.966887	0.000446	4.459782	1.511015	0.000179
1892	1.8815e+02	-4.6747	6.148558	0.000456	4.561141	1.545356	0.000183
1893	1.8825e+02	-4.6250	6.310043	0.000405	4.054347	1.373650	0.000162
1894	1.8835e+02	-4.5961	6.491714	0.000456	4.561141	1.545356	0.000183
1895	1.8845e+02	-4.5464	6.665311	0.000436	4.358423	1.476674	0.000174
1896	1.8855e+02	-4.5111	6.863131	0.000497	4.966575	1.682721	0.000199
1897	1.8865e+02	-4.4742	7.020579	0.000395	3.952989	1.339309	0.000158
1898	1.8875e+02	-4.4341	7.238584	0.000547	5.473369	1.854428	0.000219
1899	1.8885e+02	-4.3892	7.428330	0.000476	4.763858	1.614039	0.000191
1900	1.8895e+02	-4.3507	7.605964	0.000446	4.459782	1.511015	0.000179
1901	1.8905e+02	-4.3058	7.767449	0.000405	4.054347	1.373650	0.000162
1902	1.8915e+02	-4.2705	7.961232	0.000487	4.865217	1.648380	0.000195
1903	1.8925e+02	-4.2320	8.102531	0.000355	3.547554	1.201944	0.000142
1904	1.8935e+02	-4.1999	8.296314	0.000487	4.865217	1.648380	0.000195
1905	1.8945e+02	-4.1550	8.494134	0.000497	4.966575	1.682721	0.000199
1906	1.8955e+02	-4.1036	8.679842	0.000466	4.662499	1.579698	0.000187
1907	1.8965e+02	-4.0731	8.865550	0.000466	4.662499	1.579698	0.000187
1908	1.8975e+02	-4.0362	9.010887	0.000365	3.648913	1.236285	0.000146
1909	1.8985e+02	-3.9897	9.216781	0.000517	5.169293	1.751404	0.000207
1910	1.8995e+02	-3.9528	9.410563	0.000487	4.865217	1.648380	0.000195
1911	1.9004e+02	-3.9095	9.568012	0.000395	3.952989	1.339309	0.000158
1912	1.9014e+02	-3.8694	9.753720	0.000466	4.662499	1.579698	0.000187
1913	1.9024e+02	-3.8357	9.927317	0.000436	4.358423	1.476674	0.000174
1914	1.9034e+02	-3.7972	10.161471	0.000588	5.878804	1.991793	0.000235
1915	1.9044e+02	-3.7507	10.326993	0.000416	4.155706	1.407991	0.000166
1916	1.9054e+02	-3.7202	10.508664	0.000456	4.561141	1.545356	0.000183
1917	1.9064e+02	-3.6705	10.686298	0.000446	4.459782	1.511015	0.000179
1918	1.9074e+02	-3.6304	10.876044	0.000476	4.763858	1.614039	0.000191
1919	1.9084e+02	-3.5887	11.037529	0.000405	4.054347	1.373650	0.000162
1920	1.9094e+02	-3.5550	11.251497	0.000537	5.372010	1.820086	0.000215
1921	1.9104e+02	-3.5101	11.433168	0.000456	4.561141	1.545356	0.000183
1922	1.9114e+02	-3.4812	11.610802	0.000446	4.459782	1.511015	0.000179
1923	1.9124e+02	-3.4395	11.796511	0.000466	4.662499	1.579698	0.000187
1924	1.9134e+02	-3.3897	12.010479	0.000537	5.372010	1.820086	0.000215
1925	1.9144e+02	-3.3416	12.176001	0.000416	4.155706	1.407991	0.000166
1926	1.9154e+02	-3.3127	12.406118	0.000578	5.777445	1.957451	0.000231
1927	1.9164e+02	-3.2710	12.559529	0.000385	3.851630	1.304968	0.000154
1928	1.9174e+02	-3.2373	12.729089	0.000426	4.257065	1.442333	0.000170
1929	1.9184e+02	-3.2053	12.930946	0.000507	5.067934	1.717063	0.000203
1930	1.9194e+02	-3.1539	13.152988	0.000557	5.574727	1.888769	0.000223
1931	1.9203e+02	-3.1202	13.342734	0.000476	4.763858	1.614039	0.000191
1932	1.9213e+02	-3.0769	13.512293	0.000426	4.257065	1.442333	0.000170
1933	1.9223e+02	-3.0384	13.710113	0.000497	4.966575	1.682721	0.000199
1934	1.9233e+02	-2.9983	13.879673	0.000426	4.257065	1.442333	0.000170
1935	1.9243e+02	-2.9630	14.085567	0.000517	5.169293	1.751404	0.000207
1936	1.9253e+02	-2.9181	14.271275	0.000466	4.662499	1.579698	0.000187
1937	1.9263e+02	-2.8700	14.473132	0.000507	5.067934	1.717063	0.000203
1938	1.9273e+02	-2.8395	14.699211	0.000568	5.676086	1.923110	0.000227
1939	1.9283e+02	-2.7978	14.844548	0.000365	3.648913	1.236285	0.000146
1940	1.9293e+02	-2.7593	15.046405	0.000507	5.067934	1.717063	0.000203
1941	1.9303e+02	-2.7128	15.244225	0.000497	4.966575	1.682721	0.000199
1942	1.9313e+02	-2.6903	15.458193	0.000537	5.372010	1.820086	0.000215
1943	1.9323e+02	-2.6390	15.651975	0.000487	4.865217	1.648380	0.000195
1944	1.9333e+02	-2.6021	15.825572	0.000436	4.358423	1.476674	0.000174
1945	1.9343e+02	-2.5523	16.063763	0.000598	5.980162	2.026134	0.000239
1946	1.9353e+02	-2.5251	16.201026	0.000345	3.446195	1.167603	0.000138
1947	1.9363e+02	-2.4785	16.443254	0.000608	6.081521	2.060475	0.000243
1948	1.9373e+02	-2.4352	16.669333	0.000568	5.676086	1.923110	0.000227
1949	1.9383e+02	-2.3999	16.822745	0.000385	3.851630	1.304968	0.000154
1950	1.9393e+02	-2.3678	17.040750	0.000547	5.473369	1.854428	0.000219
1951	1.9403e+02	-2.3181	17.266830	0.000568	5.676086	1.923110	0.000227
1952	1.9412e+02	-2.2764	17.379869	0.000284	2.838043	0.961555	0.000114
1953	1.9422e+02	-2.2443	17.626135	0.000618	6.182880	2.094816	0.000248
1954	1.9432e+02	-2.1930	17.848177	0.000557	5.574727	1.888769	0.000223
1955	1.9442e+02	-2.1593	18.013700	0.000416	4.155706	1.407991	0.000166
1956	1.9452e+02	-2.1144	18.268039	0.000639	6.385597	2.163499	0.000256
1957	1.9462e+02	-2.0727	18.429525	0.000405	4.054347	1.373650	0.000162
1958	1.9472e+02	-2.0390	18.635419	0.000517	5.169293	1.751404	0.000207
1959	1.9482e+02	-1.9973	18.865535	0.000578	5.777445	1.957451	0.000231
1960	1.9492e+02	-1.9588	19.055281	0.000476	4.763858	1.614039	0.000191
1961	1.9502e+02	-1.9203	19.261175	0.000517	5.169293	1.751404	0.000207
1962	1.9512e+02	-1.8770	19.479180	0.000547	5.473369	1.854428	0.000219
1963	1.9522e+02	-1.8449	19.677000	0.000497	4.966575	1.682721	0.000199
1964	1.9532e+02	-1.8016	19.882894	0.000517	5.169293	1.751404	0.000207
1965	1.9542e+02	-1.7582	20.092825	0.000527	5.270651	1.785745	0.000211
1966	1.9552e+02	-1.7133	20.298718	0.000517	5.169293	1.751404	0.000207
1967	1.9562e+02	-1.6828	20.464241	0.000416	4.155706	1.407991	0.000166
1968	1.9572e+02	-1.6395	20.686284	0.000557	5.574727	1.888769	0.000223
1969	1.9582e+02	-1.5994	20.912363	0.000568	5.676086	1.923110	0.000227
1970	1.9592e+02	-1.5609	21.077886	0.000416	4.155706	1.407991	0.000166
1971	1.9601e+02	-1.5144	21.291854	0.000537	5.372010	1.820086	0.000215
1972	1.9611e+02	-1.4839	21.521971	0.000578	5.777445	1.957451	0.000231
1973	1.9621e+02	-1.4342	21.752087	0.000578	5.777445	1.957451	0.000231
1974	1.9631e+02	-1.4021	21.925684	0.000436	4.358423	1.476674	0.000174
1975	1.9641e+02	-1.3684	22.091207	0.000416	4.155706	1.407991	0.000166
1976	1.9651e+02	-1.3155	22.333435	0.000608	6.081521	2.060475	0.000243
1977	1.9661e+02	-1.2818	22.523180	0.000476	4.763858	1.614039	0.000191
1978	1.9671e+02	-1.2401	22.741186	0.000547	5.473369	1.854428	0.000219
1979	1.9681e+02	-1.1903	22.951117	0.000527	5.270651	1.785745	0.000211
1980	1.9691e+02	-1.1615	23.165085	0.000537	5.372010	1.820086	0.000215
1981	1.9701e+02	-1.1294	23.387127	0.000557	5.574727	1.888769	0.000223
1982	1.9711e+02	-1.0796	23.584947	0.000497	4.966575	1.682721	0.000199
1983	1.9721e+02	-1.0363	23.815064	0.000578	5.777445	1.957451	0.000231
1984	1.9731e+02	-1.0042	23.988661	0.000436	4.358423	1.476674	0.000174
1985	1.9741e+02	-0.9625	24.206666	0.000547	5.473369	1.854428	0.000219
1986	1.9751e+02	-0.9192	24.388337	0.000456	4.561141	1.545356	0.000183
1987	1.9761e+02	-0.8775	24.630565	0.000608	6.081521	2.060475	0.000243
1988	1.9771e+02	-0.8551	24.856645	0.000568	5.676086	1.923110	0.000227
1989	1.9781e+02	-0.8069	25.074650	0.000547	5.473369	1.854428	0.000219
1990	1.9791e+02	-0.7524	25.292655	0.000547	5.473369	1.854428	0.000219
1991	1.9800e+02	-0.7267	25.494512	0.000507	5.067934	1.717063	0.000203
1992	1.9810e+02	-0.6882	25.688295	0.000487	4.865217	1.648380	0.000195
1993	1.9820e+02	-0.6449	25.894189	0.000517	5.169293	1.751404	0.000207
1994	1.9830e+02	-0.5984	26.104120	0.000527	5.270651	1.785745	0.000211
1995	1.9840e+02	-0.5663	26.342311	0.000598	5.980162	2.026134	0.000239
1996	1.9850e+02	-0.5278	26.568390	0.000568	5.676086	1.923110	0.000227
1997	1.9860e+02	-0.4797	26.766210	0.000497	4.966575	1.682721	0.000199
1998	1.9870e+02	-0.4492	27.000364	0.000588	5.878804	1.991793	0.000235
1999	1.9880e+02	-0.3978	27.194146	0.000487	4.865217	1.648380	0.000195
2000	1.9890e+02	-0.3593	27.412152	0.000547	5.473369	1.854428	0.000219
2001	1.9900e+02	-0.3257	27.622083	0.000527	5.270651	1.785745	0.000211
2002	1.9910e+02	-0.2839	27.844125	0.000557	5.574727	1.888769	0.000223
2003	1.9920e+02	-0.2438	28.054056	0.000527	5.270651	1.785745	0.000211
2004	1.9930e+02	-0.2102	28.268024	0.000537	5.372010	1.820086	0.000215
2005	1.9940e+02	-0.1572	28.457770	0.000476	4.763858	1.614039	0.000191
2006	1.9950e+02	-0.1267	28.675775	0.000547	5.473369	1.854428	0.000219
2007	1.9960e+02	-0.0882	28.913966	0.000598	5.980162	2.026134	0.000239
2008	1.9970e+02	-0.0545	29.115823	0.000507	5.067934	1.717063	0.000203
2009	1.9980e+02	-0.0064	29.358051	0.000507	5.067934	1.717063	0.000243

Center data before PMax,+/-Pr and +/-Vc Calc.

PMax (uC/cm2):	6.27e+01
Pr (uC/cm2):	4.21e+01
-Pr (uC/cm2):	2.94e+01
PLoss (uC/cm2):	1.14e+02
Vc:	1.39e+01
-Vc:	-8.51e+00
C (Max-Eff) (nF):	3.14e-01
K (Eff):	1.06e+03
Vert. (+/-Pr) Shift (uC/cm2):	3.57e+01
Horiz. Shift (+/-Vc):	2.72e+00
Offset (uC/cm2):	8.47e+01

A (Loop Area - uC/cm2·Volts):	-5.69e+00



Hysteresis Version: 5.48.1 - Radiant Technologies, Inc., 1999 - 9/12/24

